{"condition": 0, "counterbalance": 872, "assignmentId": "3II4UPYCOKEM3HR528HEQ8V67NDDQE", "workerId": "MTK0427", "hitId": "3QO7EE372OUR10VRYAL66YBMQAHBQC", "currenttrial": 626, "bonus": 0, "data": [{"uniqueid": "MTK0427:3II4UPYCOKEM3HR528HEQ8V67NDDQE", "current_trial": 0, "dateTime": 1510864416673, "trialdata": {"rt": 349933, "key_press": 32, "type": "INSTRUCTIONS", "trial_type": "text", "trial_index": 0, "time_elapsed": 349938, "internal_node_id": "0.0-0.0"}}, {"uniqueid": "MTK0427:3II4UPYCOKEM3HR528HEQ8V67NDDQE", "current_trial": 1, "dateTime": 1510864421145, "trialdata": {"rt": 4470, "key_press": 175, "type": "INSTRUCTIONS", "trial_type": "text", "trial_index": 1, "time_elapsed": 354411, "internal_node_id": "0.0-1.0"}}, {"uniqueid": "MTK0427:3II4UPYCOKEM3HR528HEQ8V67NDDQE", "current_trial": 2, "dateTime": 1510864427560, "trialdata": {"rt": [6387], "responses": ["ocean"], "type": "AUDIO_TEST", "trial_type": "audio-test", "trial_index": 2, "time_elapsed": 360826, "internal_node_id": "0.0-2.0"}}, {"uniqueid": "MTK0427:3II4UPYCOKEM3HR528HEQ8V67NDDQE", "current_trial": 3, "dateTime": 1510864432880, "trialdata": {"rt": [5313], "responses": ["crystal"], "type": "AUDIO_TEST", "trial_type": "audio-test", "trial_index": 3, "time_elapsed": 366146, "internal_node_id": "0.0-3.0"}}, {"uniqueid": "MTK0427:3II4UPYCOKEM3HR528HEQ8V67NDDQE", "current_trial": 4, "dateTime": 1510864443217, "trialdata": {"rt": [10333], "responses": ["spice"], "type": "AUDIO_TEST", "trial_type": "audio-test", "trial_index": 4, "time_elapsed": 376483, "internal_node_id": "0.0-4.0"}}, {"uniqueid": "MTK0427:3II4UPYCOKEM3HR528HEQ8V67NDDQE", "current_trial": 5, "dateTime": 1510864463703, "trialdata": {"rt": 19731, "responses": "{\"Q0\":\"10 pm\",\"Q1\":\"7 am\",\"Q2\":\"5\"}", "type": "SLEEP_SURVEY", "trial_type": "survey-text", "trial_index": 5, "time_elapsed": 396969, "internal_node_id": "0.0-5.0"}}, {"uniqueid": "MTK0427:3II4UPYCOKEM3HR528HEQ8V67NDDQE", "current_trial": 6, "dateTime": 1510864489108, "trialdata": {"rt": 24401, "key_press": 32, "type": "INSTRUCTIONS", "trial_type": "text", "trial_index": 6, "time_elapsed": 422373, "internal_node_id": "0.0-6.0"}}, {"uniqueid": "MTK0427:3II4UPYCOKEM3HR528HEQ8V67NDDQE", "current_trial": 7, "dateTime": 1510864518091, "trialdata": {"rt": 28482, "key_press": 32, "type": "INSTRUCTIONS", "trial_type": "text", "trial_index": 7, "time_elapsed": 451357, "internal_node_id": "0.0-7.0"}}, {"uniqueid": "MTK0427:3II4UPYCOKEM3HR528HEQ8V67NDDQE", "current_trial": 8, "dateTime": 1510864526512, "trialdata": {"rt": 7919, "key_press": 32, "type": "INSTRUCTIONS", "trial_type": "text", "trial_index": 8, "time_elapsed": 459778, "internal_node_id": "0.0-8.0"}}, {"uniqueid": "MTK0427:3II4UPYCOKEM3HR528HEQ8V67NDDQE", "current_trial": 9, "dateTime": 1510864545529, "trialdata": {"rt": [4242, 7940, 9854, 11652, 13988, 16479], "responses": ["8", "11", "12", "5", "13", "18"], "num1": [2, 3, 2, 1, 3, 8, 5], "num2": [4, 6, 7, 1, 6, 8, 1], "num3": [2, 2, 3, 3, 4, 2, 7], "type": "DISTRACTOR", "conditions": [18, 1200, "v", 18000], "trial": 0, "trial_type": "math-distractor", "trial_index": 9, "time_elapsed": 478795, "internal_node_id": "0.0-9.0"}}, {"uniqueid": "MTK0427:3II4UPYCOKEM3HR528HEQ8V67NDDQE", "current_trial": 10, "dateTime": 1510864548537, "trialdata": {"rt": -1, "stimulus": "<p id=\"stim\">10</p>", "key_press": -1, "trial_type": "single-stim", "trial_index": 10, "time_elapsed": 481803, "internal_node_id": "0.0-10.0-0.0"}}, {"uniqueid": "MTK0427:3II4UPYCOKEM3HR528HEQ8V67NDDQE", "current_trial": 11, "dateTime": 1510864549538, "trialdata": {"rt": -1, "stimulus": "<p id=\"stim\">9</p>", "key_press": -1, "trial_type": "single-stim", "trial_index": 11, "time_elapsed": 482804, "internal_node_id": "0.0-10.0-1.0"}}, {"uniqueid": "MTK0427:3II4UPYCOKEM3HR528HEQ8V67NDDQE", "current_trial": 12, "dateTime": 1510864550539, "trialdata": {"rt": -1, "stimulus": "<p id=\"stim\">8</p>", "key_press": -1, "trial_type": "single-stim", "trial_index": 12, "time_elapsed": 483805, "internal_node_id": "0.0-10.0-2.0"}}, {"uniqueid": "MTK0427:3II4UPYCOKEM3HR528HEQ8V67NDDQE", "current_trial": 13, "dateTime": 1510864551541, "trialdata": {"rt": -1, "stimulus": "<p id=\"stim\">7</p>", "key_press": -1, "trial_type": "single-stim", "trial_index": 13, "time_elapsed": 484807, "internal_node_id": "0.0-10.0-3.0"}}, {"uniqueid": "MTK0427:3II4UPYCOKEM3HR528HEQ8V67NDDQE", "current_trial": 14, "dateTime": 1510864552542, "trialdata": {"rt": -1, "stimulus": "<p id=\"stim\">6</p>", "key_press": -1, "trial_type": "single-stim", "trial_index": 14, "time_elapsed": 485807, "internal_node_id": "0.0-10.0-4.0"}}, {"uniqueid": "MTK0427:3II4UPYCOKEM3HR528HEQ8V67NDDQE", "current_trial": 15, "dateTime": 1510864553543, "trialdata": {"rt": -1, "stimulus": "<p id=\"stim\">5</p>", "key_press": -1, "trial_type": "single-stim", "trial_index": 15, "time_elapsed": 486809, "internal_node_id": "0.0-10.0-5.0"}}, {"uniqueid": "MTK0427:3II4UPYCOKEM3HR528HEQ8V67NDDQE", "current_trial": 16, "dateTime": 1510864554546, "trialdata": {"rt": -1, "stimulus": "<p id=\"stim\">4</p>", "key_press": -1, "trial_type": "single-stim", "trial_index": 16, "time_elapsed": 487811, "internal_node_id": "0.0-10.0-6.0"}}, {"uniqueid": "MTK0427:3II4UPYCOKEM3HR528HEQ8V67NDDQE", "current_trial": 17, "dateTime": 1510864555548, "trialdata": {"rt": -1, "stimulus": "<p id=\"stim\">3</p>", "key_press": -1, "trial_type": "single-stim", "trial_index": 17, "time_elapsed": 488814, "internal_node_id": "0.0-10.0-7.0"}}, {"uniqueid": "MTK0427:3II4UPYCOKEM3HR528HEQ8V67NDDQE", "current_trial": 18, "dateTime": 1510864556548, "trialdata": {"rt": -1, "stimulus": "<p id=\"stim\">2</p>", "key_press": -1, "trial_type": "single-stim", "trial_index": 18, "time_elapsed": 489814, "internal_node_id": "0.0-10.0-8.0"}}, {"uniqueid": "MTK0427:3II4UPYCOKEM3HR528HEQ8V67NDDQE", "current_trial": 19, "dateTime": 1510864557552, "trialdata": {"rt": -1, "stimulus": "<p id=\"stim\">1</p>", "key_press": -1, "trial_type": "single-stim", "trial_index": 19, "time_elapsed": 490816, "internal_node_id": "0.0-10.0-9.0"}}, {"uniqueid": "MTK0427:3II4UPYCOKEM3HR528HEQ8V67NDDQE", "current_trial": 20, "dateTime": 1510864559055, "trialdata": {"rt": -1, "stimulus": "<p id=\"stim\">+</p>", "key_press": -1, "type": "FIXATION", "trial_type": "single-stim", "trial_index": 20, "time_elapsed": 492320, "internal_node_id": "0.0-11.0-0.0"}}, {"uniqueid": "MTK0427:3II4UPYCOKEM3HR528HEQ8V67NDDQE", "current_trial": 21, "dateTime": 1510864560256, "trialdata": {"rt": -1, "stimulus": "<p id=\"stim\">DUST</p>", "key_press": -1, "type": "PRES_VIS", "word": "dust", "wordID": 507, "conditions": [18, 1200, "v", 18000], "trial": 0, "serialpos": 0, "trial_type": "single-stim", "trial_index": 21, "time_elapsed": 493522, "internal_node_id": "0.0-12.0"}}, {"uniqueid": "MTK0427:3II4UPYCOKEM3HR528HEQ8V67NDDQE", "current_trial": 22, "dateTime": 1510864562536, "trialdata": {"rt": -1, "stimulus": "<p id=\"stim\">IGLOO</p>", "key_press": -1, "type": "PRES_VIS", "word": "igloo", "wordID": 733, "conditions": [18, 1200, "v", 18000], "trial": 0, "serialpos": 1, "trial_type": "single-stim", "trial_index": 22, "time_elapsed": 495802, "internal_node_id": "0.0-13.0"}}, {"uniqueid": "MTK0427:3II4UPYCOKEM3HR528HEQ8V67NDDQE", "current_trial": 23, "dateTime": 1510864564849, "trialdata": {"rt": -1, "stimulus": "<p id=\"stim\">MASK</p>", "key_press": -1, "type": "PRES_VIS", "word": "mask", "wordID": 875, "conditions": [18, 1200, "v", 18000], "trial": 0, "serialpos": 2, "trial_type": "single-stim", "trial_index": 23, "time_elapsed": 498115, "internal_node_id": "0.0-14.0"}}, {"uniqueid": "MTK0427:3II4UPYCOKEM3HR528HEQ8V67NDDQE", "current_trial": 24, "dateTime": 1510864567063, "trialdata": {"rt": -1, "stimulus": "<p id=\"stim\">BADGE</p>", "key_press": -1, "type": "PRES_VIS", "word": "badge", "wordID": 67, "conditions": [18, 1200, "v", 18000], "trial": 0, "serialpos": 3, "trial_type": "single-stim", "trial_index": 24, "time_elapsed": 500328, "internal_node_id": "0.0-15.0"}}, {"uniqueid": "MTK0427:3II4UPYCOKEM3HR528HEQ8V67NDDQE", "current_trial": 25, "dateTime": 1510864569183, "trialdata": {"rt": -1, "stimulus": "<p id=\"stim\">FOOT</p>", "key_press": -1, "type": "PRES_VIS", "word": "foot", "wordID": 589, "conditions": [18, 1200, "v", 18000], "trial": 0, "serialpos": 4, "trial_type": "single-stim", "trial_index": 25, "time_elapsed": 502449, "internal_node_id": "0.0-16.0"}}, {"uniqueid": "MTK0427:3II4UPYCOKEM3HR528HEQ8V67NDDQE", "current_trial": 26, "dateTime": 1510864571200, "trialdata": {"rt": -1, "stimulus": "<p id=\"stim\">BINDER</p>", "key_press": -1, "type": "PRES_VIS", "word": "binder", "wordID": 126, "conditions": [18, 1200, "v", 18000], "trial": 0, "serialpos": 5, "trial_type": "single-stim", "trial_index": 26, "time_elapsed": 504465, "internal_node_id": "0.0-17.0"}}, {"uniqueid": "MTK0427:3II4UPYCOKEM3HR528HEQ8V67NDDQE", "current_trial": 27, "dateTime": 1510864573259, "trialdata": {"rt": -1, "stimulus": "<p id=\"stim\">WARDROBE</p>", "key_press": -1, "type": "PRES_VIS", "word": "wardrobe", "wordID": 1586, "conditions": [18, 1200, "v", 18000], "trial": 0, "serialpos": 6, "trial_type": "single-stim", "trial_index": 27, "time_elapsed": 506524, "internal_node_id": "0.0-18.0"}}, {"uniqueid": "MTK0427:3II4UPYCOKEM3HR528HEQ8V67NDDQE", "current_trial": 28, "dateTime": 1510864575422, "trialdata": {"rt": -1, "stimulus": "<p id=\"stim\">TUNNEL</p>", "key_press": -1, "type": "PRES_VIS", "word": "tunnel", "wordID": 1518, "conditions": [18, 1200, "v", 18000], "trial": 0, "serialpos": 7, "trial_type": "single-stim", "trial_index": 28, "time_elapsed": 508688, "internal_node_id": "0.0-19.0"}}, {"uniqueid": "MTK0427:3II4UPYCOKEM3HR528HEQ8V67NDDQE", "current_trial": 29, "dateTime": 1510864577697, "trialdata": {"rt": -1, "stimulus": "<p id=\"stim\">PLATE</p>", "key_press": -1, "type": "PRES_VIS", "word": "plate", "wordID": 1085, "conditions": [18, 1200, "v", 18000], "trial": 0, "serialpos": 8, "trial_type": "single-stim", "trial_index": 29, "time_elapsed": 510963, "internal_node_id": "0.0-20.0"}}, {"uniqueid": "MTK0427:3II4UPYCOKEM3HR528HEQ8V67NDDQE", "current_trial": 30, "dateTime": 1510864581108, "trialdata": {"rt": -1, "stimulus": "<p id=\"stim\">PUDDLE</p>", "key_press": -1, "type": "PRES_VIS", "word": "puddle", "wordID": 1139, "conditions": [18, 1200, "v", 18000], "trial": 0, "serialpos": 9, "trial_type": "single-stim", "trial_index": 30, "time_elapsed": 514374, "internal_node_id": "0.0-21.0"}}, {"uniqueid": "MTK0427:3II4UPYCOKEM3HR528HEQ8V67NDDQE", "current_trial": 31, "dateTime": 1510864583242, "trialdata": {"rt": -1, "stimulus": "<p id=\"stim\">MOP</p>", "key_press": -1, "type": "PRES_VIS", "word": "mop", "wordID": 915, "conditions": [18, 1200, "v", 18000], "trial": 0, "serialpos": 10, "trial_type": "single-stim", "trial_index": 31, "time_elapsed": 516507, "internal_node_id": "0.0-22.0"}}, {"uniqueid": "MTK0427:3II4UPYCOKEM3HR528HEQ8V67NDDQE", "current_trial": 32, "dateTime": 1510864585505, "trialdata": {"rt": -1, "stimulus": "<p id=\"stim\">PRINCESS</p>", "key_press": -1, "type": "PRES_VIS", "word": "princess", "wordID": 1124, "conditions": [18, 1200, "v", 18000], "trial": 0, "serialpos": 11, "trial_type": "single-stim", "trial_index": 32, "time_elapsed": 518770, "internal_node_id": "0.0-23.0"}}, {"uniqueid": "MTK0427:3II4UPYCOKEM3HR528HEQ8V67NDDQE", "current_trial": 33, "dateTime": 1510864587560, "trialdata": {"rt": -1, "stimulus": "<p id=\"stim\">FINGER</p>", "key_press": -1, "type": "PRES_VIS", "word": "finger", "wordID": 566, "conditions": [18, 1200, "v", 18000], "trial": 0, "serialpos": 12, "trial_type": "single-stim", "trial_index": 33, "time_elapsed": 520824, "internal_node_id": "0.0-24.0"}}, {"uniqueid": "MTK0427:3II4UPYCOKEM3HR528HEQ8V67NDDQE", "current_trial": 34, "dateTime": 1510864589641, "trialdata": {"rt": -1, "stimulus": "<p id=\"stim\">CABIN</p>", "key_press": -1, "type": "PRES_VIS", "word": "cabin", "wordID": 210, "conditions": [18, 1200, "v", 18000], "trial": 0, "serialpos": 13, "trial_type": "single-stim", "trial_index": 34, "time_elapsed": 522906, "internal_node_id": "0.0-25.0"}}, {"uniqueid": "MTK0427:3II4UPYCOKEM3HR528HEQ8V67NDDQE", "current_trial": 35, "dateTime": 1510864592013, "trialdata": {"rt": -1, "stimulus": "<p id=\"stim\">OYSTER</p>", "key_press": -1, "type": "PRES_VIS", "word": "oyster", "wordID": 994, "conditions": [18, 1200, "v", 18000], "trial": 0, "serialpos": 14, "trial_type": "single-stim", "trial_index": 35, "time_elapsed": 525279, "internal_node_id": "0.0-26.0"}}, {"uniqueid": "MTK0427:3II4UPYCOKEM3HR528HEQ8V67NDDQE", "current_trial": 36, "dateTime": 1510864594276, "trialdata": {"rt": -1, "stimulus": "<p id=\"stim\">SCOTCH</p>", "key_press": -1, "type": "PRES_VIS", "word": "scotch", "wordID": 1250, "conditions": [18, 1200, "v", 18000], "trial": 0, "serialpos": 15, "trial_type": "single-stim", "trial_index": 36, "time_elapsed": 527542, "internal_node_id": "0.0-27.0"}}, {"uniqueid": "MTK0427:3II4UPYCOKEM3HR528HEQ8V67NDDQE", "current_trial": 37, "dateTime": 1510864596673, "trialdata": {"rt": -1, "stimulus": "<p id=\"stim\">ONION</p>", "key_press": -1, "type": "PRES_VIS", "word": "onion", "wordID": 976, "conditions": [18, 1200, "v", 18000], "trial": 0, "serialpos": 16, "trial_type": "single-stim", "trial_index": 37, "time_elapsed": 529938, "internal_node_id": "0.0-28.0"}}, {"uniqueid": "MTK0427:3II4UPYCOKEM3HR528HEQ8V67NDDQE", "current_trial": 38, "dateTime": 1510864598845, "trialdata": {"rt": -1, "stimulus": "<p id=\"stim\">JELLY</p>", "key_press": -1, "type": "PRES_VIS", "word": "jelly", "wordID": 754, "conditions": [18, 1200, "v", 18000], "trial": 0, "serialpos": 17, "trial_type": "single-stim", "trial_index": 38, "time_elapsed": 532111, "internal_node_id": "0.0-29.0"}}, {"uniqueid": "MTK0427:3II4UPYCOKEM3HR528HEQ8V67NDDQE", "current_trial": 39, "dateTime": 1510864601178, "trialdata": {"rt": -1, "stimulus": "", "key_press": -1, "type": "PRE_RECALL_DELAY", "trial_type": "single-stim", "trial_index": 39, "time_elapsed": 534444, "internal_node_id": "0.0-30.0-0.0"}}, {"uniqueid": "MTK0427:3II4UPYCOKEM3HR528HEQ8V67NDDQE", "current_trial": 40, "dateTime": 1510864601680, "trialdata": {"rt": -1000, "stimulus": "/static/audio/400Hz.wav", "key_press": -1, "type": "PRE_RECALL_ALERT", "trial_type": "single-audio", "trial_index": 40, "time_elapsed": 534945, "internal_node_id": "0.0-31.0"}}, {"uniqueid": "MTK0427:3II4UPYCOKEM3HR528HEQ8V67NDDQE", "current_trial": 41, "dateTime": 1510864662335, "trialdata": {"rt": [3650, 5207, 6457, 17964, 20637, 28358, 36853], "recwords": ["dust", "igloo", "mop", "wardrobe", "igloo", "space", "moth"], "type": "FREE_RECALL", "conditions": [18, 1200, "v", 18000], "trial": 0, "trial_type": "free-recall", "trial_index": 41, "time_elapsed": 595599, "internal_node_id": "0.0-32.0-0.0"}}, {"uniqueid": "MTK0427:3II4UPYCOKEM3HR528HEQ8V67NDDQE", "current_trial": 42, "dateTime": 1510864666901, "trialdata": {"rt": 2011, "key_press": 32, "type": "INSTRUCTIONS", "trial_type": "text", "trial_index": 42, "time_elapsed": 600167, "internal_node_id": "0.0-33.0"}}, {"uniqueid": "MTK0427:3II4UPYCOKEM3HR528HEQ8V67NDDQE", "current_trial": 43, "dateTime": 1510864686906, "trialdata": {"rt": [5530, 8544, 10763, 12793, 15917, 17818], "responses": ["11", "24", "9", "12", "18", "11"], "num1": [7, 5, 4, 4, 6, 1, 3], "num2": [1, 9, 2, 4, 4, 3, 3], "num3": [3, 9, 3, 4, 8, 7, 4], "type": "DISTRACTOR", "conditions": [18, 1200, "a", 18000], "trial": 1, "trial_type": "math-distractor", "trial_index": 43, "time_elapsed": 620171, "internal_node_id": "0.0-34.0"}}, {"uniqueid": "MTK0427:3II4UPYCOKEM3HR528HEQ8V67NDDQE", "current_trial": 44, "dateTime": 1510864689909, "trialdata": {"rt": -1, "stimulus": "<p id=\"stim\">10</p>", "key_press": -1, "trial_type": "single-stim", "trial_index": 44, "time_elapsed": 623174, "internal_node_id": "0.0-35.0-0.0"}}, {"uniqueid": "MTK0427:3II4UPYCOKEM3HR528HEQ8V67NDDQE", "current_trial": 45, "dateTime": 1510864690910, "trialdata": {"rt": -1, "stimulus": "<p id=\"stim\">9</p>", "key_press": -1, "trial_type": "single-stim", "trial_index": 45, "time_elapsed": 624176, "internal_node_id": "0.0-35.0-1.0"}}, {"uniqueid": "MTK0427:3II4UPYCOKEM3HR528HEQ8V67NDDQE", "current_trial": 46, "dateTime": 1510864692303, "trialdata": {"rt": -1, "stimulus": "<p id=\"stim\">8</p>", "key_press": -1, "trial_type": "single-stim", "trial_index": 46, "time_elapsed": 625569, "internal_node_id": "0.0-35.0-2.0"}}, {"uniqueid": "MTK0427:3II4UPYCOKEM3HR528HEQ8V67NDDQE", "current_trial": 47, "dateTime": 1510864693315, "trialdata": {"rt": -1, "stimulus": "<p id=\"stim\">7</p>", "key_press": -1, "trial_type": "single-stim", "trial_index": 47, "time_elapsed": 626581, "internal_node_id": "0.0-35.0-3.0"}}, {"uniqueid": "MTK0427:3II4UPYCOKEM3HR528HEQ8V67NDDQE", "current_trial": 48, "dateTime": 1510864695302, "trialdata": {"rt": -1, "stimulus": "<p id=\"stim\">6</p>", "key_press": -1, "trial_type": "single-stim", "trial_index": 48, "time_elapsed": 628568, "internal_node_id": "0.0-35.0-4.0"}}, {"uniqueid": "MTK0427:3II4UPYCOKEM3HR528HEQ8V67NDDQE", "current_trial": 49, "dateTime": 1510864696306, "trialdata": {"rt": -1, "stimulus": "<p id=\"stim\">5</p>", "key_press": -1, "trial_type": "single-stim", "trial_index": 49, "time_elapsed": 629572, "internal_node_id": "0.0-35.0-5.0"}}, {"uniqueid": "MTK0427:3II4UPYCOKEM3HR528HEQ8V67NDDQE", "current_trial": 50, "dateTime": 1510864697307, "trialdata": {"rt": -1, "stimulus": "<p id=\"stim\">4</p>", "key_press": -1, "trial_type": "single-stim", "trial_index": 50, "time_elapsed": 630573, "internal_node_id": "0.0-35.0-6.0"}}, {"uniqueid": "MTK0427:3II4UPYCOKEM3HR528HEQ8V67NDDQE", "current_trial": 51, "dateTime": 1510864698309, "trialdata": {"rt": -1, "stimulus": "<p id=\"stim\">3</p>", "key_press": -1, "trial_type": "single-stim", "trial_index": 51, "time_elapsed": 631574, "internal_node_id": "0.0-35.0-7.0"}}, {"uniqueid": "MTK0427:3II4UPYCOKEM3HR528HEQ8V67NDDQE", "current_trial": 52, "dateTime": 1510864699311, "trialdata": {"rt": -1, "stimulus": "<p id=\"stim\">2</p>", "key_press": -1, "trial_type": "single-stim", "trial_index": 52, "time_elapsed": 632577, "internal_node_id": "0.0-35.0-8.0"}}, {"uniqueid": "MTK0427:3II4UPYCOKEM3HR528HEQ8V67NDDQE", "current_trial": 53, "dateTime": 1510864700312, "trialdata": {"rt": -1, "stimulus": "<p id=\"stim\">1</p>", "key_press": -1, "trial_type": "single-stim", "trial_index": 53, "time_elapsed": 633578, "internal_node_id": "0.0-35.0-9.0"}}, {"uniqueid": "MTK0427:3II4UPYCOKEM3HR528HEQ8V67NDDQE", "current_trial": 54, "dateTime": 1510864701816, "trialdata": {"rt": -1, "stimulus": "<p id=\"stim\">+</p>", "key_press": -1, "type": "FIXATION", "trial_type": "single-stim", "trial_index": 54, "time_elapsed": 635080, "internal_node_id": "0.0-36.0-0.0"}}, {"uniqueid": "MTK0427:3II4UPYCOKEM3HR528HEQ8V67NDDQE", "current_trial": 55, "dateTime": 1510864704246, "trialdata": {"rt": -1000, "stimulus": "/static/audio/wordpool/EYELASH.wav", "key_press": -1, "type": "PRES_AUD", "word": "eyelash", "wordID": 545, "conditions": [18, 1200, "a", 18000], "trial": 1, "serialpos": 0, "trial_type": "single-audio", "trial_index": 55, "time_elapsed": 637511, "internal_node_id": "0.0-37.0"}}, {"uniqueid": "MTK0427:3II4UPYCOKEM3HR528HEQ8V67NDDQE", "current_trial": 56, "dateTime": 1510864706429, "trialdata": {"rt": -1000, "stimulus": "/static/audio/wordpool/WASHER.wav", "key_press": -1, "type": "PRES_AUD", "word": "washer", "wordID": 1591, "conditions": [18, 1200, "a", 18000], "trial": 1, "serialpos": 1, "trial_type": "single-audio", "trial_index": 56, "time_elapsed": 639695, "internal_node_id": "0.0-38.0"}}, {"uniqueid": "MTK0427:3II4UPYCOKEM3HR528HEQ8V67NDDQE", "current_trial": 57, "dateTime": 1510864708622, "trialdata": {"rt": -1000, "stimulus": "/static/audio/wordpool/MARSH.wav", "key_press": -1, "type": "PRES_AUD", "word": "marsh", "wordID": 873, "conditions": [18, 1200, "a", 18000], "trial": 1, "serialpos": 2, "trial_type": "single-audio", "trial_index": 57, "time_elapsed": 641888, "internal_node_id": "0.0-39.0"}}, {"uniqueid": "MTK0427:3II4UPYCOKEM3HR528HEQ8V67NDDQE", "current_trial": 58, "dateTime": 1510864710796, "trialdata": {"rt": -1000, "stimulus": "/static/audio/wordpool/SUITCASE.wav", "key_press": -1, "type": "PRES_AUD", "word": "suitcase", "wordID": 1402, "conditions": [18, 1200, "a", 18000], "trial": 1, "serialpos": 3, "trial_type": "single-audio", "trial_index": 58, "time_elapsed": 644062, "internal_node_id": "0.0-40.0"}}, {"uniqueid": "MTK0427:3II4UPYCOKEM3HR528HEQ8V67NDDQE", "current_trial": 59, "dateTime": 1510864713083, "trialdata": {"rt": -1000, "stimulus": "/static/audio/wordpool/RECORD.wav", "key_press": -1, "type": "PRES_AUD", "word": "record", "wordID": 1175, "conditions": [18, 1200, "a", 18000], "trial": 1, "serialpos": 4, "trial_type": "single-audio", "trial_index": 59, "time_elapsed": 646348, "internal_node_id": "0.0-41.0"}}, {"uniqueid": "MTK0427:3II4UPYCOKEM3HR528HEQ8V67NDDQE", "current_trial": 60, "dateTime": 1510864715095, "trialdata": {"rt": -1000, "stimulus": "/static/audio/wordpool/BROTHER.wav", "key_press": -1, "type": "PRES_AUD", "word": "brother", "wordID": 178, "conditions": [18, 1200, "a", 18000], "trial": 1, "serialpos": 5, "trial_type": "single-audio", "trial_index": 60, "time_elapsed": 648361, "internal_node_id": "0.0-42.0"}}, {"uniqueid": "MTK0427:3II4UPYCOKEM3HR528HEQ8V67NDDQE", "current_trial": 61, "dateTime": 1510864717211, "trialdata": {"rt": -1000, "stimulus": "/static/audio/wordpool/COLLEGE.wav", "key_press": -1, "type": "PRES_AUD", "word": "college", "wordID": 345, "conditions": [18, 1200, "a", 18000], "trial": 1, "serialpos": 6, "trial_type": "single-audio", "trial_index": 61, "time_elapsed": 650477, "internal_node_id": "0.0-43.0"}}, {"uniqueid": "MTK0427:3II4UPYCOKEM3HR528HEQ8V67NDDQE", "current_trial": 62, "dateTime": 1510864719218, "trialdata": {"rt": -1000, "stimulus": "/static/audio/wordpool/FRAME.wav", "key_press": -1, "type": "PRES_AUD", "word": "frame", "wordID": 599, "conditions": [18, 1200, "a", 18000], "trial": 1, "serialpos": 7, "trial_type": "single-audio", "trial_index": 62, "time_elapsed": 652483, "internal_node_id": "0.0-44.0"}}, {"uniqueid": "MTK0427:3II4UPYCOKEM3HR528HEQ8V67NDDQE", "current_trial": 63, "dateTime": 1510864721262, "trialdata": {"rt": -1000, "stimulus": "/static/audio/wordpool/CLIMBER.wav", "key_press": -1, "type": "PRES_AUD", "word": "climber", "wordID": 322, "conditions": [18, 1200, "a", 18000], "trial": 1, "serialpos": 8, "trial_type": "single-audio", "trial_index": 63, "time_elapsed": 654528, "internal_node_id": "0.0-45.0"}}, {"uniqueid": "MTK0427:3II4UPYCOKEM3HR528HEQ8V67NDDQE", "current_trial": 64, "dateTime": 1510864723512, "trialdata": {"rt": -1000, "stimulus": "/static/audio/wordpool/GIFT.wav", "key_press": -1, "type": "PRES_AUD", "word": "gift", "wordID": 634, "conditions": [18, 1200, "a", 18000], "trial": 1, "serialpos": 9, "trial_type": "single-audio", "trial_index": 64, "time_elapsed": 656778, "internal_node_id": "0.0-46.0"}}, {"uniqueid": "MTK0427:3II4UPYCOKEM3HR528HEQ8V67NDDQE", "current_trial": 65, "dateTime": 1510864725541, "trialdata": {"rt": -1000, "stimulus": "/static/audio/wordpool/CITRUS.wav", "key_press": -1, "type": "PRES_AUD", "word": "citrus", "wordID": 312, "conditions": [18, 1200, "a", 18000], "trial": 1, "serialpos": 10, "trial_type": "single-audio", "trial_index": 65, "time_elapsed": 658805, "internal_node_id": "0.0-47.0"}}, {"uniqueid": "MTK0427:3II4UPYCOKEM3HR528HEQ8V67NDDQE", "current_trial": 66, "dateTime": 1510864727660, "trialdata": {"rt": -1000, "stimulus": "/static/audio/wordpool/BANKER.wav", "key_press": -1, "type": "PRES_AUD", "word": "banker", "wordID": 83, "conditions": [18, 1200, "a", 18000], "trial": 1, "serialpos": 11, "trial_type": "single-audio", "trial_index": 66, "time_elapsed": 660926, "internal_node_id": "0.0-48.0"}}, {"uniqueid": "MTK0427:3II4UPYCOKEM3HR528HEQ8V67NDDQE", "current_trial": 67, "dateTime": 1510864729850, "trialdata": {"rt": -1000, "stimulus": "/static/audio/wordpool/NIGHTGOWN.wav", "key_press": -1, "type": "PRES_AUD", "word": "nightgown", "wordID": 952, "conditions": [18, 1200, "a", 18000], "trial": 1, "serialpos": 12, "trial_type": "single-audio", "trial_index": 67, "time_elapsed": 663116, "internal_node_id": "0.0-49.0"}}, {"uniqueid": "MTK0427:3II4UPYCOKEM3HR528HEQ8V67NDDQE", "current_trial": 68, "dateTime": 1510864731907, "trialdata": {"rt": -1000, "stimulus": "/static/audio/wordpool/TURNIP.wav", "key_press": -1, "type": "PRES_AUD", "word": "turnip", "wordID": 1520, "conditions": [18, 1200, "a", 18000], "trial": 1, "serialpos": 13, "trial_type": "single-audio", "trial_index": 68, "time_elapsed": 665156, "internal_node_id": "0.0-50.0"}}, {"uniqueid": "MTK0427:3II4UPYCOKEM3HR528HEQ8V67NDDQE", "current_trial": 69, "dateTime": 1510864734113, "trialdata": {"rt": -1000, "stimulus": "/static/audio/wordpool/ANTLER.wav", "key_press": -1, "type": "PRES_AUD", "word": "antler", "wordID": 28, "conditions": [18, 1200, "a", 18000], "trial": 1, "serialpos": 14, "trial_type": "single-audio", "trial_index": 69, "time_elapsed": 667379, "internal_node_id": "0.0-51.0"}}, {"uniqueid": "MTK0427:3II4UPYCOKEM3HR528HEQ8V67NDDQE", "current_trial": 70, "dateTime": 1510864736431, "trialdata": {"rt": -1000, "stimulus": "/static/audio/wordpool/TROMBONE.wav", "key_press": -1, "type": "PRES_AUD", "word": "trombone", "wordID": 1507, "conditions": [18, 1200, "a", 18000], "trial": 1, "serialpos": 15, "trial_type": "single-audio", "trial_index": 70, "time_elapsed": 669697, "internal_node_id": "0.0-52.0"}}, {"uniqueid": "MTK0427:3II4UPYCOKEM3HR528HEQ8V67NDDQE", "current_trial": 71, "dateTime": 1510864738507, "trialdata": {"rt": -1000, "stimulus": "/static/audio/wordpool/TRANSPLANT.wav", "key_press": -1, "type": "PRES_AUD", "word": "transplant", "wordID": 1495, "conditions": [18, 1200, "a", 18000], "trial": 1, "serialpos": 16, "trial_type": "single-audio", "trial_index": 71, "time_elapsed": 671773, "internal_node_id": "0.0-53.0"}}, {"uniqueid": "MTK0427:3II4UPYCOKEM3HR528HEQ8V67NDDQE", "current_trial": 72, "dateTime": 1510864740717, "trialdata": {"rt": -1000, "stimulus": "/static/audio/wordpool/HANDBAG.wav", "key_press": -1, "type": "PRES_AUD", "word": "handbag", "wordID": 683, "conditions": [18, 1200, "a", 18000], "trial": 1, "serialpos": 17, "trial_type": "single-audio", "trial_index": 72, "time_elapsed": 673983, "internal_node_id": "0.0-54.0"}}, {"uniqueid": "MTK0427:3II4UPYCOKEM3HR528HEQ8V67NDDQE", "current_trial": 73, "dateTime": 1510864742113, "trialdata": {"rt": -1, "stimulus": "", "key_press": -1, "type": "PRE_RECALL_DELAY", "trial_type": "single-stim", "trial_index": 73, "time_elapsed": 675379, "internal_node_id": "0.0-55.0-0.0"}}, {"uniqueid": "MTK0427:3II4UPYCOKEM3HR528HEQ8V67NDDQE", "current_trial": 74, "dateTime": 1510864742614, "trialdata": {"rt": -1000, "stimulus": "/static/audio/400Hz.wav", "key_press": -1, "type": "PRE_RECALL_ALERT", "trial_type": "single-audio", "trial_index": 74, "time_elapsed": 675880, "internal_node_id": "0.0-56.0"}}, {"uniqueid": "MTK0427:3II4UPYCOKEM3HR528HEQ8V67NDDQE", "current_trial": 75, "dateTime": 1510864802623, "trialdata": {"rt": [4893, 6966, 9059, 18339], "recwords": ["transplant", "handbag", "marsh", "suitcase"], "type": "FREE_RECALL", "conditions": [18, 1200, "a", 18000], "trial": 1, "trial_type": "free-recall", "trial_index": 75, "time_elapsed": 735887, "internal_node_id": "0.0-57.0-0.0"}}, {"uniqueid": "MTK0427:3II4UPYCOKEM3HR528HEQ8V67NDDQE", "current_trial": 76, "dateTime": 1510864812374, "trialdata": {"rt": 7744, "key_press": 32, "type": "INSTRUCTIONS", "trial_type": "text", "trial_index": 76, "time_elapsed": 745635, "internal_node_id": "0.0-58.0"}}, {"uniqueid": "MTK0427:3II4UPYCOKEM3HR528HEQ8V67NDDQE", "current_trial": 77, "dateTime": 1510864825377, "trialdata": {"rt": [4413, 7373, 9933, 11885], "responses": ["17", "21", "23", "15"], "num1": [4, 5, 8, 7, 8], "num2": [5, 9, 7, 4, 4], "num3": [4, 7, 8, 4, 3], "type": "DISTRACTOR", "conditions": [24, 1600, "a", 12000], "trial": 2, "trial_type": "math-distractor", "trial_index": 77, "time_elapsed": 758643, "internal_node_id": "0.0-59.0"}}, {"uniqueid": "MTK0427:3II4UPYCOKEM3HR528HEQ8V67NDDQE", "current_trial": 78, "dateTime": 1510864828377, "trialdata": {"rt": -1, "stimulus": "<p id=\"stim\">10</p>", "key_press": -1, "trial_type": "single-stim", "trial_index": 78, "time_elapsed": 761643, "internal_node_id": "0.0-60.0-0.0"}}, {"uniqueid": "MTK0427:3II4UPYCOKEM3HR528HEQ8V67NDDQE", "current_trial": 79, "dateTime": 1510864829378, "trialdata": {"rt": -1, "stimulus": "<p id=\"stim\">9</p>", "key_press": -1, "trial_type": "single-stim", "trial_index": 79, "time_elapsed": 762644, "internal_node_id": "0.0-60.0-1.0"}}, {"uniqueid": "MTK0427:3II4UPYCOKEM3HR528HEQ8V67NDDQE", "current_trial": 80, "dateTime": 1510864830379, "trialdata": {"rt": -1, "stimulus": "<p id=\"stim\">8</p>", "key_press": -1, "trial_type": "single-stim", "trial_index": 80, "time_elapsed": 763645, "internal_node_id": "0.0-60.0-2.0"}}, {"uniqueid": "MTK0427:3II4UPYCOKEM3HR528HEQ8V67NDDQE", "current_trial": 81, "dateTime": 1510864831379, "trialdata": {"rt": -1, "stimulus": "<p id=\"stim\">7</p>", "key_press": -1, "trial_type": "single-stim", "trial_index": 81, "time_elapsed": 764645, "internal_node_id": "0.0-60.0-3.0"}}, {"uniqueid": "MTK0427:3II4UPYCOKEM3HR528HEQ8V67NDDQE", "current_trial": 82, "dateTime": 1510864832380, "trialdata": {"rt": -1, "stimulus": "<p id=\"stim\">6</p>", "key_press": -1, "trial_type": "single-stim", "trial_index": 82, "time_elapsed": 765646, "internal_node_id": "0.0-60.0-4.0"}}, {"uniqueid": "MTK0427:3II4UPYCOKEM3HR528HEQ8V67NDDQE", "current_trial": 83, "dateTime": 1510864833381, "trialdata": {"rt": -1, "stimulus": "<p id=\"stim\">5</p>", "key_press": -1, "trial_type": "single-stim", "trial_index": 83, "time_elapsed": 766647, "internal_node_id": "0.0-60.0-5.0"}}, {"uniqueid": "MTK0427:3II4UPYCOKEM3HR528HEQ8V67NDDQE", "current_trial": 84, "dateTime": 1510864834382, "trialdata": {"rt": -1, "stimulus": "<p id=\"stim\">4</p>", "key_press": -1, "trial_type": "single-stim", "trial_index": 84, "time_elapsed": 767648, "internal_node_id": "0.0-60.0-6.0"}}, {"uniqueid": "MTK0427:3II4UPYCOKEM3HR528HEQ8V67NDDQE", "current_trial": 85, "dateTime": 1510864835382, "trialdata": {"rt": -1, "stimulus": "<p id=\"stim\">3</p>", "key_press": -1, "trial_type": "single-stim", "trial_index": 85, "time_elapsed": 768648, "internal_node_id": "0.0-60.0-7.0"}}, {"uniqueid": "MTK0427:3II4UPYCOKEM3HR528HEQ8V67NDDQE", "current_trial": 86, "dateTime": 1510864836382, "trialdata": {"rt": -1, "stimulus": "<p id=\"stim\">2</p>", "key_press": -1, "trial_type": "single-stim", "trial_index": 86, "time_elapsed": 769648, "internal_node_id": "0.0-60.0-8.0"}}, {"uniqueid": "MTK0427:3II4UPYCOKEM3HR528HEQ8V67NDDQE", "current_trial": 87, "dateTime": 1510864837383, "trialdata": {"rt": -1, "stimulus": "<p id=\"stim\">1</p>", "key_press": -1, "trial_type": "single-stim", "trial_index": 87, "time_elapsed": 770649, "internal_node_id": "0.0-60.0-9.0"}}, {"uniqueid": "MTK0427:3II4UPYCOKEM3HR528HEQ8V67NDDQE", "current_trial": 88, "dateTime": 1510864838884, "trialdata": {"rt": -1, "stimulus": "<p id=\"stim\">+</p>", "key_press": -1, "type": "FIXATION", "trial_type": "single-stim", "trial_index": 88, "time_elapsed": 772150, "internal_node_id": "0.0-61.0-0.0"}}, {"uniqueid": "MTK0427:3II4UPYCOKEM3HR528HEQ8V67NDDQE", "current_trial": 89, "dateTime": 1510864841619, "trialdata": {"rt": -1000, "stimulus": "/static/audio/wordpool/VAGRANT.wav", "key_press": -1, "type": "PRES_AUD", "word": "vagrant", "wordID": 1543, "conditions": [24, 1600, "a", 12000], "trial": 2, "serialpos": 0, "trial_type": "single-audio", "trial_index": 89, "time_elapsed": 774885, "internal_node_id": "0.0-62.0"}}, {"uniqueid": "MTK0427:3II4UPYCOKEM3HR528HEQ8V67NDDQE", "current_trial": 90, "dateTime": 1510864844115, "trialdata": {"rt": -1000, "stimulus": "/static/audio/wordpool/SCRIBBLE.wav", "key_press": -1, "type": "PRES_AUD", "word": "scribble", "wordID": 1255, "conditions": [24, 1600, "a", 12000], "trial": 2, "serialpos": 1, "trial_type": "single-audio", "trial_index": 90, "time_elapsed": 777381, "internal_node_id": "0.0-63.0"}}, {"uniqueid": "MTK0427:3II4UPYCOKEM3HR528HEQ8V67NDDQE", "current_trial": 91, "dateTime": 1510864846895, "trialdata": {"rt": -1000, "stimulus": "/static/audio/wordpool/OUTDOORS.wav", "key_press": -1, "type": "PRES_AUD", "word": "outdoors", "wordID": 986, "conditions": [24, 1600, "a", 12000], "trial": 2, "serialpos": 2, "trial_type": "single-audio", "trial_index": 91, "time_elapsed": 780161, "internal_node_id": "0.0-64.0"}}, {"uniqueid": "MTK0427:3II4UPYCOKEM3HR528HEQ8V67NDDQE", "current_trial": 92, "dateTime": 1510864849474, "trialdata": {"rt": -1000, "stimulus": "/static/audio/wordpool/DIVER.wav", "key_press": -1, "type": "PRES_AUD", "word": "diver", "wordID": 475, "conditions": [24, 1600, "a", 12000], "trial": 2, "serialpos": 3, "trial_type": "single-audio", "trial_index": 92, "time_elapsed": 782740, "internal_node_id": "0.0-65.0"}}, {"uniqueid": "MTK0427:3II4UPYCOKEM3HR528HEQ8V67NDDQE", "current_trial": 93, "dateTime": 1510864851886, "trialdata": {"rt": -1000, "stimulus": "/static/audio/wordpool/VALVE.wav", "key_press": -1, "type": "PRES_AUD", "word": "valve", "wordID": 1545, "conditions": [24, 1600, "a", 12000], "trial": 2, "serialpos": 4, "trial_type": "single-audio", "trial_index": 93, "time_elapsed": 785151, "internal_node_id": "0.0-66.0"}}, {"uniqueid": "MTK0427:3II4UPYCOKEM3HR528HEQ8V67NDDQE", "current_trial": 94, "dateTime": 1510864854535, "trialdata": {"rt": -1000, "stimulus": "/static/audio/wordpool/SLOPE.wav", "key_press": -1, "type": "PRES_AUD", "word": "slope", "wordID": 1327, "conditions": [24, 1600, "a", 12000], "trial": 2, "serialpos": 5, "trial_type": "single-audio", "trial_index": 94, "time_elapsed": 787801, "internal_node_id": "0.0-67.0"}}, {"uniqueid": "MTK0427:3II4UPYCOKEM3HR528HEQ8V67NDDQE", "current_trial": 95, "dateTime": 1510864856992, "trialdata": {"rt": -1000, "stimulus": "/static/audio/wordpool/FLASHLIGHT.wav", "key_press": -1, "type": "PRES_AUD", "word": "flashlight", "wordID": 574, "conditions": [24, 1600, "a", 12000], "trial": 2, "serialpos": 6, "trial_type": "single-audio", "trial_index": 95, "time_elapsed": 790258, "internal_node_id": "0.0-68.0"}}, {"uniqueid": "MTK0427:3II4UPYCOKEM3HR528HEQ8V67NDDQE", "current_trial": 96, "dateTime": 1510864859548, "trialdata": {"rt": -1000, "stimulus": "/static/audio/wordpool/SWIMMER.wav", "key_press": -1, "type": "PRES_AUD", "word": "swimmer", "wordID": 1419, "conditions": [24, 1600, "a", 12000], "trial": 2, "serialpos": 7, "trial_type": "single-audio", "trial_index": 96, "time_elapsed": 792814, "internal_node_id": "0.0-69.0"}}, {"uniqueid": "MTK0427:3II4UPYCOKEM3HR528HEQ8V67NDDQE", "current_trial": 97, "dateTime": 1510864862008, "trialdata": {"rt": -1000, "stimulus": "/static/audio/wordpool/VIKING.wav", "key_press": -1, "type": "PRES_AUD", "word": "viking", "wordID": 1564, "conditions": [24, 1600, "a", 12000], "trial": 2, "serialpos": 8, "trial_type": "single-audio", "trial_index": 97, "time_elapsed": 795274, "internal_node_id": "0.0-70.0"}}, {"uniqueid": "MTK0427:3II4UPYCOKEM3HR528HEQ8V67NDDQE", "current_trial": 98, "dateTime": 1510864864771, "trialdata": {"rt": -1000, "stimulus": "/static/audio/wordpool/EUROPE.wav", "key_press": -1, "type": "PRES_AUD", "word": "europe", "wordID": 540, "conditions": [24, 1600, "a", 12000], "trial": 2, "serialpos": 9, "trial_type": "single-audio", "trial_index": 98, "time_elapsed": 798036, "internal_node_id": "0.0-71.0"}}, {"uniqueid": "MTK0427:3II4UPYCOKEM3HR528HEQ8V67NDDQE", "current_trial": 99, "dateTime": 1510864867290, "trialdata": {"rt": -1000, "stimulus": "/static/audio/wordpool/EGYPT.wav", "key_press": -1, "type": "PRES_AUD", "word": "egypt", "wordID": 518, "conditions": [24, 1600, "a", 12000], "trial": 2, "serialpos": 10, "trial_type": "single-audio", "trial_index": 99, "time_elapsed": 800556, "internal_node_id": "0.0-72.0"}}, {"uniqueid": "MTK0427:3II4UPYCOKEM3HR528HEQ8V67NDDQE", "current_trial": 100, "dateTime": 1510864870090, "trialdata": {"rt": -1000, "stimulus": "/static/audio/wordpool/CHEST.wav", "key_press": -1, "type": "PRES_AUD", "word": "chest", "wordID": 294, "conditions": [24, 1600, "a", 12000], "trial": 2, "serialpos": 11, "trial_type": "single-audio", "trial_index": 100, "time_elapsed": 803356, "internal_node_id": "0.0-73.0"}}, {"uniqueid": "MTK0427:3II4UPYCOKEM3HR528HEQ8V67NDDQE", "current_trial": 101, "dateTime": 1510864872925, "trialdata": {"rt": -1000, "stimulus": "/static/audio/wordpool/BACKBONE.wav", "key_press": -1, "type": "PRES_AUD", "word": "backbone", "wordID": 65, "conditions": [24, 1600, "a", 12000], "trial": 2, "serialpos": 12, "trial_type": "single-audio", "trial_index": 101, "time_elapsed": 806191, "internal_node_id": "0.0-74.0"}}, {"uniqueid": "MTK0427:3II4UPYCOKEM3HR528HEQ8V67NDDQE", "current_trial": 102, "dateTime": 1510864875389, "trialdata": {"rt": -1000, "stimulus": "/static/audio/wordpool/MUFFIN.wav", "key_press": -1, "type": "PRES_AUD", "word": "muffin", "wordID": 928, "conditions": [24, 1600, "a", 12000], "trial": 2, "serialpos": 13, "trial_type": "single-audio", "trial_index": 102, "time_elapsed": 808654, "internal_node_id": "0.0-75.0"}}, {"uniqueid": "MTK0427:3II4UPYCOKEM3HR528HEQ8V67NDDQE", "current_trial": 103, "dateTime": 1510864877942, "trialdata": {"rt": -1000, "stimulus": "/static/audio/wordpool/SNACK.wav", "key_press": -1, "type": "PRES_AUD", "word": "snack", "wordID": 1330, "conditions": [24, 1600, "a", 12000], "trial": 2, "serialpos": 14, "trial_type": "single-audio", "trial_index": 103, "time_elapsed": 811208, "internal_node_id": "0.0-76.0"}}, {"uniqueid": "MTK0427:3II4UPYCOKEM3HR528HEQ8V67NDDQE", "current_trial": 104, "dateTime": 1510864880390, "trialdata": {"rt": -1000, "stimulus": "/static/audio/wordpool/PRIMATE.wav", "key_press": -1, "type": "PRES_AUD", "word": "primate", "wordID": 1122, "conditions": [24, 1600, "a", 12000], "trial": 2, "serialpos": 15, "trial_type": "single-audio", "trial_index": 104, "time_elapsed": 813656, "internal_node_id": "0.0-77.0"}}, {"uniqueid": "MTK0427:3II4UPYCOKEM3HR528HEQ8V67NDDQE", "current_trial": 105, "dateTime": 1510864883007, "trialdata": {"rt": -1000, "stimulus": "/static/audio/wordpool/STALLION.wav", "key_press": -1, "type": "PRES_AUD", "word": "stallion", "wordID": 1368, "conditions": [24, 1600, "a", 12000], "trial": 2, "serialpos": 16, "trial_type": "single-audio", "trial_index": 105, "time_elapsed": 816272, "internal_node_id": "0.0-78.0"}}, {"uniqueid": "MTK0427:3II4UPYCOKEM3HR528HEQ8V67NDDQE", "current_trial": 106, "dateTime": 1510864885506, "trialdata": {"rt": -1000, "stimulus": "/static/audio/wordpool/MATTRESS.wav", "key_press": -1, "type": "PRES_AUD", "word": "mattress", "wordID": 878, "conditions": [24, 1600, "a", 12000], "trial": 2, "serialpos": 17, "trial_type": "single-audio", "trial_index": 106, "time_elapsed": 818772, "internal_node_id": "0.0-79.0"}}, {"uniqueid": "MTK0427:3II4UPYCOKEM3HR528HEQ8V67NDDQE", "current_trial": 107, "dateTime": 1510864888062, "trialdata": {"rt": -1000, "stimulus": "/static/audio/wordpool/WINDOW.wav", "key_press": -1, "type": "PRES_AUD", "word": "window", "wordID": 1610, "conditions": [24, 1600, "a", 12000], "trial": 2, "serialpos": 18, "trial_type": "single-audio", "trial_index": 107, "time_elapsed": 821327, "internal_node_id": "0.0-80.0"}}, {"uniqueid": "MTK0427:3II4UPYCOKEM3HR528HEQ8V67NDDQE", "current_trial": 108, "dateTime": 1510864890561, "trialdata": {"rt": -1000, "stimulus": "/static/audio/wordpool/MAMMAL.wav", "key_press": -1, "type": "PRES_AUD", "word": "mammal", "wordID": 860, "conditions": [24, 1600, "a", 12000], "trial": 2, "serialpos": 19, "trial_type": "single-audio", "trial_index": 108, "time_elapsed": 823827, "internal_node_id": "0.0-81.0"}}, {"uniqueid": "MTK0427:3II4UPYCOKEM3HR528HEQ8V67NDDQE", "current_trial": 109, "dateTime": 1510864893009, "trialdata": {"rt": -1000, "stimulus": "/static/audio/wordpool/LASER.wav", "key_press": -1, "type": "PRES_AUD", "word": "laser", "wordID": 800, "conditions": [24, 1600, "a", 12000], "trial": 2, "serialpos": 20, "trial_type": "single-audio", "trial_index": 109, "time_elapsed": 826275, "internal_node_id": "0.0-82.0"}}, {"uniqueid": "MTK0427:3II4UPYCOKEM3HR528HEQ8V67NDDQE", "current_trial": 110, "dateTime": 1510864895697, "trialdata": {"rt": -1000, "stimulus": "/static/audio/wordpool/STICKER.wav", "key_press": -1, "type": "PRES_AUD", "word": "sticker", "wordID": 1381, "conditions": [24, 1600, "a", 12000], "trial": 2, "serialpos": 21, "trial_type": "single-audio", "trial_index": 110, "time_elapsed": 828963, "internal_node_id": "0.0-83.0"}}, {"uniqueid": "MTK0427:3II4UPYCOKEM3HR528HEQ8V67NDDQE", "current_trial": 111, "dateTime": 1510864898369, "trialdata": {"rt": -1000, "stimulus": "/static/audio/wordpool/TILE.wav", "key_press": -1, "type": "PRES_AUD", "word": "tile", "wordID": 1467, "conditions": [24, 1600, "a", 12000], "trial": 2, "serialpos": 22, "trial_type": "single-audio", "trial_index": 111, "time_elapsed": 831635, "internal_node_id": "0.0-84.0"}}, {"uniqueid": "MTK0427:3II4UPYCOKEM3HR528HEQ8V67NDDQE", "current_trial": 112, "dateTime": 1510864901014, "trialdata": {"rt": -1000, "stimulus": "/static/audio/wordpool/PLAID.wav", "key_press": -1, "type": "PRES_AUD", "word": "plaid", "wordID": 1079, "conditions": [24, 1600, "a", 12000], "trial": 2, "serialpos": 23, "trial_type": "single-audio", "trial_index": 112, "time_elapsed": 834280, "internal_node_id": "0.0-85.0"}}, {"uniqueid": "MTK0427:3II4UPYCOKEM3HR528HEQ8V67NDDQE", "current_trial": 113, "dateTime": 1510864902335, "trialdata": {"rt": -1, "stimulus": "", "key_press": -1, "type": "PRE_RECALL_DELAY", "trial_type": "single-stim", "trial_index": 113, "time_elapsed": 835600, "internal_node_id": "0.0-86.0-0.0"}}, {"uniqueid": "MTK0427:3II4UPYCOKEM3HR528HEQ8V67NDDQE", "current_trial": 114, "dateTime": 1510864902836, "trialdata": {"rt": -1000, "stimulus": "/static/audio/400Hz.wav", "key_press": -1, "type": "PRE_RECALL_ALERT", "trial_type": "single-audio", "trial_index": 114, "time_elapsed": 836102, "internal_node_id": "0.0-87.0"}}, {"uniqueid": "MTK0427:3II4UPYCOKEM3HR528HEQ8V67NDDQE", "current_trial": 115, "dateTime": 1510864963312, "trialdata": {"rt": [2344, 3501, 4781, 5553, 9200, 14633, 16735], "recwords": ["laser", "wag", "sticker", "tile", "muffin", "suitcase", "flashlight"], "type": "FREE_RECALL", "conditions": [24, 1600, "a", 12000], "trial": 2, "trial_type": "free-recall", "trial_index": 115, "time_elapsed": 896568, "internal_node_id": "0.0-88.0-0.0"}}, {"uniqueid": "MTK0427:3II4UPYCOKEM3HR528HEQ8V67NDDQE", "current_trial": 116, "dateTime": 1510864988185, "trialdata": {"rt": 21612, "key_press": 32, "type": "INSTRUCTIONS", "trial_type": "text", "trial_index": 116, "time_elapsed": 921451, "internal_node_id": "0.0-89.0"}}, {"uniqueid": "MTK0427:3II4UPYCOKEM3HR528HEQ8V67NDDQE", "current_trial": 117, "dateTime": 1510865014189, "trialdata": {"rt": [2385, 4085, 5675, 7354, 9957, 12341, 14603, 16421, 18021, 19831, 22031, 23567], "responses": ["9", "10", "13", "17", "16", "25", "12", "18", "15", "10", "18", "12"], "num1": [2, 4, 3, 8, 3, 9, 3, 3, 2, 3, 8, 4, 4], "num2": [1, 2, 6, 2, 8, 7, 8, 6, 8, 2, 4, 4, 4], "num3": [6, 4, 4, 7, 5, 7, 1, 9, 5, 5, 6, 4, 6], "type": "DISTRACTOR", "conditions": [12, 800, "a", 24000], "trial": 3, "trial_type": "math-distractor", "trial_index": 117, "time_elapsed": 947455, "internal_node_id": "0.0-90.0"}}, {"uniqueid": "MTK0427:3II4UPYCOKEM3HR528HEQ8V67NDDQE", "current_trial": 118, "dateTime": 1510865017191, "trialdata": {"rt": -1, "stimulus": "<p id=\"stim\">10</p>", "key_press": -1, "trial_type": "single-stim", "trial_index": 118, "time_elapsed": 950457, "internal_node_id": "0.0-91.0-0.0"}}, {"uniqueid": "MTK0427:3II4UPYCOKEM3HR528HEQ8V67NDDQE", "current_trial": 119, "dateTime": 1510865018192, "trialdata": {"rt": -1, "stimulus": "<p id=\"stim\">9</p>", "key_press": -1, "trial_type": "single-stim", "trial_index": 119, "time_elapsed": 951458, "internal_node_id": "0.0-91.0-1.0"}}, {"uniqueid": "MTK0427:3II4UPYCOKEM3HR528HEQ8V67NDDQE", "current_trial": 120, "dateTime": 1510865019302, "trialdata": {"rt": -1, "stimulus": "<p id=\"stim\">8</p>", "key_press": -1, "trial_type": "single-stim", "trial_index": 120, "time_elapsed": 952568, "internal_node_id": "0.0-91.0-2.0"}}, {"uniqueid": "MTK0427:3II4UPYCOKEM3HR528HEQ8V67NDDQE", "current_trial": 121, "dateTime": 1510865021302, "trialdata": {"rt": -1, "stimulus": "<p id=\"stim\">7</p>", "key_press": -1, "trial_type": "single-stim", "trial_index": 121, "time_elapsed": 954568, "internal_node_id": "0.0-91.0-3.0"}}, {"uniqueid": "MTK0427:3II4UPYCOKEM3HR528HEQ8V67NDDQE", "current_trial": 122, "dateTime": 1510865023302, "trialdata": {"rt": -1, "stimulus": "<p id=\"stim\">6</p>", "key_press": -1, "trial_type": "single-stim", "trial_index": 122, "time_elapsed": 956568, "internal_node_id": "0.0-91.0-4.0"}}, {"uniqueid": "MTK0427:3II4UPYCOKEM3HR528HEQ8V67NDDQE", "current_trial": 123, "dateTime": 1510865024302, "trialdata": {"rt": -1, "stimulus": "<p id=\"stim\">5</p>", "key_press": -1, "trial_type": "single-stim", "trial_index": 123, "time_elapsed": 957568, "internal_node_id": "0.0-91.0-5.0"}}, {"uniqueid": "MTK0427:3II4UPYCOKEM3HR528HEQ8V67NDDQE", "current_trial": 124, "dateTime": 1510865026302, "trialdata": {"rt": -1, "stimulus": "<p id=\"stim\">4</p>", "key_press": -1, "trial_type": "single-stim", "trial_index": 124, "time_elapsed": 959568, "internal_node_id": "0.0-91.0-6.0"}}, {"uniqueid": "MTK0427:3II4UPYCOKEM3HR528HEQ8V67NDDQE", "current_trial": 125, "dateTime": 1510865028301, "trialdata": {"rt": -1, "stimulus": "<p id=\"stim\">3</p>", "key_press": -1, "trial_type": "single-stim", "trial_index": 125, "time_elapsed": 961567, "internal_node_id": "0.0-91.0-7.0"}}, {"uniqueid": "MTK0427:3II4UPYCOKEM3HR528HEQ8V67NDDQE", "current_trial": 126, "dateTime": 1510865029304, "trialdata": {"rt": -1, "stimulus": "<p id=\"stim\">2</p>", "key_press": -1, "trial_type": "single-stim", "trial_index": 126, "time_elapsed": 962570, "internal_node_id": "0.0-91.0-8.0"}}, {"uniqueid": "MTK0427:3II4UPYCOKEM3HR528HEQ8V67NDDQE", "current_trial": 127, "dateTime": 1510865031305, "trialdata": {"rt": -1, "stimulus": "<p id=\"stim\">1</p>", "key_press": -1, "trial_type": "single-stim", "trial_index": 127, "time_elapsed": 964571, "internal_node_id": "0.0-91.0-9.0"}}, {"uniqueid": "MTK0427:3II4UPYCOKEM3HR528HEQ8V67NDDQE", "current_trial": 128, "dateTime": 1510865033301, "trialdata": {"rt": -1, "stimulus": "<p id=\"stim\">+</p>", "key_press": -1, "type": "FIXATION", "trial_type": "single-stim", "trial_index": 128, "time_elapsed": 966567, "internal_node_id": "0.0-92.0-0.0"}}, {"uniqueid": "MTK0427:3II4UPYCOKEM3HR528HEQ8V67NDDQE", "current_trial": 129, "dateTime": 1510865035203, "trialdata": {"rt": -1000, "stimulus": "/static/audio/wordpool/HOSTESS.wav", "key_press": -1, "type": "PRES_AUD", "word": "hostess", "wordID": 722, "conditions": [12, 800, "a", 24000], "trial": 3, "serialpos": 0, "trial_type": "single-audio", "trial_index": 129, "time_elapsed": 968469, "internal_node_id": "0.0-93.0"}}, {"uniqueid": "MTK0427:3II4UPYCOKEM3HR528HEQ8V67NDDQE", "current_trial": 130, "dateTime": 1510865037066, "trialdata": {"rt": -1000, "stimulus": "/static/audio/wordpool/SPIDER.wav", "key_press": -1, "type": "PRES_AUD", "word": "spider", "wordID": 1350, "conditions": [12, 800, "a", 24000], "trial": 3, "serialpos": 1, "trial_type": "single-audio", "trial_index": 130, "time_elapsed": 970332, "internal_node_id": "0.0-94.0"}}, {"uniqueid": "MTK0427:3II4UPYCOKEM3HR528HEQ8V67NDDQE", "current_trial": 131, "dateTime": 1510865038840, "trialdata": {"rt": -1000, "stimulus": "/static/audio/wordpool/LACE.wav", "key_press": -1, "type": "PRES_AUD", "word": "lace", "wordID": 791, "conditions": [12, 800, "a", 24000], "trial": 3, "serialpos": 2, "trial_type": "single-audio", "trial_index": 131, "time_elapsed": 972106, "internal_node_id": "0.0-95.0"}}, {"uniqueid": "MTK0427:3II4UPYCOKEM3HR528HEQ8V67NDDQE", "current_trial": 132, "dateTime": 1510865040475, "trialdata": {"rt": -1000, "stimulus": "/static/audio/wordpool/LONDON.wav", "key_press": -1, "type": "PRES_AUD", "word": "london", "wordID": 842, "conditions": [12, 800, "a", 24000], "trial": 3, "serialpos": 3, "trial_type": "single-audio", "trial_index": 132, "time_elapsed": 973740, "internal_node_id": "0.0-96.0"}}, {"uniqueid": "MTK0427:3II4UPYCOKEM3HR528HEQ8V67NDDQE", "current_trial": 133, "dateTime": 1510865042454, "trialdata": {"rt": -1000, "stimulus": "/static/audio/wordpool/XEROX.wav", "key_press": -1, "type": "PRES_AUD", "word": "xerox", "wordID": 1627, "conditions": [12, 800, "a", 24000], "trial": 3, "serialpos": 4, "trial_type": "single-audio", "trial_index": 133, "time_elapsed": 975720, "internal_node_id": "0.0-97.0"}}, {"uniqueid": "MTK0427:3II4UPYCOKEM3HR528HEQ8V67NDDQE", "current_trial": 134, "dateTime": 1510865044327, "trialdata": {"rt": -1000, "stimulus": "/static/audio/wordpool/PEACH.wav", "key_press": -1, "type": "PRES_AUD", "word": "peach", "wordID": 1030, "conditions": [12, 800, "a", 24000], "trial": 3, "serialpos": 5, "trial_type": "single-audio", "trial_index": 134, "time_elapsed": 977591, "internal_node_id": "0.0-98.0"}}, {"uniqueid": "MTK0427:3II4UPYCOKEM3HR528HEQ8V67NDDQE", "current_trial": 135, "dateTime": 1510865046123, "trialdata": {"rt": -1000, "stimulus": "/static/audio/wordpool/SLUG.wav", "key_press": -1, "type": "PRES_AUD", "word": "slug", "wordID": 1328, "conditions": [12, 800, "a", 24000], "trial": 3, "serialpos": 6, "trial_type": "single-audio", "trial_index": 135, "time_elapsed": 979389, "internal_node_id": "0.0-99.0"}}, {"uniqueid": "MTK0427:3II4UPYCOKEM3HR528HEQ8V67NDDQE", "current_trial": 136, "dateTime": 1510865048077, "trialdata": {"rt": -1000, "stimulus": "/static/audio/wordpool/TRACTOR.wav", "key_press": -1, "type": "PRES_AUD", "word": "tractor", "wordID": 1492, "conditions": [12, 800, "a", 24000], "trial": 3, "serialpos": 7, "trial_type": "single-audio", "trial_index": 136, "time_elapsed": 981343, "internal_node_id": "0.0-100.0"}}, {"uniqueid": "MTK0427:3II4UPYCOKEM3HR528HEQ8V67NDDQE", "current_trial": 137, "dateTime": 1510865050032, "trialdata": {"rt": -1000, "stimulus": "/static/audio/wordpool/VELVET.wav", "key_press": -1, "type": "PRES_AUD", "word": "velvet", "wordID": 1554, "conditions": [12, 800, "a", 24000], "trial": 3, "serialpos": 8, "trial_type": "single-audio", "trial_index": 137, "time_elapsed": 983298, "internal_node_id": "0.0-101.0"}}, {"uniqueid": "MTK0427:3II4UPYCOKEM3HR528HEQ8V67NDDQE", "current_trial": 138, "dateTime": 1510865051944, "trialdata": {"rt": -1000, "stimulus": "/static/audio/wordpool/PLASTER.wav", "key_press": -1, "type": "PRES_AUD", "word": "plaster", "wordID": 1084, "conditions": [12, 800, "a", 24000], "trial": 3, "serialpos": 9, "trial_type": "single-audio", "trial_index": 138, "time_elapsed": 985210, "internal_node_id": "0.0-102.0"}}, {"uniqueid": "MTK0427:3II4UPYCOKEM3HR528HEQ8V67NDDQE", "current_trial": 139, "dateTime": 1510865053553, "trialdata": {"rt": -1000, "stimulus": "/static/audio/wordpool/BUG.wav", "key_press": -1, "type": "PRES_AUD", "word": "bug", "wordID": 186, "conditions": [12, 800, "a", 24000], "trial": 3, "serialpos": 10, "trial_type": "single-audio", "trial_index": 139, "time_elapsed": 986819, "internal_node_id": "0.0-103.0"}}, {"uniqueid": "MTK0427:3II4UPYCOKEM3HR528HEQ8V67NDDQE", "current_trial": 140, "dateTime": 1510865055320, "trialdata": {"rt": -1000, "stimulus": "/static/audio/wordpool/VIRUS.wav", "key_press": -1, "type": "PRES_AUD", "word": "virus", "wordID": 1571, "conditions": [12, 800, "a", 24000], "trial": 3, "serialpos": 11, "trial_type": "single-audio", "trial_index": 140, "time_elapsed": 988586, "internal_node_id": "0.0-104.0"}}, {"uniqueid": "MTK0427:3II4UPYCOKEM3HR528HEQ8V67NDDQE", "current_trial": 141, "dateTime": 1510865056686, "trialdata": {"rt": -1, "stimulus": "", "key_press": -1, "type": "PRE_RECALL_DELAY", "trial_type": "single-stim", "trial_index": 141, "time_elapsed": 989952, "internal_node_id": "0.0-105.0-0.0"}}, {"uniqueid": "MTK0427:3II4UPYCOKEM3HR528HEQ8V67NDDQE", "current_trial": 142, "dateTime": 1510865057187, "trialdata": {"rt": -1000, "stimulus": "/static/audio/400Hz.wav", "key_press": -1, "type": "PRE_RECALL_ALERT", "trial_type": "single-audio", "trial_index": 142, "time_elapsed": 990453, "internal_node_id": "0.0-106.0"}}, {"uniqueid": "MTK0427:3II4UPYCOKEM3HR528HEQ8V67NDDQE", "current_trial": 143, "dateTime": 1510865117319, "trialdata": {"rt": [8851, 10165, 11701, 13198], "recwords": ["hug", "virus", "teacher", "master"], "type": "FREE_RECALL", "conditions": [12, 800, "a", 24000], "trial": 3, "trial_type": "free-recall", "trial_index": 143, "time_elapsed": 1050567, "internal_node_id": "0.0-107.0-0.0"}}, {"uniqueid": "MTK0427:3II4UPYCOKEM3HR528HEQ8V67NDDQE", "current_trial": 144, "dateTime": 1510865142694, "trialdata": {"rt": 22392, "key_press": 32, "type": "INSTRUCTIONS", "trial_type": "text", "trial_index": 144, "time_elapsed": 1075959, "internal_node_id": "0.0-108.0"}}, {"uniqueid": "MTK0427:3II4UPYCOKEM3HR528HEQ8V67NDDQE", "current_trial": 145, "dateTime": 1510865168700, "trialdata": {"rt": [1903, 4802, 6362, 8315, 10553, 12443, 15063, 16891, 18564, 20230, 22034], "responses": ["6", "12", "13", "16", "12", "14", "12", "8", "18", "4", "12"], "num1": [1, 6, 1, 1, 6, 4, 7, 2, 2, 2, 2, 3], "num2": [2, 3, 5, 8, 3, 7, 1, 2, 8, 1, 9, 4], "num3": [3, 3, 7, 7, 3, 3, 4, 4, 8, 1, 1, 4], "type": "DISTRACTOR", "conditions": [24, 800, "a", 24000], "trial": 4, "trial_type": "math-distractor", "trial_index": 145, "time_elapsed": 1101966, "internal_node_id": "0.0-109.0"}}, {"uniqueid": "MTK0427:3II4UPYCOKEM3HR528HEQ8V67NDDQE", "current_trial": 146, "dateTime": 1510865171701, "trialdata": {"rt": -1, "stimulus": "<p id=\"stim\">10</p>", "key_press": -1, "trial_type": "single-stim", "trial_index": 146, "time_elapsed": 1104967, "internal_node_id": "0.0-110.0-0.0"}}, {"uniqueid": "MTK0427:3II4UPYCOKEM3HR528HEQ8V67NDDQE", "current_trial": 147, "dateTime": 1510865173321, "trialdata": {"rt": -1, "stimulus": "<p id=\"stim\">9</p>", "key_press": -1, "trial_type": "single-stim", "trial_index": 147, "time_elapsed": 1106587, "internal_node_id": "0.0-110.0-1.0"}}, {"uniqueid": "MTK0427:3II4UPYCOKEM3HR528HEQ8V67NDDQE", "current_trial": 148, "dateTime": 1510865175303, "trialdata": {"rt": -1, "stimulus": "<p id=\"stim\">8</p>", "key_press": -1, "trial_type": "single-stim", "trial_index": 148, "time_elapsed": 1108568, "internal_node_id": "0.0-110.0-2.0"}}, {"uniqueid": "MTK0427:3II4UPYCOKEM3HR528HEQ8V67NDDQE", "current_trial": 149, "dateTime": 1510865177302, "trialdata": {"rt": -1, "stimulus": "<p id=\"stim\">7</p>", "key_press": -1, "trial_type": "single-stim", "trial_index": 149, "time_elapsed": 1110568, "internal_node_id": "0.0-110.0-3.0"}}, {"uniqueid": "MTK0427:3II4UPYCOKEM3HR528HEQ8V67NDDQE", "current_trial": 150, "dateTime": 1510865179303, "trialdata": {"rt": -1, "stimulus": "<p id=\"stim\">6</p>", "key_press": -1, "trial_type": "single-stim", "trial_index": 150, "time_elapsed": 1112569, "internal_node_id": "0.0-110.0-4.0"}}, {"uniqueid": "MTK0427:3II4UPYCOKEM3HR528HEQ8V67NDDQE", "current_trial": 151, "dateTime": 1510865180663, "trialdata": {"rt": -1, "stimulus": "<p id=\"stim\">5</p>", "key_press": -1, "trial_type": "single-stim", "trial_index": 151, "time_elapsed": 1113929, "internal_node_id": "0.0-110.0-5.0"}}, {"uniqueid": "MTK0427:3II4UPYCOKEM3HR528HEQ8V67NDDQE", "current_trial": 152, "dateTime": 1510865182771, "trialdata": {"rt": -1, "stimulus": "<p id=\"stim\">4</p>", "key_press": -1, "trial_type": "single-stim", "trial_index": 152, "time_elapsed": 1116037, "internal_node_id": "0.0-110.0-6.0"}}, {"uniqueid": "MTK0427:3II4UPYCOKEM3HR528HEQ8V67NDDQE", "current_trial": 153, "dateTime": 1510865184395, "trialdata": {"rt": -1, "stimulus": "<p id=\"stim\">3</p>", "key_press": -1, "trial_type": "single-stim", "trial_index": 153, "time_elapsed": 1117660, "internal_node_id": "0.0-110.0-7.0"}}, {"uniqueid": "MTK0427:3II4UPYCOKEM3HR528HEQ8V67NDDQE", "current_trial": 154, "dateTime": 1510865186302, "trialdata": {"rt": -1, "stimulus": "<p id=\"stim\">2</p>", "key_press": -1, "trial_type": "single-stim", "trial_index": 154, "time_elapsed": 1119568, "internal_node_id": "0.0-110.0-8.0"}}, {"uniqueid": "MTK0427:3II4UPYCOKEM3HR528HEQ8V67NDDQE", "current_trial": 155, "dateTime": 1510865187681, "trialdata": {"rt": -1, "stimulus": "<p id=\"stim\">1</p>", "key_press": -1, "trial_type": "single-stim", "trial_index": 155, "time_elapsed": 1120947, "internal_node_id": "0.0-110.0-9.0"}}, {"uniqueid": "MTK0427:3II4UPYCOKEM3HR528HEQ8V67NDDQE", "current_trial": 156, "dateTime": 1510865189210, "trialdata": {"rt": -1, "stimulus": "<p id=\"stim\">+</p>", "key_press": -1, "type": "FIXATION", "trial_type": "single-stim", "trial_index": 156, "time_elapsed": 1122476, "internal_node_id": "0.0-111.0-0.0"}}, {"uniqueid": "MTK0427:3II4UPYCOKEM3HR528HEQ8V67NDDQE", "current_trial": 157, "dateTime": 1510865190835, "trialdata": {"rt": -1000, "stimulus": "/static/audio/wordpool/LAPEL.wav", "key_press": -1, "type": "PRES_AUD", "word": "lapel", "wordID": 799, "conditions": [24, 800, "a", 24000], "trial": 4, "serialpos": 0, "trial_type": "single-audio", "trial_index": 157, "time_elapsed": 1124101, "internal_node_id": "0.0-112.0"}}, {"uniqueid": "MTK0427:3II4UPYCOKEM3HR528HEQ8V67NDDQE", "current_trial": 158, "dateTime": 1510865192627, "trialdata": {"rt": -1000, "stimulus": "/static/audio/wordpool/JUNGLE.wav", "key_press": -1, "type": "PRES_AUD", "word": "jungle", "wordID": 763, "conditions": [24, 800, "a", 24000], "trial": 4, "serialpos": 1, "trial_type": "single-audio", "trial_index": 158, "time_elapsed": 1125889, "internal_node_id": "0.0-113.0"}}, {"uniqueid": "MTK0427:3II4UPYCOKEM3HR528HEQ8V67NDDQE", "current_trial": 159, "dateTime": 1510865194575, "trialdata": {"rt": -1000, "stimulus": "/static/audio/wordpool/PECAN.wav", "key_press": -1, "type": "PRES_AUD", "word": "pecan", "wordID": 1035, "conditions": [24, 800, "a", 24000], "trial": 4, "serialpos": 2, "trial_type": "single-audio", "trial_index": 159, "time_elapsed": 1127841, "internal_node_id": "0.0-114.0"}}, {"uniqueid": "MTK0427:3II4UPYCOKEM3HR528HEQ8V67NDDQE", "current_trial": 160, "dateTime": 1510865196350, "trialdata": {"rt": -1000, "stimulus": "/static/audio/wordpool/FILM.wav", "key_press": -1, "type": "PRES_AUD", "word": "film", "wordID": 564, "conditions": [24, 800, "a", 24000], "trial": 4, "serialpos": 3, "trial_type": "single-audio", "trial_index": 160, "time_elapsed": 1129616, "internal_node_id": "0.0-115.0"}}, {"uniqueid": "MTK0427:3II4UPYCOKEM3HR528HEQ8V67NDDQE", "current_trial": 161, "dateTime": 1510865198091, "trialdata": {"rt": -1000, "stimulus": "/static/audio/wordpool/LAGOON.wav", "key_press": -1, "type": "PRES_AUD", "word": "lagoon", "wordID": 794, "conditions": [24, 800, "a", 24000], "trial": 4, "serialpos": 4, "trial_type": "single-audio", "trial_index": 161, "time_elapsed": 1131357, "internal_node_id": "0.0-116.0"}}, {"uniqueid": "MTK0427:3II4UPYCOKEM3HR528HEQ8V67NDDQE", "current_trial": 162, "dateTime": 1510865199953, "trialdata": {"rt": -1000, "stimulus": "/static/audio/wordpool/CANAL.wav", "key_press": -1, "type": "PRES_AUD", "word": "canal", "wordID": 225, "conditions": [24, 800, "a", 24000], "trial": 4, "serialpos": 5, "trial_type": "single-audio", "trial_index": 162, "time_elapsed": 1133219, "internal_node_id": "0.0-117.0"}}, {"uniqueid": "MTK0427:3II4UPYCOKEM3HR528HEQ8V67NDDQE", "current_trial": 163, "dateTime": 1510865201965, "trialdata": {"rt": -1000, "stimulus": "/static/audio/wordpool/SWAMP.wav", "key_press": -1, "type": "PRES_AUD", "word": "swamp", "wordID": 1415, "conditions": [24, 800, "a", 24000], "trial": 4, "serialpos": 6, "trial_type": "single-audio", "trial_index": 163, "time_elapsed": 1135231, "internal_node_id": "0.0-118.0"}}, {"uniqueid": "MTK0427:3II4UPYCOKEM3HR528HEQ8V67NDDQE", "current_trial": 164, "dateTime": 1510865203590, "trialdata": {"rt": -1000, "stimulus": "/static/audio/wordpool/MONSTER.wav", "key_press": -1, "type": "PRES_AUD", "word": "monster", "wordID": 911, "conditions": [24, 800, "a", 24000], "trial": 4, "serialpos": 7, "trial_type": "single-audio", "trial_index": 164, "time_elapsed": 1136856, "internal_node_id": "0.0-119.0"}}, {"uniqueid": "MTK0427:3II4UPYCOKEM3HR528HEQ8V67NDDQE", "current_trial": 165, "dateTime": 1510865205497, "trialdata": {"rt": -1000, "stimulus": "/static/audio/wordpool/TROUT.wav", "key_press": -1, "type": "PRES_AUD", "word": "trout", "wordID": 1510, "conditions": [24, 800, "a", 24000], "trial": 4, "serialpos": 8, "trial_type": "single-audio", "trial_index": 165, "time_elapsed": 1138763, "internal_node_id": "0.0-120.0"}}, {"uniqueid": "MTK0427:3II4UPYCOKEM3HR528HEQ8V67NDDQE", "current_trial": 166, "dateTime": 1510865207227, "trialdata": {"rt": -1000, "stimulus": "/static/audio/wordpool/EXPERT.wav", "key_press": -1, "type": "PRES_AUD", "word": "expert", "wordID": 542, "conditions": [24, 800, "a", 24000], "trial": 4, "serialpos": 9, "trial_type": "single-audio", "trial_index": 166, "time_elapsed": 1140493, "internal_node_id": "0.0-121.0"}}, {"uniqueid": "MTK0427:3II4UPYCOKEM3HR528HEQ8V67NDDQE", "current_trial": 167, "dateTime": 1510865209037, "trialdata": {"rt": -1000, "stimulus": "/static/audio/wordpool/FRECKLE.wav", "key_press": -1, "type": "PRES_AUD", "word": "freckle", "wordID": 601, "conditions": [24, 800, "a", 24000], "trial": 4, "serialpos": 10, "trial_type": "single-audio", "trial_index": 167, "time_elapsed": 1142303, "internal_node_id": "0.0-122.0"}}, {"uniqueid": "MTK0427:3II4UPYCOKEM3HR528HEQ8V67NDDQE", "current_trial": 168, "dateTime": 1510865210896, "trialdata": {"rt": -1000, "stimulus": "/static/audio/wordpool/SALMON.wav", "key_press": -1, "type": "PRES_AUD", "word": "salmon", "wordID": 1226, "conditions": [24, 800, "a", 24000], "trial": 4, "serialpos": 11, "trial_type": "single-audio", "trial_index": 168, "time_elapsed": 1144161, "internal_node_id": "0.0-123.0"}}, {"uniqueid": "MTK0427:3II4UPYCOKEM3HR528HEQ8V67NDDQE", "current_trial": 169, "dateTime": 1510865212801, "trialdata": {"rt": -1000, "stimulus": "/static/audio/wordpool/GLASS.wav", "key_press": -1, "type": "PRES_AUD", "word": "glass", "wordID": 638, "conditions": [24, 800, "a", 24000], "trial": 4, "serialpos": 12, "trial_type": "single-audio", "trial_index": 169, "time_elapsed": 1146067, "internal_node_id": "0.0-124.0"}}, {"uniqueid": "MTK0427:3II4UPYCOKEM3HR528HEQ8V67NDDQE", "current_trial": 170, "dateTime": 1510865214465, "trialdata": {"rt": -1000, "stimulus": "/static/audio/wordpool/PORK.wav", "key_press": -1, "type": "PRES_AUD", "word": "pork", "wordID": 1107, "conditions": [24, 800, "a", 24000], "trial": 4, "serialpos": 13, "trial_type": "single-audio", "trial_index": 170, "time_elapsed": 1147731, "internal_node_id": "0.0-125.0"}}, {"uniqueid": "MTK0427:3II4UPYCOKEM3HR528HEQ8V67NDDQE", "current_trial": 171, "dateTime": 1510865216338, "trialdata": {"rt": -1000, "stimulus": "/static/audio/wordpool/CANYON.wav", "key_press": -1, "type": "PRES_AUD", "word": "canyon", "wordID": 234, "conditions": [24, 800, "a", 24000], "trial": 4, "serialpos": 14, "trial_type": "single-audio", "trial_index": 171, "time_elapsed": 1149604, "internal_node_id": "0.0-126.0"}}, {"uniqueid": "MTK0427:3II4UPYCOKEM3HR528HEQ8V67NDDQE", "current_trial": 172, "dateTime": 1510865217971, "trialdata": {"rt": -1000, "stimulus": "/static/audio/wordpool/VALLEY.wav", "key_press": -1, "type": "PRES_AUD", "word": "valley", "wordID": 1544, "conditions": [24, 800, "a", 24000], "trial": 4, "serialpos": 15, "trial_type": "single-audio", "trial_index": 172, "time_elapsed": 1151237, "internal_node_id": "0.0-127.0"}}, {"uniqueid": "MTK0427:3II4UPYCOKEM3HR528HEQ8V67NDDQE", "current_trial": 173, "dateTime": 1510865219750, "trialdata": {"rt": -1000, "stimulus": "/static/audio/wordpool/CONTRACT.wav", "key_press": -1, "type": "PRES_AUD", "word": "contract", "wordID": 367, "conditions": [24, 800, "a", 24000], "trial": 4, "serialpos": 16, "trial_type": "single-audio", "trial_index": 173, "time_elapsed": 1153016, "internal_node_id": "0.0-128.0"}}, {"uniqueid": "MTK0427:3II4UPYCOKEM3HR528HEQ8V67NDDQE", "current_trial": 174, "dateTime": 1510865221720, "trialdata": {"rt": -1000, "stimulus": "/static/audio/wordpool/GARLIC.wav", "key_press": -1, "type": "PRES_AUD", "word": "garlic", "wordID": 623, "conditions": [24, 800, "a", 24000], "trial": 4, "serialpos": 17, "trial_type": "single-audio", "trial_index": 174, "time_elapsed": 1154979, "internal_node_id": "0.0-129.0"}}, {"uniqueid": "MTK0427:3II4UPYCOKEM3HR528HEQ8V67NDDQE", "current_trial": 175, "dateTime": 1510865223716, "trialdata": {"rt": -1000, "stimulus": "/static/audio/wordpool/PILOT.wav", "key_press": -1, "type": "PRES_AUD", "word": "pilot", "wordID": 1069, "conditions": [24, 800, "a", 24000], "trial": 4, "serialpos": 18, "trial_type": "single-audio", "trial_index": 175, "time_elapsed": 1156982, "internal_node_id": "0.0-130.0"}}, {"uniqueid": "MTK0427:3II4UPYCOKEM3HR528HEQ8V67NDDQE", "current_trial": 176, "dateTime": 1510865225385, "trialdata": {"rt": -1000, "stimulus": "/static/audio/wordpool/THIEF.wav", "key_press": -1, "type": "PRES_AUD", "word": "thief", "wordID": 1455, "conditions": [24, 800, "a", 24000], "trial": 4, "serialpos": 19, "trial_type": "single-audio", "trial_index": 176, "time_elapsed": 1158651, "internal_node_id": "0.0-131.0"}}, {"uniqueid": "MTK0427:3II4UPYCOKEM3HR528HEQ8V67NDDQE", "current_trial": 177, "dateTime": 1510865226996, "trialdata": {"rt": -1000, "stimulus": "/static/audio/wordpool/ZIPPER.wav", "key_press": -1, "type": "PRES_AUD", "word": "zipper", "wordID": 1635, "conditions": [24, 800, "a", 24000], "trial": 4, "serialpos": 20, "trial_type": "single-audio", "trial_index": 177, "time_elapsed": 1160262, "internal_node_id": "0.0-132.0"}}, {"uniqueid": "MTK0427:3II4UPYCOKEM3HR528HEQ8V67NDDQE", "current_trial": 178, "dateTime": 1510865228921, "trialdata": {"rt": -1000, "stimulus": "/static/audio/wordpool/JURY.wav", "key_press": -1, "type": "PRES_AUD", "word": "jury", "wordID": 765, "conditions": [24, 800, "a", 24000], "trial": 4, "serialpos": 21, "trial_type": "single-audio", "trial_index": 178, "time_elapsed": 1162187, "internal_node_id": "0.0-133.0"}}, {"uniqueid": "MTK0427:3II4UPYCOKEM3HR528HEQ8V67NDDQE", "current_trial": 179, "dateTime": 1510865230725, "trialdata": {"rt": -1000, "stimulus": "/static/audio/wordpool/SEAFOOD.wav", "key_press": -1, "type": "PRES_AUD", "word": "seafood", "wordID": 1259, "conditions": [24, 800, "a", 24000], "trial": 4, "serialpos": 22, "trial_type": "single-audio", "trial_index": 179, "time_elapsed": 1163991, "internal_node_id": "0.0-134.0"}}, {"uniqueid": "MTK0427:3II4UPYCOKEM3HR528HEQ8V67NDDQE", "current_trial": 180, "dateTime": 1510865232453, "trialdata": {"rt": -1000, "stimulus": "/static/audio/wordpool/COCOON.wav", "key_press": -1, "type": "PRES_AUD", "word": "cocoon", "wordID": 338, "conditions": [24, 800, "a", 24000], "trial": 4, "serialpos": 23, "trial_type": "single-audio", "trial_index": 180, "time_elapsed": 1165717, "internal_node_id": "0.0-135.0"}}, {"uniqueid": "MTK0427:3II4UPYCOKEM3HR528HEQ8V67NDDQE", "current_trial": 181, "dateTime": 1510865233694, "trialdata": {"rt": -1, "stimulus": "", "key_press": -1, "type": "PRE_RECALL_DELAY", "trial_type": "single-stim", "trial_index": 181, "time_elapsed": 1166960, "internal_node_id": "0.0-136.0-0.0"}}, {"uniqueid": "MTK0427:3II4UPYCOKEM3HR528HEQ8V67NDDQE", "current_trial": 182, "dateTime": 1510865234194, "trialdata": {"rt": -1000, "stimulus": "/static/audio/400Hz.wav", "key_press": -1, "type": "PRE_RECALL_ALERT", "trial_type": "single-audio", "trial_index": 182, "time_elapsed": 1167460, "internal_node_id": "0.0-137.0"}}, {"uniqueid": "MTK0427:3II4UPYCOKEM3HR528HEQ8V67NDDQE", "current_trial": 183, "dateTime": 1510865294207, "trialdata": {"rt": [3501, 4614, 6925, 9311, 11983, 14513, 16297, 17367, 53835], "recwords": ["pilot", "jury", "cocoon", "seafood", "salmon", "lagoon", "monster", "river", "stream"], "type": "FREE_RECALL", "conditions": [24, 800, "a", 24000], "trial": 4, "trial_type": "free-recall", "trial_index": 183, "time_elapsed": 1227464, "internal_node_id": "0.0-138.0-0.0"}}, {"uniqueid": "MTK0427:3II4UPYCOKEM3HR528HEQ8V67NDDQE", "current_trial": 184, "dateTime": 1510865301750, "trialdata": {"rt": 5541, "key_press": 32, "type": "INSTRUCTIONS", "trial_type": "text", "trial_index": 184, "time_elapsed": 1235016, "internal_node_id": "0.0-139.0"}}, {"uniqueid": "MTK0427:3II4UPYCOKEM3HR528HEQ8V67NDDQE", "current_trial": 185, "dateTime": 1510865315755, "trialdata": {"rt": [2975, 5295, 7307, 10994], "responses": ["6", "14", "12", "19"], "num1": [2, 3, 6, 9, 4], "num2": [1, 8, 2, 5, 7], "num3": [3, 3, 4, 5, 3], "type": "DISTRACTOR", "conditions": [12, 1600, "v", 12000], "trial": 5, "trial_type": "math-distractor", "trial_index": 185, "time_elapsed": 1249020, "internal_node_id": "0.0-140.0"}}, {"uniqueid": "MTK0427:3II4UPYCOKEM3HR528HEQ8V67NDDQE", "current_trial": 186, "dateTime": 1510865318756, "trialdata": {"rt": -1, "stimulus": "<p id=\"stim\">10</p>", "key_press": -1, "trial_type": "single-stim", "trial_index": 186, "time_elapsed": 1252022, "internal_node_id": "0.0-141.0-0.0"}}, {"uniqueid": "MTK0427:3II4UPYCOKEM3HR528HEQ8V67NDDQE", "current_trial": 187, "dateTime": 1510865320303, "trialdata": {"rt": -1, "stimulus": "<p id=\"stim\">9</p>", "key_press": -1, "trial_type": "single-stim", "trial_index": 187, "time_elapsed": 1253569, "internal_node_id": "0.0-141.0-1.0"}}, {"uniqueid": "MTK0427:3II4UPYCOKEM3HR528HEQ8V67NDDQE", "current_trial": 188, "dateTime": 1510865322302, "trialdata": {"rt": -1, "stimulus": "<p id=\"stim\">8</p>", "key_press": -1, "trial_type": "single-stim", "trial_index": 188, "time_elapsed": 1255568, "internal_node_id": "0.0-141.0-2.0"}}, {"uniqueid": "MTK0427:3II4UPYCOKEM3HR528HEQ8V67NDDQE", "current_trial": 189, "dateTime": 1510865323504, "trialdata": {"rt": -1, "stimulus": "<p id=\"stim\">7</p>", "key_press": -1, "trial_type": "single-stim", "trial_index": 189, "time_elapsed": 1256769, "internal_node_id": "0.0-141.0-3.0"}}, {"uniqueid": "MTK0427:3II4UPYCOKEM3HR528HEQ8V67NDDQE", "current_trial": 190, "dateTime": 1510865325301, "trialdata": {"rt": -1, "stimulus": "<p id=\"stim\">6</p>", "key_press": -1, "trial_type": "single-stim", "trial_index": 190, "time_elapsed": 1258567, "internal_node_id": "0.0-141.0-4.0"}}, {"uniqueid": "MTK0427:3II4UPYCOKEM3HR528HEQ8V67NDDQE", "current_trial": 191, "dateTime": 1510865326306, "trialdata": {"rt": -1, "stimulus": "<p id=\"stim\">5</p>", "key_press": -1, "trial_type": "single-stim", "trial_index": 191, "time_elapsed": 1259571, "internal_node_id": "0.0-141.0-5.0"}}, {"uniqueid": "MTK0427:3II4UPYCOKEM3HR528HEQ8V67NDDQE", "current_trial": 192, "dateTime": 1510865328223, "trialdata": {"rt": -1, "stimulus": "<p id=\"stim\">4</p>", "key_press": -1, "trial_type": "single-stim", "trial_index": 192, "time_elapsed": 1261488, "internal_node_id": "0.0-141.0-6.0"}}, {"uniqueid": "MTK0427:3II4UPYCOKEM3HR528HEQ8V67NDDQE", "current_trial": 193, "dateTime": 1510865329223, "trialdata": {"rt": -1, "stimulus": "<p id=\"stim\">3</p>", "key_press": -1, "trial_type": "single-stim", "trial_index": 193, "time_elapsed": 1262489, "internal_node_id": "0.0-141.0-7.0"}}, {"uniqueid": "MTK0427:3II4UPYCOKEM3HR528HEQ8V67NDDQE", "current_trial": 194, "dateTime": 1510865330224, "trialdata": {"rt": -1, "stimulus": "<p id=\"stim\">2</p>", "key_press": -1, "trial_type": "single-stim", "trial_index": 194, "time_elapsed": 1263490, "internal_node_id": "0.0-141.0-8.0"}}, {"uniqueid": "MTK0427:3II4UPYCOKEM3HR528HEQ8V67NDDQE", "current_trial": 195, "dateTime": 1510865331226, "trialdata": {"rt": -1, "stimulus": "<p id=\"stim\">1</p>", "key_press": -1, "trial_type": "single-stim", "trial_index": 195, "time_elapsed": 1264492, "internal_node_id": "0.0-141.0-9.0"}}, {"uniqueid": "MTK0427:3II4UPYCOKEM3HR528HEQ8V67NDDQE", "current_trial": 196, "dateTime": 1510865332727, "trialdata": {"rt": -1, "stimulus": "<p id=\"stim\">+</p>", "key_press": -1, "type": "FIXATION", "trial_type": "single-stim", "trial_index": 196, "time_elapsed": 1265992, "internal_node_id": "0.0-142.0-0.0"}}, {"uniqueid": "MTK0427:3II4UPYCOKEM3HR528HEQ8V67NDDQE", "current_trial": 197, "dateTime": 1510865334327, "trialdata": {"rt": -1, "stimulus": "<p id=\"stim\">BANK</p>", "key_press": -1, "type": "PRES_VIS", "word": "bank", "wordID": 82, "conditions": [12, 1600, "v", 12000], "trial": 5, "serialpos": 0, "trial_type": "single-stim", "trial_index": 197, "time_elapsed": 1267593, "internal_node_id": "0.0-143.0"}}, {"uniqueid": "MTK0427:3II4UPYCOKEM3HR528HEQ8V67NDDQE", "current_trial": 198, "dateTime": 1510865337003, "trialdata": {"rt": -1, "stimulus": "<p id=\"stim\">GARDEN</p>", "key_press": -1, "type": "PRES_VIS", "word": "garden", "wordID": 622, "conditions": [12, 1600, "v", 12000], "trial": 5, "serialpos": 1, "trial_type": "single-stim", "trial_index": 198, "time_elapsed": 1270269, "internal_node_id": "0.0-144.0"}}, {"uniqueid": "MTK0427:3II4UPYCOKEM3HR528HEQ8V67NDDQE", "current_trial": 199, "dateTime": 1510865339808, "trialdata": {"rt": -1, "stimulus": "<p id=\"stim\">SHERIFF</p>", "key_press": -1, "type": "PRES_VIS", "word": "sheriff", "wordID": 1283, "conditions": [12, 1600, "v", 12000], "trial": 5, "serialpos": 2, "trial_type": "single-stim", "trial_index": 199, "time_elapsed": 1273074, "internal_node_id": "0.0-145.0"}}, {"uniqueid": "MTK0427:3II4UPYCOKEM3HR528HEQ8V67NDDQE", "current_trial": 200, "dateTime": 1510865342328, "trialdata": {"rt": -1, "stimulus": "<p id=\"stim\">CUPBOARD</p>", "key_press": -1, "type": "PRES_VIS", "word": "cupboard", "wordID": 424, "conditions": [12, 1600, "v", 12000], "trial": 5, "serialpos": 3, "trial_type": "single-stim", "trial_index": 200, "time_elapsed": 1275593, "internal_node_id": "0.0-146.0"}}, {"uniqueid": "MTK0427:3II4UPYCOKEM3HR528HEQ8V67NDDQE", "current_trial": 201, "dateTime": 1510865344741, "trialdata": {"rt": -1, "stimulus": "<p id=\"stim\">DRESSER</p>", "key_press": -1, "type": "PRES_VIS", "word": "dresser", "wordID": 495, "conditions": [12, 1600, "v", 12000], "trial": 5, "serialpos": 4, "trial_type": "single-stim", "trial_index": 201, "time_elapsed": 1278007, "internal_node_id": "0.0-147.0"}}, {"uniqueid": "MTK0427:3II4UPYCOKEM3HR528HEQ8V67NDDQE", "current_trial": 202, "dateTime": 1510865347516, "trialdata": {"rt": -1, "stimulus": "<p id=\"stim\">MATCH</p>", "key_press": -1, "type": "PRES_VIS", "word": "match", "wordID": 877, "conditions": [12, 1600, "v", 12000], "trial": 5, "serialpos": 5, "trial_type": "single-stim", "trial_index": 202, "time_elapsed": 1280782, "internal_node_id": "0.0-148.0"}}, {"uniqueid": "MTK0427:3II4UPYCOKEM3HR528HEQ8V67NDDQE", "current_trial": 203, "dateTime": 1510865349995, "trialdata": {"rt": -1, "stimulus": "<p id=\"stim\">AUTHOR</p>", "key_press": -1, "type": "PRES_VIS", "word": "author", "wordID": 60, "conditions": [12, 1600, "v", 12000], "trial": 5, "serialpos": 6, "trial_type": "single-stim", "trial_index": 203, "time_elapsed": 1283261, "internal_node_id": "0.0-149.0"}}, {"uniqueid": "MTK0427:3II4UPYCOKEM3HR528HEQ8V67NDDQE", "current_trial": 204, "dateTime": 1510865352696, "trialdata": {"rt": -1, "stimulus": "<p id=\"stim\">RECEIPT</p>", "key_press": -1, "type": "PRES_VIS", "word": "receipt", "wordID": 1172, "conditions": [12, 1600, "v", 12000], "trial": 5, "serialpos": 7, "trial_type": "single-stim", "trial_index": 204, "time_elapsed": 1285962, "internal_node_id": "0.0-150.0"}}, {"uniqueid": "MTK0427:3II4UPYCOKEM3HR528HEQ8V67NDDQE", "current_trial": 205, "dateTime": 1510865355204, "trialdata": {"rt": -1, "stimulus": "<p id=\"stim\">COUNTY</p>", "key_press": -1, "type": "PRES_VIS", "word": "county", "wordID": 388, "conditions": [12, 1600, "v", 12000], "trial": 5, "serialpos": 8, "trial_type": "single-stim", "trial_index": 205, "time_elapsed": 1288469, "internal_node_id": "0.0-151.0"}}, {"uniqueid": "MTK0427:3II4UPYCOKEM3HR528HEQ8V67NDDQE", "current_trial": 206, "dateTime": 1510865357976, "trialdata": {"rt": -1, "stimulus": "<p id=\"stim\">SCULPTURE</p>", "key_press": -1, "type": "PRES_VIS", "word": "sculpture", "wordID": 1257, "conditions": [12, 1600, "v", 12000], "trial": 5, "serialpos": 9, "trial_type": "single-stim", "trial_index": 206, "time_elapsed": 1291242, "internal_node_id": "0.0-152.0"}}, {"uniqueid": "MTK0427:3II4UPYCOKEM3HR528HEQ8V67NDDQE", "current_trial": 207, "dateTime": 1510865360703, "trialdata": {"rt": -1, "stimulus": "<p id=\"stim\">PALACE</p>", "key_press": -1, "type": "PRES_VIS", "word": "palace", "wordID": 1005, "conditions": [12, 1600, "v", 12000], "trial": 5, "serialpos": 10, "trial_type": "single-stim", "trial_index": 207, "time_elapsed": 1293969, "internal_node_id": "0.0-153.0"}}, {"uniqueid": "MTK0427:3II4UPYCOKEM3HR528HEQ8V67NDDQE", "current_trial": 208, "dateTime": 1510865363144, "trialdata": {"rt": -1, "stimulus": "<p id=\"stim\">SPACE</p>", "key_press": -1, "type": "PRES_VIS", "word": "space", "wordID": 1344, "conditions": [12, 1600, "v", 12000], "trial": 5, "serialpos": 11, "trial_type": "single-stim", "trial_index": 208, "time_elapsed": 1296410, "internal_node_id": "0.0-154.0"}}, {"uniqueid": "MTK0427:3II4UPYCOKEM3HR528HEQ8V67NDDQE", "current_trial": 209, "dateTime": 1510865365546, "trialdata": {"rt": -1, "stimulus": "", "key_press": -1, "type": "PRE_RECALL_DELAY", "trial_type": "single-stim", "trial_index": 209, "time_elapsed": 1298812, "internal_node_id": "0.0-155.0-0.0"}}, {"uniqueid": "MTK0427:3II4UPYCOKEM3HR528HEQ8V67NDDQE", "current_trial": 210, "dateTime": 1510865366050, "trialdata": {"rt": -1000, "stimulus": "/static/audio/400Hz.wav", "key_press": -1, "type": "PRE_RECALL_ALERT", "trial_type": "single-audio", "trial_index": 210, "time_elapsed": 1299314, "internal_node_id": "0.0-156.0"}}, {"uniqueid": "MTK0427:3II4UPYCOKEM3HR528HEQ8V67NDDQE", "current_trial": 211, "dateTime": 1510865426314, "trialdata": {"rt": [4647, 6675, 8138, 9908], "recwords": ["sculpture", "palace", "space", "garden"], "type": "FREE_RECALL", "conditions": [12, 1600, "v", 12000], "trial": 5, "trial_type": "free-recall", "trial_index": 211, "time_elapsed": 1359568, "internal_node_id": "0.0-157.0-0.0"}}, {"uniqueid": "MTK0427:3II4UPYCOKEM3HR528HEQ8V67NDDQE", "current_trial": 212, "dateTime": 1510865429497, "trialdata": {"rt": 1182, "key_press": 67, "type": "INSTRUCTIONS", "trial_type": "text", "trial_index": 212, "time_elapsed": 1362763, "internal_node_id": "0.0-158.0"}}, {"uniqueid": "MTK0427:3II4UPYCOKEM3HR528HEQ8V67NDDQE", "current_trial": 213, "dateTime": 1510865455501, "trialdata": {"rt": [2842, 4793, 6568, 8481, 10049, 11893, 14360, 16150, 18360, 19751, 22111], "responses": ["16", "7", "18", "14", "8", "1", "19", "19", "22", "5", "13"], "num1": [2, 1, 8, 6, 1, 4, 8, 9, 5, 2, 4, 6], "num2": [8, 4, 6, 2, 5, 7, 7, 2, 9, 2, 7, 8], "num3": [6, 2, 4, 6, 2, 2, 4, 8, 8, 1, 2, 4], "type": "DISTRACTOR", "conditions": [24, 800, "v", 24000], "trial": 6, "trial_type": "math-distractor", "trial_index": 213, "time_elapsed": 1388767, "internal_node_id": "0.0-159.0"}}, {"uniqueid": "MTK0427:3II4UPYCOKEM3HR528HEQ8V67NDDQE", "current_trial": 214, "dateTime": 1510865458500, "trialdata": {"rt": -1, "stimulus": "<p id=\"stim\">10</p>", "key_press": -1, "trial_type": "single-stim", "trial_index": 214, "time_elapsed": 1391766, "internal_node_id": "0.0-160.0-0.0"}}, {"uniqueid": "MTK0427:3II4UPYCOKEM3HR528HEQ8V67NDDQE", "current_trial": 215, "dateTime": 1510865459501, "trialdata": {"rt": -1, "stimulus": "<p id=\"stim\">9</p>", "key_press": -1, "trial_type": "single-stim", "trial_index": 215, "time_elapsed": 1392766, "internal_node_id": "0.0-160.0-1.0"}}, {"uniqueid": "MTK0427:3II4UPYCOKEM3HR528HEQ8V67NDDQE", "current_trial": 216, "dateTime": 1510865461300, "trialdata": {"rt": -1, "stimulus": "<p id=\"stim\">8</p>", "key_press": -1, "trial_type": "single-stim", "trial_index": 216, "time_elapsed": 1394566, "internal_node_id": "0.0-160.0-2.0"}}, {"uniqueid": "MTK0427:3II4UPYCOKEM3HR528HEQ8V67NDDQE", "current_trial": 217, "dateTime": 1510865462303, "trialdata": {"rt": -1, "stimulus": "<p id=\"stim\">7</p>", "key_press": -1, "trial_type": "single-stim", "trial_index": 217, "time_elapsed": 1395569, "internal_node_id": "0.0-160.0-3.0"}}, {"uniqueid": "MTK0427:3II4UPYCOKEM3HR528HEQ8V67NDDQE", "current_trial": 218, "dateTime": 1510865464300, "trialdata": {"rt": -1, "stimulus": "<p id=\"stim\">6</p>", "key_press": -1, "trial_type": "single-stim", "trial_index": 218, "time_elapsed": 1397566, "internal_node_id": "0.0-160.0-4.0"}}, {"uniqueid": "MTK0427:3II4UPYCOKEM3HR528HEQ8V67NDDQE", "current_trial": 219, "dateTime": 1510865465300, "trialdata": {"rt": -1, "stimulus": "<p id=\"stim\">5</p>", "key_press": -1, "trial_type": "single-stim", "trial_index": 219, "time_elapsed": 1398566, "internal_node_id": "0.0-160.0-5.0"}}, {"uniqueid": "MTK0427:3II4UPYCOKEM3HR528HEQ8V67NDDQE", "current_trial": 220, "dateTime": 1510865466302, "trialdata": {"rt": -1, "stimulus": "<p id=\"stim\">4</p>", "key_press": -1, "trial_type": "single-stim", "trial_index": 220, "time_elapsed": 1399568, "internal_node_id": "0.0-160.0-6.0"}}, {"uniqueid": "MTK0427:3II4UPYCOKEM3HR528HEQ8V67NDDQE", "current_trial": 221, "dateTime": 1510865468323, "trialdata": {"rt": -1, "stimulus": "<p id=\"stim\">3</p>", "key_press": -1, "trial_type": "single-stim", "trial_index": 221, "time_elapsed": 1401586, "internal_node_id": "0.0-160.0-7.0"}}, {"uniqueid": "MTK0427:3II4UPYCOKEM3HR528HEQ8V67NDDQE", "current_trial": 222, "dateTime": 1510865470303, "trialdata": {"rt": -1, "stimulus": "<p id=\"stim\">2</p>", "key_press": -1, "trial_type": "single-stim", "trial_index": 222, "time_elapsed": 1403568, "internal_node_id": "0.0-160.0-8.0"}}, {"uniqueid": "MTK0427:3II4UPYCOKEM3HR528HEQ8V67NDDQE", "current_trial": 223, "dateTime": 1510865472301, "trialdata": {"rt": -1, "stimulus": "<p id=\"stim\">1</p>", "key_press": -1, "trial_type": "single-stim", "trial_index": 223, "time_elapsed": 1405567, "internal_node_id": "0.0-160.0-9.0"}}, {"uniqueid": "MTK0427:3II4UPYCOKEM3HR528HEQ8V67NDDQE", "current_trial": 224, "dateTime": 1510865474300, "trialdata": {"rt": -1, "stimulus": "<p id=\"stim\">+</p>", "key_press": -1, "type": "FIXATION", "trial_type": "single-stim", "trial_index": 224, "time_elapsed": 1407566, "internal_node_id": "0.0-161.0-0.0"}}, {"uniqueid": "MTK0427:3II4UPYCOKEM3HR528HEQ8V67NDDQE", "current_trial": 225, "dateTime": 1510865475302, "trialdata": {"rt": -1, "stimulus": "<p id=\"stim\">NURSE</p>", "key_press": -1, "type": "PRES_VIS", "word": "nurse", "wordID": 962, "conditions": [24, 800, "v", 24000], "trial": 6, "serialpos": 0, "trial_type": "single-stim", "trial_index": 225, "time_elapsed": 1408568, "internal_node_id": "0.0-162.0"}}, {"uniqueid": "MTK0427:3II4UPYCOKEM3HR528HEQ8V67NDDQE", "current_trial": 226, "dateTime": 1510865477179, "trialdata": {"rt": -1, "stimulus": "<p id=\"stim\">ARM</p>", "key_press": -1, "type": "PRES_VIS", "word": "arm", "wordID": 37, "conditions": [24, 800, "v", 24000], "trial": 6, "serialpos": 1, "trial_type": "single-stim", "trial_index": 226, "time_elapsed": 1410444, "internal_node_id": "0.0-163.0"}}, {"uniqueid": "MTK0427:3II4UPYCOKEM3HR528HEQ8V67NDDQE", "current_trial": 227, "dateTime": 1510865479097, "trialdata": {"rt": -1, "stimulus": "<p id=\"stim\">OMELET</p>", "key_press": -1, "type": "PRES_VIS", "word": "omelet", "wordID": 975, "conditions": [24, 800, "v", 24000], "trial": 6, "serialpos": 2, "trial_type": "single-stim", "trial_index": 227, "time_elapsed": 1412363, "internal_node_id": "0.0-164.0"}}, {"uniqueid": "MTK0427:3II4UPYCOKEM3HR528HEQ8V67NDDQE", "current_trial": 228, "dateTime": 1510865480755, "trialdata": {"rt": -1, "stimulus": "<p id=\"stim\">BACON</p>", "key_press": -1, "type": "PRES_VIS", "word": "bacon", "wordID": 66, "conditions": [24, 800, "v", 24000], "trial": 6, "serialpos": 3, "trial_type": "single-stim", "trial_index": 228, "time_elapsed": 1414021, "internal_node_id": "0.0-165.0"}}, {"uniqueid": "MTK0427:3II4UPYCOKEM3HR528HEQ8V67NDDQE", "current_trial": 229, "dateTime": 1510865482446, "trialdata": {"rt": -1, "stimulus": "<p id=\"stim\">TUTU</p>", "key_press": -1, "type": "PRES_VIS", "word": "tutu", "wordID": 1523, "conditions": [24, 800, "v", 24000], "trial": 6, "serialpos": 4, "trial_type": "single-stim", "trial_index": 229, "time_elapsed": 1415712, "internal_node_id": "0.0-166.0"}}, {"uniqueid": "MTK0427:3II4UPYCOKEM3HR528HEQ8V67NDDQE", "current_trial": 230, "dateTime": 1510865484425, "trialdata": {"rt": -1, "stimulus": "<p id=\"stim\">PENGUIN</p>", "key_press": -1, "type": "PRES_VIS", "word": "penguin", "wordID": 1043, "conditions": [24, 800, "v", 24000], "trial": 6, "serialpos": 5, "trial_type": "single-stim", "trial_index": 230, "time_elapsed": 1417691, "internal_node_id": "0.0-167.0"}}, {"uniqueid": "MTK0427:3II4UPYCOKEM3HR528HEQ8V67NDDQE", "current_trial": 231, "dateTime": 1510865486308, "trialdata": {"rt": -1, "stimulus": "<p id=\"stim\">WOMAN</p>", "key_press": -1, "type": "PRES_VIS", "word": "woman", "wordID": 1619, "conditions": [24, 800, "v", 24000], "trial": 6, "serialpos": 6, "trial_type": "single-stim", "trial_index": 231, "time_elapsed": 1419573, "internal_node_id": "0.0-168.0"}}, {"uniqueid": "MTK0427:3II4UPYCOKEM3HR528HEQ8V67NDDQE", "current_trial": 232, "dateTime": 1510865488220, "trialdata": {"rt": -1, "stimulus": "<p id=\"stim\">PAPER</p>", "key_press": -1, "type": "PRES_VIS", "word": "paper", "wordID": 1010, "conditions": [24, 800, "v", 24000], "trial": 6, "serialpos": 7, "trial_type": "single-stim", "trial_index": 232, "time_elapsed": 1421486, "internal_node_id": "0.0-169.0"}}, {"uniqueid": "MTK0427:3II4UPYCOKEM3HR528HEQ8V67NDDQE", "current_trial": 233, "dateTime": 1510865490135, "trialdata": {"rt": -1, "stimulus": "<p id=\"stim\">GRAVEL</p>", "key_press": -1, "type": "PRES_VIS", "word": "gravel", "wordID": 658, "conditions": [24, 800, "v", 24000], "trial": 6, "serialpos": 8, "trial_type": "single-stim", "trial_index": 233, "time_elapsed": 1423401, "internal_node_id": "0.0-170.0"}}, {"uniqueid": "MTK0427:3II4UPYCOKEM3HR528HEQ8V67NDDQE", "current_trial": 234, "dateTime": 1510865491748, "trialdata": {"rt": -1, "stimulus": "<p id=\"stim\">RIVER</p>", "key_press": -1, "type": "PRES_VIS", "word": "river", "wordID": 1193, "conditions": [24, 800, "v", 24000], "trial": 6, "serialpos": 9, "trial_type": "single-stim", "trial_index": 234, "time_elapsed": 1425013, "internal_node_id": "0.0-171.0"}}, {"uniqueid": "MTK0427:3II4UPYCOKEM3HR528HEQ8V67NDDQE", "current_trial": 235, "dateTime": 1510865493403, "trialdata": {"rt": -1, "stimulus": "<p id=\"stim\">LEG</p>", "key_press": -1, "type": "PRES_VIS", "word": "leg", "wordID": 808, "conditions": [24, 800, "v", 24000], "trial": 6, "serialpos": 10, "trial_type": "single-stim", "trial_index": 235, "time_elapsed": 1426669, "internal_node_id": "0.0-172.0"}}, {"uniqueid": "MTK0427:3II4UPYCOKEM3HR528HEQ8V67NDDQE", "current_trial": 236, "dateTime": 1510865495190, "trialdata": {"rt": -1, "stimulus": "<p id=\"stim\">CONVICT</p>", "key_press": -1, "type": "PRES_VIS", "word": "convict", "wordID": 370, "conditions": [24, 800, "v", 24000], "trial": 6, "serialpos": 11, "trial_type": "single-stim", "trial_index": 236, "time_elapsed": 1428455, "internal_node_id": "0.0-173.0"}}, {"uniqueid": "MTK0427:3II4UPYCOKEM3HR528HEQ8V67NDDQE", "current_trial": 237, "dateTime": 1510865497084, "trialdata": {"rt": -1, "stimulus": "<p id=\"stim\">TOASTER</p>", "key_press": -1, "type": "PRES_VIS", "word": "toaster", "wordID": 1471, "conditions": [24, 800, "v", 24000], "trial": 6, "serialpos": 12, "trial_type": "single-stim", "trial_index": 237, "time_elapsed": 1430349, "internal_node_id": "0.0-174.0"}}, {"uniqueid": "MTK0427:3II4UPYCOKEM3HR528HEQ8V67NDDQE", "current_trial": 238, "dateTime": 1510865498792, "trialdata": {"rt": -1, "stimulus": "<p id=\"stim\">PIANO</p>", "key_press": -1, "type": "PRES_VIS", "word": "piano", "wordID": 1056, "conditions": [24, 800, "v", 24000], "trial": 6, "serialpos": 13, "trial_type": "single-stim", "trial_index": 238, "time_elapsed": 1432057, "internal_node_id": "0.0-175.0"}}, {"uniqueid": "MTK0427:3II4UPYCOKEM3HR528HEQ8V67NDDQE", "current_trial": 239, "dateTime": 1510865500672, "trialdata": {"rt": -1, "stimulus": "<p id=\"stim\">SOFTBALL</p>", "key_press": -1, "type": "PRES_VIS", "word": "softball", "wordID": 1342, "conditions": [24, 800, "v", 24000], "trial": 6, "serialpos": 14, "trial_type": "single-stim", "trial_index": 239, "time_elapsed": 1433938, "internal_node_id": "0.0-176.0"}}, {"uniqueid": "MTK0427:3II4UPYCOKEM3HR528HEQ8V67NDDQE", "current_trial": 240, "dateTime": 1510865502420, "trialdata": {"rt": -1, "stimulus": "<p id=\"stim\">CRICKET</p>", "key_press": -1, "type": "PRES_VIS", "word": "cricket", "wordID": 407, "conditions": [24, 800, "v", 24000], "trial": 6, "serialpos": 15, "trial_type": "single-stim", "trial_index": 240, "time_elapsed": 1435685, "internal_node_id": "0.0-177.0"}}, {"uniqueid": "MTK0427:3II4UPYCOKEM3HR528HEQ8V67NDDQE", "current_trial": 241, "dateTime": 1510865504023, "trialdata": {"rt": -1, "stimulus": "<p id=\"stim\">SHRUB</p>", "key_press": -1, "type": "PRES_VIS", "word": "shrub", "wordID": 1298, "conditions": [24, 800, "v", 24000], "trial": 6, "serialpos": 16, "trial_type": "single-stim", "trial_index": 241, "time_elapsed": 1437288, "internal_node_id": "0.0-178.0"}}, {"uniqueid": "MTK0427:3II4UPYCOKEM3HR528HEQ8V67NDDQE", "current_trial": 242, "dateTime": 1510865505880, "trialdata": {"rt": -1, "stimulus": "<p id=\"stim\">PLAYGROUND</p>", "key_press": -1, "type": "PRES_VIS", "word": "playground", "wordID": 1086, "conditions": [24, 800, "v", 24000], "trial": 6, "serialpos": 17, "trial_type": "single-stim", "trial_index": 242, "time_elapsed": 1439145, "internal_node_id": "0.0-179.0"}}, {"uniqueid": "MTK0427:3II4UPYCOKEM3HR528HEQ8V67NDDQE", "current_trial": 243, "dateTime": 1510865507824, "trialdata": {"rt": -1, "stimulus": "<p id=\"stim\">WAITRESS</p>", "key_press": -1, "type": "PRES_VIS", "word": "waitress", "wordID": 1580, "conditions": [24, 800, "v", 24000], "trial": 6, "serialpos": 18, "trial_type": "single-stim", "trial_index": 243, "time_elapsed": 1441089, "internal_node_id": "0.0-180.0"}}, {"uniqueid": "MTK0427:3II4UPYCOKEM3HR528HEQ8V67NDDQE", "current_trial": 244, "dateTime": 1510865509583, "trialdata": {"rt": -1, "stimulus": "<p id=\"stim\">WAITER</p>", "key_press": -1, "type": "PRES_VIS", "word": "waiter", "wordID": 1579, "conditions": [24, 800, "v", 24000], "trial": 6, "serialpos": 19, "trial_type": "single-stim", "trial_index": 244, "time_elapsed": 1442849, "internal_node_id": "0.0-181.0"}}, {"uniqueid": "MTK0427:3II4UPYCOKEM3HR528HEQ8V67NDDQE", "current_trial": 245, "dateTime": 1510865511367, "trialdata": {"rt": -1, "stimulus": "<p id=\"stim\">COBRA</p>", "key_press": -1, "type": "PRES_VIS", "word": "cobra", "wordID": 335, "conditions": [24, 800, "v", 24000], "trial": 6, "serialpos": 20, "trial_type": "single-stim", "trial_index": 245, "time_elapsed": 1444633, "internal_node_id": "0.0-182.0"}}, {"uniqueid": "MTK0427:3II4UPYCOKEM3HR528HEQ8V67NDDQE", "current_trial": 246, "dateTime": 1510865513341, "trialdata": {"rt": -1, "stimulus": "<p id=\"stim\">ORCHID</p>", "key_press": -1, "type": "PRES_VIS", "word": "orchid", "wordID": 981, "conditions": [24, 800, "v", 24000], "trial": 6, "serialpos": 21, "trial_type": "single-stim", "trial_index": 246, "time_elapsed": 1446607, "internal_node_id": "0.0-183.0"}}, {"uniqueid": "MTK0427:3II4UPYCOKEM3HR528HEQ8V67NDDQE", "current_trial": 247, "dateTime": 1510865515197, "trialdata": {"rt": -1, "stimulus": "<p id=\"stim\">HEDGE</p>", "key_press": -1, "type": "PRES_VIS", "word": "hedge", "wordID": 698, "conditions": [24, 800, "v", 24000], "trial": 6, "serialpos": 22, "trial_type": "single-stim", "trial_index": 247, "time_elapsed": 1448463, "internal_node_id": "0.0-184.0"}}, {"uniqueid": "MTK0427:3II4UPYCOKEM3HR528HEQ8V67NDDQE", "current_trial": 248, "dateTime": 1510865517059, "trialdata": {"rt": -1, "stimulus": "<p id=\"stim\">HIGHWAY</p>", "key_press": -1, "type": "PRES_VIS", "word": "highway", "wordID": 706, "conditions": [24, 800, "v", 24000], "trial": 6, "serialpos": 23, "trial_type": "single-stim", "trial_index": 248, "time_elapsed": 1450325, "internal_node_id": "0.0-185.0"}}, {"uniqueid": "MTK0427:3II4UPYCOKEM3HR528HEQ8V67NDDQE", "current_trial": 249, "dateTime": 1510865519576, "trialdata": {"rt": -1, "stimulus": "", "key_press": -1, "type": "PRE_RECALL_DELAY", "trial_type": "single-stim", "trial_index": 249, "time_elapsed": 1452842, "internal_node_id": "0.0-186.0-0.0"}}, {"uniqueid": "MTK0427:3II4UPYCOKEM3HR528HEQ8V67NDDQE", "current_trial": 250, "dateTime": 1510865520077, "trialdata": {"rt": -1000, "stimulus": "/static/audio/400Hz.wav", "key_press": -1, "type": "PRE_RECALL_ALERT", "trial_type": "single-audio", "trial_index": 250, "time_elapsed": 1453342, "internal_node_id": "0.0-187.0"}}, {"uniqueid": "MTK0427:3II4UPYCOKEM3HR528HEQ8V67NDDQE", "current_trial": 251, "dateTime": 1510865580321, "trialdata": {"rt": [4161, 5524], "recwords": ["highway", "cobra"], "type": "FREE_RECALL", "conditions": [24, 800, "v", 24000], "trial": 6, "trial_type": "free-recall", "trial_index": 251, "time_elapsed": 1513571, "internal_node_id": "0.0-188.0-0.0"}}, {"uniqueid": "MTK0427:3II4UPYCOKEM3HR528HEQ8V67NDDQE", "current_trial": 252, "dateTime": 1510865583406, "trialdata": {"rt": 1084, "key_press": 32, "type": "INSTRUCTIONS", "trial_type": "text", "trial_index": 252, "time_elapsed": 1516672, "internal_node_id": "0.0-189.0"}}, {"uniqueid": "MTK0427:3II4UPYCOKEM3HR528HEQ8V67NDDQE", "current_trial": 253, "dateTime": 1510865597414, "trialdata": {"rt": [2718, 4833, 6588, 8198, 9798, 11088], "responses": ["19", "19", "14", "12", "11", "11"], "num1": [7, 8, 3, 1, 3, 1, 9], "num2": [5, 6, 8, 2, 5, 5, 3], "num3": [7, 5, 3, 9, 3, 5, 3], "type": "DISTRACTOR", "conditions": [12, 1600, "a", 12000], "trial": 7, "trial_type": "math-distractor", "trial_index": 253, "time_elapsed": 1530680, "internal_node_id": "0.0-190.0"}}, {"uniqueid": "MTK0427:3II4UPYCOKEM3HR528HEQ8V67NDDQE", "current_trial": 254, "dateTime": 1510865600416, "trialdata": {"rt": -1, "stimulus": "<p id=\"stim\">10</p>", "key_press": -1, "trial_type": "single-stim", "trial_index": 254, "time_elapsed": 1533682, "internal_node_id": "0.0-191.0-0.0"}}, {"uniqueid": "MTK0427:3II4UPYCOKEM3HR528HEQ8V67NDDQE", "current_trial": 255, "dateTime": 1510865601417, "trialdata": {"rt": -1, "stimulus": "<p id=\"stim\">9</p>", "key_press": -1, "trial_type": "single-stim", "trial_index": 255, "time_elapsed": 1534682, "internal_node_id": "0.0-191.0-1.0"}}, {"uniqueid": "MTK0427:3II4UPYCOKEM3HR528HEQ8V67NDDQE", "current_trial": 256, "dateTime": 1510865602418, "trialdata": {"rt": -1, "stimulus": "<p id=\"stim\">8</p>", "key_press": -1, "trial_type": "single-stim", "trial_index": 256, "time_elapsed": 1535683, "internal_node_id": "0.0-191.0-2.0"}}, {"uniqueid": "MTK0427:3II4UPYCOKEM3HR528HEQ8V67NDDQE", "current_trial": 257, "dateTime": 1510865604302, "trialdata": {"rt": -1, "stimulus": "<p id=\"stim\">7</p>", "key_press": -1, "trial_type": "single-stim", "trial_index": 257, "time_elapsed": 1537568, "internal_node_id": "0.0-191.0-3.0"}}, {"uniqueid": "MTK0427:3II4UPYCOKEM3HR528HEQ8V67NDDQE", "current_trial": 258, "dateTime": 1510865606302, "trialdata": {"rt": -1, "stimulus": "<p id=\"stim\">6</p>", "key_press": -1, "trial_type": "single-stim", "trial_index": 258, "time_elapsed": 1539567, "internal_node_id": "0.0-191.0-4.0"}}, {"uniqueid": "MTK0427:3II4UPYCOKEM3HR528HEQ8V67NDDQE", "current_trial": 259, "dateTime": 1510865607313, "trialdata": {"rt": -1, "stimulus": "<p id=\"stim\">5</p>", "key_press": -1, "trial_type": "single-stim", "trial_index": 259, "time_elapsed": 1540579, "internal_node_id": "0.0-191.0-5.0"}}, {"uniqueid": "MTK0427:3II4UPYCOKEM3HR528HEQ8V67NDDQE", "current_trial": 260, "dateTime": 1510865609303, "trialdata": {"rt": -1, "stimulus": "<p id=\"stim\">4</p>", "key_press": -1, "trial_type": "single-stim", "trial_index": 260, "time_elapsed": 1542569, "internal_node_id": "0.0-191.0-6.0"}}, {"uniqueid": "MTK0427:3II4UPYCOKEM3HR528HEQ8V67NDDQE", "current_trial": 261, "dateTime": 1510865611303, "trialdata": {"rt": -1, "stimulus": "<p id=\"stim\">3</p>", "key_press": -1, "trial_type": "single-stim", "trial_index": 261, "time_elapsed": 1544569, "internal_node_id": "0.0-191.0-7.0"}}, {"uniqueid": "MTK0427:3II4UPYCOKEM3HR528HEQ8V67NDDQE", "current_trial": 262, "dateTime": 1510865613302, "trialdata": {"rt": -1, "stimulus": "<p id=\"stim\">2</p>", "key_press": -1, "trial_type": "single-stim", "trial_index": 262, "time_elapsed": 1546568, "internal_node_id": "0.0-191.0-8.0"}}, {"uniqueid": "MTK0427:3II4UPYCOKEM3HR528HEQ8V67NDDQE", "current_trial": 263, "dateTime": 1510865614304, "trialdata": {"rt": -1, "stimulus": "<p id=\"stim\">1</p>", "key_press": -1, "trial_type": "single-stim", "trial_index": 263, "time_elapsed": 1547570, "internal_node_id": "0.0-191.0-9.0"}}, {"uniqueid": "MTK0427:3II4UPYCOKEM3HR528HEQ8V67NDDQE", "current_trial": 264, "dateTime": 1510865616305, "trialdata": {"rt": -1, "stimulus": "<p id=\"stim\">+</p>", "key_press": -1, "type": "FIXATION", "trial_type": "single-stim", "trial_index": 264, "time_elapsed": 1549571, "internal_node_id": "0.0-192.0-0.0"}}, {"uniqueid": "MTK0427:3II4UPYCOKEM3HR528HEQ8V67NDDQE", "current_trial": 265, "dateTime": 1510865618758, "trialdata": {"rt": -1000, "stimulus": "/static/audio/wordpool/SNAIL.wav", "key_press": -1, "type": "PRES_AUD", "word": "snail", "wordID": 1331, "conditions": [12, 1600, "a", 12000], "trial": 7, "serialpos": 0, "trial_type": "single-audio", "trial_index": 265, "time_elapsed": 1552023, "internal_node_id": "0.0-193.0"}}, {"uniqueid": "MTK0427:3II4UPYCOKEM3HR528HEQ8V67NDDQE", "current_trial": 266, "dateTime": 1510865621184, "trialdata": {"rt": -1000, "stimulus": "/static/audio/wordpool/LIZARD.wav", "key_press": -1, "type": "PRES_AUD", "word": "lizard", "wordID": 833, "conditions": [12, 1600, "a", 12000], "trial": 7, "serialpos": 1, "trial_type": "single-audio", "trial_index": 266, "time_elapsed": 1554450, "internal_node_id": "0.0-194.0"}}, {"uniqueid": "MTK0427:3II4UPYCOKEM3HR528HEQ8V67NDDQE", "current_trial": 267, "dateTime": 1510865623939, "trialdata": {"rt": -1000, "stimulus": "/static/audio/wordpool/POCKET.wav", "key_press": -1, "type": "PRES_AUD", "word": "pocket", "wordID": 1092, "conditions": [12, 1600, "a", 12000], "trial": 7, "serialpos": 2, "trial_type": "single-audio", "trial_index": 267, "time_elapsed": 1557205, "internal_node_id": "0.0-195.0"}}, {"uniqueid": "MTK0427:3II4UPYCOKEM3HR528HEQ8V67NDDQE", "current_trial": 268, "dateTime": 1510865626733, "trialdata": {"rt": -1000, "stimulus": "/static/audio/wordpool/BELLY.wav", "key_press": -1, "type": "PRES_AUD", "word": "belly", "wordID": 118, "conditions": [12, 1600, "a", 12000], "trial": 7, "serialpos": 3, "trial_type": "single-audio", "trial_index": 268, "time_elapsed": 1559999, "internal_node_id": "0.0-196.0"}}, {"uniqueid": "MTK0427:3II4UPYCOKEM3HR528HEQ8V67NDDQE", "current_trial": 269, "dateTime": 1510865629364, "trialdata": {"rt": -1000, "stimulus": "/static/audio/wordpool/TABLE.wav", "key_press": -1, "type": "PRES_AUD", "word": "table", "wordID": 1425, "conditions": [12, 1600, "a", 12000], "trial": 7, "serialpos": 4, "trial_type": "single-audio", "trial_index": 269, "time_elapsed": 1562630, "internal_node_id": "0.0-197.0"}}, {"uniqueid": "MTK0427:3II4UPYCOKEM3HR528HEQ8V67NDDQE", "current_trial": 270, "dateTime": 1510865632105, "trialdata": {"rt": -1000, "stimulus": "/static/audio/wordpool/INFANT.wav", "key_press": -1, "type": "PRES_AUD", "word": "infant", "wordID": 736, "conditions": [12, 1600, "a", 12000], "trial": 7, "serialpos": 5, "trial_type": "single-audio", "trial_index": 270, "time_elapsed": 1565371, "internal_node_id": "0.0-198.0"}}, {"uniqueid": "MTK0427:3II4UPYCOKEM3HR528HEQ8V67NDDQE", "current_trial": 271, "dateTime": 1510865634671, "trialdata": {"rt": -1000, "stimulus": "/static/aud