{"condition": 0, "counterbalance": 2809, "assignmentId": "31IBVUNM9T6B691IFD6EKVXZ1IVVF5", "workerId": "MTK0685", "hitId": "33NKDW9FFXPUK2O9YOCTBQDX5DCCXJ", "currenttrial": 627, "bonus": 0, "data": [{"uniqueid": "MTK0685:31IBVUNM9T6B691IFD6EKVXZ1IVVF5", "current_trial": 0, "dateTime": 1512596661671, "trialdata": {"rt": 12927, "key_press": 13, "type": "INSTRUCTIONS", "trial_type": "text", "trial_index": 0, "time_elapsed": 12929, "internal_node_id": "0.0-0.0"}}, {"uniqueid": "MTK0685:31IBVUNM9T6B691IFD6EKVXZ1IVVF5", "current_trial": 1, "dateTime": 1512596699862, "trialdata": {"rt": 38189, "key_press": 13, "type": "INSTRUCTIONS", "trial_type": "text", "trial_index": 1, "time_elapsed": 51120, "internal_node_id": "0.0-1.0"}}, {"uniqueid": "MTK0685:31IBVUNM9T6B691IFD6EKVXZ1IVVF5", "current_trial": 2, "dateTime": 1512596710422, "trialdata": {"rt": [10549], "responses": ["ocean"], "type": "AUDIO_TEST", "trial_type": "audio-test", "trial_index": 2, "time_elapsed": 61681, "internal_node_id": "0.0-2.0"}}, {"uniqueid": "MTK0685:31IBVUNM9T6B691IFD6EKVXZ1IVVF5", "current_trial": 3, "dateTime": 1512596720583, "trialdata": {"rt": [10156], "responses": ["crystal"], "type": "AUDIO_TEST", "trial_type": "audio-test", "trial_index": 3, "time_elapsed": 71842, "internal_node_id": "0.0-3.0"}}, {"uniqueid": "MTK0685:31IBVUNM9T6B691IFD6EKVXZ1IVVF5", "current_trial": 4, "dateTime": 1512596729270, "trialdata": {"rt": [8683], "responses": ["spice"], "type": "AUDIO_TEST", "trial_type": "audio-test", "trial_index": 4, "time_elapsed": 80529, "internal_node_id": "0.0-4.0"}}, {"uniqueid": "MTK0685:31IBVUNM9T6B691IFD6EKVXZ1IVVF5", "current_trial": 5, "dateTime": 1512596753302, "trialdata": {"rt": 23278, "responses": "{\"Q0\":\"10\",\"Q1\":\"7\",\"Q2\":\"5\"}", "type": "SLEEP_SURVEY", "trial_type": "survey-text", "trial_index": 5, "time_elapsed": 104561, "internal_node_id": "0.0-5.0"}}, {"uniqueid": "MTK0685:31IBVUNM9T6B691IFD6EKVXZ1IVVF5", "current_trial": 6, "dateTime": 1512596805876, "trialdata": {"rt": 51571, "key_press": 107, "type": "INSTRUCTIONS", "trial_type": "text", "trial_index": 6, "time_elapsed": 157135, "internal_node_id": "0.0-6.0"}}, {"uniqueid": "MTK0685:31IBVUNM9T6B691IFD6EKVXZ1IVVF5", "current_trial": 7, "dateTime": 1512596820964, "trialdata": {"rt": 14587, "key_press": 13, "type": "INSTRUCTIONS", "trial_type": "text", "trial_index": 7, "time_elapsed": 172223, "internal_node_id": "0.0-7.0"}}, {"uniqueid": "MTK0685:31IBVUNM9T6B691IFD6EKVXZ1IVVF5", "current_trial": 8, "dateTime": 1512596845460, "trialdata": {"rt": 23993, "key_press": 13, "type": "INSTRUCTIONS", "trial_type": "text", "trial_index": 8, "time_elapsed": 196719, "internal_node_id": "0.0-8.0"}}, {"uniqueid": "MTK0685:31IBVUNM9T6B691IFD6EKVXZ1IVVF5", "current_trial": 9, "dateTime": 1512596864464, "trialdata": {"rt": [3812, 7860, 13796, 16244], "responses": ["12", "11", "19", "13"], "num1": [6, 8, 6, 3, 6], "num2": [2, 1, 4, 9, 4], "num3": [4, 2, 9, 1, 3], "type": "DISTRACTOR", "conditions": [18, 1200, "v", 18000], "trial": 0, "trial_type": "math-distractor", "trial_index": 9, "time_elapsed": 215723, "internal_node_id": "0.0-9.0"}}, {"uniqueid": "MTK0685:31IBVUNM9T6B691IFD6EKVXZ1IVVF5", "current_trial": 10, "dateTime": 1512596867466, "trialdata": {"rt": -1, "stimulus": "<p id=\"stim\">10</p>", "key_press": -1, "trial_type": "single-stim", "trial_index": 10, "time_elapsed": 218725, "internal_node_id": "0.0-10.0-0.0"}}, {"uniqueid": "MTK0685:31IBVUNM9T6B691IFD6EKVXZ1IVVF5", "current_trial": 11, "dateTime": 1512596868467, "trialdata": {"rt": -1, "stimulus": "<p id=\"stim\">9</p>", "key_press": -1, "trial_type": "single-stim", "trial_index": 11, "time_elapsed": 219726, "internal_node_id": "0.0-10.0-1.0"}}, {"uniqueid": "MTK0685:31IBVUNM9T6B691IFD6EKVXZ1IVVF5", "current_trial": 12, "dateTime": 1512596869469, "trialdata": {"rt": -1, "stimulus": "<p id=\"stim\">8</p>", "key_press": -1, "trial_type": "single-stim", "trial_index": 12, "time_elapsed": 220728, "internal_node_id": "0.0-10.0-2.0"}}, {"uniqueid": "MTK0685:31IBVUNM9T6B691IFD6EKVXZ1IVVF5", "current_trial": 13, "dateTime": 1512596870471, "trialdata": {"rt": -1, "stimulus": "<p id=\"stim\">7</p>", "key_press": -1, "trial_type": "single-stim", "trial_index": 13, "time_elapsed": 221730, "internal_node_id": "0.0-10.0-3.0"}}, {"uniqueid": "MTK0685:31IBVUNM9T6B691IFD6EKVXZ1IVVF5", "current_trial": 14, "dateTime": 1512596871472, "trialdata": {"rt": -1, "stimulus": "<p id=\"stim\">6</p>", "key_press": -1, "trial_type": "single-stim", "trial_index": 14, "time_elapsed": 222731, "internal_node_id": "0.0-10.0-4.0"}}, {"uniqueid": "MTK0685:31IBVUNM9T6B691IFD6EKVXZ1IVVF5", "current_trial": 15, "dateTime": 1512596872473, "trialdata": {"rt": -1, "stimulus": "<p id=\"stim\">5</p>", "key_press": -1, "trial_type": "single-stim", "trial_index": 15, "time_elapsed": 223732, "internal_node_id": "0.0-10.0-5.0"}}, {"uniqueid": "MTK0685:31IBVUNM9T6B691IFD6EKVXZ1IVVF5", "current_trial": 16, "dateTime": 1512596873475, "trialdata": {"rt": -1, "stimulus": "<p id=\"stim\">4</p>", "key_press": -1, "trial_type": "single-stim", "trial_index": 16, "time_elapsed": 224734, "internal_node_id": "0.0-10.0-6.0"}}, {"uniqueid": "MTK0685:31IBVUNM9T6B691IFD6EKVXZ1IVVF5", "current_trial": 17, "dateTime": 1512596874476, "trialdata": {"rt": -1, "stimulus": "<p id=\"stim\">3</p>", "key_press": -1, "trial_type": "single-stim", "trial_index": 17, "time_elapsed": 225735, "internal_node_id": "0.0-10.0-7.0"}}, {"uniqueid": "MTK0685:31IBVUNM9T6B691IFD6EKVXZ1IVVF5", "current_trial": 18, "dateTime": 1512596875478, "trialdata": {"rt": -1, "stimulus": "<p id=\"stim\">2</p>", "key_press": -1, "trial_type": "single-stim", "trial_index": 18, "time_elapsed": 226737, "internal_node_id": "0.0-10.0-8.0"}}, {"uniqueid": "MTK0685:31IBVUNM9T6B691IFD6EKVXZ1IVVF5", "current_trial": 19, "dateTime": 1512596876480, "trialdata": {"rt": -1, "stimulus": "<p id=\"stim\">1</p>", "key_press": -1, "trial_type": "single-stim", "trial_index": 19, "time_elapsed": 227739, "internal_node_id": "0.0-10.0-9.0"}}, {"uniqueid": "MTK0685:31IBVUNM9T6B691IFD6EKVXZ1IVVF5", "current_trial": 20, "dateTime": 1512596877983, "trialdata": {"rt": -1, "stimulus": "<p id=\"stim\">+</p>", "key_press": -1, "type": "FIXATION", "trial_type": "single-stim", "trial_index": 20, "time_elapsed": 229242, "internal_node_id": "0.0-11.0-0.0"}}, {"uniqueid": "MTK0685:31IBVUNM9T6B691IFD6EKVXZ1IVVF5", "current_trial": 21, "dateTime": 1512596879184, "trialdata": {"rt": -1, "stimulus": "<p id=\"stim\">FRAME</p>", "key_press": -1, "type": "PRES_VIS", "word": "frame", "wordID": 599, "conditions": [18, 1200, "v", 18000], "trial": 0, "serialpos": 0, "trial_type": "single-stim", "trial_index": 21, "time_elapsed": 230443, "internal_node_id": "0.0-12.0"}}, {"uniqueid": "MTK0685:31IBVUNM9T6B691IFD6EKVXZ1IVVF5", "current_trial": 22, "dateTime": 1512596881193, "trialdata": {"rt": -1, "stimulus": "<p id=\"stim\">SIDEWALK</p>", "key_press": -1, "type": "PRES_VIS", "word": "sidewalk", "wordID": 1302, "conditions": [18, 1200, "v", 18000], "trial": 0, "serialpos": 1, "trial_type": "single-stim", "trial_index": 22, "time_elapsed": 232452, "internal_node_id": "0.0-13.0"}}, {"uniqueid": "MTK0685:31IBVUNM9T6B691IFD6EKVXZ1IVVF5", "current_trial": 23, "dateTime": 1512596883281, "trialdata": {"rt": -1, "stimulus": "<p id=\"stim\">CUSTARD</p>", "key_press": -1, "type": "PRES_VIS", "word": "custard", "wordID": 428, "conditions": [18, 1200, "v", 18000], "trial": 0, "serialpos": 2, "trial_type": "single-stim", "trial_index": 23, "time_elapsed": 234540, "internal_node_id": "0.0-14.0"}}, {"uniqueid": "MTK0685:31IBVUNM9T6B691IFD6EKVXZ1IVVF5", "current_trial": 24, "dateTime": 1512596885483, "trialdata": {"rt": -1, "stimulus": "<p id=\"stim\">COTTAGE</p>", "key_press": -1, "type": "PRES_VIS", "word": "cottage", "wordID": 383, "conditions": [18, 1200, "v", 18000], "trial": 0, "serialpos": 3, "trial_type": "single-stim", "trial_index": 24, "time_elapsed": 236742, "internal_node_id": "0.0-15.0"}}, {"uniqueid": "MTK0685:31IBVUNM9T6B691IFD6EKVXZ1IVVF5", "current_trial": 25, "dateTime": 1512596887758, "trialdata": {"rt": -1, "stimulus": "<p id=\"stim\">EXPERT</p>", "key_press": -1, "type": "PRES_VIS", "word": "expert", "wordID": 542, "conditions": [18, 1200, "v", 18000], "trial": 0, "serialpos": 4, "trial_type": "single-stim", "trial_index": 25, "time_elapsed": 239017, "internal_node_id": "0.0-16.0"}}, {"uniqueid": "MTK0685:31IBVUNM9T6B691IFD6EKVXZ1IVVF5", "current_trial": 26, "dateTime": 1512596890119, "trialdata": {"rt": -1, "stimulus": "<p id=\"stim\">YARN</p>", "key_press": -1, "type": "PRES_VIS", "word": "yarn", "wordID": 1630, "conditions": [18, 1200, "v", 18000], "trial": 0, "serialpos": 5, "trial_type": "single-stim", "trial_index": 26, "time_elapsed": 241378, "internal_node_id": "0.0-17.0"}}, {"uniqueid": "MTK0685:31IBVUNM9T6B691IFD6EKVXZ1IVVF5", "current_trial": 27, "dateTime": 1512596892367, "trialdata": {"rt": -1, "stimulus": "<p id=\"stim\">HATCHET</p>", "key_press": -1, "type": "PRES_VIS", "word": "hatchet", "wordID": 690, "conditions": [18, 1200, "v", 18000], "trial": 0, "serialpos": 6, "trial_type": "single-stim", "trial_index": 27, "time_elapsed": 243626, "internal_node_id": "0.0-18.0"}}, {"uniqueid": "MTK0685:31IBVUNM9T6B691IFD6EKVXZ1IVVF5", "current_trial": 28, "dateTime": 1512596894563, "trialdata": {"rt": -1, "stimulus": "<p id=\"stim\">GRILL</p>", "key_press": -1, "type": "PRES_VIS", "word": "grill", "wordID": 660, "conditions": [18, 1200, "v", 18000], "trial": 0, "serialpos": 7, "trial_type": "single-stim", "trial_index": 28, "time_elapsed": 245822, "internal_node_id": "0.0-19.0"}}, {"uniqueid": "MTK0685:31IBVUNM9T6B691IFD6EKVXZ1IVVF5", "current_trial": 29, "dateTime": 1512596896932, "trialdata": {"rt": -1, "stimulus": "<p id=\"stim\">BARLEY</p>", "key_press": -1, "type": "PRES_VIS", "word": "barley", "wordID": 87, "conditions": [18, 1200, "v", 18000], "trial": 0, "serialpos": 8, "trial_type": "single-stim", "trial_index": 29, "time_elapsed": 248191, "internal_node_id": "0.0-20.0"}}, {"uniqueid": "MTK0685:31IBVUNM9T6B691IFD6EKVXZ1IVVF5", "current_trial": 30, "dateTime": 1512596898947, "trialdata": {"rt": -1, "stimulus": "<p id=\"stim\">LIGHTNING</p>", "key_press": -1, "type": "PRES_VIS", "word": "lightning", "wordID": 819, "conditions": [18, 1200, "v", 18000], "trial": 0, "serialpos": 9, "trial_type": "single-stim", "trial_index": 30, "time_elapsed": 250206, "internal_node_id": "0.0-21.0"}}, {"uniqueid": "MTK0685:31IBVUNM9T6B691IFD6EKVXZ1IVVF5", "current_trial": 31, "dateTime": 1512596901126, "trialdata": {"rt": -1, "stimulus": "<p id=\"stim\">LODGE</p>", "key_press": -1, "type": "PRES_VIS", "word": "lodge", "wordID": 838, "conditions": [18, 1200, "v", 18000], "trial": 0, "serialpos": 10, "trial_type": "single-stim", "trial_index": 31, "time_elapsed": 252385, "internal_node_id": "0.0-22.0"}}, {"uniqueid": "MTK0685:31IBVUNM9T6B691IFD6EKVXZ1IVVF5", "current_trial": 32, "dateTime": 1512596903256, "trialdata": {"rt": -1, "stimulus": "<p id=\"stim\">HAMPER</p>", "key_press": -1, "type": "PRES_VIS", "word": "hamper", "wordID": 681, "conditions": [18, 1200, "v", 18000], "trial": 0, "serialpos": 11, "trial_type": "single-stim", "trial_index": 32, "time_elapsed": 254515, "internal_node_id": "0.0-23.0"}}, {"uniqueid": "MTK0685:31IBVUNM9T6B691IFD6EKVXZ1IVVF5", "current_trial": 33, "dateTime": 1512596905525, "trialdata": {"rt": -1, "stimulus": "<p id=\"stim\">BROOK</p>", "key_press": -1, "type": "PRES_VIS", "word": "brook", "wordID": 176, "conditions": [18, 1200, "v", 18000], "trial": 0, "serialpos": 12, "trial_type": "single-stim", "trial_index": 33, "time_elapsed": 256784, "internal_node_id": "0.0-24.0"}}, {"uniqueid": "MTK0685:31IBVUNM9T6B691IFD6EKVXZ1IVVF5", "current_trial": 34, "dateTime": 1512596907757, "trialdata": {"rt": -1, "stimulus": "<p id=\"stim\">LAKE</p>", "key_press": -1, "type": "PRES_VIS", "word": "lake", "wordID": 795, "conditions": [18, 1200, "v", 18000], "trial": 0, "serialpos": 13, "trial_type": "single-stim", "trial_index": 34, "time_elapsed": 259016, "internal_node_id": "0.0-25.0"}}, {"uniqueid": "MTK0685:31IBVUNM9T6B691IFD6EKVXZ1IVVF5", "current_trial": 35, "dateTime": 1512596910004, "trialdata": {"rt": -1, "stimulus": "<p id=\"stim\">DAUGHTER</p>", "key_press": -1, "type": "PRES_VIS", "word": "daughter", "wordID": 441, "conditions": [18, 1200, "v", 18000], "trial": 0, "serialpos": 14, "trial_type": "single-stim", "trial_index": 35, "time_elapsed": 261262, "internal_node_id": "0.0-26.0"}}, {"uniqueid": "MTK0685:31IBVUNM9T6B691IFD6EKVXZ1IVVF5", "current_trial": 36, "dateTime": 1512596912325, "trialdata": {"rt": -1, "stimulus": "<p id=\"stim\">HIKER</p>", "key_press": -1, "type": "PRES_VIS", "word": "hiker", "wordID": 707, "conditions": [18, 1200, "v", 18000], "trial": 0, "serialpos": 15, "trial_type": "single-stim", "trial_index": 36, "time_elapsed": 263584, "internal_node_id": "0.0-27.0"}}, {"uniqueid": "MTK0685:31IBVUNM9T6B691IFD6EKVXZ1IVVF5", "current_trial": 37, "dateTime": 1512596914429, "trialdata": {"rt": -1, "stimulus": "<p id=\"stim\">HORNET</p>", "key_press": -1, "type": "PRES_VIS", "word": "hornet", "wordID": 717, "conditions": [18, 1200, "v", 18000], "trial": 0, "serialpos": 16, "trial_type": "single-stim", "trial_index": 37, "time_elapsed": 265688, "internal_node_id": "0.0-28.0"}}, {"uniqueid": "MTK0685:31IBVUNM9T6B691IFD6EKVXZ1IVVF5", "current_trial": 38, "dateTime": 1512596916590, "trialdata": {"rt": -1, "stimulus": "<p id=\"stim\">WARDROBE</p>", "key_press": -1, "type": "PRES_VIS", "word": "wardrobe", "wordID": 1586, "conditions": [18, 1200, "v", 18000], "trial": 0, "serialpos": 17, "trial_type": "single-stim", "trial_index": 38, "time_elapsed": 267849, "internal_node_id": "0.0-29.0"}}, {"uniqueid": "MTK0685:31IBVUNM9T6B691IFD6EKVXZ1IVVF5", "current_trial": 39, "dateTime": 1512596918852, "trialdata": {"rt": -1, "stimulus": "", "key_press": -1, "type": "PRE_RECALL_DELAY", "trial_type": "single-stim", "trial_index": 39, "time_elapsed": 270111, "internal_node_id": "0.0-30.0-0.0"}}, {"uniqueid": "MTK0685:31IBVUNM9T6B691IFD6EKVXZ1IVVF5", "current_trial": 40, "dateTime": 1512596919354, "trialdata": {"rt": -1000, "stimulus": "/static/audio/400Hz.wav", "key_press": -1, "type": "PRE_RECALL_ALERT", "trial_type": "single-audio", "trial_index": 40, "time_elapsed": 270613, "internal_node_id": "0.0-31.0"}}, {"uniqueid": "MTK0685:31IBVUNM9T6B691IFD6EKVXZ1IVVF5", "current_trial": 41, "dateTime": 1512596979359, "trialdata": {"rt": [7446, 18070, 25030, 36727, 45847, 55830], "recwords": ["hamper", "daughter", "lodge", "wardrobe", "", "wardrobe"], "type": "FREE_RECALL", "conditions": [18, 1200, "v", 18000], "trial": 0, "trial_type": "free-recall", "trial_index": 41, "time_elapsed": 330616, "internal_node_id": "0.0-32.0-0.0"}}, {"uniqueid": "MTK0685:31IBVUNM9T6B691IFD6EKVXZ1IVVF5", "current_trial": 42, "dateTime": 1512596984450, "trialdata": {"rt": 3089, "key_press": 13, "type": "INSTRUCTIONS", "trial_type": "text", "trial_index": 42, "time_elapsed": 335709, "internal_node_id": "0.0-33.0"}}, {"uniqueid": "MTK0685:31IBVUNM9T6B691IFD6EKVXZ1IVVF5", "current_trial": 43, "dateTime": 1512597004453, "trialdata": {"rt": [3422, 12270, 15630], "responses": ["18", "26", "15"], "num1": [9, 7, 3, 4], "num2": [6, 9, 8, 4], "num3": [3, 8, 4, 4], "type": "DISTRACTOR", "conditions": [18, 1200, "a", 18000], "trial": 1, "trial_type": "math-distractor", "trial_index": 43, "time_elapsed": 355712, "internal_node_id": "0.0-34.0"}}, {"uniqueid": "MTK0685:31IBVUNM9T6B691IFD6EKVXZ1IVVF5", "current_trial": 44, "dateTime": 1512597007455, "trialdata": {"rt": -1, "stimulus": "<p id=\"stim\">10</p>", "key_press": -1, "trial_type": "single-stim", "trial_index": 44, "time_elapsed": 358714, "internal_node_id": "0.0-35.0-0.0"}}, {"uniqueid": "MTK0685:31IBVUNM9T6B691IFD6EKVXZ1IVVF5", "current_trial": 45, "dateTime": 1512597008455, "trialdata": {"rt": -1, "stimulus": "<p id=\"stim\">9</p>", "key_press": -1, "trial_type": "single-stim", "trial_index": 45, "time_elapsed": 359714, "internal_node_id": "0.0-35.0-1.0"}}, {"uniqueid": "MTK0685:31IBVUNM9T6B691IFD6EKVXZ1IVVF5", "current_trial": 46, "dateTime": 1512597009457, "trialdata": {"rt": -1, "stimulus": "<p id=\"stim\">8</p>", "key_press": -1, "trial_type": "single-stim", "trial_index": 46, "time_elapsed": 360715, "internal_node_id": "0.0-35.0-2.0"}}, {"uniqueid": "MTK0685:31IBVUNM9T6B691IFD6EKVXZ1IVVF5", "current_trial": 47, "dateTime": 1512597010459, "trialdata": {"rt": -1, "stimulus": "<p id=\"stim\">7</p>", "key_press": -1, "trial_type": "single-stim", "trial_index": 47, "time_elapsed": 361718, "internal_node_id": "0.0-35.0-3.0"}}, {"uniqueid": "MTK0685:31IBVUNM9T6B691IFD6EKVXZ1IVVF5", "current_trial": 48, "dateTime": 1512597011459, "trialdata": {"rt": -1, "stimulus": "<p id=\"stim\">6</p>", "key_press": -1, "trial_type": "single-stim", "trial_index": 48, "time_elapsed": 362718, "internal_node_id": "0.0-35.0-4.0"}}, {"uniqueid": "MTK0685:31IBVUNM9T6B691IFD6EKVXZ1IVVF5", "current_trial": 49, "dateTime": 1512597012460, "trialdata": {"rt": -1, "stimulus": "<p id=\"stim\">5</p>", "key_press": -1, "trial_type": "single-stim", "trial_index": 49, "time_elapsed": 363719, "internal_node_id": "0.0-35.0-5.0"}}, {"uniqueid": "MTK0685:31IBVUNM9T6B691IFD6EKVXZ1IVVF5", "current_trial": 50, "dateTime": 1512597013462, "trialdata": {"rt": -1, "stimulus": "<p id=\"stim\">4</p>", "key_press": -1, "trial_type": "single-stim", "trial_index": 50, "time_elapsed": 364721, "internal_node_id": "0.0-35.0-6.0"}}, {"uniqueid": "MTK0685:31IBVUNM9T6B691IFD6EKVXZ1IVVF5", "current_trial": 51, "dateTime": 1512597014465, "trialdata": {"rt": -1, "stimulus": "<p id=\"stim\">3</p>", "key_press": -1, "trial_type": "single-stim", "trial_index": 51, "time_elapsed": 365724, "internal_node_id": "0.0-35.0-7.0"}}, {"uniqueid": "MTK0685:31IBVUNM9T6B691IFD6EKVXZ1IVVF5", "current_trial": 52, "dateTime": 1512597015467, "trialdata": {"rt": -1, "stimulus": "<p id=\"stim\">2</p>", "key_press": -1, "trial_type": "single-stim", "trial_index": 52, "time_elapsed": 366726, "internal_node_id": "0.0-35.0-8.0"}}, {"uniqueid": "MTK0685:31IBVUNM9T6B691IFD6EKVXZ1IVVF5", "current_trial": 53, "dateTime": 1512597016468, "trialdata": {"rt": -1, "stimulus": "<p id=\"stim\">1</p>", "key_press": -1, "trial_type": "single-stim", "trial_index": 53, "time_elapsed": 367727, "internal_node_id": "0.0-35.0-9.0"}}, {"uniqueid": "MTK0685:31IBVUNM9T6B691IFD6EKVXZ1IVVF5", "current_trial": 54, "dateTime": 1512597017969, "trialdata": {"rt": -1, "stimulus": "<p id=\"stim\">+</p>", "key_press": -1, "type": "FIXATION", "trial_type": "single-stim", "trial_index": 54, "time_elapsed": 369228, "internal_node_id": "0.0-36.0-0.0"}}, {"uniqueid": "MTK0685:31IBVUNM9T6B691IFD6EKVXZ1IVVF5", "current_trial": 55, "dateTime": 1512597020346, "trialdata": {"rt": -1000, "stimulus": "/static/audio/wordpool/GYMNAST.wav", "key_press": -1, "type": "PRES_AUD", "word": "gymnast", "wordID": 674, "conditions": [18, 1200, "a", 18000], "trial": 1, "serialpos": 0, "trial_type": "single-audio", "trial_index": 55, "time_elapsed": 371605, "internal_node_id": "0.0-37.0"}}, {"uniqueid": "MTK0685:31IBVUNM9T6B691IFD6EKVXZ1IVVF5", "current_trial": 56, "dateTime": 1512597022613, "trialdata": {"rt": -1000, "stimulus": "/static/audio/wordpool/COSTUME.wav", "key_press": -1, "type": "PRES_AUD", "word": "costume", "wordID": 382, "conditions": [18, 1200, "a", 18000], "trial": 1, "serialpos": 1, "trial_type": "single-audio", "trial_index": 56, "time_elapsed": 373872, "internal_node_id": "0.0-38.0"}}, {"uniqueid": "MTK0685:31IBVUNM9T6B691IFD6EKVXZ1IVVF5", "current_trial": 57, "dateTime": 1512597024932, "trialdata": {"rt": -1000, "stimulus": "/static/audio/wordpool/GIFT.wav", "key_press": -1, "type": "PRES_AUD", "word": "gift", "wordID": 634, "conditions": [18, 1200, "a", 18000], "trial": 1, "serialpos": 2, "trial_type": "single-audio", "trial_index": 57, "time_elapsed": 376191, "internal_node_id": "0.0-39.0"}}, {"uniqueid": "MTK0685:31IBVUNM9T6B691IFD6EKVXZ1IVVF5", "current_trial": 58, "dateTime": 1512597026975, "trialdata": {"rt": -1000, "stimulus": "/static/audio/wordpool/TURKEY.wav", "key_press": -1, "type": "PRES_AUD", "word": "turkey", "wordID": 1519, "conditions": [18, 1200, "a", 18000], "trial": 1, "serialpos": 3, "trial_type": "single-audio", "trial_index": 58, "time_elapsed": 378234, "internal_node_id": "0.0-40.0"}}, {"uniqueid": "MTK0685:31IBVUNM9T6B691IFD6EKVXZ1IVVF5", "current_trial": 59, "dateTime": 1512597029295, "trialdata": {"rt": -1000, "stimulus": "/static/audio/wordpool/DRAGON.wav", "key_press": -1, "type": "PRES_AUD", "word": "dragon", "wordID": 491, "conditions": [18, 1200, "a", 18000], "trial": 1, "serialpos": 4, "trial_type": "single-audio", "trial_index": 59, "time_elapsed": 380554, "internal_node_id": "0.0-41.0"}}, {"uniqueid": "MTK0685:31IBVUNM9T6B691IFD6EKVXZ1IVVF5", "current_trial": 60, "dateTime": 1512597031327, "trialdata": {"rt": -1000, "stimulus": "/static/audio/wordpool/SISTER.wav", "key_press": -1, "type": "PRES_AUD", "word": "sister", "wordID": 1311, "conditions": [18, 1200, "a", 18000], "trial": 1, "serialpos": 5, "trial_type": "single-audio", "trial_index": 60, "time_elapsed": 382586, "internal_node_id": "0.0-42.0"}}, {"uniqueid": "MTK0685:31IBVUNM9T6B691IFD6EKVXZ1IVVF5", "current_trial": 61, "dateTime": 1512597033675, "trialdata": {"rt": -1000, "stimulus": "/static/audio/wordpool/RECORD.wav", "key_press": -1, "type": "PRES_AUD", "word": "record", "wordID": 1175, "conditions": [18, 1200, "a", 18000], "trial": 1, "serialpos": 6, "trial_type": "single-audio", "trial_index": 61, "time_elapsed": 384934, "internal_node_id": "0.0-43.0"}}, {"uniqueid": "MTK0685:31IBVUNM9T6B691IFD6EKVXZ1IVVF5", "current_trial": 62, "dateTime": 1512597035844, "trialdata": {"rt": -1000, "stimulus": "/static/audio/wordpool/BOX.wav", "key_press": -1, "type": "PRES_AUD", "word": "box", "wordID": 158, "conditions": [18, 1200, "a", 18000], "trial": 1, "serialpos": 7, "trial_type": "single-audio", "trial_index": 62, "time_elapsed": 387103, "internal_node_id": "0.0-44.0"}}, {"uniqueid": "MTK0685:31IBVUNM9T6B691IFD6EKVXZ1IVVF5", "current_trial": 63, "dateTime": 1512597037942, "trialdata": {"rt": -1000, "stimulus": "/static/audio/wordpool/PACKAGE.wav", "key_press": -1, "type": "PRES_AUD", "word": "package", "wordID": 996, "conditions": [18, 1200, "a", 18000], "trial": 1, "serialpos": 8, "trial_type": "single-audio", "trial_index": 63, "time_elapsed": 389201, "internal_node_id": "0.0-45.0"}}, {"uniqueid": "MTK0685:31IBVUNM9T6B691IFD6EKVXZ1IVVF5", "current_trial": 64, "dateTime": 1512597040283, "trialdata": {"rt": -1000, "stimulus": "/static/audio/wordpool/FIREPLACE.wav", "key_press": -1, "type": "PRES_AUD", "word": "fireplace", "wordID": 569, "conditions": [18, 1200, "a", 18000], "trial": 1, "serialpos": 9, "trial_type": "single-audio", "trial_index": 64, "time_elapsed": 391542, "internal_node_id": "0.0-46.0"}}, {"uniqueid": "MTK0685:31IBVUNM9T6B691IFD6EKVXZ1IVVF5", "current_trial": 65, "dateTime": 1512597042660, "trialdata": {"rt": -1000, "stimulus": "/static/audio/wordpool/GUITAR.wav", "key_press": -1, "type": "PRES_AUD", "word": "guitar", "wordID": 669, "conditions": [18, 1200, "a", 18000], "trial": 1, "serialpos": 10, "trial_type": "single-audio", "trial_index": 65, "time_elapsed": 393919, "internal_node_id": "0.0-47.0"}}, {"uniqueid": "MTK0685:31IBVUNM9T6B691IFD6EKVXZ1IVVF5", "current_trial": 66, "dateTime": 1512597044927, "trialdata": {"rt": -1000, "stimulus": "/static/audio/wordpool/TILE.wav", "key_press": -1, "type": "PRES_AUD", "word": "tile", "wordID": 1467, "conditions": [18, 1200, "a", 18000], "trial": 1, "serialpos": 11, "trial_type": "single-audio", "trial_index": 66, "time_elapsed": 396186, "internal_node_id": "0.0-48.0"}}, {"uniqueid": "MTK0685:31IBVUNM9T6B691IFD6EKVXZ1IVVF5", "current_trial": 67, "dateTime": 1512597047067, "trialdata": {"rt": -1000, "stimulus": "/static/audio/wordpool/GROUND.wav", "key_press": -1, "type": "PRES_AUD", "word": "ground", "wordID": 665, "conditions": [18, 1200, "a", 18000], "trial": 1, "serialpos": 12, "trial_type": "single-audio", "trial_index": 67, "time_elapsed": 398326, "internal_node_id": "0.0-49.0"}}, {"uniqueid": "MTK0685:31IBVUNM9T6B691IFD6EKVXZ1IVVF5", "current_trial": 68, "dateTime": 1512597049113, "trialdata": {"rt": -1000, "stimulus": "/static/audio/wordpool/GLASS.wav", "key_press": -1, "type": "PRES_AUD", "word": "glass", "wordID": 638, "conditions": [18, 1200, "a", 18000], "trial": 1, "serialpos": 13, "trial_type": "single-audio", "trial_index": 68, "time_elapsed": 400371, "internal_node_id": "0.0-50.0"}}, {"uniqueid": "MTK0685:31IBVUNM9T6B691IFD6EKVXZ1IVVF5", "current_trial": 69, "dateTime": 1512597051124, "trialdata": {"rt": -1000, "stimulus": "/static/audio/wordpool/BALLOON.wav", "key_press": -1, "type": "PRES_AUD", "word": "balloon", "wordID": 74, "conditions": [18, 1200, "a", 18000], "trial": 1, "serialpos": 14, "trial_type": "single-audio", "trial_index": 69, "time_elapsed": 402383, "internal_node_id": "0.0-51.0"}}, {"uniqueid": "MTK0685:31IBVUNM9T6B691IFD6EKVXZ1IVVF5", "current_trial": 70, "dateTime": 1512597053255, "trialdata": {"rt": -1000, "stimulus": "/static/audio/wordpool/CLOCK.wav", "key_press": -1, "type": "PRES_AUD", "word": "clock", "wordID": 324, "conditions": [18, 1200, "a", 18000], "trial": 1, "serialpos": 15, "trial_type": "single-audio", "trial_index": 70, "time_elapsed": 404514, "internal_node_id": "0.0-52.0"}}, {"uniqueid": "MTK0685:31IBVUNM9T6B691IFD6EKVXZ1IVVF5", "current_trial": 71, "dateTime": 1512597055325, "trialdata": {"rt": -1000, "stimulus": "/static/audio/wordpool/BEAVER.wav", "key_press": -1, "type": "PRES_AUD", "word": "beaver", "wordID": 108, "conditions": [18, 1200, "a", 18000], "trial": 1, "serialpos": 16, "trial_type": "single-audio", "trial_index": 71, "time_elapsed": 406584, "internal_node_id": "0.0-53.0"}}, {"uniqueid": "MTK0685:31IBVUNM9T6B691IFD6EKVXZ1IVVF5", "current_trial": 72, "dateTime": 1512597057392, "trialdata": {"rt": -1000, "stimulus": "/static/audio/wordpool/VELVET.wav", "key_press": -1, "type": "PRES_AUD", "word": "velvet", "wordID": 1554, "conditions": [18, 1200, "a", 18000], "trial": 1, "serialpos": 17, "trial_type": "single-audio", "trial_index": 72, "time_elapsed": 408651, "internal_node_id": "0.0-54.0"}}, {"uniqueid": "MTK0685:31IBVUNM9T6B691IFD6EKVXZ1IVVF5", "current_trial": 73, "dateTime": 1512597058783, "trialdata": {"rt": -1, "stimulus": "", "key_press": -1, "type": "PRE_RECALL_DELAY", "trial_type": "single-stim", "trial_index": 73, "time_elapsed": 410042, "internal_node_id": "0.0-55.0-0.0"}}, {"uniqueid": "MTK0685:31IBVUNM9T6B691IFD6EKVXZ1IVVF5", "current_trial": 74, "dateTime": 1512597059284, "trialdata": {"rt": -1000, "stimulus": "/static/audio/400Hz.wav", "key_press": -1, "type": "PRE_RECALL_ALERT", "trial_type": "single-audio", "trial_index": 74, "time_elapsed": 410543, "internal_node_id": "0.0-56.0"}}, {"uniqueid": "MTK0685:31IBVUNM9T6B691IFD6EKVXZ1IVVF5", "current_trial": 75, "dateTime": 1512597119287, "trialdata": {"rt": [6349, 10909, 15613, 18092, 24573, 29324, 33580, 36924, 47211], "recwords": ["velvet", "clock", "record", "guitar", "turkey", "sidter", "package", "gift", ""], "type": "FREE_RECALL", "conditions": [18, 1200, "a", 18000], "trial": 1, "trial_type": "free-recall", "trial_index": 75, "time_elapsed": 470544, "internal_node_id": "0.0-57.0-0.0"}}, {"uniqueid": "MTK0685:31IBVUNM9T6B691IFD6EKVXZ1IVVF5", "current_trial": 76, "dateTime": 1512597146084, "trialdata": {"rt": 24793, "key_press": 13, "type": "INSTRUCTIONS", "trial_type": "text", "trial_index": 76, "time_elapsed": 497341, "internal_node_id": "0.0-58.0"}}, {"uniqueid": "MTK0685:31IBVUNM9T6B691IFD6EKVXZ1IVVF5", "current_trial": 77, "dateTime": 1512597171086, "trialdata": {"rt": [2579, 7108, 9044, 11060, 12787, 21507, 23411], "responses": ["19", "18", "15", "9", "13", "22", "20"], "num1": [9, 8, 5, 2, 1, 6, 2, 5], "num2": [2, 4, 9, 5, 3, 7, 9, 9], "num3": [8, 6, 1, 2, 9, 9, 9, 3], "type": "DISTRACTOR", "conditions": [24, 1600, "a", 24000], "trial": 2, "trial_type": "math-distractor", "trial_index": 77, "time_elapsed": 522345, "internal_node_id": "0.0-59.0"}}, {"uniqueid": "MTK0685:31IBVUNM9T6B691IFD6EKVXZ1IVVF5", "current_trial": 78, "dateTime": 1512597174091, "trialdata": {"rt": -1, "stimulus": "<p id=\"stim\">10</p>", "key_press": -1, "trial_type": "single-stim", "trial_index": 78, "time_elapsed": 525350, "internal_node_id": "0.0-60.0-0.0"}}, {"uniqueid": "MTK0685:31IBVUNM9T6B691IFD6EKVXZ1IVVF5", "current_trial": 79, "dateTime": 1512597175093, "trialdata": {"rt": -1, "stimulus": "<p id=\"stim\">9</p>", "key_press": -1, "trial_type": "single-stim", "trial_index": 79, "time_elapsed": 526352, "internal_node_id": "0.0-60.0-1.0"}}, {"uniqueid": "MTK0685:31IBVUNM9T6B691IFD6EKVXZ1IVVF5", "current_trial": 80, "dateTime": 1512597176095, "trialdata": {"rt": -1, "stimulus": "<p id=\"stim\">8</p>", "key_press": -1, "trial_type": "single-stim", "trial_index": 80, "time_elapsed": 527354, "internal_node_id": "0.0-60.0-2.0"}}, {"uniqueid": "MTK0685:31IBVUNM9T6B691IFD6EKVXZ1IVVF5", "current_trial": 81, "dateTime": 1512597177095, "trialdata": {"rt": -1, "stimulus": "<p id=\"stim\">7</p>", "key_press": -1, "trial_type": "single-stim", "trial_index": 81, "time_elapsed": 528354, "internal_node_id": "0.0-60.0-3.0"}}, {"uniqueid": "MTK0685:31IBVUNM9T6B691IFD6EKVXZ1IVVF5", "current_trial": 82, "dateTime": 1512597178098, "trialdata": {"rt": -1, "stimulus": "<p id=\"stim\">6</p>", "key_press": -1, "trial_type": "single-stim", "trial_index": 82, "time_elapsed": 529357, "internal_node_id": "0.0-60.0-4.0"}}, {"uniqueid": "MTK0685:31IBVUNM9T6B691IFD6EKVXZ1IVVF5", "current_trial": 83, "dateTime": 1512597179099, "trialdata": {"rt": -1, "stimulus": "<p id=\"stim\">5</p>", "key_press": -1, "trial_type": "single-stim", "trial_index": 83, "time_elapsed": 530358, "internal_node_id": "0.0-60.0-5.0"}}, {"uniqueid": "MTK0685:31IBVUNM9T6B691IFD6EKVXZ1IVVF5", "current_trial": 84, "dateTime": 1512597180100, "trialdata": {"rt": -1, "stimulus": "<p id=\"stim\">4</p>", "key_press": -1, "trial_type": "single-stim", "trial_index": 84, "time_elapsed": 531359, "internal_node_id": "0.0-60.0-6.0"}}, {"uniqueid": "MTK0685:31IBVUNM9T6B691IFD6EKVXZ1IVVF5", "current_trial": 85, "dateTime": 1512597181101, "trialdata": {"rt": -1, "stimulus": "<p id=\"stim\">3</p>", "key_press": -1, "trial_type": "single-stim", "trial_index": 85, "time_elapsed": 532360, "internal_node_id": "0.0-60.0-7.0"}}, {"uniqueid": "MTK0685:31IBVUNM9T6B691IFD6EKVXZ1IVVF5", "current_trial": 86, "dateTime": 1512597182102, "trialdata": {"rt": -1, "stimulus": "<p id=\"stim\">2</p>", "key_press": -1, "trial_type": "single-stim", "trial_index": 86, "time_elapsed": 533361, "internal_node_id": "0.0-60.0-8.0"}}, {"uniqueid": "MTK0685:31IBVUNM9T6B691IFD6EKVXZ1IVVF5", "current_trial": 87, "dateTime": 1512597183104, "trialdata": {"rt": -1, "stimulus": "<p id=\"stim\">1</p>", "key_press": -1, "trial_type": "single-stim", "trial_index": 87, "time_elapsed": 534363, "internal_node_id": "0.0-60.0-9.0"}}, {"uniqueid": "MTK0685:31IBVUNM9T6B691IFD6EKVXZ1IVVF5", "current_trial": 88, "dateTime": 1512597184605, "trialdata": {"rt": -1, "stimulus": "<p id=\"stim\">+</p>", "key_press": -1, "type": "FIXATION", "trial_type": "single-stim", "trial_index": 88, "time_elapsed": 535864, "internal_node_id": "0.0-61.0-0.0"}}, {"uniqueid": "MTK0685:31IBVUNM9T6B691IFD6EKVXZ1IVVF5", "current_trial": 89, "dateTime": 1512597187133, "trialdata": {"rt": -1000, "stimulus": "/static/audio/wordpool/HARP.wav", "key_press": -1, "type": "PRES_AUD", "word": "harp", "wordID": 688, "conditions": [24, 1600, "a", 24000], "trial": 2, "serialpos": 0, "trial_type": "single-audio", "trial_index": 89, "time_elapsed": 538392, "internal_node_id": "0.0-62.0"}}, {"uniqueid": "MTK0685:31IBVUNM9T6B691IFD6EKVXZ1IVVF5", "current_trial": 90, "dateTime": 1512597189905, "trialdata": {"rt": -1000, "stimulus": "/static/audio/wordpool/SUITCASE.wav", "key_press": -1, "type": "PRES_AUD", "word": "suitcase", "wordID": 1402, "conditions": [24, 1600, "a", 24000], "trial": 2, "serialpos": 1, "trial_type": "single-audio", "trial_index": 90, "time_elapsed": 541164, "internal_node_id": "0.0-63.0"}}, {"uniqueid": "MTK0685:31IBVUNM9T6B691IFD6EKVXZ1IVVF5", "current_trial": 91, "dateTime": 1512597192528, "trialdata": {"rt": -1000, "stimulus": "/static/audio/wordpool/HANDBAG.wav", "key_press": -1, "type": "PRES_AUD", "word": "handbag", "wordID": 683, "conditions": [24, 1600, "a", 24000], "trial": 2, "serialpos": 2, "trial_type": "single-audio", "trial_index": 91, "time_elapsed": 543787, "internal_node_id": "0.0-64.0"}}, {"uniqueid": "MTK0685:31IBVUNM9T6B691IFD6EKVXZ1IVVF5", "current_trial": 92, "dateTime": 1512597194982, "trialdata": {"rt": -1000, "stimulus": "/static/audio/wordpool/LAMP.wav", "key_press": -1, "type": "PRES_AUD", "word": "lamp", "wordID": 797, "conditions": [24, 1600, "a", 24000], "trial": 2, "serialpos": 3, "trial_type": "single-audio", "trial_index": 92, "time_elapsed": 546241, "internal_node_id": "0.0-65.0"}}, {"uniqueid": "MTK0685:31IBVUNM9T6B691IFD6EKVXZ1IVVF5", "current_trial": 93, "dateTime": 1512597197777, "trialdata": {"rt": -1000, "stimulus": "/static/audio/wordpool/ASIA.wav", "key_press": -1, "type": "PRES_AUD", "word": "asia", "wordID": 45, "conditions": [24, 1600, "a", 24000], "trial": 2, "serialpos": 4, "trial_type": "single-audio", "trial_index": 93, "time_elapsed": 549036, "internal_node_id": "0.0-66.0"}}, {"uniqueid": "MTK0685:31IBVUNM9T6B691IFD6EKVXZ1IVVF5", "current_trial": 94, "dateTime": 1512597200243, "trialdata": {"rt": -1000, "stimulus": "/static/audio/wordpool/SNAKE.wav", "key_press": -1, "type": "PRES_AUD", "word": "snake", "wordID": 1332, "conditions": [24, 1600, "a", 24000], "trial": 2, "serialpos": 5, "trial_type": "single-audio", "trial_index": 94, "time_elapsed": 551502, "internal_node_id": "0.0-67.0"}}, {"uniqueid": "MTK0685:31IBVUNM9T6B691IFD6EKVXZ1IVVF5", "current_trial": 95, "dateTime": 1512597202730, "trialdata": {"rt": -1000, "stimulus": "/static/audio/wordpool/PARROT.wav", "key_press": -1, "type": "PRES_AUD", "word": "parrot", "wordID": 1014, "conditions": [24, 1600, "a", 24000], "trial": 2, "serialpos": 6, "trial_type": "single-audio", "trial_index": 95, "time_elapsed": 553989, "internal_node_id": "0.0-68.0"}}, {"uniqueid": "MTK0685:31IBVUNM9T6B691IFD6EKVXZ1IVVF5", "current_trial": 96, "dateTime": 1512597205457, "trialdata": {"rt": -1000, "stimulus": "/static/audio/wordpool/TEACHER.wav", "key_press": -1, "type": "PRES_AUD", "word": "teacher", "wordID": 1439, "conditions": [24, 1600, "a", 24000], "trial": 2, "serialpos": 7, "trial_type": "single-audio", "trial_index": 96, "time_elapsed": 556716, "internal_node_id": "0.0-69.0"}}, {"uniqueid": "MTK0685:31IBVUNM9T6B691IFD6EKVXZ1IVVF5", "current_trial": 97, "dateTime": 1512597208179, "trialdata": {"rt": -1000, "stimulus": "/static/audio/wordpool/SHOVEL.wav", "key_press": -1, "type": "PRES_AUD", "word": "shovel", "wordID": 1294, "conditions": [24, 1600, "a", 24000], "trial": 2, "serialpos": 8, "trial_type": "single-audio", "trial_index": 97, "time_elapsed": 559438, "internal_node_id": "0.0-70.0"}}, {"uniqueid": "MTK0685:31IBVUNM9T6B691IFD6EKVXZ1IVVF5", "current_trial": 98, "dateTime": 1512597210638, "trialdata": {"rt": -1000, "stimulus": "/static/audio/wordpool/SPARROW.wav", "key_press": -1, "type": "PRES_AUD", "word": "sparrow", "wordID": 1346, "conditions": [24, 1600, "a", 24000], "trial": 2, "serialpos": 9, "trial_type": "single-audio", "trial_index": 98, "time_elapsed": 561897, "internal_node_id": "0.0-71.0"}}, {"uniqueid": "MTK0685:31IBVUNM9T6B691IFD6EKVXZ1IVVF5", "current_trial": 99, "dateTime": 1512597213144, "trialdata": {"rt": -1000, "stimulus": "/static/audio/wordpool/PASTRY.wav", "key_press": -1, "type": "PRES_AUD", "word": "pastry", "wordID": 1021, "conditions": [24, 1600, "a", 24000], "trial": 2, "serialpos": 10, "trial_type": "single-audio", "trial_index": 99, "time_elapsed": 564403, "internal_node_id": "0.0-72.0"}}, {"uniqueid": "MTK0685:31IBVUNM9T6B691IFD6EKVXZ1IVVF5", "current_trial": 100, "dateTime": 1512597215912, "trialdata": {"rt": -1000, "stimulus": "/static/audio/wordpool/JAPAN.wav", "key_press": -1, "type": "PRES_AUD", "word": "japan", "wordID": 748, "conditions": [24, 1600, "a", 24000], "trial": 2, "serialpos": 11, "trial_type": "single-audio", "trial_index": 100, "time_elapsed": 567171, "internal_node_id": "0.0-73.0"}}, {"uniqueid": "MTK0685:31IBVUNM9T6B691IFD6EKVXZ1IVVF5", "current_trial": 101, "dateTime": 1512597218323, "trialdata": {"rt": -1000, "stimulus": "/static/audio/wordpool/BANJO.wav", "key_press": -1, "type": "PRES_AUD", "word": "banjo", "wordID": 81, "conditions": [24, 1600, "a", 24000], "trial": 2, "serialpos": 12, "trial_type": "single-audio", "trial_index": 101, "time_elapsed": 569582, "internal_node_id": "0.0-74.0"}}, {"uniqueid": "MTK0685:31IBVUNM9T6B691IFD6EKVXZ1IVVF5", "current_trial": 102, "dateTime": 1512597220743, "trialdata": {"rt": -1000, "stimulus": "/static/audio/wordpool/SCISSORS.wav", "key_press": -1, "type": "PRES_AUD", "word": "scissors", "wordID": 1249, "conditions": [24, 1600, "a", 24000], "trial": 2, "serialpos": 13, "trial_type": "single-audio", "trial_index": 102, "time_elapsed": 572002, "internal_node_id": "0.0-75.0"}}, {"uniqueid": "MTK0685:31IBVUNM9T6B691IFD6EKVXZ1IVVF5", "current_trial": 103, "dateTime": 1512597223360, "trialdata": {"rt": -1000, "stimulus": "/static/audio/wordpool/CONVICT.wav", "key_press": -1, "type": "PRES_AUD", "word": "convict", "wordID": 370, "conditions": [24, 1600, "a", 24000], "trial": 2, "serialpos": 14, "trial_type": "single-audio", "trial_index": 103, "time_elapsed": 574619, "internal_node_id": "0.0-76.0"}}, {"uniqueid": "MTK0685:31IBVUNM9T6B691IFD6EKVXZ1IVVF5", "current_trial": 104, "dateTime": 1512597225971, "trialdata": {"rt": -1000, "stimulus": "/static/audio/wordpool/FARMER.wav", "key_press": -1, "type": "PRES_AUD", "word": "farmer", "wordID": 552, "conditions": [24, 1600, "a", 24000], "trial": 2, "serialpos": 15, "trial_type": "single-audio", "trial_index": 104, "time_elapsed": 577230, "internal_node_id": "0.0-77.0"}}, {"uniqueid": "MTK0685:31IBVUNM9T6B691IFD6EKVXZ1IVVF5", "current_trial": 105, "dateTime": 1512597228753, "trialdata": {"rt": -1000, "stimulus": "/static/audio/wordpool/SERVER.wav", "key_press": -1, "type": "PRES_AUD", "word": "server", "wordID": 1271, "conditions": [24, 1600, "a", 24000], "trial": 2, "serialpos": 16, "trial_type": "single-audio", "trial_index": 105, "time_elapsed": 580012, "internal_node_id": "0.0-78.0"}}, {"uniqueid": "MTK0685:31IBVUNM9T6B691IFD6EKVXZ1IVVF5", "current_trial": 106, "dateTime": 1512597231430, "trialdata": {"rt": -1000, "stimulus": "/static/audio/wordpool/CARROT.wav", "key_press": -1, "type": "PRES_AUD", "word": "carrot", "wordID": 248, "conditions": [24, 1600, "a", 24000], "trial": 2, "serialpos": 17, "trial_type": "single-audio", "trial_index": 106, "time_elapsed": 582689, "internal_node_id": "0.0-79.0"}}, {"uniqueid": "MTK0685:31IBVUNM9T6B691IFD6EKVXZ1IVVF5", "current_trial": 107, "dateTime": 1512597234112, "trialdata": {"rt": -1000, "stimulus": "/static/audio/wordpool/BLENDER.wav", "key_press": -1, "type": "PRES_AUD", "word": "blender", "wordID": 135, "conditions": [24, 1600, "a", 24000], "trial": 2, "serialpos": 18, "trial_type": "single-audio", "trial_index": 107, "time_elapsed": 585371, "internal_node_id": "0.0-80.0"}}, {"uniqueid": "MTK0685:31IBVUNM9T6B691IFD6EKVXZ1IVVF5", "current_trial": 108, "dateTime": 1512597236637, "trialdata": {"rt": -1000, "stimulus": "/static/audio/wordpool/SKILLET.wav", "key_press": -1, "type": "PRES_AUD", "word": "skillet", "wordID": 1316, "conditions": [24, 1600, "a", 24000], "trial": 2, "serialpos": 19, "trial_type": "single-audio", "trial_index": 108, "time_elapsed": 587896, "internal_node_id": "0.0-81.0"}}, {"uniqueid": "MTK0685:31IBVUNM9T6B691IFD6EKVXZ1IVVF5", "current_trial": 109, "dateTime": 1512597239180, "trialdata": {"rt": -1000, "stimulus": "/static/audio/wordpool/KNIFE.wav", "key_press": -1, "type": "PRES_AUD", "word": "knife", "wordID": 784, "conditions": [24, 1600, "a", 24000], "trial": 2, "serialpos": 20, "trial_type": "single-audio", "trial_index": 109, "time_elapsed": 590439, "internal_node_id": "0.0-82.0"}}, {"uniqueid": "MTK0685:31IBVUNM9T6B691IFD6EKVXZ1IVVF5", "current_trial": 110, "dateTime": 1512597241655, "trialdata": {"rt": -1000, "stimulus": "/static/audio/wordpool/TEMPLE.wav", "key_press": -1, "type": "PRES_AUD", "word": "temple", "wordID": 1447, "conditions": [24, 1600, "a", 24000], "trial": 2, "serialpos": 21, "trial_type": "single-audio", "trial_index": 110, "time_elapsed": 592914, "internal_node_id": "0.0-83.0"}}, {"uniqueid": "MTK0685:31IBVUNM9T6B691IFD6EKVXZ1IVVF5", "current_trial": 111, "dateTime": 1512597244159, "trialdata": {"rt": -1000, "stimulus": "/static/audio/wordpool/DOLPHIN.wav", "key_press": -1, "type": "PRES_AUD", "word": "dolphin", "wordID": 482, "conditions": [24, 1600, "a", 24000], "trial": 2, "serialpos": 22, "trial_type": "single-audio", "trial_index": 111, "time_elapsed": 595418, "internal_node_id": "0.0-84.0"}}, {"uniqueid": "MTK0685:31IBVUNM9T6B691IFD6EKVXZ1IVVF5", "current_trial": 112, "dateTime": 1512597246950, "trialdata": {"rt": -1000, "stimulus": "/static/audio/wordpool/TART.wav", "key_press": -1, "type": "PRES_AUD", "word": "tart", "wordID": 1435, "conditions": [24, 1600, "a", 24000], "trial": 2, "serialpos": 23, "trial_type": "single-audio", "trial_index": 112, "time_elapsed": 598209, "internal_node_id": "0.0-85.0"}}, {"uniqueid": "MTK0685:31IBVUNM9T6B691IFD6EKVXZ1IVVF5", "current_trial": 113, "dateTime": 1512597248318, "trialdata": {"rt": -1, "stimulus": "", "key_press": -1, "type": "PRE_RECALL_DELAY", "trial_type": "single-stim", "trial_index": 113, "time_elapsed": 599577, "internal_node_id": "0.0-86.0-0.0"}}, {"uniqueid": "MTK0685:31IBVUNM9T6B691IFD6EKVXZ1IVVF5", "current_trial": 114, "dateTime": 1512597248819, "trialdata": {"rt": -1000, "stimulus": "/static/audio/400Hz.wav", "key_press": -1, "type": "PRE_RECALL_ALERT", "trial_type": "single-audio", "trial_index": 114, "time_elapsed": 600078, "internal_node_id": "0.0-87.0"}}, {"uniqueid": "MTK0685:31IBVUNM9T6B691IFD6EKVXZ1IVVF5", "current_trial": 115, "dateTime": 1512597308824, "trialdata": {"rt": [14187, 18027, 21883, 24523, 28439, 34764, 38796, 43835, 46571, 51868, 56027], "recwords": ["carrot", "tart", "dolphins", "knife", "b", "blender", "handbag", "sissors", "farmer", "japan", "teacher"], "type": "FREE_RECALL", "conditions": [24, 1600, "a", 24000], "trial": 2, "trial_type": "free-recall", "trial_index": 115, "time_elapsed": 660081, "internal_node_id": "0.0-88.0-0.0"}}, {"uniqueid": "MTK0685:31IBVUNM9T6B691IFD6EKVXZ1IVVF5", "current_trial": 116, "dateTime": 1512597313505, "trialdata": {"rt": 2679, "key_press": 13, "type": "INSTRUCTIONS", "trial_type": "text", "trial_index": 116, "time_elapsed": 664764, "internal_node_id": "0.0-89.0"}}, {"uniqueid": "MTK0685:31IBVUNM9T6B691IFD6EKVXZ1IVVF5", "current_trial": 117, "dateTime": 1512597339507, "trialdata": {"rt": [6461, 10286, 12526, 18910, 21758], "responses": ["24", "15", "13", "22", "11"], "num1": [7, 5, 2, 9, 3, 2], "num2": [7, 6, 3, 8, 1, 9], "num3": [9, 4, 8, 5, 7, 3], "type": "DISTRACTOR", "conditions": [12, 1600, "a", 24000], "trial": 3, "trial_type": "math-distractor", "trial_index": 117, "time_elapsed": 690766, "internal_node_id": "0.0-90.0"}}, {"uniqueid": "MTK0685:31IBVUNM9T6B691IFD6EKVXZ1IVVF5", "current_trial": 118, "dateTime": 1512597342509, "trialdata": {"rt": -1, "stimulus": "<p id=\"stim\">10</p>", "key_press": -1, "trial_type": "single-stim", "trial_index": 118, "time_elapsed": 693768, "internal_node_id": "0.0-91.0-0.0"}}, {"uniqueid": "MTK0685:31IBVUNM9T6B691IFD6EKVXZ1IVVF5", "current_trial": 119, "dateTime": 1512597343512, "trialdata": {"rt": -1, "stimulus": "<p id=\"stim\">9</p>", "key_press": -1, "trial_type": "single-stim", "trial_index": 119, "time_elapsed": 694770, "internal_node_id": "0.0-91.0-1.0"}}, {"uniqueid": "MTK0685:31IBVUNM9T6B691IFD6EKVXZ1IVVF5", "current_trial": 120, "dateTime": 1512597344513, "trialdata": {"rt": -1, "stimulus": "<p id=\"stim\">8</p>", "key_press": -1, "trial_type": "single-stim", "trial_index": 120, "time_elapsed": 695772, "internal_node_id": "0.0-91.0-2.0"}}, {"uniqueid": "MTK0685:31IBVUNM9T6B691IFD6EKVXZ1IVVF5", "current_trial": 121, "dateTime": 1512597345515, "trialdata": {"rt": -1, "stimulus": "<p id=\"stim\">7</p>", "key_press": -1, "trial_type": "single-stim", "trial_index": 121, "time_elapsed": 696774, "internal_node_id": "0.0-91.0-3.0"}}, {"uniqueid": "MTK0685:31IBVUNM9T6B691IFD6EKVXZ1IVVF5", "current_trial": 122, "dateTime": 1512597346517, "trialdata": {"rt": -1, "stimulus": "<p id=\"stim\">6</p>", "key_press": -1, "trial_type": "single-stim", "trial_index": 122, "time_elapsed": 697776, "internal_node_id": "0.0-91.0-4.0"}}, {"uniqueid": "MTK0685:31IBVUNM9T6B691IFD6EKVXZ1IVVF5", "current_trial": 123, "dateTime": 1512597347518, "trialdata": {"rt": -1, "stimulus": "<p id=\"stim\">5</p>", "key_press": -1, "trial_type": "single-stim", "trial_index": 123, "time_elapsed": 698777, "internal_node_id": "0.0-91.0-5.0"}}, {"uniqueid": "MTK0685:31IBVUNM9T6B691IFD6EKVXZ1IVVF5", "current_trial": 124, "dateTime": 1512597348519, "trialdata": {"rt": -1, "stimulus": "<p id=\"stim\">4</p>", "key_press": -1, "trial_type": "single-stim", "trial_index": 124, "time_elapsed": 699778, "internal_node_id": "0.0-91.0-6.0"}}, {"uniqueid": "MTK0685:31IBVUNM9T6B691IFD6EKVXZ1IVVF5", "current_trial": 125, "dateTime": 1512597349521, "trialdata": {"rt": -1, "stimulus": "<p id=\"stim\">3</p>", "key_press": -1, "trial_type": "single-stim", "trial_index": 125, "time_elapsed": 700780, "internal_node_id": "0.0-91.0-7.0"}}, {"uniqueid": "MTK0685:31IBVUNM9T6B691IFD6EKVXZ1IVVF5", "current_trial": 126, "dateTime": 1512597350522, "trialdata": {"rt": -1, "stimulus": "<p id=\"stim\">2</p>", "key_press": -1, "trial_type": "single-stim", "trial_index": 126, "time_elapsed": 701781, "internal_node_id": "0.0-91.0-8.0"}}, {"uniqueid": "MTK0685:31IBVUNM9T6B691IFD6EKVXZ1IVVF5", "current_trial": 127, "dateTime": 1512597351525, "trialdata": {"rt": -1, "stimulus": "<p id=\"stim\">1</p>", "key_press": -1, "trial_type": "single-stim", "trial_index": 127, "time_elapsed": 702784, "internal_node_id": "0.0-91.0-9.0"}}, {"uniqueid": "MTK0685:31IBVUNM9T6B691IFD6EKVXZ1IVVF5", "current_trial": 128, "dateTime": 1512597353026, "trialdata": {"rt": -1, "stimulus": "<p id=\"stim\">+</p>", "key_press": -1, "type": "FIXATION", "trial_type": "single-stim", "trial_index": 128, "time_elapsed": 704285, "internal_node_id": "0.0-92.0-0.0"}}, {"uniqueid": "MTK0685:31IBVUNM9T6B691IFD6EKVXZ1IVVF5", "current_trial": 129, "dateTime": 1512597355603, "trialdata": {"rt": -1000, "stimulus": "/static/audio/wordpool/ROOSTER.wav", "key_press": -1, "type": "PRES_AUD", "word": "rooster", "wordID": 1208, "conditions": [12, 1600, "a", 24000], "trial": 3, "serialpos": 0, "trial_type": "single-audio", "trial_index": 129, "time_elapsed": 706862, "internal_node_id": "0.0-93.0"}}, {"uniqueid": "MTK0685:31IBVUNM9T6B691IFD6EKVXZ1IVVF5", "current_trial": 130, "dateTime": 1512597358033, "trialdata": {"rt": -1000, "stimulus": "/static/audio/wordpool/PARSLEY.wav", "key_press": -1, "type": "PRES_AUD", "word": "parsley", "wordID": 1015, "conditions": [12, 1600, "a", 24000], "trial": 3, "serialpos": 1, "trial_type": "single-audio", "trial_index": 130, "time_elapsed": 709292, "internal_node_id": "0.0-94.0"}}, {"uniqueid": "MTK0685:31IBVUNM9T6B691IFD6EKVXZ1IVVF5", "current_trial": 131, "dateTime": 1512597360516, "trialdata": {"rt": -1000, "stimulus": "/static/audio/wordpool/MOTOR.wav", "key_press": -1, "type": "PRES_AUD", "word": "motor", "wordID": 921, "conditions": [12, 1600, "a", 24000], "trial": 3, "serialpos": 2, "trial_type": "single-audio", "trial_index": 131, "time_elapsed": 711775, "internal_node_id": "0.0-95.0"}}, {"uniqueid": "MTK0685:31IBVUNM9T6B691IFD6EKVXZ1IVVF5", "current_trial": 132, "dateTime": 1512597362952, "trialdata": {"rt": -1000, "stimulus": "/static/audio/wordpool/SWORD.wav", "key_press": -1, "type": "PRES_AUD", "word": "sword", "wordID": 1422, "conditions": [12, 1600, "a", 24000], "trial": 3, "serialpos": 3, "trial_type": "single-audio", "trial_index": 132, "time_elapsed": 714211, "internal_node_id": "0.0-96.0"}}, {"uniqueid": "MTK0685:31IBVUNM9T6B691IFD6EKVXZ1IVVF5", "current_trial": 133, "dateTime": 1512597365705, "trialdata": {"rt": -1000, "stimulus": "/static/audio/wordpool/LEADER.wav", "key_press": -1, "type": "PRES_AUD", "word": "leader", "wordID": 806, "conditions": [12, 1600, "a", 24000], "trial": 3, "serialpos": 4, "trial_type": "single-audio", "trial_index": 133, "time_elapsed": 716964, "internal_node_id": "0.0-97.0"}}, {"uniqueid": "MTK0685:31IBVUNM9T6B691IFD6EKVXZ1IVVF5", "current_trial": 134, "dateTime": 1512597368207, "trialdata": {"rt": -1000, "stimulus": "/static/audio/wordpool/CHEMIST.wav", "key_press": -1, "type": "PRES_AUD", "word": "chemist", "wordID": 291, "conditions": [12, 1600, "a", 24000], "trial": 3, "serialpos": 5, "trial_type": "single-audio", "trial_index": 134, "time_elapsed": 719466, "internal_node_id": "0.0-98.0"}}, {"uniqueid": "MTK0685:31IBVUNM9T6B691IFD6EKVXZ1IVVF5", "current_trial": 135, "dateTime": 1512597370834, "trialdata": {"rt": -1000, "stimulus": "/static/audio/wordpool/PEPPER.wav", "key_press": -1, "type": "PRES_AUD", "word": "pepper", "wordID": 1046, "conditions": [12, 1600, "a", 24000], "trial": 3, "serialpos": 6, "trial_type": "single-audio", "trial_index": 135, "time_elapsed": 722093, "internal_node_id": "0.0-99.0"}}, {"uniqueid": "MTK0685:31IBVUNM9T6B691IFD6EKVXZ1IVVF5", "current_trial": 136, "dateTime": 1512597373281, "trialdata": {"rt": -1000, "stimulus": "/static/audio/wordpool/PANTHER.wav", "key_press": -1, "type": "PRES_AUD", "word": "panther", "wordID": 1008, "conditions": [12, 1600, "a", 24000], "trial": 3, "serialpos": 7, "trial_type": "single-audio", "trial_index": 136, "time_elapsed": 724540, "internal_node_id": "0.0-100.0"}}, {"uniqueid": "MTK0685:31IBVUNM9T6B691IFD6EKVXZ1IVVF5", "current_trial": 137, "dateTime": 1512597375698, "trialdata": {"rt": -1000, "stimulus": "/static/audio/wordpool/RUG.wav", "key_press": -1, "type": "PRES_AUD", "word": "rug", "wordID": 1214, "conditions": [12, 1600, "a", 24000], "trial": 3, "serialpos": 8, "trial_type": "single-audio", "trial_index": 137, "time_elapsed": 726957, "internal_node_id": "0.0-101.0"}}, {"uniqueid": "MTK0685:31IBVUNM9T6B691IFD6EKVXZ1IVVF5", "current_trial": 138, "dateTime": 1512597378333, "trialdata": {"rt": -1000, "stimulus": "/static/audio/wordpool/TWIG.wav", "key_press": -1, "type": "PRES_AUD", "word": "twig", "wordID": 1526, "conditions": [12, 1600, "a", 24000], "trial": 3, "serialpos": 9, "trial_type": "single-audio", "trial_index": 138, "time_elapsed": 729592, "internal_node_id": "0.0-102.0"}}, {"uniqueid": "MTK0685:31IBVUNM9T6B691IFD6EKVXZ1IVVF5", "current_trial": 139, "dateTime": 1512597380938, "trialdata": {"rt": -1000, "stimulus": "/static/audio/wordpool/VALVE.wav", "key_press": -1, "type": "PRES_AUD", "word": "valve", "wordID": 1545, "conditions": [12, 1600, "a", 24000], "trial": 3, "serialpos": 10, "trial_type": "single-audio", "trial_index": 139, "time_elapsed": 732197, "internal_node_id": "0.0-103.0"}}, {"uniqueid": "MTK0685:31IBVUNM9T6B691IFD6EKVXZ1IVVF5", "current_trial": 140, "dateTime": 1512597383657, "trialdata": {"rt": -1000, "stimulus": "/static/audio/wordpool/PISTON.wav", "key_press": -1, "type": "PRES_AUD", "word": "piston", "wordID": 1075, "conditions": [12, 1600, "a", 24000], "trial": 3, "serialpos": 11, "trial_type": "single-audio", "trial_index": 140, "time_elapsed": 734916, "internal_node_id": "0.0-104.0"}}, {"uniqueid": "MTK0685:31IBVUNM9T6B691IFD6EKVXZ1IVVF5", "current_trial": 141, "dateTime": 1512597384961, "trialdata": {"rt": -1, "stimulus": "", "key_press": -1, "type": "PRE_RECALL_DELAY", "trial_type": "single-stim", "trial_index": 141, "time_elapsed": 736220, "internal_node_id": "0.0-105.0-0.0"}}, {"uniqueid": "MTK0685:31IBVUNM9T6B691IFD6EKVXZ1IVVF5", "current_trial": 142, "dateTime": 1512597385462, "trialdata": {"rt": -1000, "stimulus": "/static/audio/400Hz.wav", "key_press": -1, "type": "PRE_RECALL_ALERT", "trial_type": "single-audio", "trial_index": 142, "time_elapsed": 736721, "internal_node_id": "0.0-106.0"}}, {"uniqueid": "MTK0685:31IBVUNM9T6B691IFD6EKVXZ1IVVF5", "current_trial": 143, "dateTime": 1512597445466, "trialdata": {"rt": [5096, 8792, 12153, 15512, 19320, 24792, 36392, 54232], "recwords": ["twig", "rug", "pepper", "meter", "sword", "rug", "piston", "motor"], "type": "FREE_RECALL", "conditions": [12, 1600, "a", 24000], "trial": 3, "trial_type": "free-recall", "trial_index": 143, "time_elapsed": 796723, "internal_node_id": "0.0-107.0-0.0"}}, {"uniqueid": "MTK0685:31IBVUNM9T6B691IFD6EKVXZ1IVVF5", "current_trial": 144, "dateTime": 1512597449263, "trialdata": {"rt": 1797, "key_press": 13, "type": "INSTRUCTIONS", "trial_type": "text", "trial_index": 144, "time_elapsed": 800522, "internal_node_id": "0.0-108.0"}}, {"uniqueid": "MTK0685:31IBVUNM9T6B691IFD6EKVXZ1IVVF5", "current_trial": 145, "dateTime": 1512597463274, "trialdata": {"rt": [5913, 9738], "responses": ["18", "13"], "num1": [3, 6, 7], "num2": [8, 3, 4], "num3": [7, 4, 1], "type": "DISTRACTOR", "conditions": [12, 800, "v", 12000], "trial": 4, "trial_type": "math-distractor", "trial_index": 145, "time_elapsed": 814533, "internal_node_id": "0.0-109.0"}}, {"uniqueid": "MTK0685:31IBVUNM9T6B691IFD6EKVXZ1IVVF5", "current_trial": 146, "dateTime": 1512597466279, "trialdata": {"rt": -1, "stimulus": "<p id=\"stim\">10</p>", "key_press": -1, "trial_type": "single-stim", "trial_index": 146, "time_elapsed": 817538, "internal_node_id": "0.0-110.0-0.0"}}, {"uniqueid": "MTK0685:31IBVUNM9T6B691IFD6EKVXZ1IVVF5", "current_trial": 147, "dateTime": 1512597467281, "trialdata": {"rt": -1, "stimulus": "<p id=\"stim\">9</p>", "key_press": -1, "trial_type": "single-stim", "trial_index": 147, "time_elapsed": 818540, "internal_node_id": "0.0-110.0-1.0"}}, {"uniqueid": "MTK0685:31IBVUNM9T6B691IFD6EKVXZ1IVVF5", "current_trial": 148, "dateTime": 1512597468282, "trialdata": {"rt": -1, "stimulus": "<p id=\"stim\">8</p>", "key_press": -1, "trial_type": "single-stim", "trial_index": 148, "time_elapsed": 819541, "internal_node_id": "0.0-110.0-2.0"}}, {"uniqueid": "MTK0685:31IBVUNM9T6B691IFD6EKVXZ1IVVF5", "current_trial": 149, "dateTime": 1512597469283, "trialdata": {"rt": -1, "stimulus": "<p id=\"stim\">7</p>", "key_press": -1, "trial_type": "single-stim", "trial_index": 149, "time_elapsed": 820542, "internal_node_id": "0.0-110.0-3.0"}}, {"uniqueid": "MTK0685:31IBVUNM9T6B691IFD6EKVXZ1IVVF5", "current_trial": 150, "dateTime": 1512597470285, "trialdata": {"rt": -1, "stimulus": "<p id=\"stim\">6</p>", "key_press": -1, "trial_type": "single-stim", "trial_index": 150, "time_elapsed": 821544, "internal_node_id": "0.0-110.0-4.0"}}, {"uniqueid": "MTK0685:31IBVUNM9T6B691IFD6EKVXZ1IVVF5", "current_trial": 151, "dateTime": 1512597471286, "trialdata": {"rt": -1, "stimulus": "<p id=\"stim\">5</p>", "key_press": -1, "trial_type": "single-stim", "trial_index": 151, "time_elapsed": 822545, "internal_node_id": "0.0-110.0-5.0"}}, {"uniqueid": "MTK0685:31IBVUNM9T6B691IFD6EKVXZ1IVVF5", "current_trial": 152, "dateTime": 1512597472288, "trialdata": {"rt": -1, "stimulus": "<p id=\"stim\">4</p>", "key_press": -1, "trial_type": "single-stim", "trial_index": 152, "time_elapsed": 823547, "internal_node_id": "0.0-110.0-6.0"}}, {"uniqueid": "MTK0685:31IBVUNM9T6B691IFD6EKVXZ1IVVF5", "current_trial": 153, "dateTime": 1512597473289, "trialdata": {"rt": -1, "stimulus": "<p id=\"stim\">3</p>", "key_press": -1, "trial_type": "single-stim", "trial_index": 153, "time_elapsed": 824548, "internal_node_id": "0.0-110.0-7.0"}}, {"uniqueid": "MTK0685:31IBVUNM9T6B691IFD6EKVXZ1IVVF5", "current_trial": 154, "dateTime": 1512597474293, "trialdata": {"rt": -1, "stimulus": "<p id=\"stim\">2</p>", "key_press": -1, "trial_type": "single-stim", "trial_index": 154, "time_elapsed": 825552, "internal_node_id": "0.0-110.0-8.0"}}, {"uniqueid": "MTK0685:31IBVUNM9T6B691IFD6EKVXZ1IVVF5", "current_trial": 155, "dateTime": 1512597475294, "trialdata": {"rt": -1, "stimulus": "<p id=\"stim\">1</p>", "key_press": -1, "trial_type": "single-stim", "trial_index": 155, "time_elapsed": 826553, "internal_node_id": "0.0-110.0-9.0"}}, {"uniqueid": "MTK0685:31IBVUNM9T6B691IFD6EKVXZ1IVVF5", "current_trial": 156, "dateTime": 1512597476795, "trialdata": {"rt": -1, "stimulus": "<p id=\"stim\">+</p>", "key_press": -1, "type": "FIXATION", "trial_type": "single-stim", "trial_index": 156, "time_elapsed": 828054, "internal_node_id": "0.0-111.0-0.0"}}, {"uniqueid": "MTK0685:31IBVUNM9T6B691IFD6EKVXZ1IVVF5", "current_trial": 157, "dateTime": 1512597477597, "trialdata": {"rt": -1, "stimulus": "<p id=\"stim\">SILK</p>", "key_press": -1, "type": "PRES_VIS", "word": "silk", "wordID": 1306, "conditions": [12, 800, "v", 12000], "trial": 4, "serialpos": 0, "trial_type": "single-stim", "trial_index": 157, "time_elapsed": 828856, "internal_node_id": "0.0-112.0"}}, {"uniqueid": "MTK0685:31IBVUNM9T6B691IFD6EKVXZ1IVVF5", "current_trial": 158, "dateTime": 1512597479489, "trialdata": {"rt": -1, "stimulus": "<p id=\"stim\">THREAD</p>", "key_press": -1, "type": "PRES_VIS", "word": "thread", "wordID": 1459, "conditions": [12, 800, "v", 12000], "trial": 4, "serialpos": 1, "trial_type": "single-stim", "trial_index": 158, "time_elapsed": 830748, "internal_node_id": "0.0-113.0"}}, {"uniqueid": "MTK0685:31IBVUNM9T6B691IFD6EKVXZ1IVVF5", "current_trial": 159, "dateTime": 1512597481169, "trialdata": {"rt": -1, "stimulus": "<p id=\"stim\">NOMAD</p>", "key_press": -1, "type": "PRES_VIS", "word": "nomad", "wordID": 954, "conditions": [12, 800, "v", 12000], "trial": 4, "serialpos": 2, "trial_type": "single-stim", "trial_index": 159, "time_elapsed": 832428, "internal_node_id": "0.0-114.0"}}, {"uniqueid": "MTK0685:31IBVUNM9T6B691IFD6EKVXZ1IVVF5", "current_trial": 160, "dateTime": 1512597483002, "trialdata": {"rt": -1, "stimulus": "<p id=\"stim\">MONSTER</p>", "key_press": -1, "type": "PRES_VIS", "word": "monster", "wordID": 911, "conditions": [12, 800, "v", 12000], "trial": 4, "serialpos": 3, "trial_type": "single-stim", "trial_index": 160, "time_elapsed": 834261, "internal_node_id": "0.0-115.0"}}, {"uniqueid": "MTK0685:31IBVUNM9T6B691IFD6EKVXZ1IVVF5", "current_trial": 161, "dateTime": 1512597484719, "trialdata": {"rt": -1, "stimulus": "<p id=\"stim\">BEAST</p>", "key_press": -1, "type": "PRES_VIS", "word": "beast", "wordID": 107, "conditions": [12, 800, "v", 12000], "trial": 4, "serialpos": 4, "trial_type": "single-stim", "trial_index": 161, "time_elapsed": 835978, "internal_node_id": "0.0-116.0"}}, {"uniqueid": "MTK0685:31IBVUNM9T6B691IFD6EKVXZ1IVVF5", "current_trial": 162, "dateTime": 1512597486409, "trialdata": {"rt": -1, "stimulus": "<p id=\"stim\">INFANT</p>", "key_press": -1, "type": "PRES_VIS", "word": "infant", "wordID": 736, "conditions": [12, 800, "v", 12000], "trial": 4, "serialpos": 5, "trial_type": "single-stim", "trial_index": 162, "time_elapsed": 837668, "internal_node_id": "0.0-117.0"}}, {"uniqueid": "MTK0685:31IBVUNM9T6B691IFD6EKVXZ1IVVF5", "current_trial": 163, "dateTime": 1512597488168, "trialdata": {"rt": -1, "stimulus": "<p id=\"stim\">MAILBOX</p>", "key_press": -1, "type": "PRES_VIS", "word": "mailbox", "wordID": 856, "conditions": [12, 800, "v", 12000], "trial": 4, "serialpos": 6, "trial_type": "single-stim", "trial_index": 163, "time_elapsed": 839427, "internal_node_id": "0.0-118.0"}}, {"uniqueid": "MTK0685:31IBVUNM9T6B691IFD6EKVXZ1IVVF5", "current_trial": 164, "dateTime": 1512597490058, "trialdata": {"rt": -1, "stimulus": "<p id=\"stim\">CRAB</p>", "key_press": -1, "type": "PRES_VIS", "word": "crab", "wordID": 396, "conditions": [12, 800, "v", 12000], "trial": 4, "serialpos": 7, "trial_type": "single-stim", "trial_index": 164, "time_elapsed": 841317, "internal_node_id": "0.0-119.0"}}, {"uniqueid": "MTK0685:31IBVUNM9T6B691IFD6EKVXZ1IVVF5", "current_trial": 165, "dateTime": 1512597491724, "trialdata": {"rt": -1, "stimulus": "<p id=\"stim\">YACHT</p>", "key_press": -1, "type": "PRES_VIS", "word": "yacht", "wordID": 1628, "conditions": [12, 800, "v", 12000], "trial": 4, "serialpos": 8, "trial_type": "single-stim", "trial_index": 165, "time_elapsed": 842983, "internal_node_id": "0.0-120.0"}}, {"uniqueid": "MTK0685:31IBVUNM9T6B691IFD6EKVXZ1IVVF5", "current_trial": 166, "dateTime": 1512597493561, "trialdata": {"rt": -1, "stimulus": "<p id=\"stim\">MACHINE</p>", "key_press": -1, "type": "PRES_VIS", "word": "machine", "wordID": 851, "conditions": [12, 800, "v", 12000], "trial": 4, "serialpos": 9, "trial_type": "single-stim", "trial_index": 166, "time_elapsed": 844820, "internal_node_id": "0.0-121.0"}}, {"uniqueid": "MTK0685:31IBVUNM9T6B691IFD6EKVXZ1IVVF5", "current_trial": 167, "dateTime": 1512597495361, "trialdata": {"rt": -1, "stimulus": "<p id=\"stim\">COBRA</p>", "key_press": -1, "type": "PRES_VIS", "word": "cobra", "wordID": 335, "conditions": [12, 800, "v", 12000], "trial": 4, "serialpos": 10, "trial_type": "single-stim", "trial_index": 167, "time_elapsed": 846620, "internal_node_id": "0.0-122.0"}}, {"uniqueid": "MTK0685:31IBVUNM9T6B691IFD6EKVXZ1IVVF5", "current_trial": 168, "dateTime": 1512597497001, "trialdata": {"rt": -1, "stimulus": "<p id=\"stim\">CRIB</p>", "key_press": -1, "type": "PRES_VIS", "word": "crib", "wordID": 406, "conditions": [12, 800, "v", 12000], "trial": 4, "serialpos": 11, "trial_type": "single-stim", "trial_index": 168, "time_elapsed": 848260, "internal_node_id": "0.0-123.0"}}, {"uniqueid": "MTK0685:31IBVUNM9T6B691IFD6EKVXZ1IVVF5", "current_trial": 169, "dateTime": 1512597499207, "trialdata": {"rt": -1, "stimulus": "", "key_press": -1, "type": "PRE_RECALL_DELAY", "trial_type": "single-stim", "trial_index": 169, "time_elapsed": 850466, "internal_node_id": "0.0-124.0-0.0"}}, {"uniqueid": "MTK0685:31IBVUNM9T6B691IFD6EKVXZ1IVVF5", "current_trial": 170, "dateTime": 1512597499709, "trialdata": {"rt": -1000, "stimulus": "/static/audio/400Hz.wav", "key_press": -1, "type": "PRE_RECALL_ALERT", "trial_type": "single-audio", "trial_index": 170, "time_elapsed": 850968, "internal_node_id": "0.0-125.0"}}, {"uniqueid": "MTK0685:31IBVUNM9T6B691IFD6EKVXZ1IVVF5", "current_trial": 171, "dateTime": 1512597559714, "trialdata": {"rt": [3712, 8800, 11424, 16336, 19136, 22880, 26784, 28800], "recwords": ["crib", "mailbox", "silk", "crab", "machine", "infant", "monster", "beast"], "type": "FREE_RECALL", "conditions": [12, 800, "v", 12000], "trial": 4, "trial_type": "free-recall", "trial_index": 171, "time_elapsed": 910972, "internal_node_id": "0.0-126.0-0.0"}}, {"uniqueid": "MTK0685:31IBVUNM9T6B691IFD6EKVXZ1IVVF5", "current_trial": 172, "dateTime": 1512597564863, "trialdata": {"rt": 3147, "key_press": 13, "type": "INSTRUCTIONS", "trial_type": "text", "trial_index": 172, "time_elapsed": 916122, "internal_node_id": "0.0-127.0"}}, {"uniqueid": "MTK0685:31IBVUNM9T6B691IFD6EKVXZ1IVVF5", "current_trial": 173, "dateTime": 1512597578865, "trialdata": {"rt": [6494, 8510, 10639], "responses": ["16", "14", "12"], "num1": [7, 8, 9, 9], "num2": [4, 2, 1, 6], "num3": [5, 4, 3, 9], "type": "DISTRACTOR", "conditions": [12, 800, "a", 12000], "trial": 5, "trial_type": "math-distractor", "trial_index": 173, "time_elapsed": 930124, "internal_node_id": "0.0-128.0"}}, {"uniqueid": "MTK0685:31IBVUNM9T6B691IFD6EKVXZ1IVVF5", "current_trial": 174, "dateTime": 1512597581867, "trialdata": {"rt": -1, "stimulus": "<p id=\"stim\">10</p>", "key_press": -1, "trial_type": "single-stim", "trial_index": 174, "time_elapsed": 933126, "internal_node_id": "0.0-129.0-0.0"}}, {"uniqueid": "MTK0685:31IBVUNM9T6B691IFD6EKVXZ1IVVF5", "current_trial": 175, "dateTime": 1512597582872, "trialdata": {"rt": -1, "stimulus": "<p id=\"stim\">9</p>", "key_press": -1, "trial_type": "single-stim", "trial_index": 175, "time_elapsed": 934131, "internal_node_id": "0.0-129.0-1.0"}}, {"uniqueid": "MTK0685:31IBVUNM9T6B691IFD6EKVXZ1IVVF5", "current_trial": 176, "dateTime": 1512597583874, "trialdata": {"rt": -1, "stimulus": "<p id=\"stim\">8</p>", "key_press": -1, "trial_type": "single-stim", "trial_index": 176, "time_elapsed": 935133, "internal_node_id": "0.0-129.0-2.0"}}, {"uniqueid": "MTK0685:31IBVUNM9T6B691IFD6EKVXZ1IVVF5", "current_trial": 177, "dateTime": 1512597584880, "trialdata": {"rt": -1, "stimulus": "<p id=\"stim\">7</p>", "key_press": -1, "trial_type": "single-stim", "trial_index": 177, "time_elapsed": 936139, "internal_node_id": "0.0-129.0-3.0"}}, {"uniqueid": "MTK0685:31IBVUNM9T6B691IFD6EKVXZ1IVVF5", "current_trial": 178, "dateTime": 1512597585882, "trialdata": {"rt": -1, "stimulus": "<p id=\"stim\">6</p>", "key_press": -1, "trial_type": "single-stim", "trial_index": 178, "time_elapsed": 937141, "internal_node_id": "0.0-129.0-4.0"}}, {"uniqueid": "MTK0685:31IBVUNM9T6B691IFD6EKVXZ1IVVF5", "current_trial": 179, "dateTime": 1512597586883, "trialdata": {"rt": -1, "stimulus": "<p id=\"stim\">5</p>", "key_press": -1, "trial_type": "single-stim", "trial_index": 179, "time_elapsed": 938142, "internal_node_id": "0.0-129.0-5.0"}}, {"uniqueid": "MTK0685:31IBVUNM9T6B691IFD6EKVXZ1IVVF5", "current_trial": 180, "dateTime": 1512597587885, "trialdata": {"rt": -1, "stimulus": "<p id=\"stim\">4</p>", "key_press": -1, "trial_type": "single-stim", "trial_index": 180, "time_elapsed": 939144, "internal_node_id": "0.0-129.0-6.0"}}, {"uniqueid": "MTK0685:31IBVUNM9T6B691IFD6EKVXZ1IVVF5", "current_trial": 181, "dateTime": 1512597588886, "trialdata": {"rt": -1, "stimulus": "<p id=\"stim\">3</p>", "key_press": -1, "trial_type": "single-stim", "trial_index": 181, "time_elapsed": 940145, "internal_node_id": "0.0-129.0-7.0"}}, {"uniqueid": "MTK0685:31IBVUNM9T6B691IFD6EKVXZ1IVVF5", "current_trial": 182, "dateTime": 1512597589887, "trialdata": {"rt": -1, "stimulus": "<p id=\"stim\">2</p>", "key_press": -1, "trial_type": "single-stim", "trial_index": 182, "time_elapsed": 941146, "internal_node_id": "0.0-129.0-8.0"}}, {"uniqueid": "MTK0685:31IBVUNM9T6B691IFD6EKVXZ1IVVF5", "current_trial": 183, "dateTime": 1512597590888, "trialdata": {"rt": -1, "stimulus": "<p id=\"stim\">1</p>", "key_press": -1, "trial_type": "single-stim", "trial_index": 183, "time_elapsed": 942147, "internal_node_id": "0.0-129.0-9.0"}}, {"uniqueid": "MTK0685:31IBVUNM9T6B691IFD6EKVXZ1IVVF5", "current_trial": 184, "dateTime": 1512597592390, "trialdata": {"rt": -1, "stimulus": "<p id=\"stim\">+</p>", "key_press": -1, "type": "FIXATION", "trial_type": "single-stim", "trial_index": 184, "time_elapsed": 943649, "internal_node_id": "0.0-130.0-0.0"}}, {"uniqueid": "MTK0685:31IBVUNM9T6B691IFD6EKVXZ1IVVF5", "current_trial": 185, "dateTime": 1512597594389, "trialdata": {"rt": -1000, "stimulus": "/static/audio/wordpool/DRESS.wav", "key_press": -1, "type": "PRES_AUD", "word": "dress", "wordID": 494, "conditions": [12, 800, "a", 12000], "trial": 5, "serialpos": 0, "trial_type": "single-audio", "trial_index": 185, "time_elapsed": 945648, "internal_node_id": "0.0-131.0"}}, {"uniqueid": "MTK0685:31IBVUNM9T6B691IFD6EKVXZ1IVVF5", "current_trial": 186, "dateTime": 1512597596187, "trialdata": {"rt": -1000, "stimulus": "/static/audio/wordpool/FLAG.wav", "key_press": -1, "type": "PRES_AUD", "word": "flag", "wordID": 572, "conditions": [12, 800, "a", 12000], "trial": 5, "serialpos": 1, "trial_type": "single-audio", "trial_index": 186, "time_elapsed": 947446, "internal_node_id": "0.0-132.0"}}, {"uniqueid": "MTK0685:31IBVUNM9T6B691IFD6EKVXZ1IVVF5", "current_trial": 187, "dateTime": 1512597597876, "trialdata": {"rt": -1000, "stimulus": "/static/audio/wordpool/COMPASS.wav", "key_press": -1, "type": "PRES_AUD", "word": "compass", "wordID": 357, "conditions": [12, 800, "a", 12000], "trial": 5, "serialpos": 2, "trial_type": "single-audio", "trial_index": 187, "time_elapsed": 949135, "internal_node_id": "0.0-133.0"}}, {"uniqueid": "MTK0685:31IBVUNM9T6B691IFD6EKVXZ1IVVF5", "current_trial": 188, "dateTime": 1512597599573, "trialdata": {"rt": -1000, "stimulus": "/static/audio/wordpool/JOURNAL.wav", "key_press": -1, "type": "PRES_AUD", "word": "journal", "wordID": 759, "conditions": [12, 800, "a", 12000], "trial": 5, "serialpos": 3, "trial_type": "single-audio", "trial_index": 188, "time_elapsed": 950832, "internal_node_id": "0.0-134.0"}}, {"uniqueid": "MTK0685:31IBVUNM9T6B691IFD6EKVXZ1IVVF5", "current_trial": 189, "dateTime": 1512597601568, "trialdata": {"rt": -1000, "stimulus": "/static/audio/wordpool/HELMET.wav", "key_press": -1, "type": "PRES_AUD", "word": "helmet", "wordID": 701, "conditions": [12, 800, "a", 12000], "trial": 5, "serialpos": 4, "trial_type": "single-audio", "trial_index": 189, "time_elapsed": 952827, "internal_node_id": "0.0-135.0"}}, {"uniqueid": "MTK0685:31IBVUNM9T6B691IFD6EKVXZ1IVVF5", "current_trial": 190, "dateTime": 1512597603265, "trialdata": {"rt": -1000, "stimulus": "/static/audio/wordpool/PIANO.wav", "key_press": -1, "type": "PRES_AUD", "word": "piano", "wordID": 1056, "conditions": [12, 800, "a", 12000], "trial": 5, "serialpos": 5, "trial_type": "single-audio", "trial_index": 190, "time_elapsed": 954524, "internal_node_id": "0.0-136.0"}}, {"uniqueid": "MTK0685:31IBVUNM9T6B691IFD6EKVXZ1IVVF5", "current_trial": 191, "dateTime": 1512597605132, "trialdata": {"rt": -1000, "stimulus": "/static/audio/wordpool/BABY.wav", "key_press": -1, "type": "PRES_AUD", "word": "baby", "wordID": 63, "conditions": [12, 800, "a", 12000], "trial": 5, "serialpos": 6, "trial_type": "single-audio", "trial_index": 191, "time_elapsed": 956391, "internal_node_id": "0.0-137.0"}}, {"uniqueid": "MTK0685:31IBVUNM9T6B691IFD6EKVXZ1IVVF5", "current_trial": 192, "dateTime": 1512597607120, "trialdata": {"rt": -1000, "stimulus": "/static/audio/wordpool/STOVE.wav", "key_press": -1, "type": "PRES_AUD", "word": "stove", "wordID": 1387, "conditions": [12, 800, "a", 12000], "trial": 5, "serialpos": 7, "trial_type": "single-audio", "trial_index": 192, "time_elapsed": 958379, "internal_node_id": "0.0-138.0"}}, {"uniqueid": "MTK0685:31IBVUNM9T6B691IFD6EKVXZ1IVVF5", "current_trial": 193, "dateTime": 1512597608821, "trialdata": {"rt": -1000, "stimulus": "/static/audio/wordpool/COOK.wav", "key_press": -1, "type": "PRES_AUD", "word": "cook", "wordID": 371, "conditions": [12, 800, "a", 12000], "trial": 5, "serialpos": 8, "trial_type": "single-audio", "trial_index": 193, "time_elapsed": 960080, "internal_node_id": "0.0-139.0"}}, {"uniqueid": "MTK0685:31IBVUNM9T6B691IFD6EKVXZ1IVVF5", "current_trial": 194, "dateTime": 1512597610440, "trialdata": {"rt": -1000, "stimulus": "/static/audio/wordpool/FLUTE.wav", "key_press": -1, "type": "PRES_AUD", "word": "flute", "wordID": 584, "conditions": [12, 800, "a", 12000], "trial": 5, "serialpos": 9, "trial_type": "single-audio", "trial_index": 194, "time_elapsed": 961699, "internal_node_id": "0.0-140.0"}}, {"uniqueid": "MTK0685:31IBVUNM9T6B691IFD6EKVXZ1IVVF5", "current_trial": 195, "dateTime": 1512597612081, "trialdata": {"rt": -1000, "stimulus": "/static/audio/wordpool/THIEF.wav", "key_press": -1, "type": "PRES_AUD", "word": "thief", "wordID": 1455, "conditions": [12, 800, "a", 12000], "trial": 5, "serialpos": 10, "trial_type": "single-audio", "trial_index": 195, "time_elapsed": 963340, "internal_node_id": "0.0-141.0"}}, {"uniqueid": "MTK0685:31IBVUNM9T6B691IFD6EKVXZ1IVVF5", "current_trial": 196, "dateTime": 1512597614005, "trialdata": {"rt": -1000, "stimulus": "/static/audio/wordpool/TURTLE.wav", "key_press": -1, "type": "PRES_AUD", "word": "turtle", "wordID": 1521, "conditions": [12, 800, "a", 12000], "trial": 5, "serialpos": 11, "trial_type": "single-audio", "trial_index": 196, "time_elapsed": 965264, "internal_node_id": "0.0-142.0"}}, {"uniqueid": "MTK0685:31IBVUNM9T6B691IFD6EKVXZ1IVVF5", "current_trial": 197, "dateTime": 1512597615272, "trialdata": {"rt": -1, "stimulus": "", "key_press": -1, "type": "PRE_RECALL_DELAY", "trial_type": "single-stim", "trial_index": 197, "time_elapsed": 966531, "internal_node_id": "0.0-143.0-0.0"}}, {"uniqueid": "MTK0685:31IBVUNM9T6B691IFD6EKVXZ1IVVF5", "current_trial": 198, "dateTime": 1512597615774, "trialdata": {"rt": -1000, "stimulus": "/static/audio/400Hz.wav", "key_press": -1, "type": "PRE_RECALL_ALERT", "trial_type": "single-audio", "trial_index": 198, "time_elapsed": 967033, "internal_node_id": "0.0-144.0"}}, {"uniqueid": "MTK0685:31IBVUNM9T6B691IFD6EKVXZ1IVVF5", "current_trial": 199, "dateTime": 1512597675779, "trialdata": {"rt": [5117, 11262, 14157, 15822, 19629, 22126, 26511, 30623], "recwords": ["turtle", "theif", "cook", "stove", "journal", "dress", "baby", "flute"], "type": "FREE_RECALL", "conditions": [12, 800, "a", 12000], "trial": 5, "trial_type": "free-recall", "trial_index": 199, "time_elapsed": 1027036, "internal_node_id": "0.0-145.0-0.0"}}, {"uniqueid": "MTK0685:31IBVUNM9T6B691IFD6EKVXZ1IVVF5", "current_trial": 200, "dateTime": 1512597683678, "trialdata": {"rt": 5898, "key_press": 13, "type": "INSTRUCTIONS", "trial_type": "text", "trial_index": 200, "time_elapsed": 1034937, "internal_node_id": "0.0-146.0"}}, {"uniqueid": "MTK0685:31IBVUNM9T6B691IFD6EKVXZ1IVVF5", "current_trial": 201, "dateTime": 1512597697683, "trialdata": {"rt": [2972, 4892, 7467, 11403], "responses": ["12", "14", "11", "25"], "num1": [3, 6, 3, 7, 4], "num2": [5, 6, 2, 9, 3], "num3": [4, 2, 6, 9, 7], "type": "DISTRACTOR", "conditions": [24, 800, "v", 12000], "trial": 6, "trial_type": "math-distractor", "trial_index": 201, "time_elapsed": 1048942, "internal_node_id": "0.0-147.0"}}, {"uniqueid": "MTK0685:31IBVUNM9T6B691IFD6EKVXZ1IVVF5", "current_trial": 202, "dateTime": 1512597700684, "trialdata": {"rt": -1, "stimulus": "<p id=\"stim\">10</p>", "key_press": -1, "trial_type": "single-stim", "trial_index": 202, "time_elapsed": 1051943, "internal_node_id": "0.0-148.0-0.0"}}, {"uniqueid": "MTK0685:31IBVUNM9T6B691IFD6EKVXZ1IVVF5", "current_trial": 203, "dateTime": 1512597701685, "trialdata": {"rt": -1, "stimulus": "<p id=\"stim\">9</p>", "key_press": -1, "trial_type": "single-stim", "trial_index": 203, "time_elapsed": 1052944, "internal_node_id": "0.0-148.0-1.0"}}, {"uniqueid": "MTK0685:31IBVUNM9T6B691IFD6EKVXZ1IVVF5", "current_trial": 204, "dateTime": 1512597702687, "trialdata": {"rt": -1, "stimulus": "<p id=\"stim\">8</p>", "key_press": -1, "trial_type": "single-stim", "trial_index": 204, "time_elapsed": 1053946, "internal_node_id": "0.0-148.0-2.0"}}, {"uniqueid": "MTK0685:31IBVUNM9T6B691IFD6EKVXZ1IVVF5", "current_trial": 205, "dateTime": 1512597703691, "trialdata": {"rt": -1, "stimulus": "<p id=\"stim\">7</p>", "key_press": -1, "trial_type": "single-stim", "trial_index": 205, "time_elapsed": 1054950, "internal_node_id": "0.0-148.0-3.0"}}, {"uniqueid": "MTK0685:31IBVUNM9T6B691IFD6EKVXZ1IVVF5", "current_trial": 206, "dateTime": 1512597704692, "trialdata": {"rt": -1, "stimulus": "<p id=\"stim\">6</p>", "key_press": -1, "trial_type": "single-stim", "trial_index": 206, "time_elapsed": 1055951, "internal_node_id": "0.0-148.0-4.0"}}, {"uniqueid": "MTK0685:31IBVUNM9T6B691IFD6EKVXZ1IVVF5", "current_trial": 207, "dateTime": 1512597705693, "trialdata": {"rt": -1, "stimulus": "<p id=\"stim\">5</p>", "key_press": -1, "trial_type": "single-stim", "trial_index": 207, "time_elapsed": 1056952, "internal_node_id": "0.0-148.0-5.0"}}, {"uniqueid": "MTK0685:31IBVUNM9T6B691IFD6EKVXZ1IVVF5", "current_trial": 208, "dateTime": 1512597706694, "trialdata": {"rt": -1, "stimulus": "<p id=\"stim\">4</p>", "key_press": -1, "trial_type": "single-stim", "trial_index": 208, "time_elapsed": 1057953, "internal_node_id": "0.0-148.0-6.0"}}, {"uniqueid": "MTK0685:31IBVUNM9T6B691IFD6EKVXZ1IVVF5", "current_trial": 209, "dateTime": 1512597707696, "trialdata": {"rt": -1, "stimulus": "<p id=\"stim\">3</p>", "key_press": -1, "trial_type": "single-stim", "trial_index": 209, "time_elapsed": 1058955, "internal_node_id": "0.0-148.0-7.0"}}, {"uniqueid": "MTK0685:31IBVUNM9T6B691IFD6EKVXZ1IVVF5", "current_trial": 210, "dateTime": 1512597708697, "trialdata": {"rt": -1, "stimulus": "<p id=\"stim\">2</p>", "key_press": -1, "trial_type": "single-stim", "trial_index": 210, "time_elapsed": 1059956, "internal_node_id": "0.0-148.0-8.0"}}, {"uniqueid": "MTK0685:31IBVUNM9T6B691IFD6EKVXZ1IVVF5", "current_trial": 211, "dateTime": 1512597709698, "trialdata": {"rt": -1, "stimulus": "<p id=\"stim\">1</p>", "key_press": -1, "trial_type": "single-stim", "trial_index": 211, "time_elapsed": 1060957, "internal_node_id": "0.0-148.0-9.0"}}, {"uniqueid": "MTK0685:31IBVUNM9T6B691IFD6EKVXZ1IVVF5", "current_trial": 212, "dateTime": 1512597711199, "trialdata": {"rt": -1, "stimulus": "<p id=\"stim\">+</p>", "key_press": -1, "type": "FIXATION", "trial_type": "single-stim", "trial_index": 212, "time_elapsed": 1062458, "internal_node_id": "0.0-149.0-0.0"}}, {"uniqueid": "MTK0685:31IBVUNM9T6B691IFD6EKVXZ1IVVF5", "current_trial": 213, "dateTime": 1512597712001, "trialdata": {"rt": -1, "stimulus": "<p id=\"stim\">SNACK</p>", "key_press": -1, "type": "PRES_VIS", "word": "snack", "wordID": 1330, "conditions": [24, 800, "v", 12000], "trial": 6, "serialpos": 0, "trial_type": "single-stim", "trial_index": 213, "time_elapsed": 1063260, "internal_node_id": "0.0-150.0"}}, {"uniqueid": "MTK0685:31IBVUNM9T6B691IFD6EKVXZ1IVVF5", "current_trial": 214, "dateTime": 1512597713827, "trialdata": {"rt": -1, "stimulus": "<p id=\"stim\">BOUQUET</p>", "key_press": -1, "type": "PRES_VIS", "word": "bouquet", "wordID": 156, "conditions": [24, 800, "v", 12000], "trial": 6, "serialpos": 1, "trial_type": "single-stim", "trial_index": 214, "time_elapsed": 1065086, "internal_node_id": "0.0-151.0"}}, {"uniqueid": "MTK0685:31IBVUNM9T6B691IFD6EKVXZ1IVVF5", "current_trial": 215, "dateTime": 1512597715820, "trialdata": {"rt": -1, "stimulus": "<p id=\"stim\">VALLEY</p>", "key_press": -1, "type": "PRES_VIS", "word": "valley", "wordID": 1544, "conditions": [24, 800, "v", 12000], "trial": 6, "serialpos": 2, "trial_type": "single-stim", "trial_index": 215, "time_elapsed": 1067079, "internal_node_id": "0.0-152.0"}}, {"uniqueid": "MTK0685:31IBVUNM9T6B691IFD6EKVXZ1IVVF5", "current_trial": 216, "dateTime": 1512597717634, "trialdata": {"rt": -1, "stimulus": "<p id=\"stim\">CANYON</p>", "key_press": -1, "type": "PRES_VIS", "word": "canyon", "wordID": 234, "conditions": [24, 800, "v", 12000], "trial": 6, "serialpos": 3, "trial_type": "single-stim", "trial_index": 216, "time_elapsed": 1068893, "internal_node_id": "0.0-153.0"}}, {"uniqueid": "MTK0685:31IBVUNM9T6B691IFD6EKVXZ1IVVF5", "current_trial": 217, "dateTime": 1512597719407, "trialdata": {"rt": -1, "stimulus": "<p id=\"stim\">BATHTUB</p>", "key_press": -1, "type": "PRES_VIS", "word": "bathtub", "wordID": 99, "conditions": [24, 800, "v", 12000], "trial": 6, "serialpos": 4, "trial_type": "single-stim", "trial_index": 217, "time_elapsed": 1070666, "internal_node_id": "0.0-154.0"}}, {"uniqueid": "MTK0685:31IBVUNM9T6B691IFD6EKVXZ1IVVF5", "current_trial": 218, "dateTime": 1512597721387, "trialdata": {"rt": -1, "stimulus": "<p id=\"stim\">PARTNER</p>", "key_press": -1, "type": "PRES_VIS", "word": "partner", "wordID": 1016, "conditions": [24, 800, "v", 12000], "trial": 6, "serialpos": 5, "trial_type": "single-stim", "trial_index": 218, "time_elapsed": 1072646, "internal_node_id": "0.0-155.0"}}, {"uniqueid": "MTK0685:31IBVUNM9T6B691IFD6EKVXZ1IVVF5", "current_trial": 219, "dateTime": 1512597723139, "trialdata": {"rt": -1, "stimulus": "<p id=\"stim\">BULLET</p>", "key_press": -1, "type": "PRES_VIS", "word": "bullet", "wordID": 193, "conditions": [24, 800, "v", 12000], "trial": 6, "serialpos": 6, "trial_type": "single-stim", "trial_index": 219, "time_elapsed": 1074398, "internal_node_id": "0.0-156.0"}}, {"uniqueid": "MTK0685:31IBVUNM9T6B691IFD6EKVXZ1IVVF5", "current_trial": 220, "dateTime": 1512597725010, "trialdata": {"rt": -1, "stimulus": "<p id=\"stim\">POPCORN</p>", "key_press": -1, "type": "PRES_VIS", "word": "popcorn", "wordID": 1103, "conditions": [24, 800, "v", 12000], "trial": 6, "serialpos": 7, "trial_type": "single-stim", "trial_index": 220, "time_elapsed": 1076269, "internal_node_id": "0.0-157.0"}}, {"uniqueid": "MTK0685:31IBVUNM9T6B691IFD6EKVXZ1IVVF5", "current_trial": 221, "dateTime": 1512597726651, "trialdata": {"rt": -1, "stimulus": "<p id=\"stim\">QUEEN</p>", "key_press": -1, "type": "PRES_VIS", "word": "queen", "wordID": 1148, "conditions": [24, 800, "v", 12000], "trial": 6, "serialpos": 8, "trial_type": "single-stim", "trial_index": 221, "time_elapsed": 1077910, "internal_node_id": "0.0-158.0"}}, {"uniqueid": "MTK0685:31IBVUNM9T6B691IFD6EKVXZ1IVVF5", "current_trial": 222, "dateTime": 1512597728583, "trialdata": {"rt": -1, "stimulus": "<p id=\"stim\">PIZZA</p>", "key_press": -1, "type": "PRES_VIS", "word": "pizza", "wordID": 1078, "conditions": [24, 800, "v", 12000], "trial": 6, "serialpos": 9, "trial_type": "single-stim", "trial_index": 222, "time_elapsed": 1079842, "internal_node_id": "0.0-159.0"}}, {"uniqueid": "MTK0685:31IBVUNM9T6B691IFD6EKVXZ1IVVF5", "current_trial": 223, "dateTime": 1512597730339, "trialdata": {"rt": -1, "stimulus": "<p id=\"stim\">FLOWER</p>", "key_press": -1, "type": "PRES_VIS", "word": "flower", "wordID": 583, "conditions": [24, 800, "v", 12000], "trial": 6, "serialpos": 10, "trial_type": "single-stim", "trial_index": 223, "time_elapsed": 1081598, "internal_node_id": "0.0-160.0"}}, {"uniqueid": "MTK0685:31IBVUNM9T6B691IFD6EKVXZ1IVVF5", "current_trial": 224, "dateTime": 1512597732091, "trialdata": {"rt": -1, "stimulus": "<p id=\"stim\">SPOUSE</p>", "key_press": -1, "type": "PRES_VIS", "word": "spouse", "wordID": 1357, "conditions": [24, 800, "v", 12000], "trial": 6, "serialpos": 11, "trial_type": "single-stim", "trial_index": 224, "time_elapsed": 1083350, "internal_node_id": "0.0-161.0"}}, {"uniqueid": "MTK0685:31IBVUNM9T6B691IFD6EKVXZ1IVVF5", "current_trial": 225, "dateTime": 1512597733796, "trialdata": {"rt": -1, "stimulus": "<p id=\"stim\">COUSIN</p>", "key_press": -1, "type": "PRES_VIS", "word": "cousin", "wordID": 391, "conditions": [24, 800, "v", 12000], "trial": 6, "serialpos": 12, "trial_type": "single-stim", "trial_index": 225, "time_elapsed": 1085055, "internal_node_id": "0.0-162.0"}}, {"uniqueid": "MTK0685:31IBVUNM9T6B691IFD6EKVXZ1IVVF5", "current_trial": 226, "dateTime": 1512597735436, "trialdata": {"rt": -1, "stimulus": "<p id=\"stim\">SEAL</p>", "key_press": -1, "type": "PRES_VIS", "word": "seal", "wordID": 1261, "conditions": [24, 800, "v", 12000], "trial": 6, "serialpos": 13, "trial_type": "single-stim", "trial_index": 226, "time_elapsed": 1086695, "internal_node_id": "0.0-163.0"}}, {"uniqueid": "MTK0685:31IBVUNM9T6B691IFD6EKVXZ1IVVF5", "current_trial": 227, "dateTime": 1512597737328, "trialdata": {"rt": -1, "stimulus": "<p id=\"stim\">BRANCH</p>", "key_press": -1, "type": "PRES_VIS", "word": "branch", "wordID": 167, "conditions": [24, 800, "v", 12000], "trial": 6, "serialpos": 14, "trial_type": "single-stim", "trial_index": 227, "time_elapsed": 1088587, "internal_node_id": "0.0-164.0"}}, {"uniqueid": "MTK0685:31IBVUNM9T6B691IFD6EKVXZ1IVVF5", "current_trial": 228, "dateTime": 1512597739027, "trialdata": {"rt": -1, "stimulus": "<p id=\"stim\">UNCLE</p>", "key_press": -1, "type": "PRES_VIS", "word": "uncle", "wordID": 1535, "conditions": [24, 800, "v", 12000], "trial": 6, "serialpos": 15, "trial_type": "single-stim", "trial_index": 228, "time_elapsed": 1090286, "internal_node_id": "0.0-165.0"}}, {"uniqueid": "MTK0685:31IBVUNM9T6B691IFD6EKVXZ1IVVF5", "current_trial": 229, "dateTime": 1512597740892, "trialdata": {"rt": -1, "stimulus": "<p id=\"stim\">PISTOL</p>", "key_press": -1, "type": "PRES_VIS", "word": "pistol", "wordID": 1074, "conditions": [24, 800, "v", 12000], "trial": 6, "serialpos": 16, "trial_type": "single-stim", "trial_index": 229, "time_elapsed": 1092151, "internal_node_id": "0.0-166.0"}}, {"uniqueid": "MTK0685:31IBVUNM9T6B691IFD6EKVXZ1IVVF5", "current_trial": 230, "dateTime": 1512597742837, "trialdata": {"rt": -1, "stimulus": "<p id=\"stim\">BANK</p>", "key_press": -1, "type": "PRES_VIS", "word": "bank", "wordID": 82, "conditions": [24, 800, "v", 12000], "trial": 6, "serialpos": 17, "trial_type": "single-stim", "trial_index": 230, "time_elapsed": 1094096, "internal_node_id": "0.0-167.0"}}, {"uniqueid": "MTK0685:31IBVUNM9T6B691IFD6EKVXZ1IVVF5", "current_trial": 231, "dateTime": 1512597744810, "trialdata": {"rt": -1, "stimulus": "<p id=\"stim\">PLASTER</p>", "key_press": -1, "type": "PRES_VIS", "word": "plaster", "wordID": 1084, "conditions": [24, 800, "v", 12000], "trial": 6, "serialpos": 18, "trial_type": "single-stim", "trial_index": 231, "time_elapsed": 1096069, "internal_node_id": "0.0-168.0"}}, {"uniqueid": "MTK0685:31IBVUNM9T6B691IFD6EKVXZ1IVVF5", "current_trial": 232, "dateTime": 1512597746797, "trialdata": {"rt": -1, "stimulus": "<p id=\"stim\">CITRUS</p>", "key_press": -1, "type": "PRES_VIS", "word": "citrus", "wordID": 312, "conditions": [24, 800, "v", 12000], "trial": 6, "serialpos": 19, "trial_type": "single-stim", "trial_index": 232, "time_elapsed": 1098056, "internal_node_id": "0.0-169.0"}}, {"uniqueid": "MTK0685:31IBVUNM9T6B691IFD6EKVXZ1IVVF5", "current_trial": 233, "dateTime": 1512597748763, "trialdata": {"rt": -1, "stimulus": "<p id=\"stim\">PECAN</p>", "key_press": -1, "type": "PRES_VIS", "word": "pecan", "wordID": 1035, "conditions": [24, 800, "v", 12000], "trial": 6, "serialpos": 20, "trial_type": "single-stim", "trial_index": 233, "time_elapsed": 1100022, "internal_node_id": "0.0-170.0"}}, {"uniqueid": "MTK0685:31IBVUNM9T6B691IFD6EKVXZ1IVVF5", "current_trial": 234, "dateTime": 1512597750758, "trialdata": {"rt": -1, "stimulus": "<p id=\"stim\">BACKBONE</p>", "key_press": -1, "type": "PRES_VIS", "word": "backbone", "wordID": 65, "conditions": [24, 800, "v", 12000], "trial": 6, "serialpos": 21, "trial_type": "single-stim", "trial_index": 234, "time_elapsed": 1102016, "internal_node_id": "0.0-171.0"}}, {"uniqueid": "MTK0685:31IBVUNM9T6B691IFD6EKVXZ1IVVF5", "current_trial": 235, "dateTime": 1512597752739, "trialdata": {"rt": -1, "stimulus": "<p id=\"stim\">LAVA</p>", "key_press": -1, "type": "PRES_VIS", "word": "lava", "wordID": 803, "conditions": [24, 800, "v", 12000], "trial": 6, "serialpos": 22, "trial_type": "single-stim", "trial_index": 235, "time_elapsed": 1103998, "internal_node_id": "0.0-172.0"}}, {"uniqueid": "MTK0685:31IBVUNM9T6B691IFD6EKVXZ1IVVF5", "current_trial": 236, "dateTime": 1512597754509, "trialdata": {"rt": -1, "stimulus": "<p id=\"stim\">HOOK</p>", "key_press": -1, "type": "PRES_VIS", "word": "hook", "wordID": 714, "conditions": [24, 800, "v", 12000], "trial": 6, "serialpos": 23, "trial_type": "single-stim", "trial_index": 236, "time_elapsed": 1105767, "internal_node_id": "0.0-173.0"}}, {"uniqueid": "MTK0685:31IBVUNM9T6B691IFD6EKVXZ1IVVF5", "current_trial": 237, "dateTime": 1512597756932, "trialdata": {"rt": -1, "stimulus": "", "key_press": -1, "type": "PRE_RECALL_DELAY", "trial_type": "single-stim", "trial_index": 237, "time_elapsed": 1108191, "internal_node_id": "0.0-174.0-0.0"}}, {"uniqueid": "MTK0685:31IBVUNM9T6B691IFD6EKVXZ1IVVF5", "current_trial": 238, "dateTime": 1512597757433, "trialdata": {"rt": -1000, "stimulus": "/static/audio/400Hz.wav", "key_press": -1, "type": "PRE_RECALL_ALERT", "trial_type": "single-audio", "trial_index": 238, "time_elapsed": 1108692, "internal_node_id": "0.0-175.0"}}, {"uniqueid": "MTK0685:31IBVUNM9T6B691IFD6EKVXZ1IVVF5", "current_trial": 239, "dateTime": 1512597817438, "trialdata": {"rt": [5650, 10145, 12257, 16033, 17954, 21201, 24001, 26625, 28753, 31697, 33505, 36241, 41298, 43798, 48641, 52801], "recwords": ["hook", "backbone", "lava", "uncle", "cousin", "spouce", "partner", "valley", "snack", "seal", "f", "flower", "bul", "bul", "bullet", "valley"], "type": "FREE_RECALL", "conditions": [24, 800, "v", 12000], "trial": 6, "trial_type": "free-recall", "trial_index": 239, "time_elapsed": 1168694, "internal_node_id": "0.0-176.0-0.0"}}, {"uniqueid": "MTK0685:31IBVUNM9T6B691IFD6EKVXZ1IVVF5", "current_trial": 240, "dateTime": 1512597826140, "trialdata": {"rt": 6700, "key_press": 13, "type": "INSTRUCTIONS", "trial_type": "text", "trial_index": 240, "time_elapsed": 1177399, "internal_node_id": "0.0-177.0"}}, {"uniqueid": "MTK0685:31IBVUNM9T6B691IFD6EKVXZ1IVVF5", "current_trial": 241, "dateTime": 1512597840143, "trialdata": {"rt": [4990, 6686], "responses": ["13", "7"], "num1": [2, 3, 6], "num2": [6, 1, 5], "num3": [5, 3, 8], "type": "DISTRACTOR", "conditions": [24, 800, "a", 12000], "trial": 7, "trial_type": "math-distractor", "trial_index": 241, "time_elapsed": 1191402, "internal_node_id": "0.0-178.0"}}, {"uniqueid": "MTK0685:31IBVUNM9T6B691IFD6EKVXZ1IVVF5", "current_trial": 242, "dateTime": 1512597843145, "trialdata": {"rt": -1, "stimulus": "<p id=\"stim\">10</p>", "key_press": -1, "trial_type": "single-stim", "trial_index": 242, "time_elapsed": 1194404, "internal_node_id": "0.0-179.0-0.0"}}, {"uniqueid": "MTK0685:31IBVUNM9T6B691IFD6EKVXZ1IVVF5", "current_trial": 243, "dateTime": 1512597844147, "trialdata": {"rt": -1, "stimulus": "<p id=\"stim\">9</p>", "key_press": -1, "trial_type": "single-stim", "trial_index": 243, "time_elapsed": 1195406, "internal_node_id": "0.0-179.0-1.0"}}, {"uniqueid": "MTK0685:31IBVUNM9T6B691IFD6EKVXZ1IVVF5", "current_trial": 244, "dateTime": 1512597845149, "trialdata": {"rt": -1, "stimulus": "<p id=\"stim\">8</p>", "key_press": -1, "trial_type": "single-stim", "trial_index": 244, "time_elapsed": 1196408, "internal_node_id": "0.0-179.0-2.0"}}, {"uniqueid": "MTK0685:31IBVUNM9T6B691IFD6EKVXZ1IVVF5", "current_trial": 245, "dateTime": 1512597846150, "trialdata": {"rt": -1, "stimulus": "<p id=\"stim\">7</p>", "key_press": -1, "trial_type": "single-stim", "trial_index": 245, "time_elapsed": 1197409, "internal_node_id": "0.0-179.0-3.0"}}, {"uniqueid": "MTK0685:31IBVUNM9T6B691IFD6EKVXZ1IVVF5", "current_trial": 246, "dateTime": 1512597847151, "trialdata": {"rt": -1, "stimulus": "<p id=\"stim\">6</p>", "key_press": -1, "trial_type": "single-stim", "trial_index": 246, "time_elapsed": 1198410, "internal_node_id": "0.0-179.0-4.0"}}, {"uniqueid": "MTK0685:31IBVUNM9T6B691IFD6EKVXZ1IVVF5", "current_trial": 247, "dateTime": 1512597848152, "trialdata": {"rt": -1, "stimulus": "<p id=\"stim\">5</p>", "key_press": -1, "trial_type": "single-stim", "trial_index": 247, "time_elapsed": 1199411, "internal_node_id": "0.0-179.0-5.0"}}, {"uniqueid": "MTK0685:31IBVUNM9T6B691IFD6EKVXZ1IVVF5", "current_trial": 248, "dateTime": 1512597849153, "trialdata": {"rt": -1, "stimulus": "<p id=\"stim\">4</p>", "key_press": -1, "trial_type": "single-stim", "trial_index": 248, "time_elapsed": 1200412, "internal_node_id": "0.0-179.0-6.0"}}, {"uniqueid": "MTK0685:31IBVUNM9T6B691IFD6EKVXZ1IVVF5", "current_trial": 249, "dateTime": 1512597850154, "trialdata": {"rt": -1, "stimulus": "<p id=\"stim\">3</p>", "key_press": -1, "trial_type": "single-stim", "trial_index": 249, "time_elapsed": 1201413, "internal_node_id": "0.0-179.0-7.0"}}, {"uniqueid": "MTK0685:31IBVUNM9T6B691IFD6EKVXZ1IVVF5", "current_trial": 250, "dateTime": 1512597851156, "trialdata": {"rt": -1, "stimulus": "<p id=\"stim\">2</p>", "key_press": -1, "trial_type": "single-stim", "trial_index": 250, "time_elapsed": 1202415, "internal_node_id": "0.0-179.0-8.0"}}, {"uniqueid": "MTK0685:31IBVUNM9T6B691IFD6EKVXZ1IVVF5", "current_trial": 251, "dateTime": 1512597852158, "trialdata": {"rt": -1, "stimulus": "<p id=\"stim\">1</p>", "key_press": -1, "trial_type": "single-stim", "trial_index": 251, "time_elapsed": 1203417, "internal_node_id": "0.0-179.0-9.0"}}, {"uniqueid": "MTK0685:31IBVUNM9T6B691IFD6EKVXZ1IVVF5", "current_trial": 252, "dateTime": 1512597853659, "trialdata": {"rt": -1, "stimulus": "<p id=\"stim\">+</p>", "key_press": -1, "type": "FIXATION", "trial_type": "single-stim", "trial_index": 252, "time_elapsed": 1204918, "internal_node_id": "0.0-180.0-0.0"}}, {"uniqueid": "MTK0685:31IBVUNM9T6B691IFD6EKVXZ1IVVF5", "current_trial": 253, "dateTime": 1512597855607, "trialdata": {"rt": -1000, "stimulus": "/static/audio/wordpool/STAMP.wav", "key_press": -1, "type": "PRES_AUD", "word": "stamp", "wordID": 1369, "conditions": [24, 800, "a", 12000], "trial": 7, "serialpos": 0, "trial_type": "single-audio", "trial_index": 253, "time_elapsed": 1206866, "internal_node_id": "0.0-181.0"}}, {"uniqueid": "MTK0685:31IBVUNM9T6B691IFD6EKVXZ1IVVF5", "current_trial": 254, "dateTime": 1512597857565, "trialdata": {"rt": -1000, "stimulus": "/static/audio/wordpool/FRIEND.wav", "key_press": -1, "type": "PRES_AUD", "word": "friend", "wordID": 605, "conditions": [24, 800, "a", 12000], "trial": 7, "serialpos": 1, "trial_type": "single-audio", "trial_index": 254, "time_elapsed": 1208824, "internal_node_id": "0.0-182.0"}}, {"uniqueid": "MTK0685:31IBVUNM9T6B691IFD6EKVXZ1IVVF5", "current_trial": 255, "dateTime": 1512597859530, "trialdata": {"rt": -1000, "stimulus": "/static/audio/wordpool/CONTRACT.wav", "key_press": -1, "type": "PRES_AUD", "word": "contract", "wordID": 367, "conditions": [24, 800, "a", 12000], "trial": 7, "serialpos": 2, "trial_type": "single-audio", "trial_index": 255, "time_elapsed": 1210789, "internal_node_id": "0.0-183.0"}}, {"uniqueid": "MTK0685:31IBVUNM9T6B691IFD6EKVXZ1IVVF5", "current_trial": 256, "dateTime": 1512597861297, "trialdata": {"rt": -1000, "stimulus": "/static/audio/wordpool/AGENT.wav", "key_press": -1, "type": "PRES_AUD", "word": "agent", "wordID": 9, "conditions": [24, 800, "a", 12000], "trial": 7, "serialpos": 3, "trial_type": "single-audio", "trial_index": 256, "time_elapsed": 1212556, "internal_node_id": "0.0-184.0"}}, {"uniqueid": "MTK0685:31IBVUNM9T6B691IFD6EKVXZ1IVVF5", "current_trial": 257, "dateTime": 1512597862993, "trialdata": {"rt": -1000, "stimulus": "/static/audio/wordpool/AWARD.wav", "key_press": -1, "type": "PRES_AUD", "word": "award", "wordID": 62, "conditions": [24, 800, "a", 12000], "trial": 7, "serialpos": 4, "trial_type": "single-audio", "trial_index": 257, "time_elapsed": 1214252, "internal_node_id": "0.0-185.0"}}, {"uniqueid": "MTK0685:31IBVUNM9T6B691IFD6EKVXZ1IVVF5", "current_trial": 258, "dateTime": 1512597864807, "trialdata": {"rt": -1000, "stimulus": "/static/audio/wordpool/LACE.wav", "key_press": -1, "type": "PRES_AUD", "word": "lace", "wordID": 791, "conditions": [24, 800, "a", 12000], "trial": 7, "serialpos": 5, "trial_type": "single-audio", "trial_index": 258, "time_elapsed": 1216066, "internal_node_id": "0.0-186.0"}}, {"uniqueid": "MTK0685:31IBVUNM9T6B691IFD6EKVXZ1IVVF5", "current_trial": 259, "dateTime": 1512597866568, "trialdata": {"rt": -1000, "stimulus": "/static/audio/wordpool/OMELET.wav", "key_press": -1, "type": "PRES_AUD", "word": "omelet", "wordID": 975, "conditions": [24, 800, "a", 12000], "trial": 7, "serialpos": 6, "trial_type": "single-audio", "trial_index": 259, "time_elapsed": 1217827, "internal_node_id": "0.0-187.0"}}, {"uniqueid": "MTK0685:31IBVUNM9T6B691IFD6EKVXZ1IVVF5", "current_trial": 260, "dateTime": 1512597868541, "trialdata": {"rt": -1000, "stimulus": "/static/audio/wordpool/CHIPMUNK.wav", "key_press": -1, "type": "PRES_AUD", "word": "chipmunk", "wordID": 303, "conditions": [24, 800, "a", 12000], "trial": 7, "serialpos": 7, "trial_type": "single-audio", "trial_index": 260, "time_elapsed": 1219800, "internal_node_id": "0.0-188.0"}}, {"uniqueid": "MTK0685:31IBVUNM9T6B691IFD6EKVXZ1IVVF5", "current_trial": 261, "dateTime": 1512597870160, "trialdata": {"rt": -1000, "stimulus": "/static/audio/wordpool/BISON.wav", "key_press": -1, "type": "PRES_AUD", "word": "bison", "wordID": 130, "conditions": [24, 800, "a", 12000], "trial": 7, "serialpos": 8, "trial_type": "single-audio", "trial_index": 261, "time_elapsed": 1221419, "internal_node_id": "0.0-189.0"}}, {"uniqueid": "MTK0685:31IBVUNM9T6B691IFD6EKVXZ1IVVF5", "current_trial": 262, "dateTime": 1512597872027, "trialdata": {"rt": -1000, "stimulus": "/static/audio/wordpool/MUFFIN.wav", "key_press": -1, "type": "PRES_AUD", "word": "muffin", "wordID": 928, "conditions": [24, 800, "a", 12000], "trial": 7, "serialpos": 9, "trial_type": "single-audio", "trial_index": 262, "time_elapsed": 1223286, "internal_node_id": "0.0-190.0"}}, {"uniqueid": "MTK0685:31IBVUNM9T6B691IFD6EKVXZ1IVVF5", "current_trial": 263, "dateTime": 1512597874022, "trialdata": {"rt": -1000, "stimulus": "/static/audio/wordpool/SHORTCAKE.wav", "key_press": -1, "type": "PRES_AUD", "word": "shortcake", "wordID": 1291, "conditions": [24, 800, "a", 12000], "trial": 7, "serialpos": 10, "trial_type": "single-audio", "trial_index": 263, "time_elapsed": 1225281, "internal_node_id": "0.0-191.0"}}, {"uniqueid": "MTK0685:31IBVUNM9T6B691IFD6EKVXZ1IVVF5", "current_trial": 264, "dateTime": 1512597875794, "trialdata": {"rt": -1000, "stimulus": "/static/audio/wordpool/CATTLE.wav", "key_press": -1, "type": "PRES_AUD", "word": "cattle", "wordID": 260, "conditions": [24, 800, "a", 12000], "trial": 7, "serialpos": 11, "trial_type": "single-audio", "trial_index": 264, "time_elapsed": 1227053, "internal_node_id": "0.0-192.0"}}, {"uniqueid": "MTK0685:31IBVUNM9T6B691IFD6EKVXZ1IVVF5", "current_trial": 265, "dateTime": 1512597877417, "trialdata": {"rt": -1000, "stimulus": "/static/audio/wordpool/SALAD.wav", "key_press": -1, "type": "PRES_AUD", "word": "salad", "wordID": 1223, "conditions": [24, 800, "a", 12000], "trial": 7, "serialpos": 12, "trial_type": "single-audio", "trial_index": 265, "time_elapsed": 1228676, "internal_node_id": "0.0-193.0"}}, {"uniqueid": "MTK0685:31IBVUNM9T6B691IFD6EKVXZ1IVVF5", "current_trial": 266, "dateTime": 1512597879260, "trialdata": {"rt": -1000, "stimulus": "/static/audio/wordpool/PUDDLE.wav", "key_press": -1, "type": "PRES_AUD", "word": "puddle", "wordID": 1139, "conditions": [24, 800, "a", 12000], "trial": 7, "serialpos": 13, "trial_type": "single-audio", "trial_index": 266, "time_elapsed": 1230518, "internal_node_id": "0.0-194.0"}}, {"uniqueid": "MTK0685:31IBVUNM9T6B691IFD6EKVXZ1IVVF5", "current_trial": 267, "dateTime": 1512597881249, "trialdata": {"rt": -1000, "stimulus": "/static/audio/wordpool/WORLD.wav", "key_press": -1, "type": "PRES_AUD", "word": "world", "wordID": 1621, "conditions": [24, 800, "a", 12000], "trial": 7, "serialpos": 14, "trial_type": "single-audio", "trial_index": 267, "time_elapsed": 1232508, "internal_node_id": "0.0-195.0"}}, {"uniqueid": "MTK0685:31IBVUNM9T6B691IFD6EKVXZ1IVVF5", "current_trial": 268, "dateTime": 1512597882855, "trialdata": {"rt": -1000, "stimulus": "/static/audio/wordpool/GLOBE.wav", "key_press": -1, "type": "PRES_AUD", "word": "globe", "wordID": 640, "conditions": [24, 800, "a", 12000], "trial": 7, "serialpos": 15, "trial_type": "single-audio", "trial_index": 268, "time_elapsed": 1234114, "internal_node_id": "0.0-196.0"}}, {"uniqueid": "MTK0685:31IBVUNM9T6B691IFD6EKVXZ1IVVF5", "current_trial": 269, "dateTime": 1512597884546, "trialdata": {"rt": -1000, "stimulus": "/static/audio/wordpool/SPACE.wav", "key_press": -1, "type": "PRES_AUD", "word": "space", "wordID": 1344, "conditions": [24, 800, "a", 12000], "trial": 7, "serialpos": 16, "trial_type": "single-audio", "trial_index": 269, "time_elapsed": 1235805, "internal_node_id": "0.0-197.0"}}, {"uniqueid": "MTK0685:31IBVUNM9T6B691IFD6EKVXZ1IVVF5", "current_trial": 270, "dateTime": 1512597886493, "trialdata": {"rt": -1000, "stimulus": "/static/audio/wordpool/PICNIC.wav", "key_press": -1, "type": "PRES_AUD", "word": "picnic", "wordID": 1059, "conditions": [24, 800, "a", 12000], "trial": 7, "serialpos": 17, "trial_type": "single-audio", "trial_index": 270, "time_elapsed": 1237752, "internal_node_id": "0.0-198.0"}}, {"uniqueid": "MTK0685:31IBVUNM9T6B691IFD6EKVXZ1IVVF5", "current_trial": 271, "dateTime": 1512597888251, "trialdata": {"rt": -1000, "stimulus": "/static/audio/wordpool/PLATE.wav", "key_press": -1, "type": "PRES_AUD", "word": "plate", "wordID": 1085, "conditions": [24, 800, "a", 12000], "trial": 7, "serialpos": 18, "trial_type": "single-audio", "trial_index": 271, "time_elapsed": 1239510, "internal_node_id": "0.0-199.0"}}, {"uniqueid": "MTK0685:31IBVUNM9