{"condition": 0, "counterbalance": 1579, "assignmentId": "33PPO7FECWM9MJ3MP0C5H64KI6WDIZ", "workerId": "MTK0736", "hitId": "3OZ4VAIBEXMPORPK81SXA9T7FNAVJC", "currenttrial": 626, "bonus": 0, "data": [{"uniqueid": "MTK0736:33PPO7FECWM9MJ3MP0C5H64KI6WDIZ", "current_trial": 0, "dateTime": 1512678311974, "trialdata": {"rt": 11016, "key_press": 32, "type": "INSTRUCTIONS", "trial_type": "text", "trial_index": 0, "time_elapsed": 11018, "internal_node_id": "0.0-0.0"}}, {"uniqueid": "MTK0736:33PPO7FECWM9MJ3MP0C5H64KI6WDIZ", "current_trial": 1, "dateTime": 1512678331758, "trialdata": {"rt": 19781, "key_press": 32, "type": "INSTRUCTIONS", "trial_type": "text", "trial_index": 1, "time_elapsed": 30803, "internal_node_id": "0.0-1.0"}}, {"uniqueid": "MTK0736:33PPO7FECWM9MJ3MP0C5H64KI6WDIZ", "current_trial": 2, "dateTime": 1512678356428, "trialdata": {"rt": [24653], "responses": ["ocean"], "type": "AUDIO_TEST", "trial_type": "audio-test", "trial_index": 2, "time_elapsed": 55473, "internal_node_id": "0.0-2.0"}}, {"uniqueid": "MTK0736:33PPO7FECWM9MJ3MP0C5H64KI6WDIZ", "current_trial": 3, "dateTime": 1512678362683, "trialdata": {"rt": [6249], "responses": ["crystal"], "type": "AUDIO_TEST", "trial_type": "audio-test", "trial_index": 3, "time_elapsed": 61728, "internal_node_id": "0.0-3.0"}}, {"uniqueid": "MTK0736:33PPO7FECWM9MJ3MP0C5H64KI6WDIZ", "current_trial": 4, "dateTime": 1512678368064, "trialdata": {"rt": [5375], "responses": ["spice"], "type": "AUDIO_TEST", "trial_type": "audio-test", "trial_index": 4, "time_elapsed": 67109, "internal_node_id": "0.0-4.0"}}, {"uniqueid": "MTK0736:33PPO7FECWM9MJ3MP0C5H64KI6WDIZ", "current_trial": 5, "dateTime": 1512678391407, "trialdata": {"rt": 22589, "responses": "{\"Q0\":\"10\",\"Q1\":\"6\",\"Q2\":\"4\"}", "type": "SLEEP_SURVEY", "trial_type": "survey-text", "trial_index": 5, "time_elapsed": 90452, "internal_node_id": "0.0-5.0"}}, {"uniqueid": "MTK0736:33PPO7FECWM9MJ3MP0C5H64KI6WDIZ", "current_trial": 6, "dateTime": 1512678444216, "trialdata": {"rt": 51807, "key_press": 32, "type": "INSTRUCTIONS", "trial_type": "text", "trial_index": 6, "time_elapsed": 143261, "internal_node_id": "0.0-6.0"}}, {"uniqueid": "MTK0736:33PPO7FECWM9MJ3MP0C5H64KI6WDIZ", "current_trial": 7, "dateTime": 1512678463427, "trialdata": {"rt": 18709, "key_press": 32, "type": "INSTRUCTIONS", "trial_type": "text", "trial_index": 7, "time_elapsed": 162472, "internal_node_id": "0.0-7.0"}}, {"uniqueid": "MTK0736:33PPO7FECWM9MJ3MP0C5H64KI6WDIZ", "current_trial": 8, "dateTime": 1512678478264, "trialdata": {"rt": 14335, "key_press": 32, "type": "INSTRUCTIONS", "trial_type": "text", "trial_index": 8, "time_elapsed": 177309, "internal_node_id": "0.0-8.0"}}, {"uniqueid": "MTK0736:33PPO7FECWM9MJ3MP0C5H64KI6WDIZ", "current_trial": 9, "dateTime": 1512678497271, "trialdata": {"rt": [3235, 5840, 9394, 12674, 15844], "responses": ["15", "13", "12", "10", "13"], "num1": [8, 1, 4, 2, 4, 7], "num2": [4, 6, 5, 1, 5, 8], "num3": [3, 6, 3, 7, 4, 9], "type": "DISTRACTOR", "conditions": [18, 1200, "a", 18000], "trial": 0, "trial_type": "math-distractor", "trial_index": 9, "time_elapsed": 196316, "internal_node_id": "0.0-9.0"}}, {"uniqueid": "MTK0736:33PPO7FECWM9MJ3MP0C5H64KI6WDIZ", "current_trial": 10, "dateTime": 1512678500274, "trialdata": {"rt": -1, "stimulus": "<p id=\"stim\">10</p>", "key_press": -1, "trial_type": "single-stim", "trial_index": 10, "time_elapsed": 199319, "internal_node_id": "0.0-10.0-0.0"}}, {"uniqueid": "MTK0736:33PPO7FECWM9MJ3MP0C5H64KI6WDIZ", "current_trial": 11, "dateTime": 1512678501276, "trialdata": {"rt": -1, "stimulus": "<p id=\"stim\">9</p>", "key_press": -1, "trial_type": "single-stim", "trial_index": 11, "time_elapsed": 200321, "internal_node_id": "0.0-10.0-1.0"}}, {"uniqueid": "MTK0736:33PPO7FECWM9MJ3MP0C5H64KI6WDIZ", "current_trial": 12, "dateTime": 1512678502278, "trialdata": {"rt": -1, "stimulus": "<p id=\"stim\">8</p>", "key_press": -1, "trial_type": "single-stim", "trial_index": 12, "time_elapsed": 201323, "internal_node_id": "0.0-10.0-2.0"}}, {"uniqueid": "MTK0736:33PPO7FECWM9MJ3MP0C5H64KI6WDIZ", "current_trial": 13, "dateTime": 1512678503280, "trialdata": {"rt": -1, "stimulus": "<p id=\"stim\">7</p>", "key_press": -1, "trial_type": "single-stim", "trial_index": 13, "time_elapsed": 202324, "internal_node_id": "0.0-10.0-3.0"}}, {"uniqueid": "MTK0736:33PPO7FECWM9MJ3MP0C5H64KI6WDIZ", "current_trial": 14, "dateTime": 1512678504282, "trialdata": {"rt": -1, "stimulus": "<p id=\"stim\">6</p>", "key_press": -1, "trial_type": "single-stim", "trial_index": 14, "time_elapsed": 203326, "internal_node_id": "0.0-10.0-4.0"}}, {"uniqueid": "MTK0736:33PPO7FECWM9MJ3MP0C5H64KI6WDIZ", "current_trial": 15, "dateTime": 1512678505285, "trialdata": {"rt": -1, "stimulus": "<p id=\"stim\">5</p>", "key_press": -1, "trial_type": "single-stim", "trial_index": 15, "time_elapsed": 204330, "internal_node_id": "0.0-10.0-5.0"}}, {"uniqueid": "MTK0736:33PPO7FECWM9MJ3MP0C5H64KI6WDIZ", "current_trial": 16, "dateTime": 1512678506287, "trialdata": {"rt": -1, "stimulus": "<p id=\"stim\">4</p>", "key_press": -1, "trial_type": "single-stim", "trial_index": 16, "time_elapsed": 205332, "internal_node_id": "0.0-10.0-6.0"}}, {"uniqueid": "MTK0736:33PPO7FECWM9MJ3MP0C5H64KI6WDIZ", "current_trial": 17, "dateTime": 1512678507289, "trialdata": {"rt": -1, "stimulus": "<p id=\"stim\">3</p>", "key_press": -1, "trial_type": "single-stim", "trial_index": 17, "time_elapsed": 206334, "internal_node_id": "0.0-10.0-7.0"}}, {"uniqueid": "MTK0736:33PPO7FECWM9MJ3MP0C5H64KI6WDIZ", "current_trial": 18, "dateTime": 1512678508292, "trialdata": {"rt": -1, "stimulus": "<p id=\"stim\">2</p>", "key_press": -1, "trial_type": "single-stim", "trial_index": 18, "time_elapsed": 207337, "internal_node_id": "0.0-10.0-8.0"}}, {"uniqueid": "MTK0736:33PPO7FECWM9MJ3MP0C5H64KI6WDIZ", "current_trial": 19, "dateTime": 1512678509293, "trialdata": {"rt": -1, "stimulus": "<p id=\"stim\">1</p>", "key_press": -1, "trial_type": "single-stim", "trial_index": 19, "time_elapsed": 208338, "internal_node_id": "0.0-10.0-9.0"}}, {"uniqueid": "MTK0736:33PPO7FECWM9MJ3MP0C5H64KI6WDIZ", "current_trial": 20, "dateTime": 1512678510796, "trialdata": {"rt": -1, "stimulus": "<p id=\"stim\">+</p>", "key_press": -1, "type": "FIXATION", "trial_type": "single-stim", "trial_index": 20, "time_elapsed": 209840, "internal_node_id": "0.0-11.0-0.0"}}, {"uniqueid": "MTK0736:33PPO7FECWM9MJ3MP0C5H64KI6WDIZ", "current_trial": 21, "dateTime": 1512678513185, "trialdata": {"rt": -1000, "stimulus": "/static/audio/wordpool/DINER.wav", "key_press": -1, "type": "PRES_AUD", "word": "diner", "wordID": 466, "conditions": [18, 1200, "a", 18000], "trial": 0, "serialpos": 0, "trial_type": "single-audio", "trial_index": 21, "time_elapsed": 212230, "internal_node_id": "0.0-12.0"}}, {"uniqueid": "MTK0736:33PPO7FECWM9MJ3MP0C5H64KI6WDIZ", "current_trial": 22, "dateTime": 1512678515321, "trialdata": {"rt": -1000, "stimulus": "/static/audio/wordpool/SEAFOOD.wav", "key_press": -1, "type": "PRES_AUD", "word": "seafood", "wordID": 1259, "conditions": [18, 1200, "a", 18000], "trial": 0, "serialpos": 1, "trial_type": "single-audio", "trial_index": 22, "time_elapsed": 214366, "internal_node_id": "0.0-13.0"}}, {"uniqueid": "MTK0736:33PPO7FECWM9MJ3MP0C5H64KI6WDIZ", "current_trial": 23, "dateTime": 1512678517396, "trialdata": {"rt": -1000, "stimulus": "/static/audio/wordpool/SANDWICH.wav", "key_press": -1, "type": "PRES_AUD", "word": "sandwich", "wordID": 1231, "conditions": [18, 1200, "a", 18000], "trial": 0, "serialpos": 2, "trial_type": "single-audio", "trial_index": 23, "time_elapsed": 216441, "internal_node_id": "0.0-14.0"}}, {"uniqueid": "MTK0736:33PPO7FECWM9MJ3MP0C5H64KI6WDIZ", "current_trial": 24, "dateTime": 1512678519525, "trialdata": {"rt": -1000, "stimulus": "/static/audio/wordpool/VAGRANT.wav", "key_press": -1, "type": "PRES_AUD", "word": "vagrant", "wordID": 1543, "conditions": [18, 1200, "a", 18000], "trial": 0, "serialpos": 3, "trial_type": "single-audio", "trial_index": 24, "time_elapsed": 218570, "internal_node_id": "0.0-15.0"}}, {"uniqueid": "MTK0736:33PPO7FECWM9MJ3MP0C5H64KI6WDIZ", "current_trial": 25, "dateTime": 1512678521818, "trialdata": {"rt": -1000, "stimulus": "/static/audio/wordpool/CIGAR.wav", "key_press": -1, "type": "PRES_AUD", "word": "cigar", "wordID": 307, "conditions": [18, 1200, "a", 18000], "trial": 0, "serialpos": 4, "trial_type": "single-audio", "trial_index": 25, "time_elapsed": 220863, "internal_node_id": "0.0-16.0"}}, {"uniqueid": "MTK0736:33PPO7FECWM9MJ3MP0C5H64KI6WDIZ", "current_trial": 26, "dateTime": 1512678524002, "trialdata": {"rt": -1000, "stimulus": "/static/audio/wordpool/PEBBLE.wav", "key_press": -1, "type": "PRES_AUD", "word": "pebble", "wordID": 1034, "conditions": [18, 1200, "a", 18000], "trial": 0, "serialpos": 5, "trial_type": "single-audio", "trial_index": 26, "time_elapsed": 223047, "internal_node_id": "0.0-17.0"}}, {"uniqueid": "MTK0736:33PPO7FECWM9MJ3MP0C5H64KI6WDIZ", "current_trial": 27, "dateTime": 1512678526032, "trialdata": {"rt": -1000, "stimulus": "/static/audio/wordpool/PRIMATE.wav", "key_press": -1, "type": "PRES_AUD", "word": "primate", "wordID": 1122, "conditions": [18, 1200, "a", 18000], "trial": 0, "serialpos": 6, "trial_type": "single-audio", "trial_index": 27, "time_elapsed": 225077, "internal_node_id": "0.0-18.0"}}, {"uniqueid": "MTK0736:33PPO7FECWM9MJ3MP0C5H64KI6WDIZ", "current_trial": 28, "dateTime": 1512678528095, "trialdata": {"rt": -1000, "stimulus": "/static/audio/wordpool/REBEL.wav", "key_press": -1, "type": "PRES_AUD", "word": "rebel", "wordID": 1171, "conditions": [18, 1200, "a", 18000], "trial": 0, "serialpos": 7, "trial_type": "single-audio", "trial_index": 28, "time_elapsed": 227140, "internal_node_id": "0.0-19.0"}}, {"uniqueid": "MTK0736:33PPO7FECWM9MJ3MP0C5H64KI6WDIZ", "current_trial": 29, "dateTime": 1512678530221, "trialdata": {"rt": -1000, "stimulus": "/static/audio/wordpool/SISTER.wav", "key_press": -1, "type": "PRES_AUD", "word": "sister", "wordID": 1311, "conditions": [18, 1200, "a", 18000], "trial": 0, "serialpos": 8, "trial_type": "single-audio", "trial_index": 29, "time_elapsed": 229266, "internal_node_id": "0.0-20.0"}}, {"uniqueid": "MTK0736:33PPO7FECWM9MJ3MP0C5H64KI6WDIZ", "current_trial": 30, "dateTime": 1512678532278, "trialdata": {"rt": -1000, "stimulus": "/static/audio/wordpool/POPCORN.wav", "key_press": -1, "type": "PRES_AUD", "word": "popcorn", "wordID": 1103, "conditions": [18, 1200, "a", 18000], "trial": 0, "serialpos": 9, "trial_type": "single-audio", "trial_index": 30, "time_elapsed": 231323, "internal_node_id": "0.0-21.0"}}, {"uniqueid": "MTK0736:33PPO7FECWM9MJ3MP0C5H64KI6WDIZ", "current_trial": 31, "dateTime": 1512678534655, "trialdata": {"rt": -1000, "stimulus": "/static/audio/wordpool/PIMPLE.wav", "key_press": -1, "type": "PRES_AUD", "word": "pimple", "wordID": 1070, "conditions": [18, 1200, "a", 18000], "trial": 0, "serialpos": 10, "trial_type": "single-audio", "trial_index": 31, "time_elapsed": 233700, "internal_node_id": "0.0-22.0"}}, {"uniqueid": "MTK0736:33PPO7FECWM9MJ3MP0C5H64KI6WDIZ", "current_trial": 32, "dateTime": 1512678537000, "trialdata": {"rt": -1000, "stimulus": "/static/audio/wordpool/PARENT.wav", "key_press": -1, "type": "PRES_AUD", "word": "parent", "wordID": 1012, "conditions": [18, 1200, "a", 18000], "trial": 0, "serialpos": 11, "trial_type": "single-audio", "trial_index": 32, "time_elapsed": 236045, "internal_node_id": "0.0-23.0"}}, {"uniqueid": "MTK0736:33PPO7FECWM9MJ3MP0C5H64KI6WDIZ", "current_trial": 33, "dateTime": 1512678539354, "trialdata": {"rt": -1000, "stimulus": "/static/audio/wordpool/FLUTE.wav", "key_press": -1, "type": "PRES_AUD", "word": "flute", "wordID": 584, "conditions": [18, 1200, "a", 18000], "trial": 0, "serialpos": 12, "trial_type": "single-audio", "trial_index": 33, "time_elapsed": 238399, "internal_node_id": "0.0-24.0"}}, {"uniqueid": "MTK0736:33PPO7FECWM9MJ3MP0C5H64KI6WDIZ", "current_trial": 34, "dateTime": 1512678541448, "trialdata": {"rt": -1000, "stimulus": "/static/audio/wordpool/TUTU.wav", "key_press": -1, "type": "PRES_AUD", "word": "tutu", "wordID": 1523, "conditions": [18, 1200, "a", 18000], "trial": 0, "serialpos": 13, "trial_type": "single-audio", "trial_index": 34, "time_elapsed": 240493, "internal_node_id": "0.0-25.0"}}, {"uniqueid": "MTK0736:33PPO7FECWM9MJ3MP0C5H64KI6WDIZ", "current_trial": 35, "dateTime": 1512678543474, "trialdata": {"rt": -1000, "stimulus": "/static/audio/wordpool/TEACHER.wav", "key_press": -1, "type": "PRES_AUD", "word": "teacher", "wordID": 1439, "conditions": [18, 1200, "a", 18000], "trial": 0, "serialpos": 14, "trial_type": "single-audio", "trial_index": 35, "time_elapsed": 242519, "internal_node_id": "0.0-26.0"}}, {"uniqueid": "MTK0736:33PPO7FECWM9MJ3MP0C5H64KI6WDIZ", "current_trial": 36, "dateTime": 1512678545621, "trialdata": {"rt": -1000, "stimulus": "/static/audio/wordpool/SUNRISE.wav", "key_press": -1, "type": "PRES_AUD", "word": "sunrise", "wordID": 1406, "conditions": [18, 1200, "a", 18000], "trial": 0, "serialpos": 15, "trial_type": "single-audio", "trial_index": 36, "time_elapsed": 244666, "internal_node_id": "0.0-27.0"}}, {"uniqueid": "MTK0736:33PPO7FECWM9MJ3MP0C5H64KI6WDIZ", "current_trial": 37, "dateTime": 1512678547867, "trialdata": {"rt": -1000, "stimulus": "/static/audio/wordpool/INFANT.wav", "key_press": -1, "type": "PRES_AUD", "word": "infant", "wordID": 736, "conditions": [18, 1200, "a", 18000], "trial": 0, "serialpos": 16, "trial_type": "single-audio", "trial_index": 37, "time_elapsed": 246912, "internal_node_id": "0.0-28.0"}}, {"uniqueid": "MTK0736:33PPO7FECWM9MJ3MP0C5H64KI6WDIZ", "current_trial": 38, "dateTime": 1512678549873, "trialdata": {"rt": -1000, "stimulus": "/static/audio/wordpool/SKETCH.wav", "key_press": -1, "type": "PRES_AUD", "word": "sketch", "wordID": 1314, "conditions": [18, 1200, "a", 18000], "trial": 0, "serialpos": 17, "trial_type": "single-audio", "trial_index": 38, "time_elapsed": 248918, "internal_node_id": "0.0-29.0"}}, {"uniqueid": "MTK0736:33PPO7FECWM9MJ3MP0C5H64KI6WDIZ", "current_trial": 39, "dateTime": 1512678551165, "trialdata": {"rt": -1, "stimulus": "", "key_press": -1, "type": "PRE_RECALL_DELAY", "trial_type": "single-stim", "trial_index": 39, "time_elapsed": 250210, "internal_node_id": "0.0-30.0-0.0"}}, {"uniqueid": "MTK0736:33PPO7FECWM9MJ3MP0C5H64KI6WDIZ", "current_trial": 40, "dateTime": 1512678551667, "trialdata": {"rt": -1000, "stimulus": "/static/audio/400Hz.wav", "key_press": -1, "type": "PRE_RECALL_ALERT", "trial_type": "single-audio", "trial_index": 40, "time_elapsed": 250711, "internal_node_id": "0.0-31.0"}}, {"uniqueid": "MTK0736:33PPO7FECWM9MJ3MP0C5H64KI6WDIZ", "current_trial": 41, "dateTime": 1512678611673, "trialdata": {"rt": [3395, 5207, 5611, 8290, 10829, 12912, 18232, 21337, 33325], "recwords": ["diner", "seafood", "", "sandwich", "infant", "popcorn", "sketch", "pimple", "rebel"], "type": "FREE_RECALL", "conditions": [18, 1200, "a", 18000], "trial": 0, "trial_type": "free-recall", "trial_index": 41, "time_elapsed": 310715, "internal_node_id": "0.0-32.0-0.0"}}, {"uniqueid": "MTK0736:33PPO7FECWM9MJ3MP0C5H64KI6WDIZ", "current_trial": 42, "dateTime": 1512678615473, "trialdata": {"rt": 1796, "key_press": 32, "type": "INSTRUCTIONS", "trial_type": "text", "trial_index": 42, "time_elapsed": 314518, "internal_node_id": "0.0-33.0"}}, {"uniqueid": "MTK0736:33PPO7FECWM9MJ3MP0C5H64KI6WDIZ", "current_trial": 43, "dateTime": 1512678635477, "trialdata": {"rt": [4213, 9021, 11208, 13779, 16015], "responses": ["13", "6", "16", "16", "11"], "num1": [5, 2, 7, 7, 7, 2], "num2": [6, 1, 4, 1, 3, 6], "num3": [2, 3, 5, 8, 1, 5], "type": "DISTRACTOR", "conditions": [18, 1200, "v", 18000], "trial": 1, "trial_type": "math-distractor", "trial_index": 43, "time_elapsed": 334522, "internal_node_id": "0.0-34.0"}}, {"uniqueid": "MTK0736:33PPO7FECWM9MJ3MP0C5H64KI6WDIZ", "current_trial": 44, "dateTime": 1512678638480, "trialdata": {"rt": -1, "stimulus": "<p id=\"stim\">10</p>", "key_press": -1, "trial_type": "single-stim", "trial_index": 44, "time_elapsed": 337525, "internal_node_id": "0.0-35.0-0.0"}}, {"uniqueid": "MTK0736:33PPO7FECWM9MJ3MP0C5H64KI6WDIZ", "current_trial": 45, "dateTime": 1512678639482, "trialdata": {"rt": -1, "stimulus": "<p id=\"stim\">9</p>", "key_press": -1, "trial_type": "single-stim", "trial_index": 45, "time_elapsed": 338527, "internal_node_id": "0.0-35.0-1.0"}}, {"uniqueid": "MTK0736:33PPO7FECWM9MJ3MP0C5H64KI6WDIZ", "current_trial": 46, "dateTime": 1512678640486, "trialdata": {"rt": -1, "stimulus": "<p id=\"stim\">8</p>", "key_press": -1, "trial_type": "single-stim", "trial_index": 46, "time_elapsed": 339530, "internal_node_id": "0.0-35.0-2.0"}}, {"uniqueid": "MTK0736:33PPO7FECWM9MJ3MP0C5H64KI6WDIZ", "current_trial": 47, "dateTime": 1512678641487, "trialdata": {"rt": -1, "stimulus": "<p id=\"stim\">7</p>", "key_press": -1, "trial_type": "single-stim", "trial_index": 47, "time_elapsed": 340532, "internal_node_id": "0.0-35.0-3.0"}}, {"uniqueid": "MTK0736:33PPO7FECWM9MJ3MP0C5H64KI6WDIZ", "current_trial": 48, "dateTime": 1512678642488, "trialdata": {"rt": -1, "stimulus": "<p id=\"stim\">6</p>", "key_press": -1, "trial_type": "single-stim", "trial_index": 48, "time_elapsed": 341533, "internal_node_id": "0.0-35.0-4.0"}}, {"uniqueid": "MTK0736:33PPO7FECWM9MJ3MP0C5H64KI6WDIZ", "current_trial": 49, "dateTime": 1512678643490, "trialdata": {"rt": -1, "stimulus": "<p id=\"stim\">5</p>", "key_press": -1, "trial_type": "single-stim", "trial_index": 49, "time_elapsed": 342535, "internal_node_id": "0.0-35.0-5.0"}}, {"uniqueid": "MTK0736:33PPO7FECWM9MJ3MP0C5H64KI6WDIZ", "current_trial": 50, "dateTime": 1512678644492, "trialdata": {"rt": -1, "stimulus": "<p id=\"stim\">4</p>", "key_press": -1, "trial_type": "single-stim", "trial_index": 50, "time_elapsed": 343537, "internal_node_id": "0.0-35.0-6.0"}}, {"uniqueid": "MTK0736:33PPO7FECWM9MJ3MP0C5H64KI6WDIZ", "current_trial": 51, "dateTime": 1512678645494, "trialdata": {"rt": -1, "stimulus": "<p id=\"stim\">3</p>", "key_press": -1, "trial_type": "single-stim", "trial_index": 51, "time_elapsed": 344538, "internal_node_id": "0.0-35.0-7.0"}}, {"uniqueid": "MTK0736:33PPO7FECWM9MJ3MP0C5H64KI6WDIZ", "current_trial": 52, "dateTime": 1512678646497, "trialdata": {"rt": -1, "stimulus": "<p id=\"stim\">2</p>", "key_press": -1, "trial_type": "single-stim", "trial_index": 52, "time_elapsed": 345541, "internal_node_id": "0.0-35.0-8.0"}}, {"uniqueid": "MTK0736:33PPO7FECWM9MJ3MP0C5H64KI6WDIZ", "current_trial": 53, "dateTime": 1512678647500, "trialdata": {"rt": -1, "stimulus": "<p id=\"stim\">1</p>", "key_press": -1, "trial_type": "single-stim", "trial_index": 53, "time_elapsed": 346544, "internal_node_id": "0.0-35.0-9.0"}}, {"uniqueid": "MTK0736:33PPO7FECWM9MJ3MP0C5H64KI6WDIZ", "current_trial": 54, "dateTime": 1512678649001, "trialdata": {"rt": -1, "stimulus": "<p id=\"stim\">+</p>", "key_press": -1, "type": "FIXATION", "trial_type": "single-stim", "trial_index": 54, "time_elapsed": 348046, "internal_node_id": "0.0-36.0-0.0"}}, {"uniqueid": "MTK0736:33PPO7FECWM9MJ3MP0C5H64KI6WDIZ", "current_trial": 55, "dateTime": 1512678650204, "trialdata": {"rt": -1, "stimulus": "<p id=\"stim\">CAMEL</p>", "key_press": -1, "type": "PRES_VIS", "word": "camel", "wordID": 222, "conditions": [18, 1200, "v", 18000], "trial": 1, "serialpos": 0, "trial_type": "single-stim", "trial_index": 55, "time_elapsed": 349248, "internal_node_id": "0.0-37.0"}}, {"uniqueid": "MTK0736:33PPO7FECWM9MJ3MP0C5H64KI6WDIZ", "current_trial": 56, "dateTime": 1512678652560, "trialdata": {"rt": -1, "stimulus": "<p id=\"stim\">MATCH</p>", "key_press": -1, "type": "PRES_VIS", "word": "match", "wordID": 877, "conditions": [18, 1200, "v", 18000], "trial": 1, "serialpos": 1, "trial_type": "single-stim", "trial_index": 56, "time_elapsed": 351605, "internal_node_id": "0.0-38.0"}}, {"uniqueid": "MTK0736:33PPO7FECWM9MJ3MP0C5H64KI6WDIZ", "current_trial": 57, "dateTime": 1512678654912, "trialdata": {"rt": -1, "stimulus": "<p id=\"stim\">SPIDER</p>", "key_press": -1, "type": "PRES_VIS", "word": "spider", "wordID": 1350, "conditions": [18, 1200, "v", 18000], "trial": 1, "serialpos": 2, "trial_type": "single-stim", "trial_index": 57, "time_elapsed": 353956, "internal_node_id": "0.0-39.0"}}, {"uniqueid": "MTK0736:33PPO7FECWM9MJ3MP0C5H64KI6WDIZ", "current_trial": 58, "dateTime": 1512678657227, "trialdata": {"rt": -1, "stimulus": "<p id=\"stim\">FINGER</p>", "key_press": -1, "type": "PRES_VIS", "word": "finger", "wordID": 566, "conditions": [18, 1200, "v", 18000], "trial": 1, "serialpos": 3, "trial_type": "single-stim", "trial_index": 58, "time_elapsed": 356271, "internal_node_id": "0.0-40.0"}}, {"uniqueid": "MTK0736:33PPO7FECWM9MJ3MP0C5H64KI6WDIZ", "current_trial": 59, "dateTime": 1512678659414, "trialdata": {"rt": -1, "stimulus": "<p id=\"stim\">CONCERT</p>", "key_press": -1, "type": "PRES_VIS", "word": "concert", "wordID": 359, "conditions": [18, 1200, "v", 18000], "trial": 1, "serialpos": 4, "trial_type": "single-stim", "trial_index": 59, "time_elapsed": 358458, "internal_node_id": "0.0-41.0"}}, {"uniqueid": "MTK0736:33PPO7FECWM9MJ3MP0C5H64KI6WDIZ", "current_trial": 60, "dateTime": 1512678661692, "trialdata": {"rt": -1, "stimulus": "<p id=\"stim\">BUREAU</p>", "key_press": -1, "type": "PRES_VIS", "word": "bureau", "wordID": 198, "conditions": [18, 1200, "v", 18000], "trial": 1, "serialpos": 5, "trial_type": "single-stim", "trial_index": 60, "time_elapsed": 360736, "internal_node_id": "0.0-42.0"}}, {"uniqueid": "MTK0736:33PPO7FECWM9MJ3MP0C5H64KI6WDIZ", "current_trial": 61, "dateTime": 1512678663742, "trialdata": {"rt": -1, "stimulus": "<p id=\"stim\">HANDBAG</p>", "key_press": -1, "type": "PRES_VIS", "word": "handbag", "wordID": 683, "conditions": [18, 1200, "v", 18000], "trial": 1, "serialpos": 6, "trial_type": "single-stim", "trial_index": 61, "time_elapsed": 362787, "internal_node_id": "0.0-43.0"}}, {"uniqueid": "MTK0736:33PPO7FECWM9MJ3MP0C5H64KI6WDIZ", "current_trial": 62, "dateTime": 1512678666093, "trialdata": {"rt": -1, "stimulus": "<p id=\"stim\">MISTER</p>", "key_press": -1, "type": "PRES_VIS", "word": "mister", "wordID": 900, "conditions": [18, 1200, "v", 18000], "trial": 1, "serialpos": 7, "trial_type": "single-stim", "trial_index": 62, "time_elapsed": 365138, "internal_node_id": "0.0-44.0"}}, {"uniqueid": "MTK0736:33PPO7FECWM9MJ3MP0C5H64KI6WDIZ", "current_trial": 63, "dateTime": 1512678668303, "trialdata": {"rt": -1, "stimulus": "<p id=\"stim\">PALACE</p>", "key_press": -1, "type": "PRES_VIS", "word": "palace", "wordID": 1005, "conditions": [18, 1200, "v", 18000], "trial": 1, "serialpos": 8, "trial_type": "single-stim", "trial_index": 63, "time_elapsed": 367348, "internal_node_id": "0.0-45.0"}}, {"uniqueid": "MTK0736:33PPO7FECWM9MJ3MP0C5H64KI6WDIZ", "current_trial": 64, "dateTime": 1512678670344, "trialdata": {"rt": -1, "stimulus": "<p id=\"stim\">DIME</p>", "key_press": -1, "type": "PRES_VIS", "word": "dime", "wordID": 465, "conditions": [18, 1200, "v", 18000], "trial": 1, "serialpos": 9, "trial_type": "single-stim", "trial_index": 64, "time_elapsed": 369388, "internal_node_id": "0.0-46.0"}}, {"uniqueid": "MTK0736:33PPO7FECWM9MJ3MP0C5H64KI6WDIZ", "current_trial": 65, "dateTime": 1512678672613, "trialdata": {"rt": -1, "stimulus": "<p id=\"stim\">BODY</p>", "key_press": -1, "type": "PRES_VIS", "word": "body", "wordID": 144, "conditions": [18, 1200, "v", 18000], "trial": 1, "serialpos": 10, "trial_type": "single-stim", "trial_index": 65, "time_elapsed": 371657, "internal_node_id": "0.0-47.0"}}, {"uniqueid": "MTK0736:33PPO7FECWM9MJ3MP0C5H64KI6WDIZ", "current_trial": 66, "dateTime": 1512678674851, "trialdata": {"rt": -1, "stimulus": "<p id=\"stim\">APRON</p>", "key_press": -1, "type": "PRES_VIS", "word": "apron", "wordID": 34, "conditions": [18, 1200, "v", 18000], "trial": 1, "serialpos": 11, "trial_type": "single-stim", "trial_index": 66, "time_elapsed": 373895, "internal_node_id": "0.0-48.0"}}, {"uniqueid": "MTK0736:33PPO7FECWM9MJ3MP0C5H64KI6WDIZ", "current_trial": 67, "dateTime": 1512678676948, "trialdata": {"rt": -1, "stimulus": "<p id=\"stim\">DRESS</p>", "key_press": -1, "type": "PRES_VIS", "word": "dress", "wordID": 494, "conditions": [18, 1200, "v", 18000], "trial": 1, "serialpos": 12, "trial_type": "single-stim", "trial_index": 67, "time_elapsed": 375993, "internal_node_id": "0.0-49.0"}}, {"uniqueid": "MTK0736:33PPO7FECWM9MJ3MP0C5H64KI6WDIZ", "current_trial": 68, "dateTime": 1512678679049, "trialdata": {"rt": -1, "stimulus": "<p id=\"stim\">KITCHEN</p>", "key_press": -1, "type": "PRES_VIS", "word": "kitchen", "wordID": 777, "conditions": [18, 1200, "v", 18000], "trial": 1, "serialpos": 13, "trial_type": "single-stim", "trial_index": 68, "time_elapsed": 378092, "internal_node_id": "0.0-50.0"}}, {"uniqueid": "MTK0736:33PPO7FECWM9MJ3MP0C5H64KI6WDIZ", "current_trial": 69, "dateTime": 1512678681405, "trialdata": {"rt": -1, "stimulus": "<p id=\"stim\">COOKBOOK</p>", "key_press": -1, "type": "PRES_VIS", "word": "cookbook", "wordID": 372, "conditions": [18, 1200, "v", 18000], "trial": 1, "serialpos": 14, "trial_type": "single-stim", "trial_index": 69, "time_elapsed": 380449, "internal_node_id": "0.0-51.0"}}, {"uniqueid": "MTK0736:33PPO7FECWM9MJ3MP0C5H64KI6WDIZ", "current_trial": 70, "dateTime": 1512678683546, "trialdata": {"rt": -1, "stimulus": "<p id=\"stim\">LEG</p>", "key_press": -1, "type": "PRES_VIS", "word": "leg", "wordID": 808, "conditions": [18, 1200, "v", 18000], "trial": 1, "serialpos": 15, "trial_type": "single-stim", "trial_index": 70, "time_elapsed": 382590, "internal_node_id": "0.0-52.0"}}, {"uniqueid": "MTK0736:33PPO7FECWM9MJ3MP0C5H64KI6WDIZ", "current_trial": 71, "dateTime": 1512678685726, "trialdata": {"rt": -1, "stimulus": "<p id=\"stim\">LILY</p>", "key_press": -1, "type": "PRES_VIS", "word": "lily", "wordID": 820, "conditions": [18, 1200, "v", 18000], "trial": 1, "serialpos": 16, "trial_type": "single-stim", "trial_index": 71, "time_elapsed": 384770, "internal_node_id": "0.0-53.0"}}, {"uniqueid": "MTK0736:33PPO7FECWM9MJ3MP0C5H64KI6WDIZ", "current_trial": 72, "dateTime": 1512678687911, "trialdata": {"rt": -1, "stimulus": "<p id=\"stim\">SPACE</p>", "key_press": -1, "type": "PRES_VIS", "word": "space", "wordID": 1344, "conditions": [18, 1200, "v", 18000], "trial": 1, "serialpos": 17, "trial_type": "single-stim", "trial_index": 72, "time_elapsed": 386955, "internal_node_id": "0.0-54.0"}}, {"uniqueid": "MTK0736:33PPO7FECWM9MJ3MP0C5H64KI6WDIZ", "current_trial": 73, "dateTime": 1512678690022, "trialdata": {"rt": -1, "stimulus": "", "key_press": -1, "type": "PRE_RECALL_DELAY", "trial_type": "single-stim", "trial_index": 73, "time_elapsed": 389066, "internal_node_id": "0.0-55.0-0.0"}}, {"uniqueid": "MTK0736:33PPO7FECWM9MJ3MP0C5H64KI6WDIZ", "current_trial": 74, "dateTime": 1512678690523, "trialdata": {"rt": -1000, "stimulus": "/static/audio/400Hz.wav", "key_press": -1, "type": "PRE_RECALL_ALERT", "trial_type": "single-audio", "trial_index": 74, "time_elapsed": 389568, "internal_node_id": "0.0-56.0"}}, {"uniqueid": "MTK0736:33PPO7FECWM9MJ3MP0C5H64KI6WDIZ", "current_trial": 75, "dateTime": 1512678750530, "trialdata": {"rt": [4153, 12313, 14253, 16124, 22105, 24297, 32820, 35565, 39396, 45126, 47380, 49235, 55408, 58661], "recwords": ["space", "lily", "mister", "apron", "dress", "body", "fonger", "concert", "handbag", "spider", "match", "camel", "dime", "palace"], "type": "FREE_RECALL", "conditions": [18, 1200, "v", 18000], "trial": 1, "trial_type": "free-recall", "trial_index": 75, "time_elapsed": 449573, "internal_node_id": "0.0-57.0-0.0"}}, {"uniqueid": "MTK0736:33PPO7FECWM9MJ3MP0C5H64KI6WDIZ", "current_trial": 76, "dateTime": 1512678760712, "trialdata": {"rt": 8176, "key_press": 32, "type": "INSTRUCTIONS", "trial_type": "text", "trial_index": 76, "time_elapsed": 459753, "internal_node_id": "0.0-58.0"}}, {"uniqueid": "MTK0736:33PPO7FECWM9MJ3MP0C5H64KI6WDIZ", "current_trial": 77, "dateTime": 1512678773715, "trialdata": {"rt": [3191, 7526, 9730], "responses": ["15", "19", "13"], "num1": [9, 2, 9, 4], "num2": [3, 9, 2, 3], "num3": [3, 8, 1, 5], "type": "DISTRACTOR", "conditions": [12, 1600, "v", 12000], "trial": 2, "trial_type": "math-distractor", "trial_index": 77, "time_elapsed": 472759, "internal_node_id": "0.0-59.0"}}, {"uniqueid": "MTK0736:33PPO7FECWM9MJ3MP0C5H64KI6WDIZ", "current_trial": 78, "dateTime": 1512678776718, "trialdata": {"rt": -1, "stimulus": "<p id=\"stim\">10</p>", "key_press": -1, "trial_type": "single-stim", "trial_index": 78, "time_elapsed": 475762, "internal_node_id": "0.0-60.0-0.0"}}, {"uniqueid": "MTK0736:33PPO7FECWM9MJ3MP0C5H64KI6WDIZ", "current_trial": 79, "dateTime": 1512678777718, "trialdata": {"rt": -1, "stimulus": "<p id=\"stim\">9</p>", "key_press": -1, "trial_type": "single-stim", "trial_index": 79, "time_elapsed": 476763, "internal_node_id": "0.0-60.0-1.0"}}, {"uniqueid": "MTK0736:33PPO7FECWM9MJ3MP0C5H64KI6WDIZ", "current_trial": 80, "dateTime": 1512678778719, "trialdata": {"rt": -1, "stimulus": "<p id=\"stim\">8</p>", "key_press": -1, "trial_type": "single-stim", "trial_index": 80, "time_elapsed": 477764, "internal_node_id": "0.0-60.0-2.0"}}, {"uniqueid": "MTK0736:33PPO7FECWM9MJ3MP0C5H64KI6WDIZ", "current_trial": 81, "dateTime": 1512678779722, "trialdata": {"rt": -1, "stimulus": "<p id=\"stim\">7</p>", "key_press": -1, "trial_type": "single-stim", "trial_index": 81, "time_elapsed": 478767, "internal_node_id": "0.0-60.0-3.0"}}, {"uniqueid": "MTK0736:33PPO7FECWM9MJ3MP0C5H64KI6WDIZ", "current_trial": 82, "dateTime": 1512678780726, "trialdata": {"rt": -1, "stimulus": "<p id=\"stim\">6</p>", "key_press": -1, "trial_type": "single-stim", "trial_index": 82, "time_elapsed": 479770, "internal_node_id": "0.0-60.0-4.0"}}, {"uniqueid": "MTK0736:33PPO7FECWM9MJ3MP0C5H64KI6WDIZ", "current_trial": 83, "dateTime": 1512678781729, "trialdata": {"rt": -1, "stimulus": "<p id=\"stim\">5</p>", "key_press": -1, "trial_type": "single-stim", "trial_index": 83, "time_elapsed": 480773, "internal_node_id": "0.0-60.0-5.0"}}, {"uniqueid": "MTK0736:33PPO7FECWM9MJ3MP0C5H64KI6WDIZ", "current_trial": 84, "dateTime": 1512678782732, "trialdata": {"rt": -1, "stimulus": "<p id=\"stim\">4</p>", "key_press": -1, "trial_type": "single-stim", "trial_index": 84, "time_elapsed": 481776, "internal_node_id": "0.0-60.0-6.0"}}, {"uniqueid": "MTK0736:33PPO7FECWM9MJ3MP0C5H64KI6WDIZ", "current_trial": 85, "dateTime": 1512678783733, "trialdata": {"rt": -1, "stimulus": "<p id=\"stim\">3</p>", "key_press": -1, "trial_type": "single-stim", "trial_index": 85, "time_elapsed": 482778, "internal_node_id": "0.0-60.0-7.0"}}, {"uniqueid": "MTK0736:33PPO7FECWM9MJ3MP0C5H64KI6WDIZ", "current_trial": 86, "dateTime": 1512678784735, "trialdata": {"rt": -1, "stimulus": "<p id=\"stim\">2</p>", "key_press": -1, "trial_type": "single-stim", "trial_index": 86, "time_elapsed": 483780, "internal_node_id": "0.0-60.0-8.0"}}, {"uniqueid": "MTK0736:33PPO7FECWM9MJ3MP0C5H64KI6WDIZ", "current_trial": 87, "dateTime": 1512678785738, "trialdata": {"rt": -1, "stimulus": "<p id=\"stim\">1</p>", "key_press": -1, "trial_type": "single-stim", "trial_index": 87, "time_elapsed": 484783, "internal_node_id": "0.0-60.0-9.0"}}, {"uniqueid": "MTK0736:33PPO7FECWM9MJ3MP0C5H64KI6WDIZ", "current_trial": 88, "dateTime": 1512678787240, "trialdata": {"rt": -1, "stimulus": "<p id=\"stim\">+</p>", "key_press": -1, "type": "FIXATION", "trial_type": "single-stim", "trial_index": 88, "time_elapsed": 486285, "internal_node_id": "0.0-61.0-0.0"}}, {"uniqueid": "MTK0736:33PPO7FECWM9MJ3MP0C5H64KI6WDIZ", "current_trial": 89, "dateTime": 1512678788841, "trialdata": {"rt": -1, "stimulus": "<p id=\"stim\">WRIST</p>", "key_press": -1, "type": "PRES_VIS", "word": "wrist", "wordID": 1625, "conditions": [12, 1600, "v", 12000], "trial": 2, "serialpos": 0, "trial_type": "single-stim", "trial_index": 89, "time_elapsed": 487886, "internal_node_id": "0.0-62.0"}}, {"uniqueid": "MTK0736:33PPO7FECWM9MJ3MP0C5H64KI6WDIZ", "current_trial": 90, "dateTime": 1512678791388, "trialdata": {"rt": -1, "stimulus": "<p id=\"stim\">BUNNY</p>", "key_press": -1, "type": "PRES_VIS", "word": "bunny", "wordID": 197, "conditions": [12, 1600, "v", 12000], "trial": 2, "serialpos": 1, "trial_type": "single-stim", "trial_index": 90, "time_elapsed": 490433, "internal_node_id": "0.0-63.0"}}, {"uniqueid": "MTK0736:33PPO7FECWM9MJ3MP0C5H64KI6WDIZ", "current_trial": 91, "dateTime": 1512678794187, "trialdata": {"rt": -1, "stimulus": "<p id=\"stim\">PENGUIN</p>", "key_press": -1, "type": "PRES_VIS", "word": "penguin", "wordID": 1043, "conditions": [12, 1600, "v", 12000], "trial": 2, "serialpos": 2, "trial_type": "single-stim", "trial_index": 91, "time_elapsed": 493232, "internal_node_id": "0.0-64.0"}}, {"uniqueid": "MTK0736:33PPO7FECWM9MJ3MP0C5H64KI6WDIZ", "current_trial": 92, "dateTime": 1512678796800, "trialdata": {"rt": -1, "stimulus": "<p id=\"stim\">PECAN</p>", "key_press": -1, "type": "PRES_VIS", "word": "pecan", "wordID": 1035, "conditions": [12, 1600, "v", 12000], "trial": 2, "serialpos": 3, "trial_type": "single-stim", "trial_index": 92, "time_elapsed": 495845, "internal_node_id": "0.0-65.0"}}, {"uniqueid": "MTK0736:33PPO7FECWM9MJ3MP0C5H64KI6WDIZ", "current_trial": 93, "dateTime": 1512678799282, "trialdata": {"rt": -1, "stimulus": "<p id=\"stim\">MILK</p>", "key_press": -1, "type": "PRES_VIS", "word": "milk", "wordID": 894, "conditions": [12, 1600, "v", 12000], "trial": 2, "serialpos": 4, "trial_type": "single-stim", "trial_index": 93, "time_elapsed": 498327, "internal_node_id": "0.0-66.0"}}, {"uniqueid": "MTK0736:33PPO7FECWM9MJ3MP0C5H64KI6WDIZ", "current_trial": 94, "dateTime": 1512678801867, "trialdata": {"rt": -1, "stimulus": "<p id=\"stim\">SCARF</p>", "key_press": -1, "type": "PRES_VIS", "word": "scarf", "wordID": 1245, "conditions": [12, 1600, "v", 12000], "trial": 2, "serialpos": 5, "trial_type": "single-stim", "trial_index": 94, "time_elapsed": 500912, "internal_node_id": "0.0-67.0"}}, {"uniqueid": "MTK0736:33PPO7FECWM9MJ3MP0C5H64KI6WDIZ", "current_trial": 95, "dateTime": 1512678804661, "trialdata": {"rt": -1, "stimulus": "<p id=\"stim\">PATIENT</p>", "key_press": -1, "type": "PRES_VIS", "word": "patient", "wordID": 1023, "conditions": [12, 1600, "v", 12000], "trial": 2, "serialpos": 6, "trial_type": "single-stim", "trial_index": 95, "time_elapsed": 503706, "internal_node_id": "0.0-68.0"}}, {"uniqueid": "MTK0736:33PPO7FECWM9MJ3MP0C5H64KI6WDIZ", "current_trial": 96, "dateTime": 1512678807218, "trialdata": {"rt": -1, "stimulus": "<p id=\"stim\">SERVER</p>", "key_press": -1, "type": "PRES_VIS", "word": "server", "wordID": 1271, "conditions": [12, 1600, "v", 12000], "trial": 2, "serialpos": 7, "trial_type": "single-stim", "trial_index": 96, "time_elapsed": 506263, "internal_node_id": "0.0-69.0"}}, {"uniqueid": "MTK0736:33PPO7FECWM9MJ3MP0C5H64KI6WDIZ", "current_trial": 97, "dateTime": 1512678809897, "trialdata": {"rt": -1, "stimulus": "<p id=\"stim\">PEACH</p>", "key_press": -1, "type": "PRES_VIS", "word": "peach", "wordID": 1030, "conditions": [12, 1600, "v", 12000], "trial": 2, "serialpos": 8, "trial_type": "single-stim", "trial_index": 97, "time_elapsed": 508941, "internal_node_id": "0.0-70.0"}}, {"uniqueid": "MTK0736:33PPO7FECWM9MJ3MP0C5H64KI6WDIZ", "current_trial": 98, "dateTime": 1512678812324, "trialdata": {"rt": -1, "stimulus": "<p id=\"stim\">ORCHID</p>", "key_press": -1, "type": "PRES_VIS", "word": "orchid", "wordID": 981, "conditions": [12, 1600, "v", 12000], "trial": 2, "serialpos": 9, "trial_type": "single-stim", "trial_index": 98, "time_elapsed": 511369, "internal_node_id": "0.0-71.0"}}, {"uniqueid": "MTK0736:33PPO7FECWM9MJ3MP0C5H64KI6WDIZ", "current_trial": 99, "dateTime": 1512678815101, "trialdata": {"rt": -1, "stimulus": "<p id=\"stim\">PARSLEY</p>", "key_press": -1, "type": "PRES_VIS", "word": "parsley", "wordID": 1015, "conditions": [12, 1600, "v", 12000], "trial": 2, "serialpos": 10, "trial_type": "single-stim", "trial_index": 99, "time_elapsed": 514146, "internal_node_id": "0.0-72.0"}}, {"uniqueid": "MTK0736:33PPO7FECWM9MJ3MP0C5H64KI6WDIZ", "current_trial": 100, "dateTime": 1512678817745, "trialdata": {"rt": -1, "stimulus": "<p id=\"stim\">MAPLE</p>", "key_press": -1, "type": "PRES_VIS", "word": "maple", "wordID": 865, "conditions": [12, 1600, "v", 12000], "trial": 2, "serialpos": 11, "trial_type": "single-stim", "trial_index": 100, "time_elapsed": 516790, "internal_node_id": "0.0-73.0"}}, {"uniqueid": "MTK0736:33PPO7FECWM9MJ3MP0C5H64KI6WDIZ", "current_trial": 101, "dateTime": 1512678820171, "trialdata": {"rt": -1, "stimulus": "", "key_press": -1, "type": "PRE_RECALL_DELAY", "trial_type": "single-stim", "trial_index": 101, "time_elapsed": 519216, "internal_node_id": "0.0-74.0-0.0"}}, {"uniqueid": "MTK0736:33PPO7FECWM9MJ3MP0C5H64KI6WDIZ", "current_trial": 102, "dateTime": 1512678820675, "trialdata": {"rt": -1000, "stimulus": "/static/audio/400Hz.wav", "key_press": -1, "type": "PRE_RECALL_ALERT", "trial_type": "single-audio", "trial_index": 102, "time_elapsed": 519720, "internal_node_id": "0.0-75.0"}}, {"uniqueid": "MTK0736:33PPO7FECWM9MJ3MP0C5H64KI6WDIZ", "current_trial": 103, "dateTime": 1512678880681, "trialdata": {"rt": [6341, 8838, 14841, 16663, 23158, 24710, 29846, 31581, 38286, 39950], "recwords": ["maple", "parsley", "peach", "server", "patient", "scarf", "milk", "pecan", "bunny", "wrist"], "type": "FREE_RECALL", "conditions": [12, 1600, "v", 12000], "trial": 2, "trial_type": "free-recall", "trial_index": 103, "time_elapsed": 579724, "internal_node_id": "0.0-76.0-0.0"}}, {"uniqueid": "MTK0736:33PPO7FECWM9MJ3MP0C5H64KI6WDIZ", "current_trial": 104, "dateTime": 1512678885736, "trialdata": {"rt": 3052, "key_press": 32, "type": "INSTRUCTIONS", "trial_type": "text", "trial_index": 104, "time_elapsed": 584781, "internal_node_id": "0.0-77.0"}}, {"uniqueid": "MTK0736:33PPO7FECWM9MJ3MP0C5H64KI6WDIZ", "current_trial": 105, "dateTime": 1512678911743, "trialdata": {"rt": [2407, 4093, 6497, 8637, 10339, 12351, 14412, 16672, 18509, 20187, 22773], "responses": ["15", "13", "20", "18", "12", "17", "15", "19", "18", "13", "14"], "num1": [9, 4, 5, 3, 1, 5, 6, 8, 6, 5, 1, 1], "num2": [1, 6, 9, 7, 2, 5, 3, 4, 6, 3, 8, 1], "num3": [5, 3, 6, 8, 9, 7, 6, 7, 6, 5, 5, 8], "type": "DISTRACTOR", "conditions": [12, 800, "v", 24000], "trial": 3, "trial_type": "math-distractor", "trial_index": 105, "time_elapsed": 610788, "internal_node_id": "0.0-78.0"}}, {"uniqueid": "MTK0736:33PPO7FECWM9MJ3MP0C5H64KI6WDIZ", "current_trial": 106, "dateTime": 1512678914747, "trialdata": {"rt": -1, "stimulus": "<p id=\"stim\">10</p>", "key_press": -1, "trial_type": "single-stim", "trial_index": 106, "time_elapsed": 613791, "internal_node_id": "0.0-79.0-0.0"}}, {"uniqueid": "MTK0736:33PPO7FECWM9MJ3MP0C5H64KI6WDIZ", "current_trial": 107, "dateTime": 1512678915749, "trialdata": {"rt": -1, "stimulus": "<p id=\"stim\">9</p>", "key_press": -1, "trial_type": "single-stim", "trial_index": 107, "time_elapsed": 614794, "internal_node_id": "0.0-79.0-1.0"}}, {"uniqueid": "MTK0736:33PPO7FECWM9MJ3MP0C5H64KI6WDIZ", "current_trial": 108, "dateTime": 1512678916751, "trialdata": {"rt": -1, "stimulus": "<p id=\"stim\">8</p>", "key_press": -1, "trial_type": "single-stim", "trial_index": 108, "time_elapsed": 615796, "internal_node_id": "0.0-79.0-2.0"}}, {"uniqueid": "MTK0736:33PPO7FECWM9MJ3MP0C5H64KI6WDIZ", "current_trial": 109, "dateTime": 1512678917754, "trialdata": {"rt": -1, "stimulus": "<p id=\"stim\">7</p>", "key_press": -1, "trial_type": "single-stim", "trial_index": 109, "time_elapsed": 616798, "internal_node_id": "0.0-79.0-3.0"}}, {"uniqueid": "MTK0736:33PPO7FECWM9MJ3MP0C5H64KI6WDIZ", "current_trial": 110, "dateTime": 1512678918755, "trialdata": {"rt": -1, "stimulus": "<p id=\"stim\">6</p>", "key_press": -1, "trial_type": "single-stim", "trial_index": 110, "time_elapsed": 617800, "internal_node_id": "0.0-79.0-4.0"}}, {"uniqueid": "MTK0736:33PPO7FECWM9MJ3MP0C5H64KI6WDIZ", "current_trial": 111, "dateTime": 1512678919758, "trialdata": {"rt": -1, "stimulus": "<p id=\"stim\">5</p>", "key_press": -1, "trial_type": "single-stim", "trial_index": 111, "time_elapsed": 618802, "internal_node_id": "0.0-79.0-5.0"}}, {"uniqueid": "MTK0736:33PPO7FECWM9MJ3MP0C5H64KI6WDIZ", "current_trial": 112, "dateTime": 1512678920761, "trialdata": {"rt": -1, "stimulus": "<p id=\"stim\">4</p>", "key_press": -1, "trial_type": "single-stim", "trial_index": 112, "time_elapsed": 619805, "internal_node_id": "0.0-79.0-6.0"}}, {"uniqueid": "MTK0736:33PPO7FECWM9MJ3MP0C5H64KI6WDIZ", "current_trial": 113, "dateTime": 1512678921762, "trialdata": {"rt": -1, "stimulus": "<p id=\"stim\">3</p>", "key_press": -1, "trial_type": "single-stim", "trial_index": 113, "time_elapsed": 620807, "internal_node_id": "0.0-79.0-7.0"}}, {"uniqueid": "MTK0736:33PPO7FECWM9MJ3MP0C5H64KI6WDIZ", "current_trial": 114, "dateTime": 1512678922765, "trialdata": {"rt": -1, "stimulus": "<p id=\"stim\">2</p>", "key_press": -1, "trial_type": "single-stim", "trial_index": 114, "time_elapsed": 621810, "internal_node_id": "0.0-79.0-8.0"}}, {"uniqueid": "MTK0736:33PPO7FECWM9MJ3MP0C5H64KI6WDIZ", "current_trial": 115, "dateTime": 1512678923766, "trialdata": {"rt": -1, "stimulus": "<p id=\"stim\">1</p>", "key_press": -1, "trial_type": "single-stim", "trial_index": 115, "time_elapsed": 622811, "internal_node_id": "0.0-79.0-9.0"}}, {"uniqueid": "MTK0736:33PPO7FECWM9MJ3MP0C5H64KI6WDIZ", "current_trial": 116, "dateTime": 1512678925267, "trialdata": {"rt": -1, "stimulus": "<p id=\"stim\">+</p>", "key_press": -1, "type": "FIXATION", "trial_type": "single-stim", "trial_index": 116, "time_elapsed": 624312, "internal_node_id": "0.0-80.0-0.0"}}, {"uniqueid": "MTK0736:33PPO7FECWM9MJ3MP0C5H64KI6WDIZ", "current_trial": 117, "dateTime": 1512678926069, "trialdata": {"rt": -1, "stimulus": "<p id=\"stim\">TURTLE</p>", "key_press": -1, "type": "PRES_VIS", "word": "turtle", "wordID": 1521, "conditions": [12, 800, "v", 24000], "trial": 3, "serialpos": 0, "trial_type": "single-stim", "trial_index": 117, "time_elapsed": 625114, "internal_node_id": "0.0-81.0"}}, {"uniqueid": "MTK0736:33PPO7FECWM9MJ3MP0C5H64KI6WDIZ", "current_trial": 118, "dateTime": 1512678927763, "trialdata": {"rt": -1, "stimulus": "<p id=\"stim\">SHELF</p>", "key_press": -1, "type": "PRES_VIS", "word": "shelf", "wordID": 1279, "conditions": [12, 800, "v", 24000], "trial": 3, "serialpos": 1, "trial_type": "single-stim", "trial_index": 118, "time_elapsed": 626808, "internal_node_id": "0.0-82.0"}}, {"uniqueid": "MTK0736:33PPO7FECWM9MJ3MP0C5H64KI6WDIZ", "current_trial": 119, "dateTime": 1512678929643, "trialdata": {"rt": -1, "stimulus": "<p id=\"stim\">SALAD</p>", "key_press": -1, "type": "PRES_VIS", "word": "salad", "wordID": 1223, "conditions": [12, 800, "v", 24000], "trial": 3, "serialpos": 2, "trial_type": "single-stim", "trial_index": 119, "time_elapsed": 628688, "internal_node_id": "0.0-83.0"}}, {"uniqueid": "MTK0736:33PPO7FECWM9MJ3MP0C5H64KI6WDIZ", "current_trial": 120, "dateTime": 1512678931449, "trialdata": {"rt": -1, "stimulus": "<p id=\"stim\">EUROPE</p>", "key_press": -1, "type": "PRES_VIS", "word": "europe", "wordID": 540, "conditions": [12, 800, "v", 24000], "trial": 3, "serialpos": 3, "trial_type": "single-stim", "trial_index": 120, "time_elapsed": 630493, "internal_node_id": "0.0-84.0"}}, {"uniqueid": "MTK0736:33PPO7FECWM9MJ3MP0C5H64KI6WDIZ", "current_trial": 121, "dateTime": 1512678933360, "trialdata": {"rt": -1, "stimulus": "<p id=\"stim\">SHIRT</p>", "key_press": -1, "type": "PRES_VIS", "word": "shirt", "wordID": 1286, "conditions": [12, 800, "v", 24000], "trial": 3, "serialpos": 4, "trial_type": "single-stim", "trial_index": 121, "time_elapsed": 632405, "internal_node_id": "0.0-85.0"}}, {"uniqueid": "MTK0736:33PPO7FECWM9MJ3MP0C5H64KI6WDIZ", "current_trial": 122, "dateTime": 1512678935128, "trialdata": {"rt": -1, "stimulus": "<p id=\"stim\">BLOUSE</p>", "key_press": -1, "type": "PRES_VIS", "word": "blouse", "wordID": 138, "conditions": [12, 800, "v", 24000], "trial": 3, "serialpos": 5, "trial_type": "single-stim", "trial_index": 122, "time_elapsed": 634173, "internal_node_id": "0.0-86.0"}}, {"uniqueid": "MTK0736:33PPO7FECWM9MJ3MP0C5H64KI6WDIZ", "current_trial": 123, "dateTime": 1512678936941, "trialdata": {"rt": -1, "stimulus": "<p id=\"stim\">PADDLE</p>", "key_press": -1, "type": "PRES_VIS", "word": "paddle", "wordID": 999, "conditions": [12, 800, "v", 24000], "trial": 3, "serialpos": 6, "trial_type": "single-stim", "trial_index": 123, "time_elapsed": 635986, "internal_node_id": "0.0-87.0"}}, {"uniqueid": "MTK0736:33PPO7FECWM9MJ3MP0C5H64KI6WDIZ", "current_trial": 124, "dateTime": 1512678938781, "trialdata": {"rt": -1, "stimulus": "<p id=\"stim\">DORM</p>", "key_press": -1, "type": "PRES_VIS", "word": "dorm", "wordID": 487, "conditions": [12, 800, "v", 24000], "trial": 3, "serialpos": 7, "trial_type": "single-stim", "trial_index": 124, "time_elapsed": 637825, "internal_node_id": "0.0-88.0"}}, {"uniqueid": "MTK0736:33PPO7FECWM9MJ3MP0C5H64KI6WDIZ", "current_trial": 125, "dateTime": 1512678940444, "trialdata": {"rt": -1, "stimulus": "<p id=\"stim\">FOOTBALL</p>", "key_press": -1, "type": "PRES_VIS", "word": "football", "wordID": 590, "conditions": [12, 800, "v", 24000], "trial": 3, "serialpos": 8, "trial_type": "single-stim", "trial_index": 125, "time_elapsed": 639489, "internal_node_id": "0.0-89.0"}}, {"uniqueid": "MTK0736:33PPO7FECWM9MJ3MP0C5H64KI6WDIZ", "current_trial": 126, "dateTime": 1512678942124, "trialdata": {"rt": -1, "stimulus": "<p id=\"stim\">SPOON</p>", "key_press": -1, "type": "PRES_VIS", "word": "spoon", "wordID": 1356, "conditions": [12, 800, "v", 24000], "trial": 3, "serialpos": 9, "trial_type": "single-stim", "trial_index": 126, "time_elapsed": 641169, "internal_node_id": "0.0-90.0"}}, {"uniqueid": "MTK0736:33PPO7FECWM9MJ3MP0C5H64KI6WDIZ", "current_trial": 127, "dateTime": 1512678943773, "trialdata": {"rt": -1, "stimulus": "<p id=\"stim\">FIREPLACE</p>", "key_press": -1, "type": "PRES_VIS", "word": "fireplace", "wordID": 569, "conditions": [12, 800, "v", 24000], "trial": 3, "serialpos": 10, "trial_type": "single-stim", "trial_index": 127, "time_elapsed": 642818, "internal_node_id": "0.0-91.0"}}, {"uniqueid": "MTK0736:33PPO7FECWM9MJ3MP0C5H64KI6WDIZ", "current_trial": 128, "dateTime": 1512678945386, "trialdata": {"rt": -1, "stimulus": "<p id=\"stim\">STUDENT</p>", "key_press": -1, "type": "PRES_VIS", "word": "student", "wordID": 1394, "conditions": [12, 800, "v", 24000], "trial": 3, "serialpos": 11, "trial_type": "single-stim", "trial_index": 128, "time_elapsed": 644431, "internal_node_id": "0.0-92.0"}}, {"uniqueid": "MTK0736:33PPO7FECWM9MJ3MP0C5H64KI6WDIZ", "current_trial": 129, "dateTime": 1512678947678, "trialdata": {"rt": -1, "stimulus": "", "key_press": -1, "type": "PRE_RECALL_DELAY", "trial_type": "single-stim", "trial_index": 129, "time_elapsed": 646722, "internal_node_id": "0.0-93.0-0.0"}}, {"uniqueid": "MTK0736:33PPO7FECWM9MJ3MP0C5H64KI6WDIZ", "current_trial": 130, "dateTime": 1512678948181, "trialdata": {"rt": -1000, "stimulus": "/static/audio/400Hz.wav", "key_press": -1, "type": "PRE_RECALL_ALERT", "trial_type": "single-audio", "trial_index": 130, "time_elapsed": 647226, "internal_node_id": "0.0-94.0"}}, {"uniqueid": "MTK0736:33PPO7FECWM9MJ3MP0C5H64KI6WDIZ", "current_trial": 131, "dateTime": 1512679008187, "trialdata": {"rt": [10381, 12439, 20023, 22590, 28824, 35408, 40501, 43870, 45750], "recwords": ["fireplace", "student", "spoon", "football", "blouse", "europe", "salad", "turtle", "shelf"], "type": "FREE_RECALL", "conditions": [12, 800, "v", 24000], "trial": 3, "trial_type": "free-recall", "trial_index": 131, "time_elapsed": 707230, "internal_node_id": "0.0-95.0-0.0"}}, {"uniqueid": "MTK0736:33PPO7FECWM9MJ3MP0C5H64KI6WDIZ", "current_trial": 132, "dateTime": 1512679020089, "trialdata": {"rt": 9901, "key_press": 32, "type": "INSTRUCTIONS", "trial_type": "text", "trial_index": 132, "time_elapsed": 719134, "internal_node_id": "0.0-96.0"}}, {"uniqueid": "MTK0736:33PPO7FECWM9MJ3MP0C5H64KI6WDIZ", "current_trial": 133, "dateTime": 1512679034095, "trialdata": {"rt": [2689, 4366, 6522, 10573], "responses": ["11", "17", "17", "19"], "num1": [2, 8, 6, 6, 9], "num2": [4, 8, 6, 7, 8], "num3": [5, 1, 5, 6, 5], "type": "DISTRACTOR", "conditions": [24, 1600, "v", 12000], "trial": 4, "trial_type": "math-distractor", "trial_index": 133, "time_elapsed": 733140, "internal_node_id": "0.0-97.0"}}, {"uniqueid": "MTK0736:33PPO7FECWM9MJ3MP0C5H64KI6WDIZ", "current_trial": 134, "dateTime": 1512679037097, "trialdata": {"rt": -1, "stimulus": "<p id=\"stim\">10</p>", "key_press": -1, "trial_type": "single-stim", "trial_index": 134, "time_elapsed": 736142, "internal_node_id": "0.0-98.0-0.0"}}, {"uniqueid": "MTK0736:33PPO7FECWM9MJ3MP0C5H64KI6WDIZ", "current_trial": 135, "dateTime": 1512679038101, "trialdata": {"rt": -1, "stimulus": "<p id=\"stim\">9</p>", "key_press": -1, "trial_type": "single-stim", "trial_index": 135, "time_elapsed": 737145, "internal_node_id": "0.0-98.0-1.0"}}, {"uniqueid": "MTK0736:33PPO7FECWM9MJ3MP0C5H64KI6WDIZ", "current_trial": 136, "dateTime": 1512679039102, "trialdata": {"rt": -1, "stimulus": "<p id=\"stim\">8</p>", "key_press": -1, "trial_type": "single-stim", "trial_index": 136, "time_elapsed": 738147, "internal_node_id": "0.0-98.0-2.0"}}, {"uniqueid": "MTK0736:33PPO7FECWM9MJ3MP0C5H64KI6WDIZ", "current_trial": 137, "dateTime": 1512679040104, "trialdata": {"rt": -1, "stimulus": "<p id=\"stim\">7</p>", "key_press": -1, "trial_type": "single-stim", "trial_index": 137, "time_elapsed": 739149, "internal_node_id": "0.0-98.0-3.0"}}, {"uniqueid": "MTK0736:33PPO7FECWM9MJ3MP0C5H64KI6WDIZ", "current_trial": 138, "dateTime": 1512679041108, "trialdata": {"rt": -1, "stimulus": "<p id=\"stim\">6</p>", "key_press": -1, "trial_type": "single-stim", "trial_index": 138, "time_elapsed": 740152, "internal_node_id": "0.0-98.0-4.0"}}, {"uniqueid": "MTK0736:33PPO7FECWM9MJ3MP0C5H64KI6WDIZ", "current_trial": 139, "dateTime": 1512679042108, "trialdata": {"rt": -1, "stimulus": "<p id=\"stim\">5</p>", "key_press": -1, "trial_type": "single-stim", "trial_index": 139, "time_elapsed": 741153, "internal_node_id": "0.0-98.0-5.0"}}, {"uniqueid": "MTK0736:33PPO7FECWM9MJ3MP0C5H64KI6WDIZ", "current_trial": 140, "dateTime": 1512679043110, "trialdata": {"rt": -1, "stimulus": "<p id=\"stim\">4</p>", "key_press": -1, "trial_type": "single-stim", "trial_index": 140, "time_elapsed": 742155, "internal_node_id": "0.0-98.0-6.0"}}, {"uniqueid": "MTK0736:33PPO7FECWM9MJ3MP0C5H64KI6WDIZ", "current_trial": 141, "dateTime": 1512679044112, "trialdata": {"rt": -1, "stimulus": "<p id=\"stim\">3</p>", "key_press": -1, "trial_type": "single-stim", "trial_index": 141, "time_elapsed": 743157, "internal_node_id": "0.0-98.0-7.0"}}, {"uniqueid": "MTK0736:33PPO7FECWM9MJ3MP0C5H64KI6WDIZ", "current_trial": 142, "dateTime": 1512679045114, "trialdata": {"rt": -1, "stimulus": "<p id=\"stim\">2</p>", "key_press": -1, "trial_type": "single-stim", "trial_index": 142, "time_elapsed": 744159, "internal_node_id": "0.0-98.0-8.0"}}, {"uniqueid": "MTK0736:33PPO7FECWM9MJ3MP0C5H64KI6WDIZ", "current_trial": 143, "dateTime": 1512679046116, "trialdata": {"rt": -1, "stimulus": "<p id=\"stim\">1</p>", "key_press": -1, "trial_type": "single-stim", "trial_index": 143, "time_elapsed": 745161, "internal_node_id": "0.0-98.0-9.0"}}, {"uniqueid": "MTK0736:33PPO7FECWM9MJ3MP0C5H64KI6WDIZ", "current_trial": 144, "dateTime": 1512679047618, "trialdata": {"rt": -1, "stimulus": "<p id=\"stim\">+</p>", "key_press": -1, "type": "FIXATION", "trial_type": "single-stim", "trial_index": 144, "time_elapsed": 746662, "internal_node_id": "0.0-99.0-0.0"}}, {"uniqueid": "MTK0736:33PPO7FECWM9MJ3MP0C5H64KI6WDIZ", "current_trial": 145, "dateTime": 1512679049219, "trialdata": {"rt": -1, "stimulus": "<p id=\"stim\">TURKEY</p>", "key_press": -1, "type": "PRES_VIS", "word": "turkey", "wordID": 1519, "conditions": [24, 1600, "v", 12000], "trial": 4, "serialpos": 0, "trial_type": "single-stim", "trial_index": 145, "time_elapsed": 748264, "internal_node_id": "0.0-100.0"}}, {"uniqueid": "MTK0736:33PPO7FECWM9MJ3MP0C5H64KI6WDIZ", "current_trial": 146, "dateTime": 1512679051757, "trialdata": {"rt": -1, "stimulus": "<p id=\"stim\">CLOTHES</p>", "key_press": -1, "type": "PRES_VIS", "word": "clothes", "wordID": 326, "conditions": [24, 1600, "v", 12000], "trial": 4, "serialpos": 1, "trial_type": "single-stim", "trial_index": 146, "time_elapsed": 750802, "internal_node_id": "0.0-101.0"}}, {"uniqueid": "MTK0736:33PPO7FECWM9MJ3MP0C5H64KI6WDIZ", "current_trial": 147, "dateTime": 1512679054275, "trialdata": {"rt": -1, "stimulus": "<p id=\"stim\">OUTFIT</p>", "key_press": -1, "type": "PRES_VIS", "word": "outfit", "wordID": 987, "conditions": [24, 1600, "v", 12000], "trial": 4, "serialpos": 2, "trial_type": "single-stim", "trial_index": 147, "time_elapsed": 753320, "internal_node_id": "0.0-102.0"}}, {"uniqueid": "MTK0736:33PPO7FECWM9MJ3MP0C5H64KI6WDIZ", "current_trial": 148, "dateTime": 1512679057031, "trialdata": {"rt": -1, "stimulus": "<p id=\"stim\">QUAIL</p>", "key_press": -1, "type": "PRES_VIS", "word": "quail", "wordID": 1146, "conditions": [24, 1600, "v", 12000], "trial": 4, "serialpos": 3, "trial_type": "single-stim", "trial_index": 148, "time_elapsed": 756075, "internal_node_id": "0.0-103.0"}}, {"uniqueid": "MTK0736:33PPO7FECWM9MJ3MP0C5H64KI6WDIZ", "current_trial": 149, "dateTime": 1512679059575, "trialdata": {"rt": -1, "stimulus": "<p id=\"stim\">TRANSPLANT</p>", "key_press": -1, "type": "PRES_VIS", "word": "transplant", "wordID": 1495, "conditions": [24, 1600, "v", 12000], "trial": 4, "serialpos": 4, "trial_type": "single-stim", "trial_index": 149, "time_elapsed": 758620, "internal_node_id": "0.0-104.0"}}, {"uniqueid": "MTK0736:33PPO7FECWM9MJ3MP0C5H64KI6WDIZ", "current_trial": 150, "dateTime": 1512679062144, "trialdata": {"rt": -1, "stimulus": "<p id=\"stim\">SILK</p>", "key_press": -1, "type": "PRES_VIS", "word": "silk", "wordID": 1306, "conditions": [24, 1600, "v", 12000], "trial": 4, "serialpos": 5, "trial_type": "single-stim", "trial_index": 150, "time_elapsed": 761189, "internal_node_id": "0.0-105.0"}}, {"uniqueid": "MTK0736:33PPO7FECWM9MJ3MP0C5H64KI6WDIZ", "current_trial": 151, "dateTime": 1512679064696, "trialdata": {"rt": -1, "stimulus": "<p id=\"stim\">WOMAN</p>", "key_press": -1, "type": "PRES_VIS", "word": "woman", "wordID": 1619, "conditions": [24, 1600, "v", 12000], "trial": 4, "serialpos": 6, "trial_type": "single-stim", "trial_index": 151, "time_elapsed": 763740, "internal_node_id": "0.0-106.0"}}, {"uniqueid": "MTK0736:33PPO7FECWM9MJ3MP0C5H64KI6WDIZ", "current_trial": 152, "dateTime": 1512679067368, "trialdata": {"rt": -1, "stimulus": "<p id=\"stim\">NEUTRON</p>", "key_press": -1, "type": "PRES_VIS", "word": "neutron", "wordID": 946, "conditions": [24, 1600, "v", 12000], "trial": 4, "serialpos": 7, "trial_type": "single-stim", "trial_index": 152, "time_elapsed": 766412, "internal_node_id": "0.0-107.0"}}, {"uniqueid": "MTK0736:33PPO7FECWM9MJ3MP0C5H64KI6WDIZ", "current_trial": 153, "dateTime": 1512679069852, "trialdata": {"rt": -1, "stimulus": "<p id=\"stim\">BUCKET</p>", "key_press": -1, "type": "PRES_VIS", "word": "bucket", "wordID": 183, "conditions": [24, 1600, "v", 12000], "trial": 4, "serialpos": 8, "trial_type": "single-stim", "trial_index": 153, "time_elapsed": 768897, "internal_node_id": "0.0-108.0"}}, {"uniqueid": "MTK0736:33PPO7FECWM9MJ3MP0C5H64KI6WDIZ", "current_trial": 154, "dateTime": 1512679072451, "trialdata": {"rt": -1, "stimulus": "<p id=\"stim\">WHISTLE</p>", "key_press": -1, "type": "PRES_VIS", "word": "whistle", "wordID": 1605, "conditions": [24, 1600, "v", 12000], "trial": 4, "serialpos": 9, "trial_type": "single-stim", "trial_index": 154, "time_elapsed": 771496, "internal_node_id": "0.0-109.0"}}, {"uniqueid": "MTK0736:33PPO7FECWM9MJ3MP0C5H64KI6WDIZ", "current_trial": 155, "dateTime": 1512679074926, "trialdata": {"rt": -1, "stimulus": "<p id=\"stim\">MARROW</p>", "key_press": -1, "type": "PRES_VIS", "word": "marrow", "wordID": 871, "conditions": [24, 1600, "v", 12000], "trial": 4, "serialpos": 10, "trial_type": "single-stim", "trial_index": 155, "time_elapsed": 773971, "internal_node_id": "0.0-110.0"}}, {"uniqueid": "MTK0736:33PPO7FECWM9MJ3MP0C5H64KI6WDIZ", "current_trial": 156, "dateTime": 1512679077408, "trialdata": {"rt": -1, "stimulus": "<p id=\"stim\">LIVER</p>", "key_press": -1, "type": "PRES_VIS", "word": "liver", "wordID": 832, "conditions": [24, 1600, "v", 12000], "trial": 4, "serialpos": 11, "trial_type": "single-stim", "trial_index": 156, "time_elapsed": 776453, "internal_node_id": "0.0-111.0"}}, {"uniqueid": "MTK0736:33PPO7FECWM9MJ3MP0C5H64KI6WDIZ", "current_trial": 157, "dateTime": 1512679080097, "trialdata": {"rt": -1, "stimulus": "<p id=\"stim\">SWIMMER</p>", "key_press": -1, "type": "PRES_VIS", "word": "swimmer", "wordID": 1419, "conditions": [24, 1600, "v", 12000], "trial": 4, "serialpos": 12, "trial_type": "single-stim", "trial_index": 157, "time_elapsed": 779141, "internal_node_id": "0.0-112.0"}}, {"uniqueid": "MTK0736:33PPO7FECWM9MJ3MP0C5H64KI6WDIZ", "current_trial": 158, "dateTime": 1512679082767, "trialdata": {"rt": -1, "stimulus": "<p id=\"stim\">PUDDING</p>", "key_press": -1, "type": "PRES_VIS", "word": "pudding", "wordID": 1138, "conditions": [24, 1600, "v", 12000], "trial": 4, "serialpos": 13, "trial_type": "single-stim", "trial_index": 158, "time_elapsed": 781811, "internal_node_id": "0.0-113.0"}}, {"uniqueid": "MTK0736:33PPO7FECWM9MJ3MP0C5H64KI6WDIZ", "current_trial": 159, "dateTime": 1512679085228, "trialdata": {"rt": -1, "stimulus": "<p id=\"stim\">MISSILE</p>", "key_press": -1, "type": "PRES_VIS", "word": "missile", "wordID": 899, "conditions": [24, 1600, "v", 12000], "trial": 4, "serialpos": 14, "trial_type": "single-stim", "trial_index": 159, "time_elapsed": 784272, "internal_node_id": "0.0-114.0"}}, {"uniqueid": "MTK0736:33PPO7FECWM9MJ3MP0C5H64KI6WDIZ", "current_trial": 160, "dateTime": 1512679087786, "trialdata": {"rt": -1, "stimulus": "<p id=\"stim\">SWITCH</p>", "key_press": -1, "type": "PRES_VIS", "word": "switch", "wordID": 1421, "conditions": [24, 1600, "v", 12000], "trial": 4, "serialpos": 15, "trial_type": "single-stim", "trial_index": 160, "time_elapsed": 786831, "internal_node_id": "0.0-115.0"}}, {"uniqueid": "MTK0736:33PPO7FECWM9MJ3MP0C5H64KI6WDIZ", "current_trial": 161, "dateTime": 1512679090428, "trialdata": {"rt": -1, "stimulus": "<p id=\"stim\">YACHT</p>", "key_press": -1, "type": "PRES_VIS", "word": "yacht", "wordID": 1628, "conditions": [24, 1600, "v", 12000], "trial": 4, "serialpos": 16, "trial_type": "single-stim", "trial_index": 161, "time_elapsed": 789473, "internal_node_id": "0.0-116.0"}}, {"uniqueid": "MTK0736:33PPO7FECWM9MJ3MP0C5H64KI6WDIZ", "current_trial": 162, "dateTime": 1512679092855, "trialdata": {"rt": -1, "stimulus": "<p id=\"stim\">PIZZA</p>", "key_press": -1, "type": "PRES_VIS", "word": "pizza", "wordID": 1078, "conditions": [24, 1600, "v", 12000], "trial": 4, "serialpos": 17, "trial_type": "single-stim", "trial_index": 162, "time_elapsed": 791900, "internal_node_id": "0.0-117.0"}}, {"uniqueid": "MTK0736:33PPO7FECWM9MJ3MP0C5H64KI6WDIZ", "current_trial": 163, "dateTime": 1512679095497, "trialdata": {"rt": -1, "stimulus": "<p id=\"stim\">ARMY</p>", "key_press": -1, "type": "PRES_VIS", "word": "army", "wordID": 38, "conditions": [24, 1600, "v", 12000], "trial": 4, "serialpos": 18, "trial_type": "single-stim", "trial_index": 163, "time_elapsed": 794542, "internal_node_id": "0.0-118.0"}}, {"uniqueid": "MTK0736:33PPO7FECWM9MJ3MP0C5H64KI6WDIZ", "current_trial": 164, "dateTime": 1512679098103, "trialdata": {"rt": -1, "stimulus": "<p id=\"stim\">ISLAND</p>", "key_press": -1, "type": "PRES_VIS", "word": "island", "wordID": 744, "conditions": [24, 1600, "v", 12000], "trial": 4, "serialpos": 19, "trial_type": "single-stim", "trial_index": 164, "time_elapsed": 797148, "internal_node_id": "0.0-119.0"}}, {"uniqueid": "MTK0736:33PPO7FECWM9MJ3MP0C5H64KI6WDIZ", "current_trial": 165, "dateTime": 1512679100640, "trialdata": {"rt": -1, "stimulus": "<p id=\"stim\">ROCKET</p>", "key_press": -1, "type": "PRES_VIS", "word": "rocket", "wordID": 1201, "conditions": [24, 1600, "v", 12000], "trial": 4, "serialpos": 20, "trial_type": "single-stim", "trial_index": 165, "time_elapsed": 799685, "internal_node_id": "0.0-120.0"}}, {"uniqueid": "MTK0736:33PPO7FECWM9MJ3MP0C5H64KI6WDIZ", "current_trial": 166, "dateTime": 1512679103133, "trialdata": {"rt": -1, "stimulus": "<p id=\"stim\">SALMON</p>", "key_press": -1, "type": "PRES_VIS", "word": "salmon", "wordID": 1226, "conditions": [24, 1600, "v", 12000], "trial": 4, "serialpos": 21, "trial_type": "single-stim", "trial_index": 166, "time_elapsed": 802178, "internal_node_id": "0.0-121.0"}}, {"uniqueid": "MTK0736:33PPO7FECWM9MJ3MP0C5H64KI6WDIZ", "current_trial": 167, "dateTime": 1512679105619, "trialdata": {"rt": -1, "stimulus": "<p id=\"stim\">MAMMAL</p>", "key_press": -1, "type": "PRES_VIS", "word": "mammal", "wordID": 860, "conditions": [24, 1600, "v", 12000], "trial": 4, "serialpos": 22, "trial_type": "single-stim", "trial_index": 167, "time_elapsed": 804664, "internal_node_id": "0.0-122.0"}}, {"uniqueid": "MTK0736:33PPO7FECWM9MJ3MP0C5H64KI6WDIZ", "current_trial": 168, "dateTime": 1512679108402, "trialdata": {"rt": -1, "stimulus": "<p id=\"stim\">TORTOISE</p>", "key_press": -1, "type": "PRES_VIS", "word": "tortoise", "wordID": 1485, "conditions": [24, 1600, "v", 12000], "trial": 4, "serialpos": 23, "trial_type": "single-stim", "trial_index": 168, "time_elapsed": 807446, "internal_node_id": "0.0-123.0"}}, {"uniqueid": "MTK0736:33PPO7FECWM9MJ3MP0C5H64KI6WDIZ", "current_trial": 169, "dateTime": 1512679110649, "trialdata": {"rt": -1, "stimulus": "", "key_press": -1, "type": "PRE_RECALL_DELAY", "trial_type": "single-stim", "trial_index": 169, "time_elapsed": 809694, "internal_node_id": "0.0-124.0-0.0"}}, {"uniqueid": "MTK0736:33PPO7FECWM9MJ3MP0C5H64KI6WDIZ", "current_trial": 170, "dateTime": 1512679111151, "trialdata": {"rt": -1000, "stimulus": "/static/audio/400Hz.wav", "key_press": -1, "type": "PRE_RECALL_ALERT", "trial_type": "single-audio", "trial_index": 170, "time_elapsed": 810196, "internal_node_id": "0.0-125.0"}}, {"uniqueid": "MTK0736:33PPO7FECWM9MJ3MP0C5H64KI6WDIZ", "current_trial": 171, "dateTime": 1512679171159, "trialdata": {"rt": [6161, 7974, 13665, 23704, 26766, 32913, 35704, 41209, 43529, 48785, 51068, 57708], "recwords": ["tortoise", "mammal", "salmon", "island", "army", "pizza", "missle", "pudding", "swimmer", "liver", "marrow", "turkey"], "type": "FREE_RECALL", "conditions": [24, 1600, "v", 12000], "trial": 4, "trial_type": "free-recall", "trial_index": 171, "time_elapsed": 870201, "internal_node_id": "0.0-126.0-0.0"}}, {"uniqueid": "MTK0736:33PPO7FECWM9MJ3MP0C5H64KI6WDIZ", "current_trial": 172, "dateTime": 1512679195694, "trialdata": {"rt": 22533, "key_press": 32, "type": "INSTRUCTIONS", "trial_type": "text", "trial_index": 172, "time_elapsed": 894739, "internal_node_id": "0.0-127.0"}}, {"uniqueid": "MTK0736:33PPO7FECWM9MJ3MP0C5H64KI6WDIZ", "current_trial": 173, "dateTime": 1512679221699, "trialdata": {"rt": [2538, 4361, 6103, 8157, 10672, 12948, 14971, 18876, 21079], "responses": ["13", "14", "12", "8", "16", "14", "17", "19", "20"], "num1": [7, 5, 2, 3, 6, 8, 8, 7, 8, 1], "num2": [3, 8, 8, 4, 1, 3, 7, 6, 5, 2], "num3": [3, 1, 2, 1, 8, 3, 2, 6, 7, 3], "type": "DISTRACTOR", "conditions": [24, 1600, "v", 24000], "trial": 5, "trial_type": "math-distractor", "trial_index": 173, "time_elapsed": 920744, "internal_node_id": "0.0-128.0"}}, {"uniqueid": "MTK0736:33PPO7FECWM9MJ3MP0C5H64KI6WDIZ", "current_trial": 174, "dateTime": 1512679224702, "trialdata": {"rt": -1, "stimulus": "<p id=\"stim\">10</p>", "key_press": -1, "trial_type": "single-stim", "trial_index": 174, "time_elapsed": 923747, "internal_node_id": "0.0-129.0-0.0"}}, {"uniqueid": "MTK0736:33PPO7FECWM9MJ3MP0C5H64KI6WDIZ", "current_trial": 175, "dateTime": 1512679225704, "trialdata": {"rt": -1, "stimulus": "<p id=\"stim\">9</p>", "key_press": -1, "trial_type": "single-stim", "trial_index": 175, "time_elapsed": 924748, "internal_node_id": "0.0-129.0-1.0"}}, {"uniqueid": "MTK0736:33PPO7FECWM9MJ3MP0C5H64KI6WDIZ", "current_trial": 176, "dateTime": 1512679226707, "trialdata": {"rt": -1, "stimulus": "<p id=\"stim\">8</p>", "key_press": -1, "trial_type": "single-stim", "trial_index": 176, "time_elapsed": 925751, "internal_node_id": "0.0-129.0-2.0"}}, {"uniqueid": "MTK0736:33PPO7FECWM9MJ3MP0C5H64KI6WDIZ", "current_trial": 177, "dateTime": 1512679227708, "trialdata": {"rt": -1, "stimulus": "<p id=\"stim\">7</p>", "key_press": -1, "trial_type": "single-stim", "trial_index": 177, "time_elapsed": 926753, "internal_node_id": "0.0-129.0-3.0"}}, {"uniqueid": "MTK0736:33PPO7FECWM9MJ3MP0C5H64KI6WDIZ", "current_trial": 178, "dateTime": 1512679228711, "trialdata": {"rt": -1, "stimulus": "<p id=\"stim\">6</p>", "key_press": -1, "trial_type": "single-stim", "trial_index": 178, "time_elapsed": 927755, "internal_node_id": "0.0-129.0-4.0"}}, {"uniqueid": "MTK0736:33PPO7FECWM9MJ3MP0C5H64KI6WDIZ", "current_trial": 179, "dateTime": 1512679229713, "trialdata": {"rt": -1, "stimulus": "<p id=\"stim\">5</p>", "key_press": -1, "trial_type": "single-stim", "trial_index": 179, "time_elapsed": 928757, "internal_node_id": "0.0-129.0-5.0"}}, {"uniqueid": "MTK0736:33PPO7FECWM9MJ3MP0C5H64KI6WDIZ", "current_trial": 180, "dateTime": 1512679230716, "trialdata": {"rt": -1, "stimulus": "<p id=\"stim\">4</p>", "key_press": -1, "trial_type": "single-stim", "trial_index": 180, "time_elapsed": 929760, "internal_node_id": "0.0-129.0-6.0"}}, {"uniqueid": "MTK0736:33PPO7FECWM9MJ3MP0C5H64KI6WDIZ", "current_trial": 181, "dateTime": 1512679231719, "trialdata": {"rt": -1, "stimulus": "<p id=\"stim\">3</p>", "key_press": -1, "trial_type": "single-stim", "trial_index": 181, "time_elapsed": 930763, "internal_node_id": "0.0-129.0-7.0"}}, {"uniqueid": "MTK0736:33PPO7FECWM9MJ3MP0C5H64KI6WDIZ", "current_trial": 182, "dateTime": 1512679232721, "trialdata": {"rt": -1, "stimulus": "<p id=\"stim\">2</p>", "key_press": -1, "trial_type": "single-stim", "trial_index": 182, "time_elapsed": 931765, "internal_node_id": "0.0-129.0-8.0"}}, {"uniqueid": "MTK0736:33PPO7FECWM9MJ3MP0C5H64KI6WDIZ", "current_trial": 183, "dateTime": 1512679233723, "trialdata": {"rt": -1, "stimulus": "<p id=\"stim\">1</p>", "key_press": -1, "trial_type": "single-stim", "trial_index": 183, "time_elapsed": 932767, "internal_node_id": "0.0-129.0-9.0"}}, {"uniqueid": "MTK0736:33PPO7FECWM9MJ3MP0C5H64KI6WDIZ", "current_trial": 184, "dateTime": 1512679235225, "trialdata": {"rt": -1, "stimulus": "<p id=\"stim\">+</p>", "key_press": -1, "type": "FIXATION", "trial_type": "single-stim", "trial_index": 184, "time_elapsed": 934269, "internal_node_id": "0.0-130.0-0.0"}}, {"uniqueid": "MTK0736:33PPO7FECWM9MJ3MP0C5H64KI6WDIZ", "current_trial": 185, "dateTime": 1512679236833, "trialdata": {"rt": -1, "stimulus": "<p id=\"stim\">SIBLING</p>", "key_press": -1, "type": "PRES_VIS", "word": "sibling", "wordID": 1300, "conditions": [24, 1600, "v", 24000], "trial": 5, "serialpos": 0, "trial_type": "single-stim", "trial_index": 185, "time_elapsed": 935871, "internal_node_id": "0.0-131.0"}}, {"uniqueid": "MTK0736:33PPO7FECWM9MJ3MP0C5H64KI6WDIZ", "current_trial": 186, "dateTime": 1512679239257, "trialdata": {"rt": -1, "stimulus": "<p id=\"stim\">SPARROW</p>", "key_press": -1, "type": "PRES_VIS", "word": "sparrow", "wordID": 1346, "conditions": [24, 1600, "v", 24000], "trial": 5, "serialpos": 1, "trial_type": "single-stim", "trial_index": 186, "time_elapsed": 938301, "internal_node_id": "0.0-132.0"}}, {"uniqueid": "MTK0736:33PPO7FECWM9MJ3MP0C5H64KI6WDIZ", "current_trial": 187, "dateTime": 1512679241808, "trialdata": {"rt": -1, "stimulus": "<p id=\"stim\">MAILMAN</p>", "key_press": -1, "type": "PRES_VIS", "word": "mailman", "wordID": 857, "conditions": [24, 1600, "v", 24000], "trial": 5, "serialpos": 2, "trial_type": "single-stim", "trial_index": 187, "time_elapsed": 940852, "internal_node_id": "0.0-133.0"}}, {"uniqueid": "MTK0736:33PPO7FECWM9MJ3MP0C5H64KI6WDIZ", "current_trial": 188, "dateTime": 1512679244384, "trialdata": {"rt": -1, "stimulus": "<p id=\"stim\">MAILBOX</p>", "key_press": -1, "type": "PRES_VIS", "word": "mailbox", "wordID": 856, "conditions": [24, 1600, "v", 24000], "trial": 5, "serialpos": 3, "trial_type": "single-stim", "trial_index": 188, "time_elapsed": 943429, "internal_node_id": "0.0-134.0"}}, {"uniqueid": "MTK0736:33PPO7FECWM9MJ3MP0C5H64KI6WDIZ", "current_trial": 189, "dateTime": 1512679246946, "trialdata": {"rt": -1, "stimulus": "<p id=\"stim\">SUITCASE</p>", "key_press": -1, "type": "PRES_VIS", "word": "suitcase", "wordID": 1402, "conditions": [24, 1600, "v", 24000], "trial": 5, "serialpos": 4, "trial_type": "single-stim", "trial_index": 189, "time_elapsed": 945990, "internal_node_id": "0.0-135.0"}}, {"uniqueid": "MTK0736:33PPO7FECWM9MJ3MP0C5H64KI6WDIZ", "current_trial": 190, "dateTime": 1512679249390, "trialdata": {"rt": -1, "stimulus": "<p id=\"stim\">FLIPPER</p>", "key_press": -1, "type": "PRES_VIS", "word": "flipper", "wordID": 579, "conditions": [24, 1600, "v", 24000], "trial": 5, "serialpos": 5, "trial_type": "single-stim", "trial_index": 190, "time_elapsed": 948435, "internal_node_id": "0.0-136.0"}}, {"uniqueid": "MTK0736:33PPO7FECWM9MJ3MP0C5H64KI6WDIZ", "current_trial": 191, "dateTime": 1512679252057, "trialdata": {"rt": -1, "stimulus": "<p id=\"stim\">MOTOR</p>", "key_press": -1, "type": "PRES_VIS", "word": "motor", "wordID": 921, "conditions": [24, 1600, "v", 24000], "trial": 5, "serialpos": 6, "trial_type": "single-stim", "trial_index": 191, "time_elapsed": 951102, "internal_node_id": "0.0-137.0"}}, {"uniqueid": "MTK0736:33PPO7FECWM9MJ3MP0C5H64KI6WDIZ", "current_trial": 192, "dateTime": 1512679254484, "trialdata": {"rt": -1, "stimulus": "<p id=\"stim\">CHAUFFEUR</p>", "key_press": -1, "type": "PRES_VIS", "word": "chauffeur", "wordID": 282, "conditions": [24, 1600, "v", 24000], "trial": 5, "serialpos": 7, "trial_type": "single-stim", "trial_index": 192, "time_elapsed": 953529, "internal_node_id": "0.0-138.0"}}, {"uniqueid": "MTK0736:33PPO7FECWM9MJ3MP0C5H64KI6WDIZ", "current_trial": 193, "dateTime": 1512679257049, "trialdata": {"rt": -1, "stimulus": "<p id=\"stim\">COLLEGE</p>", "key_press": -1, "type": "PRES_VIS", "word": "college", "wordID": 345, "conditions": [24, 1600, "v", 24000], "trial": 5, "serialpos": 8, "trial_type": "single-stim", "trial_index": 193, "time_elapsed": 956094, "internal_node_id": "0.0-139.0"}}, {"uniqueid": "MTK0736:33PPO7FECWM9MJ3MP0C5H64KI6WDIZ", "current_trial": 194, "dateTime": 1512679259478, "trialdata": {"rt": -1, "stimulus": "<p id=\"stim\">SWORD</p>", "key_press": -1, "type": "PRES_VIS", "word": "sword", "wordID": 1422, "conditions": [24, 1600, "v", 24000], "trial": 5, "serialpos": 9, "trial_type": "single-stim", "trial_index": 194, "time_elapsed": 958522, "internal_node_id": "0.0-140.0"}}, {"uniqueid": "MTK0736:33PPO7FECWM9MJ3MP0C5H64KI6WDIZ", "current_trial": 195, "dateTime": 1512679261994, "trialdata": {"rt": -1, "stimulus": "<p id=\"stim\">BROTHER</p>", "key_press": -1, "type": "PRES_VIS", "word": "brother", "wordID": 178, "conditions": [24, 1600, "v", 24000], "trial": 5, "serialpos": 10, "trial_type": "single-stim", "trial_index": 195, "time_elapsed": 961039, "internal_node_id": "0.0-141.0"}}, {"uniqueid": "MTK0736:33PPO7FECWM9MJ3MP0C5H64KI6WDIZ", "current_trial": 196, "dateTime": 1512679264786, "trialdata": {"rt": -1, "stimulus": "<p id=\"stim\">WARDROBE</p>", "key_press": -1, "type": "PRES_VIS", "word": "wardrobe", "wordID": 1586, "conditions": [24, 1600, "v", 24000], "trial": 5, "serialpos": 11, "trial_type": "single-stim", "trial_index": 196, "time_elapsed": 963831, "internal_node_id": "0.0-142.0"}}, {"uniqueid": "MTK0736:33PPO7FECWM9MJ3MP0C5H64KI6WDIZ", "current_trial": 197, "dateTime": 1512679267219, "trialdata": {"rt": -1, "stimulus": "<p id=\"stim\">COBRA</p>", "key_press": -1, "type": "PRES_VIS", "word": "cobra", "wordID": 335, "conditions": [24, 1600, "v", 24000], "trial": 5, "serialpos": 12, "trial_type": "single-stim", "trial_index": 197, "time_elapsed": 966264, "internal_node_id": "0.0-143.0"}}, {"uniqueid": "MTK0736:33PPO7FECWM9MJ3MP0C5H64KI6WDIZ", "current_trial": 198, "dateTime": 1512679269858, "trialdata": {"rt": -1, "stimulus": "<p id=\"stim\">PARROT</p>", "key_press": -1, "type": "PRES_VIS", "word": "parrot", "wordID": 1014, "conditions": [24, 1600, "v", 24000], "trial": 5, "serialpos": 13, "trial_type": "single-stim", "trial_index": 198, "time_elapsed": 968902, "internal_node_id": "0.0-144.0"}}, {"uniqueid": "MTK0736:33PPO7FECWM9MJ3MP0C5H64KI6WDIZ", "current_trial": 199, "dateTime": 1512679272607, "trialdata": {"rt": -1, "stimulus": "<p id=\"stim\">FOX</p>", "key_press": -1, "type": "PRES_VIS", "word": "fox", "wordID": 597, "conditions": [24, 1600, "v", 24000], "trial": 5, "serialpos": 14, "trial_type": "single-stim", "trial_index": 199, "time_elapsed": 971651, "internal_node_id": "0.0-145.0"}}, {"uniqueid": "MTK0736:33PPO7FECWM9MJ3MP0C5H64KI6WDIZ", "current_trial": 200, "dateTime": 1512679275364, "trialdata": {"rt": -1, "stimulus": "<p id=\"stim\">BOYFRIEND</p>", "key_press": -1, "type": "PRES_VIS", "word": "boyfriend", "wordID": 161, "conditions": [24, 1600, "v", 24000], "trial": 5, "serialpos": 15, "trial_type": "single-stim", "trial_index": 200, "time_elapsed": 974409, "internal_node_id": "0.0-146.0"}}, {"uniqueid": "MTK0736:33PPO7FECWM9MJ3MP0C5H64KI6WDIZ", "current_trial": 201, "dateTime": 1512679277862, "trialdata": {"rt": -1, "stimulus": "<p id=\"stim\">GYMNAST</p>", "key_press": -1, "type": "PRES_VIS", "word": "gymnast", "wordID": 674, "conditions": [24, 1600, "v", 24000], "trial": 5, "serialpos": 16, "trial_type": "single-stim", "trial_index": 201, "time_elapsed": 976906, "internal_node_id": "0.0-147.0"}}, {"uniqueid": "MTK0736:33PPO7FECWM9MJ3MP0C5H64KI6WDIZ", "current_trial": 202, "dateTime": 1512679280594, "trialdata": {"rt": -1, "stimulus": "<p id=\"stim\">SNAKE</p>", "key_press": -1, "type": "PRES_VIS", "word": "snake", "wordID": 1332, "conditions": [24, 1600, "v", 24000], "trial": 5, "serialpos": 17, "trial_type": "single-stim", "trial_index": 202, "time_elapsed": 979639, "internal_node_id": "0.0-148.0"}}, {"uniqueid": "MTK0736:33PPO7FECWM9MJ3MP0C5H64KI6WDIZ", "current_trial": 203, "dateTime": 1512679283121, "trialdata": {"rt": -1, "stimulus": "<p id=\"stim\">ASIA</p>", "key_press": -1, "type": "PRES_VIS", "word": "asia", "wordID": 45, "conditions": [24, 1600, "v", 24000], "trial": 5, "serialpos": 18, "trial_type": "single-stim", "trial_index": 203, "time_elapsed": 982166, "internal_node_id": "0.0-149.0"}}, {"uniqueid": "MTK0736:33PPO7FECWM9MJ3MP0C5H64KI6WDIZ", "current_trial": 204, "dateTime": 1512679285667, "trialdata": {"rt": -1, "stimulus": "<p id=\"stim\">CREATURE</p>", "key_press": -1, "type": "PRES_VIS", "word": "creature", "wordID": 402, "conditions": [24, 1600, "v", 24000], "trial": 5, "serialpos": 19, "trial_type": "single-stim", "trial_index": 204, "time_elapsed": 984712, "internal_node_id": "0.0-150.0"}}, {"uniqueid": "MTK0736:33PPO7FECWM9MJ3MP0C5H64KI6WDIZ", "current_trial": 205, "dateTime": 1512679288450, "trialdata": {"rt": -1, "stimulus": "<p id=\"stim\">SHORTS</p>", "key_press": -1, "type": "PRES_VIS", "word": "shorts", "wordID": 1292, "conditions": [24, 1600, "v", 24000], "trial": 5, "serialpos": 20, "trial_type": "single-stim", "trial_index": 205, "time_elapsed": 987495, "internal_node_id": "0.0-151.0"}}, {"uniqueid": "MTK0736:33PPO7FECWM9MJ3MP0C5H64KI6WDIZ", "current_trial": 206, "dateTime": 1512679290982, "trialdata": {"rt": -1, "stimulus": "<p id=\"stim\">LUNCH</p>", "key_press": -1, "type": "PRES_VIS", "word": "lunch", "wordID": 848, "conditions": [24, 1600, "v", 24000], "trial": 5, "serialpos": 21, "trial_type": "single-stim", "trial_index": 206, "time_elapsed": 990027, "internal_node_id": "0.0-152.0"}}, {"uniqueid": "MTK0736:33PPO7FECWM9MJ3MP0C5H64KI6WDIZ", "current_trial": 207, "dateTime": 1512679293578, "trialdata": {"rt": -1, "stimulus": "<p id=\"stim\">CROSS</p>", "key_press": -1, "type": "PRES_VIS", "word": "cross", "wordID": 412, "conditions": [24, 1600, "v", 24000], "trial": 5, "serialpos": 22, "trial_type": "single-stim", "trial_index": 207, "time_elapsed": 992623, "internal_node_id": "0.0-153.0"}}, {"uniqueid": "MTK0736:33PPO7FECWM9MJ3MP0C5H64KI6WDIZ", "current_trial": 208, "dateTime": 1512679295983, "trialdata": {"rt": -1, "stimulus": "<p id=\"stim\">LIZARD</p>", "key_press": -1, "type": "PRES_VIS", "word": "lizard", "wordID": 833, "conditions": [24, 1600, "v", 24000], "trial": 5, "serialpos": 23, "trial_type": "single-stim", "trial_index": 208, "time_elapsed": 995028, "internal_node_id": "0.0-154.0"}}, {"uniqueid": "MTK0736:33PPO7FECWM9MJ3MP0C5H64KI6WDIZ", "current_trial": 209, "dateTime": 1512679298397, "trialdata": {"rt": -1, "stimulus": "", "key_press": -1, "type": "PRE_RECALL_DELAY", "trial_type": "single-stim", "trial_index": 209, "time_elapsed": 997442, "internal_node_id": "0.0-155.0-0.0"}}, {"uniqueid": "MTK0736:33PPO7FECWM9MJ3MP0C5H64KI6WDIZ", "current_trial": 210, "dateTime": 1512679298900, "trialdata": {"rt": -1000, "stimulus": "/static/audio/400Hz.wav", "key_press": -1, "type": "PRE_RECALL_ALERT", "trial_type": "single-audio", "trial_index": 210, "time_elapsed": 997944, "internal_node_id": "0.0-156.0"}}, {"uniqueid": "MTK0736:33PPO7FECWM9MJ3MP0C5H64KI6WDIZ", "current_trial": 211, "dateTime": 1512679358907, "trialdata": {"rt": [4779, 6721, 8976, 18217, 22413, 24656, 28183, 32029, 37629, 40669, 46771, 48276, 54583, 56289], "recwords": ["lizard", "cross", "lunch", "suitcase", "mailbox", "mailman", "fox", "cobra", "sparrow", "sibling", "flipper", "motor", "snake", "asia"], "type": "FREE_RECALL", "conditions": [24, 1600, "v", 24000], "trial": 5, "trial_type": "free-recall", "trial_index": 211, "time_elapsed": 1057948, "internal_node_id": "0.0-157.0-0.0"}}, {"uniqueid": "MTK0736:33PPO7FECWM9MJ3MP0C5H64KI6WDIZ", "current_trial": 212, "dateTime": 1512679411623, "trialdata": {"rt": 50714, "key_press": 32, "type": "INSTRUCTIONS", "trial_type": "text", "trial_index": 212, "time_elapsed": 1110668, "internal_node_id": "0.0-158.0"}}, {"uniqueid": "MTK0736:33PPO7FECWM9MJ3MP0C5H64KI6WDIZ", "current_trial": 213, "dateTime": 1512679437627, "trialdata": {"rt": [3351, 4871, 6557, 9470, 11445, 13617, 16572, 18447, 20134, 22250], "responses": ["14", "3", "13", "20", "8", "16", "21", "19", "11", "10"], "num1": [2, 1, 2, 5, 5, 8, 5, 9, 4, 1, 1], "num2": [3, 1, 8, 8, 2, 2, 9, 5, 2, 4, 2], "num3": [9, 1, 3, 7, 1, 6, 7, 5, 5, 5, 1], "type": "DISTRACTOR", "conditions": [12, 1600, "a", 24000], "trial": 6, "trial_type": "math-distractor", "trial_index": 213, "time_elapsed": 1136671, "internal_node_id": "0.0-159.0"}}, {"uniqueid": "MTK0736:33PPO7FECWM9MJ3MP0C5H64KI6WDIZ", "current_trial": 214, "dateTime": 1512679440630, "trialdata": {"rt": -1, "stimulus": "<p id=\"stim\">10</p>", "key_press": -1, "trial_type": "single-stim", "trial_index": 214, "time_elapsed": 1139675, "internal_node_id": "0.0-160.0-0.0"}}, {"uniqueid": "MTK0736:33PPO7FECWM9MJ3MP0C5H64KI6WDIZ", "current_trial": 215, "dateTime": 1512679441633, "trialdata": {"rt": -1, "stimulus": "<p id=\"stim\">9</p>", "key_press": -1, "trial_type": "single-stim", "trial_index": 215, "time_elapsed": 1140677, "internal_node_id": "0.0-160.0-1.0"}}, {"uniqueid": "MTK0736:33PPO7FECWM9MJ3MP0C5H64KI6WDIZ", "current_trial": 216, "dateTime": 1512679442634, "trialdata": {"rt": -1, "stimulus": "<p id=\"stim\">8</p>", "key_press": -1, "trial_type": "single-stim", "trial_index": 216, "time_elapsed": 1141679, "internal_node_id": "0.0-160.0-2.0"}}, {"uniqueid": "MTK0736:33PPO7FECWM9MJ3MP0C5H64KI6WDIZ", "current_trial": 217, "dateTime": 1512679443636, "trialdata": {"rt": -1, "stimulus": "<p id=\"stim\">7</p>", "key_press": -1, "trial_type": "single-stim", "trial_index": 217, "time_elapsed": 1142681, "internal_node_id": "0.0-160.0-3.0"}}, {"uniqueid": "MTK0736:33PPO7FECWM9MJ3MP0C5H64KI6WDIZ", "current_trial": 218, "dateTime": 1512679444638, "trialdata": {"rt": -1, "stimulus": "<p id=\"stim\">6</p>", "key_press": -1, "trial_type": "single-stim", "trial_index": 218, "time_elapsed": 1143683, "internal_node_id": "0.0-160.0-4.0"}}, {"uniqueid": "MTK0736:33PPO7FECWM9MJ3MP0C5H64KI6WDIZ", "current_trial": 219, "dateTime": 1512679445642, "trialdata": {"rt": -1, "stimulus": "<p id=\"stim\">5</p>", "key_press": -1, "trial_type": "single-stim", "trial_index": 219, "time_elapsed": 1144685, "internal_node_id": "0.0-160.0-5.0"}}, {"uniqueid": "MTK0736:33PPO7FECWM9MJ3MP0C5H64KI6WDIZ", "current_trial": 220, "dateTime": 1512679446642, "trialdata": {"rt": -1, "stimulus": "<p id=\"stim\">4</p>", "key_press": -1, "trial_type": "single-stim", "trial_index": 220, "time_elapsed": 1145687, "internal_node_id": "0.0-160.0-6.0"}}, {"uniqueid": "MTK0736:33PPO7FECWM9MJ3MP0C5H64KI6WDIZ", "current_trial": 221, "dateTime": 1512679447645, "trialdata": {"rt": -1, "stimulus": "<p id=\"stim\">3</p>", "key_press": -1, "trial_type": "single-stim", "trial_index": 221, "time_elapsed": 1146689, "internal_node_id": "0.0-160.0-7.0"}}, {"uniqueid": "MTK0736:33PPO7FECWM9MJ3MP0C5H64KI6WDIZ", "current_trial": 222, "dateTime": 1512679448648, "trialdata": {"rt": -1, "stimulus": "<p id=\"stim\">2</p>", "key_press": -1, "trial_type": "single-stim", "trial_index": 222, "time_elapsed": 1147692, "internal_node_id": "0.0-160.0-8.0"}}, {"uniqueid": "MTK0736:33PPO7FECWM9MJ3MP0C5H64KI6WDIZ", "current_trial": 223, "dateTime": 1512679449650, "trialdata": {"rt": -1, "stimulus": "<p id=\"stim\">1</p>", "key_press": -1, "trial_type": "single-stim", "trial_index": 223, "time_elapsed": 1148694, "internal_node_id": "0.0-160.0-9.0"}}, {"uniqueid": "MTK0736:33PPO7FECWM9MJ3MP0C5H64KI6WDIZ", "current_trial": 224, "dateTime": 1512679451151, "trialdata": {"rt": -1, "stimulus": "<p id=\"stim\">+</p>", "key_press": -1, "type": "FIXATION", "trial_type": "single-stim", "trial_index": 224, "time_elapsed": 1150196, "internal_node_id": "0.0-161.0-0.0"}}, {"uniqueid": "MTK0736:33PPO7FECWM9MJ3MP0C5H64KI6WDIZ", "current_trial": 225, "dateTime": 1512679453934, "trialdata": {"rt": -1000, "stimulus": "/static/audio/wordpool/FIREMAN.wav", "key_press": -1, "type": "PRES_AUD", "word": "fireman", "wordID": 568, "conditions": [12, 1600, "a", 24000], "trial": 6, "serialpos": 0, "trial_type": "single-audio", "trial_index": 225, "time_elapsed": 1152979, "internal_node_id": "0.0-162.0"}}, {"uniqueid": "MTK0736:33PPO7FECWM9MJ3MP0C5H64KI6WDIZ", "current_trial": 226, "dateTime": 1512679456634, "trialdata": {"rt": -1000, "stimulus": "/static/audio/wordpool/BEAST.wav", "key_press": -1, "type": "PRES_AUD", "word": "beast", "wordID": 107, "conditions": [12, 1600, "a", 24000], "trial": 6, "serialpos": 1, "trial_type": "single-audio", "trial_index": 226, "time_elapsed": 1155679, "internal_node_id": "0.0-163.0"}}, {"uniqueid": "MTK0736:33PPO7FECWM9MJ3MP0C5H64KI6WDIZ", "current_trial": 227, "dateTime": 1512679459120, "trialdata": {"rt": -1000, "stimulus": "/static/audio/wordpool/MONSTER.wav", "key_press": -1, "type": "PRES_AUD", "word": "monster", "wordID": 911, "conditions": [12, 1600, "a", 24000], "trial": 6, "serialpos": 2, "trial_type": "single-audio", "trial_index": 227, "time_elapsed": 1158165, "internal_node_id": "0.0-164.0"}}, {"uniqueid": "MTK0736:33PPO7FECWM9MJ3MP0C5H64KI6WDIZ", "current_trial": 228, "dateTime": 1512679461866, "trialdata": {"rt": -1000, "stimulus": "/static/audio/wordpool/COUNTY.wav", "key_press": -1, "type": "PRES_AUD", "word": "county", "wordID": 388, "conditions": [12, 1600, "a", 24000], "trial": 6, "serialpos": 3, "trial_type": "single-audio", "trial_index": 228, "time_elapsed": 1160911, "internal_node_id": "0.0-165.0"}}, {"uniqueid": "MTK0736:33PPO7FECWM9MJ3MP0C5H64KI6WDIZ", "current_trial": 229, "dateTime": 1512679464426, "trialdata": {"rt": -1000, "stimulus": "/static/audio/wordpool/LUGGAGE.wav", "key_press": -1, "type": "PRES_AUD", "word": "luggage", "wordID": 846, "conditions": [12, 1600, "a", 24000], "trial": 6, "serialpos": 4, "trial_type": "single-audio", "trial_index": 229, "time_elapsed": 1163471, "internal_node_id": "0.0-166.0"}}, {"uniqueid": "MTK0736:33PPO7FECWM9MJ3MP0C5H64KI6WDIZ", "current_trial": 230, "dateTime": 1512679467151, "trialdata": {"rt": -1000, "stimulus": "/static/audio/wordpool/WAITER.wav", "key_press": -1, "type": "PRES_AUD", "word": "waiter", "wordID": 1579, "conditions": [12, 1600, "a", 24000], "trial": 6, "serialpos": 5, "trial_type": "single-audio", "trial_index": 230, "time_elapsed": 1166195, "internal_node_id": "0.0-167.0"}}, {"uniqueid": "MTK0736:33PPO7FECWM9MJ3MP0C5H64KI6WDIZ", "current_trial": 231, "dateTime": 1512679469649, "trialdata": {"rt": -1000, "stimulus": "/static/audio/wordpool/HONEY.wav", "key_press": -1, "type": "PRES_AUD", "word": "honey", "wordID": 712, "conditions": [12, 1600, "a", 24000], "trial": 6, "serialpos": 6, "trial_type": "single-audio", "trial_index": 231, "time_elapsed": 1168694, "internal_node_id": "0.0-168.0"}}, {"uniqueid": "MTK0736:33PPO7FECWM9MJ3MP0C5H64KI6WDIZ", "current_trial": 232, "dateTime": 1512679472189, "trialdata": {"rt": -1000, "stimulus": "/static/audio/wordpool/CREVICE.wav", "key_press": -1, "type": "PRES_AUD", "word": "crevice", "wordID": 404, "conditions": [12, 1600, "a", 24000], "trial": 6, "serialpos": 7, "trial_type": "single-audio", "trial_index": 232, "time_elapsed": 1171234, "internal_node_id": "0.0-169.0"}}, {"uniqueid": "MTK0736:33PPO7FECWM9MJ3MP0C5H64KI6WDIZ", "current_trial": 233, "dateTime": 1512679474622, "trialdata": {"rt": -1000, "stimulus": "/static/audio/wordpool/VELVET.wav", "key_press": -1, "type": "PRES_AUD", "word": "velvet", "wordID": 1554, "conditions": [12, 1600, "a", 24000], "trial": 6, "serialpos": 8, "trial_type": "single-audio", "trial_index": 233, "time_elapsed": 1173667, "internal_node_id": "0.0-170.0"}}, {"uniqueid": "MTK0736:33PPO7FECWM9MJ3MP0C5H64KI6WDIZ", "current_trial": 234, "dateTime": 1512679477331, "trialdata": {"rt": -1000, "stimulus": "/static/audio/wordpool/CLOCK.wav", "key_press": -1, "type": "PRES_AUD", "word": "clock", "wordID": 324, "conditions": [12, 1600, "a", 24000], "trial": 6, "serialpos": 9, "trial_type": "single-audio", "trial_index": 234, "time_elapsed": 1176376, "internal_node_id": "0.0-171.0"}}, {"uniqueid": "MTK0736:33PPO7FECWM9MJ3MP0C5H64KI6WDIZ", "current_trial": 235, "dateTime": 1512679479887, "trialdata": {"rt": -1000, "stimulus": "/static/audio/wordpool/SHERIFF.wav", "key_press": -1, "type": "PRES_AUD", "word": "sheriff", "wordID": 1283, "conditions": [12, 1600, "a", 24000], "trial": 6, "serialpos": 10, "trial_type": "single-audio", "trial_index": 235, "time_elapsed": 1178932, "internal_node_id": "0.0-172.0"}}, {"uniqueid": "MTK0736:33PPO7FECWM9MJ3MP0C5H64KI6WDIZ", "current_trial": 236, "dateTime": 1512679482449, "trialdata": {"rt": -1000, "stimulus": "/static/audio/wordpool/CASKET.wav", "key_press": -1, "type": "PRES_AUD", "word": "casket", "wordID": 254, "conditions": [12, 1600, "a", 24000], "trial": 6, "serialpos": 11, "trial_type": "single-audio", "trial_index": 236, "time_elapsed": 1181494, "internal_node_id": "0.0-173.0"}}, {"uniqueid": "MTK0736:33PPO7FECWM9MJ3MP0C5H64KI6WDIZ", "current_trial": 237, "dateTime": 1512679483667, "trialdata": {"rt": -1, "stimulus": "", "key_press": -1, "type": "PRE_RECALL_DELAY", "trial_type": "single-stim", "trial_index": 237, "time_elapsed": 1182712, "internal_node_id": "0.0-174.0-0.0"}}, {"uniqueid": "MTK0736:33PPO7FECWM9MJ3MP0C5H64KI6WDIZ", "current_trial": 238, "dateTime": 1512679484168, "trialdata": {"rt": -1000, "stimulus": "/static/audio/400Hz.wav", "key_press": -1, "type": "PRE_RECALL_ALERT", "trial_type": "single-audio", "trial_index": 238, "time_elapsed": 1183213, "internal_node_id": "0.0-175.0"}}, {"uniqueid": "MTK0736:33PPO7FECWM9MJ3MP0C5H64KI6WDIZ", "current_trial": 239, "dateTime": 1512679544175, "trialdata": {"rt": [4879, 6882, 8625, 16730, 22522, 24352, 28741, 32066, 37156, 38763, 40402], "recwords": ["casket", "sheriff", "clock", "velvet", "fireman", "beast", "monster", "county", "luggage", "waiter", "honey"], "type": "FREE_RECALL", "conditions": [12, 1600, "a", 24000], "trial": 6, "trial_type": "free-recall", "trial_index": 239, "time_elapsed": 1243216, "internal_node_id": "0.0-176.0-0.0"}}, {"uniqueid": "MTK0736:33PPO7FECWM9MJ3MP0C5H64KI6WDIZ", "current_trial": 240, "dateTime": 1512679548278, "trialdata": {"rt": 2101, "key_press": 32, "type": "INSTRUCTIONS", "trial_type": "text", "trial_index": 240, "time_elapsed": 1247322, "internal_node_id": "0.0-177.0"}}, {"uniqueid": "MTK0736:33PPO7FECWM9MJ3MP0C5H64KI6WDIZ", "current_trial": 241, "dateTime": 1512679574281, "trialdata": {"rt": [2211, 3976, 5805, 7580, 10127, 13799, 15940, 17290, 20531, 23784], "responses": ["19", "18", "18", "9", "21", "20", "18", "11", "20", "12"], "num1": [8, 7, 1, 4, 7, 9, 5, 4, 4, 8, 9], "num2": [6, 8, 9, 1, 9, 7, 6, 6, 7, 2, 1], "num3": [5, 3, 8, 4, 5, 4, 7, 1, 9, 2, 1], "type": "DISTRACTOR", "conditions": [24, 800, "v", 24000], "trial": 7, "trial_type": "math-distractor", "trial_index": 241, "time_elapsed": 1273325, "internal_node_id": "0.0-178.0"}}, {"uniqueid": "MTK0736:33PPO7FECWM9MJ3MP0C5H64KI6WDIZ", "current_trial": 242, "dateTime": 1512679577285, "trialdata": {"rt": -1, "stimulus": "<p id=\"stim\">10</p>", "key_press": -1, "trial_type": "single-stim", "trial_index": 242, "time_elapsed": 1276330, "internal_node_id": "0.0-179.0-0.0"}}, {"uniqueid": "MTK0736:33PPO7FECWM9MJ3MP0C5H64KI6WDIZ", "current_trial": 243, "dateTime": 1512679578287, "trialdata": {"rt": -1, "stimulus": "<p id=\"stim\">9</p>", "key_press": -1, "trial_type": "single-stim", "trial_index": 243, "time_elapsed": 1277332, "internal_node_id": "0.0-179.0-1.0"}}, {"uniqueid": "MTK0736:33PPO7FECWM9MJ3MP0C5H64KI6WDIZ", "current_trial": 244, "dateTime": 1512679579291, "trialdata": {"rt": -1, "stimulus": "<p id=\"stim\">8</p>", "key_press": -1, "trial_type": "single-stim", "trial_index": 244, "time_elapsed": 1278335, "internal_node_id": "0.0-179.0-2.0"}}, {"uniqueid": "MTK0736:33PPO7FECWM9MJ3MP0C5H64KI6WDIZ", "current_trial": 245, "dateTime": 1512679580292, "trialdata": {"rt": -1, "stimulus": "<p id=\"stim\">7</p>", "key_press": -1, "trial_type": "single-stim", "trial_index": 245, "time_elapsed": 1279337, "internal_node_id": "0.0-179.0-3.0"}}, {"uniqueid": "MTK0736:33PPO7FECWM9MJ3MP0C5H64KI6WDIZ", "current_trial": 246, "dateTime": 1512679581294, "trialdata": {"rt": -1, "stimulus": "<p id=\"stim\">6</p>", "key_press": -1, "trial_type": "single-stim", "trial_index": 246, "time_elapsed": 1280339, "internal_node_id": "0.0-179.0-4.0"}}, {"uniqueid": "MTK0736:33PPO7FECWM9MJ3MP0C5H64KI6WDIZ", "current_trial": 247, "dateTime": 1512679582295, "trialdata": {"rt": -1, "stimulus": "<p id=\"stim\">5</p>", "key_press": -1, "trial_type": "single-stim", "trial_index": 247, "time_elapsed": 1281340, "internal_node_id": "0.0-179.0-5.0"}}, {"uniqueid": "MTK0736:33PPO7FECWM9MJ3MP0C5H64KI6WDIZ", "current_trial": 248, "dateTime": 1512679583298, "trialdata": {"rt": -1, "stimulus": "<p id=\"stim\">4</p>", "key_press": -1, "trial_type": "single-stim", "trial_index": 248, "time_elapsed": 1282342, "internal_node_id": "0.0-179.0-6.0"}}, {"uniqueid": "MTK0736:33PPO7FECWM9MJ3MP0C5H64KI6WDIZ", "current_trial": 249, "dateTime": 1512679584301, "trialdata": {"rt": -1, "stimulus": "<p id=\"stim\">3</p>", "key_press": -1, "trial_type": "single-stim", "trial_index": 249, "time_elapsed": 1283345, "internal_node_id": "0.0-179.0-7.0"}}, {"uniqueid": "MTK0736:33PPO7FECWM9MJ3MP0C5H64KI6WDIZ", "current_trial": 250, "dateTime": 1512679585302, "trialdata": {"rt": -1, "stimulus": "<p id=\"stim\">2</p>", "key_press": -1, "trial_type": "single-stim", "trial_index": 250, "time_elapsed": 1284347, "internal_node_id": "0.0-179.0-8.0"}}, {"uniqueid": "MTK0736:33PPO7FECWM9MJ3MP0C5H64KI6WDIZ", "current_trial": 251, "dateTime": 1512679586304, "trialdata": {"rt": -1, "stimulus": "<p id=\"stim\">1</p>", "key_press": -1, "trial_type": "single-stim", "trial_index": 251, "time_elapsed": 1285349, "internal_node_id": "0.0-179.0-9.0"}}, {"uniqueid": "MTK0736:33PPO7FECWM9MJ3MP0C5H64KI6WDIZ", "current_trial": 252, "dateTime": 1512679587806, "trialdata": {"rt": -1, "stimulus": "<p id=\"stim\">+</p>", "key_press": -1, "type": "FIXATION", "trial_type": "single-stim", "trial_index": 252, "time_elapsed": 1286851, "internal_node_id": "0.0-180.0-0.0"}}, {"uniqueid": "MTK0736:33PPO7FECWM9MJ3MP0C5H64KI6WDIZ", "current_trial": 253, "dateTime": 1512679588607, "trialdata": {"rt": -1, "stimulus": "<p id=\"stim\">KNIFE</p>", "key_press": -1, "type": "PRES_VIS", "word": "knife", "wordID": 784, "conditions": [24, 800, "v", 24000], "trial": 7, "serialpos": 0, "trial_type": "single-stim", "trial_index": 253, "time_elapsed": 1287652, "internal_node_id": "0.0-181.0"}}, {"uniqueid": "MTK0736:33PPO7FECWM9MJ3MP0C5H64KI6WDIZ", "current_trial": 254, "dateTime": 1512679590321, "trialdata": {"rt": -1, "stimulus": "<p id=\"stim\">PEANUT</p>", "key_press": -1, "type": "PRES_VIS", "word": "peanut", "wordID": 1031, "conditions": [24, 800, "v", 24000], "trial": 7, "serialpos": 1, "trial_type": "single-stim", "trial_index": 254, "time_elapsed": 1289366, "internal_node_id": "0.0-182.0"}}, {"uniqueid": "MTK0736:33PPO7FECWM9MJ3MP0C5H64KI6WDIZ", "current_trial": 255, "dateTime": 1512679591949, "trialdata": {"rt": -1, "stimulus": "<p id=\"stim\">PISTON</p>", "key_press": -1, "type": "PRES_VIS", "word": "piston", "wordID": 1075, "conditions": [24, 800, "v", 24000], "trial": 7, "serialpos": 2, "trial_type": "single-stim", "trial_index": 255, "time_elapsed": 1290994, "internal_node_id": "0.0-183.0"}}, {"uniqueid": "MTK0736:33PPO7FECWM9MJ3MP0C5H64KI6WDIZ", "current_trial": 256, "dateTime": 1512679593553, "trialdata": {"rt": -1, "stimulus": "<p id=\"stim\">WORLD</p>", "key_press": -1, "type": "PRES_VIS", "word": "world", "wordID": 1621, "conditions": [24, 800, "v", 24000], "trial": 7, "serialpos": 3, "trial_type": "single-stim", "trial_index": 256, "time_elapsed": 1292598, "internal_node_id": "0.0-184.0"}}, {"uniqueid": "MTK0736:33PPO7FECWM9MJ3MP0C5H64KI6WDIZ", "current_trial": 257, "dateTime": 1512679595415, "trialdata": {"rt": -1, "stimulus": "<p id=\"stim\">ROD</p>", "key_press": -1, "type": "PRES_VIS", "word": "rod", "wordID": 1202, "conditions": [24, 800, "v", 24000], "trial": 7, "serialpos": 4, "trial_type": "single-stim", "trial_index": 257, "time_elapsed": 1294459, "internal_node_id": "0.0-185.0"}}, {"uniqueid": "MTK0736:33PPO7FECWM9MJ3MP0C5H64KI6WDIZ", "current_trial": 258, "dateTime": 1512679597389, "trialdata": {"rt": -1, "stimulus": "<p id=\"stim\">SPOOL</p>", "key_press": -1, "type": "PRES_VIS", "word": "spool", "wordID": 1355, "conditions": [24, 800, "v", 24000], "trial": 7, "serialpos": 5, "trial_type": "single-stim", "trial_index": 258, "time_elapsed": 1296433, "internal_node_id": "0.0-186.0"}}, {"uniqueid": "MTK0736:33PPO7FECWM9MJ3MP0C5H64KI6WDIZ", "current_trial": 259, "dateTime": 1512679599305, "trialdata": {"rt": -1, "stimulus": "<p id=\"stim\">ARM</p>", "key_press": -1, "type": "PRES_VIS", "word": "arm", "wordID": 37, "conditions": [24, 800, "v", 24000], "trial": 7, "serialpos": 6, "trial_type": "single-stim", "trial_index": 259, "time_elapsed": 1298349, "internal_node_id": "0.0-187.0"}}, {"uniqueid": "MTK0736:33PPO7FECWM9MJ3MP0C5H64KI6WDIZ", "current_trial": 260, "dateTime": 1512679600908, "trialdata": {"rt": -1, "stimulus": "<p id=\"stim\">MUFFIN</p>", "key_press": -1, "type": "PRES_VIS", "word": "muffin", "wordID": 928, "conditions": [24, 800, "v", 24000], "trial": 7, "serialpos": 7, "trial_type": "single-stim", "trial_index": 260, "time_elapsed": 1299952, "internal_node_id": "0.0-188.0"}}, {"uniqueid": "MTK0736:33PPO7FECWM9MJ3MP0C5H64KI6WDIZ", "current_trial": 261, "dateTime": 1512679602771, "trialdata": {"rt": -1, "stimulus": "<p id=\"stim\">FRUIT</p>", "key_press": -1, "type": "PRES_VIS", "word": "fruit", "wordID": 609, "conditions": [24, 800, "v", 24000], "trial": 7, "serialpos": 8, "trial_type": "single-stim", "trial_index": 261, "time_elapsed": 1301815, "internal_node_id": "0.0-189.0"}}, {"uniqueid": "MTK0736:33PPO7FECWM9MJ3MP0C5H64KI6WDIZ", "current_trial": 262, "dateTime": 1512679604640, "trialdata": {"rt": -1, "stimulus": "<p id=\"stim\">GLOBE</p>", "key_press": -1, "type": "PRES_VIS", "word": "globe", "wordID": 640, "conditions": [24, 800, "v", 24000], "trial": 7, "serialpos": 9, "trial_type": "single-stim", "trial_index": 262, "time_elapsed": 1303685, "internal_node_id": "0.0-190.0"}}, {"uniqueid": "MTK0736:33PPO7FECWM9MJ3MP0C5H64KI6WDIZ", "current_trial": 263, "dateTime": 1512679606246, "trialdata": {"rt": -1, "stimulus": "<p id=\"stim\">CRUTCH</p>", "key_press": -1, "type": "PRES_VIS", "word": "crutch", "wordID": 416, "conditions": [24, 800, "v", 24000], "trial": 7, "serialpos": 10, "trial_type": "single-stim", "trial_index": 263, "time_elapsed": 1305290, "internal_node_id": "0.0-191.0"}}, {"uniqueid": "MTK0736:33PPO7FECWM9MJ3MP0C5H64KI6WDIZ", "current_trial": 264, "dateTime": 1512679608210, "trialdata": {"rt": -1, "stimulus": "<p id=\"stim\">BRACES</p>", "key_press": -1, "type": "PRES_VIS", "word": "braces", "wordID": 163, "conditions": [24, 800, "v", 24000], "trial": 7, "serialpos": 11, "trial_type": "single-stim", "trial_index": 264, "time_elapsed": 1307254, "internal_node_id": "0.0-192.0"}}, {"uniqueid": "MTK0736:33PPO7FECWM9MJ3MP0C5H64KI6WDIZ", "current_trial": 265, "dateTime": 1512679610098, "trialdata": {"rt": -1, "stimulus": "<p id=\"stim\">GOBLIN</p>", "key_press": -1, "type": "PRES_VIS", "word": "goblin", "wordID": 644, "conditions": [24, 800, "v", 24000], "trial": 7, "serialpos": 12, "trial_type": "single-stim", "trial_index": 265, "time_elapsed": 1309143, "internal_node_id": "0.0-193.0"}}, {"uniqueid": "MTK0736:33PPO7FECWM9MJ3MP0C5H64KI6WDIZ", "current_trial": 266, "dateTime": 1512679611829, "trialdata": {"rt": -1, "stimulus": "<p id=\"stim\">CELLAR</p>", "key_press": -1, "type": "PRES_VIS", "word": "cellar", "wordID": 266, "conditions": [24, 800, "v", 24000], "trial": 7, "serialpos": 13, "trial_type": "single-stim", "trial_index": 266, "time_elapsed": 1310874, "internal_node_id": "0.0-194.0"}}, {"uniqueid": "MTK0736:33PPO7FECWM9MJ3MP0C5H64KI6WDIZ", "current_trial": 267, "dateTime": 1512679613674, "trialdata": {"rt": -1, "stimulus": "<p id=\"stim\">HIGHWAY</p>", "key_press": -1, "type": "PRES_VIS", "word": "highway", "wordID": 706, "conditions": [24, 800, "v", 24000], "trial": 7, "serialpos": 14, "trial_type": "single-stim", "trial_index": 267, "time_elapsed": 1312718, "internal_node_id": "0.0-195.0"}}, {"uniqueid": "MTK0736:33PPO7FECWM9MJ3MP0C5H64KI6WDIZ", "current_trial": 268, "dateTime": 1512679615635, "trialdata": {"rt": -1, "stimulus": "<p id=\"stim\">POCKET</p>", "key_press": -1, "type": "PRES_VIS", "word": "pocket", "wordID": 1092, "conditions": [24, 800, "v", 24000], "trial": 7, "serialpos": 15, "trial_type": "single-stim", "trial_index": 268, "time_elapsed": 1314680, "internal_node_id": "0.0-196.0"}}, {"uniqueid": "MTK0736:33PPO7FECWM9MJ3MP0C5H64KI6WDIZ", "current_trial": 269, "dateTime": 1512679617455, "trialdata": {"rt": -1, "stimulus": "<p id=\"stim\">BRIEFCASE</p>", "key_press": -1, "type": "PRES_VIS", "word": "briefcase", "wordID": 174, "conditions": [24, 800, "v", 24000], "trial": 7, "serialpos": 16, "trial_type": "single-stim", "trial_index": 269, "time_elapsed": 1316498, "internal_node_id": "0.0-197.0"}}, {"uniqueid": "MTK0736:33PPO7FECWM9MJ3MP0C5H64KI6WDIZ", "current_trial": 270, "dateTime": 1512679619456, "trialdata": {"rt": -1, "stimulus": "<p id=\"stim\">SCARECROW</p>", "key_press": -1, "type": "PRES_VIS", "word": "scarecrow", "wordID": 1244, "conditions": [24, 800, "v", 24000], "trial": 7, "serialpos": 17, "trial_type": "single-stim", "trial_index": 270, "time_elapsed": 1318500, "internal_node_id": "0.0-198.0"}}, {"uniqueid": "MTK0736:33PPO7FECWM9MJ3MP0C5H64KI6WDIZ", "current_trial": 271, "dateTime": 1512679621145, "trialdata": {"rt": -1, "stimulus": "<p id=\"stim\">REPORT</p>", "key_press": -1, "type"