{"condition": 0, "counterbalance": 122, "assignmentId": "3ZAZR5XV02PLCHMIP85GXVPSRJ5CZC", "workerId": "MTK0385", "hitId": "3P458N04Q1OHMKW71VNNZD4BT52X20", "currenttrial": 626, "bonus": 0, "data": [{"uniqueid": "MTK0385:3ZAZR5XV02PLCHMIP85GXVPSRJ5CZC", "current_trial": 0, "dateTime": 1510780562856, "trialdata": {"rt": 57123, "key_press": 32, "type": "INSTRUCTIONS", "trial_type": "text", "trial_index": 0, "time_elapsed": 57127, "internal_node_id": "0.0-0.0"}}, {"uniqueid": "MTK0385:3ZAZR5XV02PLCHMIP85GXVPSRJ5CZC", "current_trial": 1, "dateTime": 1510780584061, "trialdata": {"rt": 21202, "key_press": 32, "type": "INSTRUCTIONS", "trial_type": "text", "trial_index": 1, "time_elapsed": 78332, "internal_node_id": "0.0-1.0"}}, {"uniqueid": "MTK0385:3ZAZR5XV02PLCHMIP85GXVPSRJ5CZC", "current_trial": 2, "dateTime": 1510780599877, "trialdata": {"rt": [15804], "responses": ["ocean"], "type": "AUDIO_TEST", "trial_type": "audio-test", "trial_index": 2, "time_elapsed": 94149, "internal_node_id": "0.0-2.0"}}, {"uniqueid": "MTK0385:3ZAZR5XV02PLCHMIP85GXVPSRJ5CZC", "current_trial": 3, "dateTime": 1510780607508, "trialdata": {"rt": [7628], "responses": ["crystal"], "type": "AUDIO_TEST", "trial_type": "audio-test", "trial_index": 3, "time_elapsed": 101780, "internal_node_id": "0.0-3.0"}}, {"uniqueid": "MTK0385:3ZAZR5XV02PLCHMIP85GXVPSRJ5CZC", "current_trial": 4, "dateTime": 1510780613716, "trialdata": {"rt": [6205], "responses": ["spice"], "type": "AUDIO_TEST", "trial_type": "audio-test", "trial_index": 4, "time_elapsed": 107988, "internal_node_id": "0.0-4.0"}}, {"uniqueid": "MTK0385:3ZAZR5XV02PLCHMIP85GXVPSRJ5CZC", "current_trial": 5, "dateTime": 1510780646768, "trialdata": {"rt": 32300, "responses": "{\"Q0\":\"11:50\",\"Q1\":\"6:30\",\"Q2\":\"4\"}", "type": "SLEEP_SURVEY", "trial_type": "survey-text", "trial_index": 5, "time_elapsed": 141040, "internal_node_id": "0.0-5.0"}}, {"uniqueid": "MTK0385:3ZAZR5XV02PLCHMIP85GXVPSRJ5CZC", "current_trial": 6, "dateTime": 1510780692283, "trialdata": {"rt": 44514, "key_press": 32, "type": "INSTRUCTIONS", "trial_type": "text", "trial_index": 6, "time_elapsed": 186555, "internal_node_id": "0.0-6.0"}}, {"uniqueid": "MTK0385:3ZAZR5XV02PLCHMIP85GXVPSRJ5CZC", "current_trial": 7, "dateTime": 1510780708381, "trialdata": {"rt": 15596, "key_press": 32, "type": "INSTRUCTIONS", "trial_type": "text", "trial_index": 7, "time_elapsed": 202653, "internal_node_id": "0.0-7.0"}}, {"uniqueid": "MTK0385:3ZAZR5XV02PLCHMIP85GXVPSRJ5CZC", "current_trial": 8, "dateTime": 1510780719867, "trialdata": {"rt": 10985, "key_press": 32, "type": "INSTRUCTIONS", "trial_type": "text", "trial_index": 8, "time_elapsed": 214139, "internal_node_id": "0.0-8.0"}}, {"uniqueid": "MTK0385:3ZAZR5XV02PLCHMIP85GXVPSRJ5CZC", "current_trial": 9, "dateTime": 1510780738875, "trialdata": {"rt": [2537, 5385, 7529, 10857, 13081, 16673], "responses": ["15", "9", "20", "24", "20", "16"], "num1": [2, 3, 7, 9, 9, 7, 9], "num2": [9, 5, 6, 6, 4, 2, 4], "num3": [4, 1, 7, 9, 7, 7, 6], "type": "DISTRACTOR", "conditions": [18, 1200, "v", 18000], "trial": 0, "trial_type": "math-distractor", "trial_index": 9, "time_elapsed": 233147, "internal_node_id": "0.0-9.0"}}, {"uniqueid": "MTK0385:3ZAZR5XV02PLCHMIP85GXVPSRJ5CZC", "current_trial": 10, "dateTime": 1510780741878, "trialdata": {"rt": -1, "stimulus": "<p id=\"stim\">10</p>", "key_press": -1, "trial_type": "single-stim", "trial_index": 10, "time_elapsed": 236150, "internal_node_id": "0.0-10.0-0.0"}}, {"uniqueid": "MTK0385:3ZAZR5XV02PLCHMIP85GXVPSRJ5CZC", "current_trial": 11, "dateTime": 1510780742879, "trialdata": {"rt": -1, "stimulus": "<p id=\"stim\">9</p>", "key_press": -1, "trial_type": "single-stim", "trial_index": 11, "time_elapsed": 237151, "internal_node_id": "0.0-10.0-1.0"}}, {"uniqueid": "MTK0385:3ZAZR5XV02PLCHMIP85GXVPSRJ5CZC", "current_trial": 12, "dateTime": 1510780743881, "trialdata": {"rt": -1, "stimulus": "<p id=\"stim\">8</p>", "key_press": -1, "trial_type": "single-stim", "trial_index": 12, "time_elapsed": 238153, "internal_node_id": "0.0-10.0-2.0"}}, {"uniqueid": "MTK0385:3ZAZR5XV02PLCHMIP85GXVPSRJ5CZC", "current_trial": 13, "dateTime": 1510780744882, "trialdata": {"rt": -1, "stimulus": "<p id=\"stim\">7</p>", "key_press": -1, "trial_type": "single-stim", "trial_index": 13, "time_elapsed": 239154, "internal_node_id": "0.0-10.0-3.0"}}, {"uniqueid": "MTK0385:3ZAZR5XV02PLCHMIP85GXVPSRJ5CZC", "current_trial": 14, "dateTime": 1510780745884, "trialdata": {"rt": -1, "stimulus": "<p id=\"stim\">6</p>", "key_press": -1, "trial_type": "single-stim", "trial_index": 14, "time_elapsed": 240156, "internal_node_id": "0.0-10.0-4.0"}}, {"uniqueid": "MTK0385:3ZAZR5XV02PLCHMIP85GXVPSRJ5CZC", "current_trial": 15, "dateTime": 1510780746887, "trialdata": {"rt": -1, "stimulus": "<p id=\"stim\">5</p>", "key_press": -1, "trial_type": "single-stim", "trial_index": 15, "time_elapsed": 241159, "internal_node_id": "0.0-10.0-5.0"}}, {"uniqueid": "MTK0385:3ZAZR5XV02PLCHMIP85GXVPSRJ5CZC", "current_trial": 16, "dateTime": 1510780747889, "trialdata": {"rt": -1, "stimulus": "<p id=\"stim\">4</p>", "key_press": -1, "trial_type": "single-stim", "trial_index": 16, "time_elapsed": 242161, "internal_node_id": "0.0-10.0-6.0"}}, {"uniqueid": "MTK0385:3ZAZR5XV02PLCHMIP85GXVPSRJ5CZC", "current_trial": 17, "dateTime": 1510780748890, "trialdata": {"rt": -1, "stimulus": "<p id=\"stim\">3</p>", "key_press": -1, "trial_type": "single-stim", "trial_index": 17, "time_elapsed": 243162, "internal_node_id": "0.0-10.0-7.0"}}, {"uniqueid": "MTK0385:3ZAZR5XV02PLCHMIP85GXVPSRJ5CZC", "current_trial": 18, "dateTime": 1510780749892, "trialdata": {"rt": -1, "stimulus": "<p id=\"stim\">2</p>", "key_press": -1, "trial_type": "single-stim", "trial_index": 18, "time_elapsed": 244164, "internal_node_id": "0.0-10.0-8.0"}}, {"uniqueid": "MTK0385:3ZAZR5XV02PLCHMIP85GXVPSRJ5CZC", "current_trial": 19, "dateTime": 1510780750894, "trialdata": {"rt": -1, "stimulus": "<p id=\"stim\">1</p>", "key_press": -1, "trial_type": "single-stim", "trial_index": 19, "time_elapsed": 245166, "internal_node_id": "0.0-10.0-9.0"}}, {"uniqueid": "MTK0385:3ZAZR5XV02PLCHMIP85GXVPSRJ5CZC", "current_trial": 20, "dateTime": 1510780752395, "trialdata": {"rt": -1, "stimulus": "<p id=\"stim\">+</p>", "key_press": -1, "type": "FIXATION", "trial_type": "single-stim", "trial_index": 20, "time_elapsed": 246667, "internal_node_id": "0.0-11.0-0.0"}}, {"uniqueid": "MTK0385:3ZAZR5XV02PLCHMIP85GXVPSRJ5CZC", "current_trial": 21, "dateTime": 1510780753597, "trialdata": {"rt": -1, "stimulus": "<p id=\"stim\">EYELASH</p>", "key_press": -1, "type": "PRES_VIS", "word": "eyelash", "wordID": 545, "conditions": [18, 1200, "v", 18000], "trial": 0, "serialpos": 0, "trial_type": "single-stim", "trial_index": 21, "time_elapsed": 247869, "internal_node_id": "0.0-12.0"}}, {"uniqueid": "MTK0385:3ZAZR5XV02PLCHMIP85GXVPSRJ5CZC", "current_trial": 22, "dateTime": 1510780755883, "trialdata": {"rt": -1, "stimulus": "<p id=\"stim\">CHEST</p>", "key_press": -1, "type": "PRES_VIS", "word": "chest", "wordID": 294, "conditions": [18, 1200, "v", 18000], "trial": 0, "serialpos": 1, "trial_type": "single-stim", "trial_index": 22, "time_elapsed": 250155, "internal_node_id": "0.0-13.0"}}, {"uniqueid": "MTK0385:3ZAZR5XV02PLCHMIP85GXVPSRJ5CZC", "current_trial": 23, "dateTime": 1510780758281, "trialdata": {"rt": -1, "stimulus": "<p id=\"stim\">STICKER</p>", "key_press": -1, "type": "PRES_VIS", "word": "sticker", "wordID": 1381, "conditions": [18, 1200, "v", 18000], "trial": 0, "serialpos": 2, "trial_type": "single-stim", "trial_index": 23, "time_elapsed": 252553, "internal_node_id": "0.0-14.0"}}, {"uniqueid": "MTK0385:3ZAZR5XV02PLCHMIP85GXVPSRJ5CZC", "current_trial": 24, "dateTime": 1510780760525, "trialdata": {"rt": -1, "stimulus": "<p id=\"stim\">EAGLE</p>", "key_press": -1, "type": "PRES_VIS", "word": "eagle", "wordID": 511, "conditions": [18, 1200, "v", 18000], "trial": 0, "serialpos": 3, "trial_type": "single-stim", "trial_index": 24, "time_elapsed": 254797, "internal_node_id": "0.0-15.0"}}, {"uniqueid": "MTK0385:3ZAZR5XV02PLCHMIP85GXVPSRJ5CZC", "current_trial": 25, "dateTime": 1510780762863, "trialdata": {"rt": -1, "stimulus": "<p id=\"stim\">MARS</p>", "key_press": -1, "type": "PRES_VIS", "word": "mars", "wordID": 872, "conditions": [18, 1200, "v", 18000], "trial": 0, "serialpos": 4, "trial_type": "single-stim", "trial_index": 25, "time_elapsed": 257135, "internal_node_id": "0.0-16.0"}}, {"uniqueid": "MTK0385:3ZAZR5XV02PLCHMIP85GXVPSRJ5CZC", "current_trial": 26, "dateTime": 1510780764923, "trialdata": {"rt": -1, "stimulus": "<p id=\"stim\">RIVER</p>", "key_press": -1, "type": "PRES_VIS", "word": "river", "wordID": 1193, "conditions": [18, 1200, "v", 18000], "trial": 0, "serialpos": 5, "trial_type": "single-stim", "trial_index": 26, "time_elapsed": 259195, "internal_node_id": "0.0-17.0"}}, {"uniqueid": "MTK0385:3ZAZR5XV02PLCHMIP85GXVPSRJ5CZC", "current_trial": 27, "dateTime": 1510780766981, "trialdata": {"rt": -1, "stimulus": "<p id=\"stim\">YACHT</p>", "key_press": -1, "type": "PRES_VIS", "word": "yacht", "wordID": 1628, "conditions": [18, 1200, "v", 18000], "trial": 0, "serialpos": 6, "trial_type": "single-stim", "trial_index": 27, "time_elapsed": 261253, "internal_node_id": "0.0-18.0"}}, {"uniqueid": "MTK0385:3ZAZR5XV02PLCHMIP85GXVPSRJ5CZC", "current_trial": 28, "dateTime": 1510780769245, "trialdata": {"rt": -1, "stimulus": "<p id=\"stim\">COUSIN</p>", "key_press": -1, "type": "PRES_VIS", "word": "cousin", "wordID": 391, "conditions": [18, 1200, "v", 18000], "trial": 0, "serialpos": 7, "trial_type": "single-stim", "trial_index": 28, "time_elapsed": 263517, "internal_node_id": "0.0-19.0"}}, {"uniqueid": "MTK0385:3ZAZR5XV02PLCHMIP85GXVPSRJ5CZC", "current_trial": 29, "dateTime": 1510780771466, "trialdata": {"rt": -1, "stimulus": "<p id=\"stim\">BABY</p>", "key_press": -1, "type": "PRES_VIS", "word": "baby", "wordID": 63, "conditions": [18, 1200, "v", 18000], "trial": 0, "serialpos": 8, "trial_type": "single-stim", "trial_index": 29, "time_elapsed": 265738, "internal_node_id": "0.0-20.0"}}, {"uniqueid": "MTK0385:3ZAZR5XV02PLCHMIP85GXVPSRJ5CZC", "current_trial": 30, "dateTime": 1510780773718, "trialdata": {"rt": -1, "stimulus": "<p id=\"stim\">BROTHER</p>", "key_press": -1, "type": "PRES_VIS", "word": "brother", "wordID": 178, "conditions": [18, 1200, "v", 18000], "trial": 0, "serialpos": 9, "trial_type": "single-stim", "trial_index": 30, "time_elapsed": 267990, "internal_node_id": "0.0-21.0"}}, {"uniqueid": "MTK0385:3ZAZR5XV02PLCHMIP85GXVPSRJ5CZC", "current_trial": 31, "dateTime": 1510780776113, "trialdata": {"rt": -1, "stimulus": "<p id=\"stim\">LONDON</p>", "key_press": -1, "type": "PRES_VIS", "word": "london", "wordID": 842, "conditions": [18, 1200, "v", 18000], "trial": 0, "serialpos": 10, "trial_type": "single-stim", "trial_index": 31, "time_elapsed": 270384, "internal_node_id": "0.0-22.0"}}, {"uniqueid": "MTK0385:3ZAZR5XV02PLCHMIP85GXVPSRJ5CZC", "current_trial": 32, "dateTime": 1510780778485, "trialdata": {"rt": -1, "stimulus": "<p id=\"stim\">SPIDER</p>", "key_press": -1, "type": "PRES_VIS", "word": "spider", "wordID": 1350, "conditions": [18, 1200, "v", 18000], "trial": 0, "serialpos": 11, "trial_type": "single-stim", "trial_index": 32, "time_elapsed": 272757, "internal_node_id": "0.0-23.0"}}, {"uniqueid": "MTK0385:3ZAZR5XV02PLCHMIP85GXVPSRJ5CZC", "current_trial": 33, "dateTime": 1510780780632, "trialdata": {"rt": -1, "stimulus": "<p id=\"stim\">MONEY</p>", "key_press": -1, "type": "PRES_VIS", "word": "money", "wordID": 907, "conditions": [18, 1200, "v", 18000], "trial": 0, "serialpos": 12, "trial_type": "single-stim", "trial_index": 33, "time_elapsed": 274904, "internal_node_id": "0.0-24.0"}}, {"uniqueid": "MTK0385:3ZAZR5XV02PLCHMIP85GXVPSRJ5CZC", "current_trial": 34, "dateTime": 1510780782662, "trialdata": {"rt": -1, "stimulus": "<p id=\"stim\">LIGHTNING</p>", "key_press": -1, "type": "PRES_VIS", "word": "lightning", "wordID": 819, "conditions": [18, 1200, "v", 18000], "trial": 0, "serialpos": 13, "trial_type": "single-stim", "trial_index": 34, "time_elapsed": 276934, "internal_node_id": "0.0-25.0"}}, {"uniqueid": "MTK0385:3ZAZR5XV02PLCHMIP85GXVPSRJ5CZC", "current_trial": 35, "dateTime": 1510780784681, "trialdata": {"rt": -1, "stimulus": "<p id=\"stim\">PARTNER</p>", "key_press": -1, "type": "PRES_VIS", "word": "partner", "wordID": 1016, "conditions": [18, 1200, "v", 18000], "trial": 0, "serialpos": 14, "trial_type": "single-stim", "trial_index": 35, "time_elapsed": 278953, "internal_node_id": "0.0-26.0"}}, {"uniqueid": "MTK0385:3ZAZR5XV02PLCHMIP85GXVPSRJ5CZC", "current_trial": 36, "dateTime": 1510780786750, "trialdata": {"rt": -1, "stimulus": "<p id=\"stim\">HAMPER</p>", "key_press": -1, "type": "PRES_VIS", "word": "hamper", "wordID": 681, "conditions": [18, 1200, "v", 18000], "trial": 0, "serialpos": 15, "trial_type": "single-stim", "trial_index": 36, "time_elapsed": 281022, "internal_node_id": "0.0-27.0"}}, {"uniqueid": "MTK0385:3ZAZR5XV02PLCHMIP85GXVPSRJ5CZC", "current_trial": 37, "dateTime": 1510780788839, "trialdata": {"rt": -1, "stimulus": "<p id=\"stim\">SPACE</p>", "key_press": -1, "type": "PRES_VIS", "word": "space", "wordID": 1344, "conditions": [18, 1200, "v", 18000], "trial": 0, "serialpos": 16, "trial_type": "single-stim", "trial_index": 37, "time_elapsed": 283111, "internal_node_id": "0.0-28.0"}}, {"uniqueid": "MTK0385:3ZAZR5XV02PLCHMIP85GXVPSRJ5CZC", "current_trial": 38, "dateTime": 1510780790911, "trialdata": {"rt": -1, "stimulus": "<p id=\"stim\">CRUTCH</p>", "key_press": -1, "type": "PRES_VIS", "word": "crutch", "wordID": 416, "conditions": [18, 1200, "v", 18000], "trial": 0, "serialpos": 17, "trial_type": "single-stim", "trial_index": 38, "time_elapsed": 285183, "internal_node_id": "0.0-29.0"}}, {"uniqueid": "MTK0385:3ZAZR5XV02PLCHMIP85GXVPSRJ5CZC", "current_trial": 39, "dateTime": 1510780793336, "trialdata": {"rt": -1, "stimulus": "", "key_press": -1, "type": "PRE_RECALL_DELAY", "trial_type": "single-stim", "trial_index": 39, "time_elapsed": 287608, "internal_node_id": "0.0-30.0-0.0"}}, {"uniqueid": "MTK0385:3ZAZR5XV02PLCHMIP85GXVPSRJ5CZC", "current_trial": 40, "dateTime": 1510780793840, "trialdata": {"rt": -1000, "stimulus": "/static/audio/400Hz.wav", "key_press": -1, "type": "PRE_RECALL_ALERT", "trial_type": "single-audio", "trial_index": 40, "time_elapsed": 288112, "internal_node_id": "0.0-31.0"}}, {"uniqueid": "MTK0385:3ZAZR5XV02PLCHMIP85GXVPSRJ5CZC", "current_trial": 41, "dateTime": 1510780853848, "trialdata": {"rt": [2759, 4199, 5503, 6759, 8152, 9912, 11967, 14903, 23063, 37039, 46647], "recwords": ["eyelash", "sticker", "eagle", "chest", "money", "baby", "lightning", "hamper", "", "baby", "river"], "type": "FREE_RECALL", "conditions": [18, 1200, "v", 18000], "trial": 0, "trial_type": "free-recall", "trial_index": 41, "time_elapsed": 348117, "internal_node_id": "0.0-32.0-0.0"}}, {"uniqueid": "MTK0385:3ZAZR5XV02PLCHMIP85GXVPSRJ5CZC", "current_trial": 42, "dateTime": 1510780857282, "trialdata": {"rt": 1432, "key_press": 32, "type": "INSTRUCTIONS", "trial_type": "text", "trial_index": 42, "time_elapsed": 351554, "internal_node_id": "0.0-33.0"}}, {"uniqueid": "MTK0385:3ZAZR5XV02PLCHMIP85GXVPSRJ5CZC", "current_trial": 43, "dateTime": 1510780877286, "trialdata": {"rt": [3413, 5821, 7461, 8949, 11749, 13461, 14996, 16853], "responses": ["14", "21", "18", "12", "20", "9", "15", "15"], "num1": [2, 7, 7, 2, 8, 7, 2, 4, 7], "num2": [9, 9, 6, 5, 5, 1, 8, 9, 1], "num3": [3, 5, 5, 5, 7, 1, 5, 2, 4], "type": "DISTRACTOR", "conditions": [18, 1200, "a", 18000], "trial": 1, "trial_type": "math-distractor", "trial_index": 43, "time_elapsed": 371558, "internal_node_id": "0.0-34.0"}}, {"uniqueid": "MTK0385:3ZAZR5XV02PLCHMIP85GXVPSRJ5CZC", "current_trial": 44, "dateTime": 1510780880288, "trialdata": {"rt": -1, "stimulus": "<p id=\"stim\">10</p>", "key_press": -1, "trial_type": "single-stim", "trial_index": 44, "time_elapsed": 374560, "internal_node_id": "0.0-35.0-0.0"}}, {"uniqueid": "MTK0385:3ZAZR5XV02PLCHMIP85GXVPSRJ5CZC", "current_trial": 45, "dateTime": 1510780881290, "trialdata": {"rt": -1, "stimulus": "<p id=\"stim\">9</p>", "key_press": -1, "trial_type": "single-stim", "trial_index": 45, "time_elapsed": 375562, "internal_node_id": "0.0-35.0-1.0"}}, {"uniqueid": "MTK0385:3ZAZR5XV02PLCHMIP85GXVPSRJ5CZC", "current_trial": 46, "dateTime": 1510780882292, "trialdata": {"rt": -1, "stimulus": "<p id=\"stim\">8</p>", "key_press": -1, "trial_type": "single-stim", "trial_index": 46, "time_elapsed": 376564, "internal_node_id": "0.0-35.0-2.0"}}, {"uniqueid": "MTK0385:3ZAZR5XV02PLCHMIP85GXVPSRJ5CZC", "current_trial": 47, "dateTime": 1510780883294, "trialdata": {"rt": -1, "stimulus": "<p id=\"stim\">7</p>", "key_press": -1, "trial_type": "single-stim", "trial_index": 47, "time_elapsed": 377566, "internal_node_id": "0.0-35.0-3.0"}}, {"uniqueid": "MTK0385:3ZAZR5XV02PLCHMIP85GXVPSRJ5CZC", "current_trial": 48, "dateTime": 1510780884295, "trialdata": {"rt": -1, "stimulus": "<p id=\"stim\">6</p>", "key_press": -1, "trial_type": "single-stim", "trial_index": 48, "time_elapsed": 378567, "internal_node_id": "0.0-35.0-4.0"}}, {"uniqueid": "MTK0385:3ZAZR5XV02PLCHMIP85GXVPSRJ5CZC", "current_trial": 49, "dateTime": 1510780885297, "trialdata": {"rt": -1, "stimulus": "<p id=\"stim\">5</p>", "key_press": -1, "trial_type": "single-stim", "trial_index": 49, "time_elapsed": 379569, "internal_node_id": "0.0-35.0-5.0"}}, {"uniqueid": "MTK0385:3ZAZR5XV02PLCHMIP85GXVPSRJ5CZC", "current_trial": 50, "dateTime": 1510780886298, "trialdata": {"rt": -1, "stimulus": "<p id=\"stim\">4</p>", "key_press": -1, "trial_type": "single-stim", "trial_index": 50, "time_elapsed": 380570, "internal_node_id": "0.0-35.0-6.0"}}, {"uniqueid": "MTK0385:3ZAZR5XV02PLCHMIP85GXVPSRJ5CZC", "current_trial": 51, "dateTime": 1510780887300, "trialdata": {"rt": -1, "stimulus": "<p id=\"stim\">3</p>", "key_press": -1, "trial_type": "single-stim", "trial_index": 51, "time_elapsed": 381572, "internal_node_id": "0.0-35.0-7.0"}}, {"uniqueid": "MTK0385:3ZAZR5XV02PLCHMIP85GXVPSRJ5CZC", "current_trial": 52, "dateTime": 1510780888301, "trialdata": {"rt": -1, "stimulus": "<p id=\"stim\">2</p>", "key_press": -1, "trial_type": "single-stim", "trial_index": 52, "time_elapsed": 382573, "internal_node_id": "0.0-35.0-8.0"}}, {"uniqueid": "MTK0385:3ZAZR5XV02PLCHMIP85GXVPSRJ5CZC", "current_trial": 53, "dateTime": 1510780889303, "trialdata": {"rt": -1, "stimulus": "<p id=\"stim\">1</p>", "key_press": -1, "trial_type": "single-stim", "trial_index": 53, "time_elapsed": 383575, "internal_node_id": "0.0-35.0-9.0"}}, {"uniqueid": "MTK0385:3ZAZR5XV02PLCHMIP85GXVPSRJ5CZC", "current_trial": 54, "dateTime": 1510780890805, "trialdata": {"rt": -1, "stimulus": "<p id=\"stim\">+</p>", "key_press": -1, "type": "FIXATION", "trial_type": "single-stim", "trial_index": 54, "time_elapsed": 385077, "internal_node_id": "0.0-36.0-0.0"}}, {"uniqueid": "MTK0385:3ZAZR5XV02PLCHMIP85GXVPSRJ5CZC", "current_trial": 55, "dateTime": 1510780892911, "trialdata": {"rt": -1000, "stimulus": "/static/audio/wordpool/BLOCKADE.wav", "key_press": -1, "type": "PRES_AUD", "word": "blockade", "wordID": 136, "conditions": [18, 1200, "a", 18000], "trial": 1, "serialpos": 0, "trial_type": "single-audio", "trial_index": 55, "time_elapsed": 387183, "internal_node_id": "0.0-37.0"}}, {"uniqueid": "MTK0385:3ZAZR5XV02PLCHMIP85GXVPSRJ5CZC", "current_trial": 56, "dateTime": 1510780894964, "trialdata": {"rt": -1000, "stimulus": "/static/audio/wordpool/BRANCH.wav", "key_press": -1, "type": "PRES_AUD", "word": "branch", "wordID": 167, "conditions": [18, 1200, "a", 18000], "trial": 1, "serialpos": 1, "trial_type": "single-audio", "trial_index": 56, "time_elapsed": 389236, "internal_node_id": "0.0-38.0"}}, {"uniqueid": "MTK0385:3ZAZR5XV02PLCHMIP85GXVPSRJ5CZC", "current_trial": 57, "dateTime": 1510780897256, "trialdata": {"rt": -1000, "stimulus": "/static/audio/wordpool/GLOVE.wav", "key_press": -1, "type": "PRES_AUD", "word": "glove", "wordID": 641, "conditions": [18, 1200, "a", 18000], "trial": 1, "serialpos": 2, "trial_type": "single-audio", "trial_index": 57, "time_elapsed": 391528, "internal_node_id": "0.0-39.0"}}, {"uniqueid": "MTK0385:3ZAZR5XV02PLCHMIP85GXVPSRJ5CZC", "current_trial": 58, "dateTime": 1510780899365, "trialdata": {"rt": -1000, "stimulus": "/static/audio/wordpool/TOMBSTONE.wav", "key_press": -1, "type": "PRES_AUD", "word": "tombstone", "wordID": 1477, "conditions": [18, 1200, "a", 18000], "trial": 1, "serialpos": 3, "trial_type": "single-audio", "trial_index": 58, "time_elapsed": 393637, "internal_node_id": "0.0-40.0"}}, {"uniqueid": "MTK0385:3ZAZR5XV02PLCHMIP85GXVPSRJ5CZC", "current_trial": 59, "dateTime": 1510780901541, "trialdata": {"rt": -1000, "stimulus": "/static/audio/wordpool/CELLAR.wav", "key_press": -1, "type": "PRES_AUD", "word": "cellar", "wordID": 266, "conditions": [18, 1200, "a", 18000], "trial": 1, "serialpos": 4, "trial_type": "single-audio", "trial_index": 59, "time_elapsed": 395811, "internal_node_id": "0.0-41.0"}}, {"uniqueid": "MTK0385:3ZAZR5XV02PLCHMIP85GXVPSRJ5CZC", "current_trial": 60, "dateTime": 1510780903640, "trialdata": {"rt": -1000, "stimulus": "/static/audio/wordpool/PLAZA.wav", "key_press": -1, "type": "PRES_AUD", "word": "plaza", "wordID": 1087, "conditions": [18, 1200, "a", 18000], "trial": 1, "serialpos": 5, "trial_type": "single-audio", "trial_index": 60, "time_elapsed": 397911, "internal_node_id": "0.0-42.0"}}, {"uniqueid": "MTK0385:3ZAZR5XV02PLCHMIP85GXVPSRJ5CZC", "current_trial": 61, "dateTime": 1510780906029, "trialdata": {"rt": -1000, "stimulus": "/static/audio/wordpool/GLOBE.wav", "key_press": -1, "type": "PRES_AUD", "word": "globe", "wordID": 640, "conditions": [18, 1200, "a", 18000], "trial": 1, "serialpos": 6, "trial_type": "single-audio", "trial_index": 61, "time_elapsed": 400300, "internal_node_id": "0.0-43.0"}}, {"uniqueid": "MTK0385:3ZAZR5XV02PLCHMIP85GXVPSRJ5CZC", "current_trial": 62, "dateTime": 1510780908045, "trialdata": {"rt": -1000, "stimulus": "/static/audio/wordpool/PASTRY.wav", "key_press": -1, "type": "PRES_AUD", "word": "pastry", "wordID": 1021, "conditions": [18, 1200, "a", 18000], "trial": 1, "serialpos": 7, "trial_type": "single-audio", "trial_index": 62, "time_elapsed": 402317, "internal_node_id": "0.0-44.0"}}, {"uniqueid": "MTK0385:3ZAZR5XV02PLCHMIP85GXVPSRJ5CZC", "current_trial": 63, "dateTime": 1510780910368, "trialdata": {"rt": -1000, "stimulus": "/static/audio/wordpool/TUTU.wav", "key_press": -1, "type": "PRES_AUD", "word": "tutu", "wordID": 1523, "conditions": [18, 1200, "a", 18000], "trial": 1, "serialpos": 8, "trial_type": "single-audio", "trial_index": 63, "time_elapsed": 404640, "internal_node_id": "0.0-45.0"}}, {"uniqueid": "MTK0385:3ZAZR5XV02PLCHMIP85GXVPSRJ5CZC", "current_trial": 64, "dateTime": 1510780912607, "trialdata": {"rt": -1000, "stimulus": "/static/audio/wordpool/WIFE.wav", "key_press": -1, "type": "PRES_AUD", "word": "wife", "wordID": 1608, "conditions": [18, 1200, "a", 18000], "trial": 1, "serialpos": 9, "trial_type": "single-audio", "trial_index": 64, "time_elapsed": 406879, "internal_node_id": "0.0-46.0"}}, {"uniqueid": "MTK0385:3ZAZR5XV02PLCHMIP85GXVPSRJ5CZC", "current_trial": 65, "dateTime": 1510780914891, "trialdata": {"rt": -1000, "stimulus": "/static/audio/wordpool/BUGGY.wav", "key_press": -1, "type": "PRES_AUD", "word": "buggy", "wordID": 187, "conditions": [18, 1200, "a", 18000], "trial": 1, "serialpos": 10, "trial_type": "single-audio", "trial_index": 65, "time_elapsed": 409163, "internal_node_id": "0.0-47.0"}}, {"uniqueid": "MTK0385:3ZAZR5XV02PLCHMIP85GXVPSRJ5CZC", "current_trial": 66, "dateTime": 1510780917262, "trialdata": {"rt": -1000, "stimulus": "/static/audio/wordpool/RUST.wav", "key_press": -1, "type": "PRES_AUD", "word": "rust", "wordID": 1218, "conditions": [18, 1200, "a", 18000], "trial": 1, "serialpos": 11, "trial_type": "single-audio", "trial_index": 66, "time_elapsed": 411534, "internal_node_id": "0.0-48.0"}}, {"uniqueid": "MTK0385:3ZAZR5XV02PLCHMIP85GXVPSRJ5CZC", "current_trial": 67, "dateTime": 1510780919297, "trialdata": {"rt": -1000, "stimulus": "/static/audio/wordpool/TURTLE.wav", "key_press": -1, "type": "PRES_AUD", "word": "turtle", "wordID": 1521, "conditions": [18, 1200, "a", 18000], "trial": 1, "serialpos": 12, "trial_type": "single-audio", "trial_index": 67, "time_elapsed": 413569, "internal_node_id": "0.0-49.0"}}, {"uniqueid": "MTK0385:3ZAZR5XV02PLCHMIP85GXVPSRJ5CZC", "current_trial": 68, "dateTime": 1510780921548, "trialdata": {"rt": -1000, "stimulus": "/static/audio/wordpool/VENUS.wav", "key_press": -1, "type": "PRES_AUD", "word": "venus", "wordID": 1556, "conditions": [18, 1200, "a", 18000], "trial": 1, "serialpos": 13, "trial_type": "single-audio", "trial_index": 68, "time_elapsed": 415817, "internal_node_id": "0.0-50.0"}}, {"uniqueid": "MTK0385:3ZAZR5XV02PLCHMIP85GXVPSRJ5CZC", "current_trial": 69, "dateTime": 1510780923936, "trialdata": {"rt": -1000, "stimulus": "/static/audio/wordpool/TEACHER.wav", "key_press": -1, "type": "PRES_AUD", "word": "teacher", "wordID": 1439, "conditions": [18, 1200, "a", 18000], "trial": 1, "serialpos": 14, "trial_type": "single-audio", "trial_index": 69, "time_elapsed": 418208, "internal_node_id": "0.0-51.0"}}, {"uniqueid": "MTK0385:3ZAZR5XV02PLCHMIP85GXVPSRJ5CZC", "current_trial": 70, "dateTime": 1510780925980, "trialdata": {"rt": -1000, "stimulus": "/static/audio/wordpool/PERMIT.wav", "key_press": -1, "type": "PRES_AUD", "word": "permit", "wordID": 1050, "conditions": [18, 1200, "a", 18000], "trial": 1, "serialpos": 15, "trial_type": "single-audio", "trial_index": 70, "time_elapsed": 420252, "internal_node_id": "0.0-52.0"}}, {"uniqueid": "MTK0385:3ZAZR5XV02PLCHMIP85GXVPSRJ5CZC", "current_trial": 71, "dateTime": 1510780928242, "trialdata": {"rt": -1000, "stimulus": "/static/audio/wordpool/TWISTER.wav", "key_press": -1, "type": "PRES_AUD", "word": "twister", "wordID": 1529, "conditions": [18, 1200, "a", 18000], "trial": 1, "serialpos": 16, "trial_type": "single-audio", "trial_index": 71, "time_elapsed": 422514, "internal_node_id": "0.0-53.0"}}, {"uniqueid": "MTK0385:3ZAZR5XV02PLCHMIP85GXVPSRJ5CZC", "current_trial": 72, "dateTime": 1510780930353, "trialdata": {"rt": -1000, "stimulus": "/static/audio/wordpool/VAGRANT.wav", "key_press": -1, "type": "PRES_AUD", "word": "vagrant", "wordID": 1543, "conditions": [18, 1200, "a", 18000], "trial": 1, "serialpos": 17, "trial_type": "single-audio", "trial_index": 72, "time_elapsed": 424625, "internal_node_id": "0.0-54.0"}}, {"uniqueid": "MTK0385:3ZAZR5XV02PLCHMIP85GXVPSRJ5CZC", "current_trial": 73, "dateTime": 1510780931744, "trialdata": {"rt": -1, "stimulus": "", "key_press": -1, "type": "PRE_RECALL_DELAY", "trial_type": "single-stim", "trial_index": 73, "time_elapsed": 426016, "internal_node_id": "0.0-55.0-0.0"}}, {"uniqueid": "MTK0385:3ZAZR5XV02PLCHMIP85GXVPSRJ5CZC", "current_trial": 74, "dateTime": 1510780932253, "trialdata": {"rt": -1000, "stimulus": "/static/audio/400Hz.wav", "key_press": -1, "type": "PRE_RECALL_ALERT", "trial_type": "single-audio", "trial_index": 74, "time_elapsed": 426525, "internal_node_id": "0.0-56.0"}}, {"uniqueid": "MTK0385:3ZAZR5XV02PLCHMIP85GXVPSRJ5CZC", "current_trial": 75, "dateTime": 1510780992259, "trialdata": {"rt": [2810, 4050, 6186, 7770, 9178, 16354, 42970], "recwords": ["vagrant", "wife", "twister", "buggy", "tutu", "french", ""], "type": "FREE_RECALL", "conditions": [18, 1200, "a", 18000], "trial": 1, "trial_type": "free-recall", "trial_index": 75, "time_elapsed": 486528, "internal_node_id": "0.0-57.0-0.0"}}, {"uniqueid": "MTK0385:3ZAZR5XV02PLCHMIP85GXVPSRJ5CZC", "current_trial": 76, "dateTime": 1510780999030, "trialdata": {"rt": 4763, "key_press": 32, "type": "INSTRUCTIONS", "trial_type": "text", "trial_index": 76, "time_elapsed": 493297, "internal_node_id": "0.0-58.0"}}, {"uniqueid": "MTK0385:3ZAZR5XV02PLCHMIP85GXVPSRJ5CZC", "current_trial": 77, "dateTime": 1510781024034, "trialdata": {"rt": [1649, 3729, 6137, 7985, 10146, 12106, 13666, 15250, 17378, 18906, 21067], "responses": ["11", "12", "21", "15", "11", "18", "18", "11", "14", "15", "22"], "num1": [3, 8, 9, 1, 7, 5, 5, 1, 6, 1, 8, 7], "num2": [3, 1, 8, 8, 1, 9, 8, 8, 1, 5, 8, 9], "num3": [5, 3, 4, 6, 3, 4, 5, 2, 7, 9, 6, 7], "type": "DISTRACTOR", "conditions": [12, 800, "a", 24000], "trial": 2, "trial_type": "math-distractor", "trial_index": 77, "time_elapsed": 518306, "internal_node_id": "0.0-59.0"}}, {"uniqueid": "MTK0385:3ZAZR5XV02PLCHMIP85GXVPSRJ5CZC", "current_trial": 78, "dateTime": 1510781027037, "trialdata": {"rt": -1, "stimulus": "<p id=\"stim\">10</p>", "key_press": -1, "trial_type": "single-stim", "trial_index": 78, "time_elapsed": 521309, "internal_node_id": "0.0-60.0-0.0"}}, {"uniqueid": "MTK0385:3ZAZR5XV02PLCHMIP85GXVPSRJ5CZC", "current_trial": 79, "dateTime": 1510781028038, "trialdata": {"rt": -1, "stimulus": "<p id=\"stim\">9</p>", "key_press": -1, "trial_type": "single-stim", "trial_index": 79, "time_elapsed": 522310, "internal_node_id": "0.0-60.0-1.0"}}, {"uniqueid": "MTK0385:3ZAZR5XV02PLCHMIP85GXVPSRJ5CZC", "current_trial": 80, "dateTime": 1510781029040, "trialdata": {"rt": -1, "stimulus": "<p id=\"stim\">8</p>", "key_press": -1, "trial_type": "single-stim", "trial_index": 80, "time_elapsed": 523312, "internal_node_id": "0.0-60.0-2.0"}}, {"uniqueid": "MTK0385:3ZAZR5XV02PLCHMIP85GXVPSRJ5CZC", "current_trial": 81, "dateTime": 1510781030041, "trialdata": {"rt": -1, "stimulus": "<p id=\"stim\">7</p>", "key_press": -1, "trial_type": "single-stim", "trial_index": 81, "time_elapsed": 524313, "internal_node_id": "0.0-60.0-3.0"}}, {"uniqueid": "MTK0385:3ZAZR5XV02PLCHMIP85GXVPSRJ5CZC", "current_trial": 82, "dateTime": 1510781031042, "trialdata": {"rt": -1, "stimulus": "<p id=\"stim\">6</p>", "key_press": -1, "trial_type": "single-stim", "trial_index": 82, "time_elapsed": 525314, "internal_node_id": "0.0-60.0-4.0"}}, {"uniqueid": "MTK0385:3ZAZR5XV02PLCHMIP85GXVPSRJ5CZC", "current_trial": 83, "dateTime": 1510781032044, "trialdata": {"rt": -1, "stimulus": "<p id=\"stim\">5</p>", "key_press": -1, "trial_type": "single-stim", "trial_index": 83, "time_elapsed": 526316, "internal_node_id": "0.0-60.0-5.0"}}, {"uniqueid": "MTK0385:3ZAZR5XV02PLCHMIP85GXVPSRJ5CZC", "current_trial": 84, "dateTime": 1510781033045, "trialdata": {"rt": -1, "stimulus": "<p id=\"stim\">4</p>", "key_press": -1, "trial_type": "single-stim", "trial_index": 84, "time_elapsed": 527317, "internal_node_id": "0.0-60.0-6.0"}}, {"uniqueid": "MTK0385:3ZAZR5XV02PLCHMIP85GXVPSRJ5CZC", "current_trial": 85, "dateTime": 1510781034046, "trialdata": {"rt": -1, "stimulus": "<p id=\"stim\">3</p>", "key_press": -1, "trial_type": "single-stim", "trial_index": 85, "time_elapsed": 528318, "internal_node_id": "0.0-60.0-7.0"}}, {"uniqueid": "MTK0385:3ZAZR5XV02PLCHMIP85GXVPSRJ5CZC", "current_trial": 86, "dateTime": 1510781035047, "trialdata": {"rt": -1, "stimulus": "<p id=\"stim\">2</p>", "key_press": -1, "trial_type": "single-stim", "trial_index": 86, "time_elapsed": 529319, "internal_node_id": "0.0-60.0-8.0"}}, {"uniqueid": "MTK0385:3ZAZR5XV02PLCHMIP85GXVPSRJ5CZC", "current_trial": 87, "dateTime": 1510781036048, "trialdata": {"rt": -1, "stimulus": "<p id=\"stim\">1</p>", "key_press": -1, "trial_type": "single-stim", "trial_index": 87, "time_elapsed": 530320, "internal_node_id": "0.0-60.0-9.0"}}, {"uniqueid": "MTK0385:3ZAZR5XV02PLCHMIP85GXVPSRJ5CZC", "current_trial": 88, "dateTime": 1510781037549, "trialdata": {"rt": -1, "stimulus": "<p id=\"stim\">+</p>", "key_press": -1, "type": "FIXATION", "trial_type": "single-stim", "trial_index": 88, "time_elapsed": 531821, "internal_node_id": "0.0-61.0-0.0"}}, {"uniqueid": "MTK0385:3ZAZR5XV02PLCHMIP85GXVPSRJ5CZC", "current_trial": 89, "dateTime": 1510781039176, "trialdata": {"rt": -1000, "stimulus": "/static/audio/wordpool/LION.wav", "key_press": -1, "type": "PRES_AUD", "word": "lion", "wordID": 826, "conditions": [12, 800, "a", 24000], "trial": 2, "serialpos": 0, "trial_type": "single-audio", "trial_index": 89, "time_elapsed": 533448, "internal_node_id": "0.0-62.0"}}, {"uniqueid": "MTK0385:3ZAZR5XV02PLCHMIP85GXVPSRJ5CZC", "current_trial": 90, "dateTime": 1510781040895, "trialdata": {"rt": -1000, "stimulus": "/static/audio/wordpool/PENGUIN.wav", "key_press": -1, "type": "PRES_AUD", "word": "penguin", "wordID": 1043, "conditions": [12, 800, "a", 24000], "trial": 2, "serialpos": 1, "trial_type": "single-audio", "trial_index": 90, "time_elapsed": 535167, "internal_node_id": "0.0-63.0"}}, {"uniqueid": "MTK0385:3ZAZR5XV02PLCHMIP85GXVPSRJ5CZC", "current_trial": 91, "dateTime": 1510781042559, "trialdata": {"rt": -1000, "stimulus": "/static/audio/wordpool/GLASS.wav", "key_press": -1, "type": "PRES_AUD", "word": "glass", "wordID": 638, "conditions": [12, 800, "a", 24000], "trial": 2, "serialpos": 2, "trial_type": "single-audio", "trial_index": 91, "time_elapsed": 536831, "internal_node_id": "0.0-64.0"}}, {"uniqueid": "MTK0385:3ZAZR5XV02PLCHMIP85GXVPSRJ5CZC", "current_trial": 92, "dateTime": 1510781044331, "trialdata": {"rt": -1000, "stimulus": "/static/audio/wordpool/STALLION.wav", "key_press": -1, "type": "PRES_AUD", "word": "stallion", "wordID": 1368, "conditions": [12, 800, "a", 24000], "trial": 2, "serialpos": 3, "trial_type": "single-audio", "trial_index": 92, "time_elapsed": 538603, "internal_node_id": "0.0-65.0"}}, {"uniqueid": "MTK0385:3ZAZR5XV02PLCHMIP85GXVPSRJ5CZC", "current_trial": 93, "dateTime": 1510781046245, "trialdata": {"rt": -1000, "stimulus": "/static/audio/wordpool/LACE.wav", "key_press": -1, "type": "PRES_AUD", "word": "lace", "wordID": 791, "conditions": [12, 800, "a", 24000], "trial": 2, "serialpos": 4, "trial_type": "single-audio", "trial_index": 93, "time_elapsed": 540517, "internal_node_id": "0.0-66.0"}}, {"uniqueid": "MTK0385:3ZAZR5XV02PLCHMIP85GXVPSRJ5CZC", "current_trial": 94, "dateTime": 1510781047849, "trialdata": {"rt": -1000, "stimulus": "/static/audio/wordpool/SHRUB.wav", "key_press": -1, "type": "PRES_AUD", "word": "shrub", "wordID": 1298, "conditions": [12, 800, "a", 24000], "trial": 2, "serialpos": 5, "trial_type": "single-audio", "trial_index": 94, "time_elapsed": 542121, "internal_node_id": "0.0-67.0"}}, {"uniqueid": "MTK0385:3ZAZR5XV02PLCHMIP85GXVPSRJ5CZC", "current_trial": 95, "dateTime": 1510781049470, "trialdata": {"rt": -1000, "stimulus": "/static/audio/wordpool/ORCHID.wav", "key_press": -1, "type": "PRES_AUD", "word": "orchid", "wordID": 981, "conditions": [12, 800, "a", 24000], "trial": 2, "serialpos": 6, "trial_type": "single-audio", "trial_index": 95, "time_elapsed": 543741, "internal_node_id": "0.0-68.0"}}, {"uniqueid": "MTK0385:3ZAZR5XV02PLCHMIP85GXVPSRJ5CZC", "current_trial": 96, "dateTime": 1510781051283, "trialdata": {"rt": -1000, "stimulus": "/static/audio/wordpool/ULCER.wav", "key_press": -1, "type": "PRES_AUD", "word": "ulcer", "wordID": 1532, "conditions": [12, 800, "a", 24000], "trial": 2, "serialpos": 7, "trial_type": "single-audio", "trial_index": 96, "time_elapsed": 545555, "internal_node_id": "0.0-69.0"}}, {"uniqueid": "MTK0385:3ZAZR5XV02PLCHMIP85GXVPSRJ5CZC", "current_trial": 97, "dateTime": 1510781053045, "trialdata": {"rt": -1000, "stimulus": "/static/audio/wordpool/BUNNY.wav", "key_press": -1, "type": "PRES_AUD", "word": "bunny", "wordID": 197, "conditions": [12, 800, "a", 24000], "trial": 2, "serialpos": 8, "trial_type": "single-audio", "trial_index": 97, "time_elapsed": 547317, "internal_node_id": "0.0-70.0"}}, {"uniqueid": "MTK0385:3ZAZR5XV02PLCHMIP85GXVPSRJ5CZC", "current_trial": 98, "dateTime": 1510781055048, "trialdata": {"rt": -1000, "stimulus": "/static/audio/wordpool/STONE.wav", "key_press": -1, "type": "PRES_AUD", "word": "stone", "wordID": 1384, "conditions": [12, 800, "a", 24000], "trial": 2, "serialpos": 9, "trial_type": "single-audio", "trial_index": 98, "time_elapsed": 549319, "internal_node_id": "0.0-71.0"}}, {"uniqueid": "MTK0385:3ZAZR5XV02PLCHMIP85GXVPSRJ5CZC", "current_trial": 99, "dateTime": 1510781057014, "trialdata": {"rt": -1000, "stimulus": "/static/audio/wordpool/EXPERT.wav", "key_press": -1, "type": "PRES_AUD", "word": "expert", "wordID": 542, "conditions": [12, 800, "a", 24000], "trial": 2, "serialpos": 10, "trial_type": "single-audio", "trial_index": 99, "time_elapsed": 551285, "internal_node_id": "0.0-72.0"}}, {"uniqueid": "MTK0385:3ZAZR5XV02PLCHMIP85GXVPSRJ5CZC", "current_trial": 100, "dateTime": 1510781058941, "trialdata": {"rt": -1000, "stimulus": "/static/audio/wordpool/AUTHOR.wav", "key_press": -1, "type": "PRES_AUD", "word": "author", "wordID": 60, "conditions": [12, 800, "a", 24000], "trial": 2, "serialpos": 11, "trial_type": "single-audio", "trial_index": 100, "time_elapsed": 553213, "internal_node_id": "0.0-73.0"}}, {"uniqueid": "MTK0385:3ZAZR5XV02PLCHMIP85GXVPSRJ5CZC", "current_trial": 101, "dateTime": 1510781060323, "trialdata": {"rt": -1, "stimulus": "", "key_press": -1, "type": "PRE_RECALL_DELAY", "trial_type": "single-stim", "trial_index": 101, "time_elapsed": 554595, "internal_node_id": "0.0-74.0-0.0"}}, {"uniqueid": "MTK0385:3ZAZR5XV02PLCHMIP85GXVPSRJ5CZC", "current_trial": 102, "dateTime": 1510781060825, "trialdata": {"rt": -1000, "stimulus": "/static/audio/400Hz.wav", "key_press": -1, "type": "PRE_RECALL_ALERT", "trial_type": "single-audio", "trial_index": 102, "time_elapsed": 555097, "internal_node_id": "0.0-75.0"}}, {"uniqueid": "MTK0385:3ZAZR5XV02PLCHMIP85GXVPSRJ5CZC", "current_trial": 103, "dateTime": 1510781120829, "trialdata": {"rt": [1806, 2997, 6078, 8486, 9645, 11421, 14780, 16660, 56676], "recwords": ["lion", "bunny", "penguin", "expert", "author", "ulcer", "stallion", "orchid", "penguin"], "type": "FREE_RECALL", "conditions": [12, 800, "a", 24000], "trial": 2, "trial_type": "free-recall", "trial_index": 103, "time_elapsed": 615099, "internal_node_id": "0.0-76.0-0.0"}}, {"uniqueid": "MTK0385:3ZAZR5XV02PLCHMIP85GXVPSRJ5CZC", "current_trial": 104, "dateTime": 1510781125336, "trialdata": {"rt": 2505, "key_press": 32, "type": "INSTRUCTIONS", "trial_type": "text", "trial_index": 104, "time_elapsed": 619608, "internal_node_id": "0.0-77.0"}}, {"uniqueid": "MTK0385:3ZAZR5XV02PLCHMIP85GXVPSRJ5CZC", "current_trial": 105, "dateTime": 1510781151339, "trialdata": {"rt": [2125, 3517, 5645, 7509, 9717, 11429, 13101, 14573, 16813, 17934, 20045, 21085, 23093], "responses": ["15", "4", "18", "9", "18", "18", "16", "9", "20", "5.", "17", "4", "20"], "num1": [1, 1, 5, 3, 2, 1, 7, 2, 4, 1, 6, 2, 9, 6], "num2": [8, 1, 9, 5, 8, 9, 3, 6, 9, 1, 6, 1, 2, 5], "num3": [6, 2, 4, 1, 8, 8, 6, 1, 7, 3, 5, 1, 9, 8], "type": "DISTRACTOR", "conditions": [24, 1600, "v", 24000], "trial": 3, "trial_type": "math-distractor", "trial_index": 105, "time_elapsed": 645611, "internal_node_id": "0.0-78.0"}}, {"uniqueid": "MTK0385:3ZAZR5XV02PLCHMIP85GXVPSRJ5CZC", "current_trial": 106, "dateTime": 1510781154342, "trialdata": {"rt": -1, "stimulus": "<p id=\"stim\">10</p>", "key_press": -1, "trial_type": "single-stim", "trial_index": 106, "time_elapsed": 648614, "internal_node_id": "0.0-79.0-0.0"}}, {"uniqueid": "MTK0385:3ZAZR5XV02PLCHMIP85GXVPSRJ5CZC", "current_trial": 107, "dateTime": 1510781155343, "trialdata": {"rt": -1, "stimulus": "<p id=\"stim\">9</p>", "key_press": -1, "trial_type": "single-stim", "trial_index": 107, "time_elapsed": 649615, "internal_node_id": "0.0-79.0-1.0"}}, {"uniqueid": "MTK0385:3ZAZR5XV02PLCHMIP85GXVPSRJ5CZC", "current_trial": 108, "dateTime": 1510781156344, "trialdata": {"rt": -1, "stimulus": "<p id=\"stim\">8</p>", "key_press": -1, "trial_type": "single-stim", "trial_index": 108, "time_elapsed": 650616, "internal_node_id": "0.0-79.0-2.0"}}, {"uniqueid": "MTK0385:3ZAZR5XV02PLCHMIP85GXVPSRJ5CZC", "current_trial": 109, "dateTime": 1510781157346, "trialdata": {"rt": -1, "stimulus": "<p id=\"stim\">7</p>", "key_press": -1, "trial_type": "single-stim", "trial_index": 109, "time_elapsed": 651618, "internal_node_id": "0.0-79.0-3.0"}}, {"uniqueid": "MTK0385:3ZAZR5XV02PLCHMIP85GXVPSRJ5CZC", "current_trial": 110, "dateTime": 1510781158347, "trialdata": {"rt": -1, "stimulus": "<p id=\"stim\">6</p>", "key_press": -1, "trial_type": "single-stim", "trial_index": 110, "time_elapsed": 652619, "internal_node_id": "0.0-79.0-4.0"}}, {"uniqueid": "MTK0385:3ZAZR5XV02PLCHMIP85GXVPSRJ5CZC", "current_trial": 111, "dateTime": 1510781159350, "trialdata": {"rt": -1, "stimulus": "<p id=\"stim\">5</p>", "key_press": -1, "trial_type": "single-stim", "trial_index": 111, "time_elapsed": 653622, "internal_node_id": "0.0-79.0-5.0"}}, {"uniqueid": "MTK0385:3ZAZR5XV02PLCHMIP85GXVPSRJ5CZC", "current_trial": 112, "dateTime": 1510781160351, "trialdata": {"rt": -1, "stimulus": "<p id=\"stim\">4</p>", "key_press": -1, "trial_type": "single-stim", "trial_index": 112, "time_elapsed": 654623, "internal_node_id": "0.0-79.0-6.0"}}, {"uniqueid": "MTK0385:3ZAZR5XV02PLCHMIP85GXVPSRJ5CZC", "current_trial": 113, "dateTime": 1510781161352, "trialdata": {"rt": -1, "stimulus": "<p id=\"stim\">3</p>", "key_press": -1, "trial_type": "single-stim", "trial_index": 113, "time_elapsed": 655624, "internal_node_id": "0.0-79.0-7.0"}}, {"uniqueid": "MTK0385:3ZAZR5XV02PLCHMIP85GXVPSRJ5CZC", "current_trial": 114, "dateTime": 1510781162354, "trialdata": {"rt": -1, "stimulus": "<p id=\"stim\">2</p>", "key_press": -1, "trial_type": "single-stim", "trial_index": 114, "time_elapsed": 656626, "internal_node_id": "0.0-79.0-8.0"}}, {"uniqueid": "MTK0385:3ZAZR5XV02PLCHMIP85GXVPSRJ5CZC", "current_trial": 115, "dateTime": 1510781163355, "trialdata": {"rt": -1, "stimulus": "<p id=\"stim\">1</p>", "key_press": -1, "trial_type": "single-stim", "trial_index": 115, "time_elapsed": 657627, "internal_node_id": "0.0-79.0-9.0"}}, {"uniqueid": "MTK0385:3ZAZR5XV02PLCHMIP85GXVPSRJ5CZC", "current_trial": 116, "dateTime": 1510781164857, "trialdata": {"rt": -1, "stimulus": "<p id=\"stim\">+</p>", "key_press": -1, "type": "FIXATION", "trial_type": "single-stim", "trial_index": 116, "time_elapsed": 659129, "internal_node_id": "0.0-80.0-0.0"}}, {"uniqueid": "MTK0385:3ZAZR5XV02PLCHMIP85GXVPSRJ5CZC", "current_trial": 117, "dateTime": 1510781166458, "trialdata": {"rt": -1, "stimulus": "<p id=\"stim\">SKIRT</p>", "key_press": -1, "type": "PRES_VIS", "word": "skirt", "wordID": 1318, "conditions": [24, 1600, "v", 24000], "trial": 3, "serialpos": 0, "trial_type": "single-stim", "trial_index": 117, "time_elapsed": 660730, "internal_node_id": "0.0-81.0"}}, {"uniqueid": "MTK0385:3ZAZR5XV02PLCHMIP85GXVPSRJ5CZC", "current_trial": 118, "dateTime": 1510781169236, "trialdata": {"rt": -1, "stimulus": "<p id=\"stim\">BEAKER</p>", "key_press": -1, "type": "PRES_VIS", "word": "beaker", "wordID": 103, "conditions": [24, 1600, "v", 24000], "trial": 3, "serialpos": 1, "trial_type": "single-stim", "trial_index": 118, "time_elapsed": 663508, "internal_node_id": "0.0-82.0"}}, {"uniqueid": "MTK0385:3ZAZR5XV02PLCHMIP85GXVPSRJ5CZC", "current_trial": 119, "dateTime": 1510781171974, "trialdata": {"rt": -1, "stimulus": "<p id=\"stim\">FLASK</p>", "key_press": -1, "type": "PRES_VIS", "word": "flask", "wordID": 575, "conditions": [24, 1600, "v", 24000], "trial": 3, "serialpos": 2, "trial_type": "single-stim", "trial_index": 119, "time_elapsed": 666246, "internal_node_id": "0.0-83.0"}}, {"uniqueid": "MTK0385:3ZAZR5XV02PLCHMIP85GXVPSRJ5CZC", "current_trial": 120, "dateTime": 1510781174577, "trialdata": {"rt": -1, "stimulus": "<p id=\"stim\">SILK</p>", "key_press": -1, "type": "PRES_VIS", "word": "silk", "wordID": 1306, "conditions": [24, 1600, "v", 24000], "trial": 3, "serialpos": 3, "trial_type": "single-stim", "trial_index": 120, "time_elapsed": 668849, "internal_node_id": "0.0-84.0"}}, {"uniqueid": "MTK0385:3ZAZR5XV02PLCHMIP85GXVPSRJ5CZC", "current_trial": 121, "dateTime": 1510781177174, "trialdata": {"rt": -1, "stimulus": "<p id=\"stim\">TWIG</p>", "key_press": -1, "type": "PRES_VIS", "word": "twig", "wordID": 1526, "conditions": [24, 1600, "v", 24000], "trial": 3, "serialpos": 4, "trial_type": "single-stim", "trial_index": 121, "time_elapsed": 671446, "internal_node_id": "0.0-85.0"}}, {"uniqueid": "MTK0385:3ZAZR5XV02PLCHMIP85GXVPSRJ5CZC", "current_trial": 122, "dateTime": 1510781179713, "trialdata": {"rt": -1, "stimulus": "<p id=\"stim\">DAUGHTER</p>", "key_press": -1, "type": "PRES_VIS", "word": "daughter", "wordID": 441, "conditions": [24, 1600, "v", 24000], "trial": 3, "serialpos": 5, "trial_type": "single-stim", "trial_index": 122, "time_elapsed": 673985, "internal_node_id": "0.0-86.0"}}, {"uniqueid": "MTK0385:3ZAZR5XV02PLCHMIP85GXVPSRJ5CZC", "current_trial": 123, "dateTime": 1510781182404, "trialdata": {"rt": -1, "stimulus": "<p id=\"stim\">EUROPE</p>", "key_press": -1, "type": "PRES_VIS", "word": "europe", "wordID": 540, "conditions": [24, 1600, "v", 24000], "trial": 3, "serialpos": 6, "trial_type": "single-stim", "trial_index": 123, "time_elapsed": 676676, "internal_node_id": "0.0-87.0"}}, {"uniqueid": "MTK0385:3ZAZR5XV02PLCHMIP85GXVPSRJ5CZC", "current_trial": 124, "dateTime": 1510781185005, "trialdata": {"rt": -1, "stimulus": "<p id=\"stim\">SEAFOOD</p>", "key_press": -1, "type": "PRES_VIS", "word": "seafood", "wordID": 1259, "conditions": [24, 1600, "v", 24000], "trial": 3, "serialpos": 7, "trial_type": "single-stim", "trial_index": 124, "time_elapsed": 679277, "internal_node_id": "0.0-88.0"}}, {"uniqueid": "MTK0385:3ZAZR5XV02PLCHMIP85GXVPSRJ5CZC", "current_trial": 125, "dateTime": 1510781187438, "trialdata": {"rt": -1, "stimulus": "<p id=\"stim\">BOYFRIEND</p>", "key_press": -1, "type": "PRES_VIS", "word": "boyfriend", "wordID": 161, "conditions": [24, 1600, "v", 24000], "trial": 3, "serialpos": 8, "trial_type": "single-stim", "trial_index": 125, "time_elapsed": 681710, "internal_node_id": "0.0-89.0"}}, {"uniqueid": "MTK0385:3ZAZR5XV02PLCHMIP85GXVPSRJ5CZC", "current_trial": 126, "dateTime": 1510781190193, "trialdata": {"rt": -1, "stimulus": "<p id=\"stim\">SPARROW</p>", "key_press": -1, "type": "PRES_VIS", "word": "sparrow", "wordID": 1346, "conditions": [24, 1600, "v", 24000], "trial": 3, "serialpos": 9, "trial_type": "single-stim", "trial_index": 126, "time_elapsed": 684465, "internal_node_id": "0.0-90.0"}}, {"uniqueid": "MTK0385:3ZAZR5XV02PLCHMIP85GXVPSRJ5CZC", "current_trial": 127, "dateTime": 1510781192596, "trialdata": {"rt": -1, "stimulus": "<p id=\"stim\">DRAGON</p>", "key_press": -1, "type": "PRES_VIS", "word": "dragon", "wordID": 491, "conditions": [24, 1600, "v", 24000], "trial": 3, "serialpos": 10, "trial_type": "single-stim", "trial_index": 127, "time_elapsed": 686868, "internal_node_id": "0.0-91.0"}}, {"uniqueid": "MTK0385:3ZAZR5XV02PLCHMIP85GXVPSRJ5CZC", "current_trial": 128, "dateTime": 1510781195174, "trialdata": {"rt": -1, "stimulus": "<p id=\"stim\">VIRUS</p>", "key_press": -1, "type": "PRES_VIS", "word": "virus", "wordID": 1571, "conditions": [24, 1600, "v", 24000], "trial": 3, "serialpos": 11, "trial_type": "single-stim", "trial_index": 128, "time_elapsed": 689446, "internal_node_id": "0.0-92.0"}}, {"uniqueid": "MTK0385:3ZAZR5XV02PLCHMIP85GXVPSRJ5CZC", "current_trial": 129, "dateTime": 1510781197639, "trialdata": {"rt": -1, "stimulus": "<p id=\"stim\">HOOD</p>", "key_press": -1, "type": "PRES_VIS", "word": "hood", "wordID": 713, "conditions": [24, 1600, "v", 24000], "trial": 3, "serialpos": 12, "trial_type": "single-stim", "trial_index": 129, "time_elapsed": 691911, "internal_node_id": "0.0-93.0"}}, {"uniqueid": "MTK0385:3ZAZR5XV02PLCHMIP85GXVPSRJ5CZC", "current_trial": 130, "dateTime": 1510781200201, "trialdata": {"rt": -1, "stimulus": "<p id=\"stim\">WAITER</p>", "key_press": -1, "type": "PRES_VIS", "word": "waiter", "wordID": 1579, "conditions": [24, 1600, "v", 24000], "trial": 3, "serialpos": 13, "trial_type": "single-stim", "trial_index": 130, "time_elapsed": 694473, "internal_node_id": "0.0-94.0"}}, {"uniqueid": "MTK0385:3ZAZR5XV02PLCHMIP85GXVPSRJ5CZC", "current_trial": 131, "dateTime": 1510781202836, "trialdata": {"rt": -1, "stimulus": "<p id=\"stim\">CLIMBER</p>", "key_press": -1, "type": "PRES_VIS", "word": "climber", "wordID": 322, "conditions": [24, 1600, "v", 24000], "trial": 3, "serialpos": 14, "trial_type": "single-stim", "trial_index": 131, "time_elapsed": 697108, "internal_node_id": "0.0-95.0"}}, {"uniqueid": "MTK0385:3ZAZR5XV02PLCHMIP85GXVPSRJ5CZC", "current_trial": 132, "dateTime": 1510781205438, "trialdata": {"rt": -1, "stimulus": "<p id=\"stim\">BEAVER</p>", "key_press": -1, "type": "PRES_VIS", "word": "beaver", "wordID": 108, "conditions": [24, 1600, "v", 24000], "trial": 3, "serialpos": 15, "trial_type": "single-stim", "trial_index": 132, "time_elapsed": 699710, "internal_node_id": "0.0-96.0"}}, {"uniqueid": "MTK0385:3ZAZR5XV02PLCHMIP85GXVPSRJ5CZC", "current_trial": 133, "dateTime": 1510781208002, "trialdata": {"rt": -1, "stimulus": "<p id=\"stim\">RABBIT</p>", "key_press": -1, "type": "PRES_VIS", "word": "rabbit", "wordID": 1151, "conditions": [24, 1600, "v", 24000], "trial": 3, "serialpos": 16, "trial_type": "single-stim", "trial_index": 133, "time_elapsed": 702274, "internal_node_id": "0.0-97.0"}}, {"uniqueid": "MTK0385:3ZAZR5XV02PLCHMIP85GXVPSRJ5CZC", "current_trial": 134, "dateTime": 1510781210718, "trialdata": {"rt": -1, "stimulus": "<p id=\"stim\">HIKER</p>", "key_press": -1, "type": "PRES_VIS", "word": "hiker", "wordID": 707, "conditions": [24, 1600, "v", 24000], "trial": 3, "serialpos": 17, "trial_type": "single-stim", "trial_index": 134, "time_elapsed": 704990, "internal_node_id": "0.0-98.0"}}, {"uniqueid": "MTK0385:3ZAZR5XV02PLCHMIP85GXVPSRJ5CZC", "current_trial": 135, "dateTime": 1510781213239, "trialdata": {"rt": -1, "stimulus": "<p id=\"stim\">CREVICE</p>", "key_press": -1, "type": "PRES_VIS", "word": "crevice", "wordID": 404, "conditions": [24, 1600, "v", 24000], "trial": 3, "serialpos": 18, "trial_type": "single-stim", "trial_index": 135, "time_elapsed": 707511, "internal_node_id": "0.0-99.0"}}, {"uniqueid": "MTK0385:3ZAZR5XV02PLCHMIP85GXVPSRJ5CZC", "current_trial": 136, "dateTime": 1510781215697, "trialdata": {"rt": -1, "stimulus": "<p id=\"stim\">MAILBOX</p>", "key_press": -1, "type": "PRES_VIS", "word": "mailbox", "wordID": 856, "conditions": [24, 1600, "v", 24000], "trial": 3, "serialpos": 19, "trial_type": "single-stim", "trial_index": 136, "time_elapsed": 709969, "internal_node_id": "0.0-100.0"}}, {"uniqueid": "MTK0385:3ZAZR5XV02PLCHMIP85GXVPSRJ5CZC", "current_trial": 137, "dateTime": 1510781218384, "trialdata": {"rt": -1, "stimulus": "<p id=\"stim\">LOFT</p>", "key_press": -1, "type": "PRES_VIS", "word": "loft", "wordID": 839, "conditions": [24, 1600, "v", 24000], "trial": 3, "serialpos": 20, "trial_type": "single-stim", "trial_index": 137, "time_elapsed": 712656, "internal_node_id": "0.0-101.0"}}, {"uniqueid": "MTK0385:3ZAZR5XV02PLCHMIP85GXVPSRJ5CZC", "current_trial": 138, "dateTime": 1510781220850, "trialdata": {"rt": -1, "stimulus": "<p id=\"stim\">ICEBERG</p>", "key_press": -1, "type": "PRES_VIS", "word": "iceberg", "wordID": 730, "conditions": [24, 1600, "v", 24000], "trial": 3, "serialpos": 21, "trial_type": "single-stim", "trial_index": 138, "time_elapsed": 715122, "internal_node_id": "0.0-102.0"}}, {"uniqueid": "MTK0385:3ZAZR5XV02PLCHMIP85GXVPSRJ5CZC", "current_trial": 139, "dateTime": 1510781223543, "trialdata": {"rt": -1, "stimulus": "<p id=\"stim\">TWEEZERS</p>", "key_press": -1, "type": "PRES_VIS", "word": "tweezers", "wordID": 1525, "conditions": [24, 1600, "v", 24000], "trial": 3, "serialpos": 22, "trial_type": "single-stim", "trial_index": 139, "time_elapsed": 717815, "internal_node_id": "0.0-103.0"}}, {"uniqueid": "MTK0385:3ZAZR5XV02PLCHMIP85GXVPSRJ5CZC", "current_trial": 140, "dateTime": 1510781225961, "trialdata": {"rt": -1, "stimulus": "<p id=\"stim\">DRIVER</p>", "key_press": -1, "type": "PRES_VIS", "word": "driver", "wordID": 498, "conditions": [24, 1600, "v", 24000], "trial": 3, "serialpos": 23, "trial_type": "single-stim", "trial_index": 140, "time_elapsed": 720231, "internal_node_id": "0.0-104.0"}}, {"uniqueid": "MTK0385:3ZAZR5XV02PLCHMIP85GXVPSRJ5CZC", "current_trial": 141, "dateTime": 1510781228207, "trialdata": {"rt": -1, "stimulus": "", "key_press": -1, "type": "PRE_RECALL_DELAY", "trial_type": "single-stim", "trial_index": 141, "time_elapsed": 722479, "internal_node_id": "0.0-105.0-0.0"}}, {"uniqueid": "MTK0385:3ZAZR5XV02PLCHMIP85GXVPSRJ5CZC", "current_trial": 142, "dateTime": 1510781228708, "trialdata": {"rt": -1000, "stimulus": "/static/audio/400Hz.wav", "key_press": -1, "type": "PRE_RECALL_ALERT", "trial_type": "single-audio", "trial_index": 142, "time_elapsed": 722980, "internal_node_id": "0.0-106.0"}}, {"uniqueid": "MTK0385:3ZAZR5XV02PLCHMIP85GXVPSRJ5CZC", "current_trial": 143, "dateTime": 1510781288714, "trialdata": {"rt": [3689, 6009, 7417, 10833, 11809, 13489, 15665, 23777, 34025], "recwords": ["driver", "tweezers", "skirt", "beaker", "twig", "flask", "europe", "hiker", "dragon"], "type": "FREE_RECALL", "conditions": [24, 1600, "v", 24000], "trial": 3, "trial_type": "free-recall", "trial_index": 143, "time_elapsed": 782983, "internal_node_id": "0.0-107.0-0.0"}}, {"uniqueid": "MTK0385:3ZAZR5XV02PLCHMIP85GXVPSRJ5CZC", "current_trial": 144, "dateTime": 1510781291655, "trialdata": {"rt": 939, "key_press": 32, "type": "INSTRUCTIONS", "trial_type": "text", "trial_index": 144, "time_elapsed": 785927, "internal_node_id": "0.0-108.0"}}, {"uniqueid": "MTK0385:3ZAZR5XV02PLCHMIP85GXVPSRJ5CZC", "current_trial": 145, "dateTime": 1510781305658, "trialdata": {"rt": [3301, 6436, 7941, 10324], "responses": ["23", "14", "18", "17"], "num1": [9, 7, 8, 5, 4], "num2": [8, 6, 3, 9, 4], "num3": [6, 1, 7, 3, 7], "type": "DISTRACTOR", "conditions": [24, 1600, "a", 12000], "trial": 4, "trial_type": "math-distractor", "trial_index": 145, "time_elapsed": 799930, "internal_node_id": "0.0-109.0"}}, {"uniqueid": "MTK0385:3ZAZR5XV02PLCHMIP85GXVPSRJ5CZC", "current_trial": 146, "dateTime": 1510781308660, "trialdata": {"rt": -1, "stimulus": "<p id=\"stim\">10</p>", "key_press": -1, "trial_type": "single-stim", "trial_index": 146, "time_elapsed": 802932, "internal_node_id": "0.0-110.0-0.0"}}, {"uniqueid": "MTK0385:3ZAZR5XV02PLCHMIP85GXVPSRJ5CZC", "current_trial": 147, "dateTime": 1510781309661, "trialdata": {"rt": -1, "stimulus": "<p id=\"stim\">9</p>", "key_press": -1, "trial_type": "single-stim", "trial_index": 147, "time_elapsed": 803933, "internal_node_id": "0.0-110.0-1.0"}}, {"uniqueid": "MTK0385:3ZAZR5XV02PLCHMIP85GXVPSRJ5CZC", "current_trial": 148, "dateTime": 1510781310664, "trialdata": {"rt": -1, "stimulus": "<p id=\"stim\">8</p>", "key_press": -1, "trial_type": "single-stim", "trial_index": 148, "time_elapsed": 804936, "internal_node_id": "0.0-110.0-2.0"}}, {"uniqueid": "MTK0385:3ZAZR5XV02PLCHMIP85GXVPSRJ5CZC", "current_trial": 149, "dateTime": 1510781311665, "trialdata": {"rt": -1, "stimulus": "<p id=\"stim\">7</p>", "key_press": -1, "trial_type": "single-stim", "trial_index": 149, "time_elapsed": 805936, "internal_node_id": "0.0-110.0-3.0"}}, {"uniqueid": "MTK0385:3ZAZR5XV02PLCHMIP85GXVPSRJ5CZC", "current_trial": 150, "dateTime": 1510781312666, "trialdata": {"rt": -1, "stimulus": "<p id=\"stim\">6</p>", "key_press": -1, "trial_type": "single-stim", "trial_index": 150, "time_elapsed": 806938, "internal_node_id": "0.0-110.0-4.0"}}, {"uniqueid": "MTK0385:3ZAZR5XV02PLCHMIP85GXVPSRJ5CZC", "current_trial": 151, "dateTime": 1510781313667, "trialdata": {"rt": -1, "stimulus": "<p id=\"stim\">5</p>", "key_press": -1, "trial_type": "single-stim", "trial_index": 151, "time_elapsed": 807939, "internal_node_id": "0.0-110.0-5.0"}}, {"uniqueid": "MTK0385:3ZAZR5XV02PLCHMIP85GXVPSRJ5CZC", "current_trial": 152, "dateTime": 1510781314669, "trialdata": {"rt": -1, "stimulus": "<p id=\"stim\">4</p>", "key_press": -1, "trial_type": "single-stim", "trial_index": 152, "time_elapsed": 808941, "internal_node_id": "0.0-110.0-6.0"}}, {"uniqueid": "MTK0385:3ZAZR5XV02PLCHMIP85GXVPSRJ5CZC", "current_trial": 153, "dateTime": 1510781315670, "trialdata": {"rt": -1, "stimulus": "<p id=\"stim\">3</p>", "key_press": -1, "trial_type": "single-stim", "trial_index": 153, "time_elapsed": 809942, "internal_node_id": "0.0-110.0-7.0"}}, {"uniqueid": "MTK0385:3ZAZR5XV02PLCHMIP85GXVPSRJ5CZC", "current_trial": 154, "dateTime": 1510781316671, "trialdata": {"rt": -1, "stimulus": "<p id=\"stim\">2</p>", "key_press": -1, "trial_type": "single-stim", "trial_index": 154, "time_elapsed": 810943, "internal_node_id": "0.0-110.0-8.0"}}, {"uniqueid": "MTK0385:3ZAZR5XV02PLCHMIP85GXVPSRJ5CZC", "current_trial": 155, "dateTime": 1510781317673, "trialdata": {"rt": -1, "stimulus": "<p id=\"stim\">1</p>", "key_press": -1, "trial_type": "single-stim", "trial_index": 155, "time_elapsed": 811945, "internal_node_id": "0.0-110.0-9.0"}}, {"uniqueid": "MTK0385:3ZAZR5XV02PLCHMIP85GXVPSRJ5CZC", "current_trial": 156, "dateTime": 1510781319174, "trialdata": {"rt": -1, "stimulus": "<p id=\"stim\">+</p>", "key_press": -1, "type": "FIXATION", "trial_type": "single-stim", "trial_index": 156, "time_elapsed": 813446, "internal_node_id": "0.0-111.0-0.0"}}, {"uniqueid": "MTK0385:3ZAZR5XV02PLCHMIP85GXVPSRJ5CZC", "current_trial": 157, "dateTime": 1510781321695, "trialdata": {"rt": -1000, "stimulus": "/static/audio/wordpool/LOVER.wav", "key_press": -1, "type": "PRES_AUD", "word": "lover", "wordID": 845, "conditions": [24, 1600, "a", 12000], "trial": 4, "serialpos": 0, "trial_type": "single-audio", "trial_index": 157, "time_elapsed": 815966, "internal_node_id": "0.0-112.0"}}, {"uniqueid": "MTK0385:3ZAZR5XV02PLCHMIP85GXVPSRJ5CZC", "current_trial": 158, "dateTime": 1510781324453, "trialdata": {"rt": -1000, "stimulus": "/static/audio/wordpool/WAGON.wav", "key_press": -1, "type": "PRES_AUD", "word": "wagon", "wordID": 1577, "conditions": [24, 1600, "a", 12000], "trial": 4, "serialpos": 1, "trial_type": "single-audio", "trial_index": 158, "time_elapsed": 818724, "internal_node_id": "0.0-113.0"}}, {"uniqueid": "MTK0385:3ZAZR5XV02PLCHMIP85GXVPSRJ5CZC", "current_trial": 159, "dateTime": 1510781327176, "trialdata": {"rt": -1000, "stimulus": "/static/audio/wordpool/TRACTOR.wav", "key_press": -1, "type": "PRES_AUD", "word": "tractor", "wordID": 1492, "conditions": [24, 1600, "a", 12000], "trial": 4, "serialpos": 2, "trial_type": "single-audio", "trial_index": 159, "time_elapsed": 821447, "internal_node_id": "0.0-114.0"}}, {"uniqueid": "MTK0385:3ZAZR5XV02PLCHMIP85GXVPSRJ5CZC", "current_trial": 160, "dateTime": 1510781329848, "trialdata": {"rt": -1000, "stimulus": "/static/audio/wordpool/POWDER.wav", "key_press": -1, "type": "PRES_AUD", "word": "powder", "wordID": 1116, "conditions": [24, 1600, "a", 12000], "trial": 4, "serialpos": 3, "trial_type": "single-audio", "trial_index": 160, "time_elapsed": 824118, "internal_node_id": "0.0-115.0"}}, {"uniqueid": "MTK0385:3ZAZR5XV02PLCHMIP85GXVPSRJ5CZC", "current_trial": 161, "dateTime": 1510781332500, "trialdata": {"rt": -1000, "stimulus": "/static/audio/wordpool/HUSBAND.wav", "key_press": -1, "type": "PRES_AUD", "word": "husband", "wordID": 727, "conditions": [24, 1600, "a", 12000], "trial": 4, "serialpos": 4, "trial_type": "single-audio", "trial_index": 161, "time_elapsed": 826772, "internal_node_id": "0.0-116.0"}}, {"uniqueid": "MTK0385:3ZAZR5XV02PLCHMIP85GXVPSRJ5CZC", "current_trial": 162, "dateTime": 1510781335124, "trialdata": {"rt": -1000, "stimulus": "/static/audio/wordpool/CRATER.wav", "key_press": -1, "type": "PRES_AUD", "word": "crater", "wordID": 399, "conditions": [24, 1600, "a", 12000], "trial": 4, "serialpos": 5, "trial_type": "single-audio", "trial_index": 162, "time_elapsed": 829396, "internal_node_id": "0.0-117.0"}}, {"uniqueid": "MTK0385:3ZAZR5XV02PLCHMIP85GXVPSRJ5CZC", "current_trial": 163, "dateTime": 1510781337921, "trialdata": {"rt": -1000, "stimulus": "/static/audio/wordpool/CAMEL.wav", "key_press": -1, "type": "PRES_AUD", "word": "camel", "wordID": 222, "conditions": [24, 1600, "a", 12000], "trial": 4, "serialpos": 6, "trial_type": "single-audio", "trial_index": 163, "time_elapsed": 832192, "internal_node_id": "0.0-118.0"}}, {"uniqueid": "MTK0385:3ZAZR5XV02PLCHMIP85GXVPSRJ5CZC", "current_trial": 164, "dateTime": 1510781340580, "trialdata": {"rt": -1000, "stimulus": "/static/audio/wordpool/PARROT.wav", "key_press": -1, "type": "PRES_AUD", "word": "parrot", "wordID": 1014, "conditions": [24, 1600, "a", 12000], "trial": 4, "serialpos": 7, "trial_type": "single-audio", "trial_index": 164, "time_elapsed": 834851, "internal_node_id": "0.0-119.0"}}, {"uniqueid": "MTK0385:3ZAZR5XV02PLCHMIP85GXVPSRJ5CZC", "current_trial": 165, "dateTime": 1510781343230, "trialdata": {"rt": -1000, "stimulus": "/static/audio/wordpool/MISSILE.wav", "key_press": -1, "type": "PRES_AUD", "word": "missile", "wordID": 899, "conditions": [24, 1600, "a", 12000], "trial": 4, "serialpos": 8, "trial_type": "single-audio", "trial_index": 165, "time_elapsed": 837502, "internal_node_id": "0.0-120.0"}}, {"uniqueid": "MTK0385:3ZAZR5XV02PLCHMIP85GXVPSRJ5CZC", "current_trial": 166, "dateTime": 1510781345782, "trialdata": {"rt": -1000, "stimulus": "/static/audio/wordpool/FRIEND.wav", "key_press": -1, "type": "PRES_AUD", "word": "friend", "wordID": 605, "conditions": [24, 1600, "a", 12000], "trial": 4, "serialpos": 9, "trial_type": "single-audio", "trial_index": 166, "time_elapsed": 840054, "internal_node_id": "0.0-121.0"}}, {"uniqueid": "MTK0385:3ZAZR5XV02PLCHMIP85GXVPSRJ5CZC", "current_trial": 167, "dateTime": 1510781348462, "trialdata": {"rt": -1000, "stimulus": "/static/audio/wordpool/OYSTER.wav", "key_press": -1, "type": "PRES_AUD", "word": "oyster", "wordID": 994, "conditions": [24, 1600, "a", 12000], "trial": 4, "serialpos": 10, "trial_type": "single-audio", "trial_index": 167, "time_elapsed": 842733, "internal_node_id": "0.0-122.0"}}, {"uniqueid": "MTK0385:3ZAZR5XV02PLCHMIP85GXVPSRJ5CZC", "current_trial": 168, "dateTime": 1510781351098, "trialdata": {"rt": -1000, "stimulus": "/static/audio/wordpool/LUGGAGE.wav", "key_press": -1, "type": "PRES_AUD", "word": "luggage", "wordID": 846, "conditions": [24, 1600, "a", 12000], "trial": 4, "serialpos": 11, "trial_type": "single-audio", "trial_index": 168, "time_elapsed": 845369, "internal_node_id": "0.0-123.0"}}, {"uniqueid": "MTK0385:3ZAZR5XV02PLCHMIP85GXVPSRJ5CZC", "current_trial": 169, "dateTime": 1510781353603, "trialdata": {"rt": -1000, "stimulus": "/static/audio/wordpool/NAPKIN.wav", "key_press": -1, "type": "PRES_AUD", "word": "napkin", "wordID": 936, "conditions": [24, 1600, "a", 12000], "trial": 4, "serialpos": 12, "trial_type": "single-audio", "trial_index": 169, "time_elapsed": 847874, "internal_node_id": "0.0-124.0"}}, {"uniqueid": "MTK0385:3ZAZR5XV02PLCHMIP85GXVPSRJ5CZC", "current_trial": 170, "dateTime": 1510781356060, "trialdata": {"rt": -1000, "stimulus": "/static/audio/wordpool/TREAT.wav", "key_press": -1, "type": "PRES_AUD", "word": "treat", "wordID": 1500, "conditions": [24, 1600, "a", 12000], "trial": 4, "serialpos": 13, "trial_type": "single-audio", "trial_index": 170, "time_elapsed": 850332, "internal_node_id": "0.0-125.0"}}, {"uniqueid": "MTK0385:3ZAZR5XV02PLCHMIP85GXVPSRJ5CZC", "current_trial": 171, "dateTime": 1510781358755, "trialdata": {"rt": -1000, "stimulus": "/static/audio/wordpool/TROMBONE.wav", "key_press": -1, "type": "PRES_AUD", "word": "trombone", "wordID": 1507, "conditions": [24, 1600, "a", 12000], "trial": 4, "serialpos": 14, "trial_type": "single-audio", "trial_index": 171, "time_elapsed": 853026, "internal_node_id": "0.0-126.0"}}, {"uniqueid": "MTK0385:3ZAZR5XV02PLCHMIP85GXVPSRJ5CZC", "current_trial": 172, "dateTime": 1510781361366, "trialdata": {"rt": -1000, "stimulus": "/static/audio/wordpool/ROOSTER.wav", "key_press": -1, "type": "PRES_AUD", "word": "rooster", "wordID": 1208, "conditions": [24, 1600, "a", 12000], "trial": 4, "serialpos": 15, "trial_type": "single-audio", "trial_index": 172, "time_elapsed": 855638, "internal_node_id": "0.0-127.0"}}, {"uniqueid": "MTK0385:3ZAZR5XV02PLCHMIP85GXVPSRJ5CZC", "current_trial": 173, "dateTime": 1510781363907, "trialdata": {"rt": -1000, "stimulus": "/static/audio/wordpool/SNAKE.wav", "key_press": -1, "type": "PRES_AUD", "word": "snake", "wordID": 1332, "conditions": [24, 1600, "a", 12000], "trial": 4, "serialpos": 16, "trial_type": "single-audio", "trial_index": 173, "time_elapsed": 858179, "internal_node_id": "0.0-128.0"}}, {"uniqueid": "MTK0385:3ZAZR5XV02PLCHMIP85GXVPSRJ5CZC", "current_trial": 174, "dateTime": 1510781366410, "trialdata": {"rt": -1000, "stimulus": "/static/audio/wordpool/CREATURE.wav", "key_press": -1, "type": "PRES_AUD", "word": "creature", "wordID": 402, "conditions": [24, 1600, "a", 12000], "trial": 4, "serialpos": 17, "trial_type": "single-audio", "trial_index": 174, "time_elapsed": 860682, "internal_node_id": "0.0-129.0"}}, {"uniqueid": "MTK0385:3ZAZR5XV02PLCHMIP85GXVPSRJ5CZC", "current_trial": 175, "dateTime": 1510781368954, "trialdata": {"rt": -1000, "stimulus": "/static/audio/wordpool/SUMMIT.wav", "key_press": -1, "type": "PRES_AUD", "word": "summit", "wordID": 1404, "conditions": [24, 1600, "a", 12000], "trial": 4, "serialpos": 18, "trial_type": "single-audio", "trial_index": 175, "time_elapsed": 863225, "internal_node_id": "0.0-130.0"}}, {"uniqueid": "MTK0385:3ZAZR5XV02PLCHMIP85GXVPSRJ5CZC", "current_trial": 176, "dateTime": 1510781371379, "trialdata": {"rt": -1000, "stimulus": "/static/audio/wordpool/POLICE.wav", "key_press": -1, "type": "PRES_AUD", "word": "police", "wordID": 1097, "conditions": [24, 1600, "a", 12000], "trial": 4, "serialpos": 19, "trial_type": "single-audio", "trial_index": 176, "time_elapsed": 865651, "internal_node_id": "0.0-131.0"}}, {"uniqueid": "MTK0385:3ZAZR5XV02PLCHMIP85GXVPSRJ5CZC", "current_trial": 177, "dateTime": 1510781374148, "trialdata": {"rt": -1000, "stimulus": "/static/audio/wordpool/FOX.wav", "key_press": -1, "type": "PRES_AUD", "word": "fox", "wordID": 597, "conditions": [24, 1600, "a", 12000], "trial": 4, "serialpos": 20, "trial_type": "single-audio", "trial_index": 177, "time_elapsed": 868420, "internal_node_id": "0.0-132.0"}}, {"uniqueid": "MTK0385:3ZAZR5XV02PLCHMIP85GXVPSRJ5CZC", "current_trial": 178, "dateTime": 1510781376850, "trialdata": {"rt": -1000, "stimulus": "/static/audio/wordpool/MAMMAL.wav", "key_press": -1, "type": "PRES_AUD", "word": "mammal", "wordID": 860, "conditions": [24, 1600, "a", 12000], "trial": 4, "serialpos": 21, "trial_type": "single-audio", "trial_index": 178, "time_elapsed": 871122, "internal_node_id": "0.0-133.0"}}, {"uniqueid": "MTK0385:3ZAZR5XV02PLCHMIP85GXVPSRJ5CZC", "current_trial": 179, "dateTime": 1510781379513, "trialdata": {"rt": -1000, "stimulus": "/static/audio/wordpool/LADY.wav", "key_press": -1, "type": "PRES_AUD", "word": "lady", "wordID": 793, "conditions": [24, 1600, "a", 12000], "trial": 4, "serialpos": 22, "trial_type": "single-audio", "trial_index": 179, "time_elapsed": 873785, "internal_node_id": "0.0-134.0"}}, {"uniqueid": "MTK0385:3ZAZR5XV02PLCHMIP85GXVPSRJ5CZC", "current_trial": 180, "dateTime": 1510781382148, "trialdata": {"rt": -1000, "stimulus": "/static/audio/wordpool/SUNRISE.wav", "key_press": -1, "type": "PRES_AUD", "word": "sunrise", "wordID": 1406, "conditions": [24, 1600, "a", 12000], "trial": 4, "serialpos": 23, "trial_type": "single-audio", "trial_index": 180, "time_elapsed": 876420, "internal_node_id": "0.0-135.0"}}, {"uniqueid": "MTK0385:3ZAZR5XV02PLCHMIP85GXVPSRJ5CZC", "current_trial": 181, "dateTime": 1510781383530, "trialdata": {"rt": -1, "stimulus": "", "key_press": -1, "type": "PRE_RECALL_DELAY", "trial_type": "single-stim", "trial_index": 181, "time_elapsed": 877802, "internal_node_id": "0.0-136.0-0.0"}}, {"uniqueid": "MTK0385:3ZAZR5XV02PLCHMIP85GXVPSRJ5CZC", "current_trial": 182, "dateTime": 1510781384031, "trialdata": {"rt": -1000, "stimulus": "/static/audio/400Hz.wav", "key_press": -1, "type": "PRE_RECALL_ALERT", "trial_type": "single-audio", "trial_index": 182, "time_elapsed": 878303, "internal_node_id": "0.0-137.0"}}, {"uniqueid": "MTK0385:3ZAZR5XV02PLCHMIP85GXVPSRJ5CZC", "current_trial": 183, "dateTime": 1510781444038, "trialdata": {"rt": [1565, 2901, 4693, 6493, 7885, 9461, 11149, 12573, 15333, 22365], "recwords": ["wagon", "lover", "tractor", "husband", "friend", "lady", "sunrise", "treat", "trombone", "friend"], "type": "FREE_RECALL", "conditions": [24, 1600, "a", 12000], "trial": 4, "trial_type": "free-recall", "trial_index": 183, "time_elapsed": 938305, "internal_node_id": "0.0-138.0-0.0"}}, {"uniqueid": "MTK0385:3ZAZR5XV02PLCHMIP85GXVPSRJ5CZC", "current_trial": 184, "dateTime": 1510781446814, "trialdata": {"rt": 774, "key_press": 32, "type": "INSTRUCTIONS", "trial_type": "text", "trial_index": 184, "time_elapsed": 941085, "internal_node_id": "0.0-139.0"}}, {"uniqueid": "MTK0385:3ZAZR5XV02PLCHMIP85GXVPSRJ5CZC", "current_trial": 185, "dateTime": 1510781472816, "trialdata": {"rt": [1910, 4989, 6702, 8373, 9861, 11597, 12933, 14502, 16869, 19509, 23253], "responses": ["16", "5", "18", "15", "16", "14", "4", "15", "18", "23", "11"], "num1": [9, 2, 7, 8, 1, 3, 1, 1, 4, 7, 2, 4], "num2": [3, 1, 4, 3, 8, 2, 2, 8, 7, 9, 4, 2], "num3": [4, 4, 4, 4, 7, 9, 1, 6, 7, 6, 5, 5], "type": "DISTRACTOR", "conditions": [24, 800, "v", 24000], "trial": 5, "trial_type": "math-distractor", "trial_index": 185, "time_elapsed": 967088, "internal_node_id": "0.0-140.0"}}, {"uniqueid": "MTK0385:3ZAZR5XV02PLCHMIP85GXVPSRJ5CZC", "current_trial": 186, "dateTime": 1510781475819, "trialdata": {"rt": -1, "stimulus": "<p id=\"stim\">10</p>", "key_press": -1, "trial_type": "single-stim", "trial_index": 186, "time_elapsed": 970091, "internal_node_id": "0.0-141.0-0.0"}}, {"uniqueid": "MTK0385:3ZAZR5XV02PLCHMIP85GXVPSRJ5CZC", "current_trial": 187, "dateTime": 1510781476821, "trialdata": {"rt": -1, "stimulus": "<p id=\"stim\">9</p>", "key_press": -1, "trial_type": "single-stim", "trial_index": 187, "time_elapsed": 971093, "internal_node_id": "0.0-141.0-1.0"}}, {"uniqueid": "MTK0385:3ZAZR5XV02PLCHMIP85GXVPSRJ5CZC", "current_trial": 188, "dateTime": 1510781477823, "trialdata": {"rt": -1, "stimulus": "<p id=\"stim\">8</p>", "key_press": -1, "trial_type": "single-stim", "trial_index": 188, "time_elapsed": 972095, "internal_node_id": "0.0-141.0-2.0"}}, {"uniqueid": "MTK0385:3ZAZR5XV02PLCHMIP85GXVPSRJ5CZC", "current_trial": 189, "dateTime": 1510781478825, "trialdata": {"rt": -1, "stimulus": "<p id=\"stim\">7</p>", "key_press": -1, "trial_type": "single-stim", "trial_index": 189, "time_elapsed": 973097, "internal_node_id": "0.0-141.0-3.0"}}, {"uniqueid": "MTK0385:3ZAZR5XV02PLCHMIP85GXVPSRJ5CZC", "current_trial": 190, "dateTime": 1510781479825, "trialdata": {"rt": -1, "stimulus": "<p id=\"stim\">6</p>", "key_press": -1, "trial_type": "single-stim", "trial_index": 190, "time_elapsed": 974097, "internal_node_id": "0.0-141.0-4.0"}}, {"uniqueid": "MTK0385:3ZAZR5XV02PLCHMIP85GXVPSRJ5CZC", "current_trial": 191, "dateTime": 1510781480827, "trialdata": {"rt": -1, "stimulus": "<p id=\"stim\">5</p>", "key_press": -1, "trial_type": "single-stim", "trial_index": 191, "time_elapsed": 975099, "internal_node_id": "0.0-141.0-5.0"}}, {"uniqueid": "MTK0385:3ZAZR5XV02PLCHMIP85GXVPSRJ5CZC", "current_trial": 192, "dateTime": 1510781481829, "trialdata": {"rt": -1, "stimulus": "<p id=\"stim\">4</p>", "key_press": -1, "trial_type": "single-stim", "trial_index": 192, "time_elapsed": 976101, "internal_node_id": "0.0-141.0-6.0"}}, {"uniqueid": "MTK0385:3ZAZR5XV02PLCHMIP85GXVPSRJ5CZC", "current_trial": 193, "dateTime": 1510781482830, "trialdata": {"rt": -1, "stimulus": "<p id=\"stim\">3</p>", "key_press": -1, "trial_type": "single-stim", "trial_index": 193, "time_elapsed": 977102, "internal_node_id": "0.0-141.0-7.0"}}, {"uniqueid": "MTK0385:3ZAZR5XV02PLCHMIP85GXVPSRJ5CZC", "current_trial": 194, "dateTime": 1510781483832, "trialdata": {"rt": -1, "stimulus": "<p id=\"stim\">2</p>", "key_press": -1, "trial_type": "single-stim", "trial_index": 194, "time_elapsed": 978104, "internal_node_id": "0.0-141.0-8.0"}}, {"uniqueid": "MTK0385:3ZAZR5XV02PLCHMIP85GXVPSRJ5CZC", "current_trial": 195, "dateTime": 1510781484834, "trialdata": {"rt": -1, "stimulus": "<p id=\"stim\">1</p>", "key_press": -1, "trial_type": "single-stim", "trial_index": 195, "time_elapsed": 979106, "internal_node_id": "0.0-141.0-9.0"}}, {"uniqueid": "MTK0385:3ZAZR5XV02PLCHMIP85GXVPSRJ5CZC", "current_trial": 196, "dateTime": 1510781486335, "trialdata": {"rt": -1, "stimulus": "<p id=\"stim\">+</p>", "key_press": -1, "type": "FIXATION", "trial_type": "single-stim", "trial_index": 196, "time_elapsed": 980607, "internal_node_id": "0.0-142.0-0.0"}}, {"uniqueid": "MTK0385:3ZAZR5XV02PLCHMIP85GXVPSRJ5CZC", "current_trial": 197, "dateTime": 1510781487137, "trialdata": {"rt": -1, "stimulus": "<p id=\"stim\">PIZZA</p>", "key_press": -1, "type": "PRES_VIS", "word": "pizza", "wordID": 1078, "conditions": [24, 800, "v", 24000], "trial": 5, "serialpos": 0, "trial_type": "single-stim", "trial_index": 197, "time_elapsed": 981409, "internal_node_id": "0.0-143.0"}}, {"uniqueid": "MTK0385:3ZAZR5XV02PLCHMIP85GXVPSRJ5CZC", "current_trial": 198, "dateTime": 1510781488780, "trialdata": {"rt": -1, "stimulus": "<p id=\"stim\">MONSTER</p>", "key_press": -1, "type": "PRES_VIS", "word": "monster", "wordID": 911, "conditions": [24, 800, "v", 24000], "trial": 5, "serialpos": 1, "trial_type": "single-stim", "trial_index": 198, "time_elapsed": 983052, "internal_node_id": "0.0-144.0"}}, {"uniqueid": "MTK0385:3ZAZR5XV02PLCHMIP85GXVPSRJ5CZC", "current_trial": 199, "dateTime": 1510781490386, "trialdata": {"rt": -1, "stimulus": "<p id=\"stim\">PAPER</p>", "key_press": -1, "type": "PRES_VIS", "word": "paper", "wordID": 1010, "conditions": [24, 800, "v", 24000], "trial": 5, "serialpos": 2, "trial_type": "single-stim", "trial_index": 199, "time_elapsed": 984658, "internal_node_id": "0.0-145.0"}}, {"uniqueid": "MTK0385:3ZAZR5XV02PLCHMIP85GXVPSRJ5CZC", "current_trial": 200, "dateTime": 1510781492233, "trialdata": {"rt": -1, "stimulus": "<p id=\"stim\">LUMBER</p>", "key_press": -1, "type": "PRES_VIS", "word": "lumber", "wordID": 847, "conditions": [24, 800, "v", 24000], "trial": 5, "serialpos": 3, "trial_type": "single-stim", "trial_index": 200, "time_elapsed": 986505, "internal_node_id": "0.0-146.0"}}, {"uniqueid": "MTK0385:3ZAZR5XV02PLCHMIP85GXVPSRJ5CZC", "current_trial": 201, "dateTime": 1510781493987, "trialdata": {"rt": -1, "stimulus": "<p id=\"stim\">AGENT</p>", "key_press": -1, "type": "PRES_VIS", "word": "agent", "wordID": 9, "conditions": [24, 800, "v", 24000], "trial": 5, "serialpos": 4, "trial_type": "single-stim", "trial_index": 201, "time_elapsed": 988259, "internal_node_id": "0.0-147.0"}}, {"uniqueid": "MTK0385:3ZAZR5XV02PLCHMIP85GXVPSRJ5CZC", "current_trial": 202, "dateTime": 1510781495767, "trialdata": {"rt": -1, "stimulus": "<p id=\"stim\">HANDBAG</p>", "key_press": -1, "type": "PRES_VIS", "word": "handbag", "wordID": 683, "conditions": [24, 800, "v", 24000], "trial": 5, "serialpos": 5, "trial_type": "single-stim", "trial_index": 202, "time_elapsed": 990039, "internal_node_id": "0.0-148.0"}}, {"uniqueid": "MTK0385:3ZAZR5XV02PLCHMIP85GXVPSRJ5CZC", "current_trial": 203, "dateTime": 1510781497491, "trialdata": {"rt": -1, "stimulus": "<p id=\"stim\">OUTFIT</p>", "key_press": -1, "type": "PRES_VIS", "word": "outfit", "wordID": 987, "conditions": [24, 800, "v", 24000], "trial": 5, "serialpos": 6, "trial_type": "single-stim", "trial_index": 203, "time_elapsed": 991763, "internal_node_id": "0.0-149.0"}}, {"uniqueid": "MTK0385:3ZAZR5XV02PLCHMIP85GXVPSRJ5CZC", "current_trial": 204, "dateTime": 1510781499135, "trialdata": {"rt": -1, "stimulus": "<p id=\"stim\">FLUTE</p>", "key_press": -1, "type": "PRES_VIS", "word": "flute", "wordID": 584, "conditions": [24, 800, "v", 24000], "trial": 5, "serialpos": 7, "trial_type": "single-stim", "trial_index": 204, "time_elapsed": 993406, "internal_node_id": "0.0-150.0"}}, {"uniqueid": "MTK0385:3ZAZR5XV02PLCHMIP85GXVPSRJ5CZC", "current_trial": 205, "dateTime": 1510781500751, "trialdata": {"rt": -1, "stimulus": "<p id=\"stim\">TUBA</p>", "key_press": -1, "type": "PRES_VIS", "word": "tuba", "wordID": 1514, "conditions": [24, 800, "v", 24000], "trial": 5, "serialpos": 8, "trial_type": "single-stim", "trial_index": 205, "time_elapsed": 995023, "internal_node_id": "0.0-151.0"}}, {"uniqueid": "MTK0385:3ZAZR5XV02PLCHMIP85GXVPSRJ5CZC", "current_trial": 206, "dateTime": 1510781502724, "trialdata": {"rt": -1, "stimulus": "<p id=\"stim\">SUITCASE</p>", "key_press": -1, "type": "PRES_VIS", "word": "suitcase", "wordID": 1402, "conditions": [24, 800, "v", 24000], "trial": 5, "serialpos": 9, "trial_type": "single-stim", "trial_index": 206, "time_elapsed": 996996, "internal_node_id": "0.0-152.0"}}, {"uniqueid": "MTK0385:3ZAZR5XV02PLCHMIP85GXVPSRJ5CZC", "current_trial": 207, "dateTime": 1510781504578, "trialdata": {"rt": -1, "stimulus": "<p id=\"stim\">COUNTY</p>", "key_press": -1, "type": "PRES_VIS", "word": "county", "wordID": 388, "conditions": [24, 800, "v", 24000], "trial": 5, "serialpos": 10, "trial_type": "single-stim", "trial_index": 207, "time_elapsed": 998850, "internal_node_id": "0.0-153.0"}}, {"uniqueid": "MTK0385:3ZAZR5XV02PLCHMIP85GXVPSRJ5CZC", "current_trial": 208, "dateTime": 1510781506211, "trialdata": {"rt": -1, "stimulus": "<p id=\"stim\">LEADER</p>", "key_press": -1, "type": "PRES_VIS", "word": "leader", "wordID": 806, "conditions": [24, 800, "v", 24000], "trial": 5, "serialpos": 11, "trial_type": "single-stim", "trial_index": 208, "time_elapsed": 1000483, "internal_node_id": "0.0-154.0"}}, {"uniqueid": "MTK0385:3ZAZR5XV02PLCHMIP85GXVPSRJ5CZC", "current_trial": 209, "dateTime": 1510781508009, "trialdata": {"rt": -1, "stimulus": "<p id=\"stim\">DONKEY</p>", "key_press": -1, "type": "PRES_VIS", "word": "donkey", "wordID": 483, "conditions": [24, 800, "v", 24000], "trial": 5, "serialpos": 12, "trial_type": "single-stim", "trial_index": 209, "time_elapsed": 1002281, "internal_node_id": "0.0-155.0"}}, {"uniqueid": "MTK0385:3ZAZR5XV02PLCHMIP85GXVPSRJ5CZC", "current_trial": 210, "dateTime": 1510781509763, "trialdata": {"rt": -1, "stimulus": "<p id=\"stim\">DENIM</p>", "key_press": -1, "type": "PRES_VIS", "word": "denim", "wordID": 445, "conditions": [24, 800, "v", 24000], "trial": 5, "serialpos": 13, "trial_type": "single-stim", "trial_index": 210, "time_elapsed": 1004035, "internal_node_id": "0.0-156.0"}}, {"uniqueid": "MTK0385:3ZAZR5XV02PLCHMIP85GXVPSRJ5CZC", "current_trial": 211, "dateTime": 1510781511382, "trialdata": {"rt": -1, "stimulus": "<p id=\"stim\">ACTRESS</p>", "key_press": -1, "type": "PRES_VIS", "word": "actress", "wordID": 5, "conditions": [24, 800, "v", 24000], "trial": 5, "serialpos": 14, "trial_type": "single-stim", "trial_index": 211, "time_elapsed": 1005653, "internal_node_id": "0.0-157.0"}}, {"uniqueid": "MTK0385:3ZAZR5XV02PLCHMIP85GXVPSRJ5CZC", "current_trial": 212, "dateTime": 1510781513242, "trialdata": {"rt": -1, "stimulus": "<p id=\"stim\">INFANT</p>", "key_press": -1, "type": "PRES_VIS", "word": "infant", "wordID": 736, "conditions": [24, 800, "v", 24000], "trial": 5, "serialpos": 15, "trial_type": "single-stim", "trial_index": 212, "time_elapsed": 1007514, "internal_node_id": "0.0-158.0"}}, {"uniqueid": "MTK0385:3ZAZR5XV02PLCHMIP85GXVPSRJ5CZC", "current_trial": 213, "dateTime": 1510781515100, "trialdata": {"rt": -1, "stimulus": "<p id=\"stim\">CRIB</p>", "key_press": -1, "type": "PRES_VIS", "word": "crib", "wordID": 406, "conditions": [24, 800, "v", 24000], "trial": 5, "serialpos": 16, "trial_type": "single-stim", "trial_index": 213, "time_elapsed": 1009372, "internal_node_id": "0.0-159.0"}}, {"uniqueid": "MTK0385:3ZAZR5XV02PLCHMIP85GXVPSRJ5CZC", "current_trial": 214, "dateTime": 1510781517044, "trialdata": {"rt": -1, "stimulus": "<p id=\"stim\">MUMMY</p>", "key_press": -1, "type": "PRES_VIS", "word": "mummy", "wordID": 931, "conditions": [24, 800, "v", 24000], "trial": 5, "serialpos": 17, "trial_type": "single-stim", "trial_index": 214, "time_elapsed": 1011316, "internal_node_id": "0.0-160.0"}}, {"uniqueid": "MTK0385:3ZAZR5XV02PLCHMIP85GXVPSRJ5CZC", "current_trial": 215, "dateTime": 1510781518891, "trialdata": {"rt": -1, "stimulus": "<p id=\"stim\">BRICK</p>", "key_press": -1, "type": "PRES_VIS", "word": "brick", "wordID": 171, "conditions": [24, 800, "v", 24000], "trial": 5, "serialpos": 18, "trial_type": "single-stim", "trial_index": 215, "time_elapsed": 1013163, "internal_node_id": "0.0-161.0"}}, {"uniqueid": "MTK0385:3ZAZR5XV02PLCHMIP85GXVPSRJ5CZC", "current_trial": 216, "dateTime": 1510781520687, "trialdata": {"rt": -1, "stimulus": "<p id=\"stim\">HAND</p>", "key_press": -1, "type": "PRES_VIS", "word": "hand", "wordID": 682, "conditions": [24, 800, "v", 24000], "trial": 5, "serialpos": 19, "trial_type": "single-stim", "trial_index": 216, "time_elapsed": 1014959, "internal_node_id": "0.0-162.0"}}, {"uniqueid": "MTK0385:3ZAZR5XV02PLCHMIP85GXVPSRJ5CZC", "current_trial": 217, "dateTime": 1510781522451, "trialdata": {"rt": -1, "stimulus": "<p id=\"stim\">PALACE</p>", "key_press": -1, "type": "PRES_VIS", "word": "palace", "wordID": 1005, "conditions": [24, 800, "v", 24000], "trial": 5, "serialpos": 20, "trial_type": "single-stim", "trial_index": 217, "time_elapsed": 1016723, "internal_node_id": "0.0-163.0"}}, {"uniqueid": "MTK0385:3ZAZR5XV02PLCHMIP85GXVPSRJ5CZC", "current_trial": 218, "dateTime": 1510781524357, "trialdata": {"rt": -1, "stimulus": "<p id=\"stim\">PLAID</p>", "key_press": -1, "type": "PRES_VIS", "word": "plaid", "wordID": 1079, "conditions": [24, 800, "v", 24000], "trial": 5, "serialpos": 21, "trial_type": "single-stim", "trial_index": 218, "time_elapsed": 1018629, "internal_node_id": "0.0-164.0"}}, {"uniqueid": "MTK0385:3ZAZR5XV02PLCHMIP85GXVPSRJ5CZC", "current_trial": 219, "dateTime": 1510781526093, "trialdata": {"rt": -1, "stimulus": "<p id=\"stim\">LAGOON</p>", "key_press": -1, "type": "PRES_VIS", "word": "lagoon", "wordID": 794, "conditions": [24, 800, "v", 24000], "trial": 5, "serialpos": 22, "trial_type": "single-stim", "trial_index": 219, "time_elapsed": 1020365, "internal_node_id": "0.0-165.0"}}, {"uniqueid": "MTK0385:3ZAZR5XV02PLCHMIP85GXVPSRJ5CZC", "current_trial": 220, "dateTime": 1510781527863, "trialdata": {"rt": -1, "stimulus": "<p id=\"stim\">SHARK</p>", "key_press": -1, "type": "PRES_VIS", "word": "shark", "wordID": 1274, "conditions": [24, 800, "v", 24000], "trial": 5, "serialpos": 23, "trial_type": "single-stim", "trial_index": 220, "time_elapsed": 1022135, "internal_node_id": "0.0-166.0"}}, {"uniqueid": "MTK0385:3ZAZR5XV02PLCHMIP85GXVPSRJ5CZC", "current_trial": 221, "dateTime": 1510781530092, "trialdata": {"rt": -1, "stimulus": "", "key_press": -1, "type": "PRE_RECALL_DELAY", "trial_type": "single-stim", "trial_index": 221, "time_elapsed": 1024364, "internal_node_id": "0.0-167.0-0.0"}}, {"uniqueid": "MTK0385:3ZAZR5XV02PLCHMIP85GXVPSRJ5CZC", "current_trial": 222, "dateTime": 1510781530603, "trialdata": {"rt": -1000, "stimulus": "/static/audio/400Hz.wav", "key_press": -1, "type": "PRE_RECALL_ALERT", "trial_type": "single-audio", "trial_index": 222, "time_elapsed": 1024875, "internal_node_id": "0.0-168.0"}}, {"uniqueid": "MTK0385:3ZAZR5XV02PLCHMIP85GXVPSRJ5CZC", "current_trial": 223, "dateTime": 1510781590609, "trialdata": {"rt": [2033, 3265, 4592, 5769, 7929, 9649, 13361, 14729, 16033, 19913, 21369, 26593], "recwords": ["palace", "plaid", "lagoon", "shark", "baby", "crib", "pizza", "monster", "paper", "county", "leader", "place"], "type": "FREE_RECALL", "conditions": [24, 800, "v", 24000], "trial": 5, "trial_type": "free-recall", "trial_index": 223, "time_elapsed": 1084878, "internal_node_id": "0.0-169.0-0.0"}}, {"uniqueid": "MTK0385:3ZAZR5XV02PLCHMIP85GXVPSRJ5CZC", "current_trial": 224, "dateTime": 1510781593413, "trialdata": {"rt": 803, "key_press": 32, "type": "INSTRUCTIONS", "trial_type": "text", "trial_index": 224, "time_elapsed": 1087685, "internal_node_id": "0.0-170.0"}}, {"uniqueid": "MTK0385:3ZAZR5XV02PLCHMIP85GXVPSRJ5CZC", "current_trial": 225, "dateTime": 1510781607418, "trialdata": {"rt": [2750, 4293, 6381, 7901, 10669], "responses": ["10", "14", "19", "14", "8"], "num1": [4, 6, 9, 5, 2, 3], "num2": [2, 6, 4, 1, 4, 4], "num3": [4, 2, 6, 8, 2, 7], "type": "DISTRACTOR", "conditions": [24, 1600, "v", 12000], "trial": 6, "trial_type": "math-distractor", "trial_index": 225, "time_elapsed": 1101689, "internal_node_id": "0.0-171.0"}}, {"uniqueid": "MTK0385:3ZAZR5XV02PLCHMIP85GXVPSRJ5CZC", "current_trial": 226, "dateTime": 1510781610420, "trialdata": {"rt": -1, "stimulus": "<p id=\"stim\">10</p>", "key_press": -1, "trial_type": "single-stim", "trial_index": 226, "time_elapsed": 1104692, "internal_node_id": "0.0-172.0-0.0"}}, {"uniqueid": "MTK0385:3ZAZR5XV02PLCHMIP85GXVPSRJ5CZC", "current_trial": 227, "dateTime": 1510781611421, "trialdata": {"rt": -1, "stimulus": "<p id=\"stim\">9</p>", "key_press": -1, "trial_type": "single-stim", "trial_index": 227, "time_elapsed": 1105693, "internal_node_id": "0.0-172.0-1.0"}}, {"uniqueid": "MTK0385:3ZAZR5XV02PLCHMIP85GXVPSRJ5CZC", "current_trial": 228, "dateTime": 1510781612423, "trialdata": {"rt": -1, "stimulus": "<p id=\"stim\">8</p>", "key_press": -1, "trial_type": "single-stim", "trial_index": 228, "time_elapsed": 1106695, "internal_node_id": "0.0-172.0-2.0"}}, {"uniqueid": "MTK0385:3ZAZR5XV02PLCHMIP85GXVPSRJ5CZC", "current_trial": 229, "dateTime": 1510781613425, "trialdata": {"rt": -1, "stimulus": "<p id=\"stim\">7</p>", "key_press": -1, "trial_type": "single-stim", "trial_index": 229, "time_elapsed": 1107697, "internal_node_id": "0.0-172.0-3.0"}}, {"uniqueid": "MTK0385:3ZAZR5XV02PLCHMIP85GXVPSRJ5CZC", "current_trial": 230, "dateTime": 1510781614426, "trialdata": {"rt": -1, "stimulus": "<p id=\"stim\">6</p>", "key_press": -1, "trial_type": "single-stim", "trial_index": 230, "time_elapsed": 1108698, "internal_node_id": "0.0-172.0-4.0"}}, {"uniqueid": "MTK0385:3ZAZR5XV02PLCHMIP85GXVPSRJ5CZC", "current_trial": 231, "dateTime": 1510781615428, "trialdata": {"rt": -1, "stimulus": "<p id=\"stim\">5</p>", "key_press": -1, "trial_type": "single-stim", "trial_index": 231, "time_elapsed": 1109700, "internal_node_id": "0.0-172.0-5.0"}}, {"uniqueid": "MTK0385:3ZAZR5XV02PLCHMIP85GXVPSRJ5CZC", "current_trial": 232, "dateTime": 1510781616430, "trialdata": {"rt": -1, "stimulus": "<p id=\"stim\">4</p>", "key_press": -1, "trial_type": "single-stim", "trial_index": 232, "time_elapsed": 1110702, "internal_node_id": "0.0-172.0-6.0"}}, {"uniqueid": "MTK0385:3ZAZR5XV02PLCHMIP85GXVPSRJ5CZC", "current_trial": 233, "dateTime": 1510781617431, "trialdata": {"rt": -1, "stimulus": "<p id=\"stim\">3</p>", "key_press": -1, "trial_type": "single-stim", "trial_index": 233, "time_elapsed": 1111703, "internal_node_id": "0.0-172.0-7.0"}}, {"uniqueid": "MTK0385:3ZAZR5XV02PLCHMIP85GXVPSRJ5CZC", "current_trial": 234, "dateTime": 1510781618432, "trialdata": {"rt": -1, "stimulus": "<p id=\"stim\">2</p>", "key_press": -1, "trial_type": "single-stim", "trial_index": 234, "time_elapsed": 1112704, "internal_node_id": "0.0-172.0-8.0"}}, {"uniqueid": "MTK0385:3ZAZR5XV02PLCHMIP85GXVPSRJ5CZC", "current_trial": 235, "dateTime": 1510781619434, "trialdata": {"rt": -1, "stimulus": "<p id=\"stim\">1</p>", "key_press": -1, "trial_type": "single-stim", "trial_index": 235, "time_elapsed": 1113706, "internal_node_id": "0.0-172.0-9.0"}}, {"uniqueid": "MTK0385:3ZAZR5XV02PLCHMIP85GXVPSRJ5CZC", "current_trial": 236, "dateTime": 1510781620936, "trialdata": {"rt": -1, "stimulus": "<p id=\"stim\">+</p>", "key_press": -1, "type": "FIXATION", "trial_type": "single-stim", "trial_index": 236, "time_elapsed": 1115208, "internal_node_id": "0.0-173.0-0.0"}}, {"uniqueid": "MTK0385:3ZAZR5XV02PLCHMIP85GXVPSRJ5CZC", "current_trial": 237, "dateTime": 1510781622538, "trialdata": {"rt": -1, "stimulus": "<p id=\"stim\">SCISSORS</p>", "key_press": -1, "type": "PRES_VIS", "word": "scissors", "wordID": 1249, "conditions": [24, 1600, "v", 12000], "trial": 6, "serialpos": 0, "trial_type": "single-stim", "trial_index": 237, "time_elapsed": 1116810, "internal_node_id": "0.0-174.0"}}, {"uniqueid": "MTK0385:3ZAZR5XV02PLCHMIP85GXVPSRJ5CZC", "current_trial": 238, "dateTime": 1510781625060, "trialdata": {"rt": -1, "stimulus": "<p id=\"stim\">CABIN</p>", "key_press": -1, "type": "PRES_VIS", "word": "cabin", "wordID": 210, "conditions": [24, 1600, "v", 12000], "trial": 6, "serialpos": 1, "trial_type": "single-stim", "trial_index": 238, "time_elapsed": 1119332, "internal_node_id": "0.0-175.0"}}, {"uniqueid": "MTK0385:3ZAZR5XV02PLCHMIP85GXVPSRJ5CZC", "current_trial": 239, "dateTime": 1510781627488, "trialdata": {"rt": -1, "stimulus": "<p id=\"stim\">JUGGLER</p>", "key_press": -1, "type": "PRES_VIS", "word": "juggler", "wordID": 762, "conditions": [24, 1600, "v", 12000], "trial": 6, "serialpos": 2, "trial_type": "single-stim", "trial_index": 239, "time_elapsed": 1121760, "internal_node_id": "0.0-176.0"}}, {"uniqueid": "MTK0385:3ZAZR5XV02PLCHMIP85GXVPSRJ5CZC", "current_trial": 240, "dateTime": 1510781630285, "trialdata": {"rt": -1, "stimulus": "<p id=\"stim\">SCALLOP</p>", "key_press": -1, "type": "PRES_VIS", "word": "scallop", "wordID": 1241, "conditions": [24, 1600, "v", 12000], "trial": 6, "serialpos": 3, "trial_type": "single-stim", "trial_index": 240, "time_elapsed": 1124557, "internal_node_id": "0.0-177.0"}}, {"uniqueid": "MTK0385:3ZAZR5XV02PLCHMIP85GXVPSRJ5CZC", "current_trial": 241, "dateTime": 1510781632726, "trialdata": {"rt": -1, "stimulus": "<p id=\"stim\">SALMON</p>", "key_press": -1, "type": "PRES_VIS", "word": "salmon", "wordID": 1226, "conditions": [24, 1600, "v", 12000], "trial": 6, "serialpos": 4, "trial_type": "single-stim", "trial_index": 241, "time_elapsed": 1126998, "internal_node_id": "0.0-178.0"}}, {"uniqueid": "MTK0385:3ZAZR5XV02PLCHMIP85GXVPSRJ5CZC", "current_trial": 242, "dateTime": 1510781635165, "trialdata": {"rt": -1, "stimulus": "<p id=\"stim\">SCALPEL</p>", "key_press": -1, "type": "PRES_VIS", "word": "scalpel", "wordID": 1242, "conditions": [24, 1600, "v", 12000], "trial": 6, "serialpos": 5, "trial_type": "single-stim", "trial_index": 242, "time_elapsed": 1129437, "internal_node_id": "0.0-179.0"}}, {"uniqueid": "MTK0385:3ZAZR5XV02PLCHMIP85GXVPSRJ5CZC", "current_trial": 243, "dateTime": 1510781637717, "trialdata": {"rt": -1, "stimulus": "<p id=\"stim\">PISTON</p>", "key_press": -1, "type": "PRES_VIS", "word": "piston", "wordID": 1075, "conditions": [24, 1600, "v", 12000], "trial": 6, "serialpos": 6, "trial_type": "single-stim", "trial_index": 243, "time_elapsed": 1131989, "internal_node_id": "0.0-180.0"}}, {"uniqueid": "MTK0385:3ZAZR5XV02PLCHMIP85GXVPSRJ5CZC", "current_trial": 244, "dateTime": 1510781640496, "trialdata": {"rt": -1, "stimulus": "<p id=\"stim\">MOTEL</p>", "key_press": -1, "type": "PRES_VIS", "word": "motel", "wordID": 918, "conditions": [24, 1600, "v", 12000], "trial": 6, "serialpos": 7, "trial_type": "single-stim", "trial_index": 244, "time_elapsed": 1134768, "internal_node_id": "0.0-181.0"}}, {"uniqueid": "MTK0385:3ZAZR5XV02PLCHMIP85GXVPSRJ5CZC", "current_trial": 245, "dateTime": 1510781642951, "trialdata": {"rt": -1, "stimulus": "<p id=\"stim\">VALLEY</p>", "key_press": -1, "type": "PRES_VIS", "word": "valley", "wordID": 1544, "conditions": [24, 1600, "v", 12000], "trial": 6, "serialpos": 8, "trial_type": "single-stim", "trial_index": 245, "time_elapsed": 1137223, "internal_node_id": "0.0-182.0"}}, {"uniqueid": "MTK0385:3ZAZR5XV02PLCHMIP85GXVPSRJ5CZC", "current_trial": 246, "dateTime": 1510781645529, "trialdata": {"rt": -1, "stimulus": "<p id=\"stim\">NOTEBOOK</p>", "key_press": -1, "type": "PRES_VIS", "word": "notebook", "wordID": 958, "conditions": [24, 1600, "v", 12000], "trial": 6, "serialpos": 9, "trial_type": "single-stim", "trial_index": 246, "time_elapsed": 1139801, "internal_node_id": "0.0-183.0"}}, {"uniqueid": "MTK0385:3ZAZR5XV02PLCHMIP85GXVPSRJ5CZC", "current_trial": 247, "dateTime": 1510781648298, "trialdata": {"rt": -1, "stimulus": "<p id=\"stim\">GAZELLE</p>", "key_press": -1, "type": "PRES_VIS", "word": "gazelle", "wordID": 627, "conditions": [24, 1600, "v", 12000], "trial": 6, "serialpos": 10, "trial_type": "single-stim", "trial_index": 247, "time_elapsed": 1142570, "internal_node_id": "0.0-184.0"}}, {"uniqueid": "MTK0385:3ZAZR5XV02PLCHMIP85GXVPSRJ5CZC", "current_trial": 248, "dateTime": 1510781650914, "trialdata": {"rt": -1, "stimulus": "<p id=\"stim\">HOUND</p>", "key_press": -1, "type": "PRES_VIS", "word": "hound", "wordID": 723, "conditions": [24, 1600, "v", 12000], "trial": 6, "serialpos": 11, "trial_type": "single-stim", "trial_index": 248, "time_elapsed": 1145186, "internal_node_id": "0.0-185.0"}}, {"uniqueid": "MTK0385:3ZAZR5XV02PLCHMIP85GXVPSRJ5CZC", "current_trial": 249, "dateTime": 1510781653332, "trialdata": {"rt": -1, "stimulus": "<p id=\"stim\">SHIRT</p>", "key_press": -1, "type": "PRES_VIS", "word": "shirt", "wordID": 1286, "conditions": [24, 1600, "v", 12000], "trial": 6, "serialpos": 12, "trial_type": "single-stim", "trial_index": 249, "time_elapsed": 1147604, "internal_node_id": "0.0-186.0"}}, {"uniqueid": "MTK0385:3ZAZR5XV02PLCHMIP85GXVPSRJ5CZC", "current_trial": 250, "dateTime": 1510781655944, "trialdata": {"rt": -1, "stimulus": "<p id=\"stim\">TRUCK</p>", "key_press": -1, "type": "PRES_VIS", "word": "truck", "wordID": 1511, "conditions": [24, 1600, "v", 12000], "trial": 6, "serialpos": 13, "trial_type": "single-stim", "trial_index": 250, "time_elapsed": 1150216, "internal_node_id": "0.0-187.0"}}, {"uniqueid": "MTK0385:3ZAZR5XV02PLCHMIP85GXVPSRJ5CZC", "current_trial": 251, "dateTime": 1510781658551, "trialdata": {"rt": -1, "stimulus": "<p id=\"stim\">ROBBER</p>", "key_press": -1, "type": "PRES_VIS", "word": "robber", "wordID": 1196, "conditions": [24, 1600, "v", 12000], "trial": 6, "serialpos": 14, "trial_type": "single-stim", "trial_index": 251, "time_elapsed": 1152823, "internal_node_id": "0.0-188.0"}}, {"uniqueid": "MTK0385:3ZAZR5XV02PLCHMIP85GXVPSRJ5CZC", "current_trial": 252, "dateTime": 1510781660981, "trialdata": {"rt": -1, "stimulus": "<p id=\"stim\">CASHIER</p>", "key_press": -1, "type": "PRES_VIS", "word": "cashier", "wordID": 253, "conditions": [24, 1600, "v", 12000], "trial": 6, "serialpos": 15, "trial_type": "single-stim", "trial_index": 252, "time_elapsed": 1155253, "internal_node_id": "0.0-189.0"}}, {"uniqueid": "MTK0385:3ZAZR5XV02PLCHMIP85GXVPSRJ5CZC", "current_trial": 253, "dateTime": 1510781663662, "trialdata": {"rt": -1, "stimulus": "<p id=\"stim\">ZIPPER</p>", "key_press": -1, "type": "PRES_VIS", "word": "zipper", "wordID": 1635, "conditions": [24, 1600, "v", 12000], "trial": 6, "serialpos": 16, "trial_type": "single-stim", "trial_index": 253, "time_elapsed": 1157934, "internal_node_id": "0.0-190.0"}}, {"uniqueid": "MTK0385:3ZAZR5XV02PLCHMIP85GXVPSRJ5CZC", "current_trial": 254, "dateTime": 1510781666298, "trialdata": {"rt": -1, "stimulus": "<p id=\"stim\">SKILLET</p>", "key_press": -1, "type": "PRES_VIS", "word": "skillet", "wordID": 1316, "conditions": [24, 1600, "v", 12000], "trial": 6, "serialpos": 17, "trial_type": "single-stim", "trial_index": 254, "time_elapsed": 1160570, "internal_node_id": "0.0-191.0"}}, {"uniqueid": "MTK0385:3ZAZR5XV02PLCHMIP85GXVPSRJ5CZC", "current_trial": 255, "dateTime": 1510781668954, "trialdata": {"rt": -1, "stimulus": "<p id=\"stim\">TURNIP</p>", "key_press": -1, "type": "PRES_VIS", "word": "turnip", "wordID": 1520, "conditions": [24, 1600, "v", 12000], "trial": 6, "serialpos": 18, "trial_type": "single-stim", "trial_index": 255, "time_elapsed": 1163226, "internal_node_id": "0.0-192.0"}}, {"uniqueid": "MTK0385:3ZAZR5XV02PLCHMIP85GXVPSRJ5CZC", "current_trial": 256, "dateTime": 1510781671625, "trialdata": {"rt": -1, "stimulus": "<p id=\"stim\">DRAWING</p>", "key_press": -1, "type": "PRES_VIS", "word": "drawing", "wordID": 493, "conditions": [24, 1600, "v", 12000], "trial": 6, "serialpos": 19, "trial_type": "single-stim", "trial_index": 256, "time_elapsed": 1165897, "internal_node_id": "0.0-193.0"}}, {"uniqueid": "MTK0385:3ZAZR5XV02PLCHMIP85GXVPSRJ5CZC", "current_trial": 257, "dateTime": 1510781674204, "trialdata": {"rt": -1, "stimulus": "<p id=\"stim\">FRAGRANCE</p>", "key_press": -1, "type": "PRES_VIS", "word": "fragrance", "wordID": 598, "conditions": [24, 1600, "v", 12000], "trial": 6, "serialpos": 20, "trial_type": "single-stim", "trial_index": 257, "time_elapsed": 1168475, "internal_node_id": "0.0-194.0"}}, {"uniqueid": "MTK0385:3ZAZR5XV02PLCHMIP85GXVPSRJ5CZC", "current_trial": 258, "dateTime": 1510781676819, "trialdata": {"rt": -1, "stimulus": "<p id=\"stim\">OUTDOORS</p>", "key_press": -1, "type": "PRES_VIS", "word": "outdoors", "wordID": 986, "conditions": [24, 1600, "v", 12000], "trial": 6, "serialpos": 21, "trial_type": "single-stim", "trial_index": 258, "time_elapsed": 1171091, "internal_node_id": "0.0-195.0"}}, {"uniqueid": "MTK0385:3ZAZR5XV02PLCHMIP85GXVPSRJ5CZC", "current_trial": 259, "dateTime": 1510781679520, "trialdata": {"rt": -1, "stimulus": "<p id=\"stim\">GRILL</p>", "key_press": -1, "type": "PRES_VIS", "word": "grill", "wordID": 660, "conditions": [24, 1600, "v", 12000], "trial": 6, "serialpos": 22, "trial_type": "single-stim", "trial_index": 259, "time_elapsed": 1173792, "internal_node_id": "0.0-196.0"}}, {"uniqueid": "MTK0385:3ZAZR5XV02PLCHMIP85GXVPSRJ5CZC", "current_trial": 260, "dateTime": 1510781682038, "trialdata": {"rt": -1, "stimulus": "<p id=\"stim\">BRANDY</p>", "key_press": -1, "type": "PRES_VIS", "word": "brandy", "wordID": 168, "conditions": [24, 1600, "v", 12000], "trial": 6, "serialpos": 23, "trial_type": "single-stim", "trial_index": 260, "time_elapsed": 1176310, "internal_node_id": "0.0-197.0"}}, {"uniqueid": "MTK0385:3ZAZR5XV02PLCHMIP85GXVPSRJ5CZC", "current_trial": 261, "dateTime": 1510781684357, "trialdata": {"rt": -1, "stimulus": "", "key_press": -1, "type": "PRE_RECALL_DELAY", "trial_type": "single-stim", "trial_index": 261, "time_elapsed": 1178629, "internal_node_id": "0.0-198.0-0.0"}}, {"uniqueid": "MTK0385:3ZAZR5XV02PLCHMIP85GXVPSRJ5CZC", "current_trial": 262, "dateTime": 1510781684860, "trialdata": {"rt": -1000, "stimulus": "/static/audio/400Hz.wav", "key_press": -1, "type": "PRE_RECALL_ALERT", "trial_type": "single-audio", "trial_index": 262, "time_elapsed": 1179132, "internal_node_id": "0.0-199.0"}}, {"uniqueid": "MTK0385:3ZAZR5XV02PLCHMIP85GXVPSRJ5CZC", "current_trial": 263, "dateTime": 1510781744863, "trialdata": {"rt": [1623, 3183, 4535, 6743, 9303, 10582, 12054, 14590, 20743, 25823, 37118, 40870], "recwords": ["grill", "brandy", "zipper", "scallop", "turnip", "motel", "valley", "juggler", "scallop", "beer", "scissor", "piston"], "type": "FREE_RECALL", "conditions": [24, 1600, "v", 12000], "trial": 6, "trial_type": "free-recall", "trial_index": 263, "time_elapsed": 1239133, "internal_node_id": "0.0-200.0-0.0"}}, {"uniqueid": "MTK0385:3ZAZR5XV02PLCHMIP85GXVPSRJ5CZC", "current_trial": 264, "dateTime": 1510781747548, "trialdata": {"rt": 683, "key_press": 32, "type": "INSTRUCTIONS", "trial_type": "text", "trial_index": 264, "time_elapsed": 1241819, "internal_node_id": "0.0-201.0"}}, {"uniqueid": "MTK0385:3ZAZR5XV02PLCHMIP85GXVPSRJ5CZC", "current_trial": 265, "dateTime": 1510781761550, "trialdata": {"rt": [1877, 3973, 5693, 7109, 10725], "responses": ["12", "6", "16", "16", "18"], "num1": [1, 3, 8, 6, 6, 8], "num2": [5, 2, 4, 8, 7, 9], "num3": [6, 1, 4, 2, 5, 4], "type": "DISTRACTOR", "conditions": [24, 800, "v", 12000], "trial": 7, "trial_type": "math-distractor", "trial_index": 265, "time_elapsed": 1255822, "internal_node_id": "0.0-202.0"}}, {"uniqueid": "MTK0385:3ZAZR5XV02PLCHMIP85GXVPSRJ5CZC", "current_trial": 266, "dateTime": 1510781764555, "trialdata": {"rt": -1, "stimulus": "<p id=\"stim\">10</p>", "key_press": -1, "trial_type": "single-stim", "trial_index": 266, "time_elapsed": 1258825, "internal_node_id": "0.0-203.0-0.0"}}, {"uniqueid": "MTK0385:3ZAZR5XV02PLCHMIP85GXVPSRJ5CZC", "current_trial": 267, "dateTime": 1510781765556, "trialdata": {"rt": -1, "stimulus": "<p id=\"stim\">9</p>", "key_press": -1, "trial_type": "single-stim", "trial_index": 267, "time_elapsed": 1259828, "internal_node_id": "0.0-203.0-1.0"}}, {"uniqueid": "MTK0385:3ZAZR5XV02PLCHMIP85GXVPSRJ5CZC", "current_trial": 268, "dateTime": 1510781766558, "trialdata": {"rt": -1, "stimulus": "<p id=\