{"condition": 0, "counterbalance": 786, "assignmentId": "32N49TQG3HPGAIKA4XKM6UM83IWAVG", "workerId": "MTK0475", "hitId": "3UV0D2KX1MQAPCK95F0PML129H9F40", "currenttrial": 626, "bonus": 0, "data": [{"uniqueid": "MTK0475:32N49TQG3HPGAIKA4XKM6UM83IWAVG", "current_trial": 0, "dateTime": 1510944858555, "trialdata": {"rt": 2329, "key_press": 32, "type": "INSTRUCTIONS", "trial_type": "text", "trial_index": 0, "time_elapsed": 2332, "internal_node_id": "0.0-0.0"}}, {"uniqueid": "MTK0475:32N49TQG3HPGAIKA4XKM6UM83IWAVG", "current_trial": 1, "dateTime": 1510944896426, "trialdata": {"rt": 37870, "key_press": 32, "type": "INSTRUCTIONS", "trial_type": "text", "trial_index": 1, "time_elapsed": 40204, "internal_node_id": "0.0-1.0"}}, {"uniqueid": "MTK0475:32N49TQG3HPGAIKA4XKM6UM83IWAVG", "current_trial": 2, "dateTime": 1510944916865, "trialdata": {"rt": [20385], "responses": ["ocean"], "type": "AUDIO_TEST", "trial_type": "audio-test", "trial_index": 2, "time_elapsed": 60643, "internal_node_id": "0.0-2.0"}}, {"uniqueid": "MTK0475:32N49TQG3HPGAIKA4XKM6UM83IWAVG", "current_trial": 3, "dateTime": 1510944939737, "trialdata": {"rt": [22866], "responses": ["crystal"], "type": "AUDIO_TEST", "trial_type": "audio-test", "trial_index": 3, "time_elapsed": 83515, "internal_node_id": "0.0-3.0"}}, {"uniqueid": "MTK0475:32N49TQG3HPGAIKA4XKM6UM83IWAVG", "current_trial": 4, "dateTime": 1510944946638, "trialdata": {"rt": [6896], "responses": ["spice"], "type": "AUDIO_TEST", "trial_type": "audio-test", "trial_index": 4, "time_elapsed": 90416, "internal_node_id": "0.0-4.0"}}, {"uniqueid": "MTK0475:32N49TQG3HPGAIKA4XKM6UM83IWAVG", "current_trial": 5, "dateTime": 1510944972639, "trialdata": {"rt": 25249, "responses": "{\"Q0\":\"11pm\",\"Q1\":\"7am\",\"Q2\":\"5\"}", "type": "SLEEP_SURVEY", "trial_type": "survey-text", "trial_index": 5, "time_elapsed": 116417, "internal_node_id": "0.0-5.0"}}, {"uniqueid": "MTK0475:32N49TQG3HPGAIKA4XKM6UM83IWAVG", "current_trial": 6, "dateTime": 1510945009487, "trialdata": {"rt": 35847, "key_press": 13, "type": "INSTRUCTIONS", "trial_type": "text", "trial_index": 6, "time_elapsed": 153265, "internal_node_id": "0.0-6.0"}}, {"uniqueid": "MTK0475:32N49TQG3HPGAIKA4XKM6UM83IWAVG", "current_trial": 7, "dateTime": 1510945044035, "trialdata": {"rt": 34047, "key_press": 13, "type": "INSTRUCTIONS", "trial_type": "text", "trial_index": 7, "time_elapsed": 187813, "internal_node_id": "0.0-7.0"}}, {"uniqueid": "MTK0475:32N49TQG3HPGAIKA4XKM6UM83IWAVG", "current_trial": 8, "dateTime": 1510945053416, "trialdata": {"rt": 8880, "key_press": 32, "type": "INSTRUCTIONS", "trial_type": "text", "trial_index": 8, "time_elapsed": 197194, "internal_node_id": "0.0-8.0"}}, {"uniqueid": "MTK0475:32N49TQG3HPGAIKA4XKM6UM83IWAVG", "current_trial": 9, "dateTime": 1510945072422, "trialdata": {"rt": [3672, 7667, 10158, 12756, 17548], "responses": ["11", "14", "17", "14", "15"], "num1": [3, 5, 8, 5, 8, 6], "num2": [4, 3, 8, 6, 6, 6], "num3": [4, 6, 1, 4, 1, 8], "type": "DISTRACTOR", "conditions": [18, 1200, "a", 18000], "trial": 0, "trial_type": "math-distractor", "trial_index": 9, "time_elapsed": 216200, "internal_node_id": "0.0-9.0"}}, {"uniqueid": "MTK0475:32N49TQG3HPGAIKA4XKM6UM83IWAVG", "current_trial": 10, "dateTime": 1510945075423, "trialdata": {"rt": -1, "stimulus": "<p id=\"stim\">10</p>", "key_press": -1, "trial_type": "single-stim", "trial_index": 10, "time_elapsed": 219201, "internal_node_id": "0.0-10.0-0.0"}}, {"uniqueid": "MTK0475:32N49TQG3HPGAIKA4XKM6UM83IWAVG", "current_trial": 11, "dateTime": 1510945076424, "trialdata": {"rt": -1, "stimulus": "<p id=\"stim\">9</p>", "key_press": -1, "trial_type": "single-stim", "trial_index": 11, "time_elapsed": 220202, "internal_node_id": "0.0-10.0-1.0"}}, {"uniqueid": "MTK0475:32N49TQG3HPGAIKA4XKM6UM83IWAVG", "current_trial": 12, "dateTime": 1510945077425, "trialdata": {"rt": -1, "stimulus": "<p id=\"stim\">8</p>", "key_press": -1, "trial_type": "single-stim", "trial_index": 12, "time_elapsed": 221202, "internal_node_id": "0.0-10.0-2.0"}}, {"uniqueid": "MTK0475:32N49TQG3HPGAIKA4XKM6UM83IWAVG", "current_trial": 13, "dateTime": 1510945078426, "trialdata": {"rt": -1, "stimulus": "<p id=\"stim\">7</p>", "key_press": -1, "trial_type": "single-stim", "trial_index": 13, "time_elapsed": 222203, "internal_node_id": "0.0-10.0-3.0"}}, {"uniqueid": "MTK0475:32N49TQG3HPGAIKA4XKM6UM83IWAVG", "current_trial": 14, "dateTime": 1510945079427, "trialdata": {"rt": -1, "stimulus": "<p id=\"stim\">6</p>", "key_press": -1, "trial_type": "single-stim", "trial_index": 14, "time_elapsed": 223204, "internal_node_id": "0.0-10.0-4.0"}}, {"uniqueid": "MTK0475:32N49TQG3HPGAIKA4XKM6UM83IWAVG", "current_trial": 15, "dateTime": 1510945080428, "trialdata": {"rt": -1, "stimulus": "<p id=\"stim\">5</p>", "key_press": -1, "trial_type": "single-stim", "trial_index": 15, "time_elapsed": 224205, "internal_node_id": "0.0-10.0-5.0"}}, {"uniqueid": "MTK0475:32N49TQG3HPGAIKA4XKM6UM83IWAVG", "current_trial": 16, "dateTime": 1510945081429, "trialdata": {"rt": -1, "stimulus": "<p id=\"stim\">4</p>", "key_press": -1, "trial_type": "single-stim", "trial_index": 16, "time_elapsed": 225206, "internal_node_id": "0.0-10.0-6.0"}}, {"uniqueid": "MTK0475:32N49TQG3HPGAIKA4XKM6UM83IWAVG", "current_trial": 17, "dateTime": 1510945082430, "trialdata": {"rt": -1, "stimulus": "<p id=\"stim\">3</p>", "key_press": -1, "trial_type": "single-stim", "trial_index": 17, "time_elapsed": 226208, "internal_node_id": "0.0-10.0-7.0"}}, {"uniqueid": "MTK0475:32N49TQG3HPGAIKA4XKM6UM83IWAVG", "current_trial": 18, "dateTime": 1510945083430, "trialdata": {"rt": -1, "stimulus": "<p id=\"stim\">2</p>", "key_press": -1, "trial_type": "single-stim", "trial_index": 18, "time_elapsed": 227208, "internal_node_id": "0.0-10.0-8.0"}}, {"uniqueid": "MTK0475:32N49TQG3HPGAIKA4XKM6UM83IWAVG", "current_trial": 19, "dateTime": 1510945084432, "trialdata": {"rt": -1, "stimulus": "<p id=\"stim\">1</p>", "key_press": -1, "trial_type": "single-stim", "trial_index": 19, "time_elapsed": 228210, "internal_node_id": "0.0-10.0-9.0"}}, {"uniqueid": "MTK0475:32N49TQG3HPGAIKA4XKM6UM83IWAVG", "current_trial": 20, "dateTime": 1510945085934, "trialdata": {"rt": -1, "stimulus": "<p id=\"stim\">+</p>", "key_press": -1, "type": "FIXATION", "trial_type": "single-stim", "trial_index": 20, "time_elapsed": 229712, "internal_node_id": "0.0-11.0-0.0"}}, {"uniqueid": "MTK0475:32N49TQG3HPGAIKA4XKM6UM83IWAVG", "current_trial": 21, "dateTime": 1510945088149, "trialdata": {"rt": -1000, "stimulus": "/static/audio/wordpool/LEOPARD.wav", "key_press": -1, "type": "PRES_AUD", "word": "leopard", "wordID": 811, "conditions": [18, 1200, "a", 18000], "trial": 0, "serialpos": 0, "trial_type": "single-audio", "trial_index": 21, "time_elapsed": 231927, "internal_node_id": "0.0-12.0"}}, {"uniqueid": "MTK0475:32N49TQG3HPGAIKA4XKM6UM83IWAVG", "current_trial": 22, "dateTime": 1510945090237, "trialdata": {"rt": -1000, "stimulus": "/static/audio/wordpool/BANQUET.wav", "key_press": -1, "type": "PRES_AUD", "word": "banquet", "wordID": 85, "conditions": [18, 1200, "a", 18000], "trial": 0, "serialpos": 1, "trial_type": "single-audio", "trial_index": 22, "time_elapsed": 234015, "internal_node_id": "0.0-13.0"}}, {"uniqueid": "MTK0475:32N49TQG3HPGAIKA4XKM6UM83IWAVG", "current_trial": 23, "dateTime": 1510945092421, "trialdata": {"rt": -1000, "stimulus": "/static/audio/wordpool/BEAKER.wav", "key_press": -1, "type": "PRES_AUD", "word": "beaker", "wordID": 103, "conditions": [18, 1200, "a", 18000], "trial": 0, "serialpos": 2, "trial_type": "single-audio", "trial_index": 23, "time_elapsed": 236199, "internal_node_id": "0.0-14.0"}}, {"uniqueid": "MTK0475:32N49TQG3HPGAIKA4XKM6UM83IWAVG", "current_trial": 24, "dateTime": 1510945094513, "trialdata": {"rt": -1000, "stimulus": "/static/audio/wordpool/DUSTPAN.wav", "key_press": -1, "type": "PRES_AUD", "word": "dustpan", "wordID": 508, "conditions": [18, 1200, "a", 18000], "trial": 0, "serialpos": 3, "trial_type": "single-audio", "trial_index": 24, "time_elapsed": 238291, "internal_node_id": "0.0-15.0"}}, {"uniqueid": "MTK0475:32N49TQG3HPGAIKA4XKM6UM83IWAVG", "current_trial": 25, "dateTime": 1510945096865, "trialdata": {"rt": -1000, "stimulus": "/static/audio/wordpool/BODY.wav", "key_press": -1, "type": "PRES_AUD", "word": "body", "wordID": 144, "conditions": [18, 1200, "a", 18000], "trial": 0, "serialpos": 4, "trial_type": "single-audio", "trial_index": 25, "time_elapsed": 240643, "internal_node_id": "0.0-16.0"}}, {"uniqueid": "MTK0475:32N49TQG3HPGAIKA4XKM6UM83IWAVG", "current_trial": 26, "dateTime": 1510945099004, "trialdata": {"rt": -1000, "stimulus": "/static/audio/wordpool/CAPTIVE.wav", "key_press": -1, "type": "PRES_AUD", "word": "captive", "wordID": 239, "conditions": [18, 1200, "a", 18000], "trial": 0, "serialpos": 5, "trial_type": "single-audio", "trial_index": 26, "time_elapsed": 242782, "internal_node_id": "0.0-17.0"}}, {"uniqueid": "MTK0475:32N49TQG3HPGAIKA4XKM6UM83IWAVG", "current_trial": 27, "dateTime": 1510945101360, "trialdata": {"rt": -1000, "stimulus": "/static/audio/wordpool/VENUS.wav", "key_press": -1, "type": "PRES_AUD", "word": "venus", "wordID": 1556, "conditions": [18, 1200, "a", 18000], "trial": 0, "serialpos": 6, "trial_type": "single-audio", "trial_index": 27, "time_elapsed": 245138, "internal_node_id": "0.0-18.0"}}, {"uniqueid": "MTK0475:32N49TQG3HPGAIKA4XKM6UM83IWAVG", "current_trial": 28, "dateTime": 1510945103401, "trialdata": {"rt": -1000, "stimulus": "/static/audio/wordpool/INMATE.wav", "key_press": -1, "type": "PRES_AUD", "word": "inmate", "wordID": 737, "conditions": [18, 1200, "a", 18000], "trial": 0, "serialpos": 7, "trial_type": "single-audio", "trial_index": 28, "time_elapsed": 247179, "internal_node_id": "0.0-19.0"}}, {"uniqueid": "MTK0475:32N49TQG3HPGAIKA4XKM6UM83IWAVG", "current_trial": 29, "dateTime": 1510945105670, "trialdata": {"rt": -1000, "stimulus": "/static/audio/wordpool/SALAD.wav", "key_press": -1, "type": "PRES_AUD", "word": "salad", "wordID": 1223, "conditions": [18, 1200, "a", 18000], "trial": 0, "serialpos": 8, "trial_type": "single-audio", "trial_index": 29, "time_elapsed": 249448, "internal_node_id": "0.0-20.0"}}, {"uniqueid": "MTK0475:32N49TQG3HPGAIKA4XKM6UM83IWAVG", "current_trial": 30, "dateTime": 1510945107870, "trialdata": {"rt": -1000, "stimulus": "/static/audio/wordpool/MESSAGE.wav", "key_press": -1, "type": "PRES_AUD", "word": "message", "wordID": 887, "conditions": [18, 1200, "a", 18000], "trial": 0, "serialpos": 9, "trial_type": "single-audio", "trial_index": 30, "time_elapsed": 251648, "internal_node_id": "0.0-21.0"}}, {"uniqueid": "MTK0475:32N49TQG3HPGAIKA4XKM6UM83IWAVG", "current_trial": 31, "dateTime": 1510945110167, "trialdata": {"rt": -1000, "stimulus": "/static/audio/wordpool/BANKER.wav", "key_press": -1, "type": "PRES_AUD", "word": "banker", "wordID": 83, "conditions": [18, 1200, "a", 18000], "trial": 0, "serialpos": 10, "trial_type": "single-audio", "trial_index": 31, "time_elapsed": 253945, "internal_node_id": "0.0-22.0"}}, {"uniqueid": "MTK0475:32N49TQG3HPGAIKA4XKM6UM83IWAVG", "current_trial": 32, "dateTime": 1510945112461, "trialdata": {"rt": -1000, "stimulus": "/static/audio/wordpool/PERCH.wav", "key_press": -1, "type": "PRES_AUD", "word": "perch", "wordID": 1047, "conditions": [18, 1200, "a", 18000], "trial": 0, "serialpos": 11, "trial_type": "single-audio", "trial_index": 32, "time_elapsed": 256239, "internal_node_id": "0.0-23.0"}}, {"uniqueid": "MTK0475:32N49TQG3HPGAIKA4XKM6UM83IWAVG", "current_trial": 33, "dateTime": 1510945114807, "trialdata": {"rt": -1000, "stimulus": "/static/audio/wordpool/OX.wav", "key_press": -1, "type": "PRES_AUD", "word": "ox", "wordID": 993, "conditions": [18, 1200, "a", 18000], "trial": 0, "serialpos": 12, "trial_type": "single-audio", "trial_index": 33, "time_elapsed": 258585, "internal_node_id": "0.0-24.0"}}, {"uniqueid": "MTK0475:32N49TQG3HPGAIKA4XKM6UM83IWAVG", "current_trial": 34, "dateTime": 1510945116831, "trialdata": {"rt": -1000, "stimulus": "/static/audio/wordpool/OUTFIT.wav", "key_press": -1, "type": "PRES_AUD", "word": "outfit", "wordID": 987, "conditions": [18, 1200, "a", 18000], "trial": 0, "serialpos": 13, "trial_type": "single-audio", "trial_index": 34, "time_elapsed": 260609, "internal_node_id": "0.0-25.0"}}, {"uniqueid": "MTK0475:32N49TQG3HPGAIKA4XKM6UM83IWAVG", "current_trial": 35, "dateTime": 1510945119151, "trialdata": {"rt": -1000, "stimulus": "/static/audio/wordpool/CARRIAGE.wav", "key_press": -1, "type": "PRES_AUD", "word": "carriage", "wordID": 247, "conditions": [18, 1200, "a", 18000], "trial": 0, "serialpos": 14, "trial_type": "single-audio", "trial_index": 35, "time_elapsed": 262929, "internal_node_id": "0.0-26.0"}}, {"uniqueid": "MTK0475:32N49TQG3HPGAIKA4XKM6UM83IWAVG", "current_trial": 36, "dateTime": 1510945121515, "trialdata": {"rt": -1000, "stimulus": "/static/audio/wordpool/MASK.wav", "key_press": -1, "type": "PRES_AUD", "word": "mask", "wordID": 875, "conditions": [18, 1200, "a", 18000], "trial": 0, "serialpos": 15, "trial_type": "single-audio", "trial_index": 36, "time_elapsed": 265293, "internal_node_id": "0.0-27.0"}}, {"uniqueid": "MTK0475:32N49TQG3HPGAIKA4XKM6UM83IWAVG", "current_trial": 37, "dateTime": 1510945123524, "trialdata": {"rt": -1000, "stimulus": "/static/audio/wordpool/TURTLE.wav", "key_press": -1, "type": "PRES_AUD", "word": "turtle", "wordID": 1521, "conditions": [18, 1200, "a", 18000], "trial": 0, "serialpos": 16, "trial_type": "single-audio", "trial_index": 37, "time_elapsed": 267302, "internal_node_id": "0.0-28.0"}}, {"uniqueid": "MTK0475:32N49TQG3HPGAIKA4XKM6UM83IWAVG", "current_trial": 38, "dateTime": 1510945125871, "trialdata": {"rt": -1000, "stimulus": "/static/audio/wordpool/DORM.wav", "key_press": -1, "type": "PRES_AUD", "word": "dorm", "wordID": 487, "conditions": [18, 1200, "a", 18000], "trial": 0, "serialpos": 17, "trial_type": "single-audio", "trial_index": 38, "time_elapsed": 269648, "internal_node_id": "0.0-29.0"}}, {"uniqueid": "MTK0475:32N49TQG3HPGAIKA4XKM6UM83IWAVG", "current_trial": 39, "dateTime": 1510945127221, "trialdata": {"rt": -1, "stimulus": "", "key_press": -1, "type": "PRE_RECALL_DELAY", "trial_type": "single-stim", "trial_index": 39, "time_elapsed": 270999, "internal_node_id": "0.0-30.0-0.0"}}, {"uniqueid": "MTK0475:32N49TQG3HPGAIKA4XKM6UM83IWAVG", "current_trial": 40, "dateTime": 1510945127723, "trialdata": {"rt": -1000, "stimulus": "/static/audio/400Hz.wav", "key_press": -1, "type": "PRE_RECALL_ALERT", "trial_type": "single-audio", "trial_index": 40, "time_elapsed": 271500, "internal_node_id": "0.0-31.0"}}, {"uniqueid": "MTK0475:32N49TQG3HPGAIKA4XKM6UM83IWAVG", "current_trial": 41, "dateTime": 1510945187732, "trialdata": {"rt": [7325, 10793, 16028, 20185, 26801, 28000, 36620, 46340, 59906], "recwords": ["dustpan", "dorm", "body", "salad", "banker", "", "venus", "turtle", ""], "type": "FREE_RECALL", "conditions": [18, 1200, "a", 18000], "trial": 0, "trial_type": "free-recall", "trial_index": 41, "time_elapsed": 331506, "internal_node_id": "0.0-32.0-0.0"}}, {"uniqueid": "MTK0475:32N49TQG3HPGAIKA4XKM6UM83IWAVG", "current_trial": 42, "dateTime": 1510945191557, "trialdata": {"rt": 1825, "key_press": 13, "type": "INSTRUCTIONS", "trial_type": "text", "trial_index": 42, "time_elapsed": 335335, "internal_node_id": "0.0-33.0"}}, {"uniqueid": "MTK0475:32N49TQG3HPGAIKA4XKM6UM83IWAVG", "current_trial": 43, "dateTime": 1510945211560, "trialdata": {"rt": [4753, 7090, 10760, 13006, 17353], "responses": ["16", "12", "7", "8", "17"], "num1": [8, 2, 2, 1, 4, 5], "num2": [2, 5, 4, 1, 7, 6], "num3": [6, 5, 1, 6, 6, 4], "type": "DISTRACTOR", "conditions": [18, 1200, "v", 18000], "trial": 1, "trial_type": "math-distractor", "trial_index": 43, "time_elapsed": 355338, "internal_node_id": "0.0-34.0"}}, {"uniqueid": "MTK0475:32N49TQG3HPGAIKA4XKM6UM83IWAVG", "current_trial": 44, "dateTime": 1510945214560, "trialdata": {"rt": -1, "stimulus": "<p id=\"stim\">10</p>", "key_press": -1, "trial_type": "single-stim", "trial_index": 44, "time_elapsed": 358338, "internal_node_id": "0.0-35.0-0.0"}}, {"uniqueid": "MTK0475:32N49TQG3HPGAIKA4XKM6UM83IWAVG", "current_trial": 45, "dateTime": 1510945215562, "trialdata": {"rt": -1, "stimulus": "<p id=\"stim\">9</p>", "key_press": -1, "trial_type": "single-stim", "trial_index": 45, "time_elapsed": 359339, "internal_node_id": "0.0-35.0-1.0"}}, {"uniqueid": "MTK0475:32N49TQG3HPGAIKA4XKM6UM83IWAVG", "current_trial": 46, "dateTime": 1510945216562, "trialdata": {"rt": -1, "stimulus": "<p id=\"stim\">8</p>", "key_press": -1, "trial_type": "single-stim", "trial_index": 46, "time_elapsed": 360340, "internal_node_id": "0.0-35.0-2.0"}}, {"uniqueid": "MTK0475:32N49TQG3HPGAIKA4XKM6UM83IWAVG", "current_trial": 47, "dateTime": 1510945217562, "trialdata": {"rt": -1, "stimulus": "<p id=\"stim\">7</p>", "key_press": -1, "trial_type": "single-stim", "trial_index": 47, "time_elapsed": 361340, "internal_node_id": "0.0-35.0-3.0"}}, {"uniqueid": "MTK0475:32N49TQG3HPGAIKA4XKM6UM83IWAVG", "current_trial": 48, "dateTime": 1510945218562, "trialdata": {"rt": -1, "stimulus": "<p id=\"stim\">6</p>", "key_press": -1, "trial_type": "single-stim", "trial_index": 48, "time_elapsed": 362340, "internal_node_id": "0.0-35.0-4.0"}}, {"uniqueid": "MTK0475:32N49TQG3HPGAIKA4XKM6UM83IWAVG", "current_trial": 49, "dateTime": 1510945219563, "trialdata": {"rt": -1, "stimulus": "<p id=\"stim\">5</p>", "key_press": -1, "trial_type": "single-stim", "trial_index": 49, "time_elapsed": 363341, "internal_node_id": "0.0-35.0-5.0"}}, {"uniqueid": "MTK0475:32N49TQG3HPGAIKA4XKM6UM83IWAVG", "current_trial": 50, "dateTime": 1510945220565, "trialdata": {"rt": -1, "stimulus": "<p id=\"stim\">4</p>", "key_press": -1, "trial_type": "single-stim", "trial_index": 50, "time_elapsed": 364342, "internal_node_id": "0.0-35.0-6.0"}}, {"uniqueid": "MTK0475:32N49TQG3HPGAIKA4XKM6UM83IWAVG", "current_trial": 51, "dateTime": 1510945221565, "trialdata": {"rt": -1, "stimulus": "<p id=\"stim\">3</p>", "key_press": -1, "trial_type": "single-stim", "trial_index": 51, "time_elapsed": 365343, "internal_node_id": "0.0-35.0-7.0"}}, {"uniqueid": "MTK0475:32N49TQG3HPGAIKA4XKM6UM83IWAVG", "current_trial": 52, "dateTime": 1510945222566, "trialdata": {"rt": -1, "stimulus": "<p id=\"stim\">2</p>", "key_press": -1, "trial_type": "single-stim", "trial_index": 52, "time_elapsed": 366344, "internal_node_id": "0.0-35.0-8.0"}}, {"uniqueid": "MTK0475:32N49TQG3HPGAIKA4XKM6UM83IWAVG", "current_trial": 53, "dateTime": 1510945223567, "trialdata": {"rt": -1, "stimulus": "<p id=\"stim\">1</p>", "key_press": -1, "trial_type": "single-stim", "trial_index": 53, "time_elapsed": 367345, "internal_node_id": "0.0-35.0-9.0"}}, {"uniqueid": "MTK0475:32N49TQG3HPGAIKA4XKM6UM83IWAVG", "current_trial": 54, "dateTime": 1510945225068, "trialdata": {"rt": -1, "stimulus": "<p id=\"stim\">+</p>", "key_press": -1, "type": "FIXATION", "trial_type": "single-stim", "trial_index": 54, "time_elapsed": 368845, "internal_node_id": "0.0-36.0-0.0"}}, {"uniqueid": "MTK0475:32N49TQG3HPGAIKA4XKM6UM83IWAVG", "current_trial": 55, "dateTime": 1510945226268, "trialdata": {"rt": -1, "stimulus": "<p id=\"stim\">PISTON</p>", "key_press": -1, "type": "PRES_VIS", "word": "piston", "wordID": 1075, "conditions": [18, 1200, "v", 18000], "trial": 1, "serialpos": 0, "trial_type": "single-stim", "trial_index": 55, "time_elapsed": 370046, "internal_node_id": "0.0-37.0"}}, {"uniqueid": "MTK0475:32N49TQG3HPGAIKA4XKM6UM83IWAVG", "current_trial": 56, "dateTime": 1510945228353, "trialdata": {"rt": -1, "stimulus": "<p id=\"stim\">COLLEGE</p>", "key_press": -1, "type": "PRES_VIS", "word": "college", "wordID": 345, "conditions": [18, 1200, "v", 18000], "trial": 1, "serialpos": 1, "trial_type": "single-stim", "trial_index": 56, "time_elapsed": 372131, "internal_node_id": "0.0-38.0"}}, {"uniqueid": "MTK0475:32N49TQG3HPGAIKA4XKM6UM83IWAVG", "current_trial": 57, "dateTime": 1510945230448, "trialdata": {"rt": -1, "stimulus": "<p id=\"stim\">SPACE</p>", "key_press": -1, "type": "PRES_VIS", "word": "space", "wordID": 1344, "conditions": [18, 1200, "v", 18000], "trial": 1, "serialpos": 2, "trial_type": "single-stim", "trial_index": 57, "time_elapsed": 374226, "internal_node_id": "0.0-39.0"}}, {"uniqueid": "MTK0475:32N49TQG3HPGAIKA4XKM6UM83IWAVG", "current_trial": 58, "dateTime": 1510945232498, "trialdata": {"rt": -1, "stimulus": "<p id=\"stim\">GARDEN</p>", "key_press": -1, "type": "PRES_VIS", "word": "garden", "wordID": 622, "conditions": [18, 1200, "v", 18000], "trial": 1, "serialpos": 3, "trial_type": "single-stim", "trial_index": 58, "time_elapsed": 376275, "internal_node_id": "0.0-40.0"}}, {"uniqueid": "MTK0475:32N49TQG3HPGAIKA4XKM6UM83IWAVG", "current_trial": 59, "dateTime": 1510945234676, "trialdata": {"rt": -1, "stimulus": "<p id=\"stim\">NURSE</p>", "key_press": -1, "type": "PRES_VIS", "word": "nurse", "wordID": 962, "conditions": [18, 1200, "v", 18000], "trial": 1, "serialpos": 4, "trial_type": "single-stim", "trial_index": 59, "time_elapsed": 378454, "internal_node_id": "0.0-41.0"}}, {"uniqueid": "MTK0475:32N49TQG3HPGAIKA4XKM6UM83IWAVG", "current_trial": 60, "dateTime": 1510945236826, "trialdata": {"rt": -1, "stimulus": "<p id=\"stim\">RECEIPT</p>", "key_press": -1, "type": "PRES_VIS", "word": "receipt", "wordID": 1172, "conditions": [18, 1200, "v", 18000], "trial": 1, "serialpos": 5, "trial_type": "single-stim", "trial_index": 60, "time_elapsed": 380604, "internal_node_id": "0.0-42.0"}}, {"uniqueid": "MTK0475:32N49TQG3HPGAIKA4XKM6UM83IWAVG", "current_trial": 61, "dateTime": 1510945239113, "trialdata": {"rt": -1, "stimulus": "<p id=\"stim\">LIZARD</p>", "key_press": -1, "type": "PRES_VIS", "word": "lizard", "wordID": 833, "conditions": [18, 1200, "v", 18000], "trial": 1, "serialpos": 6, "trial_type": "single-stim", "trial_index": 61, "time_elapsed": 382891, "internal_node_id": "0.0-43.0"}}, {"uniqueid": "MTK0475:32N49TQG3HPGAIKA4XKM6UM83IWAVG", "current_trial": 62, "dateTime": 1510945241135, "trialdata": {"rt": -1, "stimulus": "<p id=\"stim\">PIANO</p>", "key_press": -1, "type": "PRES_VIS", "word": "piano", "wordID": 1056, "conditions": [18, 1200, "v", 18000], "trial": 1, "serialpos": 7, "trial_type": "single-stim", "trial_index": 62, "time_elapsed": 384913, "internal_node_id": "0.0-44.0"}}, {"uniqueid": "MTK0475:32N49TQG3HPGAIKA4XKM6UM83IWAVG", "current_trial": 63, "dateTime": 1510945243470, "trialdata": {"rt": -1, "stimulus": "<p id=\"stim\">WIDOW</p>", "key_press": -1, "type": "PRES_VIS", "word": "widow", "wordID": 1607, "conditions": [18, 1200, "v", 18000], "trial": 1, "serialpos": 8, "trial_type": "single-stim", "trial_index": 63, "time_elapsed": 387248, "internal_node_id": "0.0-45.0"}}, {"uniqueid": "MTK0475:32N49TQG3HPGAIKA4XKM6UM83IWAVG", "current_trial": 64, "dateTime": 1510945245818, "trialdata": {"rt": -1, "stimulus": "<p id=\"stim\">CUSTARD</p>", "key_press": -1, "type": "PRES_VIS", "word": "custard", "wordID": 428, "conditions": [18, 1200, "v", 18000], "trial": 1, "serialpos": 9, "trial_type": "single-stim", "trial_index": 64, "time_elapsed": 389596, "internal_node_id": "0.0-46.0"}}, {"uniqueid": "MTK0475:32N49TQG3HPGAIKA4XKM6UM83IWAVG", "current_trial": 65, "dateTime": 1510945248026, "trialdata": {"rt": -1, "stimulus": "<p id=\"stim\">DAISY</p>", "key_press": -1, "type": "PRES_VIS", "word": "daisy", "wordID": 434, "conditions": [18, 1200, "v", 18000], "trial": 1, "serialpos": 10, "trial_type": "single-stim", "trial_index": 65, "time_elapsed": 391804, "internal_node_id": "0.0-47.0"}}, {"uniqueid": "MTK0475:32N49TQG3HPGAIKA4XKM6UM83IWAVG", "current_trial": 66, "dateTime": 1510945250101, "trialdata": {"rt": -1, "stimulus": "<p id=\"stim\">BANJO</p>", "key_press": -1, "type": "PRES_VIS", "word": "banjo", "wordID": 81, "conditions": [18, 1200, "v", 18000], "trial": 1, "serialpos": 11, "trial_type": "single-stim", "trial_index": 66, "time_elapsed": 393879, "internal_node_id": "0.0-48.0"}}, {"uniqueid": "MTK0475:32N49TQG3HPGAIKA4XKM6UM83IWAVG", "current_trial": 67, "dateTime": 1510945252152, "trialdata": {"rt": -1, "stimulus": "<p id=\"stim\">LIGHTNING</p>", "key_press": -1, "type": "PRES_VIS", "word": "lightning", "wordID": 819, "conditions": [18, 1200, "v", 18000], "trial": 1, "serialpos": 12, "trial_type": "single-stim", "trial_index": 67, "time_elapsed": 395929, "internal_node_id": "0.0-49.0"}}, {"uniqueid": "MTK0475:32N49TQG3HPGAIKA4XKM6UM83IWAVG", "current_trial": 68, "dateTime": 1510945254242, "trialdata": {"rt": -1, "stimulus": "<p id=\"stim\">HANDBAG</p>", "key_press": -1, "type": "PRES_VIS", "word": "handbag", "wordID": 683, "conditions": [18, 1200, "v", 18000], "trial": 1, "serialpos": 13, "trial_type": "single-stim", "trial_index": 68, "time_elapsed": 398018, "internal_node_id": "0.0-50.0"}}, {"uniqueid": "MTK0475:32N49TQG3HPGAIKA4XKM6UM83IWAVG", "current_trial": 69, "dateTime": 1510945256396, "trialdata": {"rt": -1, "stimulus": "<p id=\"stim\">MATTRESS</p>", "key_press": -1, "type": "PRES_VIS", "word": "mattress", "wordID": 878, "conditions": [18, 1200, "v", 18000], "trial": 1, "serialpos": 14, "trial_type": "single-stim", "trial_index": 69, "time_elapsed": 400174, "internal_node_id": "0.0-51.0"}}, {"uniqueid": "MTK0475:32N49TQG3HPGAIKA4XKM6UM83IWAVG", "current_trial": 70, "dateTime": 1510945258443, "trialdata": {"rt": -1, "stimulus": "<p id=\"stim\">PALACE</p>", "key_press": -1, "type": "PRES_VIS", "word": "palace", "wordID": 1005, "conditions": [18, 1200, "v", 18000], "trial": 1, "serialpos": 15, "trial_type": "single-stim", "trial_index": 70, "time_elapsed": 402221, "internal_node_id": "0.0-52.0"}}, {"uniqueid": "MTK0475:32N49TQG3HPGAIKA4XKM6UM83IWAVG", "current_trial": 71, "dateTime": 1510945260486, "trialdata": {"rt": -1, "stimulus": "<p id=\"stim\">LACE</p>", "key_press": -1, "type": "PRES_VIS", "word": "lace", "wordID": 791, "conditions": [18, 1200, "v", 18000], "trial": 1, "serialpos": 16, "trial_type": "single-stim", "trial_index": 71, "time_elapsed": 404264, "internal_node_id": "0.0-53.0"}}, {"uniqueid": "MTK0475:32N49TQG3HPGAIKA4XKM6UM83IWAVG", "current_trial": 72, "dateTime": 1510945262623, "trialdata": {"rt": -1, "stimulus": "<p id=\"stim\">HAMPER</p>", "key_press": -1, "type": "PRES_VIS", "word": "hamper", "wordID": 681, "conditions": [18, 1200, "v", 18000], "trial": 1, "serialpos": 17, "trial_type": "single-stim", "trial_index": 72, "time_elapsed": 406401, "internal_node_id": "0.0-54.0"}}, {"uniqueid": "MTK0475:32N49TQG3HPGAIKA4XKM6UM83IWAVG", "current_trial": 73, "dateTime": 1510945264950, "trialdata": {"rt": -1, "stimulus": "", "key_press": -1, "type": "PRE_RECALL_DELAY", "trial_type": "single-stim", "trial_index": 73, "time_elapsed": 408728, "internal_node_id": "0.0-55.0-0.0"}}, {"uniqueid": "MTK0475:32N49TQG3HPGAIKA4XKM6UM83IWAVG", "current_trial": 74, "dateTime": 1510945265451, "trialdata": {"rt": -1000, "stimulus": "/static/audio/400Hz.wav", "key_press": -1, "type": "PRE_RECALL_ALERT", "trial_type": "single-audio", "trial_index": 74, "time_elapsed": 409229, "internal_node_id": "0.0-56.0"}}, {"uniqueid": "MTK0475:32N49TQG3HPGAIKA4XKM6UM83IWAVG", "current_trial": 75, "dateTime": 1510945325461, "trialdata": {"rt": [3904, 6217, 8948, 12134, 14986, 19061, 23512, 26566, 37472], "recwords": ["hamper", "lace", "college", "piston", "hamper", "lizard", "piston", "lace", "handbag"], "type": "FREE_RECALL", "conditions": [18, 1200, "v", 18000], "trial": 1, "trial_type": "free-recall", "trial_index": 75, "time_elapsed": 469232, "internal_node_id": "0.0-57.0-0.0"}}, {"uniqueid": "MTK0475:32N49TQG3HPGAIKA4XKM6UM83IWAVG", "current_trial": 76, "dateTime": 1510945329431, "trialdata": {"rt": 1959, "key_press": 13, "type": "INSTRUCTIONS", "trial_type": "text", "trial_index": 76, "time_elapsed": 473198, "internal_node_id": "0.0-58.0"}}, {"uniqueid": "MTK0475:32N49TQG3HPGAIKA4XKM6UM83IWAVG", "current_trial": 77, "dateTime": 1510945342435, "trialdata": {"rt": [2788, 6866, 10361], "responses": ["13", "15", "17"], "num1": [2, 3, 6, 1], "num2": [6, 5, 7, 7], "num3": [5, 7, 4, 3], "type": "DISTRACTOR", "conditions": [12, 1600, "v", 12000], "trial": 2, "trial_type": "math-distractor", "trial_index": 77, "time_elapsed": 486213, "internal_node_id": "0.0-59.0"}}, {"uniqueid": "MTK0475:32N49TQG3HPGAIKA4XKM6UM83IWAVG", "current_trial": 78, "dateTime": 1510945345435, "trialdata": {"rt": -1, "stimulus": "<p id=\"stim\">10</p>", "key_press": -1, "trial_type": "single-stim", "trial_index": 78, "time_elapsed": 489213, "internal_node_id": "0.0-60.0-0.0"}}, {"uniqueid": "MTK0475:32N49TQG3HPGAIKA4XKM6UM83IWAVG", "current_trial": 79, "dateTime": 1510945346435, "trialdata": {"rt": -1, "stimulus": "<p id=\"stim\">9</p>", "key_press": -1, "trial_type": "single-stim", "trial_index": 79, "time_elapsed": 490213, "internal_node_id": "0.0-60.0-1.0"}}, {"uniqueid": "MTK0475:32N49TQG3HPGAIKA4XKM6UM83IWAVG", "current_trial": 80, "dateTime": 1510945347435, "trialdata": {"rt": -1, "stimulus": "<p id=\"stim\">8</p>", "key_press": -1, "trial_type": "single-stim", "trial_index": 80, "time_elapsed": 491213, "internal_node_id": "0.0-60.0-2.0"}}, {"uniqueid": "MTK0475:32N49TQG3HPGAIKA4XKM6UM83IWAVG", "current_trial": 81, "dateTime": 1510945348436, "trialdata": {"rt": -1, "stimulus": "<p id=\"stim\">7</p>", "key_press": -1, "trial_type": "single-stim", "trial_index": 81, "time_elapsed": 492214, "internal_node_id": "0.0-60.0-3.0"}}, {"uniqueid": "MTK0475:32N49TQG3HPGAIKA4XKM6UM83IWAVG", "current_trial": 82, "dateTime": 1510945349437, "trialdata": {"rt": -1, "stimulus": "<p id=\"stim\">6</p>", "key_press": -1, "trial_type": "single-stim", "trial_index": 82, "time_elapsed": 493215, "internal_node_id": "0.0-60.0-4.0"}}, {"uniqueid": "MTK0475:32N49TQG3HPGAIKA4XKM6UM83IWAVG", "current_trial": 83, "dateTime": 1510945350438, "trialdata": {"rt": -1, "stimulus": "<p id=\"stim\">5</p>", "key_press": -1, "trial_type": "single-stim", "trial_index": 83, "time_elapsed": 494216, "internal_node_id": "0.0-60.0-5.0"}}, {"uniqueid": "MTK0475:32N49TQG3HPGAIKA4XKM6UM83IWAVG", "current_trial": 84, "dateTime": 1510945351439, "trialdata": {"rt": -1, "stimulus": "<p id=\"stim\">4</p>", "key_press": -1, "trial_type": "single-stim", "trial_index": 84, "time_elapsed": 495217, "internal_node_id": "0.0-60.0-6.0"}}, {"uniqueid": "MTK0475:32N49TQG3HPGAIKA4XKM6UM83IWAVG", "current_trial": 85, "dateTime": 1510945352440, "trialdata": {"rt": -1, "stimulus": "<p id=\"stim\">3</p>", "key_press": -1, "trial_type": "single-stim", "trial_index": 85, "time_elapsed": 496218, "internal_node_id": "0.0-60.0-7.0"}}, {"uniqueid": "MTK0475:32N49TQG3HPGAIKA4XKM6UM83IWAVG", "current_trial": 86, "dateTime": 1510945353440, "trialdata": {"rt": -1, "stimulus": "<p id=\"stim\">2</p>", "key_press": -1, "trial_type": "single-stim", "trial_index": 86, "time_elapsed": 497218, "internal_node_id": "0.0-60.0-8.0"}}, {"uniqueid": "MTK0475:32N49TQG3HPGAIKA4XKM6UM83IWAVG", "current_trial": 87, "dateTime": 1510945354441, "trialdata": {"rt": -1, "stimulus": "<p id=\"stim\">1</p>", "key_press": -1, "trial_type": "single-stim", "trial_index": 87, "time_elapsed": 498219, "internal_node_id": "0.0-60.0-9.0"}}, {"uniqueid": "MTK0475:32N49TQG3HPGAIKA4XKM6UM83IWAVG", "current_trial": 88, "dateTime": 1510945355942, "trialdata": {"rt": -1, "stimulus": "<p id=\"stim\">+</p>", "key_press": -1, "type": "FIXATION", "trial_type": "single-stim", "trial_index": 88, "time_elapsed": 499720, "internal_node_id": "0.0-61.0-0.0"}}, {"uniqueid": "MTK0475:32N49TQG3HPGAIKA4XKM6UM83IWAVG", "current_trial": 89, "dateTime": 1510945357543, "trialdata": {"rt": -1, "stimulus": "<p id=\"stim\">SCALPEL</p>", "key_press": -1, "type": "PRES_VIS", "word": "scalpel", "wordID": 1242, "conditions": [12, 1600, "v", 12000], "trial": 2, "serialpos": 0, "trial_type": "single-stim", "trial_index": 89, "time_elapsed": 501321, "internal_node_id": "0.0-62.0"}}, {"uniqueid": "MTK0475:32N49TQG3HPGAIKA4XKM6UM83IWAVG", "current_trial": 90, "dateTime": 1510945359947, "trialdata": {"rt": -1, "stimulus": "<p id=\"stim\">APPLE</p>", "key_press": -1, "type": "PRES_VIS", "word": "apple", "wordID": 32, "conditions": [12, 1600, "v", 12000], "trial": 2, "serialpos": 1, "trial_type": "single-stim", "trial_index": 90, "time_elapsed": 503725, "internal_node_id": "0.0-63.0"}}, {"uniqueid": "MTK0475:32N49TQG3HPGAIKA4XKM6UM83IWAVG", "current_trial": 91, "dateTime": 1510945362416, "trialdata": {"rt": -1, "stimulus": "<p id=\"stim\">TROUT</p>", "key_press": -1, "type": "PRES_VIS", "word": "trout", "wordID": 1510, "conditions": [12, 1600, "v", 12000], "trial": 2, "serialpos": 2, "trial_type": "single-stim", "trial_index": 91, "time_elapsed": 506194, "internal_node_id": "0.0-64.0"}}, {"uniqueid": "MTK0475:32N49TQG3HPGAIKA4XKM6UM83IWAVG", "current_trial": 92, "dateTime": 1510945364818, "trialdata": {"rt": -1, "stimulus": "<p id=\"stim\">SALMON</p>", "key_press": -1, "type": "PRES_VIS", "word": "salmon", "wordID": 1226, "conditions": [12, 1600, "v", 12000], "trial": 2, "serialpos": 3, "trial_type": "single-stim", "trial_index": 92, "time_elapsed": 508596, "internal_node_id": "0.0-65.0"}}, {"uniqueid": "MTK0475:32N49TQG3HPGAIKA4XKM6UM83IWAVG", "current_trial": 93, "dateTime": 1510945367236, "trialdata": {"rt": -1, "stimulus": "<p id=\"stim\">SUPPER</p>", "key_press": -1, "type": "PRES_VIS", "word": "supper", "wordID": 1410, "conditions": [12, 1600, "v", 12000], "trial": 2, "serialpos": 4, "trial_type": "single-stim", "trial_index": 93, "time_elapsed": 511014, "internal_node_id": "0.0-66.0"}}, {"uniqueid": "MTK0475:32N49TQG3HPGAIKA4XKM6UM83IWAVG", "current_trial": 94, "dateTime": 1510945369805, "trialdata": {"rt": -1, "stimulus": "<p id=\"stim\">ROOSTER</p>", "key_press": -1, "type": "PRES_VIS", "word": "rooster", "wordID": 1208, "conditions": [12, 1600, "v", 12000], "trial": 2, "serialpos": 5, "trial_type": "single-stim", "trial_index": 94, "time_elapsed": 513583, "internal_node_id": "0.0-67.0"}}, {"uniqueid": "MTK0475:32N49TQG3HPGAIKA4XKM6UM83IWAVG", "current_trial": 95, "dateTime": 1510945372210, "trialdata": {"rt": -1, "stimulus": "<p id=\"stim\">FLASHLIGHT</p>", "key_press": -1, "type": "PRES_VIS", "word": "flashlight", "wordID": 574, "conditions": [12, 1600, "v", 12000], "trial": 2, "serialpos": 6, "trial_type": "single-stim", "trial_index": 95, "time_elapsed": 515988, "internal_node_id": "0.0-68.0"}}, {"uniqueid": "MTK0475:32N49TQG3HPGAIKA4XKM6UM83IWAVG", "current_trial": 96, "dateTime": 1510945374660, "trialdata": {"rt": -1, "stimulus": "<p id=\"stim\">CREATURE</p>", "key_press": -1, "type": "PRES_VIS", "word": "creature", "wordID": 402, "conditions": [12, 1600, "v", 12000], "trial": 2, "serialpos": 7, "trial_type": "single-stim", "trial_index": 96, "time_elapsed": 518438, "internal_node_id": "0.0-69.0"}}, {"uniqueid": "MTK0475:32N49TQG3HPGAIKA4XKM6UM83IWAVG", "current_trial": 97, "dateTime": 1510945377212, "trialdata": {"rt": -1, "stimulus": "<p id=\"stim\">SCISSORS</p>", "key_press": -1, "type": "PRES_VIS", "word": "scissors", "wordID": 1249, "conditions": [12, 1600, "v", 12000], "trial": 2, "serialpos": 8, "trial_type": "single-stim", "trial_index": 97, "time_elapsed": 520990, "internal_node_id": "0.0-70.0"}}, {"uniqueid": "MTK0475:32N49TQG3HPGAIKA4XKM6UM83IWAVG", "current_trial": 98, "dateTime": 1510945379682, "trialdata": {"rt": -1, "stimulus": "<p id=\"stim\">DONKEY</p>", "key_press": -1, "type": "PRES_VIS", "word": "donkey", "wordID": 483, "conditions": [12, 1600, "v", 12000], "trial": 2, "serialpos": 9, "trial_type": "single-stim", "trial_index": 98, "time_elapsed": 523459, "internal_node_id": "0.0-71.0"}}, {"uniqueid": "MTK0475:32N49TQG3HPGAIKA4XKM6UM83IWAVG", "current_trial": 99, "dateTime": 1510945382128, "trialdata": {"rt": -1, "stimulus": "<p id=\"stim\">RUST</p>", "key_press": -1, "type": "PRES_VIS", "word": "rust", "wordID": 1218, "conditions": [12, 1600, "v", 12000], "trial": 2, "serialpos": 10, "trial_type": "single-stim", "trial_index": 99, "time_elapsed": 525906, "internal_node_id": "0.0-72.0"}}, {"uniqueid": "MTK0475:32N49TQG3HPGAIKA4XKM6UM83IWAVG", "current_trial": 100, "dateTime": 1510945384757, "trialdata": {"rt": -1, "stimulus": "<p id=\"stim\">NAPKIN</p>", "key_press": -1, "type": "PRES_VIS", "word": "napkin", "wordID": 936, "conditions": [12, 1600, "v", 12000], "trial": 2, "serialpos": 11, "trial_type": "single-stim", "trial_index": 100, "time_elapsed": 528535, "internal_node_id": "0.0-73.0"}}, {"uniqueid": "MTK0475:32N49TQG3HPGAIKA4XKM6UM83IWAVG", "current_trial": 101, "dateTime": 1510945387259, "trialdata": {"rt": -1, "stimulus": "", "key_press": -1, "type": "PRE_RECALL_DELAY", "trial_type": "single-stim", "trial_index": 101, "time_elapsed": 531037, "internal_node_id": "0.0-74.0-0.0"}}, {"uniqueid": "MTK0475:32N49TQG3HPGAIKA4XKM6UM83IWAVG", "current_trial": 102, "dateTime": 1510945387761, "trialdata": {"rt": -1000, "stimulus": "/static/audio/400Hz.wav", "key_press": -1, "type": "PRE_RECALL_ALERT", "trial_type": "single-audio", "trial_index": 102, "time_elapsed": 531539, "internal_node_id": "0.0-75.0"}}, {"uniqueid": "MTK0475:32N49TQG3HPGAIKA4XKM6UM83IWAVG", "current_trial": 103, "dateTime": 1510945447768, "trialdata": {"rt": [3934, 6658, 8936, 11746, 15603, 21368, 29278, 34116], "recwords": ["napkin", "dinner", "apple", "salmon", "trout", "scissors", "rusty", "napkin"], "type": "FREE_RECALL", "conditions": [12, 1600, "v", 12000], "trial": 2, "trial_type": "free-recall", "trial_index": 103, "time_elapsed": 591543, "internal_node_id": "0.0-76.0-0.0"}}, {"uniqueid": "MTK0475:32N49TQG3HPGAIKA4XKM6UM83IWAVG", "current_trial": 104, "dateTime": 1510945451863, "trialdata": {"rt": 2094, "key_press": 13, "type": "INSTRUCTIONS", "trial_type": "text", "trial_index": 104, "time_elapsed": 595641, "internal_node_id": "0.0-77.0"}}, {"uniqueid": "MTK0475:32N49TQG3HPGAIKA4XKM6UM83IWAVG", "current_trial": 105, "dateTime": 1510945477866, "trialdata": {"rt": [3960, 7285, 11680, 14544, 17094, 20856], "responses": ["17", "16", "20", "15", "14", "13"], "num1": [4, 8, 6, 6, 5, 9, 4], "num2": [7, 5, 9, 6, 1, 2, 2], "num3": [6, 3, 5, 3, 8, 2, 7], "type": "DISTRACTOR", "conditions": [24, 1600, "a", 24000], "trial": 3, "trial_type": "math-distractor", "trial_index": 105, "time_elapsed": 621643, "internal_node_id": "0.0-78.0"}}, {"uniqueid": "MTK0475:32N49TQG3HPGAIKA4XKM6UM83IWAVG", "current_trial": 106, "dateTime": 1510945480866, "trialdata": {"rt": -1, "stimulus": "<p id=\"stim\">10</p>", "key_press": -1, "trial_type": "single-stim", "trial_index": 106, "time_elapsed": 624644, "internal_node_id": "0.0-79.0-0.0"}}, {"uniqueid": "MTK0475:32N49TQG3HPGAIKA4XKM6UM83IWAVG", "current_trial": 107, "dateTime": 1510945481868, "trialdata": {"rt": -1, "stimulus": "<p id=\"stim\">9</p>", "key_press": -1, "trial_type": "single-stim", "trial_index": 107, "time_elapsed": 625646, "internal_node_id": "0.0-79.0-1.0"}}, {"uniqueid": "MTK0475:32N49TQG3HPGAIKA4XKM6UM83IWAVG", "current_trial": 108, "dateTime": 1510945482870, "trialdata": {"rt": -1, "stimulus": "<p id=\"stim\">8</p>", "key_press": -1, "trial_type": "single-stim", "trial_index": 108, "time_elapsed": 626648, "internal_node_id": "0.0-79.0-2.0"}}, {"uniqueid": "MTK0475:32N49TQG3HPGAIKA4XKM6UM83IWAVG", "current_trial": 109, "dateTime": 1510945483870, "trialdata": {"rt": -1, "stimulus": "<p id=\"stim\">7</p>", "key_press": -1, "trial_type": "single-stim", "trial_index": 109, "time_elapsed": 627648, "internal_node_id": "0.0-79.0-3.0"}}, {"uniqueid": "MTK0475:32N49TQG3HPGAIKA4XKM6UM83IWAVG", "current_trial": 110, "dateTime": 1510945484870, "trialdata": {"rt": -1, "stimulus": "<p id=\"stim\">6</p>", "key_press": -1, "trial_type": "single-stim", "trial_index": 110, "time_elapsed": 628648, "internal_node_id": "0.0-79.0-4.0"}}, {"uniqueid": "MTK0475:32N49TQG3HPGAIKA4XKM6UM83IWAVG", "current_trial": 111, "dateTime": 1510945485871, "trialdata": {"rt": -1, "stimulus": "<p id=\"stim\">5</p>", "key_press": -1, "trial_type": "single-stim", "trial_index": 111, "time_elapsed": 629649, "internal_node_id": "0.0-79.0-5.0"}}, {"uniqueid": "MTK0475:32N49TQG3HPGAIKA4XKM6UM83IWAVG", "current_trial": 112, "dateTime": 1510945486871, "trialdata": {"rt": -1, "stimulus": "<p id=\"stim\">4</p>", "key_press": -1, "trial_type": "single-stim", "trial_index": 112, "time_elapsed": 630649, "internal_node_id": "0.0-79.0-6.0"}}, {"uniqueid": "MTK0475:32N49TQG3HPGAIKA4XKM6UM83IWAVG", "current_trial": 113, "dateTime": 1510945487872, "trialdata": {"rt": -1, "stimulus": "<p id=\"stim\">3</p>", "key_press": -1, "trial_type": "single-stim", "trial_index": 113, "time_elapsed": 631649, "internal_node_id": "0.0-79.0-7.0"}}, {"uniqueid": "MTK0475:32N49TQG3HPGAIKA4XKM6UM83IWAVG", "current_trial": 114, "dateTime": 1510945488873, "trialdata": {"rt": -1, "stimulus": "<p id=\"stim\">2</p>", "key_press": -1, "trial_type": "single-stim", "trial_index": 114, "time_elapsed": 632651, "internal_node_id": "0.0-79.0-8.0"}}, {"uniqueid": "MTK0475:32N49TQG3HPGAIKA4XKM6UM83IWAVG", "current_trial": 115, "dateTime": 1510945489873, "trialdata": {"rt": -1, "stimulus": "<p id=\"stim\">1</p>", "key_press": -1, "trial_type": "single-stim", "trial_index": 115, "time_elapsed": 633651, "internal_node_id": "0.0-79.0-9.0"}}, {"uniqueid": "MTK0475:32N49TQG3HPGAIKA4XKM6UM83IWAVG", "current_trial": 116, "dateTime": 1510945491374, "trialdata": {"rt": -1, "stimulus": "<p id=\"stim\">+</p>", "key_press": -1, "type": "FIXATION", "trial_type": "single-stim", "trial_index": 116, "time_elapsed": 635152, "internal_node_id": "0.0-80.0-0.0"}}, {"uniqueid": "MTK0475:32N49TQG3HPGAIKA4XKM6UM83IWAVG", "current_trial": 117, "dateTime": 1510945493913, "trialdata": {"rt": -1000, "stimulus": "/static/audio/wordpool/FIDDLE.wav", "key_press": -1, "type": "PRES_AUD", "word": "fiddle", "wordID": 560, "conditions": [24, 1600, "a", 24000], "trial": 3, "serialpos": 0, "trial_type": "single-audio", "trial_index": 117, "time_elapsed": 637691, "internal_node_id": "0.0-81.0"}}, {"uniqueid": "MTK0475:32N49TQG3HPGAIKA4XKM6UM83IWAVG", "current_trial": 118, "dateTime": 1510945496467, "trialdata": {"rt": -1000, "stimulus": "/static/audio/wordpool/SIBLING.wav", "key_press": -1, "type": "PRES_AUD", "word": "sibling", "wordID": 1300, "conditions": [24, 1600, "a", 24000], "trial": 3, "serialpos": 1, "trial_type": "single-audio", "trial_index": 118, "time_elapsed": 640245, "internal_node_id": "0.0-82.0"}}, {"uniqueid": "MTK0475:32N49TQG3HPGAIKA4XKM6UM83IWAVG", "current_trial": 119, "dateTime": 1510945498956, "trialdata": {"rt": -1000, "stimulus": "/static/audio/wordpool/KNAPSACK.wav", "key_press": -1, "type": "PRES_AUD", "word": "knapsack", "wordID": 782, "conditions": [24, 1600, "a", 24000], "trial": 3, "serialpos": 2, "trial_type": "single-audio", "trial_index": 119, "time_elapsed": 642734, "internal_node_id": "0.0-83.0"}}, {"uniqueid": "MTK0475:32N49TQG3HPGAIKA4XKM6UM83IWAVG", "current_trial": 120, "dateTime": 1510945501401, "trialdata": {"rt": -1000, "stimulus": "/static/audio/wordpool/SNACK.wav", "key_press": -1, "type": "PRES_AUD", "word": "snack", "wordID": 1330, "conditions": [24, 1600, "a", 24000], "trial": 3, "serialpos": 3, "trial_type": "single-audio", "trial_index": 120, "time_elapsed": 645179, "internal_node_id": "0.0-84.0"}}, {"uniqueid": "MTK0475:32N49TQG3HPGAIKA4XKM6UM83IWAVG", "current_trial": 121, "dateTime": 1510945504110, "trialdata": {"rt": -1000, "stimulus": "/static/audio/wordpool/DOUGHNUT.wav", "key_press": -1, "type": "PRES_AUD", "word": "doughnut", "wordID": 489, "conditions": [24, 1600, "a", 24000], "trial": 3, "serialpos": 4, "trial_type": "single-audio", "trial_index": 121, "time_elapsed": 647888, "internal_node_id": "0.0-85.0"}}, {"uniqueid": "MTK0475:32N49TQG3HPGAIKA4XKM6UM83IWAVG", "current_trial": 122, "dateTime": 1510945506829, "trialdata": {"rt": -1000, "stimulus": "/static/audio/wordpool/BASEMENT.wav", "key_press": -1, "type": "PRES_AUD", "word": "basement", "wordID": 93, "conditions": [24, 1600, "a", 24000], "trial": 3, "serialpos": 5, "trial_type": "single-audio", "trial_index": 122, "time_elapsed": 650607, "internal_node_id": "0.0-86.0"}}, {"uniqueid": "MTK0475:32N49TQG3HPGAIKA4XKM6UM83IWAVG", "current_trial": 123, "dateTime": 1510945509512, "trialdata": {"rt": -1000, "stimulus": "/static/audio/wordpool/KNIFE.wav", "key_press": -1, "type": "PRES_AUD", "word": "knife", "wordID": 784, "conditions": [24, 1600, "a", 24000], "trial": 3, "serialpos": 6, "trial_type": "single-audio", "trial_index": 123, "time_elapsed": 653290, "internal_node_id": "0.0-87.0"}}, {"uniqueid": "MTK0475:32N49TQG3HPGAIKA4XKM6UM83IWAVG", "current_trial": 124, "dateTime": 1510945512254, "trialdata": {"rt": -1000, "stimulus": "/static/audio/wordpool/SLOPE.wav", "key_press": -1, "type": "PRES_AUD", "word": "slope", "wordID": 1327, "conditions": [24, 1600, "a", 24000], "trial": 3, "serialpos": 7, "trial_type": "single-audio", "trial_index": 124, "time_elapsed": 656032, "internal_node_id": "0.0-88.0"}}, {"uniqueid": "MTK0475:32N49TQG3HPGAIKA4XKM6UM83IWAVG", "current_trial": 125, "dateTime": 1510945514795, "trialdata": {"rt": -1000, "stimulus": "/static/audio/wordpool/LION.wav", "key_press": -1, "type": "PRES_AUD", "word": "lion", "wordID": 826, "conditions": [24, 1600, "a", 24000], "trial": 3, "serialpos": 8, "trial_type": "single-audio", "trial_index": 125, "time_elapsed": 658573, "internal_node_id": "0.0-89.0"}}, {"uniqueid": "MTK0475:32N49TQG3HPGAIKA4XKM6UM83IWAVG", "current_trial": 126, "dateTime": 1510945517225, "trialdata": {"rt": -1000, "stimulus": "/static/audio/wordpool/BELLY.wav", "key_press": -1, "type": "PRES_AUD", "word": "belly", "wordID": 118, "conditions": [24, 1600, "a", 24000], "trial": 3, "serialpos": 9, "trial_type": "single-audio", "trial_index": 126, "time_elapsed": 661003, "internal_node_id": "0.0-90.0"}}, {"uniqueid": "MTK0475:32N49TQG3HPGAIKA4XKM6UM83IWAVG", "current_trial": 127, "dateTime": 1510945519669, "trialdata": {"rt": -1000, "stimulus": "/static/audio/wordpool/RAZOR.wav", "key_press": -1, "type": "PRES_AUD", "word": "razor", "wordID": 1170, "conditions": [24, 1600, "a", 24000], "trial": 3, "serialpos": 10, "trial_type": "single-audio", "trial_index": 127, "time_elapsed": 663447, "internal_node_id": "0.0-91.0"}}, {"uniqueid": "MTK0475:32N49TQG3HPGAIKA4XKM6UM83IWAVG", "current_trial": 128, "dateTime": 1510945522388, "trialdata": {"rt": -1000, "stimulus": "/static/audio/wordpool/UNCLE.wav", "key_press": -1, "type": "PRES_AUD", "word": "uncle", "wordID": 1535, "conditions": [24, 1600, "a", 24000], "trial": 3, "serialpos": 11, "trial_type": "single-audio", "trial_index": 128, "time_elapsed": 666166, "internal_node_id": "0.0-92.0"}}, {"uniqueid": "MTK0475:32N49TQG3HPGAIKA4XKM6UM83IWAVG", "current_trial": 129, "dateTime": 1510945525058, "trialdata": {"rt": -1000, "stimulus": "/static/audio/wordpool/FOOT.wav", "key_press": -1, "type": "PRES_AUD", "word": "foot", "wordID": 589, "conditions": [24, 1600, "a", 24000], "trial": 3, "serialpos": 12, "trial_type": "single-audio", "trial_index": 129, "time_elapsed": 668836, "internal_node_id": "0.0-93.0"}}, {"uniqueid": "MTK0475:32N49TQG3HPGAIKA4XKM6UM83IWAVG", "current_trial": 130, "dateTime": 1510945527549, "trialdata": {"rt": -1000, "stimulus": "/static/audio/wordpool/CATCHER.wav", "key_press": -1, "type": "PRES_AUD", "word": "catcher", "wordID": 257, "conditions": [24, 1600, "a", 24000], "trial": 3, "serialpos": 13, "trial_type": "single-audio", "trial_index": 130, "time_elapsed": 671327, "internal_node_id": "0.0-94.0"}}, {"uniqueid": "MTK0475:32N49TQG3HPGAIKA4XKM6UM83IWAVG", "current_trial": 131, "dateTime": 1510945530320, "trialdata": {"rt": -1000, "stimulus": "/static/audio/wordpool/MUSTARD.wav", "key_press": -1, "type": "PRES_AUD", "word": "mustard", "wordID": 934, "conditions": [24, 1600, "a", 24000], "trial": 3, "serialpos": 14, "trial_type": "single-audio", "trial_index": 131, "time_elapsed": 674098, "internal_node_id": "0.0-95.0"}}, {"uniqueid": "MTK0475:32N49TQG3HPGAIKA4XKM6UM83IWAVG", "current_trial": 132, "dateTime": 1510945532912, "trialdata": {"rt": -1000, "stimulus": "/static/audio/wordpool/ZEBRA.wav", "key_press": -1, "type": "PRES_AUD", "word": "zebra", "wordID": 1634, "conditions": [24, 1600, "a", 24000], "trial": 3, "serialpos": 15, "trial_type": "single-audio", "trial_index": 132, "time_elapsed": 676690, "internal_node_id": "0.0-96.0"}}, {"uniqueid": "MTK0475:32N49TQG3HPGAIKA4XKM6UM83IWAVG", "current_trial": 133, "dateTime": 1510945535376, "trialdata": {"rt": -1000, "stimulus": "/static/audio/wordpool/BRANDY.wav", "key_press": -1, "type": "PRES_AUD", "word": "brandy", "wordID": 168, "conditions": [24, 1600, "a", 24000], "trial": 3, "serialpos": 16, "trial_type": "single-audio", "trial_index": 133, "time_elapsed": 679154, "internal_node_id": "0.0-97.0"}}, {"uniqueid": "MTK0475:32N49TQG3HPGAIKA4XKM6UM83IWAVG", "current_trial": 134, "dateTime": 1510945537948, "trialdata": {"rt": -1000, "stimulus": "/static/audio/wordpool/RIVER.wav", "key_press": -1, "type": "PRES_AUD", "word": "river", "wordID": 1193, "conditions": [24, 1600, "a", 24000], "trial": 3, "serialpos": 17, "trial_type": "single-audio", "trial_index": 134, "time_elapsed": 681726, "internal_node_id": "0.0-98.0"}}, {"uniqueid": "MTK0475:32N49TQG3HPGAIKA4XKM6UM83IWAVG", "current_trial": 135, "dateTime": 1510945540498, "trialdata": {"rt": -1000, "stimulus": "/static/audio/wordpool/CANAL.wav", "key_press": -1, "type": "PRES_AUD", "word": "canal", "wordID": 225, "conditions": [24, 1600, "a", 24000], "trial": 3, "serialpos": 18, "trial_type": "single-audio", "trial_index": 135, "time_elapsed": 684276, "internal_node_id": "0.0-99.0"}}, {"uniqueid": "MTK0475:32N49TQG3HPGAIKA4XKM6UM83IWAVG", "current_trial": 136, "dateTime": 1510945543280, "trialdata": {"rt": -1000, "stimulus": "/static/audio/wordpool/PRIMATE.wav", "key_press": -1, "type": "PRES_AUD", "word": "primate", "wordID": 1122, "conditions": [24, 1600, "a", 24000], "trial": 3, "serialpos": 19, "trial_type": "single-audio", "trial_index": 136, "time_elapsed": 687058, "internal_node_id": "0.0-100.0"}}, {"uniqueid": "MTK0475:32N49TQG3HPGAIKA4XKM6UM83IWAVG", "current_trial": 137, "dateTime": 1510945545903, "trialdata": {"rt": -1000, "stimulus": "/static/audio/wordpool/SCOTCH.wav", "key_press": -1, "type": "PRES_AUD", "word": "scotch", "wordID": 1250, "conditions": [24, 1600, "a", 24000], "trial": 3, "serialpos": 20, "trial_type": "single-audio", "trial_index": 137, "time_elapsed": 689681, "internal_node_id": "0.0-101.0"}}, {"uniqueid": "MTK0475:32N49TQG3HPGAIKA4XKM6UM83IWAVG", "current_trial": 138, "dateTime": 1510945548492, "trialdata": {"rt": -1000, "stimulus": "/static/audio/wordpool/LADY.wav", "key_press": -1, "type": "PRES_AUD", "word": "lady", "wordID": 793, "conditions": [24, 1600, "a", 24000], "trial": 3, "serialpos": 21, "trial_type": "single-audio", "trial_index": 138, "time_elapsed": 692269, "internal_node_id": "0.0-102.0"}}, {"uniqueid": "MTK0475:32N49TQG3HPGAIKA4XKM6UM83IWAVG", "current_trial": 139, "dateTime": 1510945551171, "trialdata": {"rt": -1000, "stimulus": "/static/audio/wordpool/ICEBERG.wav", "key_press": -1, "type": "PRES_AUD", "word": "iceberg", "wordID": 730, "conditions": [24, 1600, "a", 24000], "trial": 3, "serialpos": 22, "trial_type": "single-audio", "trial_index": 139, "time_elapsed": 694949, "internal_node_id": "0.0-103.0"}}, {"uniqueid": "MTK0475:32N49TQG3HPGAIKA4XKM6UM83IWAVG", "current_trial": 140, "dateTime": 1510945553799, "trialdata": {"rt": -1000, "stimulus": "/static/audio/wordpool/ISLAND.wav", "key_press": -1, "type": "PRES_AUD", "word": "island", "wordID": 744, "conditions": [24, 1600, "a", 24000], "trial": 3, "serialpos": 23, "trial_type": "single-audio", "trial_index": 140, "time_elapsed": 697577, "internal_node_id": "0.0-104.0"}}, {"uniqueid": "MTK0475:32N49TQG3HPGAIKA4XKM6UM83IWAVG", "current_trial": 141, "dateTime": 1510945555047, "trialdata": {"rt": -1, "stimulus": "", "key_press": -1, "type": "PRE_RECALL_DELAY", "trial_type": "single-stim", "trial_index": 141, "time_elapsed": 698825, "internal_node_id": "0.0-105.0-0.0"}}, {"uniqueid": "MTK0475:32N49TQG3HPGAIKA4XKM6UM83IWAVG", "current_trial": 142, "dateTime": 1510945555547, "trialdata": {"rt": -1000, "stimulus": "/static/audio/400Hz.wav", "key_press": -1, "type": "PRE_RECALL_ALERT", "trial_type": "single-audio", "trial_index": 142, "time_elapsed": 699325, "internal_node_id": "0.0-106.0"}}, {"uniqueid": "MTK0475:32N49TQG3HPGAIKA4XKM6UM83IWAVG", "current_trial": 143, "dateTime": 1510945615551, "trialdata": {"rt": [8644, 11503, 13604, 15879, 17873, 21770, 24369, 29733, 32407, 36480, 47325], "recwords": ["iceburg", "island", "lady", "canal", "river", "knife", "razor", "snack", "donut", "lady", "foot"], "type": "FREE_RECALL", "conditions": [24, 1600, "a", 24000], "trial": 3, "trial_type": "free-recall", "trial_index": 143, "time_elapsed": 759326, "internal_node_id": "0.0-107.0-0.0"}}, {"uniqueid": "MTK0475:32N49TQG3HPGAIKA4XKM6UM83IWAVG", "current_trial": 144, "dateTime": 1510945619293, "trialdata": {"rt": 1741, "key_press": 13, "type": "INSTRUCTIONS", "trial_type": "text", "trial_index": 144, "time_elapsed": 763070, "internal_node_id": "0.0-108.0"}}, {"uniqueid": "MTK0475:32N49TQG3HPGAIKA4XKM6UM83IWAVG", "current_trial": 145, "dateTime": 1510945633295, "trialdata": {"rt": [5182, 8112, 10369], "responses": ["15", "17", "12"], "num1": [4, 7, 9, 1], "num2": [4, 7, 1, 5], "num3": [7, 3, 2, 4], "type": "DISTRACTOR", "conditions": [24, 1600, "a", 12000], "trial": 4, "trial_type": "math-distractor", "trial_index": 145, "time_elapsed": 777073, "internal_node_id": "0.0-109.0"}}, {"uniqueid": "MTK0475:32N49TQG3HPGAIKA4XKM6UM83IWAVG", "current_trial": 146, "dateTime": 1510945636302, "trialdata": {"rt": -1, "stimulus": "<p id=\"stim\">10</p>", "key_press": -1, "trial_type": "single-stim", "trial_index": 146, "time_elapsed": 780074, "internal_node_id": "0.0-110.0-0.0"}}, {"uniqueid": "MTK0475:32N49TQG3HPGAIKA4XKM6UM83IWAVG", "current_trial": 147, "dateTime": 1510945637304, "trialdata": {"rt": -1, "stimulus": "<p id=\"stim\">9</p>", "key_press": -1, "trial_type": "single-stim", "trial_index": 147, "time_elapsed": 781082, "internal_node_id": "0.0-110.0-1.0"}}, {"uniqueid": "MTK0475:32N49TQG3HPGAIKA4XKM6UM83IWAVG", "current_trial": 148, "dateTime": 1510945638305, "trialdata": {"rt": -1, "stimulus": "<p id=\"stim\">8</p>", "key_press": -1, "trial_type": "single-stim", "trial_index": 148, "time_elapsed": 782083, "internal_node_id": "0.0-110.0-2.0"}}, {"uniqueid": "MTK0475:32N49TQG3HPGAIKA4XKM6UM83IWAVG", "current_trial": 149, "dateTime": 1510945639306, "trialdata": {"rt": -1, "stimulus": "<p id=\"stim\">7</p>", "key_press": -1, "trial_type": "single-stim", "trial_index": 149, "time_elapsed": 783084, "internal_node_id": "0.0-110.0-3.0"}}, {"uniqueid": "MTK0475:32N49TQG3HPGAIKA4XKM6UM83IWAVG", "current_trial": 150, "dateTime": 1510945640307, "trialdata": {"rt": -1, "stimulus": "<p id=\"stim\">6</p>", "key_press": -1, "trial_type": "single-stim", "trial_index": 150, "time_elapsed": 784085, "internal_node_id": "0.0-110.0-4.0"}}, {"uniqueid": "MTK0475:32N49TQG3HPGAIKA4XKM6UM83IWAVG", "current_trial": 151, "dateTime": 1510945641307, "trialdata": {"rt": -1, "stimulus": "<p id=\"stim\">5</p>", "key_press": -1, "trial_type": "single-stim", "trial_index": 151, "time_elapsed": 785085, "internal_node_id": "0.0-110.0-5.0"}}, {"uniqueid": "MTK0475:32N49TQG3HPGAIKA4XKM6UM83IWAVG", "current_trial": 152, "dateTime": 1510945642307, "trialdata": {"rt": -1, "stimulus": "<p id=\"stim\">4</p>", "key_press": -1, "trial_type": "single-stim", "trial_index": 152, "time_elapsed": 786085, "internal_node_id": "0.0-110.0-6.0"}}, {"uniqueid": "MTK0475:32N49TQG3HPGAIKA4XKM6UM83IWAVG", "current_trial": 153, "dateTime": 1510945643307, "trialdata": {"rt": -1, "stimulus": "<p id=\"stim\">3</p>", "key_press": -1, "trial_type": "single-stim", "trial_index": 153, "time_elapsed": 787085, "internal_node_id": "0.0-110.0-7.0"}}, {"uniqueid": "MTK0475:32N49TQG3HPGAIKA4XKM6UM83IWAVG", "current_trial": 154, "dateTime": 1510945644308, "trialdata": {"rt": -1, "stimulus": "<p id=\"stim\">2</p>", "key_press": -1, "trial_type": "single-stim", "trial_index": 154, "time_elapsed": 788086, "internal_node_id": "0.0-110.0-8.0"}}, {"uniqueid": "MTK0475:32N49TQG3HPGAIKA4XKM6UM83IWAVG", "current_trial": 155, "dateTime": 1510945645308, "trialdata": {"rt": -1, "stimulus": "<p id=\"stim\">1</p>", "key_press": -1, "trial_type": "single-stim", "trial_index": 155, "time_elapsed": 789086, "internal_node_id": "0.0-110.0-9.0"}}, {"uniqueid": "MTK0475:32N49TQG3HPGAIKA4XKM6UM83IWAVG", "current_trial": 156, "dateTime": 1510945646810, "trialdata": {"rt": -1, "stimulus": "<p id=\"stim\">+</p>", "key_press": -1, "type": "FIXATION", "trial_type": "single-stim", "trial_index": 156, "time_elapsed": 790587, "internal_node_id": "0.0-111.0-0.0"}}, {"uniqueid": "MTK0475:32N49TQG3HPGAIKA4XKM6UM83IWAVG", "current_trial": 157, "dateTime": 1510945649561, "trialdata": {"rt": -1000, "stimulus": "/static/audio/wordpool/BOUQUET.wav", "key_press": -1, "type": "PRES_AUD", "word": "bouquet", "wordID": 156, "conditions": [24, 1600, "a", 12000], "trial": 4, "serialpos": 0, "trial_type": "single-audio", "trial_index": 157, "time_elapsed": 793339, "internal_node_id": "0.0-112.0"}}, {"uniqueid": "MTK0475:32N49TQG3HPGAIKA4XKM6UM83IWAVG", "current_trial": 158, "dateTime": 1510945652237, "trialdata": {"rt": -1000, "stimulus": "/static/audio/wordpool/STONE.wav", "key_press": -1, "type": "PRES_AUD", "word": "stone", "wordID": 1384, "conditions": [24, 1600, "a", 12000], "trial": 4, "serialpos": 1, "trial_type": "single-audio", "trial_index": 158, "time_elapsed": 796015, "internal_node_id": "0.0-113.0"}}, {"uniqueid": "MTK0475:32N49TQG3HPGAIKA4XKM6UM83IWAVG", "current_trial": 159, "dateTime": 1510945654971, "trialdata": {"rt": -1000, "stimulus": "/static/audio/wordpool/MAILBOX.wav", "key_press": -1, "type": "PRES_AUD", "word": "mailbox", "wordID": 856, "conditions": [24, 1600, "a", 12000], "trial": 4, "serialpos": 2, "trial_type": "single-audio", "trial_index": 159, "time_elapsed": 798749, "internal_node_id": "0.0-114.0"}}, {"uniqueid": "MTK0475:32N49TQG3HPGAIKA4XKM6UM83IWAVG", "current_trial": 160, "dateTime": 1510945657460, "trialdata": {"rt": -1000, "stimulus": "/static/audio/wordpool/FREEZER.wav", "key_press": -1, "type": "PRES_AUD", "word": "freezer", "wordID": 603, "conditions": [24, 1600, "a", 12000], "trial": 4, "serialpos": 3, "trial_type": "single-audio", "trial_index": 160, "time_elapsed": 801238, "internal_node_id": "0.0-115.0"}}, {"uniqueid": "MTK0475:32N49TQG3HPGAIKA4XKM6UM83IWAVG", "current_trial": 161, "dateTime": 1510945659995, "trialdata": {"rt": -1000, "stimulus": "/static/audio/wordpool/WAITRESS.wav", "key_press": -1, "type": "PRES_AUD", "word": "waitress", "wordID": 1580, "conditions": [24, 1600, "a", 12000], "trial": 4, "serialpos": 4, "trial_type": "single-audio", "trial_index": 161, "time_elapsed": 803773, "internal_node_id": "0.0-116.0"}}, {"uniqueid": "MTK0475:32N49TQG3HPGAIKA4XKM6UM83IWAVG", "current_trial": 162, "dateTime": 1510945662752, "trialdata": {"rt": -1000, "stimulus": "/static/audio/wordpool/FIREMAN.wav", "key_press": -1, "type": "PRES_AUD", "word": "fireman", "wordID": 568, "conditions": [24, 1600, "a", 12000], "trial": 4, "serialpos": 5, "trial_type": "single-audio", "trial_index": 162, "time_elapsed": 806530, "internal_node_id": "0.0-117.0"}}, {"uniqueid": "MTK0475:32N49TQG3HPGAIKA4XKM6UM83IWAVG", "current_trial": 163, "dateTime": 1510945665276, "trialdata": {"rt": -1000, "stimulus": "/static/audio/wordpool/MOTEL.wav", "key_press": -1, "type": "PRES_AUD", "word": "motel", "wordID": 918, "conditions": [24, 1600, "a", 12000], "trial": 4, "serialpos": 6, "trial_type": "single-audio", "trial_index": 163, "time_elapsed": 809054, "internal_node_id": "0.0-118.0"}}, {"uniqueid": "MTK0475:32N49TQG3HPGAIKA4XKM6UM83IWAVG", "current_trial": 164, "dateTime": 1510945667745, "trialdata": {"rt": -1000, "stimulus": "/static/audio/wordpool/PICTURE.wav", "key_press": -1, "type": "PRES_AUD", "word": "picture", "wordID": 1060, "conditions": [24, 1600, "a", 12000], "trial": 4, "serialpos": 7, "trial_type": "single-audio", "trial_index": 164, "time_elapsed": 811522, "internal_node_id": "0.0-119.0"}}, {"uniqueid": "MTK0475:32N49TQG3HPGAIKA4XKM6UM83IWAVG", "current_trial": 165, "dateTime": 1510945670169, "trialdata": {"rt": -1000, "stimulus": "/static/audio/wordpool/MOTOR.wav", "key_press": -1, "type": "PRES_AUD", "word": "motor", "wordID": 921, "conditions": [24, 1600, "a", 12000], "trial": 4, "serialpos": 8, "trial_type": "single-audio", "trial_index": 165, "time_elapsed": 813947, "internal_node_id": "0.0-120.0"}}, {"uniqueid": "MTK0475:32N49TQG3HPGAIKA4XKM6UM83IWAVG", "current_trial": 166, "dateTime": 1510945672681, "trialdata": {"rt": -1000, "stimulus": "/static/audio/wordpool/BABY.wav", "key_press": -1, "type": "PRES_AUD", "word": "baby", "wordID": 63, "conditions": [24, 1600, "a", 12000], "trial": 4, "serialpos": 9, "trial_type": "single-audio", "trial_index": 166, "time_elapsed": 816459, "internal_node_id": "0.0-121.0"}}, {"uniqueid": "MTK0475:32N49TQG3HPGAIKA4XKM6UM83IWAVG", "current_trial": 167, "dateTime": 1510945675465, "trialdata": {"rt": -1000, "stimulus": "/static/audio/wordpool/PUPPY.wav", "key_press": -1, "type": "PRES_AUD", "word": "puppy", "wordID": 1143, "conditions": [24, 1600, "a", 12000], "trial": 4, "serialpos": 10, "trial_type": "single-audio", "trial_index": 167, "time_elapsed": 819242, "internal_node_id": "0.0-122.0"}}, {"uniqueid": "MTK0475:32N49TQG3HPGAIKA4XKM6UM83IWAVG", "current_trial": 168, "dateTime": 1510945678223, "trialdata": {"rt": -1000, "stimulus": "/static/audio/wordpool/BRICK.wav", "key_press": -1, "type": "PRES_AUD", "word": "brick", "wordID": 171, "conditions": [24, 1600, "a", 12000], "trial": 4, "serialpos": 11, "trial_type": "single-audio", "trial_index": 168, "time_elapsed": 822000, "internal_node_id": "0.0-123.0"}}, {"uniqueid": "MTK0475:32N49TQG3HPGAIKA4XKM6UM83IWAVG", "current_trial": 169, "dateTime": 1510945680787, "trialdata": {"rt": -1000, "stimulus": "/static/audio/wordpool/DASHBOARD.wav", "key_press": -1, "type": "PRES_AUD", "word": "dashboard", "wordID": 440, "conditions": [24, 1600, "a", 12000], "trial": 4, "serialpos": 12, "trial_type": "single-audio", "trial_index": 169, "time_elapsed": 824564, "internal_node_id": "0.0-124.0"}}, {"uniqueid": "MTK0475:32N49TQG3HPGAIKA4XKM6UM83IWAVG", "current_trial": 170, "dateTime": 1510945683575, "trialdata": {"rt": -1000, "stimulus": "/static/audio/wordpool/TREAT.wav", "key_press": -1, "type": "PRES_AUD", "word": "treat", "wordID": 1500, "conditions": [24, 1600, "a", 12000], "trial": 4, "serialpos": 13, "trial_type": "single-audio", "trial_index": 170, "time_elapsed": 827353, "internal_node_id": "0.0-125.0"}}, {"uniqueid": "MTK0475:32N49TQG3HPGAIKA4XKM6UM83IWAVG", "current_trial": 171, "dateTime": 1510945686193, "trialdata": {"rt": -1000, "stimulus": "/static/audio/wordpool/JELLY.wav", "key_press": -1, "type": "PRES_AUD", "word": "jelly", "wordID": 754, "conditions": [24, 1600, "a", 12000], "trial": 4, "serialpos": 14, "trial_type": "single-audio", "trial_index": 171, "time_elapsed": 829971, "internal_node_id": "0.0-126.0"}}, {"uniqueid": "MTK0475:32N49TQG3HPGAIKA4XKM6UM83IWAVG", "current_trial": 172, "dateTime": 1510945688800, "trialdata": {"rt": -1000, "stimulus": "/static/audio/wordpool/BUTCHER.wav", "key_press": -1, "type": "PRES_AUD", "word": "butcher", "wordID": 202, "conditions": [24, 1600, "a", 12000], "trial": 4, "serialpos": 15, "trial_type": "single-audio", "trial_index": 172, "time_elapsed": 832578, "internal_node_id": "0.0-127.0"}}, {"uniqueid": "MTK0475:32N49TQG3HPGAIKA4XKM6UM83IWAVG", "current_trial": 173, "dateTime": 1510945691348, "trialdata": {"rt": -1000, "stimulus": "/static/audio/wordpool/DRESS.wav", "key_press": -1, "type": "PRES_AUD", "word": "dress", "wordID": 494, "conditions": [24, 1600, "a", 12000], "trial": 4, "serialpos": 16, "trial_type": "single-audio", "trial_index": 173, "time_elapsed": 835126, "internal_node_id": "0.0-128.0"}}, {"uniqueid": "MTK0475:32N49TQG3HPGAIKA4XKM6UM83IWAVG", "current_trial": 174, "dateTime": 1510945693874, "trialdata": {"rt": -1000, "stimulus": "/static/audio/wordpool/CRIB.wav", "key_press": -1, "type": "PRES_AUD", "word": "crib", "wordID": 406, "conditions": [24, 1600, "a", 12000], "trial": 4, "serialpos": 17, "trial_type": "single-audio", "trial_index": 174, "time_elapsed": 837652, "internal_node_id": "0.0-129.0"}}, {"uniqueid": "MTK0475:32N49TQG3HPGAIKA4XKM6UM83IWAVG", "current_trial": 175, "dateTime": 1510945696323, "trialdata": {"rt": -1000, "stimulus": "/static/audio/wordpool/SLIDE.wav", "key_press": -1, "type": "PRES_AUD", "word": "slide", "wordID": 1325, "conditions": [24, 1600, "a", 12000], "trial": 4, "serialpos": 18, "trial_type": "single-audio", "trial_index": 175, "time_elapsed": 840101, "internal_node_id": "0.0-130.0"}}, {"uniqueid": "MTK0475:32N49TQG3HPGAIKA4XKM6UM83IWAVG", "current_trial": 176, "dateTime": 1510945699039, "trialdata": {"rt": -1000, "stimulus": "/static/audio/wordpool/SHORTCAKE.wav", "key_press": -1, "type": "PRES_AUD", "word": "shortcake", "wordID": 1291, "conditions": [24, 1600, "a", 12000], "trial": 4, "serialpos": 19, "trial_type": "single-audio", "trial_index": 176, "time_elapsed": 842817, "internal_node_id": "0.0-131.0"}}, {"uniqueid": "MTK0475:32N49TQG3HPGAIKA4XKM6UM83IWAVG", "current_trial": 177, "dateTime": 1510945701606, "trialdata": {"rt": -1000, "stimulus": "/static/audio/wordpool/MUFFIN.wav", "key_press": -1, "type": "PRES_AUD", "word": "muffin", "wordID": 928, "conditions": [24, 1600, "a", 12000], "trial": 4, "serialpos": 20, "trial_type": "single-audio", "trial_index": 177, "time_elapsed": 845384, "internal_node_id": "0.0-132.0"}}, {"uniqueid": "MTK0475:32N49TQG3HPGAIKA4XKM6UM83IWAVG", "current_trial": 178, "dateTime": 1510945704088, "trialdata": {"rt": -1000, "stimulus": "/static/audio/wordpool/OMELET.wav", "key_press": -1, "type": "PRES_AUD", "word": "omelet", "wordID": 975, "conditions": [24, 1600, "a", 12000], "trial": 4, "serialpos": 21, "trial_type": "single-audio", "trial_index": 178, "time_elapsed": 847866, "internal_node_id": "0.0-133.0"}}, {"uniqueid": "MTK0475:32N49TQG3HPGAIKA4XKM6UM83IWAVG", "current_trial": 179, "dateTime": 1510945706741, "trialdata": {"rt": -1000, "stimulus": "/static/audio/wordpool/LILY.wav", "key_press": -1, "type": "PRES_AUD", "word": "lily", "wordID": 820, "conditions": [24, 1600, "a", 12000], "trial": 4, "serialpos": 22, "trial_type": "single-audio", "trial_index": 179, "time_elapsed": 850519, "internal_node_id": "0.0-134.0"}}, {"uniqueid": "MTK0475:32N49TQG3HPGAIKA4XKM6UM83IWAVG", "current_trial": 180, "dateTime": 1510945709508, "trialdata": {"rt": -1000, "stimulus": "/static/audio/wordpool/TUTU.wav", "key_press": -1, "type": "PRES_AUD", "word": "tutu", "wordID": 1523, "conditions": [24, 1600, "a", 12000], "trial": 4, "serialpos": 23, "trial_type": "single-audio", "trial_index": 180, "time_elapsed": 853286, "internal_node_id": "0.0-135.0"}}, {"uniqueid": "MTK0475:32N49TQG3HPGAIKA4XKM6UM83IWAVG", "current_trial": 181, "dateTime": 1510945710881, "trialdata": {"rt": -1, "stimulus": "", "key_press": -1, "type": "PRE_RECALL_DELAY", "trial_type": "single-stim", "trial_index": 181, "time_elapsed": 854658, "internal_node_id": "0.0-136.0-0.0"}}, {"uniqueid": "MTK0475:32N49TQG3HPGAIKA4XKM6UM83IWAVG", "current_trial": 182, "dateTime": 1510945711382, "trialdata": {"rt": -1000, "stimulus": "/static/audio/400Hz.wav", "key_press": -1, "type": "PRE_RECALL_ALERT", "trial_type": "single-audio", "trial_index": 182, "time_elapsed": 855160, "internal_node_id": "0.0-137.0"}}, {"uniqueid": "MTK0475:32N49TQG3HPGAIKA4XKM6UM83IWAVG", "current_trial": 183, "dateTime": 1510945771387, "trialdata": {"rt": [4624, 7937, 9913, 11685, 19025, 22860, 26464, 30700, 35509, 38058, 40845], "recwords": ["muffin", "omlet", "lilly", "tutu", "jelly", "treat", "waitress", "fireman", "baby", "crib", "puppy"], "type": "FREE_RECALL", "conditions": [24, 1600, "a", 12000], "trial": 4, "trial_type": "free-recall", "trial_index": 183, "time_elapsed": 915162, "internal_node_id": "0.0-138.0-0.0"}}, {"uniqueid": "MTK0475:32N49TQG3HPGAIKA4XKM6UM83IWAVG", "current_trial": 184, "dateTime": 1510945786423, "trialdata": {"rt": 13036, "key_press": 13, "type": "INSTRUCTIONS", "trial_type": "text", "trial_index": 184, "time_elapsed": 930201, "internal_node_id": "0.0-139.0"}}, {"uniqueid": "MTK0475:32N49TQG3HPGAIKA4XKM6UM83IWAVG", "current_trial": 185, "dateTime": 1510945800426, "trialdata": {"rt": [2852, 6508, 10130], "responses": ["11", "11", "14"], "num1": [2, 3, 3, 5], "num2": [8, 3, 3, 2], "num3": [1, 5, 8, 5], "type": "DISTRACTOR", "conditions": [12, 800, "v", 12000], "trial": 5, "trial_type": "math-distractor", "trial_index": 185, "time_elapsed": 944204, "internal_node_id": "0.0-140.0"}}, {"uniqueid": "MTK0475:32N49TQG3HPGAIKA4XKM6UM83IWAVG", "current_trial": 186, "dateTime": 1510945803426, "trialdata": {"rt": -1, "stimulus": "<p id=\"stim\">10</p>", "key_press": -1, "trial_type": "single-stim", "trial_index": 186, "time_elapsed": 947204, "internal_node_id": "0.0-141.0-0.0"}}, {"uniqueid": "MTK0475:32N49TQG3HPGAIKA4XKM6UM83IWAVG", "current_trial": 187, "dateTime": 1510945804427, "trialdata": {"rt": -1, "stimulus": "<p id=\"stim\">9</p>", "key_press": -1, "trial_type": "single-stim", "trial_index": 187, "time_elapsed": 948205, "internal_node_id": "0.0-141.0-1.0"}}, {"uniqueid": "MTK0475:32N49TQG3HPGAIKA4XKM6UM83IWAVG", "current_trial": 188, "dateTime": 1510945805427, "trialdata": {"rt": -1, "stimulus": "<p id=\"stim\">8</p>", "key_press": -1, "trial_type": "single-stim", "trial_index": 188, "time_elapsed": 949205, "internal_node_id": "0.0-141.0-2.0"}}, {"uniqueid": "MTK0475:32N49TQG3HPGAIKA4XKM6UM83IWAVG", "current_trial": 189, "dateTime": 1510945806427, "trialdata": {"rt": -1, "stimulus": "<p id=\"stim\">7</p>", "key_press": -1, "trial_type": "single-stim", "trial_index": 189, "time_elapsed": 950205, "internal_node_id": "0.0-141.0-3.0"}}, {"uniqueid": "MTK0475:32N49TQG3HPGAIKA4XKM6UM83IWAVG", "current_trial": 190, "dateTime": 1510945807428, "trialdata": {"rt": -1, "stimulus": "<p id=\"stim\">6</p>", "key_press": -1, "trial_type": "single-stim", "trial_index": 190, "time_elapsed": 951206, "internal_node_id": "0.0-141.0-4.0"}}, {"uniqueid": "MTK0475:32N49TQG3HPGAIKA4XKM6UM83IWAVG", "current_trial": 191, "dateTime": 1510945808429, "trialdata": {"rt": -1, "stimulus": "<p id=\"stim\">5</p>", "key_press": -1, "trial_type": "single-stim", "trial_index": 191, "time_elapsed": 952207, "internal_node_id": "0.0-141.0-5.0"}}, {"uniqueid": "MTK0475:32N49TQG3HPGAIKA4XKM6UM83IWAVG", "current_trial": 192, "dateTime": 1510945809430, "trialdata": {"rt": -1, "stimulus": "<p id=\"stim\">4</p>", "key_press": -1, "trial_type": "single-stim", "trial_index": 192, "time_elapsed": 953208, "internal_node_id": "0.0-141.0-6.0"}}, {"uniqueid": "MTK0475:32N49TQG3HPGAIKA4XKM6UM83IWAVG", "current_trial": 193, "dateTime": 1510945810430, "trialdata": {"rt": -1, "stimulus": "<p id=\"stim\">3</p>", "key_press": -1, "trial_type": "single-stim", "trial_index": 193, "time_elapsed": 954208, "internal_node_id": "0.0-141.0-7.0"}}, {"uniqueid": "MTK0475:32N49TQG3HPGAIKA4XKM6UM83IWAVG", "current_trial": 194, "dateTime": 1510945811431, "trialdata": {"rt": -1, "stimulus": "<p id=\"stim\">2</p>", "key_press": -1, "trial_type": "single-stim", "trial_index": 194, "time_elapsed": 955209, "internal_node_id": "0.0-141.0-8.0"}}, {"uniqueid": "MTK0475:32N49TQG3HPGAIKA4XKM6UM83IWAVG", "current_trial": 195, "dateTime": 1510945812431, "trialdata": {"rt": -1, "stimulus": "<p id=\"stim\">1</p>", "key_press": -1, "trial_type": "single-stim", "trial_index": 195, "time_elapsed": 956209, "internal_node_id": "0.0-141.0-9.0"}}, {"uniqueid": "MTK0475:32N49TQG3HPGAIKA4XKM6UM83IWAVG", "current_trial": 196, "dateTime": 1510945813931, "trialdata": {"rt": -1, "stimulus": "<p id=\"stim\">+</p>", "key_press": -1, "type": "FIXATION", "trial_type": "single-stim", "trial_index": 196, "time_elapsed": 957709, "internal_node_id": "0.0-142.0-0.0"}}, {"uniqueid": "MTK0475:32N49TQG3HPGAIKA4XKM6UM83IWAVG", "current_trial": 197, "dateTime": 1510945814732, "trialdata": {"rt": -1, "stimulus": "<p id=\"stim\">ACTRESS</p>", "key_press": -1, "type": "PRES_VIS", "word": "actress", "wordID": 5, "conditions": [12, 800, "v", 12000], "trial": 5, "serialpos": 0, "trial_type": "single-stim", "trial_index": 197, "time_elapsed": 958510, "internal_node_id": "0.0-143.0"}}, {"uniqueid": "MTK0475:32N49TQG3HPGAIKA4XKM6UM83IWAVG", "current_trial": 198, "dateTime": 1510945816498, "trialdata": {"rt": -1, "stimulus": "<p id=\"stim\">GIRL</p>", "key_press": -1, "type": "PRES_VIS", "word": "girl", "wordID": 636, "conditions": [12, 800, "v", 12000], "trial": 5, "serialpos": 1, "trial_type": "single-stim", "trial_index": 198, "time_elapsed": 960276, "internal_node_id": "0.0-144.0"}}, {"uniqueid": "MTK0475:32N49TQG3HPGAIKA4XKM6UM83IWAVG", "current_trial": 199, "dateTime": 1510945818490, "trialdata": {"rt": -1, "stimulus": "<p id=\"stim\">MAMMAL</p>", "key_press": -1, "type": "PRES_VIS", "word": "mammal", "wordID": 860, "conditions": [12, 800, "v", 12000], "trial": 5, "serialpos": 2, "trial_type": "single-stim", "trial_index": 199, "time_elapsed": 962267, "internal_node_id": "0.0-145.0"}}, {"uniqueid": "MTK0475:32N49TQG3HPGAIKA4XKM6UM83IWAVG", "current_trial": 200, "dateTime": 1510945820377, "trialdata": {"rt": -1, "stimulus": "<p id=\"stim\">LEG</p>", "key_press": -1, "type": "PRES_VIS", "word": "leg", "wordID": 808, "conditions": [12, 800, "v", 12000], "trial": 5, "serialpos": 3, "trial_type": "single-stim", "trial_index": 200, "time_elapsed": 964155, "internal_node_id": "0.0-146.0"}}, {"uniqueid": "MTK0475:32N49TQG3HPGAIKA4XKM6UM83IWAVG", "current_trial": 201, "dateTime": 1510945822232, "trialdata": {"rt": -1, "stimulus": "<p id=\"stim\">WRIST</p>", "key_press": -1, "type": "PRES_VIS", "word": "wrist", "wordID": 1625, "conditions": [12, 800, "v", 12000], "trial": 5, "serialpos": 4, "trial_type": "single-stim", "trial_index": 201, "time_elapsed": 966010, "internal_node_id": "0.0-147.0"}}, {"uniqueid": "MTK0475:32N49TQG3HPGAIKA4XKM6UM83IWAVG", "current_trial": 202, "dateTime": 1510945823950, "trialdata": {"rt": -1, "stimulus": "<p id=\"stim\">REPORT</p>", "key_press": -1, "type": "PRES_VIS", "word": "report", "wordID": 1183, "conditions": [12, 800, "v", 12000], "trial": 5, "serialpos": 5, "trial_type": "single-stim", "trial_index": 202, "time_elapsed": 967728, "internal_node_id": "0.0-148.0"}}, {"uniqueid": "MTK0475:32N49TQG3HPGAIKA4XKM6UM83IWAVG", "current_trial": 203, "dateTime": 1510945825836, "trialdata": {"rt": -1, "stimulus": "<p id=\"stim\">SURVEY</p>", "key_press": -1, "type": "PRES_VIS", "word": "survey", "wordID": 1413, "conditions": [12, 800, "v", 12000], "trial": 5, "serialpos": 6, "trial_type": "single-stim", "trial_index": 203, "time_elapsed": 969613, "internal_node_id": "0.0-149.0"}}, {"uniqueid": "MTK0475:32N49TQG3HPGAIKA4XKM6UM83IWAVG", "current_trial": 204, "dateTime": 1510945827828, "trialdata": {"rt": -1, "stimulus": "<p id=\"stim\">ANKLE</p>", "key_press": -1, "type": "PRES_VIS", "word": "ankle", "wordID": 23, "conditions": [12, 800, "v", 12000], "trial": 5, "serialpos": 7, "trial_type": "single-stim", "trial_index": 204, "time_elapsed": 971605, "internal_node_id": "0.0-150.0"}}, {"uniqueid": "MTK0475:32N49TQG3HPGAIKA4XKM6UM83IWAVG", "current_trial": 205, "dateTime": 1510945829659, "trialdata": {"rt": -1, "stimulus": "<p id=\"stim\">CLOCK</p>", "key_press": -1, "type": "PRES_VIS", "word": "clock", "wordID": 324, "conditions": [12, 800, "v", 12000], "trial": 5, "serialpos": 8, "trial_type": "single-stim", "trial_index": 205, "time_elapsed": 973437, "internal_node_id": "0.0-151.0"}}, {"uniqueid": "MTK0475:32N49TQG3HPGAIKA4XKM6UM83IWAVG", "current_trial": 206, "dateTime": 1510945831398, "trialdata": {"rt": -1, "stimulus": "<p id=\"stim\">WIFE</p>", "key_press": -1, "type": "PRES_VIS", "word": "wife", "wordID": 1608, "conditions": [12, 800, "v", 12000], "trial": 5, "serialpos": 9, "trial_type": "single-stim", "trial_index": 206, "time_elapsed": 975176, "internal_node_id": "0.0-152.0"}}, {"uniqueid": "MTK0475:32N49TQG3HPGAIKA4XKM6UM83IWAVG", "current_trial": 207, "dateTime": 1510945833293, "trialdata": {"rt": -1, "stimulus": "<p id=\"stim\">DIVER</p>", "key_press": -1, "type": "PRES_VIS", "word": "diver", "wordID": 475, "conditions": [12, 800, "v", 12000], "trial": 5, "serialpos": 10, "trial_type": "single-stim", "trial_index": 207, "time_elapsed": 977071, "internal_node_id": "0.0-153.0"}}, {"uniqueid": "MTK0475:32N49TQG3HPGAIKA4XKM6UM83IWAVG", "current_trial": 208, "dateTime": 1510945835202, "trialdata": {"rt": -1, "stimulus": "<p id=\"stim\">JUNGLE</p>", "key_press": -1, "type": "PRES_VIS", "word": "jungle", "wordID": 763, "conditions": [12, 800, "v", 12000], "trial": 5, "serialpos": 11, "trial_type": "single-stim", "trial_index": 208, "time_elapsed": 978980, "internal_node_id": "0.0-154.0"}}, {"uniqueid": "MTK0475:32N49TQG3HPGAIKA4XKM6UM83IWAVG", "current_trial": 209, "dateTime": 1510945837499, "trialdata": {"rt": -1, "stimulus": "", "key_press": -1, "type": "PRE_RECALL_DELAY", "trial_type": "single-stim", "trial_index": 209, "time_elapsed": 981276, "internal_node_id": "0.0-155.0-0.0"}}, {"uniqueid": "MTK0475:32N49TQG3HPGAIKA4XKM6UM83IWAVG", "current_trial": 210, "dateTime": 1510945838000, "trialdata": {"rt": -1000, "stimulus": "/static/audio/400Hz.wav", "key_press": -1, "type": "PRE_RECALL_ALERT", "trial_type": "single-audio", "trial_index": 210, "time_elapsed": 981778, "internal_node_id": "0.0-156.0"}}, {"uniqueid": "MTK0475:32N49TQG3HPGAIKA4XKM6UM83IWAVG", "current_trial": 211, "dateTime": 1510945898008, "trialdata": {"rt": [5004, 6892, 8917, 11033, 13707, 20702], "recwords": ["actress", "girl", "leg", "wrist", "ankle", "survey"], "type": "FREE_RECALL", "conditions": [12, 800, "v", 12000], "trial": 5, "trial_type": "free-recall", "trial_index": 211, "time_elapsed": 1041783, "internal_node_id": "0.0-157.0-0.0"}}, {"uniqueid": "MTK0475:32N49TQG3HPGAIKA4XKM6UM83IWAVG", "current_trial": 212, "dateTime": 1510945901374, "trialdata": {"rt": 1364, "key_press": 13, "type": "INSTRUCTIONS", "trial_type": "text", "trial_index": 212, "time_elapsed": 1045152, "internal_node_id": "0.0-158.0"}}, {"uniqueid": "MTK0475:32N49TQG3HPGAIKA4XKM6UM83IWAVG", "current_trial": 213, "dateTime": 1510945915377, "trialdata": {"rt": [4617, 7711, 9726, 11931], "responses": ["22", "13", "18", "7"], "num1": [5, 2, 6, 1, 5], "num2": [9, 4, 4, 1, 6], "num3": [8, 7, 8, 5, 9], "type": "DISTRACTOR", "conditions": [12, 1600, "a", 12000], "trial": 6, "trial_type": "math-distractor", "trial_index": 213, "time_elapsed": 1059155, "internal_node_id": "0.0-159.0"}}, {"uniqueid": "MTK0475:32N49TQG3HPGAIKA4XKM6UM83IWAVG", "current_trial": 214, "dateTime": 1510945918377, "trialdata": {"rt": -1, "stimulus": "<p id=\"stim\">10</p>", "key_press": -1, "trial_type": "single-stim", "trial_index": 214, "time_elapsed": 1062155, "internal_node_id": "0.0-160.0-0.0"}}, {"uniqueid": "MTK0475:32N49TQG3HPGAIKA4XKM6UM83IWAVG", "current_trial": 215, "dateTime": 1510945919378, "trialdata": {"rt": -1, "stimulus": "<p id=\"stim\">9</p>", "key_press": -1, "trial_type": "single-stim", "trial_index": 215, "time_elapsed": 1063156, "internal_node_id": "0.0-160.0-1.0"}}, {"uniqueid": "MTK0475:32N49TQG3HPGAIKA4XKM6UM83IWAVG", "current_trial": 216, "dateTime": 1510945920379, "trialdata": {"rt": -1, "stimulus": "<p id=\"stim\">8</p>", "key_press": -1, "trial_type": "single-stim", "trial_index": 216, "time_elapsed": 1064157, "internal_node_id": "0.0-160.0-2.0"}}, {"uniqueid": "MTK0475:32N49TQG3HPGAIKA4XKM6UM83IWAVG", "current_trial": 217, "dateTime": 1510945921381, "trialdata": {"rt": -1, "stimulus": "<p id=\"stim\">7</p>", "key_press": -1, "trial_type": "single-stim", "trial_index": 217, "time_elapsed": 1065158, "internal_node_id": "0.0-160.0-3.0"}}, {"uniqueid": "MTK0475:32N49TQG3HPGAIKA4XKM6UM83IWAVG", "current_trial": 218, "dateTime": 1510945922381, "trialdata": {"rt": -1, "stimulus": "<p id=\"stim\">6</p>", "key_press": -1, "trial_type": "single-stim", "trial_index": 218, "time_elapsed": 1066159, "internal_node_id": "0.0-160.0-4.0"}}, {"uniqueid": "MTK0475:32N49TQG3HPGAIKA4XKM6UM83IWAVG", "current_trial": 219, "dateTime": 1510945923382, "trialdata": {"rt": -1, "stimulus": "<p id=\"stim\">5</p>", "key_press": -1, "trial_type": "single-stim", "trial_index": 219, "time_elapsed": 1067160, "internal_node_id": "0.0-160.0-5.0"}}, {"uniqueid": "MTK0475:32N49TQG3HPGAIKA4XKM6UM83IWAVG", "current_trial": 220, "dateTime": 1510945924383, "trialdata": {"rt": -1, "stimulus": "<p id=\"stim\">4</p>", "key_press": -1, "trial_type": "single-stim", "trial_index": 220, "time_elapsed": 1068161, "internal_node_id": "0.0-160.0-6.0"}}, {"uniqueid": "MTK0475:32N49TQG3HPGAIKA4XKM6UM83IWAVG", "current_trial": 221, "dateTime": 1510945925383, "trialdata": {"rt": -1, "stimulus": "<p id=\"stim\">3</p>", "key_press": -1, "trial_type": "single-stim", "trial_index": 221, "time_elapsed": 1069161, "internal_node_id": "0.0-160.0-7.0"}}, {"uniqueid": "MTK0475:32N49TQG3HPGAIKA4XKM6UM83IWAVG", "current_trial": 222, "dateTime": 1510945926383, "trialdata": {"rt": -1, "stimulus": "<p id=\"stim\">2</p>", "key_press": -1, "trial_type": "single-stim", "trial_index": 222, "time_elapsed": 1070161, "internal_node_id": "0.0-160.0-8.0"}}, {"uniqueid": "MTK0475:32N49TQG3HPGAIKA4XKM6UM83IWAVG", "current_trial": 223, "dateTime": 1510945927384, "trialdata": {"rt": -1, "stimulus": "<p id=\"stim\">1</p>", "key_press": -1, "trial_type": "single-stim", "trial_index": 223, "time_elapsed": 1071162, "internal_node_id": "0.0-160.0-9.0"}}, {"uniqueid": "MTK0475:32N49TQG3HPGAIKA4XKM6UM83IWAVG", "current_trial": 224, "dateTime": 1510945928886, "trialdata": {"rt": -1, "stimulus": "<p id=\"stim\">+</p>", "key_press": -1, "type": "FIXATION", "trial_type": "single-stim", "trial_index": 224, "time_elapsed": 1072663, "internal_node_id": "0.0-161.0-0.0"}}, {"uniqueid": "MTK0475:32N49TQG3HPGAIKA4XKM6UM83IWAVG", "current_trial": 225, "dateTime": 1510945931359, "trialdata": {"rt": -1000, "stimulus": "/static/audio/wordpool/LUGGAGE.wav", "key_press": -1, "type": "PRES_AUD", "word": "luggage", "wordID": 846, "conditions": [12, 1600, "a", 12000], "trial": 6, "serialpos": 0, "trial_type": "single-audio", "trial_index": 225, "time_elapsed": 1075137, "internal_node_id": "0.0-162.0"}}, {"uniqueid": "MTK0475:32N49TQG3HPGAIKA4XKM6UM83IWAVG", "current_trial": 226, "dateTime": 1510945934086, "trialdata": {"rt": -1000, "stimulus": "/static/audio/wordpool/SUITCASE.wav", "key_press": -1, "type": "PRES_AUD", "word": "suitcase", "wordID": 1402, "conditions": [12, 1600, "a", 12000], "trial": 6, "serialpos": 1, "trial_type": "single-audio", "trial_index": 226, "time_elapsed": 1077863, "internal_node_id": "0.0-163.0"}}, {"uniqueid": "MTK0475:32N49TQG3HPGAIKA4XKM6UM83IWAVG", "current_trial": 227, "dateTime": 1510945936742, "trialdata": {"rt": -1000, "stimulus": "/static/audio/wordpool/CABBAGE.wav", "key_press": -1, "type": "PRES_AUD", "word": "cabbage", "wordID": 209, "conditions": [12, 1600, "a", 12000], "trial": 6, "serialpos": 2, "trial_type": "single-audio", "trial_index": 227, "time_elapsed": 1080519, "internal_node_id": "0.0-164.0"}}, {"uniqueid": "MTK0475:32N49TQG3HPGAIKA4XKM6UM83IWAVG", "current_trial": 228, "dateTime": 1510945939538, "trialdata": {"rt": -1000, "stimulus": "/static/audio/wordpool/GOBLIN.wav", "key_press": -1, "type": "PRES_AUD", "word": "goblin", "wordID": 644, "conditions": [12, 1600, "a", 12000], "trial": 6, "serialpos": 3, "trial_type": "single-audio", "trial_index": 228, "time_elapsed": 1083316, "internal_node_id": "0.0-165.0"}}, {"uniqueid": "MTK0475:32N49TQG3HPGAIKA4XKM6UM83IWAVG", "current_trial": 229, "dateTime": 1510945941990, "trialdata": {"rt": -1000, "stimulus": "/static/audio/wordpool/BEAST.wav", "key_press": -1, "type": "PRES_AUD", "word": "beast", "wordID": 107, "conditions": [12, 1600, "a", 12000], "trial": 6, "serialpos": 4, "trial_type": "single-audio", "trial_index": 229, "time_elapsed": 1085768, "internal_node_id": "0.0-166.0"}}, {"uniqueid": "MTK0475:32N49TQG3HPGAIKA4XKM6UM83IWAVG", "current_trial": 230, "dateTime": 1510945944590, "trialdata": {"rt": -1000, "stimulus": "/static/audio/wordpool/POCKET.wav", "key_press": -1, "type": "PRES_AUD", "word": "pocket", "wordID": 1092, "conditions": [12, 1600, "a", 12000], "trial": 6, "serialpos": 5, "trial_type": "single-audio", "trial_index": 230, "time_elapsed": 1088368, "internal_node_id": "0.0-167.0"}}, {"uniqueid": "MTK0475:32N49TQG3HPGAIKA4XKM6UM83IWAVG", "current_trial": 231, "dateTime": 1510945947027, "trialdata": {"rt": -1000, "stimulus": "/static/audio/wordpool/PLAID.wav", "key_press": -1, "type": "PRES_AUD", "word": "plaid", "wordID": 1079, "conditions": [12, 1600, "a", 12000], "trial": 6, "serialpos": 6, "trial_type": "single-audio", "trial_index": 231, "time_elapsed": 1090805, "internal_node_id": "0.0-168.0"}}, {"uniqueid": "MTK0475:32N49TQG3HPGAIKA4XKM6UM83IWAVG", "current_trial": 232, "dateTime": 1510945949704, "trialdata": {"rt": -1000, "stimulus": "/static/audio/wordpool/HAWK.wav", "key_press": -1, "type": "PRES_AUD", "word": "hawk", "wordID": 691, "conditions": [12, 1600, "a", 12000], "trial": 6, "serialpos": 7, "trial_type": "single-audio", "trial_index": 232, "time_elapsed": 1093482, "internal_node_id": "0.0-169.0"}}, {"uniqueid": "MTK0475:32N49TQG3HPGAIKA4XKM6UM83IWAVG", "current_trial": 233, "dateTime": 1510945952266, "trialdata": {"rt": -1000, "stimulus": "/static/audio/wordpool/THREAD.wav", "key_press": -1, "type": "PRES_AUD", "word": "thread", "wordID": 1459, "conditions": [12, 1600, "a", 12000], "trial": 6, "serialpos": 8, "trial_type": "single-audio", "trial_index": 233, "time_elapsed": 1096044, "internal_node_id": "0.0-170.0"}}, {"uniqueid": "MTK0475:32N49TQG3HPGAIKA4XKM6UM83IWAVG", "current_trial": 234, "dateTime": 1510945954832, "trialdata": {"rt": -1000, "stimulus": "/static/audio/wordpool/MARKET.wav", "key_press": -1, "type": "PRES_AUD", "word": "market", "wordID": 870, "conditions": [12, 1600, "a", 12000], "trial": 6, "serialpos": 9, "trial_type": "single-audio", "trial_index": 234, "time_elapsed": 1098609, "internal_node_id": "0.0-171.0"}}, {"uniqueid": "MTK0475:32N49TQG3HPGAIKA4XKM6UM83IWAVG", "current_trial": 235, "dateTime": 1510945957560, "trialdata": {"rt": -1000, "stimulus": "/static/audio/wordpool/CAMEL.wav", "key_press": -1, "type": "PRES_AUD", "word": "camel", "wordID": 222, "conditions": [12, 1600, "a", 12000], "trial": 6, "serialpos": 10, "trial_type": "single-audio", "trial_index": 235, "time_elapsed": 1101338, "internal_node_id": "0.0-172.0"}}, {"uniqueid": "MTK0475:32N49TQG3HPGAIKA4XKM6UM83IWAVG", "current_trial": 236, "dateTime": 1510945960263, "trialdata": {"rt": -1000, "stimulus": "/static/audio/wordpool/BRIEFCASE.wav", "key_press": -1, "type": "PRES_AUD", "word": "briefcase", "wordID": 174, "conditions": [12, 1600, "a", 12000], "trial": 6, "serialpos": 11, "trial_type": "single-audio", "trial_index": 236, "time_elapsed": 1104041, "internal_node_id": "0.0-173.0"}}, {"uniqueid": "MTK0475:32N49TQG3HPGAIKA4XKM6UM83IWAVG", "current_trial": 237, "dateTime": 1510945961601, "trialdata": {"rt": -1, "stimulus": "", "key_press": -1, "type": "PRE_RECALL_DELAY", "trial_type": "single-stim", "trial_index": 237, "time_elapsed": 1105379, "internal_node_id": "0.0-174.0-0.0"}}, {"uniqueid": "MTK0475:32N49TQG3HPGAIKA4XKM6UM83IWAVG", "current_trial": 238, "dateTime": 1510945962101, "trialdata": {"rt": -1000, "stimulus": "/static/audio/400Hz.wav", "key_press": -1, "type": "PRE_RECALL_ALERT", "trial_type": "single-audio", "trial_index": 238, "time_elapsed": 1105879, "internal_node_id": "0.0-175.0"}}, {"uniqueid": "MTK0475:32N49TQG3HPGAIKA4XKM6UM83IWAVG", "current_trial": 239, "dateTime": 1510946022108, "trialdata": {"rt": [5948, 11270, 13677, 16004, 19772], "recwords": ["breifcase", "luggage", "beast", "cammel", "thread"], "type": "FREE_RECALL", "conditions": [12, 1600, "a", 12000], "trial": 6, "trial_type": "free-recall", "trial_index": 239, "time_elapsed": 1165882, "internal_node_id": "0.0-176.0-0.0"}}, {"uniqueid": "MTK0475:32N49TQG3HPGAIKA4XKM6UM83IWAVG", "current_trial": 240, "dateTime": 1510946024951, "trialdata": {"rt": 841, "key_press": 13, "type": "INSTRUCTIONS", "trial_type": "text", "trial_index": 240, "time_elapsed": 1168729, "internal_node_id": "0.0-177.0"}}, {"uniqueid": "MTK0475:32N49TQG3HPGAIKA4XKM6UM83IWAVG", "current_trial": 241, "dateTime": 1510946050952, "trialdata": {"rt": [4413, 10519, 18439, 23762], "responses": ["22", "23", "20", "19"], "num1": [8, 9, 7, 7, 6], "num2": [9, 5, 8, 4, 2], "num3": [4, 9, 6, 8, 8], "type": "DISTRACTOR", "conditions": [24, 800, "a", 24000], "trial": 7, "trial_type": "math-distractor", "trial_index": 241, "time_elapsed": 1194730, "internal_node_id": "0.0-178.0"}}, {"uniqueid": "MTK0475:32N49TQG3HPGAIKA4XKM6UM83IWAVG", "current_trial": 242, "dateTime": 1510946053954, "trialdata": {"rt": -1, "stimulus": "<p id=\"stim\">10</p>", "key_press": -1, "trial_type": "single-stim", "trial_index": 242, "time_elapsed": 1197732, "internal_node_id": "0.0-179.0-0.0"}}, {"uniqueid": "MTK0475:32N49TQG3HPGAIKA4XKM6UM83IWAVG", "current_trial": 243, "dateTime": 1510946054954, "trialdata": {"rt": -1, "stimulus": "<p id=\"stim\">9</p>", "key_press": -1, "trial_type": "single-stim", "trial_index": 243, "time_elapsed": 1198732, "internal_node_id": "0.0-179.0-1.0"}}, {"uniqueid": "MTK0475:32N49TQG3HPGAIKA4XKM6UM83IWAVG", "current_trial": 244, "dateTime": 1510946055956, "trialdata": {"rt": -1, "stimulus": "<p id=\"stim\">8</p>", "key_press": -1, "trial_type": "single-stim", "trial_index": 244, "time_elapsed": 1199734, "internal_node_id": "0.0-179.0-2.0"}}, {"uniqueid": "MTK0475:32N49TQG3HPGAIKA4XKM6UM83IWAVG", "current_trial": 245, "dateTime": 1510946056956, "trialdata": {"rt": -1, "stimulus": "<p id=\"stim\">7</p>", "key_press": -1, "trial_type": "single-stim", "trial_index": 245, "time_elapsed": 1200734, "internal_node_id": "0.0-179.0-3.0"}}, {"uniqueid": "MTK0475:32N49TQG3HPGAIKA4XKM6UM83IWAVG", "current_trial": 246, "dateTime": 1510946057957, "trialdata": {"rt": -1, "stimulus": "<p id=\"stim\">6</p>", "key_press": -1, "trial_type": "single-stim", "trial_index": 246, "time_elapsed": 1201734, "internal_node_id": "0.0-179.0-4.0"}}, {"uniqueid": "MTK0475:32N49TQG3HPGAIKA4XKM6UM83IWAVG", "current_trial": 247, "dateTime": 1510946058957, "trialdata": {"rt": -1, "stimulus": "<p id=\"stim\">5</p>", "key_press": -1, "trial_type": "single-stim", "trial_index": 247, "time_elapsed": 1202735, "internal_node_id": "0.0-179.0-5.0"}}, {"uniqueid": "MTK0475:32N49TQG3HPGAIKA4XKM6UM83IWAVG", "current_trial": 248, "dateTime": 1510946059957, "trialdata": {"rt": -1, "stimulus": "<p id=\"stim\">4</p>", "key_press": -1, "trial_type": "single-stim", "trial_index": 248, "time_elapsed": 1203735, "internal_node_id": "0.0-179.0-6.0"}}, {"uniqueid": "MTK0475:32N49TQG3HPGAIKA4XKM6UM83IWAVG", "current_trial": 249, "dateTime": 1510946060958, "trialdata": {"rt": -1, "stimulus": "<p id=\"stim\">3</p>", "key_press": -1, "trial_type": "single-stim", "trial_index": 249, "time_elapsed": 1204735, "internal_node_id": "0.0-179.0-7.0"}}, {"uniqueid": "MTK0475:32N49TQG3HPGAIKA4XKM6UM83IWAVG", "current_trial": 250, "dateTime": 1510946061959, "trialdata": {"rt": -1, "stimulus": "<p id=\"stim\">2</p>", "key_press": -1, "trial_type": "single-stim", "trial_index": 250, "time_elapsed": 1205736, "internal_node_id": "0.0-179.0-8.0"}}, {"uniqueid": "MTK0475:32N49TQG3HPGAIKA4XKM6UM83IWAVG", "current_trial": 251, "dateTime": 1510946062960, "trialdata": {"rt": -1, "stimulus": "<p id=\"stim\">1</p>", "key_press": -1, "trial_type": "single-stim", "trial_index": 251, "time_elapsed": 1206737, "internal_node_id": "0.0-179.0-9.0"}}, {"uniqueid": "MTK0475:32N49TQG3HPGAIKA4XKM6UM83IWAVG", "current_trial": 252, "dateTime": 1510946064460, "trialdata": {"rt": -1, "stimulus": "<p id=\"stim\">+</p>", "key_press": -1, "type": "FIXATION", "trial_type": "single-stim", "trial_index": 252, "time_elapsed": 1208238, "internal_node_id": "0.0-180.0-0.0"}}, {"uniqueid": "MTK0475:32N49TQG3HPGAIKA4XKM6UM83IWAVG", "current_trial": 253, "dateTime": 1510946066333, "trialdata": {"rt": -1000, "stimulus": "/static/audio/wordpool/OUTDOORS.wav", "key_press": -1, "type": "PRES_AUD", "word": "outdoors", "wordID": 986, "conditions": [24, 800, "a", 24000], "trial": 7, "serialpos": 0, "trial_type": "single-audio", "trial_index": 253, "time_elapsed": 1210111, "internal_node_id": "0.0-181.0"}}, {"uniqueid": "MTK0475:32N49TQG3HPGAIKA4XKM6UM83IWAVG", "current_trial": 254, "dateTime": 1510946067987, "trialdata": {"rt": -1000, "stimulus": "/static/audio/wordpool/PORK.wav", "key_press": -1, "type": "PRES_AUD", "word": "pork", "wordID": 1107, "conditions": [24, 800, "a", 24000], "trial": 7, "serialpos": 1, "trial_type": "single-audio", "trial_index": 254, "time_elapsed": 1211765, "internal_node_id": "0.0-182.0"}}, {"uniqueid": "MTK0475:32N49TQG3HPGAIKA4XKM6UM83IWAVG", "current_trial": 255, "dateTime": 1510946069777, "trialdata": {"rt": -1000, "stimulus": "/static/audio/wordpool/TEACHER.wav", "key_press": -1, "type": "PRES_AUD", "word": "teacher", "wordID": 1439, "conditions": [24, 800, "a", 24000], "trial": 7, "serialpos": 2, "trial_type": "single-audio", "trial_index": 255, "time_elapsed": 1213555, "internal_node_id": "0.0-183.0"}}, {"uniqueid": "MTK0475:32N49TQG3HPGAIKA4XKM6UM83IWAVG", "current_trial": 256, "dateTime": 1510946071742, "trialdata": {"rt": -1000, "stimulus": "/static/audio/wordpool/SCARECROW.wav", "key_press": -1, "type": "PRES_AUD", "word": "scarecrow", "wordID": 1244, "conditions": [24, 800, "a", 24000], "trial": 7, "serialpos": 3, "trial_type": "single-audio", "trial_index": 256, "time_elapsed": 1215520, "internal_node_id": "0.0-184.0"}}, {"uniqueid": "MTK0475:32N49TQG3HPGAIKA4XKM6UM83IWAVG", "current_trial": 257, "dateTime": 1510946073566, "trialdata": {"rt": -1000, "stimulus": "/static/audio/wordpool/SNAKE.wav", "key_press": -1, "type": "PRES_AUD", "word": "snake", "wordID": 1332, "conditions": [24, 800, "a", 24000], "trial": 7, "serialpos": 4, "trial_type": "single-audio", "trial_index": 257, "time_elapsed": 1217344, "internal_node_id": "0.0-185.0"}}, {"uniqueid": "MTK0475:32N49TQG3HPGAIKA4XKM6UM83IWAVG", "current_trial": 258, "dateTime": 1510946075229, "trialdata": {"rt": -1000, "stimulus": "/static/audio/wordpool/MILK.wav", "key_press": -1, "type": "PRES_AUD", "word": "milk", "wordID": 894, "conditions": [24, 800, "a", 24000], "trial": 7, "serialpos": 5, "trial_type": "single-audio", "trial_index": 258, "time_elapsed": 1219006, "internal_node_id": "0.0-186.0"}}, {"uniqueid": "MTK0475:32N49TQG3HPGAIKA4XKM6UM83IWAVG", "current_trial": 259, "dateTime": 1510946076874, "trialdata": {"rt": -1000, "stimulus": "/static/audio/wordpool/WARDROBE.wav", "key_press": -1, "type": "PRES_AUD", "word": "wardrobe", "wordID": 1586, "conditions": [24, 800, "a", 24000], "trial": 7, "serialpos": 6, "trial_type": "single-audio", "trial_index": 259, "time_elapsed": 1220652, "internal_node_id": "0.0-187.0"}}, {"uniqueid": "MTK0475:32N49TQG3HPGAIKA4XKM6UM83IWAVG", "current_trial": 260, "dateTime": 1510946078501, "trialdata": {"rt": -1000, "stimulus": "/static/audio/wordpool/CLOTHES.wav", "key_press": -1, "type": "PRES_AUD", "word": "clothes", "wordID": 326, "conditions": [24, 800, "a", 24000], "trial": 7, "serialpos": 7, "trial_type": "single-audio", "trial_index": 260, "time_elapsed": 1222279, "internal_node_id": "0.0-188.0"}}, {"uniqueid": "MTK0475:32N49TQG3HPGAIKA4XKM6UM83IWAVG", "current_trial": 261, "dateTime": 1510946080474, "trialdata": {"rt": -1000, "stimulus": "/static/audio/wordpool/COBRA.wav", "key_press": -1, "type": "PRES_AUD", "word": "cobra", "wordID": 335, "conditions": [24, 800, "a", 24000], "trial": 7, "serialpos": 8, "trial_type": "single-audio", "trial_index": 261, "time_elapsed": 1224252, "internal_node_id": "0.0-189.0"}}, {"uniqueid": "MTK0475:32N49TQG3HPGAIKA4XKM6UM83IWAVG", "current_trial": 262, "dateTime": 1510946082136, "trialdata": {"rt": -1000, "stimulus": "/static/audio/wordpool/RACKET.wav", "key_press": -1, "type": "PRES_AUD", "word": "racket", "wordID": 1154, "conditions": [24, 800, "a", 24000], "trial": 7, "serialpos": 9, "trial_type": "single-audio", "trial_index": 262, "time_elapsed": 1225914, "internal_node_id": "0.0-190.0"}}, {"uniqueid": "MTK0475:32N49TQG3HPGAIKA4XKM6UM83IWAVG", "current_trial": 263, "dateTime": 1510946084049, "trialdata": {"rt": -1000, "stimulus": "/static/audio/wordpool/TRACTOR.wav", "key_press": -1, "type": "PRES_AUD", "word": "tractor", "wordID": 1492, "conditions": [24, 800, "a", 24000], "trial": 7, "serialpos": 10, "trial_type": "single-audio", "trial_index": 263, "time_elapsed": 1227826, "internal_node_id": "0.0-191.0"}}, {"uniqueid": "MTK0475:32N49TQG3HPGAIKA4XKM6UM83IWAVG", "current_trial": 264, "dateTime": 1510946085687, "trialdata": {"rt": -1000, "stimulus": "/static/audio/wordpool/TROMBONE.wav", "key_press": -1, "type": "PRES_AUD", "word": "trombone", "wordID": 1507, "conditions": [24, 800, "a", 24000], "trial": 7, "serialpos": 11, "trial_type": "single-audio", "trial_index": 264, "time_elapsed": 1229465, "internal_node_id": "0.0-192.0"}}, {"uniqueid": "MTK0475:32N49TQG3HPGAIKA4XKM6UM83IWAVG", "current_trial": 265, "dateTime": 1510946087347, "trialdata": {"rt": -1000, "stimulus": "/static/audio/wordpool/ATLAS.wav", "key_press": -1, "type": "PRES_AUD", "word": "atlas", "wordID": 52, "conditions": [24, 800, "a", 24000], "trial": 7, "serialpos": 12, "trial_type": "single-audio", "trial_index": 265, "time_elapsed": 1231125, "internal_node_id": "0.0-193.0"}}, {"uniqueid": "MTK0475:32N49TQG3HPGAIKA4XKM6UM83IWAVG", "current_trial": 266, "dateTime": 1510946089019, "trialdata": {"rt": -1000, "stimulus": "/static/audio/wordpool/TOMBSTONE.wav", "key_press": -1, "type": "PRES_AUD", "word": "tombstone", "wordID": 1477, "conditions": [24, 800, "a", 24000], "trial": 7, "serialpos": 13, "trial_type": "single-audio", "trial_index": 266, "time_elapsed": 1232797, "internal_node_id": "0.0-194.0"}}, {"uniqueid": "MTK0475:32N49TQG3HPGAIKA4XKM6UM83IWAVG", "current_trial": 267, "dateTime": 1510946090693, "trialdata": {"rt": -1000, "stimulus": "/static/audio/wordpool/STATUE.wav", "key_press": -1, "type": "PRES_AUD", "word": "statue", "wordID": 1373, "conditions": [24, 800, "a", 24000], "trial": 7, "serialpos": 14, "trial_type": "single-audio", "trial_index": 267, "time_elapsed": 1234471, "internal_node_id": "0.0-195.0"}}, {"uniqueid": "MTK0475:32N49TQG3HPGAIKA4XKM6UM83IWAVG", "current_trial": 268, "dateTime": 1510946092480, "trialdata": {"rt": -1000, "stimulus": "/static/audio/wordpool/PEBBLE.wav", "key_press": -1, "type": "PRES_AUD", "word": "pebble", "wordID": 1034, "conditions": [24, 800, "a", 24000], "trial": 7, "serialpos": 15, "trial_type": "single-audio", "trial_index": 268, "time_elapsed": 1236257, "internal_node_id": "0.0-196.0"}}, {"uniqueid": "MTK0475:32N49TQG3HPGAIKA4XKM6UM83IWAVG", "current_trial": 269, "dateTime": 1510946094391, "trialdata": {"rt": -1000, "stimulus": "/static/audio/wordpool/ATOM.wav", "key_press": -1, "type": "PRES_AUD", "word": "atom", "wordID": 54, "conditions": [24, 800, "a", 24000], "trial": 7, "serialpos": 16, "trial_type": "single-audio", "trial_index": 269, "time_elapsed": 1238168, "internal_node_id": "0.0-197.0"}}, {"uniqueid": "MTK0475:32N49TQG3HPGAIKA4XKM6UM83IWAVG", "current_trial": 270, "dateTime": 1510946096096, "trialdata": {"rt": -1000, "stimulus": "/static/audio/wordpool/BUCKET.wav", "key_press": -1, "type": "PRES_AUD", "word": "bucket", "wordID": 183, "conditions": [24, 800, "a", 24000], "trial": 7, "serialpos": 17, "trial_type": "single-audio", "trial_index": 270, "time_elapsed": 1239873, "internal_node_id": "0.0-198.0"}}, {"uniqueid": "MTK0475:32N49TQG3HPGAIKA4XKM6UM83IWAVG", "current_trial": 271, "dateTime": 1510946097798, "trialdata": {"rt": -1000, "stimulus": "/static/audio/wordpool/COUCH.wav", "key_press": -1, "type": "PRES_AUD", "word": "couch", "wordID": 385, "conditions": [24, 800, "a", 24000], "trial": 7, "s