{"condition": 0, "counterbalance": 584, "assignmentId": "36WLNQG780H4RH3GFLV811ISKONEBJ", "workerId": "MTK0290", "hitId": "3MDKGGG61QUYN46OJNYT0N0HWDBT6N", "currenttrial": 627, "bonus": 0, "data": [{"uniqueid": "MTK0290:36WLNQG780H4RH3GFLV811ISKONEBJ", "current_trial": 0, "dateTime": 1510698708514, "trialdata": {"rt": 7600, "key_press": 32, "type": "INSTRUCTIONS", "trial_type": "text", "trial_index": 0, "time_elapsed": 7605, "internal_node_id": "0.0-0.0"}}, {"uniqueid": "MTK0290:36WLNQG780H4RH3GFLV811ISKONEBJ", "current_trial": 1, "dateTime": 1510698745022, "trialdata": {"rt": 36503, "key_press": 32, "type": "INSTRUCTIONS", "trial_type": "text", "trial_index": 1, "time_elapsed": 44116, "internal_node_id": "0.0-1.0"}}, {"uniqueid": "MTK0290:36WLNQG780H4RH3GFLV811ISKONEBJ", "current_trial": 2, "dateTime": 1510698756910, "trialdata": {"rt": [11790], "responses": ["ocean"], "type": "AUDIO_TEST", "trial_type": "audio-test", "trial_index": 2, "time_elapsed": 56003, "internal_node_id": "0.0-2.0"}}, {"uniqueid": "MTK0290:36WLNQG780H4RH3GFLV811ISKONEBJ", "current_trial": 3, "dateTime": 1510698766960, "trialdata": {"rt": [10029], "responses": ["crystal"], "type": "AUDIO_TEST", "trial_type": "audio-test", "trial_index": 3, "time_elapsed": 66054, "internal_node_id": "0.0-3.0"}}, {"uniqueid": "MTK0290:36WLNQG780H4RH3GFLV811ISKONEBJ", "current_trial": 4, "dateTime": 1510698777356, "trialdata": {"rt": [10373], "responses": ["spice"], "type": "AUDIO_TEST", "trial_type": "audio-test", "trial_index": 4, "time_elapsed": 76450, "internal_node_id": "0.0-4.0"}}, {"uniqueid": "MTK0290:36WLNQG780H4RH3GFLV811ISKONEBJ", "current_trial": 5, "dateTime": 1510698834290, "trialdata": {"rt": 56168, "responses": "{\"Q0\":\"9:00 P.M.\",\"Q1\":\"5:00 A.M.\",\"Q2\":\"5\"}", "type": "SLEEP_SURVEY", "trial_type": "survey-text", "trial_index": 5, "time_elapsed": 133384, "internal_node_id": "0.0-5.0"}}, {"uniqueid": "MTK0290:36WLNQG780H4RH3GFLV811ISKONEBJ", "current_trial": 6, "dateTime": 1510698898324, "trialdata": {"rt": 63027, "key_press": 32, "type": "INSTRUCTIONS", "trial_type": "text", "trial_index": 6, "time_elapsed": 197417, "internal_node_id": "0.0-6.0"}}, {"uniqueid": "MTK0290:36WLNQG780H4RH3GFLV811ISKONEBJ", "current_trial": 7, "dateTime": 1510698918825, "trialdata": {"rt": 19996, "key_press": 32, "type": "INSTRUCTIONS", "trial_type": "text", "trial_index": 7, "time_elapsed": 217919, "internal_node_id": "0.0-7.0"}}, {"uniqueid": "MTK0290:36WLNQG780H4RH3GFLV811ISKONEBJ", "current_trial": 8, "dateTime": 1510698931241, "trialdata": {"rt": 11907, "key_press": 32, "type": "INSTRUCTIONS", "trial_type": "text", "trial_index": 8, "time_elapsed": 230333, "internal_node_id": "0.0-8.0"}}, {"uniqueid": "MTK0290:36WLNQG780H4RH3GFLV811ISKONEBJ", "current_trial": 9, "dateTime": 1510698950281, "trialdata": {"rt": [3497, 6252, 8813, 12552, 14976, 17867], "responses": ["18", "17", "14", "24", "14", "21"], "num1": [9, 6, 3, 9, 7, 7, 4], "num2": [2, 6, 4, 9, 6, 6, 1], "num3": [7, 5, 5, 6, 1, 8, 8], "type": "DISTRACTOR", "conditions": [18, 1200, "a", 18000], "trial": 0, "trial_type": "math-distractor", "trial_index": 9, "time_elapsed": 249374, "internal_node_id": "0.0-9.0"}}, {"uniqueid": "MTK0290:36WLNQG780H4RH3GFLV811ISKONEBJ", "current_trial": 10, "dateTime": 1510698953302, "trialdata": {"rt": -1, "stimulus": "<p id=\"stim\">10</p>", "key_press": -1, "trial_type": "single-stim", "trial_index": 10, "time_elapsed": 252396, "internal_node_id": "0.0-10.0-0.0"}}, {"uniqueid": "MTK0290:36WLNQG780H4RH3GFLV811ISKONEBJ", "current_trial": 11, "dateTime": 1510698954311, "trialdata": {"rt": -1, "stimulus": "<p id=\"stim\">9</p>", "key_press": -1, "trial_type": "single-stim", "trial_index": 11, "time_elapsed": 253404, "internal_node_id": "0.0-10.0-1.0"}}, {"uniqueid": "MTK0290:36WLNQG780H4RH3GFLV811ISKONEBJ", "current_trial": 12, "dateTime": 1510698955324, "trialdata": {"rt": -1, "stimulus": "<p id=\"stim\">8</p>", "key_press": -1, "trial_type": "single-stim", "trial_index": 12, "time_elapsed": 254418, "internal_node_id": "0.0-10.0-2.0"}}, {"uniqueid": "MTK0290:36WLNQG780H4RH3GFLV811ISKONEBJ", "current_trial": 13, "dateTime": 1510698956337, "trialdata": {"rt": -1, "stimulus": "<p id=\"stim\">7</p>", "key_press": -1, "trial_type": "single-stim", "trial_index": 13, "time_elapsed": 255430, "internal_node_id": "0.0-10.0-3.0"}}, {"uniqueid": "MTK0290:36WLNQG780H4RH3GFLV811ISKONEBJ", "current_trial": 14, "dateTime": 1510698957341, "trialdata": {"rt": -1, "stimulus": "<p id=\"stim\">6</p>", "key_press": -1, "trial_type": "single-stim", "trial_index": 14, "time_elapsed": 256434, "internal_node_id": "0.0-10.0-4.0"}}, {"uniqueid": "MTK0290:36WLNQG780H4RH3GFLV811ISKONEBJ", "current_trial": 15, "dateTime": 1510698958352, "trialdata": {"rt": -1, "stimulus": "<p id=\"stim\">5</p>", "key_press": -1, "trial_type": "single-stim", "trial_index": 15, "time_elapsed": 257445, "internal_node_id": "0.0-10.0-5.0"}}, {"uniqueid": "MTK0290:36WLNQG780H4RH3GFLV811ISKONEBJ", "current_trial": 16, "dateTime": 1510698959356, "trialdata": {"rt": -1, "stimulus": "<p id=\"stim\">4</p>", "key_press": -1, "trial_type": "single-stim", "trial_index": 16, "time_elapsed": 258449, "internal_node_id": "0.0-10.0-6.0"}}, {"uniqueid": "MTK0290:36WLNQG780H4RH3GFLV811ISKONEBJ", "current_trial": 17, "dateTime": 1510698960360, "trialdata": {"rt": -1, "stimulus": "<p id=\"stim\">3</p>", "key_press": -1, "trial_type": "single-stim", "trial_index": 17, "time_elapsed": 259453, "internal_node_id": "0.0-10.0-7.0"}}, {"uniqueid": "MTK0290:36WLNQG780H4RH3GFLV811ISKONEBJ", "current_trial": 18, "dateTime": 1510698961367, "trialdata": {"rt": -1, "stimulus": "<p id=\"stim\">2</p>", "key_press": -1, "trial_type": "single-stim", "trial_index": 18, "time_elapsed": 260461, "internal_node_id": "0.0-10.0-8.0"}}, {"uniqueid": "MTK0290:36WLNQG780H4RH3GFLV811ISKONEBJ", "current_trial": 19, "dateTime": 1510698962370, "trialdata": {"rt": -1, "stimulus": "<p id=\"stim\">1</p>", "key_press": -1, "trial_type": "single-stim", "trial_index": 19, "time_elapsed": 261464, "internal_node_id": "0.0-10.0-9.0"}}, {"uniqueid": "MTK0290:36WLNQG780H4RH3GFLV811ISKONEBJ", "current_trial": 20, "dateTime": 1510698963887, "trialdata": {"rt": -1, "stimulus": "<p id=\"stim\">+</p>", "key_press": -1, "type": "FIXATION", "trial_type": "single-stim", "trial_index": 20, "time_elapsed": 262981, "internal_node_id": "0.0-11.0-0.0"}}, {"uniqueid": "MTK0290:36WLNQG780H4RH3GFLV811ISKONEBJ", "current_trial": 21, "dateTime": 1510698965976, "trialdata": {"rt": -1000, "stimulus": "/static/audio/wordpool/TRIBE.wav", "key_press": -1, "type": "PRES_AUD", "word": "tribe", "wordID": 1504, "conditions": [18, 1200, "a", 18000], "trial": 0, "serialpos": 0, "trial_type": "single-audio", "trial_index": 21, "time_elapsed": 265069, "internal_node_id": "0.0-12.0"}}, {"uniqueid": "MTK0290:36WLNQG780H4RH3GFLV811ISKONEBJ", "current_trial": 22, "dateTime": 1510698968337, "trialdata": {"rt": -1000, "stimulus": "/static/audio/wordpool/DRESS.wav", "key_press": -1, "type": "PRES_AUD", "word": "dress", "wordID": 494, "conditions": [18, 1200, "a", 18000], "trial": 0, "serialpos": 1, "trial_type": "single-audio", "trial_index": 22, "time_elapsed": 267430, "internal_node_id": "0.0-13.0"}}, {"uniqueid": "MTK0290:36WLNQG780H4RH3GFLV811ISKONEBJ", "current_trial": 23, "dateTime": 1510698970597, "trialdata": {"rt": -1000, "stimulus": "/static/audio/wordpool/GALLON.wav", "key_press": -1, "type": "PRES_AUD", "word": "gallon", "wordID": 617, "conditions": [18, 1200, "a", 18000], "trial": 0, "serialpos": 2, "trial_type": "single-audio", "trial_index": 23, "time_elapsed": 269691, "internal_node_id": "0.0-14.0"}}, {"uniqueid": "MTK0290:36WLNQG780H4RH3GFLV811ISKONEBJ", "current_trial": 24, "dateTime": 1510698972731, "trialdata": {"rt": -1000, "stimulus": "/static/audio/wordpool/RATTLE.wav", "key_press": -1, "type": "PRES_AUD", "word": "rattle", "wordID": 1169, "conditions": [18, 1200, "a", 18000], "trial": 0, "serialpos": 3, "trial_type": "single-audio", "trial_index": 24, "time_elapsed": 271825, "internal_node_id": "0.0-15.0"}}, {"uniqueid": "MTK0290:36WLNQG780H4RH3GFLV811ISKONEBJ", "current_trial": 25, "dateTime": 1510698974966, "trialdata": {"rt": -1000, "stimulus": "/static/audio/wordpool/BELLY.wav", "key_press": -1, "type": "PRES_AUD", "word": "belly", "wordID": 118, "conditions": [18, 1200, "a", 18000], "trial": 0, "serialpos": 4, "trial_type": "single-audio", "trial_index": 25, "time_elapsed": 274060, "internal_node_id": "0.0-16.0"}}, {"uniqueid": "MTK0290:36WLNQG780H4RH3GFLV811ISKONEBJ", "current_trial": 26, "dateTime": 1510698977229, "trialdata": {"rt": -1000, "stimulus": "/static/audio/wordpool/FUNGUS.wav", "key_press": -1, "type": "PRES_AUD", "word": "fungus", "wordID": 613, "conditions": [18, 1200, "a", 18000], "trial": 0, "serialpos": 5, "trial_type": "single-audio", "trial_index": 26, "time_elapsed": 276323, "internal_node_id": "0.0-17.0"}}, {"uniqueid": "MTK0290:36WLNQG780H4RH3GFLV811ISKONEBJ", "current_trial": 27, "dateTime": 1510698979497, "trialdata": {"rt": -1000, "stimulus": "/static/audio/wordpool/BIKE.wav", "key_press": -1, "type": "PRES_AUD", "word": "bike", "wordID": 124, "conditions": [18, 1200, "a", 18000], "trial": 0, "serialpos": 6, "trial_type": "single-audio", "trial_index": 27, "time_elapsed": 278591, "internal_node_id": "0.0-18.0"}}, {"uniqueid": "MTK0290:36WLNQG780H4RH3GFLV811ISKONEBJ", "current_trial": 28, "dateTime": 1510698981835, "trialdata": {"rt": -1000, "stimulus": "/static/audio/wordpool/TILE.wav", "key_press": -1, "type": "PRES_AUD", "word": "tile", "wordID": 1467, "conditions": [18, 1200, "a", 18000], "trial": 0, "serialpos": 7, "trial_type": "single-audio", "trial_index": 28, "time_elapsed": 280928, "internal_node_id": "0.0-19.0"}}, {"uniqueid": "MTK0290:36WLNQG780H4RH3GFLV811ISKONEBJ", "current_trial": 29, "dateTime": 1510698984048, "trialdata": {"rt": -1000, "stimulus": "/static/audio/wordpool/LION.wav", "key_press": -1, "type": "PRES_AUD", "word": "lion", "wordID": 826, "conditions": [18, 1200, "a", 18000], "trial": 0, "serialpos": 8, "trial_type": "single-audio", "trial_index": 29, "time_elapsed": 283141, "internal_node_id": "0.0-20.0"}}, {"uniqueid": "MTK0290:36WLNQG780H4RH3GFLV811ISKONEBJ", "current_trial": 30, "dateTime": 1510698986358, "trialdata": {"rt": -1000, "stimulus": "/static/audio/wordpool/PACKAGE.wav", "key_press": -1, "type": "PRES_AUD", "word": "package", "wordID": 996, "conditions": [18, 1200, "a", 18000], "trial": 0, "serialpos": 9, "trial_type": "single-audio", "trial_index": 30, "time_elapsed": 285451, "internal_node_id": "0.0-21.0"}}, {"uniqueid": "MTK0290:36WLNQG780H4RH3GFLV811ISKONEBJ", "current_trial": 31, "dateTime": 1510698988454, "trialdata": {"rt": -1000, "stimulus": "/static/audio/wordpool/POPCORN.wav", "key_press": -1, "type": "PRES_AUD", "word": "popcorn", "wordID": 1103, "conditions": [18, 1200, "a", 18000], "trial": 0, "serialpos": 10, "trial_type": "single-audio", "trial_index": 31, "time_elapsed": 287547, "internal_node_id": "0.0-22.0"}}, {"uniqueid": "MTK0290:36WLNQG780H4RH3GFLV811ISKONEBJ", "current_trial": 32, "dateTime": 1510698990821, "trialdata": {"rt": -1000, "stimulus": "/static/audio/wordpool/POSTAGE.wav", "key_press": -1, "type": "PRES_AUD", "word": "postage", "wordID": 1112, "conditions": [18, 1200, "a", 18000], "trial": 0, "serialpos": 11, "trial_type": "single-audio", "trial_index": 32, "time_elapsed": 289915, "internal_node_id": "0.0-23.0"}}, {"uniqueid": "MTK0290:36WLNQG780H4RH3GFLV811ISKONEBJ", "current_trial": 33, "dateTime": 1510698993196, "trialdata": {"rt": -1000, "stimulus": "/static/audio/wordpool/SWORD.wav", "key_press": -1, "type": "PRES_AUD", "word": "sword", "wordID": 1422, "conditions": [18, 1200, "a", 18000], "trial": 0, "serialpos": 12, "trial_type": "single-audio", "trial_index": 33, "time_elapsed": 292289, "internal_node_id": "0.0-24.0"}}, {"uniqueid": "MTK0290:36WLNQG780H4RH3GFLV811ISKONEBJ", "current_trial": 34, "dateTime": 1510698995244, "trialdata": {"rt": -1000, "stimulus": "/static/audio/wordpool/MONEY.wav", "key_press": -1, "type": "PRES_AUD", "word": "money", "wordID": 907, "conditions": [18, 1200, "a", 18000], "trial": 0, "serialpos": 13, "trial_type": "single-audio", "trial_index": 34, "time_elapsed": 294338, "internal_node_id": "0.0-25.0"}}, {"uniqueid": "MTK0290:36WLNQG780H4RH3GFLV811ISKONEBJ", "current_trial": 35, "dateTime": 1510698997441, "trialdata": {"rt": -1000, "stimulus": "/static/audio/wordpool/ISLAND.wav", "key_press": -1, "type": "PRES_AUD", "word": "island", "wordID": 744, "conditions": [18, 1200, "a", 18000], "trial": 0, "serialpos": 14, "trial_type": "single-audio", "trial_index": 35, "time_elapsed": 296534, "internal_node_id": "0.0-26.0"}}, {"uniqueid": "MTK0290:36WLNQG780H4RH3GFLV811ISKONEBJ", "current_trial": 36, "dateTime": 1510698999504, "trialdata": {"rt": -1000, "stimulus": "/static/audio/wordpool/ARM.wav", "key_press": -1, "type": "PRES_AUD", "word": "arm", "wordID": 37, "conditions": [18, 1200, "a", 18000], "trial": 0, "serialpos": 15, "trial_type": "single-audio", "trial_index": 36, "time_elapsed": 298597, "internal_node_id": "0.0-27.0"}}, {"uniqueid": "MTK0290:36WLNQG780H4RH3GFLV811ISKONEBJ", "current_trial": 37, "dateTime": 1510699001614, "trialdata": {"rt": -1000, "stimulus": "/static/audio/wordpool/LAVA.wav", "key_press": -1, "type": "PRES_AUD", "word": "lava", "wordID": 803, "conditions": [18, 1200, "a", 18000], "trial": 0, "serialpos": 16, "trial_type": "single-audio", "trial_index": 37, "time_elapsed": 300706, "internal_node_id": "0.0-28.0"}}, {"uniqueid": "MTK0290:36WLNQG780H4RH3GFLV811ISKONEBJ", "current_trial": 38, "dateTime": 1510699003734, "trialdata": {"rt": -1000, "stimulus": "/static/audio/wordpool/GHETTO.wav", "key_press": -1, "type": "PRES_AUD", "word": "ghetto", "wordID": 632, "conditions": [18, 1200, "a", 18000], "trial": 0, "serialpos": 17, "trial_type": "single-audio", "trial_index": 38, "time_elapsed": 302828, "internal_node_id": "0.0-29.0"}}, {"uniqueid": "MTK0290:36WLNQG780H4RH3GFLV811ISKONEBJ", "current_trial": 39, "dateTime": 1510699004939, "trialdata": {"rt": -1, "stimulus": "", "key_press": -1, "type": "PRE_RECALL_DELAY", "trial_type": "single-stim", "trial_index": 39, "time_elapsed": 304032, "internal_node_id": "0.0-30.0-0.0"}}, {"uniqueid": "MTK0290:36WLNQG780H4RH3GFLV811ISKONEBJ", "current_trial": 40, "dateTime": 1510699005449, "trialdata": {"rt": -1000, "stimulus": "/static/audio/400Hz.wav", "key_press": -1, "type": "PRE_RECALL_ALERT", "trial_type": "single-audio", "trial_index": 40, "time_elapsed": 304542, "internal_node_id": "0.0-31.0"}}, {"uniqueid": "MTK0290:36WLNQG780H4RH3GFLV811ISKONEBJ", "current_trial": 41, "dateTime": 1510699065488, "trialdata": {"rt": [4130, 6105, 8247, 11568, 14906, 20704, 37024, 58838], "recwords": ["lava", "arm", "ghetto", "postage", "sword", "lion", "money", "island"], "type": "FREE_RECALL", "conditions": [18, 1200, "a", 18000], "trial": 0, "trial_type": "free-recall", "trial_index": 41, "time_elapsed": 364567, "internal_node_id": "0.0-32.0-0.0"}}, {"uniqueid": "MTK0290:36WLNQG780H4RH3GFLV811ISKONEBJ", "current_trial": 42, "dateTime": 1510699069219, "trialdata": {"rt": 1724, "key_press": 32, "type": "INSTRUCTIONS", "trial_type": "text", "trial_index": 42, "time_elapsed": 368312, "internal_node_id": "0.0-33.0"}}, {"uniqueid": "MTK0290:36WLNQG780H4RH3GFLV811ISKONEBJ", "current_trial": 43, "dateTime": 1510699089262, "trialdata": {"rt": [2150, 5488, 8057, 11021, 13597, 16281], "responses": ["12", "12", "11", "21", "12", "8"], "num1": [3, 3, 1, 8, 3, 1, 8], "num2": [7, 6, 3, 6, 1, 2, 1], "num3": [2, 3, 7, 7, 8, 5, 1], "type": "DISTRACTOR", "conditions": [18, 1200, "v", 18000], "trial": 1, "trial_type": "math-distractor", "trial_index": 43, "time_elapsed": 388356, "internal_node_id": "0.0-34.0"}}, {"uniqueid": "MTK0290:36WLNQG780H4RH3GFLV811ISKONEBJ", "current_trial": 44, "dateTime": 1510699092265, "trialdata": {"rt": -1, "stimulus": "<p id=\"stim\">10</p>", "key_press": -1, "trial_type": "single-stim", "trial_index": 44, "time_elapsed": 391359, "internal_node_id": "0.0-35.0-0.0"}}, {"uniqueid": "MTK0290:36WLNQG780H4RH3GFLV811ISKONEBJ", "current_trial": 45, "dateTime": 1510699093293, "trialdata": {"rt": -1, "stimulus": "<p id=\"stim\">9</p>", "key_press": -1, "trial_type": "single-stim", "trial_index": 45, "time_elapsed": 392386, "internal_node_id": "0.0-35.0-1.0"}}, {"uniqueid": "MTK0290:36WLNQG780H4RH3GFLV811ISKONEBJ", "current_trial": 46, "dateTime": 1510699094297, "trialdata": {"rt": -1, "stimulus": "<p id=\"stim\">8</p>", "key_press": -1, "trial_type": "single-stim", "trial_index": 46, "time_elapsed": 393389, "internal_node_id": "0.0-35.0-2.0"}}, {"uniqueid": "MTK0290:36WLNQG780H4RH3GFLV811ISKONEBJ", "current_trial": 47, "dateTime": 1510699095301, "trialdata": {"rt": -1, "stimulus": "<p id=\"stim\">7</p>", "key_press": -1, "trial_type": "single-stim", "trial_index": 47, "time_elapsed": 394394, "internal_node_id": "0.0-35.0-3.0"}}, {"uniqueid": "MTK0290:36WLNQG780H4RH3GFLV811ISKONEBJ", "current_trial": 48, "dateTime": 1510699096303, "trialdata": {"rt": -1, "stimulus": "<p id=\"stim\">6</p>", "key_press": -1, "trial_type": "single-stim", "trial_index": 48, "time_elapsed": 395397, "internal_node_id": "0.0-35.0-4.0"}}, {"uniqueid": "MTK0290:36WLNQG780H4RH3GFLV811ISKONEBJ", "current_trial": 49, "dateTime": 1510699097305, "trialdata": {"rt": -1, "stimulus": "<p id=\"stim\">5</p>", "key_press": -1, "trial_type": "single-stim", "trial_index": 49, "time_elapsed": 396399, "internal_node_id": "0.0-35.0-5.0"}}, {"uniqueid": "MTK0290:36WLNQG780H4RH3GFLV811ISKONEBJ", "current_trial": 50, "dateTime": 1510699098307, "trialdata": {"rt": -1, "stimulus": "<p id=\"stim\">4</p>", "key_press": -1, "trial_type": "single-stim", "trial_index": 50, "time_elapsed": 397401, "internal_node_id": "0.0-35.0-6.0"}}, {"uniqueid": "MTK0290:36WLNQG780H4RH3GFLV811ISKONEBJ", "current_trial": 51, "dateTime": 1510699099309, "trialdata": {"rt": -1, "stimulus": "<p id=\"stim\">3</p>", "key_press": -1, "trial_type": "single-stim", "trial_index": 51, "time_elapsed": 398403, "internal_node_id": "0.0-35.0-7.0"}}, {"uniqueid": "MTK0290:36WLNQG780H4RH3GFLV811ISKONEBJ", "current_trial": 52, "dateTime": 1510699100315, "trialdata": {"rt": -1, "stimulus": "<p id=\"stim\">2</p>", "key_press": -1, "trial_type": "single-stim", "trial_index": 52, "time_elapsed": 399408, "internal_node_id": "0.0-35.0-8.0"}}, {"uniqueid": "MTK0290:36WLNQG780H4RH3GFLV811ISKONEBJ", "current_trial": 53, "dateTime": 1510699101327, "trialdata": {"rt": -1, "stimulus": "<p id=\"stim\">1</p>", "key_press": -1, "trial_type": "single-stim", "trial_index": 53, "time_elapsed": 400420, "internal_node_id": "0.0-35.0-9.0"}}, {"uniqueid": "MTK0290:36WLNQG780H4RH3GFLV811ISKONEBJ", "current_trial": 54, "dateTime": 1510699102839, "trialdata": {"rt": -1, "stimulus": "<p id=\"stim\">+</p>", "key_press": -1, "type": "FIXATION", "trial_type": "single-stim", "trial_index": 54, "time_elapsed": 401933, "internal_node_id": "0.0-36.0-0.0"}}, {"uniqueid": "MTK0290:36WLNQG780H4RH3GFLV811ISKONEBJ", "current_trial": 55, "dateTime": 1510699104045, "trialdata": {"rt": -1, "stimulus": "<p id=\"stim\">ONION</p>", "key_press": -1, "type": "PRES_VIS", "word": "onion", "wordID": 976, "conditions": [18, 1200, "v", 18000], "trial": 1, "serialpos": 0, "trial_type": "single-stim", "trial_index": 55, "time_elapsed": 403139, "internal_node_id": "0.0-37.0"}}, {"uniqueid": "MTK0290:36WLNQG780H4RH3GFLV811ISKONEBJ", "current_trial": 56, "dateTime": 1510699106329, "trialdata": {"rt": -1, "stimulus": "<p id=\"stim\">BLOUSE</p>", "key_press": -1, "type": "PRES_VIS", "word": "blouse", "wordID": 138, "conditions": [18, 1200, "v", 18000], "trial": 1, "serialpos": 1, "trial_type": "single-stim", "trial_index": 56, "time_elapsed": 405422, "internal_node_id": "0.0-38.0"}}, {"uniqueid": "MTK0290:36WLNQG780H4RH3GFLV811ISKONEBJ", "current_trial": 57, "dateTime": 1510699108670, "trialdata": {"rt": -1, "stimulus": "<p id=\"stim\">POCKET</p>", "key_press": -1, "type": "PRES_VIS", "word": "pocket", "wordID": 1092, "conditions": [18, 1200, "v", 18000], "trial": 1, "serialpos": 2, "trial_type": "single-stim", "trial_index": 57, "time_elapsed": 407764, "internal_node_id": "0.0-39.0"}}, {"uniqueid": "MTK0290:36WLNQG780H4RH3GFLV811ISKONEBJ", "current_trial": 58, "dateTime": 1510699110911, "trialdata": {"rt": -1, "stimulus": "<p id=\"stim\">PUDDLE</p>", "key_press": -1, "type": "PRES_VIS", "word": "puddle", "wordID": 1139, "conditions": [18, 1200, "v", 18000], "trial": 1, "serialpos": 3, "trial_type": "single-stim", "trial_index": 58, "time_elapsed": 410005, "internal_node_id": "0.0-40.0"}}, {"uniqueid": "MTK0290:36WLNQG780H4RH3GFLV811ISKONEBJ", "current_trial": 59, "dateTime": 1510699113121, "trialdata": {"rt": -1, "stimulus": "<p id=\"stim\">TABLE</p>", "key_press": -1, "type": "PRES_VIS", "word": "table", "wordID": 1425, "conditions": [18, 1200, "v", 18000], "trial": 1, "serialpos": 4, "trial_type": "single-stim", "trial_index": 59, "time_elapsed": 412215, "internal_node_id": "0.0-41.0"}}, {"uniqueid": "MTK0290:36WLNQG780H4RH3GFLV811ISKONEBJ", "current_trial": 60, "dateTime": 1510699115519, "trialdata": {"rt": -1, "stimulus": "<p id=\"stim\">HEART</p>", "key_press": -1, "type": "PRES_VIS", "word": "heart", "wordID": 696, "conditions": [18, 1200, "v", 18000], "trial": 1, "serialpos": 5, "trial_type": "single-stim", "trial_index": 60, "time_elapsed": 414613, "internal_node_id": "0.0-42.0"}}, {"uniqueid": "MTK0290:36WLNQG780H4RH3GFLV811ISKONEBJ", "current_trial": 61, "dateTime": 1510699117705, "trialdata": {"rt": -1, "stimulus": "<p id=\"stim\">BUGGY</p>", "key_press": -1, "type": "PRES_VIS", "word": "buggy", "wordID": 187, "conditions": [18, 1200, "v", 18000], "trial": 1, "serialpos": 6, "trial_type": "single-stim", "trial_index": 61, "time_elapsed": 416798, "internal_node_id": "0.0-43.0"}}, {"uniqueid": "MTK0290:36WLNQG780H4RH3GFLV811ISKONEBJ", "current_trial": 62, "dateTime": 1510699119959, "trialdata": {"rt": -1, "stimulus": "<p id=\"stim\">SPHINX</p>", "key_press": -1, "type": "PRES_VIS", "word": "sphinx", "wordID": 1348, "conditions": [18, 1200, "v", 18000], "trial": 1, "serialpos": 7, "trial_type": "single-stim", "trial_index": 62, "time_elapsed": 419053, "internal_node_id": "0.0-44.0"}}, {"uniqueid": "MTK0290:36WLNQG780H4RH3GFLV811ISKONEBJ", "current_trial": 63, "dateTime": 1510699122223, "trialdata": {"rt": -1, "stimulus": "<p id=\"stim\">FLEET</p>", "key_press": -1, "type": "PRES_VIS", "word": "fleet", "wordID": 577, "conditions": [18, 1200, "v", 18000], "trial": 1, "serialpos": 8, "trial_type": "single-stim", "trial_index": 63, "time_elapsed": 421317, "internal_node_id": "0.0-45.0"}}, {"uniqueid": "MTK0290:36WLNQG780H4RH3GFLV811ISKONEBJ", "current_trial": 64, "dateTime": 1510699124396, "trialdata": {"rt": -1, "stimulus": "<p id=\"stim\">TOMBSTONE</p>", "key_press": -1, "type": "PRES_VIS", "word": "tombstone", "wordID": 1477, "conditions": [18, 1200, "v", 18000], "trial": 1, "serialpos": 9, "trial_type": "single-stim", "trial_index": 64, "time_elapsed": 423490, "internal_node_id": "0.0-46.0"}}, {"uniqueid": "MTK0290:36WLNQG780H4RH3GFLV811ISKONEBJ", "current_trial": 65, "dateTime": 1510699126764, "trialdata": {"rt": -1, "stimulus": "<p id=\"stim\">CONCERT</p>", "key_press": -1, "type": "PRES_VIS", "word": "concert", "wordID": 359, "conditions": [18, 1200, "v", 18000], "trial": 1, "serialpos": 10, "trial_type": "single-stim", "trial_index": 65, "time_elapsed": 425857, "internal_node_id": "0.0-47.0"}}, {"uniqueid": "MTK0290:36WLNQG780H4RH3GFLV811ISKONEBJ", "current_trial": 66, "dateTime": 1510699128970, "trialdata": {"rt": -1, "stimulus": "<p id=\"stim\">CABIN</p>", "key_press": -1, "type": "PRES_VIS", "word": "cabin", "wordID": 210, "conditions": [18, 1200, "v", 18000], "trial": 1, "serialpos": 11, "trial_type": "single-stim", "trial_index": 66, "time_elapsed": 428064, "internal_node_id": "0.0-48.0"}}, {"uniqueid": "MTK0290:36WLNQG780H4RH3GFLV811ISKONEBJ", "current_trial": 67, "dateTime": 1510699131112, "trialdata": {"rt": -1, "stimulus": "<p id=\"stim\">CUPBOARD</p>", "key_press": -1, "type": "PRES_VIS", "word": "cupboard", "wordID": 424, "conditions": [18, 1200, "v", 18000], "trial": 1, "serialpos": 12, "trial_type": "single-stim", "trial_index": 67, "time_elapsed": 430206, "internal_node_id": "0.0-49.0"}}, {"uniqueid": "MTK0290:36WLNQG780H4RH3GFLV811ISKONEBJ", "current_trial": 68, "dateTime": 1510699133491, "trialdata": {"rt": -1, "stimulus": "<p id=\"stim\">ULCER</p>", "key_press": -1, "type": "PRES_VIS", "word": "ulcer", "wordID": 1532, "conditions": [18, 1200, "v", 18000], "trial": 1, "serialpos": 13, "trial_type": "single-stim", "trial_index": 68, "time_elapsed": 432584, "internal_node_id": "0.0-50.0"}}, {"uniqueid": "MTK0290:36WLNQG780H4RH3GFLV811ISKONEBJ", "current_trial": 69, "dateTime": 1510699135771, "trialdata": {"rt": -1, "stimulus": "<p id=\"stim\">MAILMAN</p>", "key_press": -1, "type": "PRES_VIS", "word": "mailman", "wordID": 857, "conditions": [18, 1200, "v", 18000], "trial": 1, "serialpos": 14, "trial_type": "single-stim", "trial_index": 69, "time_elapsed": 434864, "internal_node_id": "0.0-51.0"}}, {"uniqueid": "MTK0290:36WLNQG780H4RH3GFLV811ISKONEBJ", "current_trial": 70, "dateTime": 1510699138183, "trialdata": {"rt": -1, "stimulus": "<p id=\"stim\">PISTOL</p>", "key_press": -1, "type": "PRES_VIS", "word": "pistol", "wordID": 1074, "conditions": [18, 1200, "v", 18000], "trial": 1, "serialpos": 15, "trial_type": "single-stim", "trial_index": 70, "time_elapsed": 437276, "internal_node_id": "0.0-52.0"}}, {"uniqueid": "MTK0290:36WLNQG780H4RH3GFLV811ISKONEBJ", "current_trial": 71, "dateTime": 1510699140533, "trialdata": {"rt": -1, "stimulus": "<p id=\"stim\">GIRL</p>", "key_press": -1, "type": "PRES_VIS", "word": "girl", "wordID": 636, "conditions": [18, 1200, "v", 18000], "trial": 1, "serialpos": 16, "trial_type": "single-stim", "trial_index": 71, "time_elapsed": 439627, "internal_node_id": "0.0-53.0"}}, {"uniqueid": "MTK0290:36WLNQG780H4RH3GFLV811ISKONEBJ", "current_trial": 72, "dateTime": 1510699142845, "trialdata": {"rt": -1, "stimulus": "<p id=\"stim\">PARENT</p>", "key_press": -1, "type": "PRES_VIS", "word": "parent", "wordID": 1012, "conditions": [18, 1200, "v", 18000], "trial": 1, "serialpos": 17, "trial_type": "single-stim", "trial_index": 72, "time_elapsed": 441939, "internal_node_id": "0.0-54.0"}}, {"uniqueid": "MTK0290:36WLNQG780H4RH3GFLV811ISKONEBJ", "current_trial": 73, "dateTime": 1510699145307, "trialdata": {"rt": -1, "stimulus": "", "key_press": -1, "type": "PRE_RECALL_DELAY", "trial_type": "single-stim", "trial_index": 73, "time_elapsed": 444400, "internal_node_id": "0.0-55.0-0.0"}}, {"uniqueid": "MTK0290:36WLNQG780H4RH3GFLV811ISKONEBJ", "current_trial": 74, "dateTime": 1510699145816, "trialdata": {"rt": -1000, "stimulus": "/static/audio/400Hz.wav", "key_press": -1, "type": "PRE_RECALL_ALERT", "trial_type": "single-audio", "trial_index": 74, "time_elapsed": 444909, "internal_node_id": "0.0-56.0"}}, {"uniqueid": "MTK0290:36WLNQG780H4RH3GFLV811ISKONEBJ", "current_trial": 75, "dateTime": 1510699205850, "trialdata": {"rt": [2981, 5624, 10510, 14881, 18533, 21058, 31557, 40438, 47301], "recwords": ["girl", "parent", "cupboard", "cabin", "ulcer", "parent", "cabin", "onion", "fleet"], "type": "FREE_RECALL", "conditions": [18, 1200, "v", 18000], "trial": 1, "trial_type": "free-recall", "trial_index": 75, "time_elapsed": 504932, "internal_node_id": "0.0-57.0-0.0"}}, {"uniqueid": "MTK0290:36WLNQG780H4RH3GFLV811ISKONEBJ", "current_trial": 76, "dateTime": 1510699218565, "trialdata": {"rt": 10690, "key_press": 32, "type": "INSTRUCTIONS", "trial_type": "text", "trial_index": 76, "time_elapsed": 517638, "internal_node_id": "0.0-58.0"}}, {"uniqueid": "MTK0290:36WLNQG780H4RH3GFLV811ISKONEBJ", "current_trial": 77, "dateTime": 1510699231603, "trialdata": {"rt": [3557, 5860, 8021, 10175], "responses": ["23", "14", "12", "19"], "num1": [9, 4, 2, 9, 6], "num2": [8, 4, 7, 5, 8], "num3": [6, 5, 3, 5, 5], "type": "DISTRACTOR", "conditions": [12, 800, "a", 12000], "trial": 2, "trial_type": "math-distractor", "trial_index": 77, "time_elapsed": 530696, "internal_node_id": "0.0-59.0"}}, {"uniqueid": "MTK0290:36WLNQG780H4RH3GFLV811ISKONEBJ", "current_trial": 78, "dateTime": 1510699234644, "trialdata": {"rt": -1, "stimulus": "<p id=\"stim\">10</p>", "key_press": -1, "trial_type": "single-stim", "trial_index": 78, "time_elapsed": 533736, "internal_node_id": "0.0-60.0-0.0"}}, {"uniqueid": "MTK0290:36WLNQG780H4RH3GFLV811ISKONEBJ", "current_trial": 79, "dateTime": 1510699235665, "trialdata": {"rt": -1, "stimulus": "<p id=\"stim\">9</p>", "key_press": -1, "trial_type": "single-stim", "trial_index": 79, "time_elapsed": 534757, "internal_node_id": "0.0-60.0-1.0"}}, {"uniqueid": "MTK0290:36WLNQG780H4RH3GFLV811ISKONEBJ", "current_trial": 80, "dateTime": 1510699236673, "trialdata": {"rt": -1, "stimulus": "<p id=\"stim\">8</p>", "key_press": -1, "trial_type": "single-stim", "trial_index": 80, "time_elapsed": 535766, "internal_node_id": "0.0-60.0-2.0"}}, {"uniqueid": "MTK0290:36WLNQG780H4RH3GFLV811ISKONEBJ", "current_trial": 81, "dateTime": 1510699237676, "trialdata": {"rt": -1, "stimulus": "<p id=\"stim\">7</p>", "key_press": -1, "trial_type": "single-stim", "trial_index": 81, "time_elapsed": 536770, "internal_node_id": "0.0-60.0-3.0"}}, {"uniqueid": "MTK0290:36WLNQG780H4RH3GFLV811ISKONEBJ", "current_trial": 82, "dateTime": 1510699238699, "trialdata": {"rt": -1, "stimulus": "<p id=\"stim\">6</p>", "key_press": -1, "trial_type": "single-stim", "trial_index": 82, "time_elapsed": 537793, "internal_node_id": "0.0-60.0-4.0"}}, {"uniqueid": "MTK0290:36WLNQG780H4RH3GFLV811ISKONEBJ", "current_trial": 83, "dateTime": 1510699239710, "trialdata": {"rt": -1, "stimulus": "<p id=\"stim\">5</p>", "key_press": -1, "trial_type": "single-stim", "trial_index": 83, "time_elapsed": 538804, "internal_node_id": "0.0-60.0-5.0"}}, {"uniqueid": "MTK0290:36WLNQG780H4RH3GFLV811ISKONEBJ", "current_trial": 84, "dateTime": 1510699240731, "trialdata": {"rt": 281, "stimulus": "<p id=\"stim\">4</p>", "key_press": 183, "trial_type": "single-stim", "trial_index": 84, "time_elapsed": 539824, "internal_node_id": "0.0-60.0-6.0"}}, {"uniqueid": "MTK0290:36WLNQG780H4RH3GFLV811ISKONEBJ", "current_trial": 85, "dateTime": 1510699241739, "trialdata": {"rt": -1, "stimulus": "<p id=\"stim\">3</p>", "key_press": -1, "trial_type": "single-stim", "trial_index": 85, "time_elapsed": 540832, "internal_node_id": "0.0-60.0-7.0"}}, {"uniqueid": "MTK0290:36WLNQG780H4RH3GFLV811ISKONEBJ", "current_trial": 86, "dateTime": 1510699242751, "trialdata": {"rt": -1, "stimulus": "<p id=\"stim\">2</p>", "key_press": -1, "trial_type": "single-stim", "trial_index": 86, "time_elapsed": 541845, "internal_node_id": "0.0-60.0-8.0"}}, {"uniqueid": "MTK0290:36WLNQG780H4RH3GFLV811ISKONEBJ", "current_trial": 87, "dateTime": 1510699243760, "trialdata": {"rt": -1, "stimulus": "<p id=\"stim\">1</p>", "key_press": -1, "trial_type": "single-stim", "trial_index": 87, "time_elapsed": 542854, "internal_node_id": "0.0-60.0-9.0"}}, {"uniqueid": "MTK0290:36WLNQG780H4RH3GFLV811ISKONEBJ", "current_trial": 88, "dateTime": 1510699245265, "trialdata": {"rt": -1, "stimulus": "<p id=\"stim\">+</p>", "key_press": -1, "type": "FIXATION", "trial_type": "single-stim", "trial_index": 88, "time_elapsed": 544359, "internal_node_id": "0.0-61.0-0.0"}}, {"uniqueid": "MTK0290:36WLNQG780H4RH3GFLV811ISKONEBJ", "current_trial": 89, "dateTime": 1510699247021, "trialdata": {"rt": -1000, "stimulus": "/static/audio/wordpool/DRIVER.wav", "key_press": -1, "type": "PRES_AUD", "word": "driver", "wordID": 498, "conditions": [12, 800, "a", 12000], "trial": 2, "serialpos": 0, "trial_type": "single-audio", "trial_index": 89, "time_elapsed": 546114, "internal_node_id": "0.0-62.0"}}, {"uniqueid": "MTK0290:36WLNQG780H4RH3GFLV811ISKONEBJ", "current_trial": 90, "dateTime": 1510699248832, "trialdata": {"rt": -1000, "stimulus": "/static/audio/wordpool/CELLAR.wav", "key_press": -1, "type": "PRES_AUD", "word": "cellar", "wordID": 266, "conditions": [12, 800, "a", 12000], "trial": 2, "serialpos": 1, "trial_type": "single-audio", "trial_index": 90, "time_elapsed": 547926, "internal_node_id": "0.0-63.0"}}, {"uniqueid": "MTK0290:36WLNQG780H4RH3GFLV811ISKONEBJ", "current_trial": 91, "dateTime": 1510699250507, "trialdata": {"rt": -1000, "stimulus": "/static/audio/wordpool/SOFTBALL.wav", "key_press": -1, "type": "PRES_AUD", "word": "softball", "wordID": 1342, "conditions": [12, 800, "a", 12000], "trial": 2, "serialpos": 2, "trial_type": "single-audio", "trial_index": 91, "time_elapsed": 549600, "internal_node_id": "0.0-64.0"}}, {"uniqueid": "MTK0290:36WLNQG780H4RH3GFLV811ISKONEBJ", "current_trial": 92, "dateTime": 1510699252214, "trialdata": {"rt": -1000, "stimulus": "/static/audio/wordpool/SHOVEL.wav", "key_press": -1, "type": "PRES_AUD", "word": "shovel", "wordID": 1294, "conditions": [12, 800, "a", 12000], "trial": 2, "serialpos": 3, "trial_type": "single-audio", "trial_index": 92, "time_elapsed": 551307, "internal_node_id": "0.0-65.0"}}, {"uniqueid": "MTK0290:36WLNQG780H4RH3GFLV811ISKONEBJ", "current_trial": 93, "dateTime": 1510699253932, "trialdata": {"rt": -1000, "stimulus": "/static/audio/wordpool/LIVER.wav", "key_press": -1, "type": "PRES_AUD", "word": "liver", "wordID": 832, "conditions": [12, 800, "a", 12000], "trial": 2, "serialpos": 4, "trial_type": "single-audio", "trial_index": 93, "time_elapsed": 553026, "internal_node_id": "0.0-66.0"}}, {"uniqueid": "MTK0290:36WLNQG780H4RH3GFLV811ISKONEBJ", "current_trial": 94, "dateTime": 1510699255549, "trialdata": {"rt": -1000, "stimulus": "/static/audio/wordpool/FOX.wav", "key_press": -1, "type": "PRES_AUD", "word": "fox", "wordID": 597, "conditions": [12, 800, "a", 12000], "trial": 2, "serialpos": 5, "trial_type": "single-audio", "trial_index": 94, "time_elapsed": 554642, "internal_node_id": "0.0-67.0"}}, {"uniqueid": "MTK0290:36WLNQG780H4RH3GFLV811ISKONEBJ", "current_trial": 95, "dateTime": 1510699257283, "trialdata": {"rt": -1000, "stimulus": "/static/audio/wordpool/GAZELLE.wav", "key_press": -1, "type": "PRES_AUD", "word": "gazelle", "wordID": 627, "conditions": [12, 800, "a", 12000], "trial": 2, "serialpos": 6, "trial_type": "single-audio", "trial_index": 95, "time_elapsed": 556377, "internal_node_id": "0.0-68.0"}}, {"uniqueid": "MTK0290:36WLNQG780H4RH3GFLV811ISKONEBJ", "current_trial": 96, "dateTime": 1510699258970, "trialdata": {"rt": -1000, "stimulus": "/static/audio/wordpool/BRIEFCASE.wav", "key_press": -1, "type": "PRES_AUD", "word": "briefcase", "wordID": 174, "conditions": [12, 800, "a", 12000], "trial": 2, "serialpos": 7, "trial_type": "single-audio", "trial_index": 96, "time_elapsed": 558064, "internal_node_id": "0.0-69.0"}}, {"uniqueid": "MTK0290:36WLNQG780H4RH3GFLV811ISKONEBJ", "current_trial": 97, "dateTime": 1510699260825, "trialdata": {"rt": -1000, "stimulus": "/static/audio/wordpool/POLICE.wav", "key_press": -1, "type": "PRES_AUD", "word": "police", "wordID": 1097, "conditions": [12, 800, "a", 12000], "trial": 2, "serialpos": 8, "trial_type": "single-audio", "trial_index": 97, "time_elapsed": 559919, "internal_node_id": "0.0-70.0"}}, {"uniqueid": "MTK0290:36WLNQG780H4RH3GFLV811ISKONEBJ", "current_trial": 98, "dateTime": 1510699262595, "trialdata": {"rt": -1000, "stimulus": "/static/audio/wordpool/PATROL.wav", "key_press": -1, "type": "PRES_AUD", "word": "patrol", "wordID": 1026, "conditions": [12, 800, "a", 12000], "trial": 2, "serialpos": 9, "trial_type": "single-audio", "trial_index": 98, "time_elapsed": 561688, "internal_node_id": "0.0-71.0"}}, {"uniqueid": "MTK0290:36WLNQG780H4RH3GFLV811ISKONEBJ", "current_trial": 99, "dateTime": 1510699264418, "trialdata": {"rt": -1000, "stimulus": "/static/audio/wordpool/BASEMENT.wav", "key_press": -1, "type": "PRES_AUD", "word": "basement", "wordID": 93, "conditions": [12, 800, "a", 12000], "trial": 2, "serialpos": 10, "trial_type": "single-audio", "trial_index": 99, "time_elapsed": 563511, "internal_node_id": "0.0-72.0"}}, {"uniqueid": "MTK0290:36WLNQG780H4RH3GFLV811ISKONEBJ", "current_trial": 100, "dateTime": 1510699266035, "trialdata": {"rt": -1000, "stimulus": "/static/audio/wordpool/MUMMY.wav", "key_press": -1, "type": "PRES_AUD", "word": "mummy", "wordID": 931, "conditions": [12, 800, "a", 12000], "trial": 2, "serialpos": 11, "trial_type": "single-audio", "trial_index": 100, "time_elapsed": 565129, "internal_node_id": "0.0-73.0"}}, {"uniqueid": "MTK0290:36WLNQG780H4RH3GFLV811ISKONEBJ", "current_trial": 101, "dateTime": 1510699267287, "trialdata": {"rt": -1, "stimulus": "", "key_press": -1, "type": "PRE_RECALL_DELAY", "trial_type": "single-stim", "trial_index": 101, "time_elapsed": 566381, "internal_node_id": "0.0-74.0-0.0"}}, {"uniqueid": "MTK0290:36WLNQG780H4RH3GFLV811ISKONEBJ", "current_trial": 102, "dateTime": 1510699267802, "trialdata": {"rt": -1000, "stimulus": "/static/audio/400Hz.wav", "key_press": -1, "type": "PRE_RECALL_ALERT", "trial_type": "single-audio", "trial_index": 102, "time_elapsed": 566896, "internal_node_id": "0.0-75.0"}}, {"uniqueid": "MTK0290:36WLNQG780H4RH3GFLV811ISKONEBJ", "current_trial": 103, "dateTime": 1510699327841, "trialdata": {"rt": [3670, 8080, 11324, 15860, 19736, 22607, 25933, 33753, 57456], "recwords": ["basement", "fox", "gazelle", "mummy", "patrol", "police", "shovel", "pistol", "liver"], "type": "FREE_RECALL", "conditions": [12, 800, "a", 12000], "trial": 2, "trial_type": "free-recall", "trial_index": 103, "time_elapsed": 626927, "internal_node_id": "0.0-76.0-0.0"}}, {"uniqueid": "MTK0290:36WLNQG780H4RH3GFLV811ISKONEBJ", "current_trial": 104, "dateTime": 1510699331423, "trialdata": {"rt": 1563, "key_press": 32, "type": "INSTRUCTIONS", "trial_type": "text", "trial_index": 104, "time_elapsed": 630516, "internal_node_id": "0.0-77.0"}}, {"uniqueid": "MTK0290:36WLNQG780H4RH3GFLV811ISKONEBJ", "current_trial": 105, "dateTime": 1510699357443, "trialdata": {"rt": [2063, 4677, 8382, 11526, 13778, 16543, 18769, 21290, 23816], "responses": ["13", "14", "16", "16", "14", "21", "19", "11", "11"], "num1": [6, 8, 1, 5, 1, 6, 5, 2, 7, 7], "num2": [5, 5, 6, 3, 4, 9, 6, 3, 2, 8], "num3": [2, 1, 9, 8, 9, 6, 8, 6, 2, 7], "type": "DISTRACTOR", "conditions": [24, 800, "a", 24000], "trial": 3, "trial_type": "math-distractor", "trial_index": 105, "time_elapsed": 656537, "internal_node_id": "0.0-78.0"}}, {"uniqueid": "MTK0290:36WLNQG780H4RH3GFLV811ISKONEBJ", "current_trial": 106, "dateTime": 1510699360464, "trialdata": {"rt": -1, "stimulus": "<p id=\"stim\">10</p>", "key_press": -1, "trial_type": "single-stim", "trial_index": 106, "time_elapsed": 659556, "internal_node_id": "0.0-79.0-0.0"}}, {"uniqueid": "MTK0290:36WLNQG780H4RH3GFLV811ISKONEBJ", "current_trial": 107, "dateTime": 1510699361478, "trialdata": {"rt": -1, "stimulus": "<p id=\"stim\">9</p>", "key_press": -1, "trial_type": "single-stim", "trial_index": 107, "time_elapsed": 660571, "internal_node_id": "0.0-79.0-1.0"}}, {"uniqueid": "MTK0290:36WLNQG780H4RH3GFLV811ISKONEBJ", "current_trial": 108, "dateTime": 1510699362491, "trialdata": {"rt": -1, "stimulus": "<p id=\"stim\">8</p>", "key_press": -1, "trial_type": "single-stim", "trial_index": 108, "time_elapsed": 661584, "internal_node_id": "0.0-79.0-2.0"}}, {"uniqueid": "MTK0290:36WLNQG780H4RH3GFLV811ISKONEBJ", "current_trial": 109, "dateTime": 1510699363504, "trialdata": {"rt": -1, "stimulus": "<p id=\"stim\">7</p>", "key_press": -1, "trial_type": "single-stim", "trial_index": 109, "time_elapsed": 662598, "internal_node_id": "0.0-79.0-3.0"}}, {"uniqueid": "MTK0290:36WLNQG780H4RH3GFLV811ISKONEBJ", "current_trial": 110, "dateTime": 1510699364524, "trialdata": {"rt": -1, "stimulus": "<p id=\"stim\">6</p>", "key_press": -1, "trial_type": "single-stim", "trial_index": 110, "time_elapsed": 663617, "internal_node_id": "0.0-79.0-4.0"}}, {"uniqueid": "MTK0290:36WLNQG780H4RH3GFLV811ISKONEBJ", "current_trial": 111, "dateTime": 1510699365552, "trialdata": {"rt": -1, "stimulus": "<p id=\"stim\">5</p>", "key_press": -1, "trial_type": "single-stim", "trial_index": 111, "time_elapsed": 664646, "internal_node_id": "0.0-79.0-5.0"}}, {"uniqueid": "MTK0290:36WLNQG780H4RH3GFLV811ISKONEBJ", "current_trial": 112, "dateTime": 1510699366575, "trialdata": {"rt": -1, "stimulus": "<p id=\"stim\">4</p>", "key_press": -1, "trial_type": "single-stim", "trial_index": 112, "time_elapsed": 665669, "internal_node_id": "0.0-79.0-6.0"}}, {"uniqueid": "MTK0290:36WLNQG780H4RH3GFLV811ISKONEBJ", "current_trial": 113, "dateTime": 1510699367586, "trialdata": {"rt": -1, "stimulus": "<p id=\"stim\">3</p>", "key_press": -1, "trial_type": "single-stim", "trial_index": 113, "time_elapsed": 666678, "internal_node_id": "0.0-79.0-7.0"}}, {"uniqueid": "MTK0290:36WLNQG780H4RH3GFLV811ISKONEBJ", "current_trial": 114, "dateTime": 1510699368598, "trialdata": {"rt": -1, "stimulus": "<p id=\"stim\">2</p>", "key_press": -1, "trial_type": "single-stim", "trial_index": 114, "time_elapsed": 667692, "internal_node_id": "0.0-79.0-8.0"}}, {"uniqueid": "MTK0290:36WLNQG780H4RH3GFLV811ISKONEBJ", "current_trial": 115, "dateTime": 1510699369601, "trialdata": {"rt": -1, "stimulus": "<p id=\"stim\">1</p>", "key_press": -1, "trial_type": "single-stim", "trial_index": 115, "time_elapsed": 668695, "internal_node_id": "0.0-79.0-9.0"}}, {"uniqueid": "MTK0290:36WLNQG780H4RH3GFLV811ISKONEBJ", "current_trial": 116, "dateTime": 1510699371113, "trialdata": {"rt": -1, "stimulus": "<p id=\"stim\">+</p>", "key_press": -1, "type": "FIXATION", "trial_type": "single-stim", "trial_index": 116, "time_elapsed": 670207, "internal_node_id": "0.0-80.0-0.0"}}, {"uniqueid": "MTK0290:36WLNQG780H4RH3GFLV811ISKONEBJ", "current_trial": 117, "dateTime": 1510699372782, "trialdata": {"rt": -1000, "stimulus": "/static/audio/wordpool/GUARD.wav", "key_press": -1, "type": "PRES_AUD", "word": "guard", "wordID": 666, "conditions": [24, 800, "a", 24000], "trial": 3, "serialpos": 0, "trial_type": "single-audio", "trial_index": 117, "time_elapsed": 671875, "internal_node_id": "0.0-81.0"}}, {"uniqueid": "MTK0290:36WLNQG780H4RH3GFLV811ISKONEBJ", "current_trial": 118, "dateTime": 1510699374717, "trialdata": {"rt": -1000, "stimulus": "/static/audio/wordpool/FRIEND.wav", "key_press": -1, "type": "PRES_AUD", "word": "friend", "wordID": 605, "conditions": [24, 800, "a", 24000], "trial": 3, "serialpos": 1, "trial_type": "single-audio", "trial_index": 118, "time_elapsed": 673811, "internal_node_id": "0.0-82.0"}}, {"uniqueid": "MTK0290:36WLNQG780H4RH3GFLV811ISKONEBJ", "current_trial": 119, "dateTime": 1510699376696, "trialdata": {"rt": -1000, "stimulus": "/static/audio/wordpool/DOUGHNUT.wav", "key_press": -1, "type": "PRES_AUD", "word": "doughnut", "wordID": 489, "conditions": [24, 800, "a", 24000], "trial": 3, "serialpos": 2, "trial_type": "single-audio", "trial_index": 119, "time_elapsed": 675790, "internal_node_id": "0.0-83.0"}}, {"uniqueid": "MTK0290:36WLNQG780H4RH3GFLV811ISKONEBJ", "current_trial": 120, "dateTime": 1510699378507, "trialdata": {"rt": -1000, "stimulus": "/static/audio/wordpool/ZEBRA.wav", "key_press": -1, "type": "PRES_AUD", "word": "zebra", "wordID": 1634, "conditions": [24, 800, "a", 24000], "trial": 3, "serialpos": 3, "trial_type": "single-audio", "trial_index": 120, "time_elapsed": 677601, "internal_node_id": "0.0-84.0"}}, {"uniqueid": "MTK0290:36WLNQG780H4RH3GFLV811ISKONEBJ", "current_trial": 121, "dateTime": 1510699380337, "trialdata": {"rt": -1000, "stimulus": "/static/audio/wordpool/CLOTHES.wav", "key_press": -1, "type": "PRES_AUD", "word": "clothes", "wordID": 326, "conditions": [24, 800, "a", 24000], "trial": 3, "serialpos": 4, "trial_type": "single-audio", "trial_index": 121, "time_elapsed": 679430, "internal_node_id": "0.0-85.0"}}, {"uniqueid": "MTK0290:36WLNQG780H4RH3GFLV811ISKONEBJ", "current_trial": 122, "dateTime": 1510699382237, "trialdata": {"rt": -1000, "stimulus": "/static/audio/wordpool/SCISSORS.wav", "key_press": -1, "type": "PRES_AUD", "word": "scissors", "wordID": 1249, "conditions": [24, 800, "a", 24000], "trial": 3, "serialpos": 5, "trial_type": "single-audio", "trial_index": 122, "time_elapsed": 681331, "internal_node_id": "0.0-86.0"}}, {"uniqueid": "MTK0290:36WLNQG780H4RH3GFLV811ISKONEBJ", "current_trial": 123, "dateTime": 1510699384080, "trialdata": {"rt": -1000, "stimulus": "/static/audio/wordpool/SHRUB.wav", "key_press": -1, "type": "PRES_AUD", "word": "shrub", "wordID": 1298, "conditions": [24, 800, "a", 24000], "trial": 3, "serialpos": 6, "trial_type": "single-audio", "trial_index": 123, "time_elapsed": 683174, "internal_node_id": "0.0-87.0"}}, {"uniqueid": "MTK0290:36WLNQG780H4RH3GFLV811ISKONEBJ", "current_trial": 124, "dateTime": 1510699386026, "trialdata": {"rt": -1000, "stimulus": "/static/audio/wordpool/SPARROW.wav", "key_press": -1, "type": "PRES_AUD", "word": "sparrow", "wordID": 1346, "conditions": [24, 800, "a", 24000], "trial": 3, "serialpos": 7, "trial_type": "single-audio", "trial_index": 124, "time_elapsed": 685119, "internal_node_id": "0.0-88.0"}}, {"uniqueid": "MTK0290:36WLNQG780H4RH3GFLV811ISKONEBJ", "current_trial": 125, "dateTime": 1510699388011, "trialdata": {"rt": -1000, "stimulus": "/static/audio/wordpool/GLOBE.wav", "key_press": -1, "type": "PRES_AUD", "word": "globe", "wordID": 640, "conditions": [24, 800, "a", 24000], "trial": 3, "serialpos": 8, "trial_type": "single-audio", "trial_index": 125, "time_elapsed": 687105, "internal_node_id": "0.0-89.0"}}, {"uniqueid": "MTK0290:36WLNQG780H4RH3GFLV811ISKONEBJ", "current_trial": 126, "dateTime": 1510699389676, "trialdata": {"rt": -1000, "stimulus": "/static/audio/wordpool/GARDEN.wav", "key_press": -1, "type": "PRES_AUD", "word": "garden", "wordID": 622, "conditions": [24, 800, "a", 24000], "trial": 3, "serialpos": 9, "trial_type": "single-audio", "trial_index": 126, "time_elapsed": 688770, "internal_node_id": "0.0-90.0"}}, {"uniqueid": "MTK0290:36WLNQG780H4RH3GFLV811ISKONEBJ", "current_trial": 127, "dateTime": 1510699391355, "trialdata": {"rt": -1000, "stimulus": "/static/audio/wordpool/BABY.wav", "key_press": -1, "type": "PRES_AUD", "word": "baby", "wordID": 63, "conditions": [24, 800, "a", 24000], "trial": 3, "serialpos": 10, "trial_type": "single-audio", "trial_index": 127, "time_elapsed": 690447, "internal_node_id": "0.0-91.0"}}, {"uniqueid": "MTK0290:36WLNQG780H4RH3GFLV811ISKONEBJ", "current_trial": 128, "dateTime": 1510699393005, "trialdata": {"rt": -1000, "stimulus": "/static/audio/wordpool/CHILD.wav", "key_press": -1, "type": "PRES_AUD", "word": "child", "wordID": 298, "conditions": [24, 800, "a", 24000], "trial": 3, "serialpos": 11, "trial_type": "single-audio", "trial_index": 128, "time_elapsed": 692097, "internal_node_id": "0.0-92.0"}}, {"uniqueid": "MTK0290:36WLNQG780H4RH3GFLV811ISKONEBJ", "current_trial": 129, "dateTime": 1510699394861, "trialdata": {"rt": -1000, "stimulus": "/static/audio/wordpool/SLIDE.wav", "key_press": -1, "type": "PRES_AUD", "word": "slide", "wordID": 1325, "conditions": [24, 800, "a", 24000], "trial": 3, "serialpos": 12, "trial_type": "single-audio", "trial_index": 129, "time_elapsed": 693954, "internal_node_id": "0.0-93.0"}}, {"uniqueid": "MTK0290:36WLNQG780H4RH3GFLV811ISKONEBJ", "current_trial": 130, "dateTime": 1510699396607, "trialdata": {"rt": -1000, "stimulus": "/static/audio/wordpool/MAMMAL.wav", "key_press": -1, "type": "PRES_AUD", "word": "mammal", "wordID": 860, "conditions": [24, 800, "a", 24000], "trial": 3, "serialpos": 13, "trial_type": "single-audio", "trial_index": 130, "time_elapsed": 695701, "internal_node_id": "0.0-94.0"}}, {"uniqueid": "MTK0290:36WLNQG780H4RH3GFLV811ISKONEBJ", "current_trial": 131, "dateTime": 1510699398470, "trialdata": {"rt": -1000, "stimulus": "/static/audio/wordpool/JELLY.wav", "key_press": -1, "type": "PRES_AUD", "word": "jelly", "wordID": 754, "conditions": [24, 800, "a", 24000], "trial": 3, "serialpos": 14, "trial_type": "single-audio", "trial_index": 131, "time_elapsed": 697563, "internal_node_id": "0.0-95.0"}}, {"uniqueid": "MTK0290:36WLNQG780H4RH3GFLV811ISKONEBJ", "current_trial": 132, "dateTime": 1510699400204, "trialdata": {"rt": -1000, "stimulus": "/static/audio/wordpool/SKIRT.wav", "key_press": -1, "type": "PRES_AUD", "word": "skirt", "wordID": 1318, "conditions": [24, 800, "a", 24000], "trial": 3, "serialpos": 15, "trial_type": "single-audio", "trial_index": 132, "time_elapsed": 699296, "internal_node_id": "0.0-96.0"}}, {"uniqueid": "MTK0290:36WLNQG780H4RH3GFLV811ISKONEBJ", "current_trial": 133, "dateTime": 1510699402058, "trialdata": {"rt": -1000, "stimulus": "/static/audio/wordpool/THREAD.wav", "key_press": -1, "type": "PRES_AUD", "word": "thread", "wordID": 1459, "conditions": [24, 800, "a", 24000], "trial": 3, "serialpos": 16, "trial_type": "single-audio", "trial_index": 133, "time_elapsed": 701150, "internal_node_id": "0.0-97.0"}}, {"uniqueid": "MTK0290:36WLNQG780H4RH3GFLV811ISKONEBJ", "current_trial": 134, "dateTime": 1510699404000, "trialdata": {"rt": -1000, "stimulus": "/static/audio/wordpool/LOFT.wav", "key_press": -1, "type": "PRES_AUD", "word": "loft", "wordID": 839, "conditions": [24, 800, "a", 24000], "trial": 3, "serialpos": 17, "trial_type": "single-audio", "trial_index": 134, "time_elapsed": 703093, "internal_node_id": "0.0-98.0"}}, {"uniqueid": "MTK0290:36WLNQG780H4RH3GFLV811ISKONEBJ", "current_trial": 135, "dateTime": 1510699405826, "trialdata": {"rt": -1000, "stimulus": "/static/audio/wordpool/CREVICE.wav", "key_press": -1, "type": "PRES_AUD", "word": "crevice", "wordID": 404, "conditions": [24, 800, "a", 24000], "trial": 3, "serialpos": 18, "trial_type": "single-audio", "trial_index": 135, "time_elapsed": 704920, "internal_node_id": "0.0-99.0"}}, {"uniqueid": "MTK0290:36WLNQG780H4RH3GFLV811ISKONEBJ", "current_trial": 136, "dateTime": 1510699407556, "trialdata": {"rt": -1000, "stimulus": "/static/audio/wordpool/JELLO.wav", "key_press": -1, "type": "PRES_AUD", "word": "jello", "wordID": 753, "conditions": [24, 800, "a", 24000], "trial": 3, "serialpos": 19, "trial_type": "single-audio", "trial_index": 136, "time_elapsed": 706650, "internal_node_id": "0.0-100.0"}}, {"uniqueid": "MTK0290:36WLNQG780H4RH3GFLV811ISKONEBJ", "current_trial": 137, "dateTime": 1510699409301, "trialdata": {"rt": -1000, "stimulus": "/static/audio/wordpool/COOK.wav", "key_press": -1, "type": "PRES_AUD", "word": "cook", "wordID": 371, "conditions": [24, 800, "a", 24000], "trial": 3, "serialpos": 20, "trial_type": "single-audio", "trial_index": 137, "time_elapsed": 708394, "internal_node_id": "0.0-101.0"}}, {"uniqueid": "MTK0290:36WLNQG780H4RH3GFLV811ISKONEBJ", "current_trial": 138, "dateTime": 1510699411305, "trialdata": {"rt": -1000, "stimulus": "/static/audio/wordpool/MESSAGE.wav", "key_press": -1, "type": "PRES_AUD", "word": "message", "wordID": 887, "conditions": [24, 800, "a", 24000], "trial": 3, "serialpos": 21, "trial_type": "single-audio", "trial_index": 138, "time_elapsed": 710399, "internal_node_id": "0.0-102.0"}}, {"uniqueid": "MTK0290:36WLNQG780H4RH3GFLV811ISKONEBJ", "current_trial": 139, "dateTime": 1510699412989, "trialdata": {"rt": -1000, "stimulus": "/static/audio/wordpool/BURGLAR.wav", "key_press": -1, "type": "PRES_AUD", "word": "burglar", "wordID": 199, "conditions": [24, 800, "a", 24000], "trial": 3, "serialpos": 22, "trial_type": "single-audio", "trial_index": 139, "time_elapsed": 712083, "internal_node_id": "0.0-103.0"}}, {"uniqueid": "MTK0290:36WLNQG780H4RH3GFLV811ISKONEBJ", "current_trial": 140, "dateTime": 1510699414651, "trialdata": {"rt": -1000, "stimulus": "/static/audio/wordpool/THIEF.wav", "key_press": -1, "type": "PRES_AUD", "word": "thief", "wordID": 1455, "conditions": [24, 800, "a", 24000], "trial": 3, "serialpos": 23, "trial_type": "single-audio", "trial_index": 140, "time_elapsed": 713745, "internal_node_id": "0.0-104.0"}}, {"uniqueid": "MTK0290:36WLNQG780H4RH3GFLV811ISKONEBJ", "current_trial": 141, "dateTime": 1510699415977, "trialdata": {"rt": -1, "stimulus": "", "key_press": -1, "type": "PRE_RECALL_DELAY", "trial_type": "single-stim", "trial_index": 141, "time_elapsed": 715070, "internal_node_id": "0.0-105.0-0.0"}}, {"uniqueid": "MTK0290:36WLNQG780H4RH3GFLV811ISKONEBJ", "current_trial": 142, "dateTime": 1510699416487, "trialdata": {"rt": -1000, "stimulus": "/static/audio/400Hz.wav", "key_press": -1, "type": "PRE_RECALL_ALERT", "trial_type": "single-audio", "trial_index": 142, "time_elapsed": 715580, "internal_node_id": "0.0-106.0"}}, {"uniqueid": "MTK0290:36WLNQG780H4RH3GFLV811ISKONEBJ", "current_trial": 143, "dateTime": 1510699476517, "trialdata": {"rt": [6095, 8889, 11561, 13554, 15757, 18456, 20785, 23854, 27898, 31191, 59645], "recwords": ["burglar", "thief", "baby", "jello", "cook", "guard", "frien", "friend", "donut", "zebra", "scissors"], "type": "FREE_RECALL", "conditions": [24, 800, "a", 24000], "trial": 3, "trial_type": "free-recall", "trial_index": 143, "time_elapsed": 775596, "internal_node_id": "0.0-107.0-0.0"}}, {"uniqueid": "MTK0290:36WLNQG780H4RH3GFLV811ISKONEBJ", "current_trial": 144, "dateTime": 1510699479838, "trialdata": {"rt": 1316, "key_press": 32, "type": "INSTRUCTIONS", "trial_type": "text", "trial_index": 144, "time_elapsed": 778931, "internal_node_id": "0.0-108.0"}}, {"uniqueid": "MTK0290:36WLNQG780H4RH3GFLV811ISKONEBJ", "current_trial": 145, "dateTime": 1510699505850, "trialdata": {"rt": [3564, 6790, 8778, 10903, 13291, 17624, 20328, 23106], "responses": ["16", "14", "15", "18", "18", "23", "15", "22"], "num1": [3, 8, 7, 8, 4, 9, 8, 4, 2], "num2": [9, 3, 2, 9, 8, 8, 3, 9, 4], "num3": [4, 3, 6, 1, 6, 6, 4, 9, 8], "type": "DISTRACTOR", "conditions": [12, 800, "a", 24000], "trial": 4, "trial_type": "math-distractor", "trial_index": 145, "time_elapsed": 804942, "internal_node_id": "0.0-109.0"}}, {"uniqueid": "MTK0290:36WLNQG780H4RH3GFLV811ISKONEBJ", "current_trial": 146, "dateTime": 1510699508865, "trialdata": {"rt": -1, "stimulus": "<p id=\"stim\">10</p>", "key_press": -1, "trial_type": "single-stim", "trial_index": 146, "time_elapsed": 807958, "internal_node_id": "0.0-110.0-0.0"}}, {"uniqueid": "MTK0290:36WLNQG780H4RH3GFLV811ISKONEBJ", "current_trial": 147, "dateTime": 1510699509877, "trialdata": {"rt": -1, "stimulus": "<p id=\"stim\">9</p>", "key_press": -1, "trial_type": "single-stim", "trial_index": 147, "time_elapsed": 808970, "internal_node_id": "0.0-110.0-1.0"}}, {"uniqueid": "MTK0290:36WLNQG780H4RH3GFLV811ISKONEBJ", "current_trial": 148, "dateTime": 1510699510883, "trialdata": {"rt": -1, "stimulus": "<p id=\"stim\">8</p>", "key_press": -1, "trial_type": "single-stim", "trial_index": 148, "time_elapsed": 809976, "internal_node_id": "0.0-110.0-2.0"}}, {"uniqueid": "MTK0290:36WLNQG780H4RH3GFLV811ISKONEBJ", "current_trial": 149, "dateTime": 1510699511885, "trialdata": {"rt": -1, "stimulus": "<p id=\"stim\">7</p>", "key_press": -1, "trial_type": "single-stim", "trial_index": 149, "time_elapsed": 810978, "internal_node_id": "0.0-110.0-3.0"}}, {"uniqueid": "MTK0290:36WLNQG780H4RH3GFLV811ISKONEBJ", "current_trial": 150, "dateTime": 1510699512892, "trialdata": {"rt": -1, "stimulus": "<p id=\"stim\">6</p>", "key_press": -1, "trial_type": "single-stim", "trial_index": 150, "time_elapsed": 811986, "internal_node_id": "0.0-110.0-4.0"}}, {"uniqueid": "MTK0290:36WLNQG780H4RH3GFLV811ISKONEBJ", "current_trial": 151, "dateTime": 1510699513908, "trialdata": {"rt": -1, "stimulus": "<p id=\"stim\">5</p>", "key_press": -1, "trial_type": "single-stim", "trial_index": 151, "time_elapsed": 813001, "internal_node_id": "0.0-110.0-5.0"}}, {"uniqueid": "MTK0290:36WLNQG780H4RH3GFLV811ISKONEBJ", "current_trial": 152, "dateTime": 1510699514912, "trialdata": {"rt": -1, "stimulus": "<p id=\"stim\">4</p>", "key_press": -1, "trial_type": "single-stim", "trial_index": 152, "time_elapsed": 814005, "internal_node_id": "0.0-110.0-6.0"}}, {"uniqueid": "MTK0290:36WLNQG780H4RH3GFLV811ISKONEBJ", "current_trial": 153, "dateTime": 1510699515926, "trialdata": {"rt": -1, "stimulus": "<p id=\"stim\">3</p>", "key_press": -1, "trial_type": "single-stim", "trial_index": 153, "time_elapsed": 815019, "internal_node_id": "0.0-110.0-7.0"}}, {"uniqueid": "MTK0290:36WLNQG780H4RH3GFLV811ISKONEBJ", "current_trial": 154, "dateTime": 1510699516936, "trialdata": {"rt": -1, "stimulus": "<p id=\"stim\">2</p>", "key_press": -1, "trial_type": "single-stim", "trial_index": 154, "time_elapsed": 816028, "internal_node_id": "0.0-110.0-8.0"}}, {"uniqueid": "MTK0290:36WLNQG780H4RH3GFLV811ISKONEBJ", "current_trial": 155, "dateTime": 1510699517952, "trialdata": {"rt": -1, "stimulus": "<p id=\"stim\">1</p>", "key_press": -1, "trial_type": "single-stim", "trial_index": 155, "time_elapsed": 817046, "internal_node_id": "0.0-110.0-9.0"}}, {"uniqueid": "MTK0290:36WLNQG780H4RH3GFLV811ISKONEBJ", "current_trial": 156, "dateTime": 1510699519468, "trialdata": {"rt": -1, "stimulus": "<p id=\"stim\">+</p>", "key_press": -1, "type": "FIXATION", "trial_type": "single-stim", "trial_index": 156, "time_elapsed": 818562, "internal_node_id": "0.0-111.0-0.0"}}, {"uniqueid": "MTK0290:36WLNQG780H4RH3GFLV811ISKONEBJ", "current_trial": 157, "dateTime": 1510699521421, "trialdata": {"rt": -1000, "stimulus": "/static/audio/wordpool/GRILL.wav", "key_press": -1, "type": "PRES_AUD", "word": "grill", "wordID": 660, "conditions": [12, 800, "a", 24000], "trial": 4, "serialpos": 0, "trial_type": "single-audio", "trial_index": 157, "time_elapsed": 820515, "internal_node_id": "0.0-112.0"}}, {"uniqueid": "MTK0290:36WLNQG780H4RH3GFLV811ISKONEBJ", "current_trial": 158, "dateTime": 1510699523335, "trialdata": {"rt": -1000, "stimulus": "/static/audio/wordpool/FARMER.wav", "key_press": -1, "type": "PRES_AUD", "word": "farmer", "wordID": 552, "conditions": [12, 800, "a", 24000], "trial": 4, "serialpos": 1, "trial_type": "single-audio", "trial_index": 158, "time_elapsed": 822429, "internal_node_id": "0.0-113.0"}}, {"uniqueid": "MTK0290:36WLNQG780H4RH3GFLV811ISKONEBJ", "current_trial": 159, "dateTime": 1510699525329, "trialdata": {"rt": -1000, "stimulus": "/static/audio/wordpool/VELVET.wav", "key_press": -1, "type": "PRES_AUD", "word": "velvet", "wordID": 1554, "conditions": [12, 800, "a", 24000], "trial": 4, "serialpos": 2, "trial_type": "single-audio", "trial_index": 159, "time_elapsed": 824422, "internal_node_id": "0.0-114.0"}}, {"uniqueid": "MTK0290:36WLNQG780H4RH3GFLV811ISKONEBJ", "current_trial": 160, "dateTime": 1510699527206, "trialdata": {"rt": -1000, "stimulus": "/static/audio/wordpool/RACKET.wav", "key_press": -1, "type": "PRES_AUD", "word": "racket", "wordID": 1154, "conditions": [12, 800, "a", 24000], "trial": 4, "serialpos": 3, "trial_type": "single-audio", "trial_index": 160, "time_elapsed": 826300, "internal_node_id": "0.0-115.0"}}, {"uniqueid": "MTK0290:36WLNQG780H4RH3GFLV811ISKONEBJ", "current_trial": 161, "dateTime": 1510699529185, "trialdata": {"rt": -1000, "stimulus": "/static/audio/wordpool/LUGGAGE.wav", "key_press": -1, "type": "PRES_AUD", "word": "luggage", "wordID": 846, "conditions": [12, 800, "a", 24000], "trial": 4, "serialpos": 4, "trial_type": "single-audio", "trial_index": 161, "time_elapsed": 828279, "internal_node_id": "0.0-116.0"}}, {"uniqueid": "MTK0290:36WLNQG780H4RH3GFLV811ISKONEBJ", "current_trial": 162, "dateTime": 1510699530933, "trialdata": {"rt": -1000, "stimulus": "/static/audio/wordpool/SUMMIT.wav", "key_press": -1, "type": "PRES_AUD", "word": "summit", "wordID": 1404, "conditions": [12, 800, "a", 24000], "trial": 4, "serialpos": 5, "trial_type": "single-audio", "trial_index": 162, "time_elapsed": 830027, "internal_node_id": "0.0-117.0"}}, {"uniqueid": "MTK0290:36WLNQG780H4RH3GFLV811ISKONEBJ", "current_trial": 163, "dateTime": 1510699532798, "trialdata": {"rt": -1000, "stimulus": "/static/audio/wordpool/STOVE.wav", "key_press": -1, "type": "PRES_AUD", "word": "stove", "wordID": 1387, "conditions": [12, 800, "a", 24000], "trial": 4, "serialpos": 6, "trial_type": "single-audio", "trial_index": 163, "time_elapsed": 831892, "internal_node_id": "0.0-118.0"}}, {"uniqueid": "MTK0290:36WLNQG780H4RH3GFLV811ISKONEBJ", "current_trial": 164, "dateTime": 1510699534735, "trialdata": {"rt": -1000, "stimulus": "/static/audio/wordpool/RADISH.wav", "key_press": -1, "type": "PRES_AUD", "word": "radish", "wordID": 1157, "conditions": [12, 800, "a", 24000], "trial": 4, "serialpos": 7, "trial_type": "single-audio", "trial_index": 164, "time_elapsed": 833829, "internal_node_id": "0.0-119.0"}}, {"uniqueid": "MTK0290:36WLNQG780H4RH3GFLV811ISKONEBJ", "current_trial": 165, "dateTime": 1510699536525, "trialdata": {"rt": -1000, "stimulus": "/static/audio/wordpool/EGYPT.wav", "key_press": -1, "type": "PRES_AUD", "word": "egypt", "wordID": 518, "conditions": [12, 800, "a", 24000], "trial": 4, "serialpos": 8, "trial_type": "single-audio", "trial_index": 165, "time_elapsed": 835619, "internal_node_id": "0.0-120.0"}}, {"uniqueid": "MTK0290:36WLNQG780H4RH3GFLV811ISKONEBJ", "current_trial": 166, "dateTime": 1510699538457, "trialdata": {"rt": -1000, "stimulus": "/static/audio/wordpool/MISTER.wav", "key_press": -1, "type": "PRES_AUD", "word": "mister", "wordID": 900, "conditions": [12, 800, "a", 24000], "trial": 4, "serialpos": 9, "trial_type": "single-audio", "trial_index": 166, "time_elapsed": 837551, "internal_node_id": "0.0-121.0"}}, {"uniqueid": "MTK0290:36WLNQG780H4RH3GFLV811ISKONEBJ", "current_trial": 167, "dateTime": 1510699540241, "trialdata": {"rt": -1000, "stimulus": "/static/audio/wordpool/HANDBAG.wav", "key_press": -1, "type": "PRES_AUD", "word": "handbag", "wordID": 683, "conditions": [12, 800, "a", 24000], "trial": 4, "serialpos": 10, "trial_type": "single-audio", "trial_index": 167, "time_elapsed": 839335, "internal_node_id": "0.0-122.0"}}, {"uniqueid": "MTK0290:36WLNQG780H4RH3GFLV811ISKONEBJ", "current_trial": 168, "dateTime": 1510699542041, "trialdata": {"rt": -1000, "stimulus": "/static/audio/wordpool/NECKLACE.wav", "key_press": -1, "type": "PRES_AUD", "word": "necklace", "wordID": 939, "conditions": [12, 800, "a", 24000], "trial": 4, "serialpos": 11, "trial_type": "single-audio", "trial_index": 168, "time_elapsed": 841135, "internal_node_id": "0.0-123.0"}}, {"uniqueid": "MTK0290:36WLNQG780H4RH3GFLV811ISKONEBJ", "current_trial": 169, "dateTime": 1510699543285, "trialdata": {"rt": -1, "stimulus": "", "key_press": -1, "type": "PRE_RECALL_DELAY", "trial_type": "single-stim", "trial_index": 169, "time_elapsed": 842378, "internal_node_id": "0.0-124.0-0.0"}}, {"uniqueid": "MTK0290:36WLNQG780H4RH3GFLV811ISKONEBJ", "current_trial": 170, "dateTime": 1510699543795, "trialdata": {"rt": -1000, "stimulus": "/static/audio/400Hz.wav", "key_press": -1, "type": "PRE_RECALL_ALERT", "trial_type": "single-audio", "trial_index": 170, "time_elapsed": 842888, "internal_node_id": "0.0-125.0"}}, {"uniqueid": "MTK0290:36WLNQG780H4RH3GFLV811ISKONEBJ", "current_trial": 171, "dateTime": 1510699603824, "trialdata": {"rt": [1960, 7073, 10925, 16584, 19262, 34729, 38615], "recwords": ["grill", "necklace", "handbag", "lettuce", "luggage", "racket", "tennis"], "type": "FREE_RECALL", "conditions": [12, 800, "a", 24000], "trial": 4, "trial_type": "free-recall", "trial_index": 171, "time_elapsed": 902905, "internal_node_id": "0.0-126.0-0.0"}}, {"uniqueid": "MTK0290:36WLNQG780H4RH3GFLV811ISKONEBJ", "current_trial": 172, "dateTime": 1510699606812, "trialdata": {"rt": 986, "key_press": 32, "type": "INSTRUCTIONS", "trial_type": "text", "trial_index": 172, "time_elapsed": 905905, "internal_node_id": "0.0-127.0"}}, {"uniqueid": "MTK0290:36WLNQG780H4RH3GFLV811ISKONEBJ", "current_trial": 173, "dateTime": 1510699620847, "trialdata": {"rt": [3983, 6526, 9356, 11424], "responses": ["10", "16", "16", "18"], "num1": [2, 5, 9, 5, 6], "num2": [6, 9, 4, 6, 4], "num3": [2, 2, 3, 7, 9], "type": "DISTRACTOR", "conditions": [24, 1600, "v", 12000], "trial": 5, "trial_type": "math-distractor", "trial_index": 173, "time_elapsed": 919940, "internal_node_id": "0.0-128.0"}}, {"uniqueid": "MTK0290:36WLNQG780H4RH3GFLV811ISKONEBJ", "current_trial": 174, "dateTime": 1510699623855, "trialdata": {"rt": -1, "stimulus": "<p id=\"stim\">10</p>", "key_press": -1, "trial_type": "single-stim", "trial_index": 174, "time_elapsed": 922947, "internal_node_id": "0.0-129.0-0.0"}}, {"uniqueid": "MTK0290:36WLNQG780H4RH3GFLV811ISKONEBJ", "current_trial": 175, "dateTime": 1510699624865, "trialdata": {"rt": -1, "stimulus": "<p id=\"stim\">9</p>", "key_press": -1, "trial_type": "single-stim", "trial_index": 175, "time_elapsed": 923958, "internal_node_id": "0.0-129.0-1.0"}}, {"uniqueid": "MTK0290:36WLNQG780H4RH3GFLV811ISKONEBJ", "current_trial": 176, "dateTime": 1510699625871, "trialdata": {"rt": -1, "stimulus": "<p id=\"stim\">8</p>", "key_press": -1, "trial_type": "single-stim", "trial_index": 176, "time_elapsed": 924963, "internal_node_id": "0.0-129.0-2.0"}}, {"uniqueid": "MTK0290:36WLNQG780H4RH3GFLV811ISKONEBJ", "current_trial": 177, "dateTime": 1510699626882, "trialdata": {"rt": -1, "stimulus": "<p id=\"stim\">7</p>", "key_press": -1, "trial_type": "single-stim", "trial_index": 177, "time_elapsed": 925975, "internal_node_id": "0.0-129.0-3.0"}}, {"uniqueid": "MTK0290:36WLNQG780H4RH3GFLV811ISKONEBJ", "current_trial": 178, "dateTime": 1510699627887, "trialdata": {"rt": -1, "stimulus": "<p id=\"stim\">6</p>", "key_press": -1, "trial_type": "single-stim", "trial_index": 178, "time_elapsed": 926980, "internal_node_id": "0.0-129.0-4.0"}}, {"uniqueid": "MTK0290:36WLNQG780H4RH3GFLV811ISKONEBJ", "current_trial": 179, "dateTime": 1510699628893, "trialdata": {"rt": -1, "stimulus": "<p id=\"stim\">5</p>", "key_press": -1, "trial_type": "single-stim", "trial_index": 179, "time_elapsed": 927987, "internal_node_id": "0.0-129.0-5.0"}}, {"uniqueid": "MTK0290:36WLNQG780H4RH3GFLV811ISKONEBJ", "current_trial": 180, "dateTime": 1510699629895, "trialdata": {"rt": -1, "stimulus": "<p id=\"stim\">4</p>", "key_press": -1, "trial_type": "single-stim", "trial_index": 180, "time_elapsed": 928989, "internal_node_id": "0.0-129.0-6.0"}}, {"uniqueid": "MTK0290:36WLNQG780H4RH3GFLV811ISKONEBJ", "current_trial": 181, "dateTime": 1510699630901, "trialdata": {"rt": -1, "stimulus": "<p id=\"stim\">3</p>", "key_press": -1, "trial_type": "single-stim", "trial_index": 181, "time_elapsed": 929994, "internal_node_id": "0.0-129.0-7.0"}}, {"uniqueid": "MTK0290:36WLNQG780H4RH3GFLV811ISKONEBJ", "current_trial": 182, "dateTime": 1510699631913, "trialdata": {"rt": -1, "stimulus": "<p id=\"stim\">2</p>", "key_press": -1, "trial_type": "single-stim", "trial_index": 182, "time_elapsed": 931007, "internal_node_id": "0.0-129.0-8.0"}}, {"uniqueid": "MTK0290:36WLNQG780H4RH3GFLV811ISKONEBJ", "current_trial": 183, "dateTime": 1510699632921, "trialdata": {"rt": -1, "stimulus": "<p id=\"stim\">1</p>", "key_press": -1, "trial_type": "single-stim", "trial_index": 183, "time_elapsed": 932014, "internal_node_id": "0.0-129.0-9.0"}}, {"uniqueid": "MTK0290:36WLNQG780H4RH3GFLV811ISKONEBJ", "current_trial": 184, "dateTime": 1510699634427, "trialdata": {"rt": -1, "stimulus": "<p id=\"stim\">+</p>", "key_press": -1, "type": "FIXATION", "trial_type": "single-stim", "trial_index": 184, "time_elapsed": 933521, "internal_node_id": "0.0-130.0-0.0"}}, {"uniqueid": "MTK0290:36WLNQG780H4RH3GFLV811ISKONEBJ", "current_trial": 185, "dateTime": 1510699636029, "trialdata": {"rt": -1, "stimulus": "<p id=\"stim\">WRIST</p>", "key_press": -1, "type": "PRES_VIS", "word": "wrist", "wordID": 1625, "conditions": [24, 1600, "v", 12000], "trial": 5, "serialpos": 0, "trial_type": "single-stim", "trial_index": 185, "time_elapsed": 935123, "internal_node_id": "0.0-131.0"}}, {"uniqueid": "MTK0290:36WLNQG780H4RH3GFLV811ISKONEBJ", "current_trial": 186, "dateTime": 1510699638612, "trialdata": {"rt": -1, "stimulus": "<p id=\"stim\">REBEL</p>", "key_press": -1, "type": "PRES_VIS", "word": "rebel", "wordID": 1171, "conditions": [24, 1600, "v", 12000], "trial": 5, "serialpos": 1, "trial_type": "single-stim", "trial_index": 186, "time_elapsed": 937704, "internal_node_id": "0.0-132.0"}}, {"uniqueid": "MTK0290:36WLNQG780H4RH3GFLV811ISKONEBJ", "current_trial": 187, "dateTime": 1510699641285, "trialdata": {"rt": -1, "stimulus": "<p id=\"stim\">LAPEL</p>", "key_press": -1, "type": "PRES_VIS", "word": "lapel", "wordID": 799, "conditions": [24, 1600, "v", 12000], "trial": 5, "serialpos": 2, "trial_type": "single-stim", "trial_index": 187, "time_elapsed": 940377, "internal_node_id": "0.0-133.0"}}, {"uniqueid": "MTK0290:36WLNQG780H4RH3GFLV811ISKONEBJ", "current_trial": 188, "dateTime": 1510699643925, "trialdata": {"rt": -1, "stimulus": "<p id=\"stim\">MUFFIN</p>", "key_press": -1, "type": "PRES_VIS", "word": "muffin", "wordID": 928, "conditions": [24, 1600, "v", 12000], "trial": 5, "serialpos": 3, "trial_type": "single-stim", "trial_index": 188, "time_elapsed": 943017, "internal_node_id": "0.0-134.0"}}, {"uniqueid": "MTK0290:36WLNQG780H4RH3GFLV811ISKONEBJ", "current_trial": 189, "dateTime": 1510699646403, "trialdata": {"rt": -1, "stimulus": "<p id=\"stim\">FLUTE</p>", "key_press": -1, "type": "PRES_VIS", "word": "flute", "wordID": 584, "conditions": [24, 1600, "v", 12000], "trial": 5, "serialpos": 4, "trial_type": "single-stim", "trial_index": 189, "time_elapsed": 945497, "internal_node_id": "0.0-135.0"}}, {"uniqueid": "MTK0290:36WLNQG780H4RH3GFLV811ISKONEBJ", "current_trial": 190, "dateTime": 1510699649059, "trialdata": {"rt": -1, "stimulus": "<p id=\"stim\">CATCHER</p>", "key_press": -1, "type": "PRES_VIS", "word": "catcher", "wordID": 257, "conditions": [24, 1600, "v", 12000], "trial": 5, "serialpos": 5, "trial_type": "single-stim", "trial_index": 190, "time_elapsed": 948152, "internal_node_id": "0.0-136.0"}}, {"uniqueid": "MTK0290:36WLNQG780H4RH3GFLV811ISKONEBJ", "current_trial": 191, "dateTime": 1510699651719, "trialdata": {"rt": -1, "stimulus": "<p id=\"stim\">SANDWICH</p>", "key_press": -1, "type": "PRES_VIS", "word": "sandwich", "wordID": 1231, "conditions": [24, 1600, "v", 12000], "trial": 5, "serialpos": 6, "trial_type": "single-stim", "trial_index": 191, "time_elapsed": 950812, "internal_node_id": "0.0-137.0"}}, {"uniqueid": "MTK0290:36WLNQG780H4RH3GFLV811ISKONEBJ", "current_trial": 192, "dateTime": 1510699654260, "trialdata": {"rt": -1, "stimulus": "<p id=\"stim\">BARLEY</p>", "key_press": -1, "type": "PRES_VIS", "word": "barley", "wordID": 87, "conditions": [24, 1600, "v", 12000], "trial": 5, "serialpos": 7, "trial_type": "single-stim", "trial_index": 192, "time_elapsed": 953354, "internal_node_id": "0.0-138.0"}}, {"uniqueid": "MTK0290:36WLNQG780H4RH3GFLV811ISKONEBJ", "current_trial": 193, "dateTime": 1510699656811, "trialdata": {"rt": -1, "stimulus": "<p id=\"stim\">DONOR</p>", "key_press": -1, "type": "PRES_VIS", "word": "donor", "wordID": 484, "conditions": [24, 1600, "v", 12000], "trial": 5, "serialpos": 8, "trial_type": "single-stim", "trial_index": 193, "time_elapsed": 955904, "internal_node_id": "0.0-139.0"}}, {"uniqueid": "MTK0290:36WLNQG780H4RH3GFLV811ISKONEBJ", "current_trial": 194, "dateTime": 1510699659550, "trialdata": {"rt": -1, "stimulus": "<p id=\"stim\">SUITCASE</p>", "key_press": -1, "type": "PRES_VIS", "word": "suitcase", "wordID": 1402, "conditions": [24, 1600, "v", 12000], "trial": 5, "serialpos": 9, "trial_type": "single-stim", "trial_index": 194, "time_elapsed": 958644, "internal_node_id": "0.0-140.0"}}, {"uniqueid": "MTK0290:36WLNQG780H4RH3GFLV811ISKONEBJ", "current_trial": 195, "dateTime": 1510699662226, "trialdata": {"rt": -1, "stimulus": "<p id=\"stim\">KNAPSACK</p>", "key_press": -1, "type": "PRES_VIS", "word": "knapsack", "wordID": 782, "conditions": [24, 1600, "v", 12000], "trial": 5, "serialpos": 10, "trial_type": "single-stim", "trial_index": 195, "time_elapsed": 961319, "internal_node_id": "0.0-141.0"}}, {"uniqueid": "MTK0290:36WLNQG780H4RH3GFLV811ISKONEBJ", "current_trial": 196, "dateTime": 1510699664788, "trialdata": {"rt": -1, "stimulus": "<p id=\"stim\">SIBLING</p>", "key_press": -1, "type": "PRES_VIS", "word": "sibling", "wordID": 1300, "conditions": [24, 1600, "v", 12000], "trial": 5, "serialpos": 11, "trial_type": "single-stim", "trial_index": 196, "time_elapsed": 963880, "internal_node_id": "0.0-142.0"}}, {"uniqueid": "MTK0290:36WLNQG780H4RH3GFLV811ISKONEBJ", "current_trial": 197, "dateTime": 1510699667469, "trialdata": {"rt": -1, "stimulus": "<p id=\"stim\">BUTCHER</p>", "key_press": -1, "type": "PRES_VIS", "word": "butcher", "wordID": 202, "conditions": [24, 1600, "v", 12000], "trial": 5, "serialpos": 12, "trial_type": "single-stim", "trial_index": 197, "time_elapsed": 966562, "internal_node_id": "0.0-143.0"}}, {"uniqueid": "MTK0290:36WLNQG780H4RH3GFLV811ISKONEBJ", "current_trial": 198, "dateTime": 1510699669924, "trialdata": {"rt": -1, "stimulus": "<p id=\"stim\">VIRUS</p>", "key_press": -1, "type": "PRES_VIS", "word": "virus", "wordID": 1571, "conditions": [24, 1600, "v", 12000], "trial": 5, "serialpos": 13, "trial_type": "single-stim", "trial_index": 198, "time_elapsed": 969018, "internal_node_id": "0.0-144.0"}}, {"uniqueid": "MTK0290:36WLNQG780H4RH3GFLV811ISKONEBJ", "current_trial": 199, "dateTime": 1510699672467, "trialdata": {"rt": -1, "stimulus": "<p id=\"stim\">BUG</p>", "key_press": -1, "type": "PRES_VIS", "word": "bug", "wordID": 186, "conditions": [24, 1600, "v", 12000], "trial": 5, "serialpos": 14, "trial_type": "single-stim", "trial_index": 199, "time_elapsed": 971560, "internal_node_id": "0.0-145.0"}}, {"uniqueid": "MTK0290:36WLNQG780H4RH3GFLV811ISKONEBJ", "current_trial": 200, "dateTime": 1510699674883, "trialdata": {"rt": -1, "stimulus": "<p id=\"stim\">PICTURE</p>", "key_press": -1, "type": "PRES_VIS", "word": "picture", "wordID": 1060, "conditions": [24, 1600, "v", 12000], "trial": 5, "serialpos": 15, "trial_type": "single-stim", "trial_index": 200, "time_elapsed": 973976, "internal_node_id": "0.0-146.0"}}, {"uniqueid": "MTK0290:36WLNQG780H4RH3GFLV811ISKONEBJ", "current_trial": 201, "dateTime": 1510699677528, "trialdata": {"rt": -1, "stimulus": "<p id=\"stim\">COUCH</p>", "key_press": -1, "type": "PRES_VIS", "word": "couch", "wordID": 385, "conditions": [24, 1600, "v", 12000], "trial": 5, "serialpos": 16, "trial_type": "single-stim", "trial_index": 201, "time_elapsed": 976621, "internal_node_id": "0.0-147.0"}}, {"uniqueid": "MTK0290:36WLNQG780H4RH3GFLV811ISKONEBJ", "current_trial": 202, "dateTime": 1510699680094, "trialdata": {"rt": -1, "stimulus": "<p id=\"stim\">TEACHER</p>", "key_press": -1, "type": "PRES_VIS", "word": "teacher", "wordID": 1439, "conditions": [24, 1600, "v", 12000], "trial": 5, "serialpos": 17, "trial_type": "single-stim", "trial_index": 202, "time_elapsed": 979188, "internal_node_id": "0.0-148.0"}}, {"uniqueid": "MTK0290:36WLNQG780H4RH3GFLV811ISKONEBJ", "current_trial": 203, "dateTime": 1510699682692, "trialdata": {"rt": -1, "stimulus": "<p id=\"stim\">HARP</p>", "key_press": -1, "type": "PRES_VIS", "word": "harp", "wordID": 688, "conditions": [24, 1600, "v", 12000], "trial": 5, "serialpos": 18, "trial_type": "single-stim", "trial_index": 203, "time_elapsed": 981786, "internal_node_id": "0.0-149.0"}}, {"uniqueid": "MTK0290:36WLNQG780H4RH3GFLV811ISKONEBJ", "current_trial": 204, "dateTime": 1510699685253, "trialdata": {"rt": -1, "stimulus": "<p id=\"stim\">BLENDER</p>", "key_press": -1, "type": "PRES_VIS", "word": "blender", "wordID": 135, "conditions": [24, 1600, "v", 12000], "trial": 5, "serialpos": 19, "trial_type": "single-stim", "trial_index": 204, "time_elapsed": 984347, "internal_node_id": "0.0-150.0"}}, {"uniqueid": "MTK0290:36WLNQG780H4RH3GFLV811ISKONEBJ", "current_trial": 205, "dateTime": 1510699687959, "trialdata": {"rt": -1, "stimulus": "<p id=\"stim\">PORTRAIT</p>", "key_press": -1, "type": "PRES_VIS", "word": "portrait", "wordID": 1110, "conditions": [24, 1600, "v", 12000], "trial": 5, "serialpos": 20, "trial_type": "single-stim", "trial_index": 205, "time_elapsed": 987053, "internal_node_id": "0.0-151.0"}}, {"uniqueid": "MTK0290:36WLNQG780H4RH3GFLV811ISKONEBJ", "current_trial": 206, "dateTime": 1510699690498, "trialdata": {"rt": -1, "stimulus": "<p id=\"stim\">PEACH</p>", "key_press": -1, "type": "PRES_VIS", "word": "peach", "wordID": 1030, "conditions": [24, 1600, "v", 12000], "trial": 5, "serialpos": 21, "trial_type": "single-stim", "trial_index": 206, "time_elapsed": 989591, "internal_node_id": "0.0-152.0"}}, {"uniqueid": "MTK0290:36WLNQG780H4RH3GFLV811ISKONEBJ", "current_trial": 207, "dateTime": 1510699692953, "trialdata": {"rt": -1, "stimulus": "<p id=\"stim\">GROUND</p>", "key_press": -1, "type": "PRES_VIS", "word": "ground", "wordID": 665, "conditions": [24, 1600, "v", 12000], "trial": 5, "serialpos": 22, "trial_type": "single-stim", "trial_index": 207, "time_elapsed": 992046, "internal_node_id": "0.0-153.0"}}, {"uniqueid": "MTK0290:36WLNQG780H4RH3GFLV811ISKONEBJ", "current_trial": 208, "dateTime": 1510699695447, "trialdata": {"rt": -1, "stimulus": "<p id=\"stim\">RUST</p>", "key_press": -1, "type": "PRES_VIS", "word": "rust", "wordID": 1218, "conditions": [24, 1600, "v", 12000], "trial": 5, "serialpos": 23, "trial_type": "single-stim", "trial_index": 208, "time_elapsed": 994541, "internal_node_id": "0.0-154.0"}}, {"uniqueid": "MTK0290:36WLNQG780H4RH3GFLV811ISKONEBJ", "current_trial": 209, "dateTime": 1510699697555, "trialdata": {"rt": -1, "stimulus": "", "key_press": -1, "type": "PRE_RECALL_DELAY", "trial_type": "single-stim", "trial_index": 209, "time_elapsed": 996648, "internal_node_id": "0.0-155.0-0.0"}}, {"uniqueid": "MTK0290:36WLNQG780H4RH3GFLV811ISKONEBJ", "current_trial": 210, "dateTime": 1510699698063, "trialdata": {"rt": -1000, "stimulus": "/static/audio/400Hz.wav", "key_press": -1, "type": "PRE_RECALL_ALERT", "trial_type": "single-audio", "trial_index": 210, "time_elapsed": 997156, "internal_node_id": "0.0-156.0"}}, {"uniqueid": "MTK0290:36WLNQG780H4RH3GFLV811ISKONEBJ", "current_trial": 211, "dateTime": 1510699758101, "trialdata": {"rt": [1970, 4858, 8667, 16299, 20072, 27354, 33344], "recwords": ["rust", "ground", "suitcase", "butcher", "lapel", "teacher", "suitcase"], "type": "FREE_RECALL", "conditions": [24, 1600, "v", 12000], "trial": 5, "trial_type": "free-recall", "trial_index": 211, "time_elapsed": 1057185, "internal_node_id": "0.0-157.0-0.0"}}, {"uniqueid": "MTK0290:36WLNQG780H4RH3GFLV811ISKONEBJ", "current_trial": 212, "dateTime": 1510699761546, "trialdata": {"rt": 1439, "key_press": 32, "type": "INSTRUCTIONS", "trial_type": "text", "trial_index": 212, "time_elapsed": 1060638, "internal_node_id": "0.0-158.0"}}, {"uniqueid": "MTK0290:36WLNQG780H4RH3GFLV811ISKONEBJ", "current_trial": 213, "dateTime": 1510699775559, "trialdata": {"rt": [2767, 4893, 7376, 9989], "responses": ["15", "19", "16", "6"], "num1": [6, 6, 8, 1, 1], "num2": [3, 6, 2, 3, 2], "num3": [6, 7, 6, 2, 4], "type": "DISTRACTOR", "conditions": [24, 1600, "a", 12000], "trial": 6, "trial_type": "math-distractor", "trial_index": 213, "time_elapsed": 1074652, "internal_node_id": "0.0-159.0"}}, {"uniqueid": "MTK0290:36WLNQG780H4RH3GFLV811ISKONEBJ", "current_trial": 214, "dateTime": 1510699778570, "trialdata": {"rt": -1, "stimulus": "<p id=\"stim\">10</p>", "key_press": -1, "trial_type": "single-stim", "trial_index": 214, "time_elapsed": 1077662, "internal_node_id": "0.0-160.0-0.0"}}, {"uniqueid": "MTK0290:36WLNQG780H4RH3GFLV811ISKONEBJ", "current_trial": 215, "dateTime": 1510699779575, "trialdata": {"rt": -1, "stimulus": "<p id=\"stim\">9</p>", "key_press": -1, "trial_type": "single-stim", "trial_index": 215, "time_elapsed": 1078669, "internal_node_id": "0.0-160.0-1.0"}}, {"uniqueid": "MTK0290:36WLNQG780H4RH3GFLV811ISKONEBJ", "current_trial": 216, "dateTime": 1510699780579, "trialdata": {"rt": -1, "stimulus": "<p id=\"stim\">8</p>", "key_press": -1, "trial_type": "single-stim", "trial_index": 216, "time_elapsed": 1079672, "internal_node_id": "0.0-160.0-2.0"}}, {"uniqueid": "MTK0290:36WLNQG780H4RH3GFLV811ISKONEBJ", "current_trial": 217, "dateTime": 1510699781586, "trialdata": {"rt": -1, "stimulus": "<p id=\"stim\">7</p>", "key_press": -1, "trial_type": "single-stim", "trial_index": 217, "time_elapsed": 1080679, "internal_node_id": "0.0-160.0-3.0"}}, {"uniqueid": "MTK0290:36WLNQG780H4RH3GFLV811ISKONEBJ", "current_trial": 218, "dateTime": 1510699782588, "trialdata": {"rt": -1, "stimulus": "<p id=\"stim\">6</p>", "key_press": -1, "trial_type": "single-stim", "trial_index": 218, "time_elapsed": 1081682, "internal_node_id": "0.0-160.0-4.0"}}, {"uniqueid": "MTK0290:36WLNQG780H4RH3GFLV811ISKONEBJ", "current_trial": 219, "dateTime": 1510699783595, "trialdata": {"rt": -1, "stimulus": "<p id=\"stim\">5</p>", "key_press": -1, "trial_type": "single-stim", "trial_index": 219, "time_elapsed": 1082689, "internal_node_id": "0.0-160.0-5.0"}}, {"uniqueid": "MTK0290:36WLNQG780H4RH3GFLV811ISKONEBJ", "current_trial": 220, "dateTime": 1510699784600, "trialdata": {"rt": -1, "stimulus": "<p id=\"stim\">4</p>", "key_press": -1, "trial_type": "single-stim", "trial_index": 220, "time_elapsed": 1083693, "internal_node_id": "0.0-160.0-6.0"}}, {"uniqueid": "MTK0290:36WLNQG780H4RH3GFLV811ISKONEBJ", "current_trial": 221, "dateTime": 1510699785615, "trialdata": {"rt": -1, "stimulus": "<p id=\"stim\">3</p>", "key_press": -1, "trial_type": "single-stim", "trial_index": 221, "time_elapsed": 1084707, "internal_node_id": "0.0-160.0-7.0"}}, {"uniqueid": "MTK0290:36WLNQG780H4RH3GFLV811ISKONEBJ", "current_trial": 222, "dateTime": 1510699786623, "trialdata": {"rt": -1, "stimulus": "<p id=\"stim\">2</p>", "key_press": -1, "trial_type": "single-stim", "trial_index": 222, "time_elapsed": 1085716, "internal_node_id": "0.0-160.0-8.0"}}, {"uniqueid": "MTK0290:36WLNQG780H4RH3GFLV811ISKONEBJ", "current_trial": 223, "dateTime": 1510699787627, "trialdata": {"rt": -1, "stimulus": "<p id=\"stim\">1</p>", "key_press": -1, "trial_type": "single-stim", "trial_index": 223, "time_elapsed": 1086721, "internal_node_id": "0.0-160.0-9.0"}}, {"uniqueid": "MTK0290:36WLNQG780H4RH3GFLV811ISKONEBJ", "current_trial": 224, "dateTime": 1510699789139, "trialdata": {"rt": -1, "stimulus": "<p id=\"stim\">+</p>", "key_press": -1, "type": "FIXATION", "trial_type": "single-stim", "trial_index": 224, "time_elapsed": 1088232, "internal_node_id": "0.0-161.0-0.0"}}, {"uniqueid": "MTK0290:36WLNQG780H4RH3GFLV811ISKONEBJ", "current_trial": 225, "dateTime": 1510699791564, "trialdata": {"rt": -1000, "stimulus": "/static/audio/wordpool/COUSIN.wav", "key_press": -1, "type": "PRES_AUD", "word": "cousin", "wordID": 391, "conditions": [24, 1600, "a", 12000], "trial": 6, "serialpos": 0, "trial_type": "single-audio", "trial_index": 225, "time_elapsed": 1090657, "internal_node_id": "0.0-162.0"}}, {"uniqueid": "MTK0290:36WLNQG780H4RH3GFLV811ISKONEBJ", "current_trial": 226, "dateTime": 1510699794331, "trialdata": {"rt": -1000, "stimulus": "/static/audio/wordpool/PLASTER.wav", "key_press": -1, "type": "PRES_AUD", "word": "plaster", "wordID": 1084, "conditions": [24, 1600, "a", 12000], "trial": 6, "serialpos": 1, "trial_type": "single-audio", "trial_index": 226, "time_elapsed": 1093424, "internal_node_id": "0.0-163.0"}}, {"uniqueid": "MTK0290:36WLNQG780H4RH3GFLV811ISKONEBJ", "current_trial": 227, "dateTime": 1510699796748, "trialdata": {"rt": -1000, "stimulus": "/static/audio/wordpool/YACHT.wav", "key_press": -1, "type": "PRES_AUD", "word": "yacht", "wordID": 1628, "conditions": [24, 1600, "a", 12000], "trial": 6, "serialpos": 2, "trial_type": "single-audio", "trial_index": 227, "time_elapsed": 1095842, "internal_node_id": "0.0-164.0"}}, {"uniqueid": "MTK0290:36WLNQG780H4RH3GFLV811ISKONEBJ", "current_trial": 228, "dateTime": 1510699799175, "trialdata": {"rt": -1000, "stimulus": "/static/audio/wordpool/PILOT.wav", "key_press": -1, "type": "PRES_AUD", "word": "pilot", "wordID": 1069, "conditions": [24, 1600, "a", 12000], "trial": 6, "serialpos": 3, "trial_type": "single-audio", "trial_index": 228, "time_elapsed": 1098268, "internal_node_id": "0.0-165.0"}}, {"uniqueid": "MTK0290:36WLNQG780H4RH3GFLV811ISKONEBJ", "current_trial": 229, "dateTime": 1510699801648, "trialdata": {"rt": -1000, "stimulus": "/static/audio/wordpool/CONTRACT.wav", "key_press": -1, "type": "PRES_AUD", "word": "contract", "wordID": 367, "conditions": [24, 1600, "a", 12000], "trial": 6, "serialpos": 4, "trial_type": "single-audio", "trial_index": 229, "time_elapsed": 1100741, "internal_node_id": "0.0-166.0"}}, {"uniqueid": "MTK0290:36WLNQG780H4RH3GFLV811ISKONEBJ", "current_trial": 230, "dateTime": 1510699804158, "trialdata": {"rt": -1000, "stimulus": "/static/audio/wordpool/SKILLET.wav", "key_press": -1, "type": "PRES_AUD", "word": "skillet", "wordID": 1316, "conditions": [24, 1600, "a", 12000], "trial": 6, "serialpos": 5, "trial_type": "single-audio", "trial_index": 230, "time_elapsed": 1103251, "internal_node_id": "0.0-167.0"}}, {"uniqueid": "MTK0290:36WLNQG780H4RH3GFLV811ISKONEBJ", "current_trial": 231, "dateTime": 1510699806775, "trialdata": {"rt": -1000, "stimulus": "/static/audio/wordpool/SPOON.wav", "key_press": -1, "type": "PRES_AUD", "word": "spoon", "wordID": 1356, "conditions": [24, 1600, "a", 12000], "trial": 6, "serialpos": 6, "trial_type": "single-audio", "trial_index": 231, "time_elapsed": 1105869, "internal_node_id": "0.0-168.0"}}, {"uniqueid": "MTK0290:36WLNQG780H4RH3GFLV811ISKONEBJ", "current_trial": 232, "dateTime": 1510699809289, "trialdata": {"rt": -1000, "stimulus": "/static/audio/wordpool/WIDOW.wav", "key_press": -1, "type": "PRES_AUD", "word": "widow", "wordID": 1607, "conditions": [24, 1600, "a", 12000], "trial": 6, "serialpos": 7, "trial_type": "single-audio", "trial_index": 232, "time_elapsed": 1108382, "internal_node_id": "0.0-169.0"}}, {"uniqueid": "MTK0290:36WLNQG780H4RH3GFLV811ISKONEBJ", "current_trial": 233, "dateTime": 1510699811721, "trialdata": {"rt": -1000, "stimulus": "/static/audio/wordpool/PASTRY.wav", "key_press": -1, "type": "PRES_AUD", "word": "pastry", "wordID": 1021, "conditions": [24, 1600, "a", 12000], "trial": 6, "serialpos": 8, "trial_type": "single-audio", "trial_index": 233, "time_elapsed": 1110815, "internal_node_id": "0.0-170.0"}}, {"uniqueid": "MTK0290:36WLNQG780H4RH3GFLV811ISKONEBJ", "current_trial": 234, "dateTime": 1510699814248, "trialdata": {"rt": -1000, "stimulus": "/static/audio/wordpool/SODA.wav", "key_press": -1, "type": "PRES_AUD", "word": "soda", "wordID": 1340, "conditions": [24, 1600, "a", 12000], "trial": 6, "serialpos": 9, "trial_type": "single-audio", "trial_index": 234, "time_elapsed": 1113341, "internal_node_id": "0.0-171.0"}}, {"uniqueid": "MTK0290:36WLNQG780H4RH3GFLV811ISKONEBJ", "current_trial": 235, "dateTime": 1510699816692, "trialdata": {"rt": -1000, "stimulus": "/static/audio/wordpool/BOYFRIEND.wav", "key_press": -1, "type": "PRES_AUD", "word": "boyfriend", "wordID": 161, "conditions": [24, 1600, "a", 12000], "trial": 6, "serialpos": 10, "trial_type": "single-audio", "trial_index": 235, "time_elapsed": 1115785, "internal_node_id": "0.0-172.0"}}, {"uniqueid": "MTK0290:36WLNQG780H4RH3GFLV811ISKONEBJ", "current_trial": 236, "dateTime": 1510699819435, "trialdata": {"rt": -1000, "stimulus": "/static/audio/wordpool/PERMIT.wav", "key_press": -1, "type": "PRES_AUD", "word": "permit", "wordID": 1050, "conditions": [24, 1600, "a", 12000], "trial": 6, "serialpos": 11, "trial_type": "single-audio", "trial_index": 236, "time_elapsed": 1118526, "internal_node_id": "0.0-173.0"}}, {"uniqueid": "MTK0290:36WLNQG780H4RH3GFLV811ISKONEBJ", "current_trial": 237, "dateTime": 1510699821909, "trialdata": {"rt": -1000, "stimulus": "/static/audio/wordpool/WITNESS.wav", "key_press": -1, "type": "PRES_AUD", "word": "witness", "wordID": 1617, "conditions": [24, 1600, "a", 12000], "trial": 6, "serialpos": 12, "trial_type": "single-audio", "trial_index": 237, "time_elapsed": 1121001, "internal_node_id": "0.0-174.0"}}, {"uniqueid": "MTK0290:36WLNQG780H4RH3GFLV811ISKONEBJ", "current_trial": 238, "dateTime": 1510699824654, "trialdata": {"rt": -1000, "stimulus": "/static/audio/wordpool/ROBIN.wav", "key_press": -1, "type": "PRES_AUD", "word": "robin", "wordID": 1198, "conditions": [24, 1600, "a", 12000], "trial": 6, "serialpos": 13, "trial_type": "single-audio", "trial_index": 238, "time_elapsed": 1123748, "internal_node_id": "0.0-175.0"}}, {"uniqueid": "MTK0290:36WLNQG780H4RH3GFLV811ISKONEBJ", "current_trial": 239, "dateTime": 1510699827357, "trialdata": {"rt": -1000, "stimulus": "/static/audio/wordpool/BACON.wav", "key_press": -1, "type": "PRES_AUD", "word": "bacon", "wordID": 66, "conditions": [24, 1600, "a", 12000], "trial": 6, "serialpos": 14, "trial_type": "single-audio", "trial_index": 239, "time_elapsed": 1126450, "internal_node_id": "0.0-176.0"}}, {"uniqueid": "MTK0290:36WLNQG780H4RH3GFLV811ISKONEBJ", "current_trial": 240, "dateTime": 1510699830075, "trialdata": {"rt": -1000, "stimulus": "/static/audio/wordpool/FILM.wav", "key_press": -1, "type": "PRES_AUD", "word": "film", "wordID": 564, "conditions": [24, 1600, "a", 12000], "trial": 6, "serialpos": 15, "trial_type": "single-audio", "trial_index": 240, "time_elapsed": 1129168, "internal_node_id": "0.0-177.0"}}, {"uniqueid": "MTK0290:36WLNQG780H4RH3GFLV811ISKONEBJ", "current_trial": 241, "dateTime": 1510699832797, "trialdata": {"rt": -1000, "stimulus": "/static/audio/wordpool/POSSUM.wav", "key_press": -1, "type": "PRES_AUD", "word": "possum", "wordID": 1111, "conditions": [24, 1600, "a", 12000], "trial": 6, "serialpos": 16, "trial_type": "single-audio", "trial_index": 241, "time_elapsed": 1131890, "internal_node_id": "0.0-178.0"}}, {"uniqueid": "MTK0290:36WLNQG780H4RH3GFLV811ISKONEBJ", "current_trial": 242, "dateTime": 1510699835544, "trialdata": {"rt": -1000, "stimulus": "/static/audio/wordpool/SNAKE.wav", "key_press": -1, "type": "PRES_AUD", "word": "snake", "wordID": 1332, "conditions": [24, 1600, "a", 12000], "trial": 6, "serialpos": 17, "trial_type": "single-audio", "trial_index": 242, "time_elapsed": 1134637, "internal_node_id": "0.0-179.0"}}, {"uniqueid": "MTK0290:36WLNQG780H4RH3GFLV811ISKONEBJ", "current_trial": 243, "dateTime": 1510699838219, "trialdata": {"rt": -1000, "stimulus": "/static/audio/wordpool/ACTOR.wav", "key_press": -1, "type": "PRES_AUD", "word": "actor", "wordID": 4, "conditions": [24, 1600, "a", 12000], "trial": 6, "serialpos": 18, "trial_type": "single-audio", "trial_index": 243, "time_elapsed": 1137312, "internal_node_id": "0.0-180.0"}}, {"uniqueid": "MTK0290:36WLNQG780H4RH3GFLV811ISKONEBJ", "current_trial": 244, "dateTime": 1510699840968, "trialdata": {"rt": -1000, "stimulus": "/static/audio/wordpool/SHARK.wav", "key_press": -1, "type": "PRES_AUD", "word": "shark", "wordID": 1274, "conditions": [24, 1600, "a", 12000], "trial": 6, "serialpos": 19, "trial_type": "single-audio", "trial_index": 244, "time_elapsed": 1140061, "internal_node_id": "0.0-181.0"}}, {"uniqueid": "MTK0290:36WLNQG780H4RH3GFLV811ISKONEBJ", "current_trial": 245, "dateTime": 1510699843393, "trialdata": {"rt": -1000, "stimulus": "/static/audio/wordpool/CROWN.wav", "key_press": -1, "type": "PRES_AUD", "word": "crown", "wordID": 414, "conditions": [24, 1600, "a", 12000], "trial": 6, "serialpos": 20, "trial_type": "single-audio", "trial_index": 245, "time_elapsed": 1142485, "internal_node_id": "0.0-182.0"}}, {"uniqueid": "MTK0290:36WLNQG780H4RH3GFLV811ISKONEBJ", "current_trial": 246, "dateTime": 1510699845868, "trialdata": {"rt": -1000, "stimulus": "/static/audio/wordpool/CHAPEL.wav", "key_press": -1, "type": "PRES_AUD", "word": "chapel", "wordID": 279, "conditions": [24, 1600, "a", 12000], "trial": 6, "serialpos": 21, "trial_type": "single-audio", "trial_index": 246, "time_elapsed": 1144961, "internal_node_id": "0.0-183.0"}}, {"uniqueid": "MTK0290:36WLNQG780H4RH3GFLV811ISKONEBJ", "current_trial": 247, "dateTime": 1510699848323, "trialdata": {"rt": -1000, "stimulus": "/static/audio/wordpool/MILK.wav", "key_press": -1, "type": "PRES_AUD", "word": "milk", "wordID": 894, "conditions": [24, 1600, "a", 12000], "trial": 6, "serialpos": 22, "trial_type": "single-audio", "trial_index": 247, "time_elapsed": 1147416, "internal_node_id": "0.0-184.0"}}, {"uniqueid": "MTK0290:36WLNQG780H4RH3GFLV811ISKONEBJ", "current_trial": 248, "dateTime": 1510699851124, "trialdata": {"rt": -1000, "stimulus": "/static/audio/wordpool/SCALLOP.wav", "key_press": -1, "type": "PRES_AUD", "word": "scallop", "wordID": 1241, "conditions": [24, 1600, "a", 12000], "trial": 6, "serialpos": 23, "trial_type": "single-audio", "trial_index": 248, "time_elapsed": 1150217, "internal_node_id": "0.0-185.0"}}, {"uniqueid": "MTK0290:36WLNQG780H4RH3GFLV811ISKONEBJ", "current_trial": 249, "dateTime": 1510699852475, "trialdata": {"rt": -1, "stimulus": "", "key_press": -1, "type": "PRE_RECALL_DELAY", "trial_type": "single-stim", "trial_index": 249, "time_elapsed": 1151567, "internal_node_id": "0.0-186.0-0.0"}}, {"uniqueid": "MTK0290:36WLNQG780H4RH3GFLV811ISKONEBJ", "current_trial": 250, "dateTime": 1510699852985, "trialdata": {"rt": -1000, "stimulus": "/static/audio/400Hz.wav", "key_press": -1, "type": "PRE_RECALL_ALERT", "trial_type": "single-audio", "trial_index": 250, "time_elapsed": 1152079, "internal_node_id": "0.0-187.0"}}, {"uniqueid": "MTK0290:36WLNQG780H4RH3GFLV811ISKONEBJ", "current_trial": 251, "dateTime": 1510699913028, "trialdata": {"rt": [3220, 5443, 7615, 10141, 14630, 17516, 50753, 54845], "recwords": ["scallop", "cousin", "widow", "shark", "skillet", "spoon", "bacon", "robin"], "type": "FREE_RECALL", "conditions": [24, 1600, "a", 12000], "trial": 6, "trial_type": "free-recall", "trial_index": 251, "time_elapsed": 1212105, "internal_node_id": "0.0-188.0-0.0"}}, {"uniqueid": "MTK0290:36WLNQG780H4RH3GFLV811ISKONEBJ", "current_trial": 252, "dateTime": 1510699915973, "trialdata": {"rt": 931, "key_press": 32, "type": "INSTRUCTIONS", "trial_type": "text", "trial_index": 252, "time_elapsed": 1215066, "internal_node_id": "0.0-189.0"}}, {"uniqueid": "MTK0290:36WLNQG780H4RH3GFLV811ISKONEBJ", "current_trial": 253, "dateTime": 1510699942008, "trialdata": {"rt": [2714, 5976, 8286, 10864, 14633, 17047, 19483, 21771], "responses": ["17", "19", "16", "7", "22", "12", "14", "16"], "num1": [4, 6, 1, 1, 7, 6, 4, 7, 3], "num2": [4, 7, 8, 4, 6, 4, 4, 1, 2], "num3": [9, 6, 7, 2, 9, 2, 5, 8, 5], "type": "DISTRACTOR", "conditions": [24, 1600, "a", 24000], "trial": 7, "trial_type": "math-distractor", "trial_index": 253, "time_elapsed": 1241100, "internal_node_id": "0.0-190.0"}}, {"uniqueid": "MTK0290:36WLNQG780H4RH3GFLV811ISKONEBJ", "current_trial": 254, "dateTime": 1510699945024, "trialdata": {"rt": -1, "stimulus": "<p id=\"stim\">10</p>", "key_press": -1, "trial_type": "single-stim", "trial_index": 254, "time_elapsed": 1244117, "internal_node_id": "0.0-191.0-0.0"}}, {"uniqueid": "MTK0290:36WLNQG780H4RH3GFLV811ISKONEBJ", "current_trial": 255, "dateTime": 1510699946027, "trialdata": {"rt": -1, "stimulus": "<p id=\"stim\">9</p>", "key_press": -1, "trial_type": "single-stim", "trial_index": 255, "time_elapsed": 1245121, "internal_node_id": "0.0-191.0-1.0"}}, {"uniqueid": "MTK0290:36WLNQG780H4RH3GFLV811ISKONEBJ", "current_trial": 256, "dateTime": 1510699947031, "trialdata": {"rt": -1, "stimulus": "<p id=\"stim\">8</p>", "key_press": -1, "trial_type": "single-stim", "trial_index": 256, "time_elapsed": 1246123, "internal_node_id": "0.0-191.0-2.0"}}, {"uniqueid": "MTK0290:36WLNQG780H4RH3GFLV811ISKONEBJ", "current_trial": 257, "dateTime": 1510699948034, "trialdata": {"rt": -1, "stimulus": "<p id=\"stim\">7</p>", "key_press": -1, "trial_type": "single-stim", "trial_index": 257, "time_elapsed": 1247127, "internal_node_id": "0.0-191.0-3.0"}}, {"uniqueid": "MTK0290:36WLNQG780H4RH3GFLV811ISKONEBJ", "current_trial": 258, "dateTime": 1510699949037, "trialdata": {"rt": -1, "stimulus": "<p id=\"stim\">6</p>", "key_press": -1, "trial_type": "single-stim", "trial_index": 258, "time_elapsed": 1248130, "internal_node_id": "0.0-191.0-4.0"}}, {"uniqueid": "MTK0290:36WLNQG780H4RH3GFLV811ISKONEBJ", "current_trial": 259, "dateTime": 1510699950051, "trialdata": {"rt": -1, "stimulus": "<p id=\"stim\">5</p>", "key_press": -1, "trial_type": "single-stim", "trial_index": 259, "time_elapsed": 1249144, "internal_node_id": "0.0-191.0-5.0"}}, {"uniqueid": "MTK0290:36WLNQG780H4RH3GFLV811ISKONEBJ", "current_trial": 260, "dateTime": 1510699951053, "trialdata": {"rt": -1, "stimulus": "<p id=\"stim\">4</p>", "key_press": -1, "trial_type": "single-stim", "trial_index": 260, "time_elapsed": 1250146, "internal_node_id": "0.0-191.0-6.0"}}, {"uniqueid": "MTK0290:36WLNQG780H4RH3GFLV811ISKONEBJ", "current_trial": 261, "dateTime": 1510699952067, "trialdata": {"rt": -1, "stimulus": "<p id=\"stim\">3</p>", "key_press": -1, "trial_type": "single-stim", "trial_index": 261, "time_elapsed": 1251161, "internal_node_id": "0.0-191.0-7.0"}}, {"uniqueid": "MTK0290:36WLNQG780H4RH3GFLV811ISKONEBJ", "current_trial": 262, "dateTime": 1510699953070, "trialdata": {"rt": -1, "stimulus": "<p id=\"stim\">2</p>", "key_press": -1, "trial_type": "single-stim", "trial_index": 262, "time_elapsed": 1252164, "internal_node_id": "0.0-191.0-8.0"}}, {"uniqueid": "MTK0290:36WLNQG780H4RH3GFLV811ISKONEBJ", "current_trial": 263, "dateTime": 1510699954073, "trialdata": {"rt": -1, "stimulus": "<p id=\"stim\">1</p>", "key_press": -1, "trial_type": "single-stim", "trial_index": 263, "time_elapsed": 1253166, "internal_node_id": "0.0-191.0-9.0"}}, {"uniqueid": "MTK0290:36WLNQG780H4RH3GFLV811ISKONEBJ", "current_trial": 264, "dateTime": 1510699955581, "trialdata": {"rt": -1, "stimulus": "<p id=\"stim\">+</p>", "key_press": -1, "type": "FIXATION", "trial_type": "single-stim", "trial_index": 264, "time_elapsed": 1254675, "internal_node_id": "0.0-192.0-0.0"}}, {"uniqueid": "MTK0290:36WLNQG780H4RH3GFLV811ISKONEBJ", "current_trial": 265, "dateTime": 1510699958236, "trialdata": {"rt": -1000, "stimulus": "/static/audio/wordpool/GRAPE.wav", "key_press": -1, "type": "PRES_AUD", "word": "grape", "wordID": 653, "conditions": [24, 1600, "a", 24000], "trial": 7, "serialpos": 0, "trial_type": "single-audio", "trial_index": 265, "time_elapsed": 1257329, "internal_node_id": "0.0-193.0"}}, {"uniqueid": "MTK0290:36WLNQG780H4RH3GFLV811ISKONEBJ", "current_trial": 266, "dateTime": 1510699960735, "trialdata": {"rt": -1000, "stimulus": "/static/audio/wordpool/JAPAN.wav", "key_press": -1, "type": "PRES_AUD", "word": "japan", "wordID": 748, "conditions": [24, 1600, "a", 24000], "trial": 7, "serialpos": 1, "trial_type": "single-audio", "trial_index": 266, "time_elapsed": 1259828, "internal_node_id": "0.0-194.0"}}, {"uniqueid": "MTK0290:36WLNQG780H4RH3GFLV811ISKONEBJ", "current_trial": 267, "dateTime": 1510699963253, "trialdata": {"rt": -1000, "stimulus": "/static/audio/wordpool/BEAVER.wav", "key_press": -1, "type": "PRES_AUD", "word": "beaver", "wordID": 108, "conditions": [24, 1600, "a", 24000], "trial": 7, "serialpos": 2, "trial_type": "single-audio", "trial_index": 267, "time_elapsed": 1262347, "internal_node_id": "0.0-195.0"}}, {"uniqueid": "MTK0290:36WLNQG780H4RH3GFLV811ISKONEBJ", "current_trial": 268, "dateTime": 1510699965712, "trialdata": {"rt": -1000, "stimulus": "/static/audio/wordpool/CHIPMUNK.wav", "key_press": -1, "type": "PRES_AUD", "word": "chipmunk", "wordID": 303, "conditions": [24, 1600, "a", 24000], "trial": 7, "serialpos": 3, "trial_type": "single-audio", "trial_index": 268, "time_elapsed": 1264806, "internal_node_id": "0.0-196.0"}}, {"uniqueid": "MTK0290:36WLNQG780H4RH3GFLV811ISKONEBJ", "current_trial": 269, "dateTime": 1510699968299, "trialdata": {"rt": -1000, "stimulus": "/static/audio/wordpool/BULLET.wav", "key_press": -1, "type": "PRES_AUD", "word": "bullet", "wordID": 193, "conditions": [24, 1600, "a", 24000], "trial": 7, "serialpos": 4, "trial_type": "single-audio", "trial_index": 269, "time_elapsed": 1267393, "internal_node_id": "0.0-197.0"}}, {"uniqueid": "MTK0290:36WLNQG780H4RH3GFLV811ISKONEBJ", "current_trial": 270, "dateTime": 1510699970916, "trialdata": {"rt": -1000, "stimulus": "/static/audio/wordpool/HONEY.wav", "key_press": -1, "type": "PRES_AUD", "word": "honey", "wordID": 712, "conditions": [24, 1600, "a", 24000], "trial": 7, "serialpos": 5, "trial_type": "single-audio", "trial_index": 270, "time_elapsed": 1270009, "i