{"condition": 0, "counterbalance": 491, "assignmentId": "33IZTU6J828CE3BZLC7VFFDZ39HXSQ", "workerId": "MTK0204", "hitId": "38F60IALAGO39TK9HYICRMQQIVMT0O", "currenttrial": 625, "bonus": 0, "data": [{"uniqueid": "MTK0204:33IZTU6J828CE3BZLC7VFFDZ39HXSQ", "current_trial": 0, "dateTime": 1509543982175, "trialdata": {"rt": 1113, "key_press": 32, "type": "INSTRUCTIONS", "trial_type": "text", "trial_index": 0, "time_elapsed": 1126, "internal_node_id": "0.0-0.0"}}, {"uniqueid": "MTK0204:33IZTU6J828CE3BZLC7VFFDZ39HXSQ", "current_trial": 1, "dateTime": 1509543995336, "trialdata": {"rt": 13155, "key_press": 32, "type": "INSTRUCTIONS", "trial_type": "text", "trial_index": 1, "time_elapsed": 14289, "internal_node_id": "0.0-1.0"}}, {"uniqueid": "MTK0204:33IZTU6J828CE3BZLC7VFFDZ39HXSQ", "current_trial": 2, "dateTime": 1509544008311, "trialdata": {"rt": [12949], "responses": ["ocean"], "type": "AUDIO_TEST", "trial_type": "audio-test", "trial_index": 2, "time_elapsed": 27264, "internal_node_id": "0.0-2.0"}}, {"uniqueid": "MTK0204:33IZTU6J828CE3BZLC7VFFDZ39HXSQ", "current_trial": 3, "dateTime": 1509544014562, "trialdata": {"rt": [6246], "responses": ["crystal"], "type": "AUDIO_TEST", "trial_type": "audio-test", "trial_index": 3, "time_elapsed": 33515, "internal_node_id": "0.0-3.0"}}, {"uniqueid": "MTK0204:33IZTU6J828CE3BZLC7VFFDZ39HXSQ", "current_trial": 4, "dateTime": 1509544019569, "trialdata": {"rt": [5004], "responses": ["spice"], "type": "AUDIO_TEST", "trial_type": "audio-test", "trial_index": 4, "time_elapsed": 38522, "internal_node_id": "0.0-4.0"}}, {"uniqueid": "MTK0204:33IZTU6J828CE3BZLC7VFFDZ39HXSQ", "current_trial": 5, "dateTime": 1509544022668, "trialdata": {"rt": 2347, "key_press": 32, "type": "INSTRUCTIONS", "trial_type": "text", "trial_index": 5, "time_elapsed": 41621, "internal_node_id": "0.0-5.0"}}, {"uniqueid": "MTK0204:33IZTU6J828CE3BZLC7VFFDZ39HXSQ", "current_trial": 6, "dateTime": 1509544056650, "trialdata": {"rt": 33982, "key_press": 13, "type": "INSTRUCTIONS", "trial_type": "text", "trial_index": 6, "time_elapsed": 75603, "internal_node_id": "0.0-6.0"}}, {"uniqueid": "MTK0204:33IZTU6J828CE3BZLC7VFFDZ39HXSQ", "current_trial": 7, "dateTime": 1509544066801, "trialdata": {"rt": 10149, "key_press": 32, "type": "INSTRUCTIONS", "trial_type": "text", "trial_index": 7, "time_elapsed": 85754, "internal_node_id": "0.0-7.0"}}, {"uniqueid": "MTK0204:33IZTU6J828CE3BZLC7VFFDZ39HXSQ", "current_trial": 8, "dateTime": 1509544078498, "trialdata": {"rt": 11696, "key_press": 32, "type": "INSTRUCTIONS", "trial_type": "text", "trial_index": 8, "time_elapsed": 97451, "internal_node_id": "0.0-8.0"}}, {"uniqueid": "MTK0204:33IZTU6J828CE3BZLC7VFFDZ39HXSQ", "current_trial": 9, "dateTime": 1509544097507, "trialdata": {"rt": [3559, 5206, 7304, 9061, 10618, 14129, 15851], "responses": ["15", "13", "16", "16", "12", "11", "10"], "num1": [2, 4, 9, 7, 2, 5, 2, 8], "num2": [7, 6, 2, 3, 4, 2, 1, 9], "num3": [6, 3, 5, 6, 6, 4, 7, 7], "type": "DISTRACTOR", "conditions": [18, 1200, "a", 18000], "trial": 0, "trial_type": "math-distractor", "trial_index": 9, "time_elapsed": 116460, "internal_node_id": "0.0-9.0"}}, {"uniqueid": "MTK0204:33IZTU6J828CE3BZLC7VFFDZ39HXSQ", "current_trial": 10, "dateTime": 1509544100510, "trialdata": {"rt": -1, "stimulus": "<p id=\"stim\">10</p>", "key_press": -1, "trial_type": "single-stim", "trial_index": 10, "time_elapsed": 119463, "internal_node_id": "0.0-10.0-0.0"}}, {"uniqueid": "MTK0204:33IZTU6J828CE3BZLC7VFFDZ39HXSQ", "current_trial": 11, "dateTime": 1509544101512, "trialdata": {"rt": -1, "stimulus": "<p id=\"stim\">9</p>", "key_press": -1, "trial_type": "single-stim", "trial_index": 11, "time_elapsed": 120465, "internal_node_id": "0.0-10.0-1.0"}}, {"uniqueid": "MTK0204:33IZTU6J828CE3BZLC7VFFDZ39HXSQ", "current_trial": 12, "dateTime": 1509544102514, "trialdata": {"rt": -1, "stimulus": "<p id=\"stim\">8</p>", "key_press": -1, "trial_type": "single-stim", "trial_index": 12, "time_elapsed": 121467, "internal_node_id": "0.0-10.0-2.0"}}, {"uniqueid": "MTK0204:33IZTU6J828CE3BZLC7VFFDZ39HXSQ", "current_trial": 13, "dateTime": 1509544103515, "trialdata": {"rt": -1, "stimulus": "<p id=\"stim\">7</p>", "key_press": -1, "trial_type": "single-stim", "trial_index": 13, "time_elapsed": 122468, "internal_node_id": "0.0-10.0-3.0"}}, {"uniqueid": "MTK0204:33IZTU6J828CE3BZLC7VFFDZ39HXSQ", "current_trial": 14, "dateTime": 1509544104516, "trialdata": {"rt": -1, "stimulus": "<p id=\"stim\">6</p>", "key_press": -1, "trial_type": "single-stim", "trial_index": 14, "time_elapsed": 123469, "internal_node_id": "0.0-10.0-4.0"}}, {"uniqueid": "MTK0204:33IZTU6J828CE3BZLC7VFFDZ39HXSQ", "current_trial": 15, "dateTime": 1509544105518, "trialdata": {"rt": -1, "stimulus": "<p id=\"stim\">5</p>", "key_press": -1, "trial_type": "single-stim", "trial_index": 15, "time_elapsed": 124471, "internal_node_id": "0.0-10.0-5.0"}}, {"uniqueid": "MTK0204:33IZTU6J828CE3BZLC7VFFDZ39HXSQ", "current_trial": 16, "dateTime": 1509544106520, "trialdata": {"rt": -1, "stimulus": "<p id=\"stim\">4</p>", "key_press": -1, "trial_type": "single-stim", "trial_index": 16, "time_elapsed": 125473, "internal_node_id": "0.0-10.0-6.0"}}, {"uniqueid": "MTK0204:33IZTU6J828CE3BZLC7VFFDZ39HXSQ", "current_trial": 17, "dateTime": 1509544107522, "trialdata": {"rt": -1, "stimulus": "<p id=\"stim\">3</p>", "key_press": -1, "trial_type": "single-stim", "trial_index": 17, "time_elapsed": 126475, "internal_node_id": "0.0-10.0-7.0"}}, {"uniqueid": "MTK0204:33IZTU6J828CE3BZLC7VFFDZ39HXSQ", "current_trial": 18, "dateTime": 1509544108523, "trialdata": {"rt": -1, "stimulus": "<p id=\"stim\">2</p>", "key_press": -1, "trial_type": "single-stim", "trial_index": 18, "time_elapsed": 127476, "internal_node_id": "0.0-10.0-8.0"}}, {"uniqueid": "MTK0204:33IZTU6J828CE3BZLC7VFFDZ39HXSQ", "current_trial": 19, "dateTime": 1509544109525, "trialdata": {"rt": -1, "stimulus": "<p id=\"stim\">1</p>", "key_press": -1, "trial_type": "single-stim", "trial_index": 19, "time_elapsed": 128478, "internal_node_id": "0.0-10.0-9.0"}}, {"uniqueid": "MTK0204:33IZTU6J828CE3BZLC7VFFDZ39HXSQ", "current_trial": 20, "dateTime": 1509544111028, "trialdata": {"rt": -1, "stimulus": "<p id=\"stim\">+</p>", "key_press": -1, "type": "FIXATION", "trial_type": "single-stim", "trial_index": 20, "time_elapsed": 129980, "internal_node_id": "0.0-11.0-0.0"}}, {"uniqueid": "MTK0204:33IZTU6J828CE3BZLC7VFFDZ39HXSQ", "current_trial": 21, "dateTime": 1509544113259, "trialdata": {"rt": -1000, "stimulus": "/static/audio/wordpool/WHISKERS.wav", "key_press": -1, "type": "PRES_AUD", "word": "whiskers", "wordID": 1604, "conditions": [18, 1200, "a", 18000], "trial": 0, "serialpos": 0, "trial_type": "single-audio", "trial_index": 21, "time_elapsed": 132212, "internal_node_id": "0.0-12.0"}}, {"uniqueid": "MTK0204:33IZTU6J828CE3BZLC7VFFDZ39HXSQ", "current_trial": 22, "dateTime": 1509544115485, "trialdata": {"rt": -1000, "stimulus": "/static/audio/wordpool/ISLAND.wav", "key_press": -1, "type": "PRES_AUD", "word": "island", "wordID": 744, "conditions": [18, 1200, "a", 18000], "trial": 0, "serialpos": 1, "trial_type": "single-audio", "trial_index": 22, "time_elapsed": 134438, "internal_node_id": "0.0-13.0"}}, {"uniqueid": "MTK0204:33IZTU6J828CE3BZLC7VFFDZ39HXSQ", "current_trial": 23, "dateTime": 1509544117805, "trialdata": {"rt": -1000, "stimulus": "/static/audio/wordpool/TEACHER.wav", "key_press": -1, "type": "PRES_AUD", "word": "teacher", "wordID": 1439, "conditions": [18, 1200, "a", 18000], "trial": 0, "serialpos": 2, "trial_type": "single-audio", "trial_index": 23, "time_elapsed": 136758, "internal_node_id": "0.0-14.0"}}, {"uniqueid": "MTK0204:33IZTU6J828CE3BZLC7VFFDZ39HXSQ", "current_trial": 24, "dateTime": 1509544120053, "trialdata": {"rt": -1000, "stimulus": "/static/audio/wordpool/COIN.wav", "key_press": -1, "type": "PRES_AUD", "word": "coin", "wordID": 342, "conditions": [18, 1200, "a", 18000], "trial": 0, "serialpos": 3, "trial_type": "single-audio", "trial_index": 24, "time_elapsed": 139006, "internal_node_id": "0.0-15.0"}}, {"uniqueid": "MTK0204:33IZTU6J828CE3BZLC7VFFDZ39HXSQ", "current_trial": 25, "dateTime": 1509544122434, "trialdata": {"rt": -1000, "stimulus": "/static/audio/wordpool/LION.wav", "key_press": -1, "type": "PRES_AUD", "word": "lion", "wordID": 826, "conditions": [18, 1200, "a", 18000], "trial": 0, "serialpos": 4, "trial_type": "single-audio", "trial_index": 25, "time_elapsed": 141387, "internal_node_id": "0.0-16.0"}}, {"uniqueid": "MTK0204:33IZTU6J828CE3BZLC7VFFDZ39HXSQ", "current_trial": 26, "dateTime": 1509544124504, "trialdata": {"rt": -1000, "stimulus": "/static/audio/wordpool/SERVER.wav", "key_press": -1, "type": "PRES_AUD", "word": "server", "wordID": 1271, "conditions": [18, 1200, "a", 18000], "trial": 0, "serialpos": 5, "trial_type": "single-audio", "trial_index": 26, "time_elapsed": 143457, "internal_node_id": "0.0-17.0"}}, {"uniqueid": "MTK0204:33IZTU6J828CE3BZLC7VFFDZ39HXSQ", "current_trial": 27, "dateTime": 1509544126544, "trialdata": {"rt": -1000, "stimulus": "/static/audio/wordpool/TERMITE.wav", "key_press": -1, "type": "PRES_AUD", "word": "termite", "wordID": 1450, "conditions": [18, 1200, "a", 18000], "trial": 0, "serialpos": 6, "trial_type": "single-audio", "trial_index": 27, "time_elapsed": 145497, "internal_node_id": "0.0-18.0"}}, {"uniqueid": "MTK0204:33IZTU6J828CE3BZLC7VFFDZ39HXSQ", "current_trial": 28, "dateTime": 1509544128928, "trialdata": {"rt": -1000, "stimulus": "/static/audio/wordpool/BOUQUET.wav", "key_press": -1, "type": "PRES_AUD", "word": "bouquet", "wordID": 156, "conditions": [18, 1200, "a", 18000], "trial": 0, "serialpos": 7, "trial_type": "single-audio", "trial_index": 28, "time_elapsed": 147881, "internal_node_id": "0.0-19.0"}}, {"uniqueid": "MTK0204:33IZTU6J828CE3BZLC7VFFDZ39HXSQ", "current_trial": 29, "dateTime": 1509544131205, "trialdata": {"rt": -1000, "stimulus": "/static/audio/wordpool/BANK.wav", "key_press": -1, "type": "PRES_AUD", "word": "bank", "wordID": 82, "conditions": [18, 1200, "a", 18000], "trial": 0, "serialpos": 8, "trial_type": "single-audio", "trial_index": 29, "time_elapsed": 150158, "internal_node_id": "0.0-20.0"}}, {"uniqueid": "MTK0204:33IZTU6J828CE3BZLC7VFFDZ39HXSQ", "current_trial": 30, "dateTime": 1509544133509, "trialdata": {"rt": -1000, "stimulus": "/static/audio/wordpool/BUTCHER.wav", "key_press": -1, "type": "PRES_AUD", "word": "butcher", "wordID": 202, "conditions": [18, 1200, "a", 18000], "trial": 0, "serialpos": 9, "trial_type": "single-audio", "trial_index": 30, "time_elapsed": 152462, "internal_node_id": "0.0-21.0"}}, {"uniqueid": "MTK0204:33IZTU6J828CE3BZLC7VFFDZ39HXSQ", "current_trial": 31, "dateTime": 1509544135894, "trialdata": {"rt": -1000, "stimulus": "/static/audio/wordpool/JOURNAL.wav", "key_press": -1, "type": "PRES_AUD", "word": "journal", "wordID": 759, "conditions": [18, 1200, "a", 18000], "trial": 0, "serialpos": 10, "trial_type": "single-audio", "trial_index": 31, "time_elapsed": 154847, "internal_node_id": "0.0-22.0"}}, {"uniqueid": "MTK0204:33IZTU6J828CE3BZLC7VFFDZ39HXSQ", "current_trial": 32, "dateTime": 1509544138109, "trialdata": {"rt": -1000, "stimulus": "/static/audio/wordpool/CUSTARD.wav", "key_press": -1, "type": "PRES_AUD", "word": "custard", "wordID": 428, "conditions": [18, 1200, "a", 18000], "trial": 0, "serialpos": 11, "trial_type": "single-audio", "trial_index": 32, "time_elapsed": 157062, "internal_node_id": "0.0-23.0"}}, {"uniqueid": "MTK0204:33IZTU6J828CE3BZLC7VFFDZ39HXSQ", "current_trial": 33, "dateTime": 1509544140271, "trialdata": {"rt": -1000, "stimulus": "/static/audio/wordpool/DUSTPAN.wav", "key_press": -1, "type": "PRES_AUD", "word": "dustpan", "wordID": 508, "conditions": [18, 1200, "a", 18000], "trial": 0, "serialpos": 12, "trial_type": "single-audio", "trial_index": 33, "time_elapsed": 159224, "internal_node_id": "0.0-24.0"}}, {"uniqueid": "MTK0204:33IZTU6J828CE3BZLC7VFFDZ39HXSQ", "current_trial": 34, "dateTime": 1509544142327, "trialdata": {"rt": -1000, "stimulus": "/static/audio/wordpool/PUPPY.wav", "key_press": -1, "type": "PRES_AUD", "word": "puppy", "wordID": 1143, "conditions": [18, 1200, "a", 18000], "trial": 0, "serialpos": 13, "trial_type": "single-audio", "trial_index": 34, "time_elapsed": 161280, "internal_node_id": "0.0-25.0"}}, {"uniqueid": "MTK0204:33IZTU6J828CE3BZLC7VFFDZ39HXSQ", "current_trial": 35, "dateTime": 1509544144378, "trialdata": {"rt": -1000, "stimulus": "/static/audio/wordpool/SCARECROW.wav", "key_press": -1, "type": "PRES_AUD", "word": "scarecrow", "wordID": 1244, "conditions": [18, 1200, "a", 18000], "trial": 0, "serialpos": 14, "trial_type": "single-audio", "trial_index": 35, "time_elapsed": 163331, "internal_node_id": "0.0-26.0"}}, {"uniqueid": "MTK0204:33IZTU6J828CE3BZLC7VFFDZ39HXSQ", "current_trial": 36, "dateTime": 1509544146420, "trialdata": {"rt": -1000, "stimulus": "/static/audio/wordpool/BULLET.wav", "key_press": -1, "type": "PRES_AUD", "word": "bullet", "wordID": 193, "conditions": [18, 1200, "a", 18000], "trial": 0, "serialpos": 15, "trial_type": "single-audio", "trial_index": 36, "time_elapsed": 165373, "internal_node_id": "0.0-27.0"}}, {"uniqueid": "MTK0204:33IZTU6J828CE3BZLC7VFFDZ39HXSQ", "current_trial": 37, "dateTime": 1509544148679, "trialdata": {"rt": -1000, "stimulus": "/static/audio/wordpool/RADISH.wav", "key_press": -1, "type": "PRES_AUD", "word": "radish", "wordID": 1157, "conditions": [18, 1200, "a", 18000], "trial": 0, "serialpos": 16, "trial_type": "single-audio", "trial_index": 37, "time_elapsed": 167632, "internal_node_id": "0.0-28.0"}}, {"uniqueid": "MTK0204:33IZTU6J828CE3BZLC7VFFDZ39HXSQ", "current_trial": 38, "dateTime": 1509544150828, "trialdata": {"rt": -1000, "stimulus": "/static/audio/wordpool/BARREL.wav", "key_press": -1, "type": "PRES_AUD", "word": "barrel", "wordID": 90, "conditions": [18, 1200, "a", 18000], "trial": 0, "serialpos": 17, "trial_type": "single-audio", "trial_index": 38, "time_elapsed": 169781, "internal_node_id": "0.0-29.0"}}, {"uniqueid": "MTK0204:33IZTU6J828CE3BZLC7VFFDZ39HXSQ", "current_trial": 39, "dateTime": 1509544152081, "trialdata": {"rt": -1, "stimulus": "", "key_press": -1, "type": "PRE_RECALL_DELAY", "trial_type": "single-stim", "trial_index": 39, "time_elapsed": 171034, "internal_node_id": "0.0-30.0-0.0"}}, {"uniqueid": "MTK0204:33IZTU6J828CE3BZLC7VFFDZ39HXSQ", "current_trial": 40, "dateTime": 1509544152585, "trialdata": {"rt": -1000, "stimulus": "/static/audio/400Hz.wav", "key_press": -1, "type": "PRE_RECALL_ALERT", "trial_type": "single-audio", "trial_index": 40, "time_elapsed": 171538, "internal_node_id": "0.0-31.0"}}, {"uniqueid": "MTK0204:33IZTU6J828CE3BZLC7VFFDZ39HXSQ", "current_trial": 41, "dateTime": 1509544212593, "trialdata": {"rt": [1872, 3888, 6856, 8285, 16981], "recwords": ["puppy", "whiskers", "scarecrow", "lion", "bouquet"], "type": "FREE_RECALL", "conditions": [18, 1200, "a", 18000], "trial": 0, "trial_type": "free-recall", "trial_index": 41, "time_elapsed": 231542, "internal_node_id": "0.0-32.0-0.0"}}, {"uniqueid": "MTK0204:33IZTU6J828CE3BZLC7VFFDZ39HXSQ", "current_trial": 42, "dateTime": 1509544214776, "trialdata": {"rt": 179, "key_press": 175, "type": "INSTRUCTIONS", "trial_type": "text", "trial_index": 42, "time_elapsed": 233728, "internal_node_id": "0.0-33.0"}}, {"uniqueid": "MTK0204:33IZTU6J828CE3BZLC7VFFDZ39HXSQ", "current_trial": 43, "dateTime": 1509544234781, "trialdata": {"rt": [1932, 4180, 6628, 8722, 10612, 13287, 14776, 16882], "responses": ["11", "20", "18", "22", "17", "23", "15", "17"], "num1": [1, 8, 4, 5, 4, 8, 7, 5, 3], "num2": [1, 4, 9, 9, 7, 8, 3, 6, 1], "num3": [9, 8, 5, 8, 6, 7, 5, 6, 7], "type": "DISTRACTOR", "conditions": [18, 1200, "v", 18000], "trial": 1, "trial_type": "math-distractor", "trial_index": 43, "time_elapsed": 253734, "internal_node_id": "0.0-34.0"}}, {"uniqueid": "MTK0204:33IZTU6J828CE3BZLC7VFFDZ39HXSQ", "current_trial": 44, "dateTime": 1509544237783, "trialdata": {"rt": -1, "stimulus": "<p id=\"stim\">10</p>", "key_press": -1, "trial_type": "single-stim", "trial_index": 44, "time_elapsed": 256736, "internal_node_id": "0.0-35.0-0.0"}}, {"uniqueid": "MTK0204:33IZTU6J828CE3BZLC7VFFDZ39HXSQ", "current_trial": 45, "dateTime": 1509544238785, "trialdata": {"rt": -1, "stimulus": "<p id=\"stim\">9</p>", "key_press": -1, "trial_type": "single-stim", "trial_index": 45, "time_elapsed": 257738, "internal_node_id": "0.0-35.0-1.0"}}, {"uniqueid": "MTK0204:33IZTU6J828CE3BZLC7VFFDZ39HXSQ", "current_trial": 46, "dateTime": 1509544239786, "trialdata": {"rt": -1, "stimulus": "<p id=\"stim\">8</p>", "key_press": -1, "trial_type": "single-stim", "trial_index": 46, "time_elapsed": 258739, "internal_node_id": "0.0-35.0-2.0"}}, {"uniqueid": "MTK0204:33IZTU6J828CE3BZLC7VFFDZ39HXSQ", "current_trial": 47, "dateTime": 1509544240787, "trialdata": {"rt": -1, "stimulus": "<p id=\"stim\">7</p>", "key_press": -1, "trial_type": "single-stim", "trial_index": 47, "time_elapsed": 259740, "internal_node_id": "0.0-35.0-3.0"}}, {"uniqueid": "MTK0204:33IZTU6J828CE3BZLC7VFFDZ39HXSQ", "current_trial": 48, "dateTime": 1509544241788, "trialdata": {"rt": -1, "stimulus": "<p id=\"stim\">6</p>", "key_press": -1, "trial_type": "single-stim", "trial_index": 48, "time_elapsed": 260741, "internal_node_id": "0.0-35.0-4.0"}}, {"uniqueid": "MTK0204:33IZTU6J828CE3BZLC7VFFDZ39HXSQ", "current_trial": 49, "dateTime": 1509544242790, "trialdata": {"rt": -1, "stimulus": "<p id=\"stim\">5</p>", "key_press": -1, "trial_type": "single-stim", "trial_index": 49, "time_elapsed": 261743, "internal_node_id": "0.0-35.0-5.0"}}, {"uniqueid": "MTK0204:33IZTU6J828CE3BZLC7VFFDZ39HXSQ", "current_trial": 50, "dateTime": 1509544243792, "trialdata": {"rt": -1, "stimulus": "<p id=\"stim\">4</p>", "key_press": -1, "trial_type": "single-stim", "trial_index": 50, "time_elapsed": 262745, "internal_node_id": "0.0-35.0-6.0"}}, {"uniqueid": "MTK0204:33IZTU6J828CE3BZLC7VFFDZ39HXSQ", "current_trial": 51, "dateTime": 1509544244793, "trialdata": {"rt": -1, "stimulus": "<p id=\"stim\">3</p>", "key_press": -1, "trial_type": "single-stim", "trial_index": 51, "time_elapsed": 263746, "internal_node_id": "0.0-35.0-7.0"}}, {"uniqueid": "MTK0204:33IZTU6J828CE3BZLC7VFFDZ39HXSQ", "current_trial": 52, "dateTime": 1509544245795, "trialdata": {"rt": -1, "stimulus": "<p id=\"stim\">2</p>", "key_press": -1, "trial_type": "single-stim", "trial_index": 52, "time_elapsed": 264748, "internal_node_id": "0.0-35.0-8.0"}}, {"uniqueid": "MTK0204:33IZTU6J828CE3BZLC7VFFDZ39HXSQ", "current_trial": 53, "dateTime": 1509544246797, "trialdata": {"rt": -1, "stimulus": "<p id=\"stim\">1</p>", "key_press": -1, "trial_type": "single-stim", "trial_index": 53, "time_elapsed": 265750, "internal_node_id": "0.0-35.0-9.0"}}, {"uniqueid": "MTK0204:33IZTU6J828CE3BZLC7VFFDZ39HXSQ", "current_trial": 54, "dateTime": 1509544248300, "trialdata": {"rt": -1, "stimulus": "<p id=\"stim\">+</p>", "key_press": -1, "type": "FIXATION", "trial_type": "single-stim", "trial_index": 54, "time_elapsed": 267253, "internal_node_id": "0.0-36.0-0.0"}}, {"uniqueid": "MTK0204:33IZTU6J828CE3BZLC7VFFDZ39HXSQ", "current_trial": 55, "dateTime": 1509544249503, "trialdata": {"rt": -1, "stimulus": "<p id=\"stim\">GIFT</p>", "key_press": -1, "type": "PRES_VIS", "word": "gift", "wordID": 634, "conditions": [18, 1200, "v", 18000], "trial": 1, "serialpos": 0, "trial_type": "single-stim", "trial_index": 55, "time_elapsed": 268456, "internal_node_id": "0.0-37.0"}}, {"uniqueid": "MTK0204:33IZTU6J828CE3BZLC7VFFDZ39HXSQ", "current_trial": 56, "dateTime": 1509544251825, "trialdata": {"rt": -1, "stimulus": "<p id=\"stim\">HEADBAND</p>", "key_press": -1, "type": "PRES_VIS", "word": "headband", "wordID": 695, "conditions": [18, 1200, "v", 18000], "trial": 1, "serialpos": 1, "trial_type": "single-stim", "trial_index": 56, "time_elapsed": 270778, "internal_node_id": "0.0-38.0"}}, {"uniqueid": "MTK0204:33IZTU6J828CE3BZLC7VFFDZ39HXSQ", "current_trial": 57, "dateTime": 1509544254141, "trialdata": {"rt": -1, "stimulus": "<p id=\"stim\">VELVET</p>", "key_press": -1, "type": "PRES_VIS", "word": "velvet", "wordID": 1554, "conditions": [18, 1200, "v", 18000], "trial": 1, "serialpos": 2, "trial_type": "single-stim", "trial_index": 57, "time_elapsed": 273094, "internal_node_id": "0.0-39.0"}}, {"uniqueid": "MTK0204:33IZTU6J828CE3BZLC7VFFDZ39HXSQ", "current_trial": 58, "dateTime": 1509544256323, "trialdata": {"rt": -1, "stimulus": "<p id=\"stim\">SHIRT</p>", "key_press": -1, "type": "PRES_VIS", "word": "shirt", "wordID": 1286, "conditions": [18, 1200, "v", 18000], "trial": 1, "serialpos": 3, "trial_type": "single-stim", "trial_index": 58, "time_elapsed": 275276, "internal_node_id": "0.0-40.0"}}, {"uniqueid": "MTK0204:33IZTU6J828CE3BZLC7VFFDZ39HXSQ", "current_trial": 59, "dateTime": 1509544258403, "trialdata": {"rt": -1, "stimulus": "<p id=\"stim\">FLASK</p>", "key_press": -1, "type": "PRES_VIS", "word": "flask", "wordID": 575, "conditions": [18, 1200, "v", 18000], "trial": 1, "serialpos": 4, "trial_type": "single-stim", "trial_index": 59, "time_elapsed": 277356, "internal_node_id": "0.0-41.0"}}, {"uniqueid": "MTK0204:33IZTU6J828CE3BZLC7VFFDZ39HXSQ", "current_trial": 60, "dateTime": 1509544260554, "trialdata": {"rt": -1, "stimulus": "<p id=\"stim\">DRAWING</p>", "key_press": -1, "type": "PRES_VIS", "word": "drawing", "wordID": 493, "conditions": [18, 1200, "v", 18000], "trial": 1, "serialpos": 5, "trial_type": "single-stim", "trial_index": 60, "time_elapsed": 279507, "internal_node_id": "0.0-42.0"}}, {"uniqueid": "MTK0204:33IZTU6J828CE3BZLC7VFFDZ39HXSQ", "current_trial": 61, "dateTime": 1509544262608, "trialdata": {"rt": -1, "stimulus": "<p id=\"stim\">AIRPLANE</p>", "key_press": -1, "type": "PRES_VIS", "word": "airplane", "wordID": 11, "conditions": [18, 1200, "v", 18000], "trial": 1, "serialpos": 6, "trial_type": "single-stim", "trial_index": 61, "time_elapsed": 281561, "internal_node_id": "0.0-43.0"}}, {"uniqueid": "MTK0204:33IZTU6J828CE3BZLC7VFFDZ39HXSQ", "current_trial": 62, "dateTime": 1509544264707, "trialdata": {"rt": -1, "stimulus": "<p id=\"stim\">STAR</p>", "key_press": -1, "type": "PRES_VIS", "word": "star", "wordID": 1372, "conditions": [18, 1200, "v", 18000], "trial": 1, "serialpos": 7, "trial_type": "single-stim", "trial_index": 62, "time_elapsed": 283660, "internal_node_id": "0.0-44.0"}}, {"uniqueid": "MTK0204:33IZTU6J828CE3BZLC7VFFDZ39HXSQ", "current_trial": 63, "dateTime": 1509544267055, "trialdata": {"rt": -1, "stimulus": "<p id=\"stim\">MATCH</p>", "key_press": -1, "type": "PRES_VIS", "word": "match", "wordID": 877, "conditions": [18, 1200, "v", 18000], "trial": 1, "serialpos": 8, "trial_type": "single-stim", "trial_index": 63, "time_elapsed": 286008, "internal_node_id": "0.0-45.0"}}, {"uniqueid": "MTK0204:33IZTU6J828CE3BZLC7VFFDZ39HXSQ", "current_trial": 64, "dateTime": 1509544269446, "trialdata": {"rt": -1, "stimulus": "<p id=\"stim\">DAUGHTER</p>", "key_press": -1, "type": "PRES_VIS", "word": "daughter", "wordID": 441, "conditions": [18, 1200, "v", 18000], "trial": 1, "serialpos": 9, "trial_type": "single-stim", "trial_index": 64, "time_elapsed": 288398, "internal_node_id": "0.0-46.0"}}, {"uniqueid": "MTK0204:33IZTU6J828CE3BZLC7VFFDZ39HXSQ", "current_trial": 65, "dateTime": 1509544271705, "trialdata": {"rt": -1, "stimulus": "<p id=\"stim\">BROOK</p>", "key_press": -1, "type": "PRES_VIS", "word": "brook", "wordID": 176, "conditions": [18, 1200, "v", 18000], "trial": 1, "serialpos": 10, "trial_type": "single-stim", "trial_index": 65, "time_elapsed": 290657, "internal_node_id": "0.0-47.0"}}, {"uniqueid": "MTK0204:33IZTU6J828CE3BZLC7VFFDZ39HXSQ", "current_trial": 66, "dateTime": 1509544274088, "trialdata": {"rt": -1, "stimulus": "<p id=\"stim\">DINER</p>", "key_press": -1, "type": "PRES_VIS", "word": "diner", "wordID": 466, "conditions": [18, 1200, "v", 18000], "trial": 1, "serialpos": 11, "trial_type": "single-stim", "trial_index": 66, "time_elapsed": 293040, "internal_node_id": "0.0-48.0"}}, {"uniqueid": "MTK0204:33IZTU6J828CE3BZLC7VFFDZ39HXSQ", "current_trial": 67, "dateTime": 1509544276162, "trialdata": {"rt": -1, "stimulus": "<p id=\"stim\">SISTER</p>", "key_press": -1, "type": "PRES_VIS", "word": "sister", "wordID": 1311, "conditions": [18, 1200, "v", 18000], "trial": 1, "serialpos": 12, "trial_type": "single-stim", "trial_index": 67, "time_elapsed": 295115, "internal_node_id": "0.0-49.0"}}, {"uniqueid": "MTK0204:33IZTU6J828CE3BZLC7VFFDZ39HXSQ", "current_trial": 68, "dateTime": 1509544278383, "trialdata": {"rt": -1, "stimulus": "<p id=\"stim\">MOTEL</p>", "key_press": -1, "type": "PRES_VIS", "word": "motel", "wordID": 918, "conditions": [18, 1200, "v", 18000], "trial": 1, "serialpos": 13, "trial_type": "single-stim", "trial_index": 68, "time_elapsed": 297333, "internal_node_id": "0.0-50.0"}}, {"uniqueid": "MTK0204:33IZTU6J828CE3BZLC7VFFDZ39HXSQ", "current_trial": 69, "dateTime": 1509544280620, "trialdata": {"rt": -1, "stimulus": "<p id=\"stim\">DRILL</p>", "key_press": -1, "type": "PRES_VIS", "word": "drill", "wordID": 496, "conditions": [18, 1200, "v", 18000], "trial": 1, "serialpos": 14, "trial_type": "single-stim", "trial_index": 69, "time_elapsed": 299573, "internal_node_id": "0.0-51.0"}}, {"uniqueid": "MTK0204:33IZTU6J828CE3BZLC7VFFDZ39HXSQ", "current_trial": 70, "dateTime": 1509544282645, "trialdata": {"rt": -1, "stimulus": "<p id=\"stim\">STOMACH</p>", "key_press": -1, "type": "PRES_VIS", "word": "stomach", "wordID": 1383, "conditions": [18, 1200, "v", 18000], "trial": 1, "serialpos": 15, "trial_type": "single-stim", "trial_index": 70, "time_elapsed": 301598, "internal_node_id": "0.0-52.0"}}, {"uniqueid": "MTK0204:33IZTU6J828CE3BZLC7VFFDZ39HXSQ", "current_trial": 71, "dateTime": 1509544284699, "trialdata": {"rt": -1, "stimulus": "<p id=\"stim\">HONEY</p>", "key_press": -1, "type": "PRES_VIS", "word": "honey", "wordID": 712, "conditions": [18, 1200, "v", 18000], "trial": 1, "serialpos": 16, "trial_type": "single-stim", "trial_index": 71, "time_elapsed": 303652, "internal_node_id": "0.0-53.0"}}, {"uniqueid": "MTK0204:33IZTU6J828CE3BZLC7VFFDZ39HXSQ", "current_trial": 72, "dateTime": 1509544286907, "trialdata": {"rt": -1, "stimulus": "<p id=\"stim\">PASSAGE</p>", "key_press": -1, "type": "PRES_VIS", "word": "passage", "wordID": 1018, "conditions": [18, 1200, "v", 18000], "trial": 1, "serialpos": 17, "trial_type": "single-stim", "trial_index": 72, "time_elapsed": 305860, "internal_node_id": "0.0-54.0"}}, {"uniqueid": "MTK0204:33IZTU6J828CE3BZLC7VFFDZ39HXSQ", "current_trial": 73, "dateTime": 1509544289283, "trialdata": {"rt": -1, "stimulus": "", "key_press": -1, "type": "PRE_RECALL_DELAY", "trial_type": "single-stim", "trial_index": 73, "time_elapsed": 308236, "internal_node_id": "0.0-55.0-0.0"}}, {"uniqueid": "MTK0204:33IZTU6J828CE3BZLC7VFFDZ39HXSQ", "current_trial": 74, "dateTime": 1509544289791, "trialdata": {"rt": -1000, "stimulus": "/static/audio/400Hz.wav", "key_press": -1, "type": "PRE_RECALL_ALERT", "trial_type": "single-audio", "trial_index": 74, "time_elapsed": 308744, "internal_node_id": "0.0-56.0"}}, {"uniqueid": "MTK0204:33IZTU6J828CE3BZLC7VFFDZ39HXSQ", "current_trial": 75, "dateTime": 1509544349802, "trialdata": {"rt": [1718, 2738, 4015, 5921, 7330, 8744, 10411, 13544, 26754, 32964], "recwords": ["passage", "honey", "sister", "daughter", "drill", "sister", "airplane", "match", "gift", "brook"], "type": "FREE_RECALL", "conditions": [18, 1200, "v", 18000], "trial": 1, "trial_type": "free-recall", "trial_index": 75, "time_elapsed": 368747, "internal_node_id": "0.0-57.0-0.0"}}, {"uniqueid": "MTK0204:33IZTU6J828CE3BZLC7VFFDZ39HXSQ", "current_trial": 76, "dateTime": 1509544355512, "trialdata": {"rt": 3709, "key_press": 32, "type": "INSTRUCTIONS", "trial_type": "text", "trial_index": 76, "time_elapsed": 374465, "internal_node_id": "0.0-58.0"}}, {"uniqueid": "MTK0204:33IZTU6J828CE3BZLC7VFFDZ39HXSQ", "current_trial": 77, "dateTime": 1509544380518, "trialdata": {"rt": [1470, 2984, 4756, 6998, 9057, 11282, 12711, 14907, 16438, 19623, 21114, 23096], "responses": ["16", "17", "5", "12", "16", "20", "8", "22", "17", "20", "13", "18"], "num1": [3, 4, 1, 4, 2, 6, 6, 8, 7, 7, 4, 7, 1], "num2": [7, 6, 2, 1, 6, 8, 1, 5, 8, 5, 7, 5, 1], "num3": [6, 7, 2, 7, 8, 4, 1, 9, 2, 8, 2, 6, 1], "type": "DISTRACTOR", "conditions": [12, 800, "v", 24000], "trial": 2, "trial_type": "math-distractor", "trial_index": 77, "time_elapsed": 399471, "internal_node_id": "0.0-59.0"}}, {"uniqueid": "MTK0204:33IZTU6J828CE3BZLC7VFFDZ39HXSQ", "current_trial": 78, "dateTime": 1509544383520, "trialdata": {"rt": -1, "stimulus": "<p id=\"stim\">10</p>", "key_press": -1, "trial_type": "single-stim", "trial_index": 78, "time_elapsed": 402473, "internal_node_id": "0.0-60.0-0.0"}}, {"uniqueid": "MTK0204:33IZTU6J828CE3BZLC7VFFDZ39HXSQ", "current_trial": 79, "dateTime": 1509544384522, "trialdata": {"rt": -1, "stimulus": "<p id=\"stim\">9</p>", "key_press": -1, "trial_type": "single-stim", "trial_index": 79, "time_elapsed": 403475, "internal_node_id": "0.0-60.0-1.0"}}, {"uniqueid": "MTK0204:33IZTU6J828CE3BZLC7VFFDZ39HXSQ", "current_trial": 80, "dateTime": 1509544385524, "trialdata": {"rt": -1, "stimulus": "<p id=\"stim\">8</p>", "key_press": -1, "trial_type": "single-stim", "trial_index": 80, "time_elapsed": 404476, "internal_node_id": "0.0-60.0-2.0"}}, {"uniqueid": "MTK0204:33IZTU6J828CE3BZLC7VFFDZ39HXSQ", "current_trial": 81, "dateTime": 1509544386526, "trialdata": {"rt": -1, "stimulus": "<p id=\"stim\">7</p>", "key_press": -1, "trial_type": "single-stim", "trial_index": 81, "time_elapsed": 405479, "internal_node_id": "0.0-60.0-3.0"}}, {"uniqueid": "MTK0204:33IZTU6J828CE3BZLC7VFFDZ39HXSQ", "current_trial": 82, "dateTime": 1509544387528, "trialdata": {"rt": -1, "stimulus": "<p id=\"stim\">6</p>", "key_press": -1, "trial_type": "single-stim", "trial_index": 82, "time_elapsed": 406481, "internal_node_id": "0.0-60.0-4.0"}}, {"uniqueid": "MTK0204:33IZTU6J828CE3BZLC7VFFDZ39HXSQ", "current_trial": 83, "dateTime": 1509544388529, "trialdata": {"rt": -1, "stimulus": "<p id=\"stim\">5</p>", "key_press": -1, "trial_type": "single-stim", "trial_index": 83, "time_elapsed": 407482, "internal_node_id": "0.0-60.0-5.0"}}, {"uniqueid": "MTK0204:33IZTU6J828CE3BZLC7VFFDZ39HXSQ", "current_trial": 84, "dateTime": 1509544389530, "trialdata": {"rt": -1, "stimulus": "<p id=\"stim\">4</p>", "key_press": -1, "trial_type": "single-stim", "trial_index": 84, "time_elapsed": 408483, "internal_node_id": "0.0-60.0-6.0"}}, {"uniqueid": "MTK0204:33IZTU6J828CE3BZLC7VFFDZ39HXSQ", "current_trial": 85, "dateTime": 1509544390532, "trialdata": {"rt": -1, "stimulus": "<p id=\"stim\">3</p>", "key_press": -1, "trial_type": "single-stim", "trial_index": 85, "time_elapsed": 409485, "internal_node_id": "0.0-60.0-7.0"}}, {"uniqueid": "MTK0204:33IZTU6J828CE3BZLC7VFFDZ39HXSQ", "current_trial": 86, "dateTime": 1509544391533, "trialdata": {"rt": -1, "stimulus": "<p id=\"stim\">2</p>", "key_press": -1, "trial_type": "single-stim", "trial_index": 86, "time_elapsed": 410486, "internal_node_id": "0.0-60.0-8.0"}}, {"uniqueid": "MTK0204:33IZTU6J828CE3BZLC7VFFDZ39HXSQ", "current_trial": 87, "dateTime": 1509544392535, "trialdata": {"rt": -1, "stimulus": "<p id=\"stim\">1</p>", "key_press": -1, "trial_type": "single-stim", "trial_index": 87, "time_elapsed": 411487, "internal_node_id": "0.0-60.0-9.0"}}, {"uniqueid": "MTK0204:33IZTU6J828CE3BZLC7VFFDZ39HXSQ", "current_trial": 88, "dateTime": 1509544394036, "trialdata": {"rt": -1, "stimulus": "<p id=\"stim\">+</p>", "key_press": -1, "type": "FIXATION", "trial_type": "single-stim", "trial_index": 88, "time_elapsed": 412989, "internal_node_id": "0.0-61.0-0.0"}}, {"uniqueid": "MTK0204:33IZTU6J828CE3BZLC7VFFDZ39HXSQ", "current_trial": 89, "dateTime": 1509544394838, "trialdata": {"rt": -1, "stimulus": "<p id=\"stim\">FRECKLE</p>", "key_press": -1, "type": "PRES_VIS", "word": "freckle", "wordID": 601, "conditions": [12, 800, "v", 24000], "trial": 2, "serialpos": 0, "trial_type": "single-stim", "trial_index": 89, "time_elapsed": 413791, "internal_node_id": "0.0-62.0"}}, {"uniqueid": "MTK0204:33IZTU6J828CE3BZLC7VFFDZ39HXSQ", "current_trial": 90, "dateTime": 1509544396704, "trialdata": {"rt": -1, "stimulus": "<p id=\"stim\">HOOD</p>", "key_press": -1, "type": "PRES_VIS", "word": "hood", "wordID": 713, "conditions": [12, 800, "v", 24000], "trial": 2, "serialpos": 1, "trial_type": "single-stim", "trial_index": 90, "time_elapsed": 415656, "internal_node_id": "0.0-63.0"}}, {"uniqueid": "MTK0204:33IZTU6J828CE3BZLC7VFFDZ39HXSQ", "current_trial": 91, "dateTime": 1509544398389, "trialdata": {"rt": -1, "stimulus": "<p id=\"stim\">SKILLET</p>", "key_press": -1, "type": "PRES_VIS", "word": "skillet", "wordID": 1316, "conditions": [12, 800, "v", 24000], "trial": 2, "serialpos": 2, "trial_type": "single-stim", "trial_index": 91, "time_elapsed": 417342, "internal_node_id": "0.0-64.0"}}, {"uniqueid": "MTK0204:33IZTU6J828CE3BZLC7VFFDZ39HXSQ", "current_trial": 92, "dateTime": 1509544400016, "trialdata": {"rt": -1, "stimulus": "<p id=\"stim\">PISTON</p>", "key_press": -1, "type": "PRES_VIS", "word": "piston", "wordID": 1075, "conditions": [12, 800, "v", 24000], "trial": 2, "serialpos": 3, "trial_type": "single-stim", "trial_index": 92, "time_elapsed": 418969, "internal_node_id": "0.0-65.0"}}, {"uniqueid": "MTK0204:33IZTU6J828CE3BZLC7VFFDZ39HXSQ", "current_trial": 93, "dateTime": 1509544402016, "trialdata": {"rt": -1, "stimulus": "<p id=\"stim\">PIMPLE</p>", "key_press": -1, "type": "PRES_VIS", "word": "pimple", "wordID": 1070, "conditions": [12, 800, "v", 24000], "trial": 2, "serialpos": 4, "trial_type": "single-stim", "trial_index": 93, "time_elapsed": 420969, "internal_node_id": "0.0-66.0"}}, {"uniqueid": "MTK0204:33IZTU6J828CE3BZLC7VFFDZ39HXSQ", "current_trial": 94, "dateTime": 1509544403722, "trialdata": {"rt": -1, "stimulus": "<p id=\"stim\">SAUSAGE</p>", "key_press": -1, "type": "PRES_VIS", "word": "sausage", "wordID": 1237, "conditions": [12, 800, "v", 24000], "trial": 2, "serialpos": 5, "trial_type": "single-stim", "trial_index": 94, "time_elapsed": 422675, "internal_node_id": "0.0-67.0"}}, {"uniqueid": "MTK0204:33IZTU6J828CE3BZLC7VFFDZ39HXSQ", "current_trial": 95, "dateTime": 1509544405585, "trialdata": {"rt": -1, "stimulus": "<p id=\"stim\">BUNNY</p>", "key_press": -1, "type": "PRES_VIS", "word": "bunny", "wordID": 197, "conditions": [12, 800, "v", 24000], "trial": 2, "serialpos": 6, "trial_type": "single-stim", "trial_index": 95, "time_elapsed": 424538, "internal_node_id": "0.0-68.0"}}, {"uniqueid": "MTK0204:33IZTU6J828CE3BZLC7VFFDZ39HXSQ", "current_trial": 96, "dateTime": 1509544407368, "trialdata": {"rt": -1, "stimulus": "<p id=\"stim\">CHIPMUNK</p>", "key_press": -1, "type": "PRES_VIS", "word": "chipmunk", "wordID": 303, "conditions": [12, 800, "v", 24000], "trial": 2, "serialpos": 7, "trial_type": "single-stim", "trial_index": 96, "time_elapsed": 426321, "internal_node_id": "0.0-69.0"}}, {"uniqueid": "MTK0204:33IZTU6J828CE3BZLC7VFFDZ39HXSQ", "current_trial": 97, "dateTime": 1509544409265, "trialdata": {"rt": -1, "stimulus": "<p id=\"stim\">CHAPEL</p>", "key_press": -1, "type": "PRES_VIS", "word": "chapel", "wordID": 279, "conditions": [12, 800, "v", 24000], "trial": 2, "serialpos": 8, "trial_type": "single-stim", "trial_index": 97, "time_elapsed": 428218, "internal_node_id": "0.0-70.0"}}, {"uniqueid": "MTK0204:33IZTU6J828CE3BZLC7VFFDZ39HXSQ", "current_trial": 98, "dateTime": 1509544410974, "trialdata": {"rt": -1, "stimulus": "<p id=\"stim\">COUCH</p>", "key_press": -1, "type": "PRES_VIS", "word": "couch", "wordID": 385, "conditions": [12, 800, "v", 24000], "trial": 2, "serialpos": 9, "trial_type": "single-stim", "trial_index": 98, "time_elapsed": 429927, "internal_node_id": "0.0-71.0"}}, {"uniqueid": "MTK0204:33IZTU6J828CE3BZLC7VFFDZ39HXSQ", "current_trial": 99, "dateTime": 1509544412899, "trialdata": {"rt": -1, "stimulus": "<p id=\"stim\">SWAMP</p>", "key_press": -1, "type": "PRES_VIS", "word": "swamp", "wordID": 1415, "conditions": [12, 800, "v", 24000], "trial": 2, "serialpos": 10, "trial_type": "single-stim", "trial_index": 99, "time_elapsed": 431852, "internal_node_id": "0.0-72.0"}}, {"uniqueid": "MTK0204:33IZTU6J828CE3BZLC7VFFDZ39HXSQ", "current_trial": 100, "dateTime": 1509544414731, "trialdata": {"rt": -1, "stimulus": "<p id=\"stim\">FRAME</p>", "key_press": -1, "type": "PRES_VIS", "word": "frame", "wordID": 599, "conditions": [12, 800, "v", 24000], "trial": 2, "serialpos": 11, "trial_type": "single-stim", "trial_index": 100, "time_elapsed": 433684, "internal_node_id": "0.0-73.0"}}, {"uniqueid": "MTK0204:33IZTU6J828CE3BZLC7VFFDZ39HXSQ", "current_trial": 101, "dateTime": 1509544417188, "trialdata": {"rt": -1, "stimulus": "", "key_press": -1, "type": "PRE_RECALL_DELAY", "trial_type": "single-stim", "trial_index": 101, "time_elapsed": 436141, "internal_node_id": "0.0-74.0-0.0"}}, {"uniqueid": "MTK0204:33IZTU6J828CE3BZLC7VFFDZ39HXSQ", "current_trial": 102, "dateTime": 1509544417693, "trialdata": {"rt": -1000, "stimulus": "/static/audio/400Hz.wav", "key_press": -1, "type": "PRE_RECALL_ALERT", "trial_type": "single-audio", "trial_index": 102, "time_elapsed": 436646, "internal_node_id": "0.0-75.0"}}, {"uniqueid": "MTK0204:33IZTU6J828CE3BZLC7VFFDZ39HXSQ", "current_trial": 103, "dateTime": 1509544477701, "trialdata": {"rt": [1897, 3474, 6148, 8093, 10039, 12276, 14181, 16665, 21978], "recwords": ["swamp", "frame", "piston", "chipmunk", "chapel", "bunny", "freckle", "hood", "sausage"], "type": "FREE_RECALL", "conditions": [12, 800, "v", 24000], "trial": 2, "trial_type": "free-recall", "trial_index": 103, "time_elapsed": 496649, "internal_node_id": "0.0-76.0-0.0"}}, {"uniqueid": "MTK0204:33IZTU6J828CE3BZLC7VFFDZ39HXSQ", "current_trial": 104, "dateTime": 1509544480680, "trialdata": {"rt": 977, "key_press": 13, "type": "INSTRUCTIONS", "trial_type": "text", "trial_index": 104, "time_elapsed": 499632, "internal_node_id": "0.0-77.0"}}, {"uniqueid": "MTK0204:33IZTU6J828CE3BZLC7VFFDZ39HXSQ", "current_trial": 105, "dateTime": 1509544506685, "trialdata": {"rt": [2907, 4850, 6527, 7630, 9261, 11143, 14560, 16953, 18692, 20447, 22331], "responses": ["13", "19", "5", "11", "13", "21", "18", "17", "14", "16", "14"], "num1": [9, 7, 1, 5, 7, 9, 9, 8, 2, 1, 1, 7], "num2": [2, 7, 3, 5, 4, 9, 7, 6, 3, 9, 5, 7], "num3": [1, 5, 1, 1, 2, 3, 2, 3, 9, 6, 8, 9], "type": "DISTRACTOR", "conditions": [24, 800, "v", 24000], "trial": 3, "trial_type": "math-distractor", "trial_index": 105, "time_elapsed": 525638, "internal_node_id": "0.0-78.0"}}, {"uniqueid": "MTK0204:33IZTU6J828CE3BZLC7VFFDZ39HXSQ", "current_trial": 106, "dateTime": 1509544509687, "trialdata": {"rt": -1, "stimulus": "<p id=\"stim\">10</p>", "key_press": -1, "trial_type": "single-stim", "trial_index": 106, "time_elapsed": 528640, "internal_node_id": "0.0-79.0-0.0"}}, {"uniqueid": "MTK0204:33IZTU6J828CE3BZLC7VFFDZ39HXSQ", "current_trial": 107, "dateTime": 1509544510688, "trialdata": {"rt": -1, "stimulus": "<p id=\"stim\">9</p>", "key_press": -1, "trial_type": "single-stim", "trial_index": 107, "time_elapsed": 529641, "internal_node_id": "0.0-79.0-1.0"}}, {"uniqueid": "MTK0204:33IZTU6J828CE3BZLC7VFFDZ39HXSQ", "current_trial": 108, "dateTime": 1509544511691, "trialdata": {"rt": -1, "stimulus": "<p id=\"stim\">8</p>", "key_press": -1, "trial_type": "single-stim", "trial_index": 108, "time_elapsed": 530644, "internal_node_id": "0.0-79.0-2.0"}}, {"uniqueid": "MTK0204:33IZTU6J828CE3BZLC7VFFDZ39HXSQ", "current_trial": 109, "dateTime": 1509544512692, "trialdata": {"rt": -1, "stimulus": "<p id=\"stim\">7</p>", "key_press": -1, "trial_type": "single-stim", "trial_index": 109, "time_elapsed": 531645, "internal_node_id": "0.0-79.0-3.0"}}, {"uniqueid": "MTK0204:33IZTU6J828CE3BZLC7VFFDZ39HXSQ", "current_trial": 110, "dateTime": 1509544513694, "trialdata": {"rt": -1, "stimulus": "<p id=\"stim\">6</p>", "key_press": -1, "trial_type": "single-stim", "trial_index": 110, "time_elapsed": 532647, "internal_node_id": "0.0-79.0-4.0"}}, {"uniqueid": "MTK0204:33IZTU6J828CE3BZLC7VFFDZ39HXSQ", "current_trial": 111, "dateTime": 1509544514696, "trialdata": {"rt": -1, "stimulus": "<p id=\"stim\">5</p>", "key_press": -1, "trial_type": "single-stim", "trial_index": 111, "time_elapsed": 533649, "internal_node_id": "0.0-79.0-5.0"}}, {"uniqueid": "MTK0204:33IZTU6J828CE3BZLC7VFFDZ39HXSQ", "current_trial": 112, "dateTime": 1509544515697, "trialdata": {"rt": -1, "stimulus": "<p id=\"stim\">4</p>", "key_press": -1, "trial_type": "single-stim", "trial_index": 112, "time_elapsed": 534650, "internal_node_id": "0.0-79.0-6.0"}}, {"uniqueid": "MTK0204:33IZTU6J828CE3BZLC7VFFDZ39HXSQ", "current_trial": 113, "dateTime": 1509544516700, "trialdata": {"rt": -1, "stimulus": "<p id=\"stim\">3</p>", "key_press": -1, "trial_type": "single-stim", "trial_index": 113, "time_elapsed": 535652, "internal_node_id": "0.0-79.0-7.0"}}, {"uniqueid": "MTK0204:33IZTU6J828CE3BZLC7VFFDZ39HXSQ", "current_trial": 114, "dateTime": 1509544517700, "trialdata": {"rt": -1, "stimulus": "<p id=\"stim\">2</p>", "key_press": -1, "trial_type": "single-stim", "trial_index": 114, "time_elapsed": 536653, "internal_node_id": "0.0-79.0-8.0"}}, {"uniqueid": "MTK0204:33IZTU6J828CE3BZLC7VFFDZ39HXSQ", "current_trial": 115, "dateTime": 1509544518702, "trialdata": {"rt": -1, "stimulus": "<p id=\"stim\">1</p>", "key_press": -1, "trial_type": "single-stim", "trial_index": 115, "time_elapsed": 537655, "internal_node_id": "0.0-79.0-9.0"}}, {"uniqueid": "MTK0204:33IZTU6J828CE3BZLC7VFFDZ39HXSQ", "current_trial": 116, "dateTime": 1509544520202, "trialdata": {"rt": -1, "stimulus": "<p id=\"stim\">+</p>", "key_press": -1, "type": "FIXATION", "trial_type": "single-stim", "trial_index": 116, "time_elapsed": 539155, "internal_node_id": "0.0-80.0-0.0"}}, {"uniqueid": "MTK0204:33IZTU6J828CE3BZLC7VFFDZ39HXSQ", "current_trial": 117, "dateTime": 1509544521005, "trialdata": {"rt": -1, "stimulus": "<p id=\"stim\">PEBBLE</p>", "key_press": -1, "type": "PRES_VIS", "word": "pebble", "wordID": 1034, "conditions": [24, 800, "v", 24000], "trial": 3, "serialpos": 0, "trial_type": "single-stim", "trial_index": 117, "time_elapsed": 539957, "internal_node_id": "0.0-81.0"}}, {"uniqueid": "MTK0204:33IZTU6J828CE3BZLC7VFFDZ39HXSQ", "current_trial": 118, "dateTime": 1509544522905, "trialdata": {"rt": -1, "stimulus": "<p id=\"stim\">LUMBER</p>", "key_press": -1, "type": "PRES_VIS", "word": "lumber", "wordID": 847, "conditions": [24, 800, "v", 24000], "trial": 3, "serialpos": 1, "trial_type": "single-stim", "trial_index": 118, "time_elapsed": 541858, "internal_node_id": "0.0-82.0"}}, {"uniqueid": "MTK0204:33IZTU6J828CE3BZLC7VFFDZ39HXSQ", "current_trial": 119, "dateTime": 1509544524787, "trialdata": {"rt": -1, "stimulus": "<p id=\"stim\">LACE</p>", "key_press": -1, "type": "PRES_VIS", "word": "lace", "wordID": 791, "conditions": [24, 800, "v", 24000], "trial": 3, "serialpos": 2, "trial_type": "single-stim", "trial_index": 119, "time_elapsed": 543740, "internal_node_id": "0.0-83.0"}}, {"uniqueid": "MTK0204:33IZTU6J828CE3BZLC7VFFDZ39HXSQ", "current_trial": 120, "dateTime": 1509544526389, "trialdata": {"rt": -1, "stimulus": "<p id=\"stim\">PERFUME</p>", "key_press": -1, "type": "PRES_VIS", "word": "perfume", "wordID": 1048, "conditions": [24, 800, "v", 24000], "trial": 3, "serialpos": 3, "trial_type": "single-stim", "trial_index": 120, "time_elapsed": 545342, "internal_node_id": "0.0-84.0"}}, {"uniqueid": "MTK0204:33IZTU6J828CE3BZLC7VFFDZ39HXSQ", "current_trial": 121, "dateTime": 1509544528251, "trialdata": {"rt": -1, "stimulus": "<p id=\"stim\">ICING</p>", "key_press": -1, "type": "PRES_VIS", "word": "icing", "wordID": 731, "conditions": [24, 800, "v", 24000], "trial": 3, "serialpos": 4, "trial_type": "single-stim", "trial_index": 121, "time_elapsed": 547204, "internal_node_id": "0.0-85.0"}}, {"uniqueid": "MTK0204:33IZTU6J828CE3BZLC7VFFDZ39HXSQ", "current_trial": 122, "dateTime": 1509544529954, "trialdata": {"rt": -1, "stimulus": "<p id=\"stim\">CABBAGE</p>", "key_press": -1, "type": "PRES_VIS", "word": "cabbage", "wordID": 209, "conditions": [24, 800, "v", 24000], "trial": 3, "serialpos": 5, "trial_type": "single-stim", "trial_index": 122, "time_elapsed": 548907, "internal_node_id": "0.0-86.0"}}, {"uniqueid": "MTK0204:33IZTU6J828CE3BZLC7VFFDZ39HXSQ", "current_trial": 123, "dateTime": 1509544531932, "trialdata": {"rt": -1, "stimulus": "<p id=\"stim\">POSSUM</p>", "key_press": -1, "type": "PRES_VIS", "word": "possum", "wordID": 1111, "conditions": [24, 800, "v", 24000], "trial": 3, "serialpos": 6, "trial_type": "single-stim", "trial_index": 123, "time_elapsed": 550885, "internal_node_id": "0.0-87.0"}}, {"uniqueid": "MTK0204:33IZTU6J828CE3BZLC7VFFDZ39HXSQ", "current_trial": 124, "dateTime": 1509544533562, "trialdata": {"rt": -1, "stimulus": "<p id=\"stim\">PANTHER</p>", "key_press": -1, "type": "PRES_VIS", "word": "panther", "wordID": 1008, "conditions": [24, 800, "v", 24000], "trial": 3, "serialpos": 7, "trial_type": "single-stim", "trial_index": 124, "time_elapsed": 552515, "internal_node_id": "0.0-88.0"}}, {"uniqueid": "MTK0204:33IZTU6J828CE3BZLC7VFFDZ39HXSQ", "current_trial": 125, "dateTime": 1509544535300, "trialdata": {"rt": -1, "stimulus": "<p id=\"stim\">NURSE</p>", "key_press": -1, "type": "PRES_VIS", "word": "nurse", "wordID": 962, "conditions": [24, 800, "v", 24000], "trial": 3, "serialpos": 8, "trial_type": "single-stim", "trial_index": 125, "time_elapsed": 554253, "internal_node_id": "0.0-89.0"}}, {"uniqueid": "MTK0204:33IZTU6J828CE3BZLC7VFFDZ39HXSQ", "current_trial": 126, "dateTime": 1509544537014, "trialdata": {"rt": -1, "stimulus": "<p id=\"stim\">FIDDLE</p>", "key_press": -1, "type": "PRES_VIS", "word": "fiddle", "wordID": 560, "conditions": [24, 800, "v", 24000], "trial": 3, "serialpos": 9, "trial_type": "single-stim", "trial_index": 126, "time_elapsed": 555967, "internal_node_id": "0.0-90.0"}}, {"uniqueid": "MTK0204:33IZTU6J828CE3BZLC7VFFDZ39HXSQ", "current_trial": 127, "dateTime": 1509544538989, "trialdata": {"rt": -1, "stimulus": "<p id=\"stim\">TURNIP</p>", "key_press": -1, "type": "PRES_VIS", "word": "turnip", "wordID": 1520, "conditions": [24, 800, "v", 24000], "trial": 3, "serialpos": 10, "trial_type": "single-stim", "trial_index": 127, "time_elapsed": 557942, "internal_node_id": "0.0-91.0"}}, {"uniqueid": "MTK0204:33IZTU6J828CE3BZLC7VFFDZ39HXSQ", "current_trial": 128, "dateTime": 1509544540592, "trialdata": {"rt": -1, "stimulus": "<p id=\"stim\">MUMMY</p>", "key_press": -1, "type": "PRES_VIS", "word": "mummy", "wordID": 931, "conditions": [24, 800, "v", 24000], "trial": 3, "serialpos": 11, "trial_type": "single-stim", "trial_index": 128, "time_elapsed": 559545, "internal_node_id": "0.0-92.0"}}, {"uniqueid": "MTK0204:33IZTU6J828CE3BZLC7VFFDZ39HXSQ", "current_trial": 129, "dateTime": 1509544542510, "trialdata": {"rt": -1, "stimulus": "<p id=\"stim\">SUPPER</p>", "key_press": -1, "type": "PRES_VIS", "word": "supper", "wordID": 1410, "conditions": [24, 800, "v", 24000], "trial": 3, "serialpos": 12, "trial_type": "single-stim", "trial_index": 129, "time_elapsed": 561463, "internal_node_id": "0.0-93.0"}}, {"uniqueid": "MTK0204:33IZTU6J828CE3BZLC7VFFDZ39HXSQ", "current_trial": 130, "dateTime": 1509544544395, "trialdata": {"rt": -1, "stimulus": "<p id=\"stim\">OZONE</p>", "key_press": -1, "type": "PRES_VIS", "word": "ozone", "wordID": 995, "conditions": [24, 800, "v", 24000], "trial": 3, "serialpos": 13, "trial_type": "single-stim", "trial_index": 130, "time_elapsed": 563348, "internal_node_id": "0.0-94.0"}}, {"uniqueid": "MTK0204:33IZTU6J828CE3BZLC7VFFDZ39HXSQ", "current_trial": 131, "dateTime": 1509544546376, "trialdata": {"rt": -1, "stimulus": "<p id=\"stim\">CAFE</p>", "key_press": -1, "type": "PRES_VIS", "word": "cafe", "wordID": 215, "conditions": [24, 800, "v", 24000], "trial": 3, "serialpos": 14, "trial_type": "single-stim", "trial_index": 131, "time_elapsed": 565329, "internal_node_id": "0.0-95.0"}}, {"uniqueid": "MTK0204:33IZTU6J828CE3BZLC7VFFDZ39HXSQ", "current_trial": 132, "dateTime": 1509544548003, "trialdata": {"rt": -1, "stimulus": "<p id=\"stim\">LUNCH</p>", "key_press": -1, "type": "PRES_VIS", "word": "lunch", "wordID": 848, "conditions": [24, 800, "v", 24000], "trial": 3, "serialpos": 15, "trial_type": "single-stim", "trial_index": 132, "time_elapsed": 566956, "internal_node_id": "0.0-96.0"}}, {"uniqueid": "MTK0204:33IZTU6J828CE3BZLC7VFFDZ39HXSQ", "current_trial": 133, "dateTime": 1509544549892, "trialdata": {"rt": -1, "stimulus": "<p id=\"stim\">CYCLONE</p>", "key_press": -1, "type": "PRES_VIS", "word": "cyclone", "wordID": 430, "conditions": [24, 800, "v", 24000], "trial": 3, "serialpos": 16, "trial_type": "single-stim", "trial_index": 133, "time_elapsed": 568845, "internal_node_id": "0.0-97.0"}}, {"uniqueid": "MTK0204:33IZTU6J828CE3BZLC7VFFDZ39HXSQ", "current_trial": 134, "dateTime": 1509544551866, "trialdata": {"rt": -1, "stimulus": "<p id=\"stim\">GIRL</p>", "key_press": -1, "type": "PRES_VIS", "word": "girl", "wordID": 636, "conditions": [24, 800, "v", 24000], "trial": 3, "serialpos": 17, "trial_type": "single-stim", "trial_index": 134, "time_elapsed": 570819, "internal_node_id": "0.0-98.0"}}, {"uniqueid": "MTK0204:33IZTU6J828CE3BZLC7VFFDZ39HXSQ", "current_trial": 135, "dateTime": 1509544553518, "trialdata": {"rt": -1, "stimulus": "<p id=\"stim\">PRINCESS</p>", "key_press": -1, "type": "PRES_VIS", "word": "princess", "wordID": 1124, "conditions": [24, 800, "v", 24000], "trial": 3, "serialpos": 18, "trial_type": "single-stim", "trial_index": 135, "time_elapsed": 572471, "internal_node_id": "0.0-99.0"}}, {"uniqueid": "MTK0204:33IZTU6J828CE3BZLC7VFFDZ39HXSQ", "current_trial": 136, "dateTime": 1509544555287, "trialdata": {"rt": -1, "stimulus": "<p id=\"stim\">PLASTER</p>", "key_press": -1, "type": "PRES_VIS", "word": "plaster", "wordID": 1084, "conditions": [24, 800, "v", 24000], "trial": 3, "serialpos": 19, "trial_type": "single-stim", "trial_index": 136, "time_elapsed": 574240, "internal_node_id": "0.0-100.0"}}, {"uniqueid": "MTK0204:33IZTU6J828CE3BZLC7VFFDZ39HXSQ", "current_trial": 137, "dateTime": 1509544557161, "trialdata": {"rt": -1, "stimulus": "<p id=\"stim\">SEAGULL</p>", "key_press": -1, "type": "PRES_VIS", "word": "seagull", "wordID": 1260, "conditions": [24, 800, "v", 24000], "trial": 3, "serialpos": 20, "trial_type": "single-stim", "trial_index": 137, "time_elapsed": 576114, "internal_node_id": "0.0-101.0"}}, {"uniqueid": "MTK0204:33IZTU6J828CE3BZLC7VFFDZ39HXSQ", "current_trial": 138, "dateTime": 1509544559159, "trialdata": {"rt": -1, "stimulus": "<p id=\"stim\">RACKET</p>", "key_press": -1, "type": "PRES_VIS", "word": "racket", "wordID": 1154, "conditions": [24, 800, "v", 24000], "trial": 3, "serialpos": 21, "trial_type": "single-stim", "trial_index": 138, "time_elapsed": 578112, "internal_node_id": "0.0-102.0"}}, {"uniqueid": "MTK0204:33IZTU6J828CE3BZLC7VFFDZ39HXSQ", "current_trial": 139, "dateTime": 1509544560871, "trialdata": {"rt": -1, "stimulus": "<p id=\"stim\">PADDING</p>", "key_press": -1, "type": "PRES_VIS", "word": "padding", "wordID": 998, "conditions": [24, 800, "v", 24000], "trial": 3, "serialpos": 22, "trial_type": "single-stim", "trial_index": 139, "time_elapsed": 579824, "internal_node_id": "0.0-103.0"}}, {"uniqueid": "MTK0204:33IZTU6J828CE3BZLC7VFFDZ39HXSQ", "current_trial": 140, "dateTime": 1509544562717, "trialdata": {"rt": -1, "stimulus": "<p id=\"stim\">CURTAIN</p>", "key_press": -1, "type": "PRES_VIS", "word": "curtain", "wordID": 426, "conditions": [24, 800, "v", 24000], "trial": 3, "serialpos": 23, "trial_type": "single-stim", "trial_index": 140, "time_elapsed": 581670, "internal_node_id": "0.0-104.0"}}, {"uniqueid": "MTK0204:33IZTU6J828CE3BZLC7VFFDZ39HXSQ", "current_trial": 141, "dateTime": 1509544564925, "trialdata": {"rt": -1, "stimulus": "", "key_press": -1, "type": "PRE_RECALL_DELAY", "trial_type": "single-stim", "trial_index": 141, "time_elapsed": 583878, "internal_node_id": "0.0-105.0-0.0"}}, {"uniqueid": "MTK0204:33IZTU6J828CE3BZLC7VFFDZ39HXSQ", "current_trial": 142, "dateTime": 1509544565428, "trialdata": {"rt": -1000, "stimulus": "/static/audio/400Hz.wav", "key_press": -1, "type": "PRE_RECALL_ALERT", "trial_type": "single-audio", "trial_index": 142, "time_elapsed": 584381, "internal_node_id": "0.0-106.0"}}, {"uniqueid": "MTK0204:33IZTU6J828CE3BZLC7VFFDZ39HXSQ", "current_trial": 143, "dateTime": 1509544625435, "trialdata": {"rt": [2858, 3712, 4818, 6232, 7875, 9107, 11286, 15275, 17571, 23627, 25841, 29587, 31695, 46375, 48930], "recwords": ["curtain", "girl", "cafe", "lunch", "pebble", "supper", "plaster", "racket", "seagull", "cabbage", "turnip", "lace", "lumber", "perfume", "icing"], "type": "FREE_RECALL", "conditions": [24, 800, "v", 24000], "trial": 3, "trial_type": "free-recall", "trial_index": 143, "time_elapsed": 644384, "internal_node_id": "0.0-107.0-0.0"}}, {"uniqueid": "MTK0204:33IZTU6J828CE3BZLC7VFFDZ39HXSQ", "current_trial": 144, "dateTime": 1509544627945, "trialdata": {"rt": 508, "key_press": 32, "type": "INSTRUCTIONS", "trial_type": "text", "trial_index": 144, "time_elapsed": 646898, "internal_node_id": "0.0-108.0"}}, {"uniqueid": "MTK0204:33IZTU6J828CE3BZLC7VFFDZ39HXSQ", "current_trial": 145, "dateTime": 1509544641949, "trialdata": {"rt": [1449, 4145, 6120, 7903, 10654], "responses": ["1", "22", "15", "14", "26"], "num1": [3, 4, 3, 3, 9, 3], "num2": [7, 9, 5, 8, 8, 5], "num3": [1, 9, 7, 3, 9, 2], "type": "DISTRACTOR", "conditions": [12, 1600, "v", 12000], "trial": 4, "trial_type": "math-distractor", "trial_index": 145, "time_elapsed": 660902, "internal_node_id": "0.0-109.0"}}, {"uniqueid": "MTK0204:33IZTU6J828CE3BZLC7VFFDZ39HXSQ", "current_trial": 146, "dateTime": 1509544644951, "trialdata": {"rt": -1, "stimulus": "<p id=\"stim\">10</p>", "key_press": -1, "trial_type": "single-stim", "trial_index": 146, "time_elapsed": 663904, "internal_node_id": "0.0-110.0-0.0"}}, {"uniqueid": "MTK0204:33IZTU6J828CE3BZLC7VFFDZ39HXSQ", "current_trial": 147, "dateTime": 1509544645954, "trialdata": {"rt": -1, "stimulus": "<p id=\"stim\">9</p>", "key_press": -1, "trial_type": "single-stim", "trial_index": 147, "time_elapsed": 664906, "internal_node_id": "0.0-110.0-1.0"}}, {"uniqueid": "MTK0204:33IZTU6J828CE3BZLC7VFFDZ39HXSQ", "current_trial": 148, "dateTime": 1509544646956, "trialdata": {"rt": -1, "stimulus": "<p id=\"stim\">8</p>", "key_press": -1, "trial_type": "single-stim", "trial_index": 148, "time_elapsed": 665908, "internal_node_id": "0.0-110.0-2.0"}}, {"uniqueid": "MTK0204:33IZTU6J828CE3BZLC7VFFDZ39HXSQ", "current_trial": 149, "dateTime": 1509544647957, "trialdata": {"rt": -1, "stimulus": "<p id=\"stim\">7</p>", "key_press": -1, "trial_type": "single-stim", "trial_index": 149, "time_elapsed": 666910, "internal_node_id": "0.0-110.0-3.0"}}, {"uniqueid": "MTK0204:33IZTU6J828CE3BZLC7VFFDZ39HXSQ", "current_trial": 150, "dateTime": 1509544648959, "trialdata": {"rt": -1, "stimulus": "<p id=\"stim\">6</p>", "key_press": -1, "trial_type": "single-stim", "trial_index": 150, "time_elapsed": 667912, "internal_node_id": "0.0-110.0-4.0"}}, {"uniqueid": "MTK0204:33IZTU6J828CE3BZLC7VFFDZ39HXSQ", "current_trial": 151, "dateTime": 1509544649962, "trialdata": {"rt": -1, "stimulus": "<p id=\"stim\">5</p>", "key_press": -1, "trial_type": "single-stim", "trial_index": 151, "time_elapsed": 668914, "internal_node_id": "0.0-110.0-5.0"}}, {"uniqueid": "MTK0204:33IZTU6J828CE3BZLC7VFFDZ39HXSQ", "current_trial": 152, "dateTime": 1509544650964, "trialdata": {"rt": -1, "stimulus": "<p id=\"stim\">4</p>", "key_press": -1, "trial_type": "single-stim", "trial_index": 152, "time_elapsed": 669916, "internal_node_id": "0.0-110.0-6.0"}}, {"uniqueid": "MTK0204:33IZTU6J828CE3BZLC7VFFDZ39HXSQ", "current_trial": 153, "dateTime": 1509544651966, "trialdata": {"rt": -1, "stimulus": "<p id=\"stim\">3</p>", "key_press": -1, "trial_type": "single-stim", "trial_index": 153, "time_elapsed": 670918, "internal_node_id": "0.0-110.0-7.0"}}, {"uniqueid": "MTK0204:33IZTU6J828CE3BZLC7VFFDZ39HXSQ", "current_trial": 154, "dateTime": 1509544652967, "trialdata": {"rt": -1, "stimulus": "<p id=\"stim\">2</p>", "key_press": -1, "trial_type": "single-stim", "trial_index": 154, "time_elapsed": 671919, "internal_node_id": "0.0-110.0-8.0"}}, {"uniqueid": "MTK0204:33IZTU6J828CE3BZLC7VFFDZ39HXSQ", "current_trial": 155, "dateTime": 1509544653969, "trialdata": {"rt": -1, "stimulus": "<p id=\"stim\">1</p>", "key_press": -1, "trial_type": "single-stim", "trial_index": 155, "time_elapsed": 672922, "internal_node_id": "0.0-110.0-9.0"}}, {"uniqueid": "MTK0204:33IZTU6J828CE3BZLC7VFFDZ39HXSQ", "current_trial": 156, "dateTime": 1509544655470, "trialdata": {"rt": -1, "stimulus": "<p id=\"stim\">+</p>", "key_press": -1, "type": "FIXATION", "trial_type": "single-stim", "trial_index": 156, "time_elapsed": 674423, "internal_node_id": "0.0-111.0-0.0"}}, {"uniqueid": "MTK0204:33IZTU6J828CE3BZLC7VFFDZ39HXSQ", "current_trial": 157, "dateTime": 1509544657072, "trialdata": {"rt": -1, "stimulus": "<p id=\"stim\">LETTUCE</p>", "key_press": -1, "type": "PRES_VIS", "word": "lettuce", "wordID": 813, "conditions": [12, 1600, "v", 12000], "trial": 4, "serialpos": 0, "trial_type": "single-stim", "trial_index": 157, "time_elapsed": 676025, "internal_node_id": "0.0-112.0"}}, {"uniqueid": "MTK0204:33IZTU6J828CE3BZLC7VFFDZ39HXSQ", "current_trial": 158, "dateTime": 1509544659871, "trialdata": {"rt": -1, "stimulus": "<p id=\"stim\">APRON</p>", "key_press": -1, "type": "PRES_VIS", "word": "apron", "wordID": 34, "conditions": [12, 1600, "v", 12000], "trial": 4, "serialpos": 1, "trial_type": "single-stim", "trial_index": 158, "time_elapsed": 678824, "internal_node_id": "0.0-113.0"}}, {"uniqueid": "MTK0204:33IZTU6J828CE3BZLC7VFFDZ39HXSQ", "current_trial": 159, "dateTime": 1509544662635, "trialdata": {"rt": -1, "stimulus": "<p id=\"stim\">CRAYON</p>", "key_press": -1, "type": "PRES_VIS", "word": "crayon", "wordID": 400, "conditions": [12, 1600, "v", 12000], "trial": 4, "serialpos": 2, "trial_type": "single-stim", "trial_index": 159, "time_elapsed": 681588, "internal_node_id": "0.0-114.0"}}, {"uniqueid": "MTK0204:33IZTU6J828CE3BZLC7VFFDZ39HXSQ", "current_trial": 160, "dateTime": 1509544665405, "trialdata": {"rt": -1, "stimulus": "<p id=\"stim\">INMATE</p>", "key_press": -1, "type": "PRES_VIS", "word": "inmate", "wordID": 737, "conditions": [12, 1600, "v", 12000], "trial": 4, "serialpos": 3, "trial_type": "single-stim", "trial_index": 160, "time_elapsed": 684358, "internal_node_id": "0.0-115.0"}}, {"uniqueid": "MTK0204:33IZTU6J828CE3BZLC7VFFDZ39HXSQ", "current_trial": 161, "dateTime": 1509544667809, "trialdata": {"rt": -1, "stimulus": "<p id=\"stim\">INFANT</p>", "key_press": -1, "type": "PRES_VIS", "word": "infant", "wordID": 736, "conditions": [12, 1600, "v", 12000], "trial": 4, "serialpos": 4, "trial_type": "single-stim", "trial_index": 161, "time_elapsed": 686762, "internal_node_id": "0.0-116.0"}}, {"uniqueid": "MTK0204:33IZTU6J828CE3BZLC7VFFDZ39HXSQ", "current_trial": 162, "dateTime": 1509544670587, "trialdata": {"rt": -1, "stimulus": "<p id=\"stim\">ONION</p>", "key_press": -1, "type": "PRES_VIS", "word": "onion", "wordID": 976, "conditions": [12, 1600, "v", 12000], "trial": 4, "serialpos": 5, "trial_type": "single-stim", "trial_index": 162, "time_elapsed": 689540, "internal_node_id": "0.0-117.0"}}, {"uniqueid": "MTK0204:33IZTU6J828CE3BZLC7VFFDZ39HXSQ", "current_trial": 163, "dateTime": 1509544673264, "trialdata": {"rt": -1, "stimulus": "<p id=\"stim\">WRIST</p>", "key_press": -1, "type": "PRES_VIS", "word": "wrist", "wordID": 1625, "conditions": [12, 1600, "v", 12000], "trial": 4, "serialpos": 6, "trial_type": "single-stim", "trial_index": 163, "time_elapsed": 692217, "internal_node_id": "0.0-118.0"}}, {"uniqueid": "MTK0204:33IZTU6J828CE3BZLC7VFFDZ39HXSQ", "current_trial": 164, "dateTime": 1509544675973, "trialdata": {"rt": -1, "stimulus": "<p id=\"stim\">BINDER</p>", "key_press": -1, "type": "PRES_VIS", "word": "binder", "wordID": 126, "conditions": [12, 1600, "v", 12000], "trial": 4, "serialpos": 7, "trial_type": "single-stim", "trial_index": 164, "time_elapsed": 694926, "internal_node_id": "0.0-119.0"}}, {"uniqueid": "MTK0204:33IZTU6J828CE3BZLC7VFFDZ39HXSQ", "current_trial": 165, "dateTime": 1509544678711, "trialdata": {"rt": -1, "stimulus": "<p id=\"stim\">LAKE</p>", "key_press": -1, "type": "PRES_VIS", "word": "lake", "wordID": 795, "conditions": [12, 1600, "v", 12000], "trial": 4, "serialpos": 8, "trial_type": "single-stim", "trial_index": 165, "time_elapsed": 697664, "internal_node_id": "0.0-120.0"}}, {"uniqueid": "MTK0204:33IZTU6J828CE3BZLC7VFFDZ39HXSQ", "current_trial": 166, "dateTime": 1509544681188, "trialdata": {"rt": -1, "stimulus": "<p id=\"stim\">LAGOON</p>", "key_press": -1, "type": "PRES_VIS", "word": "lagoon", "wordID": 794, "conditions": [12, 1600, "v", 12000], "trial": 4, "serialpos": 9, "trial_type": "single-stim", "trial_index": 166, "time_elapsed": 700141, "internal_node_id": "0.0-121.0"}}, {"uniqueid": "MTK0204:33IZTU6J828CE3BZLC7VFFDZ39HXSQ", "current_trial": 167, "dateTime": 1509544683796, "trialdata": {"rt": -1, "stimulus": "<p id=\"stim\">HAMPER</p>", "key_press": -1, "type": "PRES_VIS", "word": "hamper", "wordID": 681, "conditions": [12, 1600, "v", 12000], "trial": 4, "serialpos": 10, "trial_type": "single-stim", "trial_index": 167, "time_elapsed": 702749, "internal_node_id": "0.0-122.0"}}, {"uniqueid": "MTK0204:33IZTU6J828CE3BZLC7VFFDZ39HXSQ", "current_trial": 168, "dateTime": 1509544686271, "trialdata": {"rt": -1, "stimulus": "<p id=\"stim\">BANKER</p>", "key_press": -1, "type": "PRES_VIS", "word": "banker", "wordID": 83, "conditions": [12, 1600, "v", 12000], "trial": 4, "serialpos": 11, "trial_type": "single-stim", "trial_index": 168, "time_elapsed": 705224, "internal_node_id": "0.0-123.0"}}, {"uniqueid": "MTK0204:33IZTU6J828CE3BZLC7VFFDZ39HXSQ", "current_trial": 169, "dateTime": 1509544688711, "trialdata": {"rt": -1, "stimulus": "", "key_press": -1, "type": "PRE_RECALL_DELAY", "trial_type": "single-stim", "trial_index": 169, "time_elapsed": 707664, "internal_node_id": "0.0-124.0-0.0"}}, {"uniqueid": "MTK0204:33IZTU6J828CE3BZLC7VFFDZ39HXSQ", "current_trial": 170, "dateTime": 1509544689215, "trialdata": {"rt": -1000, "stimulus": "/static/audio/400Hz.wav", "key_press": -1, "type": "PRE_RECALL_ALERT", "trial_type": "single-audio", "trial_index": 170, "time_elapsed": 708168, "internal_node_id": "0.0-125.0"}}, {"uniqueid": "MTK0204:33IZTU6J828CE3BZLC7VFFDZ39HXSQ", "current_trial": 171, "dateTime": 1509544749223, "trialdata": {"rt": [1814, 3047, 3795, 5504, 7279, 9399, 10769, 12723], "recwords": ["hamper", "banker", "lake", "lagoon", "inmate", "infant", "onion", "lettuce"], "type": "FREE_RECALL", "conditions": [12, 1600, "v", 12000], "trial": 4, "trial_type": "free-recall", "trial_index": 171, "time_elapsed": 768172, "internal_node_id": "0.0-126.0-0.0"}}, {"uniqueid": "MTK0204:33IZTU6J828CE3BZLC7VFFDZ39HXSQ", "current_trial": 172, "dateTime": 1509544752755, "trialdata": {"rt": 1530, "key_press": 32, "type": "INSTRUCTIONS", "trial_type": "text", "trial_index": 172, "time_elapsed": 771707, "internal_node_id": "0.0-127.0"}}, {"uniqueid": "MTK0204:33IZTU6J828CE3BZLC7VFFDZ39HXSQ", "current_trial": 173, "dateTime": 1509544778757, "trialdata": {"rt": [2956, 5670, 7885, 9833, 11750, 13376, 15402, 16764, 19023, 20354, 21910, 23447], "responses": ["20", "13", "15", "9", "15", "13", "14", "12", "19", "15", "22", "22"], "num1": [5, 2, 2, 4, 7, 3, 5, 1, 6, 1, 9, 8, 8], "num2": [6, 6, 9, 3, 5, 6, 2, 3, 9, 6, 4, 5, 1], "num3": [9, 5, 4, 2, 3, 4, 7, 8, 4, 8, 9, 7, 4], "type": "DISTRACTOR", "conditions": [24, 800, "a", 24000], "trial": 5, "trial_type": "math-distractor", "trial_index": 173, "time_elapsed": 797710, "internal_node_id": "0.0-128.0"}}, {"uniqueid": "MTK0204:33IZTU6J828CE3BZLC7VFFDZ39HXSQ", "current_trial": 174, "dateTime": 1509544781759, "trialdata": {"rt": -1, "stimulus": "<p id=\"stim\">10</p>", "key_press": -1, "trial_type": "single-stim", "trial_index": 174, "time_elapsed": 800712, "internal_node_id": "0.0-129.0-0.0"}}, {"uniqueid": "MTK0204:33IZTU6J828CE3BZLC7VFFDZ39HXSQ", "current_trial": 175, "dateTime": 1509544782760, "trialdata": {"rt": -1, "stimulus": "<p id=\"stim\">9</p>", "key_press": -1, "trial_type": "single-stim", "trial_index": 175, "time_elapsed": 801713, "internal_node_id": "0.0-129.0-1.0"}}, {"uniqueid": "MTK0204:33IZTU6J828CE3BZLC7VFFDZ39HXSQ", "current_trial": 176, "dateTime": 1509544783763, "trialdata": {"rt": -1, "stimulus": "<p id=\"stim\">8</p>", "key_press": -1, "trial_type": "single-stim", "trial_index": 176, "time_elapsed": 802715, "internal_node_id": "0.0-129.0-2.0"}}, {"uniqueid": "MTK0204:33IZTU6J828CE3BZLC7VFFDZ39HXSQ", "current_trial": 177, "dateTime": 1509544784764, "trialdata": {"rt": -1, "stimulus": "<p id=\"stim\">7</p>", "key_press": -1, "trial_type": "single-stim", "trial_index": 177, "time_elapsed": 803717, "internal_node_id": "0.0-129.0-3.0"}}, {"uniqueid": "MTK0204:33IZTU6J828CE3BZLC7VFFDZ39HXSQ", "current_trial": 178, "dateTime": 1509544785766, "trialdata": {"rt": -1, "stimulus": "<p id=\"stim\">6</p>", "key_press": -1, "trial_type": "single-stim", "trial_index": 178, "time_elapsed": 804719, "internal_node_id": "0.0-129.0-4.0"}}, {"uniqueid": "MTK0204:33IZTU6J828CE3BZLC7VFFDZ39HXSQ", "current_trial": 179, "dateTime": 1509544786767, "trialdata": {"rt": -1, "stimulus": "<p id=\"stim\">5</p>", "key_press": -1, "trial_type": "single-stim", "trial_index": 179, "time_elapsed": 805720, "internal_node_id": "0.0-129.0-5.0"}}, {"uniqueid": "MTK0204:33IZTU6J828CE3BZLC7VFFDZ39HXSQ", "current_trial": 180, "dateTime": 1509544787768, "trialdata": {"rt": -1, "stimulus": "<p id=\"stim\">4</p>", "key_press": -1, "trial_type": "single-stim", "trial_index": 180, "time_elapsed": 806721, "internal_node_id": "0.0-129.0-6.0"}}, {"uniqueid": "MTK0204:33IZTU6J828CE3BZLC7VFFDZ39HXSQ", "current_trial": 181, "dateTime": 1509544788771, "trialdata": {"rt": -1, "stimulus": "<p id=\"stim\">3</p>", "key_press": -1, "trial_type": "single-stim", "trial_index": 181, "time_elapsed": 807723, "internal_node_id": "0.0-129.0-7.0"}}, {"uniqueid": "MTK0204:33IZTU6J828CE3BZLC7VFFDZ39HXSQ", "current_trial": 182, "dateTime": 1509544789772, "trialdata": {"rt": -1, "stimulus": "<p id=\"stim\">2</p>", "key_press": -1, "trial_type": "single-stim", "trial_index": 182, "time_elapsed": 808725, "internal_node_id": "0.0-129.0-8.0"}}, {"uniqueid": "MTK0204:33IZTU6J828CE3BZLC7VFFDZ39HXSQ", "current_trial": 183, "dateTime": 1509544790773, "trialdata": {"rt": -1, "stimulus": "<p id=\"stim\">1</p>", "key_press": -1, "trial_type": "single-stim", "trial_index": 183, "time_elapsed": 809726, "internal_node_id": "0.0-129.0-9.0"}}, {"uniqueid": "MTK0204:33IZTU6J828CE3BZLC7VFFDZ39HXSQ", "current_trial": 184, "dateTime": 1509544792276, "trialdata": {"rt": -1, "stimulus": "<p id=\"stim\">+</p>", "key_press": -1, "type": "FIXATION", "trial_type": "single-stim", "trial_index": 184, "time_elapsed": 811229, "internal_node_id": "0.0-130.0-0.0"}}, {"uniqueid": "MTK0204:33IZTU6J828CE3BZLC7VFFDZ39HXSQ", "current_trial": 185, "dateTime": 1509544794158, "trialdata": {"rt": -1000, "stimulus": "/static/audio/wordpool/ROBIN.wav", "key_press": -1, "type": "PRES_AUD", "word": "robin", "wordID": 1198, "conditions": [24, 800, "a", 24000], "trial": 5, "serialpos": 0, "trial_type": "single-audio", "trial_index": 185, "time_elapsed": 813111, "internal_node_id": "0.0-131.0"}}, {"uniqueid": "MTK0204:33IZTU6J828CE3BZLC7VFFDZ39HXSQ", "current_trial": 186, "dateTime": 1509544795869, "trialdata": {"rt": -1000, "stimulus": "/static/audio/wordpool/PECAN.wav", "key_press": -1, "type": "PRES_AUD", "word": "pecan", "wordID": 1035, "conditions": [24, 800, "a", 24000], "trial": 5, "serialpos": 1, "trial_type": "single-audio", "trial_index": 186, "time_elapsed": 814822, "internal_node_id": "0.0-132.0"}}, {"uniqueid": "MTK0204:33IZTU6J828CE3BZLC7VFFDZ39HXSQ", "current_trial": 187, "dateTime": 1509544797860, "trialdata": {"rt": -1000, "stimulus": "/static/audio/wordpool/COUSIN.wav", "key_press": -1, "type": "PRES_AUD", "word": "cousin", "wordID": 391, "conditions": [24, 800, "a", 24000], "trial": 5, "serialpos": 2, "trial_type": "single-audio", "trial_index": 187, "time_elapsed": 816813, "internal_node_id": "0.0-133.0"}}, {"uniqueid": "MTK0204:33IZTU6J828CE3BZLC7VFFDZ39HXSQ", "current_trial": 188, "dateTime": 1509544799633, "trialdata": {"rt": -1000, "stimulus": "/static/audio/wordpool/UNCLE.wav", "key_press": -1, "type": "PRES_AUD", "word": "uncle", "wordID": 1535, "conditions": [24, 800, "a", 24000], "trial": 5, "serialpos": 3, "trial_type": "single-audio", "trial_index": 188, "time_elapsed": 818586, "internal_node_id": "0.0-134.0"}}, {"uniqueid": "MTK0204:33IZTU6J828CE3BZLC7VFFDZ39HXSQ", "current_trial": 189, "dateTime": 1509544801280, "trialdata": {"rt": -1000, "stimulus": "/static/audio/wordpool/OUTLAW.wav", "key_press": -1, "type": "PRES_AUD", "word": "outlaw", "wordID": 988, "conditions": [24, 800, "a", 24000], "trial": 5, "serialpos": 4, "trial_type": "single-audio", "trial_index": 189, "time_elapsed": 820233, "internal_node_id": "0.0-135.0"}}, {"uniqueid": "MTK0204:33IZTU6J828CE3BZLC7VFFDZ39HXSQ", "current_trial": 190, "dateTime": 1509544803254, "trialdata": {"rt": -1000, "stimulus": "/static/audio/wordpool/GHETTO.wav", "key_press": -1, "type": "PRES_AUD", "word": "ghetto", "wordID": 632, "conditions": [24, 800, "a", 24000], "trial": 5, "serialpos": 5, "trial_type": "single-audio", "trial_index": 190, "time_elapsed": 822207, "internal_node_id": "0.0-136.0"}}, {"uniqueid": "MTK0204:33IZTU6J828CE3BZLC7VFFDZ39HXSQ", "current_trial": 191, "dateTime": 1509544805184, "trialdata": {"rt": -1000, "stimulus": "/static/audio/wordpool/COFFEE.wav", "key_press": -1, "type": "PRES_AUD", "word": "coffee", "wordID": 340, "conditions": [24, 800, "a", 24000], "trial": 5, "serialpos": 6, "trial_type": "single-audio", "trial_index": 191, "time_elapsed": 824137, "internal_node_id": "0.0-137.0"}}, {"uniqueid": "MTK0204:33IZTU6J828CE3BZLC7VFFDZ39HXSQ", "current_trial": 192, "dateTime": 1509544807019, "trialdata": {"rt": -1000, "stimulus": "/static/audio/wordpool/FOOTBALL.wav", "key_press": -1, "type": "PRES_AUD", "word": "football", "wordID": 590, "conditions": [24, 800, "a", 24000], "trial": 5, "serialpos": 7, "trial_type": "single-audio", "trial_index": 192, "time_elapsed": 825972, "internal_node_id": "0.0-138.0"}}, {"uniqueid": "MTK0204:33IZTU6J828CE3BZLC7VFFDZ39HXSQ", "current_trial": 193, "dateTime": 1509544809013, "trialdata": {"rt": -1000, "stimulus": "/static/audio/wordpool/WHISTLE.wav", "key_press": -1, "type": "PRES_AUD", "word": "whistle", "wordID": 1605, "conditions": [24, 800, "a", 24000], "trial": 5, "serialpos": 8, "trial_type": "single-audio", "trial_index": 193, "time_elapsed": 827966, "internal_node_id": "0.0-139.0"}}, {"uniqueid": "MTK0204:33IZTU6J828CE3BZLC7VFFDZ39HXSQ", "current_trial": 194, "dateTime": 1509544810927, "trialdata": {"rt": -1000, "stimulus": "/static/audio/wordpool/SODA.wav", "key_press": -1, "type": "PRES_AUD", "word": "soda", "wordID": 1340, "conditions": [24, 800, "a", 24000], "trial": 5, "serialpos": 9, "trial_type": "single-audio", "trial_index": 194, "time_elapsed": 829880, "internal_node_id": "0.0-140.0"}}, {"uniqueid": "MTK0204:33IZTU6J828CE3BZLC7VFFDZ39HXSQ", "current_trial": 195, "dateTime": 1509544812731, "trialdata": {"rt": -1000, "stimulus": "/static/audio/wordpool/COOKBOOK.wav", "key_press": -1, "type": "PRES_AUD", "word": "cookbook", "wordID": 372, "conditions": [24, 800, "a", 24000], "trial": 5, "serialpos": 10, "trial_type": "single-audio", "trial_index": 195, "time_elapsed": 831684, "internal_node_id": "0.0-141.0"}}, {"uniqueid": "MTK0204:33IZTU6J828CE3BZLC7VFFDZ39HXSQ", "current_trial": 196, "dateTime": 1509544814585, "trialdata": {"rt": -1000, "stimulus": "/static/audio/wordpool/ZIPPER.wav", "key_press": -1, "type": "PRES_AUD", "word": "zipper", "wordID": 1635, "conditions": [24, 800, "a", 24000], "trial": 5, "serialpos": 11, "trial_type": "single-audio", "trial_index": 196, "time_elapsed": 833538, "internal_node_id": "0.0-142.0"}}, {"uniqueid": "MTK0204:33IZTU6J828CE3BZLC7VFFDZ39HXSQ", "current_trial": 197, "dateTime": 1509544816374, "trialdata": {"rt": -1000, "stimulus": "/static/audio/wordpool/BLOCKADE.wav", "key_press": -1, "type": "PRES_AUD", "word": "blockade", "wordID": 136, "conditions": [24, 800, "a", 24000], "trial": 5, "serialpos": 12, "trial_type": "single-audio", "trial_index": 197, "time_elapsed": 835327, "internal_node_id": "0.0-143.0"}}, {"uniqueid": "MTK0204:33IZTU6J828CE3BZLC7VFFDZ39HXSQ", "current_trial": 198, "dateTime": 1509544818004, "trialdata": {"rt": -1000, "stimulus": "/static/audio/wordpool/CRAB.wav", "key_press": -1, "type": "PRES_AUD", "word": "crab", "wordID": 396, "conditions": [24, 800, "a", 24000], "trial": 5, "serialpos": 13, "trial_type": "single-audio", "trial_index": 198, "time_elapsed": 836957, "internal_node_id": "0.0-144.0"}}, {"uniqueid": "MTK0204:33IZTU6J828CE3BZLC7VFFDZ39HXSQ", "current_trial": 199, "dateTime": 1509544819996, "trialdata": {"rt": -1000, "stimulus": "/static/audio/wordpool/TURTLE.wav", "key_press": -1, "type": "PRES_AUD", "word": "turtle", "wordID": 1521, "conditions": [24, 800, "a", 24000], "trial": 5, "serialpos": 14, "trial_type": "single-audio", "trial_index": 199, "time_elapsed": 838949, "internal_node_id": "0.0-145.0"}}, {"uniqueid": "MTK0204:33IZTU6J828CE3BZLC7VFFDZ39HXSQ", "current_trial": 200, "dateTime": 1509544821911, "trialdata": {"rt": -1000, "stimulus": "/static/audio/wordpool/SHARK.wav", "key_press": -1, "type": "PRES_AUD", "word": "shark", "wordID": 1274, "conditions": [24, 800, "a", 24000], "trial": 5, "serialpos": 15, "trial_type": "single-audio", "trial_index": 200, "time_elapsed": 840864, "internal_node_id": "0.0-146.0"}}, {"uniqueid": "MTK0204:33IZTU6J828CE3BZLC7VFFDZ39HXSQ", "current_trial": 201, "dateTime": 1509544823760, "trialdata": {"rt": -1000, "stimulus": "/static/audio/wordpool/COD.wav", "key_press": -1, "type": "PRES_AUD", "word": "cod", "wordID": 339, "conditions": [24, 800, "a", 24000], "trial": 5, "serialpos": 16, "trial_type": "single-audio", "trial_index": 201, "time_elapsed": 842713, "internal_node_id": "0.0-147.0"}}, {"uniqueid": "MTK0204:33IZTU6J828CE3BZLC7VFFDZ39HXSQ", "current_trial": 202, "dateTime": 1509544825534, "trialdata": {"rt": -1000, "stimulus": "/static/audio/wordpool/WORLD.wav", "key_press": -1, "type": "PRES_AUD", "word": "world", "wordID": 1621, "conditions": [24, 800, "a", 24000], "trial": 5, "serialpos": 17, "trial_type": "single-audio", "trial_index": 202, "time_elapsed": 844487, "internal_node_id": "0.0-148.0"}}, {"uniqueid": "MTK0204:33IZTU6J828CE3BZLC7VFFDZ39HXSQ", "current_trial": 203, "dateTime": 1509544827321, "trialdata": {"rt": -1000, "stimulus": "/static/audio/wordpool/EGYPT.wav", "key_press": -1, "type": "PRES_AUD", "word": "egypt", "wordID": 518, "conditions": [24, 800, "a", 24000], "trial": 5, "serialpos": 18, "trial_type": "single-audio", "trial_index": 203, "time_elapsed": 846274, "internal_node_id": "0.0-149.0"}}, {"uniqueid": "MTK0204:33IZTU6J828CE3BZLC7VFFDZ39HXSQ", "current_trial": 204, "dateTime": 1509544829125, "trialdata": {"rt": -1000, "stimulus": "/static/audio/wordpool/EXPERT.wav", "key_press": -1, "type": "PRES_AUD", "word": "expert", "wordID": 542, "conditions": [24, 800, "a", 24000], "trial": 5, "serialpos": 19, "trial_type": "single-audio", "trial_index": 204, "time_elapsed": 848078, "internal_node_id": "0.0-150.0"}}, {"uniqueid": "MTK0204:33IZTU6J828CE3BZLC7VFFDZ39HXSQ", "current_trial": 205, "dateTime": 1509544831007, "trialdata": {"rt": -1000, "stimulus": "/static/audio/wordpool/CREVICE.wav", "key_press": -1, "type": "PRES_AUD", "word": "crevice", "wordID": 404, "conditions": [24, 800, "a", 24000], "trial": 5, "serialpos": 20, "trial_type": "single-audio", "trial_index": 205, "time_elapsed": 849960, "internal_node_id": "0.0-151.0"}}, {"uniqueid": "MTK0204:33IZTU6J828CE3BZLC7VFFDZ39HXSQ", "current_trial": 206, "dateTime": 1509544832937, "trialdata": {"rt": -1000, "stimulus": "/static/audio/wordpool/BATHTUB.wav", "key_press": -1, "type": "PRES_AUD", "word": "bathtub", "wordID": 99, "conditions": [24, 800, "a", 24000], "trial": 5, "serialpos": 21, "trial_type": "single-audio", "trial_index": 206, "time_elapsed": 851890, "internal_node_id": "0.0-152.0"}}, {"uniqueid": "MTK0204:33IZTU6J828CE3BZLC7VFFDZ39HXSQ", "current_trial": 207, "dateTime": 1509544834711, "trialdata": {"rt": -1000, "stimulus": "/static/audio/wordpool/PLAYGROUND.wav", "key_press": -1, "type": "PRES_AUD", "word": "playground", "wordID": 1086, "conditions": [24, 800, "a", 24000], "trial": 5, "serialpos": 22, "trial_type": "single-audio", "trial_index": 207, "time_elapsed": 853664, "internal_node_id": "0.0-153.0"}}, {"uniqueid": "MTK0204:33IZTU6J828CE3BZLC7VFFDZ39HXSQ", "current_trial": 208, "dateTime": 1509544836499, "trialdata": {"rt": -1000, "stimulus": "/static/audio/wordpool/STONE.wav", "key_press": -1, "type": "PRES_AUD", "word": "stone", "wordID": 1384, "conditions": [24, 800, "a", 24000], "trial": 5, "serialpos": 23, "trial_type": "single-audio", "trial_index": 208, "time_elapsed": 855452, "internal_node_id": "0.0-154.0"}}, {"uniqueid": "MTK0204:33IZTU6J828CE3BZLC7VFFDZ39HXSQ", "current_trial": 209, "dateTime": 1509544837864, "trialdata": {"rt": -1, "stimulus": "", "key_press": -1, "type": "PRE_RECALL_DELAY", "trial_type": "single-stim", "trial_index": 209, "time_elapsed": 856817, "internal_node_id": "0.0-155.0-0.0"}}, {"uniqueid": "MTK0204:33IZTU6J828CE3BZLC7VFFDZ39HXSQ", "current_trial": 210, "dateTime": 1509544838372, "trialdata": {"rt": -1000, "stimulus": "/static/audio/400Hz.wav", "key_press": -1, "type": "PRE_RECALL_ALERT", "trial_type": "single-audio", "trial_index": 210, "time_elapsed": 857314, "internal_node_id": "0.0-156.0"}}, {"uniqueid": "MTK0204:33IZTU6J828CE3BZLC7VFFDZ39HXSQ", "current_trial": 211, "dateTime": 1509544898377, "trialdata": {"rt": [1118, 3527, 4494, 5968, 7786, 9573, 14675], "recwords": ["stone", "playground", "cod", "uncle", "outlaw", "cousin", "robin"], "type": "FREE_RECALL", "conditions": [24, 800, "a", 24000], "trial": 5, "trial_type": "free-recall", "trial_index": 211, "time_elapsed": 917328, "internal_node_id": "0.0-157.0-0.0"}}, {"uniqueid": "MTK0204:33IZTU6J828CE3BZLC7VFFDZ39HXSQ", "current_trial": 212, "dateTime": 1509544901014, "trialdata": {"rt": 634, "key_press": 32, "type": "INSTRUCTIONS", "trial_type": "text", "trial_index": 212, "time_elapsed": 919966, "internal_node_id": "0.0-158.0"}}, {"uniqueid": "MTK0204:33IZTU6J828CE3BZLC7VFFDZ39HXSQ", "current_trial": 213, "dateTime": 1509544927018, "trialdata": {"rt": [2567, 4397, 5797, 7164, 8457, 10078, 12074, 14869, 16360, 17472, 19379, 21820], "responses": ["21", "15", "14", "9", "10", "17", "16", "17", "15", "4", "17", "23"], "num1": [8, 4, 1, 6, 1, 4, 8, 5, 2, 2, 8, 7, 4], "num2": [4, 4, 5, 2, 1, 6, 5, 6, 8, 1, 1, 9, 3], "num3": [9, 7, 8, 1, 8, 7, 3, 6, 5, 1, 8, 7, 5], "type": "DISTRACTOR", "conditions": [24, 1600, "v", 24000], "trial": 6, "trial_type": "math-distractor", "trial_index": 213, "time_elapsed": 945971, "internal_node_id": "0.0-159.0"}}, {"uniqueid": "MTK0204:33IZTU6J828CE3BZLC7VFFDZ39HXSQ", "current_trial": 214, "dateTime": 1509544930022, "trialdata": {"rt": -1, "stimulus": "<p id=\"stim\">10</p>", "key_press": -1, "trial_type": "single-stim", "trial_index": 214, "time_elapsed": 948975, "internal_node_id": "0.0-160.0-0.0"}}, {"uniqueid": "MTK0204:33IZTU6J828CE3BZLC7VFFDZ39HXSQ", "current_trial": 215, "dateTime": 1509544931024, "trialdata": {"rt": -1, "stimulus": "<p id=\"stim\">9</p>", "key_press": -1, "trial_type": "single-stim", "trial_index": 215, "time_elapsed": 949976, "internal_node_id": "0.0-160.0-1.0"}}, {"uniqueid": "MTK0204:33IZTU6J828CE3BZLC7VFFDZ39HXSQ", "current_trial": 216, "dateTime": 1509544932026, "trialdata": {"rt": -1, "stimulus": "<p id=\"stim\">8</p>", "key_press": -1, "trial_type": "single-stim", "trial_index": 216, "time_elapsed": 950978, "internal_node_id": "0.0-160.0-2.0"}}, {"uniqueid": "MTK0204:33IZTU6J828CE3BZLC7VFFDZ39HXSQ", "current_trial": 217, "dateTime": 1509544933028, "trialdata": {"rt": -1, "stimulus": "<p id=\"stim\">7</p>", "key_press": -1, "trial_type": "single-stim", "trial_index": 217, "time_elapsed": 951980, "internal_node_id": "0.0-160.0-3.0"}}, {"uniqueid": "MTK0204:33IZTU6J828CE3BZLC7VFFDZ39HXSQ", "current_trial": 218, "dateTime": 1509544934031, "trialdata": {"rt": -1, "stimulus": "<p id=\"stim\">6</p>", "key_press": -1, "trial_type": "single-stim", "trial_index": 218, "time_elapsed": 952984, "internal_node_id": "0.0-160.0-4.0"}}, {"uniqueid": "MTK0204:33IZTU6J828CE3BZLC7VFFDZ39HXSQ", "current_trial": 219, "dateTime": 1509544935032, "trialdata": {"rt": -1, "stimulus": "<p id=\"stim\">5</p>", "key_press": -1, "trial_type": "single-stim", "trial_index": 219, "time_elapsed": 953985, "internal_node_id": "0.0-160.0-5.0"}}, {"uniqueid": "MTK0204:33IZTU6J828CE3BZLC7VFFDZ39HXSQ", "current_trial": 220, "dateTime": 1509544936034, "trialdata": {"rt": -1, "stimulus": "<p id=\"stim\">4</p>", "key_press": -1, "trial_type": "single-stim", "trial_index": 220, "time_elapsed": 954987, "internal_node_id": "0.0-160.0-6.0"}}, {"uniqueid": "MTK0204:33IZTU6J828CE3BZLC7VFFDZ39HXSQ", "current_trial": 221, "dateTime": 1509544937035, "trialdata": {"rt": 114, "stimulus": "<p id=\"stim\">3</p>", "key_press": 175, "trial_type": "single-stim", "trial_index": 221, "time_elapsed": 955988, "internal_node_id": "0.0-160.0-7.0"}}, {"uniqueid": "MTK0204:33IZTU6J828CE3BZLC7VFFDZ39HXSQ", "current_trial": 222, "dateTime": 1509544938037, "trialdata": {"rt": -1, "stimulus": "<p id=\"stim\">2</p>", "key_press": -1, "trial_type": "single-stim", "trial_index": 222, "time_elapsed": 956990, "internal_node_id": "0.0-160.0-8.0"}}, {"uniqueid": "MTK0204:33IZTU6J828CE3BZLC7VFFDZ39HXSQ", "current_trial": 223, "dateTime": 1509544939038, "trialdata": {"rt": -1, "stimulus": "<p id=\"stim\">1</p>", "key_press": -1, "trial_type": "single-stim", "trial_index": 223, "time_elapsed": 957991, "internal_node_id": "0.0-160.0-9.0"}}, {"uniqueid": "MTK0204:33IZTU6J828CE3BZLC7VFFDZ39HXSQ", "current_trial": 224, "dateTime": 1509544940539, "trialdata": {"rt": -1, "stimulus": "<p id=\"stim\">+</p>", "key_press": -1, "type": "FIXATION", "trial_type": "single-stim", "trial_index": 224, "time_elapsed": 959492, "internal_node_id": "0.0-161.0-0.0"}}, {"uniqueid": "MTK0204:33IZTU6J828CE3BZLC7VFFDZ39HXSQ", "current_trial": 225, "dateTime": 1509544942140, "trialdata": {"rt": -1, "stimulus": "<p id=\"stim\">CLAM</p>", "key_press": -1, "type": "PRES_VIS", "word": "clam", "wordID": 314, "conditions": [24, 1600, "v", 24000], "trial": 6, "serialpos": 0, "trial_type": "single-stim", "trial_index": 225, "time_elapsed": 961093, "internal_node_id": "0.0-162.0"}}, {"uniqueid": "MTK0204:33IZTU6J828CE3BZLC7VFFDZ39HXSQ", "current_trial": 226, "dateTime": 1509544944819, "trialdata": {"rt": -1, "stimulus": "<p id=\"stim\">SUNSET</p>", "key_press": -1, "type": "PRES_VIS", "word": "sunset", "wordID": 1407, "conditions": [24, 1600, "v", 24000], "trial": 6, "serialpos": 1, "trial_type": "single-stim", "trial_index": 226, "time_elapsed": 963772, "internal_node_id": "0.0-163.0"}}, {"uniqueid": "MTK0204:33IZTU6J828CE3BZLC7VFFDZ39HXSQ", "current_trial": 227, "dateTime": 1509544947324, "trialdata": {"rt": -1, "stimulus": "<p id=\"stim\">RAFT</p>", "key_press": -1, "type": "PRES_VIS", "word": "raft", "wordID": 1158, "conditions": [24, 1600, "v", 24000], "trial": 6, "serialpos": 2, "trial_type": "single-stim", "trial_index": 227, "time_elapsed": 966277, "internal_node_id": "0.0-164.0"}}, {"uniqueid": "MTK0204:33IZTU6J828CE3BZLC7VFFDZ39HXSQ", "current_trial": 228, "dateTime": 1509544950070, "trialdata": {"rt": -1, "stimulus": "<p id=\"stim\">BACON</p>", "key_press": -1, "type": "PRES_VIS", "word": "bacon", "wordID": 66, "conditions": [24, 1600, "v", 24000], "trial": 6, "serialpos": 3, "trial_type": "single-stim", "trial_index": 228, "time_elapsed": 969023, "internal_node_id": "0.0-165.0"}}, {"uniqueid": "MTK0204:33IZTU6J828CE3BZLC7VFFDZ39HXSQ", "current_trial": 229, "dateTime": 1509544952474, "trialdata": {"rt": -1, "stimulus": "<p id=\"stim\">KIDNEY</p>", "key_press": -1, "type": "PRES_VIS", "word": "kidney", "wordID": 775, "conditions": [24, 1600, "v", 24000], "trial": 6, "serialpos": 4, "trial_type": "single-stim", "trial_index": 229, "time_elapsed": 971427, "internal_node_id": "0.0-166.0"}}, {"uniqueid": "MTK0204:33IZTU6J828CE3BZLC7VFFDZ39HXSQ", "current_trial": 230, "dateTime": 1509544955226, "trialdata": {"rt": -1, "stimulus": "<p id=\"stim\">MARROW</p>", "key_press": -1, "type": "PRES_VIS", "word": "marrow", "wordID": 871, "conditions": [24, 1600, "v", 24000], "trial": 6, "serialpos": 5, "trial_type": "single-stim", "trial_index": 230, "time_elapsed": 974179, "internal_node_id": "0.0-167.0"}}, {"uniqueid": "MTK0204:33IZTU6J828CE3BZLC7VFFDZ39HXSQ", "current_trial": 231, "dateTime": 1509544957767, "trialdata": {"rt": -1, "stimulus": "<p id=\"stim\">PASTRY</p>", "key_press": -1, "type": "PRES_VIS", "word": "pastry", "wordID": 1021, "conditions": [24, 1600, "v", 24000], "trial": 6, "serialpos": 6, "trial_type": "single-stim", "trial_index": 231, "time_elapsed": 976720, "internal_node_id": "0.0-168.0"}}, {"uniqueid": "MTK0204:33IZTU6J828CE3BZLC7VFFDZ39HXSQ", "current_trial": 232, "dateTime": 1509544960526, "trialdata": {"rt": -1, "stimulus": "<p id=\"stim\">RAZOR</p>", "key_press": -1, "type": "PRES_VIS", "word": "razor", "wordID": 1170, "conditions": [24, 1600, "v", 24000], "trial": 6, "serialpos": 7, "trial_type": "single-stim", "trial_index": 232, "time_elapsed": 979479, "internal_node_id": "0.0-169.0"}}, {"uniqueid": "MTK0204:33IZTU6J828CE3BZLC7VFFDZ39HXSQ", "current_trial": 233, "dateTime": 1509544962938, "trialdata": {"rt": -1, "stimulus": "<p id=\"stim\">DENTIST</p>", "key_press": -1, "type": "PRES_VIS", "word": "dentist", "wordID": 446, "conditions": [24, 1600, "v", 24000], "trial": 6, "serialpos": 8, "trial_type": "single-stim", "trial_index": 233, "time_elapsed": 981891, "internal_node_id": "0.0-170.0"}}, {"uniqueid": "MTK0204:33IZTU6J828CE3BZLC7VFFDZ39HXSQ", "current_trial": 234, "dateTime": 1509544965342, "trialdata": {"rt": -1, "stimulus": "<p id=\"stim\">STOVE</p>", "key_press": -1, "type": "PRES_VIS", "word": "stove", "wordID": 1387, "conditions": [24, 1600, "v", 24000], "trial": 6, "serialpos": 9, "trial_type": "single-stim", "trial_index": 234, "time_elapsed": 984295, "internal_node_id": "0.0-171.0"}}, {"uniqueid": "MTK0204:33IZTU6J828CE3BZLC7VFFDZ39HXSQ", "current_trial": 235, "dateTime": 1509544968011, "trialdata": {"rt": -1, "stimulus": "<p id=\"stim\">ULCER</p>", "key_press": -1, "type": "PRES_VIS", "word": "ulcer", "wordID": 1532, "conditions": [24, 1600, "v", 24000], "trial": 6, "serialpos": 10, "trial_type": "single-stim", "trial_index": 235, "time_elapsed": 986964, "internal_node_id": "0.0-172.0"}}, {"uniqueid": "MTK0204:33IZTU6J828CE3BZLC7VFFDZ39HXSQ", "current_trial": 236, "dateTime": 1509544970718, "trialdata": {"rt": -1, "stimulus": "<p id=\"stim\">PASTA</p>", "key_press": -1, "type": "PRES_VIS", "word": "pasta", "wordID": 1020, "conditions": [24, 1600, "v", 24000], "trial": 6, "serialpos": 11, "trial_type": "single-stim", "trial_index": 236, "time_elapsed": 989671, "internal_node_id": "0.0-173.0"}}, {"uniqueid": "MTK0204:33IZTU6J828CE3BZLC7VFFDZ39HXSQ", "current_trial": 237, "dateTime": 1509544973368, "trialdata": {"rt": -1, "stimulus": "<p id=\"stim\">POWDER</p>", "key_press": -1, "type": "PRES_VIS", "word": "powder", "wordID": 1116, "conditions": [24, 1600, "v", 24000], "trial": 6, "serialpos": 12, "trial_type": "single-stim", "trial_index": 237, "time_elapsed": 992321, "internal_node_id": "0.0-174.0"}}, {"uniqueid": "MTK0204:33IZTU6J828CE3BZLC7VFFDZ39HXSQ", "current_trial": 238, "dateTime": 1509544976073, "trialdata": {"rt": -1, "stimulus": "<p id=\"stim\">DENIM</p>", "key_press": -1, "type": "PRES_VIS", "word": "denim", "wordID": 445, "conditions": [24, 1600, "v", 24000], "trial": 6, "serialpos": 13, "trial_type": "single-stim", "trial_index": 238, "time_elapsed": 995026, "internal_node_id": "0.0-175.0"}}, {"uniqueid": "MTK0204:33IZTU6J828CE3BZLC7VFFDZ39HXSQ", "current_trial": 239, "dateTime": 1509544978586, "trialdata": {"rt": -1, "stimulus": "<p id=\"stim\">COBRA</p>", "key_press": -1, "type": "PRES_VIS", "word": "cobra", "wordID": 335, "conditions": [24, 1600, "v", 24000], "trial": 6, "serialpos": 14, "trial_type": "single-stim", "trial_index": 239, "time_elapsed": 997539, "internal_node_id": "0.0-176.0"}}, {"uniqueid": "MTK0204:33IZTU6J828CE3BZLC7VFFDZ39HXSQ", "current_trial": 240, "dateTime": 1509544981005, "trialdata": {"rt": -1, "stimulus": "<p id=\"stim\">OFFICE</p>", "key_press": -1, "type": "PRES_VIS", "word": "office", "wordID": 971, "conditions": [24, 1600, "v", 24000], "trial": 6, "serialpos": 15, "trial_type": "single-stim", "trial_index": 240, "time_elapsed": 999958, "internal_node_id": "0.0-177.0"}}, {"uniqueid": "MTK0204:33IZTU6J828CE3BZLC7VFFDZ39HXSQ", "current_trial": 241, "dateTime": 1509544983502, "trialdata": {"rt": -1, "stimulus": "<p id=\"stim\">PIANO</p>", "key_press": -1, "type": "PRES_VIS", "word": "piano", "wordID": 1056, "conditions": [24, 1600, "v", 24000], "trial": 6, "serialpos": 16, "trial_type": "single-stim", "trial_index": 241, "time_elapsed": 1002455, "internal_node_id": "0.0-178.0"}}, {"uniqueid": "MTK0204:33IZTU6J828CE3BZLC7VFFDZ39HXSQ", "current_trial": 242, "dateTime": 1509544986047, "trialdata": {"rt": -1, "stimulus": "<p id=\"stim\">BANJO</p>", "key_press": -1, "type": "PRES_VIS", "word": "banjo", "wordID": 81, "conditions": [24, 1600, "v", 24000], "trial": 6, "serialpos": 17, "trial_type": "single-stim", "trial_index": 242, "time_elapsed": 1005000, "internal_node_id": "0.0-179.0"}}, {"uniqueid": "MTK0204:33IZTU6J828CE3BZLC7VFFDZ39HXSQ", "current_trial": 243, "dateTime": 1509544988550, "trialdata": {"rt": -1, "stimulus": "<p id=\"stim\">PLAID</p>", "key_press": -1, "type": "PRES_VIS", "word": "plaid", "wordID": 1079, "conditions": [24, 1600, "v", 24000], "trial": 6, "serialpos": 18, "trial_type": "single-stim", "trial_index": 243, "time_elapsed": 1007503, "internal_node_id": "0.0-180.0"}}, {"uniqueid": "MTK0204:33IZTU6J828CE3BZLC7VFFDZ39HXSQ", "current_trial": 244, "dateTime": 1509544991152, "trialdata": {"rt": -1, "stimulus": "<p id=\"stim\">FOREST</p>", "key_press": -1, "type": "PRES_VIS", "word": "forest", "wordID": 592, "conditions": [24, 1600, "v", 24000], "trial": 6, "serialpos": 19, "trial_type": "single-stim", "trial_index": 244, "time_elapsed": 1010104, "internal_node_id": "0.0-181.0"}}, {"uniqueid": "MTK0204:33IZTU6J828CE3BZLC7VFFDZ39HXSQ", "current_trial": 245, "dateTime": 1509544993907, "trialdata": {"rt": -1, "stimulus": "<p id=\"stim\">BRIEFCASE</p>", "key_press": -1, "type": "PRES_VIS", "word": "briefcase", "wordID": 174, "conditions": [24, 1600, "v", 24000], "trial": 6, "serialpos": 20, "trial_type": "single-stim", "trial_index": 245, "time_elapsed": 1012860, "internal_node_id": "0.0-182.0"}}, {"uniqueid": "MTK0204:33IZTU6J828CE3BZLC7VFFDZ39HXSQ", "current_trial": 246, "dateTime": 1509544996491, "trialdata": {"rt": -1, "stimulus": "<p id=\"stim\">CASKET</p>", "key_press": -1, "type": "PRES_VIS", "word": "casket", "wordID": 254, "conditions": [24, 1600, "v", 24000], "trial": 6, "serialpos": 21, "trial_type": "single-stim", "trial_index": 246, "time_elapsed": 1015444, "internal_node_id": "0.0-183.0"}}, {"uniqueid": "MTK0204:33IZTU6J828CE3BZLC7VFFDZ39HXSQ", "current_trial": 247, "dateTime": 1509544998988, "trialdata": {"rt": -1, "stimulus": "<p id=\"stim\">MONSTER</p>", "key_press": -1, "type": "PRES_VIS", "word": "monster", "wordID": 911, "conditions": [24, 1600, "v", 24000], "trial": 6, "serialpos": 22, "trial_type": "single-stim", "trial_index": 247, "time_elapsed": 1017941, "internal_node_id": "0.0-184.0"}}, {"uniqueid": "MTK0204:33IZTU6J828CE3BZLC7VFFDZ39HXSQ", "current_trial": 248, "dateTime": 1509545001584, "trialdata": {"rt": -1, "stimulus": "<p id=\"stim\">CRATER</p>", "key_press": -1, "type": "PRES_VIS", "word": "crater", "wordID": 399, "conditions": [24, 1600, "v", 24000], "trial": 6, "serialpos": 23, "trial_type": "single-stim", "trial_index": 248, "time_elapsed": 1020537, "internal_node_id": "0.0-185.0"}}, {"uniqueid": "MTK0204:33IZTU6J828CE3BZLC7VFFDZ39HXSQ", "current_trial": 249, "dateTime": 1509545003985, "trialdata": {"rt": -1, "stimulus": "", "key_press": -1, "type": "PRE_RECALL_DELAY", "trial_type": "single-stim", "trial_index": 249, "time_elapsed": 1022938, "internal_node_id": "0.0-186.0-0.0"}}, {"uniqueid": "MTK0204:33IZTU6J828CE3BZLC7VFFDZ39HXSQ", "current_trial": 250, "dateTime": 1509545004491, "trialdata": {"rt": -1000, "stimulus": "/static/audio/400Hz.wav", "key_press": -1, "type": "PRE_RECALL_ALERT", "trial_type": "single-audio", "trial_index": 250, "time_elapsed": 1023437, "internal_node_id": "0.0-187.0"}}, {"uniqueid": "MTK0204:33IZTU6J828CE3BZLC7VFFDZ39HXSQ", "current_trial": 251, "dateTime": 1509545064499, "trialdata": {"rt": [1791, 3294, 5402, 7023, 8748, 9982, 14454, 16929, 26908, 31964, 51569], "recwords": ["monster", "crater", "briefcase", "forest", "cobra", "crab", "pastry", "pasta", "clam", "raft", "plaid"], "type": "FREE_RECALL", "conditions": [24, 1600, "v", 24000], "trial": 6, "trial_type": "free-recall", "trial_index": 251, "time_elapsed": 1083446, "internal_node_id": "0.0-188.0-0.0"}}, {"uniqueid": "MTK0204:33IZTU6J828CE3BZLC7VFFDZ39HXSQ", "current_trial": 252, "dateTime": 1509545066987, "trialdata": {"rt": 485, "key_press": 32, "type": "INSTRUCTIONS", "trial_type": "text", "trial_index": 252, "time_elapsed": 1085940, "internal_node_id": "0.0-189.0"}}, {"uniqueid": "MTK0204:33IZTU6J828CE3BZLC7VFFDZ39HXSQ", "current_trial": 253, "dateTime": 1509545080991, "trialdata": {"rt": [1462, 3463, 5353, 6977, 8581, 11456], "responses": ["13", "15", "18", "9", "11", "22"], "num1": [3, 4, 7, 4, 2, 7, 9], "num2": [5, 4, 5, 4, 7, 6, 1], "num3": [5, 7, 6, 1, 2, 9, 5], "type": "DISTRACTOR", "conditions": [12, 1600, "a", 12000], "trial": 7, "trial_type": "math-distractor", "trial_index": 253, "time_elapsed": 1099943, "internal_node_id": "0.0-190.0"}}, {"uniqueid": "MTK0204:33IZTU6J828CE3BZLC7VFFDZ39HXSQ", "current_trial": 254, "dateTime": 1509545083992, "trialdata": {"rt": -1, "stimulus": "<p id=\"stim\">10</p>", "key_press": -1, "trial_type": "single-stim", "trial_index": 254, "time_elapsed": 1102945, "internal_node_id": "0.0-191.0-0.0"}}, {"uniqueid": "MTK0204:33IZTU6J828CE3BZLC7VFFDZ39HXSQ", "current_trial": 255, "dateTime": 1509545084994, "trialdata": {"rt": -1, "stimulus": "<p id=\"stim\">9</p>", "key_press": -1, "trial_type": "single-stim", "trial_index": 255, "time_elapsed": 1103947, "internal_node_id": "0.0-191.0-1.0"}}, {"uniqueid": "MTK0204:33IZTU6J828CE3BZLC7VFFDZ39HXSQ", "current_trial": 256, "dateTime": 1509545085996, "trialdata": {"rt": -1, "stimulus": "<p id=\"stim\">8</p>", "key_press": -1, "trial_type": "single-stim", "trial_index": 256, "time_elapsed": 1104949, "internal_node_id": "0.0-191.0-2.0"}}, {"uniqueid": "MTK0204:33IZTU6J828CE3BZLC7VFFDZ39HXSQ", "current_trial": 257, "dateTime": 1509545086998, "trialdata": {"rt": -1, "stimulus": "<p id=\"stim\">7</p>", "key_press": -1, "trial_type": "single-stim", "trial_index": 257, "time_elapsed": 1105951, "internal_node_id": "0.0-191.0-3.0"}}, {"uniqueid": "MTK0204:33IZTU6J828CE3BZLC7VFFDZ39HXSQ", "current_trial": 258, "dateTime": 1509545087999, "trialdata": {"rt": -1, "stimulus": "<p id=\"stim\">6</p>", "key_press": -1, "trial_type": "single-stim", "trial_index": 258, "time_elapsed": 1106952, "internal_node_id": "0.0-191.0-4.0"}}, {"uniqueid": "MTK0204:33IZTU6J828CE3BZLC7VFFDZ39HXSQ", "current_trial": 259, "dateTime": 1509545089001, "trialdata": {"rt": -1, "stimulus": "<p id=\"stim\">5</p>", "key_press": -1, "trial_type": "single-stim", "trial_index": 259, "time_elapsed": 1107954, "internal_node_id": "0.0-191.0-5.0"}}, {"uniqueid": "MTK0204:33IZTU6J828CE3BZLC7VFFDZ39HXSQ", "current_trial": 260, "dateTime": 1509545090003, "trialdata": {"rt": -1, "stimulus": "<p id=\"stim\">4</p>", "key_press": -1, "trial_type": "single-stim", "trial_index": 260, "time_elapsed": 1108956, "internal_node_id": "0.0-191.0-6.0"}}, {"uniqueid": "MTK0204:33IZTU6J828CE3BZLC7VFFDZ39HXSQ", "current_trial": 261, "dateTime": 1509545091004, "trialdata": {"rt": -1, "stimulus": "<p id=\"stim\">3</p>", "key_press": -1, "trial_type": "single-stim", "trial_index": 261, "time_elapsed": 1109957, "internal_node_id": "0.0-191.0-7.0"}}, {"uniqueid": "MTK0204:33IZTU6J828CE3BZLC7VFFDZ39HXSQ", "current_trial": 262, "dateTime": 1509545092006, "trialdata": {"rt": -1, "stimulus": "<p id=\"stim\">2</p>", "key_press": -1, "trial_type": "single-stim", "trial_index": 262, "time_elapsed": 1110959, "internal_node_id": "0.0-191.0-8.0"}}, {"uniqueid": "MTK0204:33IZTU6J828CE3BZLC7VFFDZ39HXSQ", "current_trial": 263, "dateTime": 1509545093008, "trialdata": {"rt": -1, "stimulus": "<p id=\"stim\">1</p>", "key_press": -1, "trial_type": "single-stim", "trial_index": 263, "time_elapsed": 1111961, "internal_node_id": "0.0-191.0-9.0"}}, {"uniqueid": "MTK0204:33IZTU6J828CE3BZLC7VFFDZ39HXSQ", "current_trial": 264, "dateTime": 1509545094509, "trialdata": {"rt": -1, "stimulus": "<p id=\"stim\">+</p>", "key_press": -1, "type": "FIXATION", "trial_type": "single-stim", "trial_index": 264, "time_elapsed": 1113462, "internal_node_id": "0.0-192.0-0.0"}}, {"uniqueid": "MTK0204:33IZTU6J828CE3BZLC7VFFDZ39HXSQ", "current_trial": 265, "dateTime": 1509545097087, "trialdata": {"rt": -1000, "stimulus": "/static/audio/wordpool/SLIME.wav", "key_press": -1, "type": "PRES_AUD", "word": "slime", "wordID": 1326, "conditions": [12, 1600, "a", 12000], "trial": 7, "serialpos": 0, "trial_type": "single-audio", "trial_index": 265, "time_elapsed": 1116040, "internal_node_id": "0.0-193.0"}}, {"uniqueid": "MTK0204:33IZTU6J828CE3BZLC7VFFDZ39HXSQ", "current_trial": 266, "dateTime": 1509545099673, "trialdata": {"rt": -1000, "stimulus": "/static/audio/wordpool/GUITAR.wav", "key_press": -1, "type": "PRES_AUD", "word": "guitar", "wordID": 669, "conditions": [12, 1600, "a", 12000], "trial": 7, "serialpos": 1, "trial_type": "single-audio", "trial_index": 266, "time_elapsed": 1118626, "internal_node_id": "0.0-194.0"}}, {"uniqueid": "MTK0204:33IZTU6J828CE3BZLC7VFFDZ39HXSQ", "current_trial": 267, "dateTime": 1509545102358, "trialdata": {"rt": -1000, "stimulus": "/static/audio/wordpool/NOVEL.wav", "key_press": -1, "type": "PRES_AUD", "word": "novel", "wordID": 959, "conditions": [12, 1600, "a", 12000], "trial": 7, "serialpos": 2, "trial_type": "single-audio", "trial_index": 267, "time_elapsed": 1121311, "internal_node_id": "0.0-195.0"}}, {"uniqueid": "MTK0204:33IZTU6J828CE3BZLC7VFFDZ39HXSQ", "current_trial": 268, "dateTime": 1509545105118, "trialdata": {"rt": -1000, "stimulus": "/static/audio/wordpool/ATLAS.wav", "key_press": -1, "type": "PRES_AUD", "word": "atlas", "wordID": 52, "conditions": [12, 1600, "a", 12000], "trial": 7, "serialpos": 3, "trial_type": "single-audio", "trial_index": 268, "time_elapsed": 1124071, "internal_node_id": "0.0-196.0"}}, {"uniqueid": "MTK0204:33IZTU6J828CE3BZLC7VFFDZ39HXSQ", "current_trial": 269, "dateTime": 1509545107751, "trialdata": {"rt": -1000, "stimulus": "/static/audio/wordpool/DANCER.wav", "key_press": -1, "type": "PRES_AUD", "word": "dancer", "wordID": 436, "conditions": [12, 1600, "a", 12000], "trial": 7, "serialpos": 4, "trial_type": "single-audio", "trial_index": 269, "time_elapsed": 1126704, "internal_node_id": "0.0-197.0"}}, {"uniqueid": "MTK0204:33IZTU6J828CE3BZLC7VFFDZ39HXSQ", "current_trial": 270, "dateTime": 1509545110310, "trialdata": {"rt": -1000, "stimulus": "/static/audio/wordpool/CLOTHES.wav", "key_press": -1, "type": "PRES_AUD", "word": "clothes", "wordID": 326, "conditions": [12, 1600, "a", 12000], "trial": 7, "serialpos": 5, "trial_type": "single-audio", "trial_index": 270, "time_elapsed": 1129263, "internal_node_id": "0.0-198.0"}}, {"uniqueid": "MTK0204:33IZTU6J828CE3BZLC7VFF