{"condition": 0, "counterbalance": 1667, "assignmentId": "3FQ5JJ512MV9EQKNEXBKQRVRNB7NKF", "workerId": "MTK0672", "hitId": "37SDSEDIN99KIYD3AJBHEVDDA7K81P", "currenttrial": 626, "bonus": 0, "data": [{"uniqueid": "MTK0672:3FQ5JJ512MV9EQKNEXBKQRVRNB7NKF", "current_trial": 0, "dateTime": 1512589421409, "trialdata": {"rt": 248750, "key_press": 67, "type": "INSTRUCTIONS", "trial_type": "text", "trial_index": 0, "time_elapsed": 248751, "internal_node_id": "0.0-0.0"}}, {"uniqueid": "MTK0672:3FQ5JJ512MV9EQKNEXBKQRVRNB7NKF", "current_trial": 1, "dateTime": 1512589423695, "trialdata": {"rt": 2285, "key_press": 67, "type": "INSTRUCTIONS", "trial_type": "text", "trial_index": 1, "time_elapsed": 251037, "internal_node_id": "0.0-1.0"}}, {"uniqueid": "MTK0672:3FQ5JJ512MV9EQKNEXBKQRVRNB7NKF", "current_trial": 2, "dateTime": 1512589431746, "trialdata": {"rt": [8045], "responses": ["ocean"], "type": "AUDIO_TEST", "trial_type": "audio-test", "trial_index": 2, "time_elapsed": 259088, "internal_node_id": "0.0-2.0"}}, {"uniqueid": "MTK0672:3FQ5JJ512MV9EQKNEXBKQRVRNB7NKF", "current_trial": 3, "dateTime": 1512589435665, "trialdata": {"rt": [3917], "responses": ["crystal"], "type": "AUDIO_TEST", "trial_type": "audio-test", "trial_index": 3, "time_elapsed": 263007, "internal_node_id": "0.0-3.0"}}, {"uniqueid": "MTK0672:3FQ5JJ512MV9EQKNEXBKQRVRNB7NKF", "current_trial": 4, "dateTime": 1512589438421, "trialdata": {"rt": [2753], "responses": ["spice"], "type": "AUDIO_TEST", "trial_type": "audio-test", "trial_index": 4, "time_elapsed": 265763, "internal_node_id": "0.0-4.0"}}, {"uniqueid": "MTK0672:3FQ5JJ512MV9EQKNEXBKQRVRNB7NKF", "current_trial": 5, "dateTime": 1512589456103, "trialdata": {"rt": 16929, "responses": "{\"Q0\":\"9pm\",\"Q1\":\"5:30 am\",\"Q2\":\"5\\n5\"}", "type": "SLEEP_SURVEY", "trial_type": "survey-text", "trial_index": 5, "time_elapsed": 283445, "internal_node_id": "0.0-5.0"}}, {"uniqueid": "MTK0672:3FQ5JJ512MV9EQKNEXBKQRVRNB7NKF", "current_trial": 6, "dateTime": 1512589511740, "trialdata": {"rt": 54637, "key_press": 32, "type": "INSTRUCTIONS", "trial_type": "text", "trial_index": 6, "time_elapsed": 339082, "internal_node_id": "0.0-6.0"}}, {"uniqueid": "MTK0672:3FQ5JJ512MV9EQKNEXBKQRVRNB7NKF", "current_trial": 7, "dateTime": 1512589719451, "trialdata": {"rt": 207211, "key_press": 13, "type": "INSTRUCTIONS", "trial_type": "text", "trial_index": 7, "time_elapsed": 546793, "internal_node_id": "0.0-7.0"}}, {"uniqueid": "MTK0672:3FQ5JJ512MV9EQKNEXBKQRVRNB7NKF", "current_trial": 8, "dateTime": 1512589727785, "trialdata": {"rt": 7834, "key_press": 13, "type": "INSTRUCTIONS", "trial_type": "text", "trial_index": 8, "time_elapsed": 555127, "internal_node_id": "0.0-8.0"}}, {"uniqueid": "MTK0672:3FQ5JJ512MV9EQKNEXBKQRVRNB7NKF", "current_trial": 9, "dateTime": 1512589746788, "trialdata": {"rt": [3047, 4919, 6220, 8691, 10071, 12793, 14275, 15808, 17701], "responses": ["15", "16", "12", "18", "16", "21", "19", "21", "18"], "num1": [3, 3, 5, 3, 9, 8, 2, 3, 4, 2], "num2": [9, 7, 2, 9, 6, 5, 8, 9, 8, 6], "num3": [3, 6, 5, 6, 1, 8, 9, 9, 6, 4], "type": "DISTRACTOR", "conditions": [18, 1200, "a", 18000], "trial": 0, "trial_type": "math-distractor", "trial_index": 9, "time_elapsed": 574130, "internal_node_id": "0.0-9.0"}}, {"uniqueid": "MTK0672:3FQ5JJ512MV9EQKNEXBKQRVRNB7NKF", "current_trial": 10, "dateTime": 1512589749789, "trialdata": {"rt": -1, "stimulus": "<p id=\"stim\">10</p>", "key_press": -1, "trial_type": "single-stim", "trial_index": 10, "time_elapsed": 577131, "internal_node_id": "0.0-10.0-0.0"}}, {"uniqueid": "MTK0672:3FQ5JJ512MV9EQKNEXBKQRVRNB7NKF", "current_trial": 11, "dateTime": 1512589750790, "trialdata": {"rt": -1, "stimulus": "<p id=\"stim\">9</p>", "key_press": -1, "trial_type": "single-stim", "trial_index": 11, "time_elapsed": 578131, "internal_node_id": "0.0-10.0-1.0"}}, {"uniqueid": "MTK0672:3FQ5JJ512MV9EQKNEXBKQRVRNB7NKF", "current_trial": 12, "dateTime": 1512589751790, "trialdata": {"rt": -1, "stimulus": "<p id=\"stim\">8</p>", "key_press": -1, "trial_type": "single-stim", "trial_index": 12, "time_elapsed": 579132, "internal_node_id": "0.0-10.0-2.0"}}, {"uniqueid": "MTK0672:3FQ5JJ512MV9EQKNEXBKQRVRNB7NKF", "current_trial": 13, "dateTime": 1512589752791, "trialdata": {"rt": -1, "stimulus": "<p id=\"stim\">7</p>", "key_press": -1, "trial_type": "single-stim", "trial_index": 13, "time_elapsed": 580133, "internal_node_id": "0.0-10.0-3.0"}}, {"uniqueid": "MTK0672:3FQ5JJ512MV9EQKNEXBKQRVRNB7NKF", "current_trial": 14, "dateTime": 1512589753791, "trialdata": {"rt": -1, "stimulus": "<p id=\"stim\">6</p>", "key_press": -1, "trial_type": "single-stim", "trial_index": 14, "time_elapsed": 581133, "internal_node_id": "0.0-10.0-4.0"}}, {"uniqueid": "MTK0672:3FQ5JJ512MV9EQKNEXBKQRVRNB7NKF", "current_trial": 15, "dateTime": 1512589754791, "trialdata": {"rt": -1, "stimulus": "<p id=\"stim\">5</p>", "key_press": -1, "trial_type": "single-stim", "trial_index": 15, "time_elapsed": 582133, "internal_node_id": "0.0-10.0-5.0"}}, {"uniqueid": "MTK0672:3FQ5JJ512MV9EQKNEXBKQRVRNB7NKF", "current_trial": 16, "dateTime": 1512589755793, "trialdata": {"rt": -1, "stimulus": "<p id=\"stim\">4</p>", "key_press": -1, "trial_type": "single-stim", "trial_index": 16, "time_elapsed": 583134, "internal_node_id": "0.0-10.0-6.0"}}, {"uniqueid": "MTK0672:3FQ5JJ512MV9EQKNEXBKQRVRNB7NKF", "current_trial": 17, "dateTime": 1512589756793, "trialdata": {"rt": -1, "stimulus": "<p id=\"stim\">3</p>", "key_press": -1, "trial_type": "single-stim", "trial_index": 17, "time_elapsed": 584135, "internal_node_id": "0.0-10.0-7.0"}}, {"uniqueid": "MTK0672:3FQ5JJ512MV9EQKNEXBKQRVRNB7NKF", "current_trial": 18, "dateTime": 1512589757794, "trialdata": {"rt": -1, "stimulus": "<p id=\"stim\">2</p>", "key_press": -1, "trial_type": "single-stim", "trial_index": 18, "time_elapsed": 585136, "internal_node_id": "0.0-10.0-8.0"}}, {"uniqueid": "MTK0672:3FQ5JJ512MV9EQKNEXBKQRVRNB7NKF", "current_trial": 19, "dateTime": 1512589758794, "trialdata": {"rt": -1, "stimulus": "<p id=\"stim\">1</p>", "key_press": -1, "trial_type": "single-stim", "trial_index": 19, "time_elapsed": 586136, "internal_node_id": "0.0-10.0-9.0"}}, {"uniqueid": "MTK0672:3FQ5JJ512MV9EQKNEXBKQRVRNB7NKF", "current_trial": 20, "dateTime": 1512589760295, "trialdata": {"rt": -1, "stimulus": "<p id=\"stim\">+</p>", "key_press": -1, "type": "FIXATION", "trial_type": "single-stim", "trial_index": 20, "time_elapsed": 587637, "internal_node_id": "0.0-11.0-0.0"}}, {"uniqueid": "MTK0672:3FQ5JJ512MV9EQKNEXBKQRVRNB7NKF", "current_trial": 21, "dateTime": 1512589762631, "trialdata": {"rt": 1521.3333333333594, "stimulus": "/static/audio/wordpool/UNCLE.wav", "key_press": 175, "type": "PRES_AUD", "word": "uncle", "wordID": 1535, "conditions": [18, 1200, "a", 18000], "trial": 0, "serialpos": 0, "trial_type": "single-audio", "trial_index": 21, "time_elapsed": 589973, "internal_node_id": "0.0-12.0"}}, {"uniqueid": "MTK0672:3FQ5JJ512MV9EQKNEXBKQRVRNB7NKF", "current_trial": 22, "dateTime": 1512589764932, "trialdata": {"rt": -1000, "stimulus": "/static/audio/wordpool/PATIENT.wav", "key_press": -1, "type": "PRES_AUD", "word": "patient", "wordID": 1023, "conditions": [18, 1200, "a", 18000], "trial": 0, "serialpos": 1, "trial_type": "single-audio", "trial_index": 22, "time_elapsed": 592274, "internal_node_id": "0.0-13.0"}}, {"uniqueid": "MTK0672:3FQ5JJ512MV9EQKNEXBKQRVRNB7NKF", "current_trial": 23, "dateTime": 1512589767110, "trialdata": {"rt": -1000, "stimulus": "/static/audio/wordpool/SISTER.wav", "key_press": -1, "type": "PRES_AUD", "word": "sister", "wordID": 1311, "conditions": [18, 1200, "a", 18000], "trial": 0, "serialpos": 2, "trial_type": "single-audio", "trial_index": 23, "time_elapsed": 594452, "internal_node_id": "0.0-14.0"}}, {"uniqueid": "MTK0672:3FQ5JJ512MV9EQKNEXBKQRVRNB7NKF", "current_trial": 24, "dateTime": 1512589769481, "trialdata": {"rt": -1000, "stimulus": "/static/audio/wordpool/PATROL.wav", "key_press": -1, "type": "PRES_AUD", "word": "patrol", "wordID": 1026, "conditions": [18, 1200, "a", 18000], "trial": 0, "serialpos": 3, "trial_type": "single-audio", "trial_index": 24, "time_elapsed": 596823, "internal_node_id": "0.0-15.0"}}, {"uniqueid": "MTK0672:3FQ5JJ512MV9EQKNEXBKQRVRNB7NKF", "current_trial": 25, "dateTime": 1512589771482, "trialdata": {"rt": -1000, "stimulus": "/static/audio/wordpool/BUTCHER.wav", "key_press": -1, "type": "PRES_AUD", "word": "butcher", "wordID": 202, "conditions": [18, 1200, "a", 18000], "trial": 0, "serialpos": 4, "trial_type": "single-audio", "trial_index": 25, "time_elapsed": 598824, "internal_node_id": "0.0-16.0"}}, {"uniqueid": "MTK0672:3FQ5JJ512MV9EQKNEXBKQRVRNB7NKF", "current_trial": 26, "dateTime": 1512589773844, "trialdata": {"rt": -1000, "stimulus": "/static/audio/wordpool/JUDGE.wav", "key_press": -1, "type": "PRES_AUD", "word": "judge", "wordID": 760, "conditions": [18, 1200, "a", 18000], "trial": 0, "serialpos": 5, "trial_type": "single-audio", "trial_index": 26, "time_elapsed": 601186, "internal_node_id": "0.0-17.0"}}, {"uniqueid": "MTK0672:3FQ5JJ512MV9EQKNEXBKQRVRNB7NKF", "current_trial": 27, "dateTime": 1512589775962, "trialdata": {"rt": -1000, "stimulus": "/static/audio/wordpool/VICTIM.wav", "key_press": -1, "type": "PRES_AUD", "word": "victim", "wordID": 1561, "conditions": [18, 1200, "a", 18000], "trial": 0, "serialpos": 6, "trial_type": "single-audio", "trial_index": 27, "time_elapsed": 603304, "internal_node_id": "0.0-18.0"}}, {"uniqueid": "MTK0672:3FQ5JJ512MV9EQKNEXBKQRVRNB7NKF", "current_trial": 28, "dateTime": 1512589778054, "trialdata": {"rt": -1000, "stimulus": "/static/audio/wordpool/COUCH.wav", "key_press": -1, "type": "PRES_AUD", "word": "couch", "wordID": 385, "conditions": [18, 1200, "a", 18000], "trial": 0, "serialpos": 7, "trial_type": "single-audio", "trial_index": 28, "time_elapsed": 605396, "internal_node_id": "0.0-19.0"}}, {"uniqueid": "MTK0672:3FQ5JJ512MV9EQKNEXBKQRVRNB7NKF", "current_trial": 29, "dateTime": 1512589780157, "trialdata": {"rt": -1000, "stimulus": "/static/audio/wordpool/BOUQUET.wav", "key_press": -1, "type": "PRES_AUD", "word": "bouquet", "wordID": 156, "conditions": [18, 1200, "a", 18000], "trial": 0, "serialpos": 8, "trial_type": "single-audio", "trial_index": 29, "time_elapsed": 607499, "internal_node_id": "0.0-20.0"}}, {"uniqueid": "MTK0672:3FQ5JJ512MV9EQKNEXBKQRVRNB7NKF", "current_trial": 30, "dateTime": 1512589782168, "trialdata": {"rt": -1000, "stimulus": "/static/audio/wordpool/ROCKET.wav", "key_press": -1, "type": "PRES_AUD", "word": "rocket", "wordID": 1201, "conditions": [18, 1200, "a", 18000], "trial": 0, "serialpos": 9, "trial_type": "single-audio", "trial_index": 30, "time_elapsed": 609510, "internal_node_id": "0.0-21.0"}}, {"uniqueid": "MTK0672:3FQ5JJ512MV9EQKNEXBKQRVRNB7NKF", "current_trial": 31, "dateTime": 1512589784362, "trialdata": {"rt": -1000, "stimulus": "/static/audio/wordpool/PECAN.wav", "key_press": -1, "type": "PRES_AUD", "word": "pecan", "wordID": 1035, "conditions": [18, 1200, "a", 18000], "trial": 0, "serialpos": 10, "trial_type": "single-audio", "trial_index": 31, "time_elapsed": 611704, "internal_node_id": "0.0-22.0"}}, {"uniqueid": "MTK0672:3FQ5JJ512MV9EQKNEXBKQRVRNB7NKF", "current_trial": 32, "dateTime": 1512589786471, "trialdata": {"rt": -1000, "stimulus": "/static/audio/wordpool/SUMMIT.wav", "key_press": -1, "type": "PRES_AUD", "word": "summit", "wordID": 1404, "conditions": [18, 1200, "a", 18000], "trial": 0, "serialpos": 11, "trial_type": "single-audio", "trial_index": 32, "time_elapsed": 613813, "internal_node_id": "0.0-23.0"}}, {"uniqueid": "MTK0672:3FQ5JJ512MV9EQKNEXBKQRVRNB7NKF", "current_trial": 33, "dateTime": 1512589788747, "trialdata": {"rt": -1000, "stimulus": "/static/audio/wordpool/PISTON.wav", "key_press": -1, "type": "PRES_AUD", "word": "piston", "wordID": 1075, "conditions": [18, 1200, "a", 18000], "trial": 0, "serialpos": 12, "trial_type": "single-audio", "trial_index": 33, "time_elapsed": 616088, "internal_node_id": "0.0-24.0"}}, {"uniqueid": "MTK0672:3FQ5JJ512MV9EQKNEXBKQRVRNB7NKF", "current_trial": 34, "dateTime": 1512589791026, "trialdata": {"rt": -1000, "stimulus": "/static/audio/wordpool/EXPERT.wav", "key_press": -1, "type": "PRES_AUD", "word": "expert", "wordID": 542, "conditions": [18, 1200, "a", 18000], "trial": 0, "serialpos": 13, "trial_type": "single-audio", "trial_index": 34, "time_elapsed": 618368, "internal_node_id": "0.0-25.0"}}, {"uniqueid": "MTK0672:3FQ5JJ512MV9EQKNEXBKQRVRNB7NKF", "current_trial": 35, "dateTime": 1512589793425, "trialdata": {"rt": -1000, "stimulus": "/static/audio/wordpool/TOASTER.wav", "key_press": -1, "type": "PRES_AUD", "word": "toaster", "wordID": 1471, "conditions": [18, 1200, "a", 18000], "trial": 0, "serialpos": 14, "trial_type": "single-audio", "trial_index": 35, "time_elapsed": 620767, "internal_node_id": "0.0-26.0"}}, {"uniqueid": "MTK0672:3FQ5JJ512MV9EQKNEXBKQRVRNB7NKF", "current_trial": 36, "dateTime": 1512589795636, "trialdata": {"rt": -1000, "stimulus": "/static/audio/wordpool/PLAZA.wav", "key_press": -1, "type": "PRES_AUD", "word": "plaza", "wordID": 1087, "conditions": [18, 1200, "a", 18000], "trial": 0, "serialpos": 15, "trial_type": "single-audio", "trial_index": 36, "time_elapsed": 622978, "internal_node_id": "0.0-27.0"}}, {"uniqueid": "MTK0672:3FQ5JJ512MV9EQKNEXBKQRVRNB7NKF", "current_trial": 37, "dateTime": 1512589797825, "trialdata": {"rt": -1000, "stimulus": "/static/audio/wordpool/GIFT.wav", "key_press": -1, "type": "PRES_AUD", "word": "gift", "wordID": 634, "conditions": [18, 1200, "a", 18000], "trial": 0, "serialpos": 16, "trial_type": "single-audio", "trial_index": 37, "time_elapsed": 625167, "internal_node_id": "0.0-28.0"}}, {"uniqueid": "MTK0672:3FQ5JJ512MV9EQKNEXBKQRVRNB7NKF", "current_trial": 38, "dateTime": 1512589799911, "trialdata": {"rt": -1000, "stimulus": "/static/audio/wordpool/WAITER.wav", "key_press": -1, "type": "PRES_AUD", "word": "waiter", "wordID": 1579, "conditions": [18, 1200, "a", 18000], "trial": 0, "serialpos": 17, "trial_type": "single-audio", "trial_index": 38, "time_elapsed": 627253, "internal_node_id": "0.0-29.0"}}, {"uniqueid": "MTK0672:3FQ5JJ512MV9EQKNEXBKQRVRNB7NKF", "current_trial": 39, "dateTime": 1512589801229, "trialdata": {"rt": -1, "stimulus": "", "key_press": -1, "type": "PRE_RECALL_DELAY", "trial_type": "single-stim", "trial_index": 39, "time_elapsed": 628571, "internal_node_id": "0.0-30.0-0.0"}}, {"uniqueid": "MTK0672:3FQ5JJ512MV9EQKNEXBKQRVRNB7NKF", "current_trial": 40, "dateTime": 1512589801729, "trialdata": {"rt": -1000, "stimulus": "/static/audio/400Hz.wav", "key_press": -1, "type": "PRE_RECALL_ALERT", "trial_type": "single-audio", "trial_index": 40, "time_elapsed": 629071, "internal_node_id": "0.0-31.0"}}, {"uniqueid": "MTK0672:3FQ5JJ512MV9EQKNEXBKQRVRNB7NKF", "current_trial": 41, "dateTime": 1512589861732, "trialdata": {"rt": [7954, 8112, 10055, 10221, 11699, 13176, 17622], "recwords": ["ocean", "", "uncle", "", "expert", "plaza", "waiter"], "type": "FREE_RECALL", "conditions": [18, 1200, "a", 18000], "trial": 0, "trial_type": "free-recall", "trial_index": 41, "time_elapsed": 689073, "internal_node_id": "0.0-32.0-0.0"}}, {"uniqueid": "MTK0672:3FQ5JJ512MV9EQKNEXBKQRVRNB7NKF", "current_trial": 42, "dateTime": 1512589865368, "trialdata": {"rt": 1635, "key_press": 13, "type": "INSTRUCTIONS", "trial_type": "text", "trial_index": 42, "time_elapsed": 692710, "internal_node_id": "0.0-33.0"}}, {"uniqueid": "MTK0672:3FQ5JJ512MV9EQKNEXBKQRVRNB7NKF", "current_trial": 43, "dateTime": 1512589885370, "trialdata": {"rt": [1792, 4137, 5533, 7229, 10258, 11541, 13148, 15259, 16540, 17775], "responses": ["17", "11", "8", "12", "19", "15", "13", "21", "8", "10"], "num1": [9, 3, 6, 1, 5, 2, 2, 4, 1, 6, 7], "num2": [7, 4, 1, 4, 7, 8, 3, 9, 3, 3, 7], "num3": [1, 4, 1, 7, 7, 5, 8, 8, 4, 1, 1], "type": "DISTRACTOR", "conditions": [18, 1200, "v", 18000], "trial": 1, "trial_type": "math-distractor", "trial_index": 43, "time_elapsed": 712712, "internal_node_id": "0.0-34.0"}}, {"uniqueid": "MTK0672:3FQ5JJ512MV9EQKNEXBKQRVRNB7NKF", "current_trial": 44, "dateTime": 1512589888376, "trialdata": {"rt": -1, "stimulus": "<p id=\"stim\">10</p>", "key_press": -1, "trial_type": "single-stim", "trial_index": 44, "time_elapsed": 715718, "internal_node_id": "0.0-35.0-0.0"}}, {"uniqueid": "MTK0672:3FQ5JJ512MV9EQKNEXBKQRVRNB7NKF", "current_trial": 45, "dateTime": 1512589889378, "trialdata": {"rt": -1, "stimulus": "<p id=\"stim\">9</p>", "key_press": -1, "trial_type": "single-stim", "trial_index": 45, "time_elapsed": 716720, "internal_node_id": "0.0-35.0-1.0"}}, {"uniqueid": "MTK0672:3FQ5JJ512MV9EQKNEXBKQRVRNB7NKF", "current_trial": 46, "dateTime": 1512589890380, "trialdata": {"rt": -1, "stimulus": "<p id=\"stim\">8</p>", "key_press": -1, "trial_type": "single-stim", "trial_index": 46, "time_elapsed": 717722, "internal_node_id": "0.0-35.0-2.0"}}, {"uniqueid": "MTK0672:3FQ5JJ512MV9EQKNEXBKQRVRNB7NKF", "current_trial": 47, "dateTime": 1512589891381, "trialdata": {"rt": -1, "stimulus": "<p id=\"stim\">7</p>", "key_press": -1, "trial_type": "single-stim", "trial_index": 47, "time_elapsed": 718723, "internal_node_id": "0.0-35.0-3.0"}}, {"uniqueid": "MTK0672:3FQ5JJ512MV9EQKNEXBKQRVRNB7NKF", "current_trial": 48, "dateTime": 1512589892382, "trialdata": {"rt": -1, "stimulus": "<p id=\"stim\">6</p>", "key_press": -1, "trial_type": "single-stim", "trial_index": 48, "time_elapsed": 719724, "internal_node_id": "0.0-35.0-4.0"}}, {"uniqueid": "MTK0672:3FQ5JJ512MV9EQKNEXBKQRVRNB7NKF", "current_trial": 49, "dateTime": 1512589893383, "trialdata": {"rt": -1, "stimulus": "<p id=\"stim\">5</p>", "key_press": -1, "trial_type": "single-stim", "trial_index": 49, "time_elapsed": 720725, "internal_node_id": "0.0-35.0-5.0"}}, {"uniqueid": "MTK0672:3FQ5JJ512MV9EQKNEXBKQRVRNB7NKF", "current_trial": 50, "dateTime": 1512589894384, "trialdata": {"rt": -1, "stimulus": "<p id=\"stim\">4</p>", "key_press": -1, "trial_type": "single-stim", "trial_index": 50, "time_elapsed": 721726, "internal_node_id": "0.0-35.0-6.0"}}, {"uniqueid": "MTK0672:3FQ5JJ512MV9EQKNEXBKQRVRNB7NKF", "current_trial": 51, "dateTime": 1512589895385, "trialdata": {"rt": -1, "stimulus": "<p id=\"stim\">3</p>", "key_press": -1, "trial_type": "single-stim", "trial_index": 51, "time_elapsed": 722727, "internal_node_id": "0.0-35.0-7.0"}}, {"uniqueid": "MTK0672:3FQ5JJ512MV9EQKNEXBKQRVRNB7NKF", "current_trial": 52, "dateTime": 1512589896386, "trialdata": {"rt": -1, "stimulus": "<p id=\"stim\">2</p>", "key_press": -1, "trial_type": "single-stim", "trial_index": 52, "time_elapsed": 723728, "internal_node_id": "0.0-35.0-8.0"}}, {"uniqueid": "MTK0672:3FQ5JJ512MV9EQKNEXBKQRVRNB7NKF", "current_trial": 53, "dateTime": 1512589897386, "trialdata": {"rt": -1, "stimulus": "<p id=\"stim\">1</p>", "key_press": -1, "trial_type": "single-stim", "trial_index": 53, "time_elapsed": 724728, "internal_node_id": "0.0-35.0-9.0"}}, {"uniqueid": "MTK0672:3FQ5JJ512MV9EQKNEXBKQRVRNB7NKF", "current_trial": 54, "dateTime": 1512589898887, "trialdata": {"rt": -1, "stimulus": "<p id=\"stim\">+</p>", "key_press": -1, "type": "FIXATION", "trial_type": "single-stim", "trial_index": 54, "time_elapsed": 726229, "internal_node_id": "0.0-36.0-0.0"}}, {"uniqueid": "MTK0672:3FQ5JJ512MV9EQKNEXBKQRVRNB7NKF", "current_trial": 55, "dateTime": 1512589900088, "trialdata": {"rt": -1, "stimulus": "<p id=\"stim\">PIANO</p>", "key_press": -1, "type": "PRES_VIS", "word": "piano", "wordID": 1056, "conditions": [18, 1200, "v", 18000], "trial": 1, "serialpos": 0, "trial_type": "single-stim", "trial_index": 55, "time_elapsed": 727430, "internal_node_id": "0.0-37.0"}}, {"uniqueid": "MTK0672:3FQ5JJ512MV9EQKNEXBKQRVRNB7NKF", "current_trial": 56, "dateTime": 1512589902445, "trialdata": {"rt": -1, "stimulus": "<p id=\"stim\">OFFICE</p>", "key_press": -1, "type": "PRES_VIS", "word": "office", "wordID": 971, "conditions": [18, 1200, "v", 18000], "trial": 1, "serialpos": 1, "trial_type": "single-stim", "trial_index": 56, "time_elapsed": 729787, "internal_node_id": "0.0-38.0"}}, {"uniqueid": "MTK0672:3FQ5JJ512MV9EQKNEXBKQRVRNB7NKF", "current_trial": 57, "dateTime": 1512589904709, "trialdata": {"rt": -1, "stimulus": "<p id=\"stim\">JOURNAL</p>", "key_press": -1, "type": "PRES_VIS", "word": "journal", "wordID": 759, "conditions": [18, 1200, "v", 18000], "trial": 1, "serialpos": 2, "trial_type": "single-stim", "trial_index": 57, "time_elapsed": 732051, "internal_node_id": "0.0-39.0"}}, {"uniqueid": "MTK0672:3FQ5JJ512MV9EQKNEXBKQRVRNB7NKF", "current_trial": 58, "dateTime": 1512589906836, "trialdata": {"rt": -1, "stimulus": "<p id=\"stim\">SHERIFF</p>", "key_press": -1, "type": "PRES_VIS", "word": "sheriff", "wordID": 1283, "conditions": [18, 1200, "v", 18000], "trial": 1, "serialpos": 3, "trial_type": "single-stim", "trial_index": 58, "time_elapsed": 734178, "internal_node_id": "0.0-40.0"}}, {"uniqueid": "MTK0672:3FQ5JJ512MV9EQKNEXBKQRVRNB7NKF", "current_trial": 59, "dateTime": 1512589908893, "trialdata": {"rt": -1, "stimulus": "<p id=\"stim\">EYELASH</p>", "key_press": -1, "type": "PRES_VIS", "word": "eyelash", "wordID": 545, "conditions": [18, 1200, "v", 18000], "trial": 1, "serialpos": 4, "trial_type": "single-stim", "trial_index": 59, "time_elapsed": 736235, "internal_node_id": "0.0-41.0"}}, {"uniqueid": "MTK0672:3FQ5JJ512MV9EQKNEXBKQRVRNB7NKF", "current_trial": 60, "dateTime": 1512589911047, "trialdata": {"rt": -1, "stimulus": "<p id=\"stim\">CROSS</p>", "key_press": -1, "type": "PRES_VIS", "word": "cross", "wordID": 412, "conditions": [18, 1200, "v", 18000], "trial": 1, "serialpos": 5, "trial_type": "single-stim", "trial_index": 60, "time_elapsed": 738389, "internal_node_id": "0.0-42.0"}}, {"uniqueid": "MTK0672:3FQ5JJ512MV9EQKNEXBKQRVRNB7NKF", "current_trial": 61, "dateTime": 1512589913288, "trialdata": {"rt": -1, "stimulus": "<p id=\"stim\">MOTOR</p>", "key_press": -1, "type": "PRES_VIS", "word": "motor", "wordID": 921, "conditions": [18, 1200, "v", 18000], "trial": 1, "serialpos": 6, "trial_type": "single-stim", "trial_index": 61, "time_elapsed": 740629, "internal_node_id": "0.0-43.0"}}, {"uniqueid": "MTK0672:3FQ5JJ512MV9EQKNEXBKQRVRNB7NKF", "current_trial": 62, "dateTime": 1512589915553, "trialdata": {"rt": -1, "stimulus": "<p id=\"stim\">FIREPLACE</p>", "key_press": -1, "type": "PRES_VIS", "word": "fireplace", "wordID": 569, "conditions": [18, 1200, "v", 18000], "trial": 1, "serialpos": 7, "trial_type": "single-stim", "trial_index": 62, "time_elapsed": 742895, "internal_node_id": "0.0-44.0"}}, {"uniqueid": "MTK0672:3FQ5JJ512MV9EQKNEXBKQRVRNB7NKF", "current_trial": 63, "dateTime": 1512589917646, "trialdata": {"rt": -1, "stimulus": "<p id=\"stim\">PARROT</p>", "key_press": -1, "type": "PRES_VIS", "word": "parrot", "wordID": 1014, "conditions": [18, 1200, "v", 18000], "trial": 1, "serialpos": 8, "trial_type": "single-stim", "trial_index": 63, "time_elapsed": 744988, "internal_node_id": "0.0-45.0"}}, {"uniqueid": "MTK0672:3FQ5JJ512MV9EQKNEXBKQRVRNB7NKF", "current_trial": 64, "dateTime": 1512589920032, "trialdata": {"rt": -1, "stimulus": "<p id=\"stim\">POET</p>", "key_press": -1, "type": "PRES_VIS", "word": "poet", "wordID": 1094, "conditions": [18, 1200, "v", 18000], "trial": 1, "serialpos": 9, "trial_type": "single-stim", "trial_index": 64, "time_elapsed": 747374, "internal_node_id": "0.0-46.0"}}, {"uniqueid": "MTK0672:3FQ5JJ512MV9EQKNEXBKQRVRNB7NKF", "current_trial": 65, "dateTime": 1512589922219, "trialdata": {"rt": -1, "stimulus": "<p id=\"stim\">ITEM</p>", "key_press": -1, "type": "PRES_VIS", "word": "item", "wordID": 745, "conditions": [18, 1200, "v", 18000], "trial": 1, "serialpos": 10, "trial_type": "single-stim", "trial_index": 65, "time_elapsed": 749561, "internal_node_id": "0.0-47.0"}}, {"uniqueid": "MTK0672:3FQ5JJ512MV9EQKNEXBKQRVRNB7NKF", "current_trial": 66, "dateTime": 1512589924584, "trialdata": {"rt": -1, "stimulus": "<p id=\"stim\">LIGHTNING</p>", "key_press": -1, "type": "PRES_VIS", "word": "lightning", "wordID": 819, "conditions": [18, 1200, "v", 18000], "trial": 1, "serialpos": 11, "trial_type": "single-stim", "trial_index": 66, "time_elapsed": 751926, "internal_node_id": "0.0-48.0"}}, {"uniqueid": "MTK0672:3FQ5JJ512MV9EQKNEXBKQRVRNB7NKF", "current_trial": 67, "dateTime": 1512589926694, "trialdata": {"rt": -1, "stimulus": "<p id=\"stim\">SNACK</p>", "key_press": -1, "type": "PRES_VIS", "word": "snack", "wordID": 1330, "conditions": [18, 1200, "v", 18000], "trial": 1, "serialpos": 12, "trial_type": "single-stim", "trial_index": 67, "time_elapsed": 754036, "internal_node_id": "0.0-49.0"}}, {"uniqueid": "MTK0672:3FQ5JJ512MV9EQKNEXBKQRVRNB7NKF", "current_trial": 68, "dateTime": 1512589928833, "trialdata": {"rt": -1, "stimulus": "<p id=\"stim\">BLOCKADE</p>", "key_press": -1, "type": "PRES_VIS", "word": "blockade", "wordID": 136, "conditions": [18, 1200, "v", 18000], "trial": 1, "serialpos": 13, "trial_type": "single-stim", "trial_index": 68, "time_elapsed": 756174, "internal_node_id": "0.0-50.0"}}, {"uniqueid": "MTK0672:3FQ5JJ512MV9EQKNEXBKQRVRNB7NKF", "current_trial": 69, "dateTime": 1512589931145, "trialdata": {"rt": -1, "stimulus": "<p id=\"stim\">PADDING</p>", "key_press": -1, "type": "PRES_VIS", "word": "padding", "wordID": 998, "conditions": [18, 1200, "v", 18000], "trial": 1, "serialpos": 14, "trial_type": "single-stim", "trial_index": 69, "time_elapsed": 758486, "internal_node_id": "0.0-51.0"}}, {"uniqueid": "MTK0672:3FQ5JJ512MV9EQKNEXBKQRVRNB7NKF", "current_trial": 70, "dateTime": 1512589933470, "trialdata": {"rt": -1, "stimulus": "<p id=\"stim\">RADISH</p>", "key_press": -1, "type": "PRES_VIS", "word": "radish", "wordID": 1157, "conditions": [18, 1200, "v", 18000], "trial": 1, "serialpos": 15, "trial_type": "single-stim", "trial_index": 70, "time_elapsed": 760812, "internal_node_id": "0.0-52.0"}}, {"uniqueid": "MTK0672:3FQ5JJ512MV9EQKNEXBKQRVRNB7NKF", "current_trial": 71, "dateTime": 1512589935613, "trialdata": {"rt": -1, "stimulus": "<p id=\"stim\">CANYON</p>", "key_press": -1, "type": "PRES_VIS", "word": "canyon", "wordID": 234, "conditions": [18, 1200, "v", 18000], "trial": 1, "serialpos": 16, "trial_type": "single-stim", "trial_index": 71, "time_elapsed": 762955, "internal_node_id": "0.0-53.0"}}, {"uniqueid": "MTK0672:3FQ5JJ512MV9EQKNEXBKQRVRNB7NKF", "current_trial": 72, "dateTime": 1512589937748, "trialdata": {"rt": -1, "stimulus": "<p id=\"stim\">SWITCH</p>", "key_press": -1, "type": "PRES_VIS", "word": "switch", "wordID": 1421, "conditions": [18, 1200, "v", 18000], "trial": 1, "serialpos": 17, "trial_type": "single-stim", "trial_index": 72, "time_elapsed": 765090, "internal_node_id": "0.0-54.0"}}, {"uniqueid": "MTK0672:3FQ5JJ512MV9EQKNEXBKQRVRNB7NKF", "current_trial": 73, "dateTime": 1512589939949, "trialdata": {"rt": -1, "stimulus": "", "key_press": -1, "type": "PRE_RECALL_DELAY", "trial_type": "single-stim", "trial_index": 73, "time_elapsed": 767290, "internal_node_id": "0.0-55.0-0.0"}}, {"uniqueid": "MTK0672:3FQ5JJ512MV9EQKNEXBKQRVRNB7NKF", "current_trial": 74, "dateTime": 1512589940450, "trialdata": {"rt": -1000, "stimulus": "/static/audio/400Hz.wav", "key_press": -1, "type": "PRE_RECALL_ALERT", "trial_type": "single-audio", "trial_index": 74, "time_elapsed": 767792, "internal_node_id": "0.0-56.0"}}, {"uniqueid": "MTK0672:3FQ5JJ512MV9EQKNEXBKQRVRNB7NKF", "current_trial": 75, "dateTime": 1512590000453, "trialdata": {"rt": [3018, 5288, 6622, 7486, 13267, 19371, 20120], "recwords": ["journal", "sherriff", "motor", "canyon", "parrot", "journal", "cross"], "type": "FREE_RECALL", "conditions": [18, 1200, "v", 18000], "trial": 1, "trial_type": "free-recall", "trial_index": 75, "time_elapsed": 827794, "internal_node_id": "0.0-57.0-0.0"}}, {"uniqueid": "MTK0672:3FQ5JJ512MV9EQKNEXBKQRVRNB7NKF", "current_trial": 76, "dateTime": 1512590005541, "trialdata": {"rt": 3085, "key_press": 13, "type": "INSTRUCTIONS", "trial_type": "text", "trial_index": 76, "time_elapsed": 832881, "internal_node_id": "0.0-58.0"}}, {"uniqueid": "MTK0672:3FQ5JJ512MV9EQKNEXBKQRVRNB7NKF", "current_trial": 77, "dateTime": 1512590030544, "trialdata": {"rt": [2090, 3222, 5143, 6987, 8270, 9908, 11799, 13308, 14887, 16818, 18278, 21421, 22532], "responses": ["13", "13", "17", "15", "10", "15", "14", "18", "19", "7", "9", "19", "13"], "num1": [5, 8, 5, 2, 1, 1, 5, 6, 5, 4, 4, 4, 6, 6], "num2": [4, 3, 7, 4, 3, 7, 3, 8, 9, 2, 1, 7, 1, 8], "num3": [4, 2, 9, 9, 6, 7, 6, 4, 5, 1, 5, 8, 6, 4], "type": "DISTRACTOR", "conditions": [12, 800, "v", 24000], "trial": 2, "trial_type": "math-distractor", "trial_index": 77, "time_elapsed": 857886, "internal_node_id": "0.0-59.0"}}, {"uniqueid": "MTK0672:3FQ5JJ512MV9EQKNEXBKQRVRNB7NKF", "current_trial": 78, "dateTime": 1512590033544, "trialdata": {"rt": -1, "stimulus": "<p id=\"stim\">10</p>", "key_press": -1, "trial_type": "single-stim", "trial_index": 78, "time_elapsed": 860886, "internal_node_id": "0.0-60.0-0.0"}}, {"uniqueid": "MTK0672:3FQ5JJ512MV9EQKNEXBKQRVRNB7NKF", "current_trial": 79, "dateTime": 1512590034545, "trialdata": {"rt": -1, "stimulus": "<p id=\"stim\">9</p>", "key_press": -1, "trial_type": "single-stim", "trial_index": 79, "time_elapsed": 861887, "internal_node_id": "0.0-60.0-1.0"}}, {"uniqueid": "MTK0672:3FQ5JJ512MV9EQKNEXBKQRVRNB7NKF", "current_trial": 80, "dateTime": 1512590035545, "trialdata": {"rt": -1, "stimulus": "<p id=\"stim\">8</p>", "key_press": -1, "trial_type": "single-stim", "trial_index": 80, "time_elapsed": 862887, "internal_node_id": "0.0-60.0-2.0"}}, {"uniqueid": "MTK0672:3FQ5JJ512MV9EQKNEXBKQRVRNB7NKF", "current_trial": 81, "dateTime": 1512590036545, "trialdata": {"rt": -1, "stimulus": "<p id=\"stim\">7</p>", "key_press": -1, "trial_type": "single-stim", "trial_index": 81, "time_elapsed": 863887, "internal_node_id": "0.0-60.0-3.0"}}, {"uniqueid": "MTK0672:3FQ5JJ512MV9EQKNEXBKQRVRNB7NKF", "current_trial": 82, "dateTime": 1512590037546, "trialdata": {"rt": -1, "stimulus": "<p id=\"stim\">6</p>", "key_press": -1, "trial_type": "single-stim", "trial_index": 82, "time_elapsed": 864888, "internal_node_id": "0.0-60.0-4.0"}}, {"uniqueid": "MTK0672:3FQ5JJ512MV9EQKNEXBKQRVRNB7NKF", "current_trial": 83, "dateTime": 1512590038546, "trialdata": {"rt": -1, "stimulus": "<p id=\"stim\">5</p>", "key_press": -1, "trial_type": "single-stim", "trial_index": 83, "time_elapsed": 865888, "internal_node_id": "0.0-60.0-5.0"}}, {"uniqueid": "MTK0672:3FQ5JJ512MV9EQKNEXBKQRVRNB7NKF", "current_trial": 84, "dateTime": 1512590039548, "trialdata": {"rt": -1, "stimulus": "<p id=\"stim\">4</p>", "key_press": -1, "trial_type": "single-stim", "trial_index": 84, "time_elapsed": 866890, "internal_node_id": "0.0-60.0-6.0"}}, {"uniqueid": "MTK0672:3FQ5JJ512MV9EQKNEXBKQRVRNB7NKF", "current_trial": 85, "dateTime": 1512590040548, "trialdata": {"rt": -1, "stimulus": "<p id=\"stim\">3</p>", "key_press": -1, "trial_type": "single-stim", "trial_index": 85, "time_elapsed": 867890, "internal_node_id": "0.0-60.0-7.0"}}, {"uniqueid": "MTK0672:3FQ5JJ512MV9EQKNEXBKQRVRNB7NKF", "current_trial": 86, "dateTime": 1512590041548, "trialdata": {"rt": -1, "stimulus": "<p id=\"stim\">2</p>", "key_press": -1, "trial_type": "single-stim", "trial_index": 86, "time_elapsed": 868890, "internal_node_id": "0.0-60.0-8.0"}}, {"uniqueid": "MTK0672:3FQ5JJ512MV9EQKNEXBKQRVRNB7NKF", "current_trial": 87, "dateTime": 1512590042549, "trialdata": {"rt": -1, "stimulus": "<p id=\"stim\">1</p>", "key_press": -1, "trial_type": "single-stim", "trial_index": 87, "time_elapsed": 869891, "internal_node_id": "0.0-60.0-9.0"}}, {"uniqueid": "MTK0672:3FQ5JJ512MV9EQKNEXBKQRVRNB7NKF", "current_trial": 88, "dateTime": 1512590044049, "trialdata": {"rt": -1, "stimulus": "<p id=\"stim\">+</p>", "key_press": -1, "type": "FIXATION", "trial_type": "single-stim", "trial_index": 88, "time_elapsed": 871391, "internal_node_id": "0.0-61.0-0.0"}}, {"uniqueid": "MTK0672:3FQ5JJ512MV9EQKNEXBKQRVRNB7NKF", "current_trial": 89, "dateTime": 1512590044851, "trialdata": {"rt": -1, "stimulus": "<p id=\"stim\">GAVEL</p>", "key_press": -1, "type": "PRES_VIS", "word": "gavel", "wordID": 626, "conditions": [12, 800, "v", 24000], "trial": 2, "serialpos": 0, "trial_type": "single-stim", "trial_index": 89, "time_elapsed": 872193, "internal_node_id": "0.0-62.0"}}, {"uniqueid": "MTK0672:3FQ5JJ512MV9EQKNEXBKQRVRNB7NKF", "current_trial": 90, "dateTime": 1512590046704, "trialdata": {"rt": -1, "stimulus": "<p id=\"stim\">CRATER</p>", "key_press": -1, "type": "PRES_VIS", "word": "crater", "wordID": 399, "conditions": [12, 800, "v", 24000], "trial": 2, "serialpos": 1, "trial_type": "single-stim", "trial_index": 90, "time_elapsed": 874045, "internal_node_id": "0.0-63.0"}}, {"uniqueid": "MTK0672:3FQ5JJ512MV9EQKNEXBKQRVRNB7NKF", "current_trial": 91, "dateTime": 1512590048341, "trialdata": {"rt": -1, "stimulus": "<p id=\"stim\">LAVA</p>", "key_press": -1, "type": "PRES_VIS", "word": "lava", "wordID": 803, "conditions": [12, 800, "v", 24000], "trial": 2, "serialpos": 2, "trial_type": "single-stim", "trial_index": 91, "time_elapsed": 875683, "internal_node_id": "0.0-64.0"}}, {"uniqueid": "MTK0672:3FQ5JJ512MV9EQKNEXBKQRVRNB7NKF", "current_trial": 92, "dateTime": 1512590049962, "trialdata": {"rt": -1, "stimulus": "<p id=\"stim\">PANTHER</p>", "key_press": -1, "type": "PRES_VIS", "word": "panther", "wordID": 1008, "conditions": [12, 800, "v", 24000], "trial": 2, "serialpos": 3, "trial_type": "single-stim", "trial_index": 92, "time_elapsed": 877304, "internal_node_id": "0.0-65.0"}}, {"uniqueid": "MTK0672:3FQ5JJ512MV9EQKNEXBKQRVRNB7NKF", "current_trial": 93, "dateTime": 1512590051594, "trialdata": {"rt": -1, "stimulus": "<p id=\"stim\">LEOPARD</p>", "key_press": -1, "type": "PRES_VIS", "word": "leopard", "wordID": 811, "conditions": [12, 800, "v", 24000], "trial": 2, "serialpos": 4, "trial_type": "single-stim", "trial_index": 93, "time_elapsed": 878936, "internal_node_id": "0.0-66.0"}}, {"uniqueid": "MTK0672:3FQ5JJ512MV9EQKNEXBKQRVRNB7NKF", "current_trial": 94, "dateTime": 1512590053334, "trialdata": {"rt": -1, "stimulus": "<p id=\"stim\">MUFFIN</p>", "key_press": -1, "type": "PRES_VIS", "word": "muffin", "wordID": 928, "conditions": [12, 800, "v", 24000], "trial": 2, "serialpos": 5, "trial_type": "single-stim", "trial_index": 94, "time_elapsed": 880676, "internal_node_id": "0.0-67.0"}}, {"uniqueid": "MTK0672:3FQ5JJ512MV9EQKNEXBKQRVRNB7NKF", "current_trial": 95, "dateTime": 1512590055079, "trialdata": {"rt": -1, "stimulus": "<p id=\"stim\">PUDDLE</p>", "key_press": -1, "type": "PRES_VIS", "word": "puddle", "wordID": 1139, "conditions": [12, 800, "v", 24000], "trial": 2, "serialpos": 6, "trial_type": "single-stim", "trial_index": 95, "time_elapsed": 882420, "internal_node_id": "0.0-68.0"}}, {"uniqueid": "MTK0672:3FQ5JJ512MV9EQKNEXBKQRVRNB7NKF", "current_trial": 96, "dateTime": 1512590056864, "trialdata": {"rt": -1, "stimulus": "<p id=\"stim\">CHEST</p>", "key_press": -1, "type": "PRES_VIS", "word": "chest", "wordID": 294, "conditions": [12, 800, "v", 24000], "trial": 2, "serialpos": 7, "trial_type": "single-stim", "trial_index": 96, "time_elapsed": 884206, "internal_node_id": "0.0-69.0"}}, {"uniqueid": "MTK0672:3FQ5JJ512MV9EQKNEXBKQRVRNB7NKF", "current_trial": 97, "dateTime": 1512590058670, "trialdata": {"rt": -1, "stimulus": "<p id=\"stim\">CHIPMUNK</p>", "key_press": -1, "type": "PRES_VIS", "word": "chipmunk", "wordID": 303, "conditions": [12, 800, "v", 24000], "trial": 2, "serialpos": 8, "trial_type": "single-stim", "trial_index": 97, "time_elapsed": 886012, "internal_node_id": "0.0-70.0"}}, {"uniqueid": "MTK0672:3FQ5JJ512MV9EQKNEXBKQRVRNB7NKF", "current_trial": 98, "dateTime": 1512590060613, "trialdata": {"rt": -1, "stimulus": "<p id=\"stim\">WRIST</p>", "key_press": -1, "type": "PRES_VIS", "word": "wrist", "wordID": 1625, "conditions": [12, 800, "v", 24000], "trial": 2, "serialpos": 9, "trial_type": "single-stim", "trial_index": 98, "time_elapsed": 887955, "internal_node_id": "0.0-71.0"}}, {"uniqueid": "MTK0672:3FQ5JJ512MV9EQKNEXBKQRVRNB7NKF", "current_trial": 99, "dateTime": 1512590062567, "trialdata": {"rt": -1, "stimulus": "<p id=\"stim\">ZEBRA</p>", "key_press": -1, "type": "PRES_VIS", "word": "zebra", "wordID": 1634, "conditions": [12, 800, "v", 24000], "trial": 2, "serialpos": 10, "trial_type": "single-stim", "trial_index": 99, "time_elapsed": 889909, "internal_node_id": "0.0-72.0"}}, {"uniqueid": "MTK0672:3FQ5JJ512MV9EQKNEXBKQRVRNB7NKF", "current_trial": 100, "dateTime": 1512590064361, "trialdata": {"rt": -1, "stimulus": "<p id=\"stim\">SUITCASE</p>", "key_press": -1, "type": "PRES_VIS", "word": "suitcase", "wordID": 1402, "conditions": [12, 800, "v", 24000], "trial": 2, "serialpos": 11, "trial_type": "single-stim", "trial_index": 100, "time_elapsed": 891703, "internal_node_id": "0.0-73.0"}}, {"uniqueid": "MTK0672:3FQ5JJ512MV9EQKNEXBKQRVRNB7NKF", "current_trial": 101, "dateTime": 1512590066730, "trialdata": {"rt": -1, "stimulus": "", "key_press": -1, "type": "PRE_RECALL_DELAY", "trial_type": "single-stim", "trial_index": 101, "time_elapsed": 894072, "internal_node_id": "0.0-74.0-0.0"}}, {"uniqueid": "MTK0672:3FQ5JJ512MV9EQKNEXBKQRVRNB7NKF", "current_trial": 102, "dateTime": 1512590067230, "trialdata": {"rt": -1000, "stimulus": "/static/audio/400Hz.wav", "key_press": -1, "type": "PRE_RECALL_ALERT", "trial_type": "single-audio", "trial_index": 102, "time_elapsed": 894572, "internal_node_id": "0.0-75.0"}}, {"uniqueid": "MTK0672:3FQ5JJ512MV9EQKNEXBKQRVRNB7NKF", "current_trial": 103, "dateTime": 1512590127235, "trialdata": {"rt": [2011, 4640, 7438, 8432, 10113, 12343, 13212, 14748], "recwords": ["panther", "leopard", "chipmunk", "zebra", "suitcase", "crater", "puddle", "gravel"], "type": "FREE_RECALL", "conditions": [12, 800, "v", 24000], "trial": 2, "trial_type": "free-recall", "trial_index": 103, "time_elapsed": 954574, "internal_node_id": "0.0-76.0-0.0"}}, {"uniqueid": "MTK0672:3FQ5JJ512MV9EQKNEXBKQRVRNB7NKF", "current_trial": 104, "dateTime": 1512590134136, "trialdata": {"rt": 4900, "key_press": 13, "type": "INSTRUCTIONS", "trial_type": "text", "trial_index": 104, "time_elapsed": 961478, "internal_node_id": "0.0-77.0"}}, {"uniqueid": "MTK0672:3FQ5JJ512MV9EQKNEXBKQRVRNB7NKF", "current_trial": 105, "dateTime": 1512590160138, "trialdata": {"rt": [3358, 4762, 6201, 7788, 10587, 11646, 13559, 16037, 18066, 19492, 20921, 22775, 23841], "responses": ["12", "8", "23", "21", "12", "13", "9", "16", "24", "16", "10", "14", "4"], "num1": [2, 6, 9, 4, 1, 6, 4, 6, 8, 7, 1, 8, 1, 6], "num2": [6, 1, 5, 9, 7, 6, 3, 2, 8, 7, 6, 1, 1, 5], "num3": [4, 1, 9, 8, 4, 1, 2, 8, 8, 2, 3, 5, 2, 7], "type": "DISTRACTOR", "conditions": [24, 800, "a", 24000], "trial": 3, "trial_type": "math-distractor", "trial_index": 105, "time_elapsed": 987480, "internal_node_id": "0.0-78.0"}}, {"uniqueid": "MTK0672:3FQ5JJ512MV9EQKNEXBKQRVRNB7NKF", "current_trial": 106, "dateTime": 1512590163138, "trialdata": {"rt": -1, "stimulus": "<p id=\"stim\">10</p>", "key_press": -1, "trial_type": "single-stim", "trial_index": 106, "time_elapsed": 990480, "internal_node_id": "0.0-79.0-0.0"}}, {"uniqueid": "MTK0672:3FQ5JJ512MV9EQKNEXBKQRVRNB7NKF", "current_trial": 107, "dateTime": 1512590164139, "trialdata": {"rt": -1, "stimulus": "<p id=\"stim\">9</p>", "key_press": -1, "trial_type": "single-stim", "trial_index": 107, "time_elapsed": 991481, "internal_node_id": "0.0-79.0-1.0"}}, {"uniqueid": "MTK0672:3FQ5JJ512MV9EQKNEXBKQRVRNB7NKF", "current_trial": 108, "dateTime": 1512590165139, "trialdata": {"rt": -1, "stimulus": "<p id=\"stim\">8</p>", "key_press": -1, "trial_type": "single-stim", "trial_index": 108, "time_elapsed": 992481, "internal_node_id": "0.0-79.0-2.0"}}, {"uniqueid": "MTK0672:3FQ5JJ512MV9EQKNEXBKQRVRNB7NKF", "current_trial": 109, "dateTime": 1512590166139, "trialdata": {"rt": -1, "stimulus": "<p id=\"stim\">7</p>", "key_press": -1, "trial_type": "single-stim", "trial_index": 109, "time_elapsed": 993481, "internal_node_id": "0.0-79.0-3.0"}}, {"uniqueid": "MTK0672:3FQ5JJ512MV9EQKNEXBKQRVRNB7NKF", "current_trial": 110, "dateTime": 1512590167140, "trialdata": {"rt": -1, "stimulus": "<p id=\"stim\">6</p>", "key_press": -1, "trial_type": "single-stim", "trial_index": 110, "time_elapsed": 994482, "internal_node_id": "0.0-79.0-4.0"}}, {"uniqueid": "MTK0672:3FQ5JJ512MV9EQKNEXBKQRVRNB7NKF", "current_trial": 111, "dateTime": 1512590168140, "trialdata": {"rt": -1, "stimulus": "<p id=\"stim\">5</p>", "key_press": -1, "trial_type": "single-stim", "trial_index": 111, "time_elapsed": 995482, "internal_node_id": "0.0-79.0-5.0"}}, {"uniqueid": "MTK0672:3FQ5JJ512MV9EQKNEXBKQRVRNB7NKF", "current_trial": 112, "dateTime": 1512590169141, "trialdata": {"rt": -1, "stimulus": "<p id=\"stim\">4</p>", "key_press": -1, "trial_type": "single-stim", "trial_index": 112, "time_elapsed": 996483, "internal_node_id": "0.0-79.0-6.0"}}, {"uniqueid": "MTK0672:3FQ5JJ512MV9EQKNEXBKQRVRNB7NKF", "current_trial": 113, "dateTime": 1512590170141, "trialdata": {"rt": -1, "stimulus": "<p id=\"stim\">3</p>", "key_press": -1, "trial_type": "single-stim", "trial_index": 113, "time_elapsed": 997483, "internal_node_id": "0.0-79.0-7.0"}}, {"uniqueid": "MTK0672:3FQ5JJ512MV9EQKNEXBKQRVRNB7NKF", "current_trial": 114, "dateTime": 1512590171142, "trialdata": {"rt": -1, "stimulus": "<p id=\"stim\">2</p>", "key_press": -1, "trial_type": "single-stim", "trial_index": 114, "time_elapsed": 998484, "internal_node_id": "0.0-79.0-8.0"}}, {"uniqueid": "MTK0672:3FQ5JJ512MV9EQKNEXBKQRVRNB7NKF", "current_trial": 115, "dateTime": 1512590172142, "trialdata": {"rt": -1, "stimulus": "<p id=\"stim\">1</p>", "key_press": -1, "trial_type": "single-stim", "trial_index": 115, "time_elapsed": 999484, "internal_node_id": "0.0-79.0-9.0"}}, {"uniqueid": "MTK0672:3FQ5JJ512MV9EQKNEXBKQRVRNB7NKF", "current_trial": 116, "dateTime": 1512590173642, "trialdata": {"rt": -1, "stimulus": "<p id=\"stim\">+</p>", "key_press": -1, "type": "FIXATION", "trial_type": "single-stim", "trial_index": 116, "time_elapsed": 1000984, "internal_node_id": "0.0-80.0-0.0"}}, {"uniqueid": "MTK0672:3FQ5JJ512MV9EQKNEXBKQRVRNB7NKF", "current_trial": 117, "dateTime": 1512590175603, "trialdata": {"rt": -1000, "stimulus": "/static/audio/wordpool/FILM.wav", "key_press": -1, "type": "PRES_AUD", "word": "film", "wordID": 564, "conditions": [24, 800, "a", 24000], "trial": 3, "serialpos": 0, "trial_type": "single-audio", "trial_index": 117, "time_elapsed": 1002944, "internal_node_id": "0.0-81.0"}}, {"uniqueid": "MTK0672:3FQ5JJ512MV9EQKNEXBKQRVRNB7NKF", "current_trial": 118, "dateTime": 1512590177532, "trialdata": {"rt": -1000, "stimulus": "/static/audio/wordpool/JAPAN.wav", "key_press": -1, "type": "PRES_AUD", "word": "japan", "wordID": 748, "conditions": [24, 800, "a", 24000], "trial": 3, "serialpos": 1, "trial_type": "single-audio", "trial_index": 118, "time_elapsed": 1004874, "internal_node_id": "0.0-82.0"}}, {"uniqueid": "MTK0672:3FQ5JJ512MV9EQKNEXBKQRVRNB7NKF", "current_trial": 119, "dateTime": 1512590179231, "trialdata": {"rt": 179.99999999994998, "stimulus": "/static/audio/wordpool/MAMMAL.wav", "key_press": 175, "type": "PRES_AUD", "word": "mammal", "wordID": 860, "conditions": [24, 800, "a", 24000], "trial": 3, "serialpos": 2, "trial_type": "single-audio", "trial_index": 119, "time_elapsed": 1006573, "internal_node_id": "0.0-83.0"}}, {"uniqueid": "MTK0672:3FQ5JJ512MV9EQKNEXBKQRVRNB7NKF", "current_trial": 120, "dateTime": 1512590180874, "trialdata": {"rt": -1000, "stimulus": "/static/audio/wordpool/TURTLE.wav", "key_press": -1, "type": "PRES_AUD", "word": "turtle", "wordID": 1521, "conditions": [24, 800, "a", 24000], "trial": 3, "serialpos": 3, "trial_type": "single-audio", "trial_index": 120, "time_elapsed": 1008216, "internal_node_id": "0.0-84.0"}}, {"uniqueid": "MTK0672:3FQ5JJ512MV9EQKNEXBKQRVRNB7NKF", "current_trial": 121, "dateTime": 1512590182601, "trialdata": {"rt": -1000, "stimulus": "/static/audio/wordpool/ACTOR.wav", "key_press": -1, "type": "PRES_AUD", "word": "actor", "wordID": 4, "conditions": [24, 800, "a", 24000], "trial": 3, "serialpos": 4, "trial_type": "single-audio", "trial_index": 121, "time_elapsed": 1009943, "internal_node_id": "0.0-85.0"}}, {"uniqueid": "MTK0672:3FQ5JJ512MV9EQKNEXBKQRVRNB7NKF", "current_trial": 122, "dateTime": 1512590184313, "trialdata": {"rt": -1000, "stimulus": "/static/audio/wordpool/SNAKE.wav", "key_press": -1, "type": "PRES_AUD", "word": "snake", "wordID": 1332, "conditions": [24, 800, "a", 24000], "trial": 3, "serialpos": 5, "trial_type": "single-audio", "trial_index": 122, "time_elapsed": 1011655, "internal_node_id": "0.0-86.0"}}, {"uniqueid": "MTK0672:3FQ5JJ512MV9EQKNEXBKQRVRNB7NKF", "current_trial": 123, "dateTime": 1512590186287, "trialdata": {"rt": -1000, "stimulus": "/static/audio/wordpool/EAGLE.wav", "key_press": -1, "type": "PRES_AUD", "word": "eagle", "wordID": 511, "conditions": [24, 800, "a", 24000], "trial": 3, "serialpos": 6, "trial_type": "single-audio", "trial_index": 123, "time_elapsed": 1013629, "internal_node_id": "0.0-87.0"}}, {"uniqueid": "MTK0672:3FQ5JJ512MV9EQKNEXBKQRVRNB7NKF", "current_trial": 124, "dateTime": 1512590187935, "trialdata": {"rt": -1000, "stimulus": "/static/audio/wordpool/DRINK.wav", "key_press": -1, "type": "PRES_AUD", "word": "drink", "wordID": 497, "conditions": [24, 800, "a", 24000], "trial": 3, "serialpos": 7, "trial_type": "single-audio", "trial_index": 124, "time_elapsed": 1015277, "internal_node_id": "0.0-88.0"}}, {"uniqueid": "MTK0672:3FQ5JJ512MV9EQKNEXBKQRVRNB7NKF", "current_trial": 125, "dateTime": 1512590189779, "trialdata": {"rt": -1000, "stimulus": "/static/audio/wordpool/AWARD.wav", "key_press": -1, "type": "PRES_AUD", "word": "award", "wordID": 62, "conditions": [24, 800, "a", 24000], "trial": 3, "serialpos": 8, "trial_type": "single-audio", "trial_index": 125, "time_elapsed": 1017121, "internal_node_id": "0.0-89.0"}}, {"uniqueid": "MTK0672:3FQ5JJ512MV9EQKNEXBKQRVRNB7NKF", "current_trial": 126, "dateTime": 1512590191604, "trialdata": {"rt": -1000, "stimulus": "/static/audio/wordpool/TREAT.wav", "key_press": -1, "type": "PRES_AUD", "word": "treat", "wordID": 1500, "conditions": [24, 800, "a", 24000], "trial": 3, "serialpos": 9, "trial_type": "single-audio", "trial_index": 126, "time_elapsed": 1018946, "internal_node_id": "0.0-90.0"}}, {"uniqueid": "MTK0672:3FQ5JJ512MV9EQKNEXBKQRVRNB7NKF", "current_trial": 127, "dateTime": 1512590193325, "trialdata": {"rt": -1000, "stimulus": "/static/audio/wordpool/SHELF.wav", "key_press": -1, "type": "PRES_AUD", "word": "shelf", "wordID": 1279, "conditions": [24, 800, "a", 24000], "trial": 3, "serialpos": 10, "trial_type": "single-audio", "trial_index": 127, "time_elapsed": 1020667, "internal_node_id": "0.0-91.0"}}, {"uniqueid": "MTK0672:3FQ5JJ512MV9EQKNEXBKQRVRNB7NKF", "current_trial": 128, "dateTime": 1512590195077, "trialdata": {"rt": -1000, "stimulus": "/static/audio/wordpool/KLEENEX.wav", "key_press": -1, "type": "PRES_AUD", "word": "kleenex", "wordID": 781, "conditions": [24, 800, "a", 24000], "trial": 3, "serialpos": 11, "trial_type": "single-audio", "trial_index": 128, "time_elapsed": 1022419, "internal_node_id": "0.0-92.0"}}, {"uniqueid": "MTK0672:3FQ5JJ512MV9EQKNEXBKQRVRNB7NKF", "current_trial": 129, "dateTime": 1512590196740, "trialdata": {"rt": -1000, "stimulus": "/static/audio/wordpool/WOMAN.wav", "key_press": -1, "type": "PRES_AUD", "word": "woman", "wordID": 1619, "conditions": [24, 800, "a", 24000], "trial": 3, "serialpos": 12, "trial_type": "single-audio", "trial_index": 129, "time_elapsed": 1024082, "internal_node_id": "0.0-93.0"}}, {"uniqueid": "MTK0672:3FQ5JJ512MV9EQKNEXBKQRVRNB7NKF", "current_trial": 130, "dateTime": 1512590198476, "trialdata": {"rt": -1000, "stimulus": "/static/audio/wordpool/BEAVER.wav", "key_press": -1, "type": "PRES_AUD", "word": "beaver", "wordID": 108, "conditions": [24, 800, "a", 24000], "trial": 3, "serialpos": 13, "trial_type": "single-audio", "trial_index": 130, "time_elapsed": 1025818, "internal_node_id": "0.0-94.0"}}, {"uniqueid": "MTK0672:3FQ5JJ512MV9EQKNEXBKQRVRNB7NKF", "current_trial": 131, "dateTime": 1512590200436, "trialdata": {"rt": -1000, "stimulus": "/static/audio/wordpool/COBRA.wav", "key_press": -1, "type": "PRES_AUD", "word": "cobra", "wordID": 335, "conditions": [24, 800, "a", 24000], "trial": 3, "serialpos": 14, "trial_type": "single-audio", "trial_index": 131, "time_elapsed": 1027778, "internal_node_id": "0.0-95.0"}}, {"uniqueid": "MTK0672:3FQ5JJ512MV9EQKNEXBKQRVRNB7NKF", "current_trial": 132, "dateTime": 1512590202203, "trialdata": {"rt": -1000, "stimulus": "/static/audio/wordpool/LIZARD.wav", "key_press": -1, "type": "PRES_AUD", "word": "lizard", "wordID": 833, "conditions": [24, 800, "a", 24000], "trial": 3, "serialpos": 15, "trial_type": "single-audio", "trial_index": 132, "time_elapsed": 1029545, "internal_node_id": "0.0-96.0"}}, {"uniqueid": "MTK0672:3FQ5JJ512MV9EQKNEXBKQRVRNB7NKF", "current_trial": 133, "dateTime": 1512590204132, "trialdata": {"rt": -1000, "stimulus": "/static/audio/wordpool/MUSTARD.wav", "key_press": -1, "type": "PRES_AUD", "word": "mustard", "wordID": 934, "conditions": [24, 800, "a", 24000], "trial": 3, "serialpos": 16, "trial_type": "single-audio", "trial_index": 133, "time_elapsed": 1031474, "internal_node_id": "0.0-97.0"}}, {"uniqueid": "MTK0672:3FQ5JJ512MV9EQKNEXBKQRVRNB7NKF", "current_trial": 134, "dateTime": 1512590205912, "trialdata": {"rt": -1000, "stimulus": "/static/audio/wordpool/BUGGY.wav", "key_press": -1, "type": "PRES_AUD", "word": "buggy", "wordID": 187, "conditions": [24, 800, "a", 24000], "trial": 3, "serialpos": 17, "trial_type": "single-audio", "trial_index": 134, "time_elapsed": 1033254, "internal_node_id": "0.0-98.0"}}, {"uniqueid": "MTK0672:3FQ5JJ512MV9EQKNEXBKQRVRNB7NKF", "current_trial": 135, "dateTime": 1512590207589, "trialdata": {"rt": -1000, "stimulus": "/static/audio/wordpool/LADY.wav", "key_press": -1, "type": "PRES_AUD", "word": "lady", "wordID": 793, "conditions": [24, 800, "a", 24000], "trial": 3, "serialpos": 18, "trial_type": "single-audio", "trial_index": 135, "time_elapsed": 1034931, "internal_node_id": "0.0-99.0"}}, {"uniqueid": "MTK0672:3FQ5JJ512MV9EQKNEXBKQRVRNB7NKF", "current_trial": 136, "dateTime": 1512590209455, "trialdata": {"rt": -1000, "stimulus": "/static/audio/wordpool/YACHT.wav", "key_press": -1, "type": "PRES_AUD", "word": "yacht", "wordID": 1628, "conditions": [24, 800, "a", 24000], "trial": 3, "serialpos": 19, "trial_type": "single-audio", "trial_index": 136, "time_elapsed": 1036797, "internal_node_id": "0.0-100.0"}}, {"uniqueid": "MTK0672:3FQ5JJ512MV9EQKNEXBKQRVRNB7NKF", "current_trial": 137, "dateTime": 1512590211207, "trialdata": {"rt": -1000, "stimulus": "/static/audio/wordpool/SPONGE.wav", "key_press": -1, "type": "PRES_AUD", "word": "sponge", "wordID": 1354, "conditions": [24, 800, "a", 24000], "trial": 3, "serialpos": 20, "trial_type": "single-audio", "trial_index": 137, "time_elapsed": 1038549, "internal_node_id": "0.0-101.0"}}, {"uniqueid": "MTK0672:3FQ5JJ512MV9EQKNEXBKQRVRNB7NKF", "current_trial": 138, "dateTime": 1512590212882, "trialdata": {"rt": -1000, "stimulus": "/static/audio/wordpool/DOUGHNUT.wav", "key_press": -1, "type": "PRES_AUD", "word": "doughnut", "wordID": 489, "conditions": [24, 800, "a", 24000], "trial": 3, "serialpos": 21, "trial_type": "single-audio", "trial_index": 138, "time_elapsed": 1040224, "internal_node_id": "0.0-102.0"}}, {"uniqueid": "MTK0672:3FQ5JJ512MV9EQKNEXBKQRVRNB7NKF", "current_trial": 139, "dateTime": 1512590214852, "trialdata": {"rt": -1000, "stimulus": "/static/audio/wordpool/OYSTER.wav", "key_press": -1, "type": "PRES_AUD", "word": "oyster", "wordID": 994, "conditions": [24, 800, "a", 24000], "trial": 3, "serialpos": 22, "trial_type": "single-audio", "trial_index": 139, "time_elapsed": 1042194, "internal_node_id": "0.0-103.0"}}, {"uniqueid": "MTK0672:3FQ5JJ512MV9EQKNEXBKQRVRNB7NKF", "current_trial": 140, "dateTime": 1512590216656, "trialdata": {"rt": -1000, "stimulus": "/static/audio/wordpool/BROOK.wav", "key_press": -1, "type": "PRES_AUD", "word": "brook", "wordID": 176, "conditions": [24, 800, "a", 24000], "trial": 3, "serialpos": 23, "trial_type": "single-audio", "trial_index": 140, "time_elapsed": 1043998, "internal_node_id": "0.0-104.0"}}, {"uniqueid": "MTK0672:3FQ5JJ512MV9EQKNEXBKQRVRNB7NKF", "current_trial": 141, "dateTime": 1512590217930, "trialdata": {"rt": -1, "stimulus": "", "key_press": -1, "type": "PRE_RECALL_DELAY", "trial_type": "single-stim", "trial_index": 141, "time_elapsed": 1045272, "internal_node_id": "0.0-105.0-0.0"}}, {"uniqueid": "MTK0672:3FQ5JJ512MV9EQKNEXBKQRVRNB7NKF", "current_trial": 142, "dateTime": 1512590218430, "trialdata": {"rt": -1000, "stimulus": "/static/audio/400Hz.wav", "key_press": -1, "type": "PRE_RECALL_ALERT", "trial_type": "single-audio", "trial_index": 142, "time_elapsed": 1045772, "internal_node_id": "0.0-106.0"}}, {"uniqueid": "MTK0672:3FQ5JJ512MV9EQKNEXBKQRVRNB7NKF", "current_trial": 143, "dateTime": 1512590278435, "trialdata": {"rt": [1872, 3148, 4149, 8601, 9619, 10464], "recwords": ["woman", "beaver", "lizard", "donut", "oyster", "book"], "type": "FREE_RECALL", "conditions": [24, 800, "a", 24000], "trial": 3, "trial_type": "free-recall", "trial_index": 143, "time_elapsed": 1105776, "internal_node_id": "0.0-107.0-0.0"}}, {"uniqueid": "MTK0672:3FQ5JJ512MV9EQKNEXBKQRVRNB7NKF", "current_trial": 144, "dateTime": 1512590296869, "trialdata": {"rt": 16433, "key_press": 13, "type": "INSTRUCTIONS", "trial_type": "text", "trial_index": 144, "time_elapsed": 1124211, "internal_node_id": "0.0-108.0"}}, {"uniqueid": "MTK0672:3FQ5JJ512MV9EQKNEXBKQRVRNB7NKF", "current_trial": 145, "dateTime": 1512590310871, "trialdata": {"rt": [], "responses": [], "num1": [1], "num2": [9], "num3": [8], "type": "DISTRACTOR", "conditions": [12, 800, "v", 12000], "trial": 4, "trial_type": "math-distractor", "trial_index": 145, "time_elapsed": 1138213, "internal_node_id": "0.0-109.0"}}, {"uniqueid": "MTK0672:3FQ5JJ512MV9EQKNEXBKQRVRNB7NKF", "current_trial": 146, "dateTime": 1512590313872, "trialdata": {"rt": -1, "stimulus": "<p id=\"stim\">10</p>", "key_press": -1, "trial_type": "single-stim", "trial_index": 146, "time_elapsed": 1141214, "internal_node_id": "0.0-110.0-0.0"}}, {"uniqueid": "MTK0672:3FQ5JJ512MV9EQKNEXBKQRVRNB7NKF", "current_trial": 147, "dateTime": 1512590314873, "trialdata": {"rt": -1, "stimulus": "<p id=\"stim\">9</p>", "key_press": -1, "trial_type": "single-stim", "trial_index": 147, "time_elapsed": 1142215, "internal_node_id": "0.0-110.0-1.0"}}, {"uniqueid": "MTK0672:3FQ5JJ512MV9EQKNEXBKQRVRNB7NKF", "current_trial": 148, "dateTime": 1512590315874, "trialdata": {"rt": -1, "stimulus": "<p id=\"stim\">8</p>", "key_press": -1, "trial_type": "single-stim", "trial_index": 148, "time_elapsed": 1143216, "internal_node_id": "0.0-110.0-2.0"}}, {"uniqueid": "MTK0672:3FQ5JJ512MV9EQKNEXBKQRVRNB7NKF", "current_trial": 149, "dateTime": 1512590316874, "trialdata": {"rt": -1, "stimulus": "<p id=\"stim\">7</p>", "key_press": -1, "trial_type": "single-stim", "trial_index": 149, "time_elapsed": 1144216, "internal_node_id": "0.0-110.0-3.0"}}, {"uniqueid": "MTK0672:3FQ5JJ512MV9EQKNEXBKQRVRNB7NKF", "current_trial": 150, "dateTime": 1512590317876, "trialdata": {"rt": -1, "stimulus": "<p id=\"stim\">6</p>", "key_press": -1, "trial_type": "single-stim", "trial_index": 150, "time_elapsed": 1145218, "internal_node_id": "0.0-110.0-4.0"}}, {"uniqueid": "MTK0672:3FQ5JJ512MV9EQKNEXBKQRVRNB7NKF", "current_trial": 151, "dateTime": 1512590318877, "trialdata": {"rt": -1, "stimulus": "<p id=\"stim\">5</p>", "key_press": -1, "trial_type": "single-stim", "trial_index": 151, "time_elapsed": 1146219, "internal_node_id": "0.0-110.0-5.0"}}, {"uniqueid": "MTK0672:3FQ5JJ512MV9EQKNEXBKQRVRNB7NKF", "current_trial": 152, "dateTime": 1512590319878, "trialdata": {"rt": -1, "stimulus": "<p id=\"stim\">4</p>", "key_press": -1, "trial_type": "single-stim", "trial_index": 152, "time_elapsed": 1147219, "internal_node_id": "0.0-110.0-6.0"}}, {"uniqueid": "MTK0672:3FQ5JJ512MV9EQKNEXBKQRVRNB7NKF", "current_trial": 153, "dateTime": 1512590320879, "trialdata": {"rt": -1, "stimulus": "<p id=\"stim\">3</p>", "key_press": -1, "trial_type": "single-stim", "trial_index": 153, "time_elapsed": 1148221, "internal_node_id": "0.0-110.0-7.0"}}, {"uniqueid": "MTK0672:3FQ5JJ512MV9EQKNEXBKQRVRNB7NKF", "current_trial": 154, "dateTime": 1512590321879, "trialdata": {"rt": -1, "stimulus": "<p id=\"stim\">2</p>", "key_press": -1, "trial_type": "single-stim", "trial_index": 154, "time_elapsed": 1149221, "internal_node_id": "0.0-110.0-8.0"}}, {"uniqueid": "MTK0672:3FQ5JJ512MV9EQKNEXBKQRVRNB7NKF", "current_trial": 155, "dateTime": 1512590322881, "trialdata": {"rt": -1, "stimulus": "<p id=\"stim\">1</p>", "key_press": -1, "trial_type": "single-stim", "trial_index": 155, "time_elapsed": 1150222, "internal_node_id": "0.0-110.0-9.0"}}, {"uniqueid": "MTK0672:3FQ5JJ512MV9EQKNEXBKQRVRNB7NKF", "current_trial": 156, "dateTime": 1512590324381, "trialdata": {"rt": -1, "stimulus": "<p id=\"stim\">+</p>", "key_press": -1, "type": "FIXATION", "trial_type": "single-stim", "trial_index": 156, "time_elapsed": 1151723, "internal_node_id": "0.0-111.0-0.0"}}, {"uniqueid": "MTK0672:3FQ5JJ512MV9EQKNEXBKQRVRNB7NKF", "current_trial": 157, "dateTime": 1512590325183, "trialdata": {"rt": -1, "stimulus": "<p id=\"stim\">MILDEW</p>", "key_press": -1, "type": "PRES_VIS", "word": "mildew", "wordID": 892, "conditions": [12, 800, "v", 12000], "trial": 4, "serialpos": 0, "trial_type": "single-stim", "trial_index": 157, "time_elapsed": 1152525, "internal_node_id": "0.0-112.0"}}, {"uniqueid": "MTK0672:3FQ5JJ512MV9EQKNEXBKQRVRNB7NKF", "current_trial": 158, "dateTime": 1512590326822, "trialdata": {"rt": -1, "stimulus": "<p id=\"stim\">VALLEY</p>", "key_press": -1, "type": "PRES_VIS", "word": "valley", "wordID": 1544, "conditions": [12, 800, "v", 12000], "trial": 4, "serialpos": 1, "trial_type": "single-stim", "trial_index": 158, "time_elapsed": 1154164, "internal_node_id": "0.0-113.0"}}, {"uniqueid": "MTK0672:3FQ5JJ512MV9EQKNEXBKQRVRNB7NKF", "current_trial": 159, "dateTime": 1512590328454, "trialdata": {"rt": -1, "stimulus": "<p id=\"stim\">PRIMATE</p>", "key_press": -1, "type": "PRES_VIS", "word": "primate", "wordID": 1122, "conditions": [12, 800, "v", 12000], "trial": 4, "serialpos": 2, "trial_type": "single-stim", "trial_index": 159, "time_elapsed": 1155796, "internal_node_id": "0.0-114.0"}}, {"uniqueid": "MTK0672:3FQ5JJ512MV9EQKNEXBKQRVRNB7NKF", "current_trial": 160, "dateTime": 1512590330133, "trialdata": {"rt": -1, "stimulus": "<p id=\"stim\">FLESH</p>", "key_press": -1, "type": "PRES_VIS", "word": "flesh", "wordID": 578, "conditions": [12, 800, "v", 12000], "trial": 4, "serialpos": 3, "trial_type": "single-stim", "trial_index": 160, "time_elapsed": 1157474, "internal_node_id": "0.0-115.0"}}, {"uniqueid": "MTK0672:3FQ5JJ512MV9EQKNEXBKQRVRNB7NKF", "current_trial": 161, "dateTime": 1512590332113, "trialdata": {"rt": -1, "stimulus": "<p id=\"stim\">TAXI</p>", "key_press": -1, "type": "PRES_VIS", "word": "taxi", "wordID": 1437, "conditions": [12, 800, "v", 12000], "trial": 4, "serialpos": 4, "trial_type": "single-stim", "trial_index": 161, "time_elapsed": 1159455, "internal_node_id": "0.0-116.0"}}, {"uniqueid": "MTK0672:3FQ5JJ512MV9EQKNEXBKQRVRNB7NKF", "current_trial": 162, "dateTime": 1512590333899, "trialdata": {"rt": -1, "stimulus": "<p id=\"stim\">LODGE</p>", "key_press": -1, "type": "PRES_VIS", "word": "lodge", "wordID": 838, "conditions": [12, 800, "v", 12000], "trial": 4, "serialpos": 5, "trial_type": "single-stim", "trial_index": 162, "time_elapsed": 1161241, "internal_node_id": "0.0-117.0"}}, {"uniqueid": "MTK0672:3FQ5JJ512MV9EQKNEXBKQRVRNB7NKF", "current_trial": 163, "dateTime": 1512590335587, "trialdata": {"rt": -1, "stimulus": "<p id=\"stim\">FREEZER</p>", "key_press": -1, "type": "PRES_VIS", "word": "freezer", "wordID": 603, "conditions": [12, 800, "v", 12000], "trial": 4, "serialpos": 6, "trial_type": "single-stim", "trial_index": 163, "time_elapsed": 1162929, "internal_node_id": "0.0-118.0"}}, {"uniqueid": "MTK0672:3FQ5JJ512MV9EQKNEXBKQRVRNB7NKF", "current_trial": 164, "dateTime": 1512590337584, "trialdata": {"rt": -1, "stimulus": "<p id=\"stim\">FUNGUS</p>", "key_press": -1, "type": "PRES_VIS", "word": "fungus", "wordID": 613, "conditions": [12, 800, "v", 12000], "trial": 4, "serialpos": 7, "trial_type": "single-stim", "trial_index": 164, "time_elapsed": 1164926, "internal_node_id": "0.0-119.0"}}, {"uniqueid": "MTK0672:3FQ5JJ512MV9EQKNEXBKQRVRNB7NKF", "current_trial": 165, "dateTime": 1512590339188, "trialdata": {"rt": -1, "stimulus": "<p id=\"stim\">BALLOON</p>", "key_press": -1, "type": "PRES_VIS", "word": "balloon", "wordID": 74, "conditions": [12, 800, "v", 12000], "trial": 4, "serialpos": 8, "trial_type": "single-stim", "trial_index": 165, "time_elapsed": 1166530, "internal_node_id": "0.0-120.0"}}, {"uniqueid": "MTK0672:3FQ5JJ512MV9EQKNEXBKQRVRNB7NKF", "current_trial": 166, "dateTime": 1512590341057, "trialdata": {"rt": -1, "stimulus": "<p id=\"stim\">SODA</p>", "key_press": -1, "type": "PRES_VIS", "word": "soda", "wordID": 1340, "conditions": [12, 800, "v", 12000], "trial": 4, "serialpos": 9, "trial_type": "single-stim", "trial_index": 166, "time_elapsed": 1168399, "internal_node_id": "0.0-121.0"}}, {"uniqueid": "MTK0672:3FQ5JJ512MV9EQKNEXBKQRVRNB7NKF", "current_trial": 167, "dateTime": 1512590342738, "trialdata": {"rt": -1, "stimulus": "<p id=\"stim\">SHORTCAKE</p>", "key_press": -1, "type": "PRES_VIS", "word": "shortcake", "wordID": 1291, "conditions": [12, 800, "v", 12000], "trial": 4, "serialpos": 10, "trial_type": "single-stim", "trial_index": 167, "time_elapsed": 1170080, "internal_node_id": "0.0-122.0"}}, {"uniqueid": "MTK0672:3FQ5JJ512MV9EQKNEXBKQRVRNB7NKF", "current_trial": 168, "dateTime": 1512590344713, "trialdata": {"rt": -1, "stimulus": "<p id=\"stim\">PASTA</p>", "key_press": -1, "type": "PRES_VIS", "word": "pasta", "wordID": 1020, "conditions": [12, 800, "v", 12000], "trial": 4, "serialpos": 11, "trial_type": "single-stim", "trial_index": 168, "time_elapsed": 1172055, "internal_node_id": "0.0-123.0"}}, {"uniqueid": "MTK0672:3FQ5JJ512MV9EQKNEXBKQRVRNB7NKF", "current_trial": 169, "dateTime": 1512590347061, "trialdata": {"rt": -1, "stimulus": "", "key_press": -1, "type": "PRE_RECALL_DELAY", "trial_type": "single-stim", "trial_index": 169, "time_elapsed": 1174403, "internal_node_id": "0.0-124.0-0.0"}}, {"uniqueid": "MTK0672:3FQ5JJ512MV9EQKNEXBKQRVRNB7NKF", "current_trial": 170, "dateTime": 1512590347562, "trialdata": {"rt": -1000, "stimulus": "/static/audio/400Hz.wav", "key_press": -1, "type": "PRE_RECALL_ALERT", "trial_type": "single-audio", "trial_index": 170, "time_elapsed": 1174904, "internal_node_id": "0.0-125.0"}}, {"uniqueid": "MTK0672:3FQ5JJ512MV9EQKNEXBKQRVRNB7NKF", "current_trial": 171, "dateTime": 1512590407567, "trialdata": {"rt": [4348, 4997, 5772, 6934, 10382], "recwords": ["taxi", "soda", "flesh", "primate", "mildew"], "type": "FREE_RECALL", "conditions": [12, 800, "v", 12000], "trial": 4, "trial_type": "free-recall", "trial_index": 171, "time_elapsed": 1234906, "internal_node_id": "0.0-126.0-0.0"}}, {"uniqueid": "MTK0672:3FQ5JJ512MV9EQKNEXBKQRVRNB7NKF", "current_trial": 172, "dateTime": 1512590472159, "trialdata": {"rt": 62590, "key_press": 13, "type": "INSTRUCTIONS", "trial_type": "text", "trial_index": 172, "time_elapsed": 1299501, "internal_node_id": "0.0-127.0"}}, {"uniqueid": "MTK0672:3FQ5JJ512MV9EQKNEXBKQRVRNB7NKF", "current_trial": 173, "dateTime": 1512590498160, "trialdata": {"rt": [1800, 4412, 6492, 9962, 11886, 14055, 16101, 17829, 19514, 21916, 23474], "responses": ["15", "15", "17", "25", "18", "16", "17", "18", "8", "16", "14"], "num1": [9, 9, 8, 9, 7, 3, 6, 9, 4, 6, 1, 6], "num2": [5, 2, 4, 9, 8, 9, 6, 6, 2, 7, 8, 7], "num3": [1, 4, 5, 7, 3, 4, 5, 3, 2, 3, 5, 5], "type": "DISTRACTOR", "conditions": [24, 1600, "v", 24000], "trial": 5, "trial_type": "math-distractor", "trial_index": 173, "time_elapsed": 1325502, "internal_node_id": "0.0-128.0"}}, {"uniqueid": "MTK0672:3FQ5JJ512MV9EQKNEXBKQRVRNB7NKF", "current_trial": 174, "dateTime": 1512590501160, "trialdata": {"rt": -1, "stimulus": "<p id=\"stim\">10</p>", "key_press": -1, "trial_type": "single-stim", "trial_index": 174, "time_elapsed": 1328502, "internal_node_id": "0.0-129.0-0.0"}}, {"uniqueid": "MTK0672:3FQ5JJ512MV9EQKNEXBKQRVRNB7NKF", "current_trial": 175, "dateTime": 1512590502161, "trialdata": {"rt": -1, "stimulus": "<p id=\"stim\">9</p>", "key_press": -1, "trial_type": "single-stim", "trial_index": 175, "time_elapsed": 1329503, "internal_node_id": "0.0-129.0-1.0"}}, {"uniqueid": "MTK0672:3FQ5JJ512MV9EQKNEXBKQRVRNB7NKF", "current_trial": 176, "dateTime": 1512590503161, "trialdata": {"rt": -1, "stimulus": "<p id=\"stim\">8</p>", "key_press": -1, "trial_type": "single-stim", "trial_index": 176, "time_elapsed": 1330503, "internal_node_id": "0.0-129.0-2.0"}}, {"uniqueid": "MTK0672:3FQ5JJ512MV9EQKNEXBKQRVRNB7NKF", "current_trial": 177, "dateTime": 1512590504161, "trialdata": {"rt": -1, "stimulus": "<p id=\"stim\">7</p>", "key_press": -1, "trial_type": "single-stim", "trial_index": 177, "time_elapsed": 1331503, "internal_node_id": "0.0-129.0-3.0"}}, {"uniqueid": "MTK0672:3FQ5JJ512MV9EQKNEXBKQRVRNB7NKF", "current_trial": 178, "dateTime": 1512590505162, "trialdata": {"rt": -1, "stimulus": "<p id=\"stim\">6</p>", "key_press": -1, "trial_type": "single-stim", "trial_index": 178, "time_elapsed": 1332504, "internal_node_id": "0.0-129.0-4.0"}}, {"uniqueid": "MTK0672:3FQ5JJ512MV9EQKNEXBKQRVRNB7NKF", "current_trial": 179, "dateTime": 1512590506164, "trialdata": {"rt": -1, "stimulus": "<p id=\"stim\">5</p>", "key_press": -1, "trial_type": "single-stim", "trial_index": 179, "time_elapsed": 1333506, "internal_node_id": "0.0-129.0-5.0"}}, {"uniqueid": "MTK0672:3FQ5JJ512MV9EQKNEXBKQRVRNB7NKF", "current_trial": 180, "dateTime": 1512590507164, "trialdata": {"rt": -1, "stimulus": "<p id=\"stim\">4</p>", "key_press": -1, "trial_type": "single-stim", "trial_index": 180, "time_elapsed": 1334506, "internal_node_id": "0.0-129.0-6.0"}}, {"uniqueid": "MTK0672:3FQ5JJ512MV9EQKNEXBKQRVRNB7NKF", "current_trial": 181, "dateTime": 1512590508165, "trialdata": {"rt": -1, "stimulus": "<p id=\"stim\">3</p>", "key_press": -1, "trial_type": "single-stim", "trial_index": 181, "time_elapsed": 1335506, "internal_node_id": "0.0-129.0-7.0"}}, {"uniqueid": "MTK0672:3FQ5JJ512MV9EQKNEXBKQRVRNB7NKF", "current_trial": 182, "dateTime": 1512590509166, "trialdata": {"rt": -1, "stimulus": "<p id=\"stim\">2</p>", "key_press": -1, "trial_type": "single-stim", "trial_index": 182, "time_elapsed": 1336507, "internal_node_id": "0.0-129.0-8.0"}}, {"uniqueid": "MTK0672:3FQ5JJ512MV9EQKNEXBKQRVRNB7NKF", "current_trial": 183, "dateTime": 1512590510166, "trialdata": {"rt": -1, "stimulus": "<p id=\"stim\">1</p>", "key_press": -1, "trial_type": "single-stim", "trial_index": 183, "time_elapsed": 1337508, "internal_node_id": "0.0-129.0-9.0"}}, {"uniqueid": "MTK0672:3FQ5JJ512MV9EQKNEXBKQRVRNB7NKF", "current_trial": 184, "dateTime": 1512590511667, "trialdata": {"rt": -1, "stimulus": "<p id=\"stim\">+</p>", "key_press": -1, "type": "FIXATION", "trial_type": "single-stim", "trial_index": 184, "time_elapsed": 1339009, "internal_node_id": "0.0-130.0-0.0"}}, {"uniqueid": "MTK0672:3FQ5JJ512MV9EQKNEXBKQRVRNB7NKF", "current_trial": 185, "dateTime": 1512590513268, "trialdata": {"rt": -1, "stimulus": "<p id=\"stim\">ROOSTER</p>", "key_press": -1, "type": "PRES_VIS", "word": "rooster", "wordID": 1208, "conditions": [24, 1600, "v", 24000], "trial": 5, "serialpos": 0, "trial_type": "single-stim", "trial_index": 185, "time_elapsed": 1340610, "internal_node_id": "0.0-131.0"}}, {"uniqueid": "MTK0672:3FQ5JJ512MV9EQKNEXBKQRVRNB7NKF", "current_trial": 186, "dateTime": 1512590515713, "trialdata": {"rt": -1, "stimulus": "<p id=\"stim\">RABBIT</p>", "key_press": -1, "type": "PRES_VIS", "word": "rabbit", "wordID": 1151, "conditions": [24, 1600, "v", 24000], "trial": 5, "serialpos": 1, "trial_type": "single-stim", "trial_index": 186, "time_elapsed": 1343055, "internal_node_id": "0.0-132.0"}}, {"uniqueid": "MTK0672:3FQ5JJ512MV9EQKNEXBKQRVRNB7NKF", "current_trial": 187, "dateTime": 1512590518433, "trialdata": {"rt": -1, "stimulus": "<p id=\"stim\">WIFE</p>", "key_press": -1, "type": "PRES_VIS", "word": "wife", "wordID": 1608, "conditions": [24, 1600, "v", 24000], "trial": 5, "serialpos": 2, "trial_type": "single-stim", "trial_index": 187, "time_elapsed": 1345775, "internal_node_id": "0.0-133.0"}}, {"uniqueid": "MTK0672:3FQ5JJ512MV9EQKNEXBKQRVRNB7NKF", "current_trial": 188, "dateTime": 1512590520945, "trialdata": {"rt": -1, "stimulus": "<p id=\"stim\">HORNET</p>", "key_press": -1, "type": "PRES_VIS", "word": "hornet", "wordID": 717, "conditions": [24, 1600, "v", 24000], "trial": 5, "serialpos": 3, "trial_type": "single-stim", "trial_index": 188, "time_elapsed": 1348287, "internal_node_id": "0.0-134.0"}}, {"uniqueid": "MTK0672:3FQ5JJ512MV9EQKNEXBKQRVRNB7NKF", "current_trial": 189, "dateTime": 1512590523497, "trialdata": {"rt": -1, "stimulus": "<p id=\"stim\">COMPASS</p>", "key_press": -1, "type": "PRES_VIS", "word": "compass", "wordID": 357, "conditions": [24, 1600, "v", 24000], "trial": 5, "serialpos": 4, "trial_type": "single-stim", "trial_index": 189, "time_elapsed": 1350839, "internal_node_id": "0.0-135.0"}}, {"uniqueid": "MTK0672:3FQ5JJ512MV9EQKNEXBKQRVRNB7NKF", "current_trial": 190, "dateTime": 1512590526186, "trialdata": {"rt": -1, "stimulus": "<p id=\"stim\">SCALLOP</p>", "key_press": -1, "type": "PRES_VIS", "word": "scallop", "wordID": 1241, "conditions": [24, 1600, "v", 24000], "trial": 5, "serialpos": 5, "trial_type": "single-stim", "trial_index": 190, "time_elapsed": 1353528, "internal_node_id": "0.0-136.0"}}, {"uniqueid": "MTK0672:3FQ5JJ512MV9EQKNEXBKQRVRNB7NKF", "current_trial": 191, "dateTime": 1512590528653, "trialdata": {"rt": -1, "stimulus": "<p id=\"stim\">PERCH</p>", "key_press": -1, "type": "PRES_VIS", "word": "perch", "wordID": 1047, "conditions": [24, 1600, "v", 24000], "trial": 5, "serialpos": 6, "trial_type": "single-stim", "trial_index": 191, "time_elapsed": 1355995, "internal_node_id": "0.0-137.0"}}, {"uniqueid": "MTK0672:3FQ5JJ512MV9EQKNEXBKQRVRNB7NKF", "current_trial": 192, "dateTime": 1512590531092, "trialdata": {"rt": -1, "stimulus": "<p id=\"stim\">GROUND</p>", "key_press": -1, "type": "PRES_VIS", "word": "ground", "wordID": 665, "conditions": [24, 1600, "v", 24000], "trial": 5, "serialpos": 7, "trial_type": "single-stim", "trial_index": 192, "time_elapsed": 1358433, "internal_node_id": "0.0-138.0"}}, {"uniqueid": "MTK0672:3FQ5JJ512MV9EQKNEXBKQRVRNB7NKF", "current_trial": 193, "dateTime": 1512590533497, "trialdata": {"rt": -1, "stimulus": "<p id=\"stim\">SHOVEL</p>", "key_press": -1, "type": "PRES_VIS", "word": "shovel", "wordID": 1294, "conditions": [24, 1600, "v", 24000], "trial": 5, "serialpos": 8, "trial_type": "single-stim", "trial_index": 193, "time_elapsed": 1360839, "internal_node_id": "0.0-139.0"}}, {"uniqueid": "MTK0672:3FQ5JJ512MV9EQKNEXBKQRVRNB7NKF", "current_trial": 194, "dateTime": 1512590536184, "trialdata": {"rt": -1, "stimulus": "<p id=\"stim\">COD</p>", "key_press": -1, "type": "PRES_VIS", "word": "cod", "wordID": 339, "conditions": [24, 1600, "v", 24000], "trial": 5, "serialpos": 9, "trial_type": "single-stim", "trial_index": 194, "time_elapsed": 1363526, "internal_node_id": "0.0-140.0"}}, {"uniqueid": "MTK0672:3FQ5JJ512MV9EQKNEXBKQRVRNB7NKF", "current_trial": 195, "dateTime": 1512590538890, "trialdata": {"rt": -1, "stimulus": "<p id=\"stim\">SCALPEL</p>", "key_press": -1, "type": "PRES_VIS", "word": "scalpel", "wordID": 1242, "conditions": [24, 1600, "v", 24000], "trial": 5, "serialpos": 10, "trial_type": "single-stim", "trial_index": 195, "time_elapsed": 1366232, "internal_node_id": "0.0-141.0"}}, {"uniqueid": "MTK0672:3FQ5JJ512MV9EQKNEXBKQRVRNB7NKF", "current_trial": 196, "dateTime": 1512590541302, "trialdata": {"rt": -1, "stimulus": "<p id=\"stim\">CASKET</p>", "key_press": -1, "type": "PRES_VIS", "word": "casket", "wordID": 254, "conditions": [24, 1600, "v", 24000], "trial": 5, "serialpos": 11, "trial_type": "single-stim", "trial_index": 196, "time_elapsed": 1368643, "internal_node_id": "0.0-142.0"}}, {"uniqueid": "MTK0672:3FQ5JJ512MV9EQKNEXBKQRVRNB7NKF", "current_trial": 197, "dateTime": 1512590544071, "trialdata": {"rt": -1, "stimulus": "<p id=\"stim\">CONCERT</p>", "key_press": -1, "type": "PRES_VIS", "word": "concert", "wordID": 359, "conditions": [24, 1600, "v", 24000], "trial": 5, "serialpos": 12, "trial_type": "single-stim", "trial_index": 197, "time_elapsed": 1371413, "internal_node_id": "0.0-143.0"}}, {"uniqueid": "MTK0672:3FQ5JJ512MV9EQKNEXBKQRVRNB7NKF", "current_trial": 198, "dateTime": 1512590546795, "trialdata": {"rt": -1, "stimulus": "<p id=\"stim\">BIKE</p>", "key_press": -1, "type": "PRES_VIS", "word": "bike", "wordID": 124, "conditions": [24, 1600, "v", 24000], "trial": 5, "serialpos": 13, "trial_type": "single-stim", "trial_index": 198, "time_elapsed": 1374137, "internal_node_id": "0.0-144.0"}}, {"uniqueid": "MTK0672:3FQ5JJ512MV9EQKNEXBKQRVRNB7NKF", "current_trial": 199, "dateTime": 1512590549468, "trialdata": {"rt": -1, "stimulus": "<p id=\"stim\">BUNNY</p>", "key_press": -1, "type": "PRES_VIS", "word": "bunny", "wordID": 197, "conditions": [24, 1600, "v", 24000], "trial": 5, "serialpos": 14, "trial_type": "single-stim", "trial_index": 199, "time_elapsed": 1376810, "internal_node_id": "0.0-145.0"}}, {"uniqueid": "MTK0672:3FQ5JJ512MV9EQKNEXBKQRVRNB7NKF", "current_trial": 200, "dateTime": 1512590551924, "trialdata": {"rt": -1, "stimulus": "<p id=\"stim\">BLUEPRINT</p>", "key_press": -1, "type": "PRES_VIS", "word": "blueprint", "wordID": 141, "conditions": [24, 1600, "v", 24000], "trial": 5, "serialpos": 15, "trial_type": "single-stim", "trial_index": 200, "time_elapsed": 1379266, "internal_node_id": "0.0-146.0"}}, {"uniqueid": "MTK0672:3FQ5JJ512MV9EQKNEXBKQRVRNB7NKF", "current_trial": 201, "dateTime": 1512590554519, "trialdata": {"rt": -1, "stimulus": "<p id=\"stim\">STUDENT</p>", "key_press": -1, "type": "PRES_VIS", "word": "student", "wordID": 1394, "conditions": [24, 1600, "v", 24000], "trial": 5, "serialpos": 16, "trial_type": "single-stim", "trial_index": 201, "time_elapsed": 1381861, "internal_node_id": "0.0-147.0"}}, {"uniqueid": "MTK0672:3FQ5JJ512MV9EQKNEXBKQRVRNB7NKF", "current_trial": 202, "dateTime": 1512590557096, "trialdata": {"rt": -1, "stimulus": "<p id=\"stim\">GAZELLE</p>", "key_press": -1, "type": "PRES_VIS", "word": "gazelle", "wordID": 627, "conditions": [24, 1600, "v", 24000], "trial": 5, "serialpos": 17, "trial_type": "single-stim", "trial_index": 202, "time_elapsed": 1384437, "internal_node_id": "0.0-148.0"}}, {"uniqueid": "MTK0672:3FQ5JJ512MV9EQKNEXBKQRVRNB7NKF", "current_trial": 203, "dateTime": 1512590559665, "trialdata": {"rt": -1, "stimulus": "<p id=\"stim\">TROUT</p>", "key_press": -1, "type": "PRES_VIS", "word": "trout", "wordID": 1510, "conditions": [24, 1600, "v", 24000], "trial": 5, "serialpos": 18, "trial_type": "single-stim", "trial_index": 203, "time_elapsed": 1387007, "internal_node_id": "0.0-149.0"}}, {"uniqueid": "MTK0672:3FQ5JJ512MV9EQKNEXBKQRVRNB7NKF", "current_trial": 204, "dateTime": 1512590562361, "trialdata": {"rt": -1, "stimulus": "<p id=\"stim\">LAMP</p>", "key_press": -1, "type": "PRES_VIS", "word": "lamp", "wordID": 797, "conditions": [24, 1600, "v", 24000], "trial": 5, "serialpos": 19, "trial_type": "single-stim", "trial_index": 204, "time_elapsed": 1389703, "internal_node_id": "0.0-150.0"}}, {"uniqueid": "MTK0672:3FQ5JJ512MV9EQKNEXBKQRVRNB7NKF", "current_trial": 205, "dateTime": 1512590564776, "trialdata": {"rt": -1, "stimulus": "<p id=\"stim\">KIDNEY</p>", "key_press": -1, "type": "PRES_VIS", "word": "kidney", "wordID": 775, "conditions": [24, 1600, "v", 24000], "trial": 5, "serialpos": 20, "trial_type": "single-stim", "trial_index": 205, "time_elapsed": 1392118, "internal_node_id": "0.0-151.0"}}, {"uniqueid": "MTK0672:3FQ5JJ512MV9EQKNEXBKQRVRNB7NKF", "current_trial": 206, "dateTime": 1512590567354, "trialdata": {"rt": -1, "stimulus": "<p id=\"stim\">LIVER</p>", "key_press": -1, "type": "PRES_VIS", "word": "liver", "wordID": 832, "conditions": [24, 1600, "v", 24000], "trial": 5, "serialpos": 21, "trial_type": "single-stim", "trial_index": 206, "time_elapsed": 1394696, "internal_node_id": "0.0-152.0"}}, {"uniqueid": "MTK0672:3FQ5JJ512MV9EQKNEXBKQRVRNB7NKF", "current_trial": 207, "dateTime": 1512590570002, "trialdata": {"rt": -1, "stimulus": "<p id=\"stim\">TEACHER</p>", "key_press": -1, "type": "PRES_VIS", "word": "teacher", "wordID": 1439, "conditions": [24, 1600, "v", 24000], "trial": 5, "serialpos": 22, "trial_type": "single-stim", "trial_index": 207, "time_elapsed": 1397344, "internal_node_id": "0.0-153.0"}}, {"uniqueid": "MTK0672:3FQ5JJ512MV9EQKNEXBKQRVRNB7NKF", "current_trial": 208, "dateTime": 1512590572755, "trialdata": {"rt": -1, "stimulus": "<p id=\"stim\">CUSTARD</p>", "key_press": -1, "type": "PRES_VIS", "word": "custard", "wordID": 428, "conditions": [24, 1600, "v", 24000], "trial": 5, "serialpos": 23, "trial_type": "single-stim", "trial_index": 208, "time_elapsed": 1400096, "internal_node_id": "0.0-154.0"}}, {"uniqueid": "MTK0672:3FQ5JJ512MV9EQKNEXBKQRVRNB7NKF", "current_trial": 209, "dateTime": 1512590574946, "trialdata": {"rt": -1, "stimulus": "", "key_press": -1, "type": "PRE_RECALL_DELAY", "trial_type": "single-stim", "trial_index": 209, "time_elapsed": 1402288, "internal_node_id": "0.0-155.0-0.0"}}, {"uniqueid": "MTK0672:3FQ5JJ512MV9EQKNEXBKQRVRNB7NKF", "current_trial": 210, "dateTime": 1512590575446, "trialdata": {"rt": -1000, "stimulus": "/static/audio/400Hz.wav", "key_press": -1, "type": "PRE_RECALL_ALERT", "trial_type": "single-audio", "trial_index": 210, "time_elapsed": 1402788, "internal_node_id": "0.0-156.0"}}, {"uniqueid": "MTK0672:3FQ5JJ512MV9EQKNEXBKQRVRNB7NKF", "current_trial": 211, "dateTime": 1512590635449, "trialdata": {"rt": [2600, 4999, 6458, 7603, 10525], "recwords": ["rabbit", "wife", "trout", "custard", "scalpel"], "type": "FREE_RECALL", "conditions": [24, 1600, "v", 24000], "trial": 5, "trial_type": "free-recall", "trial_index": 211, "time_elapsed": 1462790, "internal_node_id": "0.0-157.0-0.0"}}, {"uniqueid": "MTK0672:3FQ5JJ512MV9EQKNEXBKQRVRNB7NKF", "current_trial": 212, "dateTime": 1512590650492, "trialdata": {"rt": 13042, "key_press": 32, "type": "INSTRUCTIONS", "trial_type": "text", "trial_index": 212, "time_elapsed": 1477834, "internal_node_id": "0.0-158.0"}}, {"uniqueid": "MTK0672:3FQ5JJ512MV9EQKNEXBKQRVRNB7NKF", "current_trial": 213, "dateTime": 1512590676495, "trialdata": {"rt": [3061, 5101, 6947, 9913, 11717, 13308, 15375, 17223, 18925, 20572, 23022], "responses": ["16", "14", "1", "21", "20", "13", "14", "24", "10", "13", "8"], "num1": [5, 6, 3, 9, 9, 3, 8, 8, 2, 6, 3, 9], "num2": [7, 7, 5, 8, 3, 2, 3, 9, 7, 2, 2, 8], "num3": [4, 1, 8, 4, 8, 8, 3, 7, 1, 5, 3, 9], "type": "DISTRACTOR", "conditions": [12, 1600, "v", 24000], "trial": 6, "trial_type": "math-distractor", "trial_index": 213, "time_elapsed": 1503837, "internal_node_id": "0.0-159.0"}}, {"uniqueid": "MTK0672:3FQ5JJ512MV9EQKNEXBKQRVRNB7NKF", "current_trial": 214, "dateTime": 1512590679496, "trialdata": {"rt": -1, "stimulus": "<p id=\"stim\">10</p>", "key_press": -1, "trial_type": "single-stim", "trial_index": 214, "time_elapsed": 1506838, "internal_node_id": "0.0-160.0-0.0"}}, {"uniqueid": "MTK0672:3FQ5JJ512MV9EQKNEXBKQRVRNB7NKF", "current_trial": 215, "dateTime": 1512590680496, "trialdata": {"rt": -1, "stimulus": "<p id=\"stim\">9</p>", "key_press": -1, "trial_type": "single-stim", "trial_index": 215, "time_elapsed": 1507838, "internal_node_id": "0.0-160.0-1.0"}}, {"uniqueid": "MTK0672:3FQ5JJ512MV9EQKNEXBKQRVRNB7NKF", "current_trial": 216, "dateTime": 1512590681497, "trialdata": {"rt": -1, "stimulus": "<p id=\"stim\">8</p>", "key_press": -1, "trial_type": "single-stim", "trial_index": 216, "time_elapsed": 1508839, "internal_node_id": "0.0-160.0-2.0"}}, {"uniqueid": "MTK0672:3FQ5JJ512MV9EQKNEXBKQRVRNB7NKF", "current_trial": 217, "dateTime": 1512590682498, "trialdata": {"rt": -1, "stimulus": "<p id=\"stim\">7</p>", "key_press": -1, "trial_type": "single-stim", "trial_index": 217, "time_elapsed": 1509840, "internal_node_id": "0.0-160.0-3.0"}}, {"uniqueid": "MTK0672:3FQ5JJ512MV9EQKNEXBKQRVRNB7NKF", "current_trial": 218, "dateTime": 1512590683499, "trialdata": {"rt": -1, "stimulus": "<p id=\"stim\">6</p>", "key_press": -1, "trial_type": "single-stim", "trial_index": 218, "time_elapsed": 1510841, "internal_node_id": "0.0-160.0-4.0"}}, {"uniqueid": "MTK0672:3FQ5JJ512MV9EQKNEXBKQRVRNB7NKF", "current_trial": 219, "dateTime": 1512590684500, "trialdata": {"rt": -1, "stimulus": "<p id=\"stim\">5</p>", "key_press": -1, "trial_type": "single-stim", "trial_index": 219, "time_elapsed": 1511842, "internal_node_id": "0.0-160.0-5.0"}}, {"uniqueid": "MTK0672:3FQ5JJ512MV9EQKNEXBKQRVRNB7NKF", "current_trial": 220, "dateTime": 1512590685500, "trialdata": {"rt": -1, "stimulus": "<p id=\"stim\">4</p>", "key_press": -1, "trial_type": "single-stim", "trial_index": 220, "time_elapsed": 1512842, "internal_node_id": "0.0-160.0-6.0"}}, {"uniqueid": "MTK0672:3FQ5JJ512MV9EQKNEXBKQRVRNB7NKF", "current_trial": 221, "dateTime": 1512590686501, "trialdata": {"rt": -1, "stimulus": "<p id=\"stim\">3</p>", "key_press": -1, "trial_type": "single-stim", "trial_index": 221, "time_elapsed": 1513842, "internal_node_id": "0.0-160.0-7.0"}}, {"uniqueid": "MTK0672:3FQ5JJ512MV9EQKNEXBKQRVRNB7NKF", "current_trial": 222, "dateTime": 1512590687502, "trialdata": {"rt": -1, "stimulus": "<p id=\"stim\">2</p>", "key_press": -1, "trial_type": "single-stim", "trial_index": 222, "time_elapsed": 1514844, "internal_node_id": "0.0-160.0-8.0"}}, {"uniqueid": "MTK0672:3FQ5JJ512MV9EQKNEXBKQRVRNB7NKF", "current_trial": 223, "dateTime": 1512590688503, "trialdata": {"rt": -1, "stimulus": "<p id=\"stim\">1</p>", "key_press": -1, "trial_type": "single-stim", "trial_index": 223, "time_elapsed": 1515845, "internal_node_id": "0.0-160.0-9.0"}}, {"uniqueid": "MTK0672:3FQ5JJ512MV9EQKNEXBKQRVRNB7NKF", "current_trial": 224, "dateTime": 1512590690003, "trialdata": {"rt": -1, "stimulus": "<p id=\"stim\">+</p>", "key_press": -1, "type": "FIXATION", "trial_type": "single-stim", "trial_index": 224, "time_elapsed": 1517345, "internal_node_id": "0.0-161.0-0.0"}}, {"uniqueid": "MTK0672:3FQ5JJ512MV9EQKNEXBKQRVRNB7NKF", "current_trial": 225, "dateTime": 1512590691604, "trialdata": {"rt": -1, "stimulus": "<p id=\"stim\">CHILD</p>", "key_press": -1, "type": "PRES_VIS", "word": "child", "wordID": 298, "conditions": [12, 1600, "v", 24000], "trial": 6, "serialpos": 0, "trial_type": "single-stim", "trial_index": 225, "time_elapsed": 1518946, "internal_node_id": "0.0-162.0"}}, {"uniqueid": "MTK0672:3FQ5JJ512MV9EQKNEXBKQRVRNB7NKF", "current_trial": 226, "dateTime": 1512590694388, "trialdata": {"rt": -1, "stimulus": "<p id=\"stim\">NOMAD</p>", "key_press": -1, "type": "PRES_VIS", "word": "nomad", "wordID": 954, "conditions": [12, 1600, "v", 24000], "trial": 6, "serialpos": 1, "trial_type": "single-stim", "trial_index": 226, "time_elapsed": 1521730, "internal_node_id": "0.0-163.0"}}, {"uniqueid": "MTK0672:3FQ5JJ512MV9EQKNEXBKQRVRNB7NKF", "current_trial": 227, "dateTime": 1512590697059, "trialdata": {"rt": -1, "stimulus": "<p id=\"stim\">TRACTOR</p>", "key_press": -1, "type": "PRES_VIS", "word": "tractor", "wordID": 1492, "conditions": [12, 1600, "v", 24000], "trial": 6, "serialpos": 2, "trial_type": "single-stim", "trial_index": 227, "time_elapsed": 1524401, "internal_node_id": "0.0-164.0"}}, {"uniqueid": "MTK0672:3FQ5JJ512MV9EQKNEXBKQRVRNB7NKF", "current_trial": 228, "dateTime": 1512590699576, "trialdata": {"rt": -1, "stimulus": "<p id=\"stim\">PARSLEY</p>", "key_press": -1, "type": "PRES_VIS", "word": "parsley", "wordID": 1015, "conditions": [12, 1600, "v", 24000], "trial": 6, "serialpos": 3, "trial_type": "single-stim", "trial_index": 228, "time_elapsed": 1526918, "internal_node_id": "0.0-165.0"}}, {"uniqueid": "MTK0672:3FQ5JJ512MV9EQKNEXBKQRVRNB7NKF", "current_trial": 229, "dateTime": 1512590702065, "trialdata": {"rt": -1, "stimulus": "<p id=\"stim\">PORTRAIT</p>", "key_press": -1, "type": "PRES_VIS", "word": "portrait", "wordID": 1110, "conditions": [12, 1600, "v", 24000], "trial": 6, "serialpos": 4, "trial_type": "single-stim", "trial_index": 229, "time_elapsed": 1529407, "internal_node_id": "0.0-166.0"}}, {"uniqueid": "MTK0672:3FQ5JJ512MV9EQKNEXBKQRVRNB7NKF", "current_trial": 230, "dateTime": 1512590704858, "trialdata": {"rt": -1, "stimulus": "<p id=\"stim\">STATUE</p>", "key_press": -1, "type": "PRES_VIS", "word": "statue", "wordID": 1373, "conditions": [12, 1600, "v", 24000], "trial": 6, "serialpos": 5, "trial_type": "single-stim", "trial_index": 230, "time_elapsed": 1532200, "internal_node_id": "0.0-167.0"}}, {"uniqueid": "MTK0672:3FQ5JJ512MV9EQKNEXBKQRVRNB7NKF", "current_trial": 231, "dateTime": 1512590707387, "trialdata": {"rt": -1, "stimulus": "<p id=\"stim\">TOMBSTONE</p>", "key_press": -1, "type": "PRES_VIS", "word": "tombstone", "wordID": 1477, "conditions": [12, 1600, "v", 24000], "trial": 6, "serialpos": 6, "trial_type": "single-stim", "trial_index": 231, "time_elapsed": 1534729, "internal_node_id": "0.0-168.0"}}, {"uniqueid": "MTK0672:3FQ5JJ512MV9EQKNEXBKQRVRNB7NKF", "current_trial": 232, "dateTime": 1512590710088, "trialdata": {"rt": -1, "stimulus": "<p id=\"stim\">CABBAGE</p>", "key_press": -1, "type": "PRES_VIS", "word": "cabbage", "wordID": 209, "conditions": [12, 1600, "v", 24000], "trial": 6, "serialpos": 7, "trial_type": "single-stim", "trial_index": 232, "time_elapsed": 1537430, "internal_node_id": "0.0-169.0"}}, {"uniqueid": "MTK0672:3FQ5JJ512MV9EQKNEXBKQRVRNB7NKF", "current_trial": 233, "dateTime": 1512590712625, "trialdata": {"rt": -1, "stimulus": "<p id=\"stim\">FARMER</p>", "key_press": -1, "type": "PRES_VIS", "word": "farmer", "wordID": 552, "conditions": [12, 1600, "v", 24000], "trial": 6, "serialpos": 8, "trial_type": "single-stim", "trial_index": 233, "time_elapsed": 1539967, "internal_node_id": "0.0-170.0"}}, {"uniqueid": "MTK0672:3FQ5JJ512MV9EQKNEXBKQRVRNB7NKF", "current_trial": 234, "dateTime": 1512590715183, "trialdata": {"rt": -1, "stimulus": "<p id=\"stim\">TOURIST</p>", "key_press": -1, "type": "PRES_VIS", "word": "tourist", "wordID": 1487, "conditions": [12, 1600, "v", 24000], "trial": 6, "serialpos": 9, "trial_type": "single-stim", "trial_index": 234, "time_elapsed": 1542524, "internal_node_id": "0.0-171.0"}}, {"uniqueid": "MTK0672:3FQ5JJ512MV9EQKNEXBKQRVRNB7NKF", "current_trial": 235, "dateTime": 1512590717967, "trialdata": {"rt": -1, "stimulus": "<p id=\"stim\">GUITAR</p>", "key_press": -1, "type": "PRES_VIS", "word": "guitar", "wordID": 669, "conditions": [12, 1600, "v", 24000], "trial": 6, "serialpos": 10, "trial_type": "single-stim", "trial_index": 235, "time_elapsed": 1545309, "internal_node_id": "0.0-172.0"}}, {"uniqueid": "MTK0672:3FQ5JJ512MV9EQKNEXBKQRVRNB7NKF", "current_trial": 236, "dateTime": 1512590720576, "trialdata": {"rt": -1, "stimulus": "<p id=\"stim\">SHRUB</p>", "key_press": -1, "type": "PRES_VIS", "word": "shrub", "wordID": 1298, "conditions": [12, 1600, "v", 24000], "trial": 6, "serialpos": 11, "trial_type": "single-stim", "trial_index": 236, "time_elapsed": 1547918, "internal_node_id": "0.0-173.0"}}, {"uniqueid": "MTK0672:3FQ5JJ512MV9EQKNEXBKQRVRNB7NKF", "current_trial": 237, "dateTime": 1512590723043, "trialdata": {"rt": -1, "stimulus": "", "key_press": -1, "type": "PRE_RECALL_DELAY", "trial_type": "single-stim", "trial_index": 237, "time_elapsed": 1550385, "internal_node_id": "0.0-174.0-0.0"}}, {"uniqueid": "MTK0672:3FQ5JJ512MV9EQKNEXBKQRVRNB7NKF", "current_trial": 238, "dateTime": 1512590723543, "trialdata": {"rt": -1000, "stimulus": "/static/audio/400Hz.wav", "key_press": -1, "type": "PRE_RECALL_ALERT", "trial_type": "single-audio", "trial_index": 238, "time_elapsed": 1550885, "internal_node_id": "0.0-175.0"}}, {"uniqueid": "MTK0672:3FQ5JJ512MV9EQKNEXBKQRVRNB7NKF", "current_trial": 239, "dateTime": 1512590783548, "trialdata": {"rt": [1722, 2695, 3564, 4892, 7581, 8690, 12469, 17574], "recwords": ["child", "nomad", "rooster", "toaster", "farmer", "shrub", "cabbage", "guitar"], "type": "FREE_RECALL", "conditions": [12, 1600, "v", 24000], "trial": 6, "trial_type": "free-recall", "trial_index": 239, "time_elapsed": 1610887, "internal_node_id": "0.0-176.0-0.0"}}, {"uniqueid": "MTK0672:3FQ5JJ512MV9EQKNEXBKQRVRNB7NKF", "current_trial": 240, "dateTime": 1512590810935, "trialdata": {"rt": 25386, "key_press": 13, "type": "INSTRUCTIONS", "trial_type": "text", "trial_index": 240, "time_elapsed": 1638277, "internal_node_id": "0.0-177.0"}}, {"uniqueid": "MTK0672:3FQ5JJ512MV9EQKNEXBKQRVRNB7NKF", "current_trial": 241, "dateTime": 1512590836937, "trialdata": {"rt": [3425, 5617, 9577, 11188, 12960, 15234, 17507, 18886, 20261, 23073], "responses": ["18", "11", "15", "20", "16", "7", "11", "13", "9", "14"], "num1": [8, 4, 2, 9, 5, 4, 6, 8, 6, 8, 2], "num2": [2, 2, 4, 7, 7, 1, 3, 2, 1, 3, 9], "num3": [9, 5, 9, 4, 4, 3, 2, 3, 2, 1, 1], "type": "DISTRACTOR", "conditions": [12, 1600, "a", 24000], "trial": 7, "trial_type": "math-distractor", "trial_index": 241, "time_elapsed": 1664279, "internal_node_id": "0.0-178.0"}}, {"uniqueid": "MTK0672:3FQ5JJ512MV9EQKNEXBKQRVRNB7NKF", "current_trial": 242, "dateTime": 1512590839937, "trialdata": {"rt": -1, "stimulus": "<p id=\"stim\">10</p>", "key_press": -1, "trial_type": "single-stim", "trial_index": 242, "time_elapsed": 1667279, "internal_node_id": "0.0-179.0-0.0"}}, {"uniqueid": "MTK0672:3FQ5JJ512MV9EQKNEXBKQRVRNB7NKF", "current_trial": 243, "dateTime": 1512590840938, "trialdata": {"rt": -1, "stimulus": "<p id=\"stim\">9</p>", "key_press": -1, "trial_type": "single-stim", "trial_index": 243, "time_elapsed": 1668280, "internal_node_id": "0.0-179.0-1.0"}}, {"uniqueid": "MTK0672:3FQ5JJ512MV9EQKNEXBKQRVRNB7NKF", "current_trial": 244, "dateTime": 1512590841939, "trialdata": {"rt": -1, "stimulus": "<p id=\"stim\">8</p>", "key_press": -1, "trial_type": "single-stim", "trial_index": 244, "time_elapsed": 1669281, "internal_node_id": "0.0-179.0-2.0"}}, {"uniqueid": "MTK0672:3FQ5JJ512MV9EQKNEXBKQRVRNB7NKF", "current_trial": 245, "dateTime": 1512590842940, "trialdata": {"rt": -1, "stimulus": "<p id=\"stim\">7</p>", "key_press": -1, "trial_type": "single-stim", "trial_index": 245, "time_elapsed": 1670282, "internal_node_id": "0.0-179.0-3.0"}}, {"uniqueid": "MTK0672:3FQ5JJ512MV9EQKNEXBKQRVRNB7NKF", "current_trial": 246, "dateTime": 1512590843940, "trialdata": {"rt": -1, "stimulus": "<p id=\"stim\">6</p>", "key_press": -1, "trial_type": "single-stim", "trial_index": 246, "time_elapsed": 1671282, "internal_node_id": "0.0-179.0-4.0"}}, {"uniqueid": "MTK0672:3FQ5JJ512MV9EQKNEXBKQRVRNB7NKF", "current_trial": 247, "dateTime": 1512590844941, "trialdata": {"rt": -1, "stimulus": "<p id=\"stim\">5</p>", "key_press": -1, "trial_type": "single-stim", "trial_index": 247, "time_elapsed": 1672283, "internal_node_id": "0.0-179.0-5.0"}}, {"uniqueid": "MTK0672:3FQ5JJ512MV9EQKNEXBKQRVRNB7NKF", "current_trial": 248, "dateTime": 1512590845941, "trialdata": {"rt": -1, "stimulus": "<p id=\"stim\">4</p>", "key_press": -1, "trial_type": "single-stim", "trial_index": 248, "time_elapsed": 1673283, "internal_node_id": "0.0-179.0-6.0"}}, {"uniqueid": "MTK0672:3FQ5JJ512MV9EQKNEXBKQRVRNB7NKF", "current_trial": 249, "dateTime": 1512590846942, "trialdata": {"rt": -1, "stimulus": "<p id=\"stim\">3</p>", "key_press": -1, "trial_type": "single-stim", "trial_index": 249, "time_elapsed": 1674284, "internal_node_id": "0.0-179.0-7.0"}}, {"uniqueid": "MTK0672:3FQ5JJ512MV9EQKNEXBKQRVRNB7NKF", "current_trial": 250, "dateTime": 1512590847943, "trialdata": {"rt": -1, "stimulus": "<p id=\"stim\">2</p>", "key_press": -1, "trial_type": "single-stim", "trial_index": 250, "time_elapsed": 1675285, "internal_node_id": "0.0-179.0-8.0"}}, {"uniqueid": "MTK0672:3FQ5JJ512MV9EQKNEXBKQRVRNB7NKF", "current_trial": 251, "dateTime": 1512590848944, "trialdata": {"rt": -1, "stimulus": "<p id=\"stim\">1</p>", "key_press": -1, "trial_type": "single-stim", "trial_index": 251, "time_elapsed": 1676286, "internal_node_id": "0.0-179.0-9.0"}}, {"uniqueid": "MTK0672:3FQ5JJ512MV9EQKNEXBKQRVRNB7NKF", "current_trial": 252, "dateTime": 1512590850445, "trialdata": {"rt": -1, "stimulus": "<p id=\"stim\">+</p>", "key_press": -1, "type": "FIXATION", "trial_type": "single-stim", "trial_index": 252, "time_elapsed": 1677787, "internal_node_id": "0.0-180.0-0.0"}}, {"uniqueid": "MTK0672:3FQ5JJ512MV9EQKNEXBKQRVRNB7NKF", "current_trial": 253, "dateTime": 1512590852865, "trialdata": {"rt": -1000, "stimulus": "/static/audio/wordpool/SUSPECT.wav", "key_press": -1, "type": "PRES_AUD", "word": "suspect", "wordID": 1414, "conditions": [12, 1600, "a", 24000], "trial": 7, "serialpos": 0, "trial_type": "single-audio", "trial_index": 253, "time_elapsed": 1680207, "internal_node_id": "0.0-181.0"}}, {"uniqueid": "MTK0672:3FQ5JJ512MV9EQKNEXBKQRVRNB7NKF", "current_trial": 254, "dateTime": 1512590855641, "trialdata": {"rt": -1000, "stimulus": "/static/audio/wordpool/STALLION.wav", "key_press": -1, "type": "PRES_AUD", "word": "stallion", "wordID": 1368, "conditions": [12, 1600, "a", 24000], "trial": 7, "serialpos": 1, "trial_type": "single-audio", "trial_index": 254, "time_elapsed": 1682983, "internal_node_id": "0.0-182.0"}}, {"uniqueid": "MTK0672:3FQ5JJ512MV9EQKNEXBKQRVRNB7NKF", "current_trial": 255, "dateTime": 1512590858324, "trialdata": {"rt": 1259.999999999991, "stimulus": "/static/audio/wordpool/SIDEWALK.wav", "key_press": 91, "type": "PRES_AUD", "word": "sidewalk", "wordID": 1302, "conditions": [12, 1600, "a", 24000], "trial": 7, "serialpos": 2, "trial_type": "single-audio", "trial_index": 255, "time_elapsed": 1685666, "internal_node_id": "0.0-183.0"}}, {"uniqueid": "MTK0672:3FQ5JJ512MV9EQKNEXBKQRVRNB7NKF", "current_trial": 256, "dateTime": 1512590861028, "trialdata": {"rt": -1000, "stimulus": "/static/audio/wordpool/SANDWICH.wav", "key_press": -1, "type": "PRES_AUD", "word": "sandwich", "wordID": 1231, "conditions": [12, 1600, "a", 24000], "trial": 7, "serialpos": 3, "trial_type": "single-audio", "trial_index": 256, "time_elapsed": 1688370, "internal_node_id": "0.0-184.0"}}, {"uniqueid": "MTK0672:3FQ5JJ512MV9EQKNEXBKQRVRNB7NKF", "current_trial": 257, "dateTime": 1512590863628, "trialdata": {"rt": -1000, "stimulus": "/static/audio/wordpool/KETCHUP.wav", "key_press": -1, "type": "PRES_AUD", "word": "ketchup", "wordID": 770, "conditions": [12, 1600, "a", 24000], "trial": 7, "serialpos": 4, "trial_type": "single-audio", "trial_index": 257, "time_elapsed": 1690970, "internal_node_id": "0.0-185.0"}}, {"uniqueid": "MTK0672:3FQ5JJ512MV9EQKNEXBKQRVRNB7NKF", "current_trial": 258, "dateTime": 1512590866067, "trialdata": {"rt": -1000, "stimulus": "/static/audio/wordpool/DIME.wav", "key_press": -1, "type": "PRES_AUD", "word": "dime", "wordID": 465, "conditions": [12, 1600, "a", 24000], "trial": 7, "serialpos": 5, "trial_type": "single-audio", "trial_index": 258, "time_elapsed": 1693409, "internal_node_id": "0.0-186.0"}}, {"uniqueid": "MTK0672:3FQ5JJ512MV9EQKNEXBKQRVRNB7NKF", "current_trial": 259, "dateTime": 1512590868621, "trialdata": {"rt": -1000, "stimulus": "/static/audio/wordpool/DRAGON.wav", "key_press": -1, "type": "PRES_AUD", "word": "dragon", "wordID": 491, "conditions": [12, 1600, "a", 24000], "trial": 7, "serialpos": 6, "trial_type": "single-audio", "trial_index": 259, "time_elapsed": 1695963, "internal_node_id": "0.0-187.0"}}, {"uniqueid": "MTK0672:3FQ5JJ512MV9EQKNEXBKQRVRNB7NKF", "current_trial": 260, "dateTime": 1512590871375, "trialdata": {"rt": -1000, "stimulus": "/static/audio/wordpool/GOBLIN.wav", "key_press": -1, "type": "PRES_AUD", "word": "goblin", "wordID": 644, "conditions": [12, 1600, "a", 24000], "trial": 7, "serialpos": 7, "trial_type": "single-audio", "trial_index": 260, "time_elapsed": 1698716, "internal_node_id": "0.0-188.0"}}, {"uniqueid": "MTK0672:3FQ5JJ512MV9EQKNEXBKQRVRNB7NKF", "current_trial": 261, "dateTime": 1512590874019, "trialdata": {"rt": -1000, "stimulus": "/static/audio/wordpool/SPOUSE.wav", "key_press": -1, "type": "PRES_AUD", "word": "spouse", "wordID": 1357, "conditions": [12, 1600, "a", 24000], "trial": 7, "serialpos": 8, "trial_type": "single-audio", "trial_index": 261, "time_elapsed": 1701361, "internal_node_id": "0.0-189.0"}}, {"uniqueid": "MTK0672:3FQ5JJ512MV9EQKNEXBKQRVRNB7NKF", "current_trial": 262, "dateTime": 1512590876421, "trialdata": {"rt": -1000, "stimulus": "/static/audio/wordpool/SALAD.wav", "key_press": -1, "type": "PRES_AUD", "word": "salad", "wordID": 1223, "conditions": [12, 1600, "a", 24000], "trial": 7, "serialpos": 9, "trial_type": "single-audio", "trial_index": 262, "time_elapsed": 1703763, "internal_node_id": "0.0-190.0"}}, {"uniqueid": "MTK0672:3FQ5JJ512MV9EQKNEXBKQRVRNB7NKF", "current_trial": 263, "dateTime": 1512590879168, "trialdata": {"rt": -1000, "stimulus": "/static/audio/wordpool/WITNESS.wav", "key_press": -1, "type": "PRES_AUD", "word": "witness", "wordID": 1617, "conditions": [12, 1600, "a", 24000], "trial": 7, "serialpos": 10, "trial_type": "single-audio", "trial_index": 263, "time_elapsed": 1706509, "internal_node_id": "0.0-191.0"}}, {"uniqueid": "MTK0672:3FQ5JJ512MV9EQKNEXBKQRVRNB7NKF", "current_trial": 264, "dateTime": 1512590881802, "trialdata": {"rt": -1000, "stimulus": "/static/audio/wordpool/CHAPEL.wav", "key_press": -1, "type": "PRES_AUD", "word": "chapel", "wordID": 279, "conditions": [12, 1600, "a", 24000], "trial": 7, "serialpos": 11, "trial_type": "single-audio", "trial_index": 264, "time_elapsed": 1709144, "internal_node_id": "0.0-192.0"}}, {"uniqueid": "MTK0672:3FQ5JJ512MV9EQKNEXBKQRVRNB7NKF", "current_trial": 265, "dateTime": 1512590883014, "trialdata": {"rt": -1, "stimulus": "", "key_press": -1, "type": "PRE_RECALL_DELAY", "trial_type": "single-stim", "trial_index": 265, "time_elapsed": 1710356, "internal_node_id": "0.0-193.0-0.0"}}, {"uniqueid": "MTK0672:3FQ5JJ512MV9EQKNEXBKQRVRNB7NKF", "current_trial": 266, "dateTime": 1512590883515, "trialdata": {"rt": -1000, "stimulus": "/static/audio/400Hz.wav", "key_press": -1, "type": "PRE_RECALL_ALERT", "trial_type": "single-audio", "trial_index": 266, "time_elapsed": 1710857, "internal_node_id": "0.0-194.0"}}, {"uniqueid": "MTK0672:3FQ5JJ512MV9EQKNEXBKQRVRNB7NKF", "current_trial": 267, "dateTime": 1512590943517, "trialdata": {"rt": [6203, 7397, 8144, 10503], "recwords": ["witness", "spouse", "chapel", "dragon"], "type": "FREE_RECALL", "conditions": [12, 1600, "a", 24000], "trial": 7, "trial_type": "free-recall", "trial_index": 267, "time_elapsed": 1770857, "internal_node_id": "0.0-195.0-0.0"}}, {"uniqueid": "MTK0672:3FQ5JJ512MV9EQKNEXBKQRVRNB7NKF", "current_trial": 268, "dateTime": 1512590951143, "trialdata": {"rt": 5625, "key_press": 13, "type": "INSTRUCTIONS", "trial_type": "text", "trial_index": 268, "time_elapsed": 1778485, "internal_node_id": "0.0-196.0"}}, {"uniqueid": "MTK0672:3FQ5JJ512MV9EQKNEXBKQRVRNB7NKF", "current_trial": 269, "dateTime": 1512590965145, "trialdata": {"rt": [1987, 3768, 6135, 7832, 9046, 10719], "responses": ["15", "15", "11", "7", "10", "13"], "num1": [1, 9, 5, 4, 1, 2, 4], "num2": [8, 4, 4, 2, 4, 3, 2], "num3": [6, 2, 2, 1, 5, 8, 9], "type": "DISTRACTOR", "conditions": [24, 1600, "a", 12000], "trial": 8, "trial_type": "math-distractor", "trial_index": 269, "time_elapsed": 1792487, "internal_node_id": "0.0-197.0"}}, {"uniqueid": "MTK0672:3FQ5JJ512MV9EQKNEXBKQRVRNB7NKF", "current_trial": 270, "dateTime": 1512590968145, "trialdata": {"rt": -1, "stimulus": "<p id=\"stim\">10</p>", "key_press": -1, "trial_type": "single-stim", "trial_index": 270, "time_elapsed": 1795487, "internal_node_id": "0.0-198.0-0.0"}}, {"uniqueid": "MTK0672:3FQ5JJ512MV9EQKNEXBKQRVRNB7NKF", "current_trial": 271, "dateTime": 1512590969146, "trialdata": {"rt": -1, "stimulus": "<p id=\"stim\">9</p>", "key_press": -1, "trial_type": "single-stim", "trial_index": 271, "time_elapsed": 1796488, "internal_node_id": "0.0-198.0-1.0"}}, {"uniqueid": "MTK0672: