{"condition": 0, "counterbalance": 69, "assignmentId": "3KB8R4ZV1FE2BVZ7LGLW1434WNLBGH", "workerId": "MTK0142", "hitId": "3FSEU3P2NR7ET8RG7MWWB3QV3XIRRV", "currenttrial": 625, "bonus": 0, "data": [{"uniqueid": "MTK0142:3KB8R4ZV1FE2BVZ7LGLW1434WNLBGH", "current_trial": 0, "dateTime": 1509292658716, "trialdata": {"rt": 240527, "key_press": 32, "type": "INSTRUCTIONS", "trial_type": "text", "trial_index": 0, "time_elapsed": 240531, "internal_node_id": "0.0-0.0"}}, {"uniqueid": "MTK0142:3KB8R4ZV1FE2BVZ7LGLW1434WNLBGH", "current_trial": 1, "dateTime": 1509292672145, "trialdata": {"rt": 13426, "key_press": 32, "type": "INSTRUCTIONS", "trial_type": "text", "trial_index": 1, "time_elapsed": 253961, "internal_node_id": "0.0-1.0"}}, {"uniqueid": "MTK0142:3KB8R4ZV1FE2BVZ7LGLW1434WNLBGH", "current_trial": 2, "dateTime": 1509292694312, "trialdata": {"rt": [282, 7437, 22150], "responses": ["", "ocen", "ocean"], "type": "AUDIO_TEST", "trial_type": "audio-test", "trial_index": 2, "time_elapsed": 276128, "internal_node_id": "0.0-2.0"}}, {"uniqueid": "MTK0142:3KB8R4ZV1FE2BVZ7LGLW1434WNLBGH", "current_trial": 3, "dateTime": 1509292709233, "trialdata": {"rt": [14914], "responses": ["crystal"], "type": "AUDIO_TEST", "trial_type": "audio-test", "trial_index": 3, "time_elapsed": 291048, "internal_node_id": "0.0-3.0"}}, {"uniqueid": "MTK0142:3KB8R4ZV1FE2BVZ7LGLW1434WNLBGH", "current_trial": 4, "dateTime": 1509292730568, "trialdata": {"rt": [13139, 21331], "responses": ["spikes", "spice"], "type": "AUDIO_TEST", "trial_type": "audio-test", "trial_index": 4, "time_elapsed": 312384, "internal_node_id": "0.0-4.0"}}, {"uniqueid": "MTK0142:3KB8R4ZV1FE2BVZ7LGLW1434WNLBGH", "current_trial": 5, "dateTime": 1509292746834, "trialdata": {"rt": 15511, "key_press": 32, "type": "INSTRUCTIONS", "trial_type": "text", "trial_index": 5, "time_elapsed": 328650, "internal_node_id": "0.0-5.0"}}, {"uniqueid": "MTK0142:3KB8R4ZV1FE2BVZ7LGLW1434WNLBGH", "current_trial": 6, "dateTime": 1509292762544, "trialdata": {"rt": 15709, "key_press": 32, "type": "INSTRUCTIONS", "trial_type": "text", "trial_index": 6, "time_elapsed": 344360, "internal_node_id": "0.0-6.0"}}, {"uniqueid": "MTK0142:3KB8R4ZV1FE2BVZ7LGLW1434WNLBGH", "current_trial": 7, "dateTime": 1509292769261, "trialdata": {"rt": 6715, "key_press": 32, "type": "INSTRUCTIONS", "trial_type": "text", "trial_index": 7, "time_elapsed": 351077, "internal_node_id": "0.0-7.0"}}, {"uniqueid": "MTK0142:3KB8R4ZV1FE2BVZ7LGLW1434WNLBGH", "current_trial": 8, "dateTime": 1509292777125, "trialdata": {"rt": 7862, "key_press": 32, "type": "INSTRUCTIONS", "trial_type": "text", "trial_index": 8, "time_elapsed": 358941, "internal_node_id": "0.0-8.0"}}, {"uniqueid": "MTK0142:3KB8R4ZV1FE2BVZ7LGLW1434WNLBGH", "current_trial": 9, "dateTime": 1509292796141, "trialdata": {"rt": [5005, 10139], "responses": ["7", "14"], "num1": [3, 6, 7], "num2": [2, 1, 9], "num3": [2, 7, 5], "type": "DISTRACTOR", "conditions": [18, 1200, "v", 18000], "trial": 0, "trial_type": "math-distractor", "trial_index": 9, "time_elapsed": 377957, "internal_node_id": "0.0-9.0"}}, {"uniqueid": "MTK0142:3KB8R4ZV1FE2BVZ7LGLW1434WNLBGH", "current_trial": 10, "dateTime": 1509292799148, "trialdata": {"rt": -1, "stimulus": "<p id=\"stim\">10</p>", "key_press": -1, "trial_type": "single-stim", "trial_index": 10, "time_elapsed": 380964, "internal_node_id": "0.0-10.0-0.0"}}, {"uniqueid": "MTK0142:3KB8R4ZV1FE2BVZ7LGLW1434WNLBGH", "current_trial": 11, "dateTime": 1509292800153, "trialdata": {"rt": -1, "stimulus": "<p id=\"stim\">9</p>", "key_press": -1, "trial_type": "single-stim", "trial_index": 11, "time_elapsed": 381969, "internal_node_id": "0.0-10.0-1.0"}}, {"uniqueid": "MTK0142:3KB8R4ZV1FE2BVZ7LGLW1434WNLBGH", "current_trial": 12, "dateTime": 1509292801157, "trialdata": {"rt": -1, "stimulus": "<p id=\"stim\">8</p>", "key_press": -1, "trial_type": "single-stim", "trial_index": 12, "time_elapsed": 382973, "internal_node_id": "0.0-10.0-2.0"}}, {"uniqueid": "MTK0142:3KB8R4ZV1FE2BVZ7LGLW1434WNLBGH", "current_trial": 13, "dateTime": 1509292802161, "trialdata": {"rt": -1, "stimulus": "<p id=\"stim\">7</p>", "key_press": -1, "trial_type": "single-stim", "trial_index": 13, "time_elapsed": 383977, "internal_node_id": "0.0-10.0-3.0"}}, {"uniqueid": "MTK0142:3KB8R4ZV1FE2BVZ7LGLW1434WNLBGH", "current_trial": 14, "dateTime": 1509292803166, "trialdata": {"rt": -1, "stimulus": "<p id=\"stim\">6</p>", "key_press": -1, "trial_type": "single-stim", "trial_index": 14, "time_elapsed": 384982, "internal_node_id": "0.0-10.0-4.0"}}, {"uniqueid": "MTK0142:3KB8R4ZV1FE2BVZ7LGLW1434WNLBGH", "current_trial": 15, "dateTime": 1509292804169, "trialdata": {"rt": -1, "stimulus": "<p id=\"stim\">5</p>", "key_press": -1, "trial_type": "single-stim", "trial_index": 15, "time_elapsed": 385985, "internal_node_id": "0.0-10.0-5.0"}}, {"uniqueid": "MTK0142:3KB8R4ZV1FE2BVZ7LGLW1434WNLBGH", "current_trial": 16, "dateTime": 1509292805173, "trialdata": {"rt": -1, "stimulus": "<p id=\"stim\">4</p>", "key_press": -1, "trial_type": "single-stim", "trial_index": 16, "time_elapsed": 386989, "internal_node_id": "0.0-10.0-6.0"}}, {"uniqueid": "MTK0142:3KB8R4ZV1FE2BVZ7LGLW1434WNLBGH", "current_trial": 17, "dateTime": 1509292806177, "trialdata": {"rt": -1, "stimulus": "<p id=\"stim\">3</p>", "key_press": -1, "trial_type": "single-stim", "trial_index": 17, "time_elapsed": 387993, "internal_node_id": "0.0-10.0-7.0"}}, {"uniqueid": "MTK0142:3KB8R4ZV1FE2BVZ7LGLW1434WNLBGH", "current_trial": 18, "dateTime": 1509292807185, "trialdata": {"rt": -1, "stimulus": "<p id=\"stim\">2</p>", "key_press": -1, "trial_type": "single-stim", "trial_index": 18, "time_elapsed": 389001, "internal_node_id": "0.0-10.0-8.0"}}, {"uniqueid": "MTK0142:3KB8R4ZV1FE2BVZ7LGLW1434WNLBGH", "current_trial": 19, "dateTime": 1509292808189, "trialdata": {"rt": -1, "stimulus": "<p id=\"stim\">1</p>", "key_press": -1, "trial_type": "single-stim", "trial_index": 19, "time_elapsed": 390005, "internal_node_id": "0.0-10.0-9.0"}}, {"uniqueid": "MTK0142:3KB8R4ZV1FE2BVZ7LGLW1434WNLBGH", "current_trial": 20, "dateTime": 1509292809703, "trialdata": {"rt": -1, "stimulus": "<p id=\"stim\">+</p>", "key_press": -1, "type": "FIXATION", "trial_type": "single-stim", "trial_index": 20, "time_elapsed": 391519, "internal_node_id": "0.0-11.0-0.0"}}, {"uniqueid": "MTK0142:3KB8R4ZV1FE2BVZ7LGLW1434WNLBGH", "current_trial": 21, "dateTime": 1509292810908, "trialdata": {"rt": -1, "stimulus": "<p id=\"stim\">OZONE</p>", "key_press": -1, "type": "PRES_VIS", "word": "ozone", "wordID": 995, "conditions": [18, 1200, "v", 18000], "trial": 0, "serialpos": 0, "trial_type": "single-stim", "trial_index": 21, "time_elapsed": 392724, "internal_node_id": "0.0-12.0"}}, {"uniqueid": "MTK0142:3KB8R4ZV1FE2BVZ7LGLW1434WNLBGH", "current_trial": 22, "dateTime": 1509292813113, "trialdata": {"rt": -1, "stimulus": "<p id=\"stim\">VENUS</p>", "key_press": -1, "type": "PRES_VIS", "word": "venus", "wordID": 1556, "conditions": [18, 1200, "v", 18000], "trial": 0, "serialpos": 1, "trial_type": "single-stim", "trial_index": 22, "time_elapsed": 394929, "internal_node_id": "0.0-13.0"}}, {"uniqueid": "MTK0142:3KB8R4ZV1FE2BVZ7LGLW1434WNLBGH", "current_trial": 23, "dateTime": 1509292815220, "trialdata": {"rt": -1, "stimulus": "<p id=\"stim\">NURSE</p>", "key_press": -1, "type": "PRES_VIS", "word": "nurse", "wordID": 962, "conditions": [18, 1200, "v", 18000], "trial": 0, "serialpos": 2, "trial_type": "single-stim", "trial_index": 23, "time_elapsed": 397036, "internal_node_id": "0.0-14.0"}}, {"uniqueid": "MTK0142:3KB8R4ZV1FE2BVZ7LGLW1434WNLBGH", "current_trial": 24, "dateTime": 1509292817391, "trialdata": {"rt": -1, "stimulus": "<p id=\"stim\">MATCH</p>", "key_press": -1, "type": "PRES_VIS", "word": "match", "wordID": 877, "conditions": [18, 1200, "v", 18000], "trial": 0, "serialpos": 3, "trial_type": "single-stim", "trial_index": 24, "time_elapsed": 399207, "internal_node_id": "0.0-15.0"}}, {"uniqueid": "MTK0142:3KB8R4ZV1FE2BVZ7LGLW1434WNLBGH", "current_trial": 25, "dateTime": 1509292819406, "trialdata": {"rt": -1, "stimulus": "<p id=\"stim\">TAXI</p>", "key_press": -1, "type": "PRES_VIS", "word": "taxi", "wordID": 1437, "conditions": [18, 1200, "v", 18000], "trial": 0, "serialpos": 4, "trial_type": "single-stim", "trial_index": 25, "time_elapsed": 401222, "internal_node_id": "0.0-16.0"}}, {"uniqueid": "MTK0142:3KB8R4ZV1FE2BVZ7LGLW1434WNLBGH", "current_trial": 26, "dateTime": 1509292821491, "trialdata": {"rt": -1, "stimulus": "<p id=\"stim\">THREAD</p>", "key_press": -1, "type": "PRES_VIS", "word": "thread", "wordID": 1459, "conditions": [18, 1200, "v", 18000], "trial": 0, "serialpos": 5, "trial_type": "single-stim", "trial_index": 26, "time_elapsed": 403307, "internal_node_id": "0.0-17.0"}}, {"uniqueid": "MTK0142:3KB8R4ZV1FE2BVZ7LGLW1434WNLBGH", "current_trial": 27, "dateTime": 1509292823880, "trialdata": {"rt": -1, "stimulus": "<p id=\"stim\">SUITCASE</p>", "key_press": -1, "type": "PRES_VIS", "word": "suitcase", "wordID": 1402, "conditions": [18, 1200, "v", 18000], "trial": 0, "serialpos": 6, "trial_type": "single-stim", "trial_index": 27, "time_elapsed": 405696, "internal_node_id": "0.0-18.0"}}, {"uniqueid": "MTK0142:3KB8R4ZV1FE2BVZ7LGLW1434WNLBGH", "current_trial": 28, "dateTime": 1509292826281, "trialdata": {"rt": -1, "stimulus": "<p id=\"stim\">SADDLE</p>", "key_press": -1, "type": "PRES_VIS", "word": "saddle", "wordID": 1220, "conditions": [18, 1200, "v", 18000], "trial": 0, "serialpos": 7, "trial_type": "single-stim", "trial_index": 28, "time_elapsed": 408096, "internal_node_id": "0.0-19.0"}}, {"uniqueid": "MTK0142:3KB8R4ZV1FE2BVZ7LGLW1434WNLBGH", "current_trial": 29, "dateTime": 1509292828428, "trialdata": {"rt": -1, "stimulus": "<p id=\"stim\">OUTFIT</p>", "key_press": -1, "type": "PRES_VIS", "word": "outfit", "wordID": 987, "conditions": [18, 1200, "v", 18000], "trial": 0, "serialpos": 8, "trial_type": "single-stim", "trial_index": 29, "time_elapsed": 410244, "internal_node_id": "0.0-20.0"}}, {"uniqueid": "MTK0142:3KB8R4ZV1FE2BVZ7LGLW1434WNLBGH", "current_trial": 30, "dateTime": 1509292830665, "trialdata": {"rt": -1, "stimulus": "<p id=\"stim\">BUBBLE</p>", "key_press": -1, "type": "PRES_VIS", "word": "bubble", "wordID": 182, "conditions": [18, 1200, "v", 18000], "trial": 0, "serialpos": 9, "trial_type": "single-stim", "trial_index": 30, "time_elapsed": 412480, "internal_node_id": "0.0-21.0"}}, {"uniqueid": "MTK0142:3KB8R4ZV1FE2BVZ7LGLW1434WNLBGH", "current_trial": 31, "dateTime": 1509292832684, "trialdata": {"rt": -1, "stimulus": "<p id=\"stim\">GARBAGE</p>", "key_press": -1, "type": "PRES_VIS", "word": "garbage", "wordID": 621, "conditions": [18, 1200, "v", 18000], "trial": 0, "serialpos": 10, "trial_type": "single-stim", "trial_index": 31, "time_elapsed": 414500, "internal_node_id": "0.0-22.0"}}, {"uniqueid": "MTK0142:3KB8R4ZV1FE2BVZ7LGLW1434WNLBGH", "current_trial": 32, "dateTime": 1509292835028, "trialdata": {"rt": -1, "stimulus": "<p id=\"stim\">MASK</p>", "key_press": -1, "type": "PRES_VIS", "word": "mask", "wordID": 875, "conditions": [18, 1200, "v", 18000], "trial": 0, "serialpos": 11, "trial_type": "single-stim", "trial_index": 32, "time_elapsed": 416844, "internal_node_id": "0.0-23.0"}}, {"uniqueid": "MTK0142:3KB8R4ZV1FE2BVZ7LGLW1434WNLBGH", "current_trial": 33, "dateTime": 1509292837194, "trialdata": {"rt": -1, "stimulus": "<p id=\"stim\">ATLAS</p>", "key_press": -1, "type": "PRES_VIS", "word": "atlas", "wordID": 52, "conditions": [18, 1200, "v", 18000], "trial": 0, "serialpos": 12, "trial_type": "single-stim", "trial_index": 33, "time_elapsed": 419010, "internal_node_id": "0.0-24.0"}}, {"uniqueid": "MTK0142:3KB8R4ZV1FE2BVZ7LGLW1434WNLBGH", "current_trial": 34, "dateTime": 1509292839450, "trialdata": {"rt": -1, "stimulus": "<p id=\"stim\">BUNNY</p>", "key_press": -1, "type": "PRES_VIS", "word": "bunny", "wordID": 197, "conditions": [18, 1200, "v", 18000], "trial": 0, "serialpos": 13, "trial_type": "single-stim", "trial_index": 34, "time_elapsed": 421266, "internal_node_id": "0.0-25.0"}}, {"uniqueid": "MTK0142:3KB8R4ZV1FE2BVZ7LGLW1434WNLBGH", "current_trial": 35, "dateTime": 1509292841585, "trialdata": {"rt": -1, "stimulus": "<p id=\"stim\">NAPKIN</p>", "key_press": -1, "type": "PRES_VIS", "word": "napkin", "wordID": 936, "conditions": [18, 1200, "v", 18000], "trial": 0, "serialpos": 14, "trial_type": "single-stim", "trial_index": 35, "time_elapsed": 423401, "internal_node_id": "0.0-26.0"}}, {"uniqueid": "MTK0142:3KB8R4ZV1FE2BVZ7LGLW1434WNLBGH", "current_trial": 36, "dateTime": 1509292843761, "trialdata": {"rt": -1, "stimulus": "<p id=\"stim\">PLUTO</p>", "key_press": -1, "type": "PRES_VIS", "word": "pluto", "wordID": 1091, "conditions": [18, 1200, "v", 18000], "trial": 0, "serialpos": 15, "trial_type": "single-stim", "trial_index": 36, "time_elapsed": 425577, "internal_node_id": "0.0-27.0"}}, {"uniqueid": "MTK0142:3KB8R4ZV1FE2BVZ7LGLW1434WNLBGH", "current_trial": 37, "dateTime": 1509292845973, "trialdata": {"rt": -1, "stimulus": "<p id=\"stim\">CRITIC</p>", "key_press": -1, "type": "PRES_VIS", "word": "critic", "wordID": 409, "conditions": [18, 1200, "v", 18000], "trial": 0, "serialpos": 16, "trial_type": "single-stim", "trial_index": 37, "time_elapsed": 427789, "internal_node_id": "0.0-28.0"}}, {"uniqueid": "MTK0142:3KB8R4ZV1FE2BVZ7LGLW1434WNLBGH", "current_trial": 38, "dateTime": 1509292848006, "trialdata": {"rt": -1, "stimulus": "<p id=\"stim\">PROTON</p>", "key_press": -1, "type": "PRES_VIS", "word": "proton", "wordID": 1131, "conditions": [18, 1200, "v", 18000], "trial": 0, "serialpos": 17, "trial_type": "single-stim", "trial_index": 38, "time_elapsed": 429821, "internal_node_id": "0.0-29.0"}}, {"uniqueid": "MTK0142:3KB8R4ZV1FE2BVZ7LGLW1434WNLBGH", "current_trial": 39, "dateTime": 1509292850179, "trialdata": {"rt": -1, "stimulus": "", "key_press": -1, "type": "PRE_RECALL_DELAY", "trial_type": "single-stim", "trial_index": 39, "time_elapsed": 431995, "internal_node_id": "0.0-30.0-0.0"}}, {"uniqueid": "MTK0142:3KB8R4ZV1FE2BVZ7LGLW1434WNLBGH", "current_trial": 40, "dateTime": 1509292850684, "trialdata": {"rt": -1000, "stimulus": "/static/audio/400Hz.wav", "key_press": -1, "type": "PRE_RECALL_ALERT", "trial_type": "single-audio", "trial_index": 40, "time_elapsed": 432500, "internal_node_id": "0.0-31.0"}}, {"uniqueid": "MTK0142:3KB8R4ZV1FE2BVZ7LGLW1434WNLBGH", "current_trial": 41, "dateTime": 1509292910695, "trialdata": {"rt": [6228, 9838, 13101, 22077, 27993, 36107, 40370, 44810, 45107, 57953], "recwords": ["ozone", "venus", "saddle", "suitcase", "napkin", "pluto", "", "", "", "e"], "type": "FREE_RECALL", "conditions": [18, 1200, "v", 18000], "trial": 0, "trial_type": "free-recall", "trial_index": 41, "time_elapsed": 492508, "internal_node_id": "0.0-32.0-0.0"}}, {"uniqueid": "MTK0142:3KB8R4ZV1FE2BVZ7LGLW1434WNLBGH", "current_trial": 42, "dateTime": 1509292915265, "trialdata": {"rt": 2564, "key_press": 32, "type": "INSTRUCTIONS", "trial_type": "text", "trial_index": 42, "time_elapsed": 497081, "internal_node_id": "0.0-33.0"}}, {"uniqueid": "MTK0142:3KB8R4ZV1FE2BVZ7LGLW1434WNLBGH", "current_trial": 43, "dateTime": 1509292935272, "trialdata": {"rt": [4644, 10486, 13600, 17759], "responses": ["18", "18", "14", "14"], "num1": [5, 9, 6, 3, 7], "num2": [9, 6, 6, 6, 7], "num3": [4, 3, 2, 5, 2], "type": "DISTRACTOR", "conditions": [18, 1200, "a", 18000], "trial": 1, "trial_type": "math-distractor", "trial_index": 43, "time_elapsed": 517088, "internal_node_id": "0.0-34.0"}}, {"uniqueid": "MTK0142:3KB8R4ZV1FE2BVZ7LGLW1434WNLBGH", "current_trial": 44, "dateTime": 1509292938280, "trialdata": {"rt": -1, "stimulus": "<p id=\"stim\">10</p>", "key_press": -1, "trial_type": "single-stim", "trial_index": 44, "time_elapsed": 520095, "internal_node_id": "0.0-35.0-0.0"}}, {"uniqueid": "MTK0142:3KB8R4ZV1FE2BVZ7LGLW1434WNLBGH", "current_trial": 45, "dateTime": 1509292939288, "trialdata": {"rt": -1, "stimulus": "<p id=\"stim\">9</p>", "key_press": -1, "trial_type": "single-stim", "trial_index": 45, "time_elapsed": 521104, "internal_node_id": "0.0-35.0-1.0"}}, {"uniqueid": "MTK0142:3KB8R4ZV1FE2BVZ7LGLW1434WNLBGH", "current_trial": 46, "dateTime": 1509292940293, "trialdata": {"rt": -1, "stimulus": "<p id=\"stim\">8</p>", "key_press": -1, "trial_type": "single-stim", "trial_index": 46, "time_elapsed": 522109, "internal_node_id": "0.0-35.0-2.0"}}, {"uniqueid": "MTK0142:3KB8R4ZV1FE2BVZ7LGLW1434WNLBGH", "current_trial": 47, "dateTime": 1509292941298, "trialdata": {"rt": -1, "stimulus": "<p id=\"stim\">7</p>", "key_press": -1, "trial_type": "single-stim", "trial_index": 47, "time_elapsed": 523114, "internal_node_id": "0.0-35.0-3.0"}}, {"uniqueid": "MTK0142:3KB8R4ZV1FE2BVZ7LGLW1434WNLBGH", "current_trial": 48, "dateTime": 1509292942303, "trialdata": {"rt": -1, "stimulus": "<p id=\"stim\">6</p>", "key_press": -1, "trial_type": "single-stim", "trial_index": 48, "time_elapsed": 524119, "internal_node_id": "0.0-35.0-4.0"}}, {"uniqueid": "MTK0142:3KB8R4ZV1FE2BVZ7LGLW1434WNLBGH", "current_trial": 49, "dateTime": 1509292943304, "trialdata": {"rt": -1, "stimulus": "<p id=\"stim\">5</p>", "key_press": -1, "trial_type": "single-stim", "trial_index": 49, "time_elapsed": 525120, "internal_node_id": "0.0-35.0-5.0"}}, {"uniqueid": "MTK0142:3KB8R4ZV1FE2BVZ7LGLW1434WNLBGH", "current_trial": 50, "dateTime": 1509292944309, "trialdata": {"rt": -1, "stimulus": "<p id=\"stim\">4</p>", "key_press": -1, "trial_type": "single-stim", "trial_index": 50, "time_elapsed": 526125, "internal_node_id": "0.0-35.0-6.0"}}, {"uniqueid": "MTK0142:3KB8R4ZV1FE2BVZ7LGLW1434WNLBGH", "current_trial": 51, "dateTime": 1509292945313, "trialdata": {"rt": -1, "stimulus": "<p id=\"stim\">3</p>", "key_press": -1, "trial_type": "single-stim", "trial_index": 51, "time_elapsed": 527129, "internal_node_id": "0.0-35.0-7.0"}}, {"uniqueid": "MTK0142:3KB8R4ZV1FE2BVZ7LGLW1434WNLBGH", "current_trial": 52, "dateTime": 1509292946318, "trialdata": {"rt": -1, "stimulus": "<p id=\"stim\">2</p>", "key_press": -1, "trial_type": "single-stim", "trial_index": 52, "time_elapsed": 528134, "internal_node_id": "0.0-35.0-8.0"}}, {"uniqueid": "MTK0142:3KB8R4ZV1FE2BVZ7LGLW1434WNLBGH", "current_trial": 53, "dateTime": 1509292947321, "trialdata": {"rt": -1, "stimulus": "<p id=\"stim\">1</p>", "key_press": -1, "trial_type": "single-stim", "trial_index": 53, "time_elapsed": 529137, "internal_node_id": "0.0-35.0-9.0"}}, {"uniqueid": "MTK0142:3KB8R4ZV1FE2BVZ7LGLW1434WNLBGH", "current_trial": 54, "dateTime": 1509292948823, "trialdata": {"rt": -1, "stimulus": "<p id=\"stim\">+</p>", "key_press": -1, "type": "FIXATION", "trial_type": "single-stim", "trial_index": 54, "time_elapsed": 530639, "internal_node_id": "0.0-36.0-0.0"}}, {"uniqueid": "MTK0142:3KB8R4ZV1FE2BVZ7LGLW1434WNLBGH", "current_trial": 55, "dateTime": 1509292950970, "trialdata": {"rt": -1000, "stimulus": "/static/audio/wordpool/PARROT.wav", "key_press": -1, "type": "PRES_AUD", "word": "parrot", "wordID": 1014, "conditions": [18, 1200, "a", 18000], "trial": 1, "serialpos": 0, "trial_type": "single-audio", "trial_index": 55, "time_elapsed": 532786, "internal_node_id": "0.0-37.0"}}, {"uniqueid": "MTK0142:3KB8R4ZV1FE2BVZ7LGLW1434WNLBGH", "current_trial": 56, "dateTime": 1509292953015, "trialdata": {"rt": -1000, "stimulus": "/static/audio/wordpool/LABEL.wav", "key_press": -1, "type": "PRES_AUD", "word": "label", "wordID": 789, "conditions": [18, 1200, "a", 18000], "trial": 1, "serialpos": 1, "trial_type": "single-audio", "trial_index": 56, "time_elapsed": 534831, "internal_node_id": "0.0-38.0"}}, {"uniqueid": "MTK0142:3KB8R4ZV1FE2BVZ7LGLW1434WNLBGH", "current_trial": 57, "dateTime": 1509292955124, "trialdata": {"rt": -1000, "stimulus": "/static/audio/wordpool/LACE.wav", "key_press": -1, "type": "PRES_AUD", "word": "lace", "wordID": 791, "conditions": [18, 1200, "a", 18000], "trial": 1, "serialpos": 2, "trial_type": "single-audio", "trial_index": 57, "time_elapsed": 536940, "internal_node_id": "0.0-39.0"}}, {"uniqueid": "MTK0142:3KB8R4ZV1FE2BVZ7LGLW1434WNLBGH", "current_trial": 58, "dateTime": 1509292957150, "trialdata": {"rt": -1000, "stimulus": "/static/audio/wordpool/MOTOR.wav", "key_press": -1, "type": "PRES_AUD", "word": "motor", "wordID": 921, "conditions": [18, 1200, "a", 18000], "trial": 1, "serialpos": 3, "trial_type": "single-audio", "trial_index": 58, "time_elapsed": 538965, "internal_node_id": "0.0-40.0"}}, {"uniqueid": "MTK0142:3KB8R4ZV1FE2BVZ7LGLW1434WNLBGH", "current_trial": 59, "dateTime": 1509292959334, "trialdata": {"rt": -1000, "stimulus": "/static/audio/wordpool/PIMPLE.wav", "key_press": -1, "type": "PRES_AUD", "word": "pimple", "wordID": 1070, "conditions": [18, 1200, "a", 18000], "trial": 1, "serialpos": 4, "trial_type": "single-audio", "trial_index": 59, "time_elapsed": 541150, "internal_node_id": "0.0-41.0"}}, {"uniqueid": "MTK0142:3KB8R4ZV1FE2BVZ7LGLW1434WNLBGH", "current_trial": 60, "dateTime": 1509292961531, "trialdata": {"rt": -1000, "stimulus": "/static/audio/wordpool/MILDEW.wav", "key_press": -1, "type": "PRES_AUD", "word": "mildew", "wordID": 892, "conditions": [18, 1200, "a", 18000], "trial": 1, "serialpos": 5, "trial_type": "single-audio", "trial_index": 60, "time_elapsed": 543347, "internal_node_id": "0.0-42.0"}}, {"uniqueid": "MTK0142:3KB8R4ZV1FE2BVZ7LGLW1434WNLBGH", "current_trial": 61, "dateTime": 1509292963771, "trialdata": {"rt": -1000, "stimulus": "/static/audio/wordpool/SUSPECT.wav", "key_press": -1, "type": "PRES_AUD", "word": "suspect", "wordID": 1414, "conditions": [18, 1200, "a", 18000], "trial": 1, "serialpos": 6, "trial_type": "single-audio", "trial_index": 61, "time_elapsed": 545587, "internal_node_id": "0.0-43.0"}}, {"uniqueid": "MTK0142:3KB8R4ZV1FE2BVZ7LGLW1434WNLBGH", "current_trial": 62, "dateTime": 1509292966014, "trialdata": {"rt": -1000, "stimulus": "/static/audio/wordpool/CONVICT.wav", "key_press": -1, "type": "PRES_AUD", "word": "convict", "wordID": 370, "conditions": [18, 1200, "a", 18000], "trial": 1, "serialpos": 7, "trial_type": "single-audio", "trial_index": 62, "time_elapsed": 547829, "internal_node_id": "0.0-44.0"}}, {"uniqueid": "MTK0142:3KB8R4ZV1FE2BVZ7LGLW1434WNLBGH", "current_trial": 63, "dateTime": 1509292968328, "trialdata": {"rt": -1000, "stimulus": "/static/audio/wordpool/OUTLAW.wav", "key_press": -1, "type": "PRES_AUD", "word": "outlaw", "wordID": 988, "conditions": [18, 1200, "a", 18000], "trial": 1, "serialpos": 8, "trial_type": "single-audio", "trial_index": 63, "time_elapsed": 550144, "internal_node_id": "0.0-45.0"}}, {"uniqueid": "MTK0142:3KB8R4ZV1FE2BVZ7LGLW1434WNLBGH", "current_trial": 64, "dateTime": 1509292970459, "trialdata": {"rt": -1000, "stimulus": "/static/audio/wordpool/TOASTER.wav", "key_press": -1, "type": "PRES_AUD", "word": "toaster", "wordID": 1471, "conditions": [18, 1200, "a", 18000], "trial": 1, "serialpos": 9, "trial_type": "single-audio", "trial_index": 64, "time_elapsed": 552275, "internal_node_id": "0.0-46.0"}}, {"uniqueid": "MTK0142:3KB8R4ZV1FE2BVZ7LGLW1434WNLBGH", "current_trial": 65, "dateTime": 1509292972775, "trialdata": {"rt": -1000, "stimulus": "/static/audio/wordpool/SEAFOOD.wav", "key_press": -1, "type": "PRES_AUD", "word": "seafood", "wordID": 1259, "conditions": [18, 1200, "a", 18000], "trial": 1, "serialpos": 10, "trial_type": "single-audio", "trial_index": 65, "time_elapsed": 554591, "internal_node_id": "0.0-47.0"}}, {"uniqueid": "MTK0142:3KB8R4ZV1FE2BVZ7LGLW1434WNLBGH", "current_trial": 66, "dateTime": 1509292975175, "trialdata": {"rt": -1000, "stimulus": "/static/audio/wordpool/OX.wav", "key_press": -1, "type": "PRES_AUD", "word": "ox", "wordID": 993, "conditions": [18, 1200, "a", 18000], "trial": 1, "serialpos": 11, "trial_type": "single-audio", "trial_index": 66, "time_elapsed": 556991, "internal_node_id": "0.0-48.0"}}, {"uniqueid": "MTK0142:3KB8R4ZV1FE2BVZ7LGLW1434WNLBGH", "current_trial": 67, "dateTime": 1509292977256, "trialdata": {"rt": -1000, "stimulus": "/static/audio/wordpool/LIZARD.wav", "key_press": -1, "type": "PRES_AUD", "word": "lizard", "wordID": 833, "conditions": [18, 1200, "a", 18000], "trial": 1, "serialpos": 12, "trial_type": "single-audio", "trial_index": 67, "time_elapsed": 559072, "internal_node_id": "0.0-49.0"}}, {"uniqueid": "MTK0142:3KB8R4ZV1FE2BVZ7LGLW1434WNLBGH", "current_trial": 68, "dateTime": 1509292979650, "trialdata": {"rt": -1000, "stimulus": "/static/audio/wordpool/TILE.wav", "key_press": -1, "type": "PRES_AUD", "word": "tile", "wordID": 1467, "conditions": [18, 1200, "a", 18000], "trial": 1, "serialpos": 13, "trial_type": "single-audio", "trial_index": 68, "time_elapsed": 561464, "internal_node_id": "0.0-50.0"}}, {"uniqueid": "MTK0142:3KB8R4ZV1FE2BVZ7LGLW1434WNLBGH", "current_trial": 69, "dateTime": 1509292981846, "trialdata": {"rt": -1000, "stimulus": "/static/audio/wordpool/GIRL.wav", "key_press": -1, "type": "PRES_AUD", "word": "girl", "wordID": 636, "conditions": [18, 1200, "a", 18000], "trial": 1, "serialpos": 14, "trial_type": "single-audio", "trial_index": 69, "time_elapsed": 563662, "internal_node_id": "0.0-51.0"}}, {"uniqueid": "MTK0142:3KB8R4ZV1FE2BVZ7LGLW1434WNLBGH", "current_trial": 70, "dateTime": 1509292984000, "trialdata": {"rt": -1000, "stimulus": "/static/audio/wordpool/TABLET.wav", "key_press": -1, "type": "PRES_AUD", "word": "tablet", "wordID": 1426, "conditions": [18, 1200, "a", 18000], "trial": 1, "serialpos": 15, "trial_type": "single-audio", "trial_index": 70, "time_elapsed": 565815, "internal_node_id": "0.0-52.0"}}, {"uniqueid": "MTK0142:3KB8R4ZV1FE2BVZ7LGLW1434WNLBGH", "current_trial": 71, "dateTime": 1509292986271, "trialdata": {"rt": -1000, "stimulus": "/static/audio/wordpool/JUDGE.wav", "key_press": -1, "type": "PRES_AUD", "word": "judge", "wordID": 760, "conditions": [18, 1200, "a", 18000], "trial": 1, "serialpos": 16, "trial_type": "single-audio", "trial_index": 71, "time_elapsed": 568087, "internal_node_id": "0.0-53.0"}}, {"uniqueid": "MTK0142:3KB8R4ZV1FE2BVZ7LGLW1434WNLBGH", "current_trial": 72, "dateTime": 1509292988493, "trialdata": {"rt": -1000, "stimulus": "/static/audio/wordpool/SKETCH.wav", "key_press": -1, "type": "PRES_AUD", "word": "sketch", "wordID": 1314, "conditions": [18, 1200, "a", 18000], "trial": 1, "serialpos": 17, "trial_type": "single-audio", "trial_index": 72, "time_elapsed": 570309, "internal_node_id": "0.0-54.0"}}, {"uniqueid": "MTK0142:3KB8R4ZV1FE2BVZ7LGLW1434WNLBGH", "current_trial": 73, "dateTime": 1509292989708, "trialdata": {"rt": -1, "stimulus": "", "key_press": -1, "type": "PRE_RECALL_DELAY", "trial_type": "single-stim", "trial_index": 73, "time_elapsed": 571524, "internal_node_id": "0.0-55.0-0.0"}}, {"uniqueid": "MTK0142:3KB8R4ZV1FE2BVZ7LGLW1434WNLBGH", "current_trial": 74, "dateTime": 1509292990213, "trialdata": {"rt": -1000, "stimulus": "/static/audio/400Hz.wav", "key_press": -1, "type": "PRE_RECALL_ALERT", "trial_type": "single-audio", "trial_index": 74, "time_elapsed": 572029, "internal_node_id": "0.0-56.0"}}, {"uniqueid": "MTK0142:3KB8R4ZV1FE2BVZ7LGLW1434WNLBGH", "current_trial": 75, "dateTime": 1509293050225, "trialdata": {"rt": [5130, 7837, 11169, 19046, 23046, 42736, 55950], "recwords": ["lace", "scatch", "motor", "toaster", "paddle", "pimple", ""], "type": "FREE_RECALL", "conditions": [18, 1200, "a", 18000], "trial": 1, "trial_type": "free-recall", "trial_index": 75, "time_elapsed": 632038, "internal_node_id": "0.0-57.0-0.0"}}, {"uniqueid": "MTK0142:3KB8R4ZV1FE2BVZ7LGLW1434WNLBGH", "current_trial": 76, "dateTime": 1509293079000, "trialdata": {"rt": 26769, "key_press": 32, "type": "INSTRUCTIONS", "trial_type": "text", "trial_index": 76, "time_elapsed": 660815, "internal_node_id": "0.0-58.0"}}, {"uniqueid": "MTK0142:3KB8R4ZV1FE2BVZ7LGLW1434WNLBGH", "current_trial": 77, "dateTime": 1509293104012, "trialdata": {"rt": [9088, 13224, 18296, 23358], "responses": ["23", "13", "15", "14"], "num1": [6, 3, 5, 8, 1], "num2": [8, 2, 6, 5, 6], "num3": [9, 8, 4, 1, 8], "type": "DISTRACTOR", "conditions": [12, 800, "v", 24000], "trial": 2, "trial_type": "math-distractor", "trial_index": 77, "time_elapsed": 685828, "internal_node_id": "0.0-59.0"}}, {"uniqueid": "MTK0142:3KB8R4ZV1FE2BVZ7LGLW1434WNLBGH", "current_trial": 78, "dateTime": 1509293107020, "trialdata": {"rt": -1, "stimulus": "<p id=\"stim\">10</p>", "key_press": -1, "trial_type": "single-stim", "trial_index": 78, "time_elapsed": 688835, "internal_node_id": "0.0-60.0-0.0"}}, {"uniqueid": "MTK0142:3KB8R4ZV1FE2BVZ7LGLW1434WNLBGH", "current_trial": 79, "dateTime": 1509293108025, "trialdata": {"rt": -1, "stimulus": "<p id=\"stim\">9</p>", "key_press": -1, "trial_type": "single-stim", "trial_index": 79, "time_elapsed": 689841, "internal_node_id": "0.0-60.0-1.0"}}, {"uniqueid": "MTK0142:3KB8R4ZV1FE2BVZ7LGLW1434WNLBGH", "current_trial": 80, "dateTime": 1509293109027, "trialdata": {"rt": -1, "stimulus": "<p id=\"stim\">8</p>", "key_press": -1, "trial_type": "single-stim", "trial_index": 80, "time_elapsed": 690843, "internal_node_id": "0.0-60.0-2.0"}}, {"uniqueid": "MTK0142:3KB8R4ZV1FE2BVZ7LGLW1434WNLBGH", "current_trial": 81, "dateTime": 1509293110032, "trialdata": {"rt": -1, "stimulus": "<p id=\"stim\">7</p>", "key_press": -1, "trial_type": "single-stim", "trial_index": 81, "time_elapsed": 691848, "internal_node_id": "0.0-60.0-3.0"}}, {"uniqueid": "MTK0142:3KB8R4ZV1FE2BVZ7LGLW1434WNLBGH", "current_trial": 82, "dateTime": 1509293111040, "trialdata": {"rt": -1, "stimulus": "<p id=\"stim\">6</p>", "key_press": -1, "trial_type": "single-stim", "trial_index": 82, "time_elapsed": 692856, "internal_node_id": "0.0-60.0-4.0"}}, {"uniqueid": "MTK0142:3KB8R4ZV1FE2BVZ7LGLW1434WNLBGH", "current_trial": 83, "dateTime": 1509293112048, "trialdata": {"rt": -1, "stimulus": "<p id=\"stim\">5</p>", "key_press": -1, "trial_type": "single-stim", "trial_index": 83, "time_elapsed": 693864, "internal_node_id": "0.0-60.0-5.0"}}, {"uniqueid": "MTK0142:3KB8R4ZV1FE2BVZ7LGLW1434WNLBGH", "current_trial": 84, "dateTime": 1509293113051, "trialdata": {"rt": -1, "stimulus": "<p id=\"stim\">4</p>", "key_press": -1, "trial_type": "single-stim", "trial_index": 84, "time_elapsed": 694867, "internal_node_id": "0.0-60.0-6.0"}}, {"uniqueid": "MTK0142:3KB8R4ZV1FE2BVZ7LGLW1434WNLBGH", "current_trial": 85, "dateTime": 1509293114057, "trialdata": {"rt": -1, "stimulus": "<p id=\"stim\">3</p>", "key_press": -1, "trial_type": "single-stim", "trial_index": 85, "time_elapsed": 695872, "internal_node_id": "0.0-60.0-7.0"}}, {"uniqueid": "MTK0142:3KB8R4ZV1FE2BVZ7LGLW1434WNLBGH", "current_trial": 86, "dateTime": 1509293115063, "trialdata": {"rt": -1, "stimulus": "<p id=\"stim\">2</p>", "key_press": -1, "trial_type": "single-stim", "trial_index": 86, "time_elapsed": 696878, "internal_node_id": "0.0-60.0-8.0"}}, {"uniqueid": "MTK0142:3KB8R4ZV1FE2BVZ7LGLW1434WNLBGH", "current_trial": 87, "dateTime": 1509293116067, "trialdata": {"rt": -1, "stimulus": "<p id=\"stim\">1</p>", "key_press": -1, "trial_type": "single-stim", "trial_index": 87, "time_elapsed": 697883, "internal_node_id": "0.0-60.0-9.0"}}, {"uniqueid": "MTK0142:3KB8R4ZV1FE2BVZ7LGLW1434WNLBGH", "current_trial": 88, "dateTime": 1509293117572, "trialdata": {"rt": -1, "stimulus": "<p id=\"stim\">+</p>", "key_press": -1, "type": "FIXATION", "trial_type": "single-stim", "trial_index": 88, "time_elapsed": 699387, "internal_node_id": "0.0-61.0-0.0"}}, {"uniqueid": "MTK0142:3KB8R4ZV1FE2BVZ7LGLW1434WNLBGH", "current_trial": 89, "dateTime": 1509293118377, "trialdata": {"rt": -1, "stimulus": "<p id=\"stim\">HIGHWAY</p>", "key_press": -1, "type": "PRES_VIS", "word": "highway", "wordID": 706, "conditions": [12, 800, "v", 24000], "trial": 2, "serialpos": 0, "trial_type": "single-stim", "trial_index": 89, "time_elapsed": 700193, "internal_node_id": "0.0-62.0"}}, {"uniqueid": "MTK0142:3KB8R4ZV1FE2BVZ7LGLW1434WNLBGH", "current_trial": 90, "dateTime": 1509293120103, "trialdata": {"rt": -1, "stimulus": "<p id=\"stim\">BRACES</p>", "key_press": -1, "type": "PRES_VIS", "word": "braces", "wordID": 163, "conditions": [12, 800, "v", 24000], "trial": 2, "serialpos": 1, "trial_type": "single-stim", "trial_index": 90, "time_elapsed": 701919, "internal_node_id": "0.0-63.0"}}, {"uniqueid": "MTK0142:3KB8R4ZV1FE2BVZ7LGLW1434WNLBGH", "current_trial": 91, "dateTime": 1509293122026, "trialdata": {"rt": -1, "stimulus": "<p id=\"stim\">DAISY</p>", "key_press": -1, "type": "PRES_VIS", "word": "daisy", "wordID": 434, "conditions": [12, 800, "v", 24000], "trial": 2, "serialpos": 2, "trial_type": "single-stim", "trial_index": 91, "time_elapsed": 703842, "internal_node_id": "0.0-64.0"}}, {"uniqueid": "MTK0142:3KB8R4ZV1FE2BVZ7LGLW1434WNLBGH", "current_trial": 92, "dateTime": 1509293124031, "trialdata": {"rt": -1, "stimulus": "<p id=\"stim\">TRIBE</p>", "key_press": -1, "type": "PRES_VIS", "word": "tribe", "wordID": 1504, "conditions": [12, 800, "v", 24000], "trial": 2, "serialpos": 3, "trial_type": "single-stim", "trial_index": 92, "time_elapsed": 705847, "internal_node_id": "0.0-65.0"}}, {"uniqueid": "MTK0142:3KB8R4ZV1FE2BVZ7LGLW1434WNLBGH", "current_trial": 93, "dateTime": 1509293126034, "trialdata": {"rt": -1, "stimulus": "<p id=\"stim\">TEACHER</p>", "key_press": -1, "type": "PRES_VIS", "word": "teacher", "wordID": 1439, "conditions": [12, 800, "v", 24000], "trial": 2, "serialpos": 4, "trial_type": "single-stim", "trial_index": 93, "time_elapsed": 707850, "internal_node_id": "0.0-66.0"}}, {"uniqueid": "MTK0142:3KB8R4ZV1FE2BVZ7LGLW1434WNLBGH", "current_trial": 94, "dateTime": 1509293127645, "trialdata": {"rt": -1, "stimulus": "<p id=\"stim\">STICKER</p>", "key_press": -1, "type": "PRES_VIS", "word": "sticker", "wordID": 1381, "conditions": [12, 800, "v", 24000], "trial": 2, "serialpos": 5, "trial_type": "single-stim", "trial_index": 94, "time_elapsed": 709461, "internal_node_id": "0.0-67.0"}}, {"uniqueid": "MTK0142:3KB8R4ZV1FE2BVZ7LGLW1434WNLBGH", "current_trial": 95, "dateTime": 1509293129443, "trialdata": {"rt": -1, "stimulus": "<p id=\"stim\">DENIM</p>", "key_press": -1, "type": "PRES_VIS", "word": "denim", "wordID": 445, "conditions": [12, 800, "v", 24000], "trial": 2, "serialpos": 6, "trial_type": "single-stim", "trial_index": 95, "time_elapsed": 711259, "internal_node_id": "0.0-68.0"}}, {"uniqueid": "MTK0142:3KB8R4ZV1FE2BVZ7LGLW1434WNLBGH", "current_trial": 96, "dateTime": 1509293131122, "trialdata": {"rt": -1, "stimulus": "<p id=\"stim\">BLOUSE</p>", "key_press": -1, "type": "PRES_VIS", "word": "blouse", "wordID": 138, "conditions": [12, 800, "v", 24000], "trial": 2, "serialpos": 7, "trial_type": "single-stim", "trial_index": 96, "time_elapsed": 712938, "internal_node_id": "0.0-69.0"}}, {"uniqueid": "MTK0142:3KB8R4ZV1FE2BVZ7LGLW1434WNLBGH", "current_trial": 97, "dateTime": 1509293133091, "trialdata": {"rt": -1, "stimulus": "<p id=\"stim\">STUDENT</p>", "key_press": -1, "type": "PRES_VIS", "word": "student", "wordID": 1394, "conditions": [12, 800, "v", 24000], "trial": 2, "serialpos": 8, "trial_type": "single-stim", "trial_index": 97, "time_elapsed": 714906, "internal_node_id": "0.0-70.0"}}, {"uniqueid": "MTK0142:3KB8R4ZV1FE2BVZ7LGLW1434WNLBGH", "current_trial": 98, "dateTime": 1509293134757, "trialdata": {"rt": -1, "stimulus": "<p id=\"stim\">GARLIC</p>", "key_press": -1, "type": "PRES_VIS", "word": "garlic", "wordID": 623, "conditions": [12, 800, "v", 24000], "trial": 2, "serialpos": 9, "trial_type": "single-stim", "trial_index": 98, "time_elapsed": 716573, "internal_node_id": "0.0-71.0"}}, {"uniqueid": "MTK0142:3KB8R4ZV1FE2BVZ7LGLW1434WNLBGH", "current_trial": 99, "dateTime": 1509293136672, "trialdata": {"rt": -1, "stimulus": "<p id=\"stim\">LIVER</p>", "key_press": -1, "type": "PRES_VIS", "word": "liver", "wordID": 832, "conditions": [12, 800, "v", 24000], "trial": 2, "serialpos": 10, "trial_type": "single-stim", "trial_index": 99, "time_elapsed": 718488, "internal_node_id": "0.0-72.0"}}, {"uniqueid": "MTK0142:3KB8R4ZV1FE2BVZ7LGLW1434WNLBGH", "current_trial": 100, "dateTime": 1509293138311, "trialdata": {"rt": -1, "stimulus": "<p id=\"stim\">QUEEN</p>", "key_press": -1, "type": "PRES_VIS", "word": "queen", "wordID": 1148, "conditions": [12, 800, "v", 24000], "trial": 2, "serialpos": 11, "trial_type": "single-stim", "trial_index": 100, "time_elapsed": 720127, "internal_node_id": "0.0-73.0"}}, {"uniqueid": "MTK0142:3KB8R4ZV1FE2BVZ7LGLW1434WNLBGH", "current_trial": 101, "dateTime": 1509293140730, "trialdata": {"rt": -1, "stimulus": "", "key_press": -1, "type": "PRE_RECALL_DELAY", "trial_type": "single-stim", "trial_index": 101, "time_elapsed": 722546, "internal_node_id": "0.0-74.0-0.0"}}, {"uniqueid": "MTK0142:3KB8R4ZV1FE2BVZ7LGLW1434WNLBGH", "current_trial": 102, "dateTime": 1509293141232, "trialdata": {"rt": -1000, "stimulus": "/static/audio/400Hz.wav", "key_press": -1, "type": "PRE_RECALL_ALERT", "trial_type": "single-audio", "trial_index": 102, "time_elapsed": 723048, "internal_node_id": "0.0-75.0"}}, {"uniqueid": "MTK0142:3KB8R4ZV1FE2BVZ7LGLW1434WNLBGH", "current_trial": 103, "dateTime": 1509293201237, "trialdata": {"rt": [6199, 9238, 11768, 15714, 24255, 36284, 45581], "recwords": ["highway", "sticker", "tribe", "glarlic", "lizard", "briefcase", ""], "type": "FREE_RECALL", "conditions": [12, 800, "v", 24000], "trial": 2, "trial_type": "free-recall", "trial_index": 103, "time_elapsed": 783051, "internal_node_id": "0.0-76.0-0.0"}}, {"uniqueid": "MTK0142:3KB8R4ZV1FE2BVZ7LGLW1434WNLBGH", "current_trial": 104, "dateTime": 1509293206368, "trialdata": {"rt": 3125, "key_press": 32, "type": "INSTRUCTIONS", "trial_type": "text", "trial_index": 104, "time_elapsed": 788184, "internal_node_id": "0.0-77.0"}}, {"uniqueid": "MTK0142:3KB8R4ZV1FE2BVZ7LGLW1434WNLBGH", "current_trial": 105, "dateTime": 1509293220372, "trialdata": {"rt": [4094, 7860], "responses": ["20", "20"], "num1": [6, 3, 2], "num2": [9, 8, 4], "num3": [5, 9, 6], "type": "DISTRACTOR", "conditions": [24, 1600, "a", 12000], "trial": 3, "trial_type": "math-distractor", "trial_index": 105, "time_elapsed": 802188, "internal_node_id": "0.0-78.0"}}, {"uniqueid": "MTK0142:3KB8R4ZV1FE2BVZ7LGLW1434WNLBGH", "current_trial": 106, "dateTime": 1509293223380, "trialdata": {"rt": -1, "stimulus": "<p id=\"stim\">10</p>", "key_press": -1, "trial_type": "single-stim", "trial_index": 106, "time_elapsed": 805196, "internal_node_id": "0.0-79.0-0.0"}}, {"uniqueid": "MTK0142:3KB8R4ZV1FE2BVZ7LGLW1434WNLBGH", "current_trial": 107, "dateTime": 1509293224382, "trialdata": {"rt": -1, "stimulus": "<p id=\"stim\">9</p>", "key_press": -1, "trial_type": "single-stim", "trial_index": 107, "time_elapsed": 806198, "internal_node_id": "0.0-79.0-1.0"}}, {"uniqueid": "MTK0142:3KB8R4ZV1FE2BVZ7LGLW1434WNLBGH", "current_trial": 108, "dateTime": 1509293225386, "trialdata": {"rt": -1, "stimulus": "<p id=\"stim\">8</p>", "key_press": -1, "trial_type": "single-stim", "trial_index": 108, "time_elapsed": 807202, "internal_node_id": "0.0-79.0-2.0"}}, {"uniqueid": "MTK0142:3KB8R4ZV1FE2BVZ7LGLW1434WNLBGH", "current_trial": 109, "dateTime": 1509293226391, "trialdata": {"rt": -1, "stimulus": "<p id=\"stim\">7</p>", "key_press": -1, "trial_type": "single-stim", "trial_index": 109, "time_elapsed": 808206, "internal_node_id": "0.0-79.0-3.0"}}, {"uniqueid": "MTK0142:3KB8R4ZV1FE2BVZ7LGLW1434WNLBGH", "current_trial": 110, "dateTime": 1509293227396, "trialdata": {"rt": -1, "stimulus": "<p id=\"stim\">6</p>", "key_press": -1, "trial_type": "single-stim", "trial_index": 110, "time_elapsed": 809211, "internal_node_id": "0.0-79.0-4.0"}}, {"uniqueid": "MTK0142:3KB8R4ZV1FE2BVZ7LGLW1434WNLBGH", "current_trial": 111, "dateTime": 1509293228398, "trialdata": {"rt": -1, "stimulus": "<p id=\"stim\">5</p>", "key_press": -1, "trial_type": "single-stim", "trial_index": 111, "time_elapsed": 810214, "internal_node_id": "0.0-79.0-5.0"}}, {"uniqueid": "MTK0142:3KB8R4ZV1FE2BVZ7LGLW1434WNLBGH", "current_trial": 112, "dateTime": 1509293229404, "trialdata": {"rt": -1, "stimulus": "<p id=\"stim\">4</p>", "key_press": -1, "trial_type": "single-stim", "trial_index": 112, "time_elapsed": 811220, "internal_node_id": "0.0-79.0-6.0"}}, {"uniqueid": "MTK0142:3KB8R4ZV1FE2BVZ7LGLW1434WNLBGH", "current_trial": 113, "dateTime": 1509293230408, "trialdata": {"rt": -1, "stimulus": "<p id=\"stim\">3</p>", "key_press": -1, "trial_type": "single-stim", "trial_index": 113, "time_elapsed": 812224, "internal_node_id": "0.0-79.0-7.0"}}, {"uniqueid": "MTK0142:3KB8R4ZV1FE2BVZ7LGLW1434WNLBGH", "current_trial": 114, "dateTime": 1509293231414, "trialdata": {"rt": -1, "stimulus": "<p id=\"stim\">2</p>", "key_press": -1, "trial_type": "single-stim", "trial_index": 114, "time_elapsed": 813230, "internal_node_id": "0.0-79.0-8.0"}}, {"uniqueid": "MTK0142:3KB8R4ZV1FE2BVZ7LGLW1434WNLBGH", "current_trial": 115, "dateTime": 1509293232419, "trialdata": {"rt": -1, "stimulus": "<p id=\"stim\">1</p>", "key_press": -1, "trial_type": "single-stim", "trial_index": 115, "time_elapsed": 814235, "internal_node_id": "0.0-79.0-9.0"}}, {"uniqueid": "MTK0142:3KB8R4ZV1FE2BVZ7LGLW1434WNLBGH", "current_trial": 116, "dateTime": 1509293233924, "trialdata": {"rt": -1, "stimulus": "<p id=\"stim\">+</p>", "key_press": -1, "type": "FIXATION", "trial_type": "single-stim", "trial_index": 116, "time_elapsed": 815740, "internal_node_id": "0.0-80.0-0.0"}}, {"uniqueid": "MTK0142:3KB8R4ZV1FE2BVZ7LGLW1434WNLBGH", "current_trial": 117, "dateTime": 1509293236570, "trialdata": {"rt": -1000, "stimulus": "/static/audio/wordpool/HANDBAG.wav", "key_press": -1, "type": "PRES_AUD", "word": "handbag", "wordID": 683, "conditions": [24, 1600, "a", 12000], "trial": 3, "serialpos": 0, "trial_type": "single-audio", "trial_index": 117, "time_elapsed": 818386, "internal_node_id": "0.0-81.0"}}, {"uniqueid": "MTK0142:3KB8R4ZV1FE2BVZ7LGLW1434WNLBGH", "current_trial": 118, "dateTime": 1509293239354, "trialdata": {"rt": -1000, "stimulus": "/static/audio/wordpool/DIME.wav", "key_press": -1, "type": "PRES_AUD", "word": "dime", "wordID": 465, "conditions": [24, 1600, "a", 12000], "trial": 3, "serialpos": 1, "trial_type": "single-audio", "trial_index": 118, "time_elapsed": 821170, "internal_node_id": "0.0-82.0"}}, {"uniqueid": "MTK0142:3KB8R4ZV1FE2BVZ7LGLW1434WNLBGH", "current_trial": 119, "dateTime": 1509293242028, "trialdata": {"rt": -1000, "stimulus": "/static/audio/wordpool/SPHINX.wav", "key_press": -1, "type": "PRES_AUD", "word": "sphinx", "wordID": 1348, "conditions": [24, 1600, "a", 12000], "trial": 3, "serialpos": 2, "trial_type": "single-audio", "trial_index": 119, "time_elapsed": 823844, "internal_node_id": "0.0-83.0"}}, {"uniqueid": "MTK0142:3KB8R4ZV1FE2BVZ7LGLW1434WNLBGH", "current_trial": 120, "dateTime": 1509293244541, "trialdata": {"rt": -1000, "stimulus": "/static/audio/wordpool/TWIG.wav", "key_press": -1, "type": "PRES_AUD", "word": "twig", "wordID": 1526, "conditions": [24, 1600, "a", 12000], "trial": 3, "serialpos": 3, "trial_type": "single-audio", "trial_index": 120, "time_elapsed": 826357, "internal_node_id": "0.0-84.0"}}, {"uniqueid": "MTK0142:3KB8R4ZV1FE2BVZ7LGLW1434WNLBGH", "current_trial": 121, "dateTime": 1509293247161, "trialdata": {"rt": -1000, "stimulus": "/static/audio/wordpool/LUGGAGE.wav", "key_press": -1, "type": "PRES_AUD", "word": "luggage", "wordID": 846, "conditions": [24, 1600, "a", 12000], "trial": 3, "serialpos": 4, "trial_type": "single-audio", "trial_index": 121, "time_elapsed": 828976, "internal_node_id": "0.0-85.0"}}, {"uniqueid": "MTK0142:3KB8R4ZV1FE2BVZ7LGLW1434WNLBGH", "current_trial": 122, "dateTime": 1509293249781, "trialdata": {"rt": -1000, "stimulus": "/static/audio/wordpool/QUARTER.wav", "key_press": -1, "type": "PRES_AUD", "word": "quarter", "wordID": 1147, "conditions": [24, 1600, "a", 12000], "trial": 3, "serialpos": 5, "trial_type": "single-audio", "trial_index": 122, "time_elapsed": 831597, "internal_node_id": "0.0-86.0"}}, {"uniqueid": "MTK0142:3KB8R4ZV1FE2BVZ7LGLW1434WNLBGH", "current_trial": 123, "dateTime": 1509293252554, "trialdata": {"rt": -1000, "stimulus": "/static/audio/wordpool/MAMMAL.wav", "key_press": -1, "type": "PRES_AUD", "word": "mammal", "wordID": 860, "conditions": [24, 1600, "a", 12000], "trial": 3, "serialpos": 6, "trial_type": "single-audio", "trial_index": 123, "time_elapsed": 834370, "internal_node_id": "0.0-87.0"}}, {"uniqueid": "MTK0142:3KB8R4ZV1FE2BVZ7LGLW1434WNLBGH", "current_trial": 124, "dateTime": 1509293254984, "trialdata": {"rt": -1000, "stimulus": "/static/audio/wordpool/PERFUME.wav", "key_press": -1, "type": "PRES_AUD", "word": "perfume", "wordID": 1048, "conditions": [24, 1600, "a", 12000], "trial": 3, "serialpos": 7, "trial_type": "single-audio", "trial_index": 124, "time_elapsed": 836800, "internal_node_id": "0.0-88.0"}}, {"uniqueid": "MTK0142:3KB8R4ZV1FE2BVZ7LGLW1434WNLBGH", "current_trial": 125, "dateTime": 1509293257482, "trialdata": {"rt": -1000, "stimulus": "/static/audio/wordpool/AUTHOR.wav", "key_press": -1, "type": "PRES_AUD", "word": "author", "wordID": 60, "conditions": [24, 1600, "a", 12000], "trial": 3, "serialpos": 8, "trial_type": "single-audio", "trial_index": 125, "time_elapsed": 839298, "internal_node_id": "0.0-89.0"}}, {"uniqueid": "MTK0142:3KB8R4ZV1FE2BVZ7LGLW1434WNLBGH", "current_trial": 126, "dateTime": 1509293259896, "trialdata": {"rt": -1000, "stimulus": "/static/audio/wordpool/ZEBRA.wav", "key_press": -1, "type": "PRES_AUD", "word": "zebra", "wordID": 1634, "conditions": [24, 1600, "a", 12000], "trial": 3, "serialpos": 9, "trial_type": "single-audio", "trial_index": 126, "time_elapsed": 841712, "internal_node_id": "0.0-90.0"}}, {"uniqueid": "MTK0142:3KB8R4ZV1FE2BVZ7LGLW1434WNLBGH", "current_trial": 127, "dateTime": 1509293262650, "trialdata": {"rt": -1000, "stimulus": "/static/audio/wordpool/LEOPARD.wav", "key_press": -1, "type": "PRES_AUD", "word": "leopard", "wordID": 811, "conditions": [24, 1600, "a", 12000], "trial": 3, "serialpos": 10, "trial_type": "single-audio", "trial_index": 127, "time_elapsed": 844466, "internal_node_id": "0.0-91.0"}}, {"uniqueid": "MTK0142:3KB8R4ZV1FE2BVZ7LGLW1434WNLBGH", "current_trial": 128, "dateTime": 1509293265295, "trialdata": {"rt": -1000, "stimulus": "/static/audio/wordpool/PRIMATE.wav", "key_press": -1, "type": "PRES_AUD", "word": "primate", "wordID": 1122, "conditions": [24, 1600, "a", 12000], "trial": 3, "serialpos": 11, "trial_type": "single-audio", "trial_index": 128, "time_elapsed": 847111, "internal_node_id": "0.0-92.0"}}, {"uniqueid": "MTK0142:3KB8R4ZV1FE2BVZ7LGLW1434WNLBGH", "current_trial": 129, "dateTime": 1509293267910, "trialdata": {"rt": -1000, "stimulus": "/static/audio/wordpool/CROWN.wav", "key_press": -1, "type": "PRES_AUD", "word": "crown", "wordID": 414, "conditions": [24, 1600, "a", 12000], "trial": 3, "serialpos": 12, "trial_type": "single-audio", "trial_index": 129, "time_elapsed": 849725, "internal_node_id": "0.0-93.0"}}, {"uniqueid": "MTK0142:3KB8R4ZV1FE2BVZ7LGLW1434WNLBGH", "current_trial": 130, "dateTime": 1509293270373, "trialdata": {"rt": -1000, "stimulus": "/static/audio/wordpool/WASP.wav", "key_press": -1, "type": "PRES_AUD", "word": "wasp", "wordID": 1592, "conditions": [24, 1600, "a", 12000], "trial": 3, "serialpos": 13, "trial_type": "single-audio", "trial_index": 130, "time_elapsed": 852189, "internal_node_id": "0.0-94.0"}}, {"uniqueid": "MTK0142:3KB8R4ZV1FE2BVZ7LGLW1434WNLBGH", "current_trial": 131, "dateTime": 1509293273037, "trialdata": {"rt": -1000, "stimulus": "/static/audio/wordpool/BALLOON.wav", "key_press": -1, "type": "PRES_AUD", "word": "balloon", "wordID": 74, "conditions": [24, 1600, "a", 12000], "trial": 3, "serialpos": 14, "trial_type": "single-audio", "trial_index": 131, "time_elapsed": 854853, "internal_node_id": "0.0-95.0"}}, {"uniqueid": "MTK0142:3KB8R4ZV1FE2BVZ7LGLW1434WNLBGH", "current_trial": 132, "dateTime": 1509293275607, "trialdata": {"rt": -1000, "stimulus": "/static/audio/wordpool/COUCH.wav", "key_press": -1, "type": "PRES_AUD", "word": "couch", "wordID": 385, "conditions": [24, 1600, "a", 12000], "trial": 3, "serialpos": 15, "trial_type": "single-audio", "trial_index": 132, "time_elapsed": 857423, "internal_node_id": "0.0-96.0"}}, {"uniqueid": "MTK0142:3KB8R4ZV1FE2BVZ7LGLW1434WNLBGH", "current_trial": 133, "dateTime": 1509293278237, "trialdata": {"rt": -1000, "stimulus": "/static/audio/wordpool/SODA.wav", "key_press": -1, "type": "PRES_AUD", "word": "soda", "wordID": 1340, "conditions": [24, 1600, "a", 12000], "trial": 3, "serialpos": 16, "trial_type": "single-audio", "trial_index": 133, "time_elapsed": 860052, "internal_node_id": "0.0-97.0"}}, {"uniqueid": "MTK0142:3KB8R4ZV1FE2BVZ7LGLW1434WNLBGH", "current_trial": 134, "dateTime": 1509293280739, "trialdata": {"rt": -1000, "stimulus": "/static/audio/wordpool/TOMBSTONE.wav", "key_press": -1, "type": "PRES_AUD", "word": "tombstone", "wordID": 1477, "conditions": [24, 1600, "a", 12000], "trial": 3, "serialpos": 17, "trial_type": "single-audio", "trial_index": 134, "time_elapsed": 862555, "internal_node_id": "0.0-98.0"}}, {"uniqueid": "MTK0142:3KB8R4ZV1FE2BVZ7LGLW1434WNLBGH", "current_trial": 135, "dateTime": 1509293283261, "trialdata": {"rt": -1000, "stimulus": "/static/audio/wordpool/SWIMMER.wav", "key_press": -1, "type": "PRES_AUD", "word": "swimmer", "wordID": 1419, "conditions": [24, 1600, "a", 12000], "trial": 3, "serialpos": 18, "trial_type": "single-audio", "trial_index": 135, "time_elapsed": 865077, "internal_node_id": "0.0-99.0"}}, {"uniqueid": "MTK0142:3KB8R4ZV1FE2BVZ7LGLW1434WNLBGH", "current_trial": 136, "dateTime": 1509293285833, "trialdata": {"rt": -1000, "stimulus": "/static/audio/wordpool/BURGLAR.wav", "key_press": -1, "type": "PRES_AUD", "word": "burglar", "wordID": 199, "conditions": [24, 1600, "a", 12000], "trial": 3, "serialpos": 19, "trial_type": "single-audio", "trial_index": 136, "time_elapsed": 867649, "internal_node_id": "0.0-100.0"}}, {"uniqueid": "MTK0142:3KB8R4ZV1FE2BVZ7LGLW1434WNLBGH", "current_trial": 137, "dateTime": 1509293288263, "trialdata": {"rt": -1000, "stimulus": "/static/audio/wordpool/CASKET.wav", "key_press": -1, "type": "PRES_AUD", "word": "casket", "wordID": 254, "conditions": [24, 1600, "a", 12000], "trial": 3, "serialpos": 20, "trial_type": "single-audio", "trial_index": 137, "time_elapsed": 870079, "internal_node_id": "0.0-101.0"}}, {"uniqueid": "MTK0142:3KB8R4ZV1FE2BVZ7LGLW1434WNLBGH", "current_trial": 138, "dateTime": 1509293290792, "trialdata": {"rt": -1000, "stimulus": "/static/audio/wordpool/SISTER.wav", "key_press": -1, "type": "PRES_AUD", "word": "sister", "wordID": 1311, "conditions": [24, 1600, "a", 12000], "trial": 3, "serialpos": 21, "trial_type": "single-audio", "trial_index": 138, "time_elapsed": 872608, "internal_node_id": "0.0-102.0"}}, {"uniqueid": "MTK0142:3KB8R4ZV1FE2BVZ7LGLW1434WNLBGH", "current_trial": 139, "dateTime": 1509293293240, "trialdata": {"rt": -1000, "stimulus": "/static/audio/wordpool/UNCLE.wav", "key_press": -1, "type": "PRES_AUD", "word": "uncle", "wordID": 1535, "conditions": [24, 1600, "a", 12000], "trial": 3, "serialpos": 22, "trial_type": "single-audio", "trial_index": 139, "time_elapsed": 875056, "internal_node_id": "0.0-103.0"}}, {"uniqueid": "MTK0142:3KB8R4ZV1FE2BVZ7LGLW1434WNLBGH", "current_trial": 140, "dateTime": 1509293296017, "trialdata": {"rt": -1000, "stimulus": "/static/audio/wordpool/DAUGHTER.wav", "key_press": -1, "type": "PRES_AUD", "word": "daughter", "wordID": 441, "conditions": [24, 1600, "a", 12000], "trial": 3, "serialpos": 23, "trial_type": "single-audio", "trial_index": 140, "time_elapsed": 877833, "internal_node_id": "0.0-104.0"}}, {"uniqueid": "MTK0142:3KB8R4ZV1FE2BVZ7LGLW1434WNLBGH", "current_trial": 141, "dateTime": 1509293297333, "trialdata": {"rt": -1, "stimulus": "", "key_press": -1, "type": "PRE_RECALL_DELAY", "trial_type": "single-stim", "trial_index": 141, "time_elapsed": 879149, "internal_node_id": "0.0-105.0-0.0"}}, {"uniqueid": "MTK0142:3KB8R4ZV1FE2BVZ7LGLW1434WNLBGH", "current_trial": 142, "dateTime": 1509293297839, "trialdata": {"rt": -1000, "stimulus": "/static/audio/400Hz.wav", "key_press": -1, "type": "PRE_RECALL_ALERT", "trial_type": "single-audio", "trial_index": 142, "time_elapsed": 879655, "internal_node_id": "0.0-106.0"}}, {"uniqueid": "MTK0142:3KB8R4ZV1FE2BVZ7LGLW1434WNLBGH", "current_trial": 143, "dateTime": 1509293357845, "trialdata": {"rt": [3387, 5331, 8273, 12232, 21706, 25473, 34256, 39112], "recwords": ["uncle", "sister", "daughter", "laugage", "perfume", "mammal", "primate", "quater"], "type": "FREE_RECALL", "conditions": [24, 1600, "a", 12000], "trial": 3, "trial_type": "free-recall", "trial_index": 143, "time_elapsed": 939658, "internal_node_id": "0.0-107.0-0.0"}}, {"uniqueid": "MTK0142:3KB8R4ZV1FE2BVZ7LGLW1434WNLBGH", "current_trial": 144, "dateTime": 1509293362025, "trialdata": {"rt": 2174, "key_press": 32, "type": "INSTRUCTIONS", "trial_type": "text", "trial_index": 144, "time_elapsed": 943841, "internal_node_id": "0.0-108.0"}}, {"uniqueid": "MTK0142:3KB8R4ZV1FE2BVZ7LGLW1434WNLBGH", "current_trial": 145, "dateTime": 1509293376033, "trialdata": {"rt": [3228, 8985], "responses": ["9", "22"], "num1": [4, 9, 3], "num2": [4, 5, 6], "num3": [1, 8, 3], "type": "DISTRACTOR", "conditions": [12, 1600, "v", 12000], "trial": 4, "trial_type": "math-distractor", "trial_index": 145, "time_elapsed": 957848, "internal_node_id": "0.0-109.0"}}, {"uniqueid": "MTK0142:3KB8R4ZV1FE2BVZ7LGLW1434WNLBGH", "current_trial": 146, "dateTime": 1509293379037, "trialdata": {"rt": -1, "stimulus": "<p id=\"stim\">10</p>", "key_press": -1, "trial_type": "single-stim", "trial_index": 146, "time_elapsed": 960853, "internal_node_id": "0.0-110.0-0.0"}}, {"uniqueid": "MTK0142:3KB8R4ZV1FE2BVZ7LGLW1434WNLBGH", "current_trial": 147, "dateTime": 1509293380042, "trialdata": {"rt": -1, "stimulus": "<p id=\"stim\">9</p>", "key_press": -1, "trial_type": "single-stim", "trial_index": 147, "time_elapsed": 961858, "internal_node_id": "0.0-110.0-1.0"}}, {"uniqueid": "MTK0142:3KB8R4ZV1FE2BVZ7LGLW1434WNLBGH", "current_trial": 148, "dateTime": 1509293381046, "trialdata": {"rt": -1, "stimulus": "<p id=\"stim\">8</p>", "key_press": -1, "trial_type": "single-stim", "trial_index": 148, "time_elapsed": 962862, "internal_node_id": "0.0-110.0-2.0"}}, {"uniqueid": "MTK0142:3KB8R4ZV1FE2BVZ7LGLW1434WNLBGH", "current_trial": 149, "dateTime": 1509293382050, "trialdata": {"rt": -1, "stimulus": "<p id=\"stim\">7</p>", "key_press": -1, "trial_type": "single-stim", "trial_index": 149, "time_elapsed": 963866, "internal_node_id": "0.0-110.0-3.0"}}, {"uniqueid": "MTK0142:3KB8R4ZV1FE2BVZ7LGLW1434WNLBGH", "current_trial": 150, "dateTime": 1509293383057, "trialdata": {"rt": -1, "stimulus": "<p id=\"stim\">6</p>", "key_press": -1, "trial_type": "single-stim", "trial_index": 150, "time_elapsed": 964873, "internal_node_id": "0.0-110.0-4.0"}}, {"uniqueid": "MTK0142:3KB8R4ZV1FE2BVZ7LGLW1434WNLBGH", "current_trial": 151, "dateTime": 1509293384061, "trialdata": {"rt": -1, "stimulus": "<p id=\"stim\">5</p>", "key_press": -1, "trial_type": "single-stim", "trial_index": 151, "time_elapsed": 965877, "internal_node_id": "0.0-110.0-5.0"}}, {"uniqueid": "MTK0142:3KB8R4ZV1FE2BVZ7LGLW1434WNLBGH", "current_trial": 152, "dateTime": 1509293385066, "trialdata": {"rt": -1, "stimulus": "<p id=\"stim\">4</p>", "key_press": -1, "trial_type": "single-stim", "trial_index": 152, "time_elapsed": 966882, "internal_node_id": "0.0-110.0-6.0"}}, {"uniqueid": "MTK0142:3KB8R4ZV1FE2BVZ7LGLW1434WNLBGH", "current_trial": 153, "dateTime": 1509293386072, "trialdata": {"rt": -1, "stimulus": "<p id=\"stim\">3</p>", "key_press": -1, "trial_type": "single-stim", "trial_index": 153, "time_elapsed": 967888, "internal_node_id": "0.0-110.0-7.0"}}, {"uniqueid": "MTK0142:3KB8R4ZV1FE2BVZ7LGLW1434WNLBGH", "current_trial": 154, "dateTime": 1509293387076, "trialdata": {"rt": -1, "stimulus": "<p id=\"stim\">2</p>", "key_press": -1, "trial_type": "single-stim", "trial_index": 154, "time_elapsed": 968892, "internal_node_id": "0.0-110.0-8.0"}}, {"uniqueid": "MTK0142:3KB8R4ZV1FE2BVZ7LGLW1434WNLBGH", "current_trial": 155, "dateTime": 1509293388081, "trialdata": {"rt": -1, "stimulus": "<p id=\"stim\">1</p>", "key_press": -1, "trial_type": "single-stim", "trial_index": 155, "time_elapsed": 969896, "internal_node_id": "0.0-110.0-9.0"}}, {"uniqueid": "MTK0142:3KB8R4ZV1FE2BVZ7LGLW1434WNLBGH", "current_trial": 156, "dateTime": 1509293389584, "trialdata": {"rt": -1, "stimulus": "<p id=\"stim\">+</p>", "key_press": -1, "type": "FIXATION", "trial_type": "single-stim", "trial_index": 156, "time_elapsed": 971400, "internal_node_id": "0.0-111.0-0.0"}}, {"uniqueid": "MTK0142:3KB8R4ZV1FE2BVZ7LGLW1434WNLBGH", "current_trial": 157, "dateTime": 1509293391190, "trialdata": {"rt": -1, "stimulus": "<p id=\"stim\">ANTLER</p>", "key_press": -1, "type": "PRES_VIS", "word": "antler", "wordID": 28, "conditions": [12, 1600, "v", 12000], "trial": 4, "serialpos": 0, "trial_type": "single-stim", "trial_index": 157, "time_elapsed": 973005, "internal_node_id": "0.0-112.0"}}, {"uniqueid": "MTK0142:3KB8R4ZV1FE2BVZ7LGLW1434WNLBGH", "current_trial": 158, "dateTime": 1509293393751, "trialdata": {"rt": -1, "stimulus": "<p id=\"stim\">NIGHTGOWN</p>", "key_press": -1, "type": "PRES_VIS", "word": "nightgown", "wordID": 952, "conditions": [12, 1600, "v", 12000], "trial": 4, "serialpos": 1, "trial_type": "single-stim", "trial_index": 158, "time_elapsed": 975565, "internal_node_id": "0.0-113.0"}}, {"uniqueid": "MTK0142:3KB8R4ZV1FE2BVZ7LGLW1434WNLBGH", "current_trial": 159, "dateTime": 1509293396443, "trialdata": {"rt": -1, "stimulus": "<p id=\"stim\">PARTNER</p>", "key_press": -1, "type": "PRES_VIS", "word": "partner", "wordID": 1016, "conditions": [12, 1600, "v", 12000], "trial": 4, "serialpos": 2, "trial_type": "single-stim", "trial_index": 159, "time_elapsed": 978259, "internal_node_id": "0.0-114.0"}}, {"uniqueid": "MTK0142:3KB8R4ZV1FE2BVZ7LGLW1434WNLBGH", "current_trial": 160, "dateTime": 1509293399224, "trialdata": {"rt": -1, "stimulus": "<p id=\"stim\">PEPPER</p>", "key_press": -1, "type": "PRES_VIS", "word": "pepper", "wordID": 1046, "conditions": [12, 1600, "v", 12000], "trial": 4, "serialpos": 3, "trial_type": "single-stim", "trial_index": 160, "time_elapsed": 981040, "internal_node_id": "0.0-115.0"}}, {"uniqueid": "MTK0142:3KB8R4ZV1FE2BVZ7LGLW1434WNLBGH", "current_trial": 161, "dateTime": 1509293401730, "trialdata": {"rt": -1, "stimulus": "<p id=\"stim\">PARSLEY</p>", "key_press": -1, "type": "PRES_VIS", "word": "parsley", "wordID": 1015, "conditions": [12, 1600, "v", 12000], "trial": 4, "serialpos": 4, "trial_type": "single-stim", "trial_index": 161, "time_elapsed": 983546, "internal_node_id": "0.0-116.0"}}, {"uniqueid": "MTK0142:3KB8R4ZV1FE2BVZ7LGLW1434WNLBGH", "current_trial": 162, "dateTime": 1509293404221, "trialdata": {"rt": -1, "stimulus": "<p id=\"stim\">SUBWAY</p>", "key_press": -1, "type": "PRES_VIS", "word": "subway", "wordID": 1399, "conditions": [12, 1600, "v", 12000], "trial": 4, "serialpos": 5, "trial_type": "single-stim", "trial_index": 162, "time_elapsed": 986037, "internal_node_id": "0.0-117.0"}}, {"uniqueid": "MTK0142:3KB8R4ZV1FE2BVZ7LGLW1434WNLBGH", "current_trial": 163, "dateTime": 1509293406786, "trialdata": {"rt": -1, "stimulus": "<p id=\"stim\">SCISSORS</p>", "key_press": -1, "type": "PRES_VIS", "word": "scissors", "wordID": 1249, "conditions": [12, 1600, "v", 12000], "trial": 4, "serialpos": 6, "trial_type": "single-stim", "trial_index": 163, "time_elapsed": 988602, "internal_node_id": "0.0-118.0"}}, {"uniqueid": "MTK0142:3KB8R4ZV1FE2BVZ7LGLW1434WNLBGH", "current_trial": 164, "dateTime": 1509293409572, "trialdata": {"rt": -1, "stimulus": "<p id=\"stim\">APRON</p>", "key_press": -1, "type": "PRES_VIS", "word": "apron", "wordID": 34, "conditions": [12, 1600, "v", 12000], "trial": 4, "serialpos": 7, "trial_type": "single-stim", "trial_index": 164, "time_elapsed": 991388, "internal_node_id": "0.0-119.0"}}, {"uniqueid": "MTK0142:3KB8R4ZV1FE2BVZ7LGLW1434WNLBGH", "current_trial": 165, "dateTime": 1509293412352, "trialdata": {"rt": -1, "stimulus": "<p id=\"stim\">MARSH</p>", "key_press": -1, "type": "PRES_VIS", "word": "marsh", "wordID": 873, "conditions": [12, 1600, "v", 12000], "trial": 4, "serialpos": 8, "trial_type": "single-stim", "trial_index": 165, "time_elapsed": 994168, "internal_node_id": "0.0-120.0"}}, {"uniqueid": "MTK0142:3KB8R4ZV1FE2BVZ7LGLW1434WNLBGH", "current_trial": 166, "dateTime": 1509293415115, "trialdata": {"rt": -1, "stimulus": "<p id=\"stim\">SLOPE</p>", "key_press": -1, "type": "PRES_VIS", "word": "slope", "wordID": 1327, "conditions": [12, 1600, "v", 12000], "trial": 4, "serialpos": 9, "trial_type": "single-stim", "trial_index": 166, "time_elapsed": 996931, "internal_node_id": "0.0-121.0"}}, {"uniqueid": "MTK0142:3KB8R4ZV1FE2BVZ7LGLW1434WNLBGH", "current_trial": 167, "dateTime": 1509293417863, "trialdata": {"rt": -1, "stimulus": "<p id=\"stim\">CROSS</p>", "key_press": -1, "type": "PRES_VIS", "word": "cross", "wordID": 412, "conditions": [12, 1600, "v", 12000], "trial": 4, "serialpos": 10, "trial_type": "single-stim", "trial_index": 167, "time_elapsed": 999679, "internal_node_id": "0.0-122.0"}}, {"uniqueid": "MTK0142:3KB8R4ZV1FE2BVZ7LGLW1434WNLBGH", "current_trial": 168, "dateTime": 1509293420359, "trialdata": {"rt": -1, "stimulus": "<p id=\"stim\">PLIERS</p>", "key_press": -1, "type": "PRES_VIS", "word": "pliers", "wordID": 1088, "conditions": [12, 1600, "v", 12000], "trial": 4, "serialpos": 11, "trial_type": "single-stim", "trial_index": 168, "time_elapsed": 1002175, "internal_node_id": "0.0-123.0"}}, {"uniqueid": "MTK0142:3KB8R4ZV1FE2BVZ7LGLW1434WNLBGH", "current_trial": 169, "dateTime": 1509293422720, "trialdata": {"rt": -1, "stimulus": "", "key_press": -1, "type": "PRE_RECALL_DELAY", "trial_type": "single-stim", "trial_index": 169, "time_elapsed": 1004536, "internal_node_id": "0.0-124.0-0.0"}}, {"uniqueid": "MTK0142:3KB8R4ZV1FE2BVZ7LGLW1434WNLBGH", "current_trial": 170, "dateTime": 1509293423222, "trialdata": {"rt": -1000, "stimulus": "/static/audio/400Hz.wav", "key_press": -1, "type": "PRE_RECALL_ALERT", "trial_type": "single-audio", "trial_index": 170, "time_elapsed": 1005037, "internal_node_id": "0.0-125.0"}}, {"uniqueid": "MTK0142:3KB8R4ZV1FE2BVZ7LGLW1434WNLBGH", "current_trial": 171, "dateTime": 1509293483232, "trialdata": {"rt": [6616, 10642, 17237, 22977, 26464, 29403, 33592, 47477, 47558, 48637], "recwords": ["antler", "partner", "pepper", "persley", "nightgown", "acorn", "scissors", "", "", ""], "type": "FREE_RECALL", "conditions": [12, 1600, "v", 12000], "trial": 4, "trial_type": "free-recall", "trial_index": 171, "time_elapsed": 1065043, "internal_node_id": "0.0-126.0-0.0"}}, {"uniqueid": "MTK0142:3KB8R4ZV1FE2BVZ7LGLW1434WNLBGH", "current_trial": 172, "dateTime": 1509293486996, "trialdata": {"rt": 1756, "key_press": 32, "type": "INSTRUCTIONS", "trial_type": "text", "trial_index": 172, "time_elapsed": 1068812, "internal_node_id": "0.0-127.0"}}, {"uniqueid": "MTK0142:3KB8R4ZV1FE2BVZ7LGLW1434WNLBGH", "current_trial": 173, "dateTime": 1509293513003, "trialdata": {"rt": [5196, 7980, 12324, 15620, 19116, 23716], "responses": ["13", "14", "16", "18", "12", "19"], "num1": [2, 4, 8, 5, 8, 7, 5], "num2": [5, 5, 6, 9, 1, 5, 3], "num3": [6, 5, 2, 4, 3, 7, 9], "type": "DISTRACTOR", "conditions": [24, 1600, "v", 24000], "trial": 5, "trial_type": "math-distractor", "trial_index": 173, "time_elapsed": 1094819, "internal_node_id": "0.0-128.0"}}, {"uniqueid": "MTK0142:3KB8R4ZV1FE2BVZ7LGLW1434WNLBGH", "current_trial": 174, "dateTime": 1509293516015, "trialdata": {"rt": -1, "stimulus": "<p id=\"stim\">10</p>", "key_press": -1, "trial_type": "single-stim", "trial_index": 174, "time_elapsed": 1097831, "internal_node_id": "0.0-129.0-0.0"}}, {"uniqueid": "MTK0142:3KB8R4ZV1FE2BVZ7LGLW1434WNLBGH", "current_trial": 175, "dateTime": 1509293517020, "trialdata": {"rt": -1, "stimulus": "<p id=\"stim\">9</p>", "key_press": -1, "trial_type": "single-stim", "trial_index": 175, "time_elapsed": 1098835, "internal_node_id": "0.0-129.0-1.0"}}, {"uniqueid": "MTK0142:3KB8R4ZV1FE2BVZ7LGLW1434WNLBGH", "current_trial": 176, "dateTime": 1509293518024, "trialdata": {"rt": -1, "stimulus": "<p id=\"stim\">8</p>", "key_press": -1, "trial_type": "single-stim", "trial_index": 176, "time_elapsed": 1099840, "internal_node_id": "0.0-129.0-2.0"}}, {"uniqueid": "MTK0142:3KB8R4ZV1FE2BVZ7LGLW1434WNLBGH", "current_trial": 177, "dateTime": 1509293519029, "trialdata": {"rt": -1, "stimulus": "<p id=\"stim\">7</p>", "key_press": -1, "trial_type": "single-stim", "trial_index": 177, "time_elapsed": 1100844, "internal_node_id": "0.0-129.0-3.0"}}, {"uniqueid": "MTK0142:3KB8R4ZV1FE2BVZ7LGLW1434WNLBGH", "current_trial": 178, "dateTime": 1509293520032, "trialdata": {"rt": -1, "stimulus": "<p id=\"stim\">6</p>", "key_press": -1, "trial_type": "single-stim", "trial_index": 178, "time_elapsed": 1101848, "internal_node_id": "0.0-129.0-4.0"}}, {"uniqueid": "MTK0142:3KB8R4ZV1FE2BVZ7LGLW1434WNLBGH", "current_trial": 179, "dateTime": 1509293521036, "trialdata": {"rt": -1, "stimulus": "<p id=\"stim\">5</p>", "key_press": -1, "trial_type": "single-stim", "trial_index": 179, "time_elapsed": 1102852, "internal_node_id": "0.0-129.0-5.0"}}, {"uniqueid": "MTK0142:3KB8R4ZV1FE2BVZ7LGLW1434WNLBGH", "current_trial": 180, "dateTime": 1509293522042, "trialdata": {"rt": -1, "stimulus": "<p id=\"stim\">4</p>", "key_press": -1, "trial_type": "single-stim", "trial_index": 180, "time_elapsed": 1103856, "internal_node_id": "0.0-129.0-6.0"}}, {"uniqueid": "MTK0142:3KB8R4ZV1FE2BVZ7LGLW1434WNLBGH", "current_trial": 181, "dateTime": 1509293523046, "trialdata": {"rt": -1, "stimulus": "<p id=\"stim\">3</p>", "key_press": -1, "trial_type": "single-stim", "trial_index": 181, "time_elapsed": 1104862, "internal_node_id": "0.0-129.0-7.0"}}, {"uniqueid": "MTK0142:3KB8R4ZV1FE2BVZ7LGLW1434WNLBGH", "current_trial": 182, "dateTime": 1509293524051, "trialdata": {"rt": -1, "stimulus": "<p id=\"stim\">2</p>", "key_press": -1, "trial_type": "single-stim", "trial_index": 182, "time_elapsed": 1105867, "internal_node_id": "0.0-129.0-8.0"}}, {"uniqueid": "MTK0142:3KB8R4ZV1FE2BVZ7LGLW1434WNLBGH", "current_trial": 183, "dateTime": 1509293525055, "trialdata": {"rt": -1, "stimulus": "<p id=\"stim\">1</p>", "key_press": -1, "trial_type": "single-stim", "trial_index": 183, "time_elapsed": 1106871, "internal_node_id": "0.0-129.0-9.0"}}, {"uniqueid": "MTK0142:3KB8R4ZV1FE2BVZ7LGLW1434WNLBGH", "current_trial": 184, "dateTime": 1509293526562, "trialdata": {"rt": -1, "stimulus": "<p id=\"stim\">+</p>", "key_press": -1, "type": "FIXATION", "trial_type": "single-stim", "trial_index": 184, "time_elapsed": 1108377, "internal_node_id": "0.0-130.0-0.0"}}, {"uniqueid": "MTK0142:3KB8R4ZV1FE2BVZ7LGLW1434WNLBGH", "current_trial": 185, "dateTime": 1509293528164, "trialdata": {"rt": -1, "stimulus": "<p id=\"stim\">GLOVE</p>", "key_press": -1, "type": "PRES_VIS", "word": "glove", "wordID": 641, "conditions": [24, 1600, "v", 24000], "trial": 5, "serialpos": 0, "trial_type": "single-stim", "trial_index": 185, "time_elapsed": 1109980, "internal_node_id": "0.0-131.0"}}, {"uniqueid": "MTK0142:3KB8R4ZV1FE2BVZ7LGLW1434WNLBGH", "current_trial": 186, "dateTime": 1509293530769, "trialdata": {"rt": -1, "stimulus": "<p id=\"stim\">BADGE</p>", "key_press": -1, "type": "PRES_VIS", "word": "badge", "wordID": 67, "conditions": [24, 1600, "v", 24000], "trial": 5, "serialpos": 1, "trial_type": "single-stim", "trial_index": 186, "time_elapsed": 1112585, "internal_node_id": "0.0-132.0"}}, {"uniqueid": "MTK0142:3KB8R4ZV1FE2BVZ7LGLW1434WNLBGH", "current_trial": 187, "dateTime": 1509293533179, "trialdata": {"rt": -1, "stimulus": "<p id=\"stim\">KNIFE</p>", "key_press": -1, "type": "PRES_VIS", "word": "knife", "wordID": 784, "conditions": [24, 1600, "v", 24000], "trial": 5, "serialpos": 2, "trial_type": "single-stim", "trial_index": 187, "time_elapsed": 1114995, "internal_node_id": "0.0-133.0"}}, {"uniqueid": "MTK0142:3KB8R4ZV1FE2BVZ7LGLW1434WNLBGH", "current_trial": 188, "dateTime": 1509293535763, "trialdata": {"rt": -1, "stimulus": "<p id=\"stim\">LAGOON</p>", "key_press": -1, "type": "PRES_VIS", "word": "lagoon", "wordID": 794, "conditions": [24, 1600, "v", 24000], "trial": 5, "serialpos": 3, "trial_type": "single-stim", "trial_index": 188, "time_elapsed": 1117579, "internal_node_id": "0.0-134.0"}}, {"uniqueid": "MTK0142:3KB8R4ZV1FE2BVZ7LGLW1434WNLBGH", "current_trial": 189, "dateTime": 1509293538548, "trialdata": {"rt": -1, "stimulus": "<p id=\"stim\">BEAST</p>", "key_press": -1, "type": "PRES_VIS", "word": "beast", "wordID": 107, "conditions": [24, 1600, "v", 24000], "trial": 5, "serialpos": 4, "trial_type": "single-stim", "trial_index": 189, "time_elapsed": 1120364, "internal_node_id": "0.0-135.0"}}, {"uniqueid": "MTK0142:3KB8R4ZV1FE2BVZ7LGLW1434WNLBGH", "current_trial": 190, "dateTime": 1509293541338, "trialdata": {"rt": -1, "stimulus": "<p id=\"stim\">MONSTER</p>", "key_press": -1, "type": "PRES_VIS", "word": "monster", "wordID": 911, "conditions": [24, 1600, "v", 24000], "trial": 5, "serialpos": 5, "trial_type": "single-stim", "trial_index": 190, "time_elapsed": 1123154, "internal_node_id": "0.0-136.0"}}, {"uniqueid": "MTK0142:3KB8R4ZV1FE2BVZ7LGLW1434WNLBGH", "current_trial": 191, "dateTime": 1509293544025, "trialdata": {"rt": -1, "stimulus": "<p id=\"stim\">CUSTARD</p>", "key_press": -1, "type": "PRES_VIS", "word": "custard", "wordID": 428, "conditions": [24, 1600, "v", 24000], "trial": 5, "serialpos": 6, "trial_type": "single-stim", "trial_index": 191, "time_elapsed": 1125841, "internal_node_id": "0.0-137.0"}}, {"uniqueid": "MTK0142:3KB8R4ZV1FE2BVZ7LGLW1434WNLBGH", "current_trial": 192, "dateTime": 1509293546743, "trialdata": {"rt": -1, "stimulus": "<p id=\"stim\">PASTRY</p>", "key_press": -1, "type": "PRES_VIS", "word": "pastry", "wordID": 1021, "conditions": [24, 1600, "v", 24000], "trial": 5, "serialpos": 7, "trial_type": "single-stim", "trial_index": 192, "time_elapsed": 1128558, "internal_node_id": "0.0-138.0"}}, {"uniqueid": "MTK0142:3KB8R4ZV1FE2BVZ7LGLW1434WNLBGH", "current_trial": 193, "dateTime": 1509293549500, "trialdata": {"rt": -1, "stimulus": "<p id=\"stim\">TROUT</p>", "key_press": -1, "type": "PRES_VIS", "word": "trout", "wordID": 1510, "conditions": [24, 1600, "v", 24000], "trial": 5, "serialpos": 8, "trial_type": "single-stim", "trial_index": 193, "time_elapsed": 1131316, "internal_node_id": "0.0-139.0"}}, {"uniqueid": "MTK0142:3KB8R4ZV1FE2BVZ7LGLW1434WNLBGH", "current_trial": 194, "dateTime": 1509293551953, "trialdata": {"rt": -1, "stimulus": "<p id=\"stim\">ZIPPER</p>", "key_press": -1, "type": "PRES_VIS", "word": "zipper", "wordID": 1635, "conditions": [24, 1600, "v", 24000], "trial": 5, "serialpos": 9, "trial_type": "single-stim", "trial_index": 194, "time_elapsed": 1133769, "internal_node_id": "0.0-140.0"}}, {"uniqueid": "MTK0142:3KB8R4ZV1FE2BVZ7LGLW1434WNLBGH", "current_trial": 195, "dateTime": 1509293554513, "trialdata": {"rt": -1, "stimulus": "<p id=\"stim\">PILOT</p>", "key_press": -1, "type": "PRES_VIS", "word": "pilot", "wordID": 1069, "conditions": [24, 1600, "v", 24000], "trial": 5, "serialpos": 10, "trial_type": "single-stim", "trial_index": 195, "time_elapsed": 1136329, "internal_node_id": "0.0-141.0"}}, {"uniqueid": "MTK0142:3KB8R4ZV1FE2BVZ7LGLW1434WNLBGH", "current_trial": 196, "dateTime": 1509293556948, "trialdata": {"rt": -1, "stimulus": "<p id=\"stim\">SHORTCAKE</p>", "key_press": -1, "type": "PRES_VIS", "word": "shortcake", "wordID": 1291, "conditions": [24, 1600, "v", 24000], "trial": 5, "serialpos": 11, "trial_type": "single-stim", "trial_index": 196, "time_elapsed": 1138763, "internal_node_id": "0.0-142.0"}}, {"uniqueid": "MTK0142:3KB8R4ZV1FE2BVZ7LGLW1434WNLBGH", "current_trial": 197, "dateTime": 1509293559592, "trialdata": {"rt": -1, "stimulus": "<p id=\"stim\">ACTRESS</p>", "key_press": -1, "type": "PRES_VIS", "word": "actress", "wordID": 5, "conditions": [24, 1600, "v", 24000], "trial": 5, "serialpos": 12, "trial_type": "single-stim", "trial_index": 197, "time_elapsed": 1141408, "internal_node_id": "0.0-143.0"}}, {"uniqueid": "MTK0142:3KB8R4ZV1FE2BVZ7LGLW1434WNLBGH", "current_trial": 198, "dateTime": 1509293562182, "trialdata": {"rt": -1, "stimulus": "<p id=\"stim\">COOKBOOK</p>", "key_press": -1, "type": "PRES_VIS", "word": "cookbook", "wordID": 372, "conditions": [24, 1600, "v", 24000], "trial": 5, "serialpos": 13, "trial_type": "single-stim", "trial_index": 198, "time_elapsed": 1143998, "internal_node_id": "0.0-144.0"}}, {"uniqueid": "MTK0142:3KB8R4ZV1FE2BVZ7LGLW1434WNLBGH", "current_trial": 199, "dateTime": 1509293564682, "trialdata": {"rt": -1, "stimulus": "<p id=\"stim\">EUROPE</p>", "key_press": -1, "type": "PRES_VIS", "word": "europe", "wordID": 540, "conditions": [24, 1600, "v", 24000], "trial": 5, "serialpos": 14, "trial_type": "single-stim", "trial_index": 199, "time_elapsed": 1146498, "internal_node_id": "0.0-145.0"}}, {"uniqueid": "MTK0142:3KB8R4ZV1FE2BVZ7LGLW1434WNLBGH", "current_trial": 200, "dateTime": 1509293567385, "trialdata": {"rt": -1, "stimulus": "<p id=\"stim\">CANAL</p>", "key_press": -1, "type": "PRES_VIS", "word": "canal", "wordID": 225, "conditions": [24, 1600, "v", 24000], "trial": 5, "serialpos": 15, "trial_type": "single-stim", "trial_index": 200, "time_elapsed": 1149201, "internal_node_id": "0.0-146.0"}}, {"uniqueid": "MTK0142:3KB8R4ZV1FE2BVZ7LGLW1434WNLBGH", "current_trial": 201, "dateTime": 1509293570001, "trialdata": {"rt": -1, "stimulus": "<p id=\"stim\">PASSAGE</p>", "key_press": -1, "type": "PRES_VIS", "word": "passage", "wordID": 1018, "conditions": [24, 1600, "v", 24000], "trial": 5, "serialpos": 16, "trial_type": "single-stim", "trial_index": 201, "time_elapsed": 1151817, "internal_node_id": "0.0-147.0"}}, {"uniqueid": "MTK0142:3KB8R4ZV1FE2BVZ7LGLW1434WNLBGH", "current_trial": 202, "dateTime": 1509293572444, "trialdata": {"rt": -1, "stimulus": "<p id=\"stim\">PECAN</p>", "key_press": -1, "type": "PRES_VIS", "word": "pecan", "wordID": 1035, "conditions": [24, 1600, "v", 24000], "trial": 5, "serialpos": 17, "trial_type": "single-stim", "trial_index": 202, "time_elapsed": 1154259, "internal_node_id": "0.0-148.0"}}, {"uniqueid": "MTK0142:3KB8R4ZV1FE2BVZ7LGLW1434WNLBGH", "current_trial": 203, "dateTime": 1509293574937, "trialdata": {"rt": -1, "stimulus": "<p id=\"stim\">WAITRESS</p>", "key_press": -1, "type": "PRES_VIS", "word": "waitress", "wordID": 1580, "conditions": [24, 1600, "v", 24000], "trial": 5, "serialpos": 18, "trial_type": "single-stim", "trial_index": 203, "time_elapsed": 1156753, "internal_node_id": "0.0-149.0"}}, {"uniqueid": "MTK0142:3KB8R4ZV1FE2BVZ7LGLW1434WNLBGH", "current_trial": 204, "dateTime": 1509293577624, "trialdata": {"rt": -1, "stimulus": "<p id=\"stim\">MAILMAN</p>", "key_press": -1, "type": "PRES_VIS", "word": "mailman", "wordID": 857, "conditions": [24, 1600, "v", 24000], "trial": 5, "serialpos": 19, "trial_type": "single-stim", "trial_index": 204, "time_elapsed": 1159440, "internal_node_id": "0.0-150.0"}}, {"uniqueid": "MTK0142:3KB8R4ZV1FE2BVZ7LGLW1434WNLBGH", "current_trial": 205, "dateTime": 1509293580064, "trialdata": {"rt": -1, "stimulus": "<p id=\"stim\">POPCORN</p>", "key_press": -1, "type": "PRES_VIS", "word": "popcorn", "wordID": 1103, "conditions": [24, 1600, "v", 24000], "trial": 5, "serialpos": 20, "trial_type": "single-stim", "trial_index": 205, "time_elapsed": 1161880, "internal_node_id": "0.0-151.0"}}, {"uniqueid": "MTK0142:3KB8R4ZV1FE2BVZ7LGLW1434WNLBGH", "current_trial": 206, "dateTime": 1509293582567, "trialdata": {"rt": -1, "stimulus": "<p id=\"stim\">SNACK</p>", "key_press": -1, "type": "PRES_VIS", "word": "snack", "wordID": 1330, "conditions": [24, 1600, "v", 24000], "trial": 5, "serialpos": 21, "trial_type": "single-stim", "trial_index": 206, "time_elapsed": 1164383, "internal_node_id": "0.0-152.0"}}, {"uniqueid": "MTK0142:3KB8R4ZV1FE2BVZ7LGLW1434WNLBGH", "current_trial": 207, "dateTime": 1509293585361, "trialdata": {"rt": -1, "stimulus": "<p id=\"stim\">SHORTS</p>", "key_press": -1, "type": "PRES_VIS", "word": "shorts", "wordID": 1292, "conditions": [24, 1600, "v", 24000], "trial": 5, "serialpos": 22, "trial_type": "single-stim", "trial_index": 207, "time_elapsed": 1167177, "internal_node_id": "0.0-153.0"}}, {"uniqueid": "MTK0142:3KB8R4ZV1FE2BVZ7LGLW1434WNLBGH", "current_trial": 208, "dateTime": 1509293588140, "trialdata": {"rt": -1, "stimulus": "<p id=\"stim\">PEANUT</p>", "key_press": -1, "type": "PRES_VIS", "word": "peanut", "wordID": 1031, "conditions": [24, 1600, "v", 24000], "trial": 5, "serialpos": 23, "trial_type": "single-stim", "trial_index": 208, "time_elapsed": 1169956, "internal_node_id": "0.0-154.0"}}, {"uniqueid": "MTK0142:3KB8R4ZV1FE2BVZ7LGLW1434WNLBGH", "current_trial": 209, "dateTime": 1509293590249, "trialdata": {"rt": -1, "stimulus": "", "key_press": -1, "type": "PRE_RECALL_DELAY", "trial_type": "single-stim", "trial_index": 209, "time_elapsed": 1172065, "internal_node_id": "0.0-155.0-0.0"}}, {"uniqueid": "MTK0142:3KB8R4ZV1FE2BVZ7LGLW1434WNLBGH", "current_trial": 210, "dateTime": 1509293590751, "trialdata": {"rt": -1000, "stimulus": "/static/audio/400Hz.wav", "key_press": -1, "type": "PRE_RECALL_ALERT", "trial_type": "single-audio", "trial_index": 210, "time_elapsed": 1172567, "internal_node_id": "0.0-156.0"}}, {"uniqueid": "MTK0142:3KB8R4ZV1FE2BVZ7LGLW1434WNLBGH", "current_trial": 211, "dateTime": 1509293650760, "trialdata": {"rt": [3481, 5239, 9791, 12465, 17511, 20111, 27355, 31313, 37133, 40469], "recwords": ["glove", "beast", "monster", "lagoon", "custer", "pecan", "penuts", "canal", "pass", "passway"], "type": "FREE_RECALL", "conditions": [24, 1600, "v", 24000], "trial": 5, "trial_type": "free-recall", "trial_index": 211, "time_elapsed": 1232572, "internal_node_id": "0.0-157.0-0.0"}}, {"uniqueid": "MTK0142:3KB8R4ZV1FE2BVZ7LGLW1434WNLBGH", "current_trial": 212, "dateTime": 1509293659714, "trialdata": {"rt": 6949, "key_press": 32, "type": "INSTRUCTIONS", "trial_type": "text", "trial_index": 212, "time_elapsed": 1241529, "internal_node_id": "0.0-158.0"}}, {"uniqueid": "MTK0142:3KB8R4ZV1FE2BVZ7LGLW1434WNLBGH", "current_trial": 213, "dateTime": 1509293673724, "trialdata": {"rt": [2288, 7466], "responses": ["5", "17"], "num1": [2, 1, 4], "num2": [2, 7, 9], "num3": [1, 9, 5], "type": "DISTRACTOR", "conditions": [24, 1600, "v", 12000], "trial": 6, "trial_type": "math-distractor", "trial_index": 213, "time_elapsed": 1255540, "internal_node_id": "0.0-159.0"}}, {"uniqueid": "MTK0142:3KB8R4ZV1FE2BVZ7LGLW1434WNLBGH", "current_trial": 214, "dateTime": 1509293676731, "trialdata": {"rt": -1, "stimulus": "<p id=\"stim\">10</p>", "key_press": -1, "trial_type": "single-stim", "trial_index": 214, "time_elapsed": 1258547, "internal_node_id": "0.0-160.0-0.0"}}, {"uniqueid": "MTK0142:3KB8R4ZV1FE2BVZ7LGLW1434WNLBGH", "current_trial": 215, "dateTime": 1509293677737, "trialdata": {"rt": -1, "stimulus": "<p id=\"stim\">9</p>", "key_press": -1, "trial_type": "single-stim", "trial_index": 215, "time_elapsed": 1259553, "internal_node_id": "0.0-160.0-1.0"}}, {"uniqueid": "MTK0142:3KB8R4ZV1FE2BVZ7LGLW1434WNLBGH", "current_trial": 216, "dateTime": 1509293678742, "trialdata": {"rt": -1, "stimulus": "<p id=\"stim\">8</p>", "key_press": -1, "trial_type": "single-stim", "trial_index": 216, "time_elapsed": 1260558, "internal_node_id": "0.0-160.0-2.0"}}, {"uniqueid": "MTK0142:3KB8R4ZV1FE2BVZ7LGLW1434WNLBGH", "current_trial": 217, "dateTime": 1509293679748, "trialdata": {"rt": -1, "stimulus": "<p id=\"stim\">7</p>", "key_press": -1, "trial_type": "single-stim", "trial_index": 217, "time_elapsed": 1261564, "internal_node_id": "0.0-160.0-3.0"}}, {"uniqueid": "MTK0142:3KB8R4ZV1FE2BVZ7LGLW1434WNLBGH", "current_trial": 218, "dateTime": 1509293680753, "trialdata": {"rt": -1, "stimulus": "<p id=\"stim\">6</p>", "key_press": -1, "trial_type": "single-stim", "trial_index": 218, "time_elapsed": 1262568, "internal_node_id": "0.0-160.0-4.0"}}, {"uniqueid": "MTK0142:3KB8R4ZV1FE2BVZ7LGLW1434WNLBGH", "current_trial": 219, "dateTime": 1509293681755, "trialdata": {"rt": -1, "stimulus": "<p id=\"stim\">5</p>", "key_press": -1, "trial_type": "single-stim", "trial_index": 219, "time_elapsed": 1263571, "internal_node_id": "0.0-160.0-5.0"}}, {"uniqueid": "MTK0142:3KB8R4ZV1FE2BVZ7LGLW1434WNLBGH", "current_trial": 220, "dateTime": 1509293682761, "trialdata": {"rt": -1, "stimulus": "<p id=\"stim\">4</p>", "key_press": -1, "trial_type": "single-stim", "trial_index": 220, "time_elapsed": 1264577, "internal_node_id": "0.0-160.0-6.0"}}, {"uniqueid": "MTK0142:3KB8R4ZV1FE2BVZ7LGLW1434WNLBGH", "current_trial": 221, "dateTime": 1509293683763, "trialdata": {"rt": -1, "stimulus": "<p id=\"stim\">3</p>", "key_press": -1, "trial_type": "single-stim", "trial_index": 221, "time_elapsed": 1265579, "internal_node_id": "0.0-160.0-7.0"}}, {"uniqueid": "MTK0142:3KB8R4ZV1FE2BVZ7LGLW1434WNLBGH", "current_trial": 222, "dateTime": 1509293684768, "trialdata": {"rt": -1, "stimulus": "<p id=\"stim\">2</p>", "key_press": -1, "trial_type": "single-stim", "trial_index": 222, "time_elapsed": 1266583, "internal_node_id": "0.0-160.0-8.0"}}, {"uniqueid": "MTK0142:3KB8R4ZV1FE2BVZ7LGLW1434WNLBGH", "current_trial": 223, "dateTime": 1509293685773, "trialdata": {"rt": -1, "stimulus": "<p id=\"stim\">1</p>", "key_press": -1, "trial_type": "single-stim", "trial_index": 223, "time_elapsed": 1267589, "internal_node_id": "0.0-160.0-9.0"}}, {"uniqueid": "MTK0142:3KB8R4ZV1FE2BVZ7LGLW1434WNLBGH", "current_trial": 224, "dateTime": 1509293687274, "trialdata": {"rt": -1, "stimulus": "<p id=\"stim\">+</p>", "key_press": -1, "type": "FIXATION", "trial_type": "single-stim", "trial_index": 224, "time_elapsed": 1269090, "internal_node_id": "0.0-161.0-0.0"}}, {"uniqueid": "MTK0142:3KB8R4ZV1FE2BVZ7LGLW1434WNLBGH", "current_trial": 225, "dateTime": 1509293688877, "trialdata": {"rt": -1, "stimulus": "<p id=\"stim\">ACTOR</p>", "key_press": -1, "type": "PRES_VIS", "word": "actor", "wordID": 4, "conditions": [24, 1600, "v", 12000], "trial": 6, "serialpos": 0, "trial_type": "single-stim", "trial_index": 225, "time_elapsed": 1270692, "internal_node_id": "0.0-162.0"}}, {"uniqueid": "MTK0142:3KB8R4ZV1FE2BVZ7LGLW1434WNLBGH", "current_trial": 226, "dateTime": 1509293691644, "trialdata": {"rt": -1, "stimulus": "<p id=\"stim\">SCARECROW</p>", "key_press": -1, "type": "PRES_VIS", "word": "scarecrow", "wordID": 1244, "conditions": [24, 1600, "v", 12000], "trial": 6, "serialpos": 1, "trial_type": "single-stim", "trial_index": 226, "time_elapsed": 1273460, "internal_node_id": "0.0-163.0"}}, {"uniqueid": "MTK0142:3KB8R4ZV1FE2BVZ7LGLW1434WNLBGH", "current_trial": 227, "dateTime": 1509293694364, "trialdata": {"rt": -1, "stimulus": "<p id=\"stim\">OYSTER</p>", "key_press": -1, "type": "PRES_VIS", "word": "oyster", "wordID": 994, "conditions": [24, 1600, "v", 12000], "trial": 6, "serialpos": 2, "trial_type": "single-stim", "trial_index": 227, "time_elapsed": 1276180, "internal_node_id": "0.0-164.0"}}, {"uniqueid": "MTK0142:3KB8R4ZV1FE2BVZ7LGLW1434WNLBGH", "current_trial": 228, "dateTime": 1509293696992, "trialdata": {"rt": -1, "stimulus": "<p id=\"stim\">PLAYGROUND</p>", "key_press": -1, "type": "PRES_VIS", "word": "playground", "wordID": 1086, "conditions": [24, 1600, "v", 12000], "trial": 6, "serialpos": 3, "trial_type": "single-stim", "trial_index": 228, "time_elapsed": 1278808, "internal_node_id": "0.0-165.0"}}, {"uniqueid": "MTK0142:3KB8R4ZV1FE2BVZ7LGLW1434WNLBGH", "current_trial": 229, "dateTime": 1509293699718, "trialdata": {"rt": -1, "stimulus": "<p id=\"stim\">FRANCE</p>", "key_press": -1, "type": "PRES_VIS", "word": "france", "wordID": 600, "conditions": [24, 1600, "v", 12000], "trial": 6, "serialpos": 4, "trial_type": "single-stim", "trial_index": 229, "time_elapsed": 1281534, "internal_node_id": "0.0-166.0"}}, {"uniqueid": "MTK0142:3KB8R4ZV1FE2BVZ7LGLW1434WNLBGH", "current_trial": 230, "dateTime": 1509293702391, "trialdata": {"rt": -1, "stimulus": "<p id=\"stim\">JAPAN</p>", "key_press": -1, "type": "PRES_VIS", "word": "japan", "wordID": 748, "conditions": [24, 1600, "v", 12000], "trial": 6, "serialpos": 5, "trial_type": "single-stim", "trial_index": 230, "time_elapsed": 1284207, "internal_node_id": "0.0-167.0"}}, {"uniqueid": "MTK0142:3KB8R4ZV1FE2BVZ7LGLW1434WNLBGH", "current_trial": 231, "dateTime": 1509293705020, "trialdata": {"rt": -1, "stimulus": "<p id=\"stim\">STALLION</p>", "key_press": -1, "type": "PRES_VIS", "word": "stallion", "wordID": 1368, "conditions": [24, 1600, "v", 12000], "trial": 6, "serialpos": 6, "trial_type": "single-stim", "trial_index": 231, "time_elapsed": 1286836, "internal_node_id": "0.0-168.0"}}, {"uniqueid": "MTK0142:3KB8R4ZV1FE2BVZ7LGLW1434WNLBGH", "current_trial": 232, "dateTime": 1509293707433, "trialdata": {"rt": -1, "stimulus": "<p id=\"stim\">BRICK</p>", "key_press": -1, "type": "PRES_VIS", "word": "brick", "wordID": 171, "conditions": [24, 1600, "v", 12000], "trial": 6, "serialpos": 7, "trial_type": "single-stim", "trial_index": 232, "time_elapsed": 1289249, "internal_node_id": "0.0-169.0"}}, {"uniqueid": "MTK0142:3KB8R4ZV1FE2BVZ7LGLW1434WNLBGH", "current_trial": 233, "dateTime": 1509293709977, "trialdata": {"rt": -1, "stimulus": "<p id=\"stim\">FRIEND</p>", "key_press": -1, "type": "PRES_VIS", "word": "friend", "wordID": 605, "conditions": [24, 1600, "v", 12000], "trial": 6, "serialpos": 8, "trial_type": "single-stim", "trial_index": 233, "time_elapsed": 1291793, "internal_node_id": "0.0-170.0"}}, {"uniqueid": "MTK0142:3KB8R4ZV1FE2BVZ7LGLW1434WNLBGH", "current_trial": 234, "dateTime": 1509293712580, "trialdata": {"rt": -1, "stimulus": "<p id=\"stim\">STOMACH</p>", "key_press": -1, "type": "PRES_VIS", "word": "stomach", "wordID": 1383, "conditions": [24, 1600, "v", 12000], "trial": 6, "serialpos": 9, "trial_type": "single-stim", "trial_index": 234, "time_elapsed": 1294395, "internal_node_id": "0.0-171.0"}}, {"uniqueid": "MTK0142:3KB8R4ZV1FE2BVZ7LGLW1434WNLBGH", "current_trial": 235, "dateTime": 1509293715034, "trialdata": {"rt": -1, "stimulus": "<p id=\"stim\">SALMON</p>", "key_press": -1, "type": "PRES_VIS", "word": "salmon", "wordID": 1226, "conditions": [24, 1600, "v", 12000], "trial": 6, "serialpos": 10, "trial_type": "single-stim", "trial_index": 235, "time_elapsed": 1296850, "internal_node_id": "0.0-172.0"}}, {"uniqueid": "MTK0142:3KB8R4ZV1FE2BVZ7LGLW1434WNLBGH", "current_trial": 236, "dateTime": 1509293717643, "trialdata": {"rt": -1, "stimulus": "<p id=\"stim\">HOOD</p>", "key_press": -1, "type": "PRES_VIS", "word": "hood", "wordID": 713, "conditions": [24, 1600, "v", 12000], "trial": 6, "serialpos": 11, "trial_type": "single-stim", "trial_index": 236, "time_elapsed": 1299459, "internal_node_id": "0.0-173.0"}}, {"uniqueid": "MTK0142:3KB8R4ZV1FE2BVZ7LGLW1434WNLBGH", "current_trial": 237, "dateTime": 1509293720139, "trialdata": {"rt": -1, "stimulus": "<p id=\"stim\">FOOTBALL</p>", "key_press": -1, "type": "PRES_VIS", "word": "football", "wordID": 590, "conditions": [24, 1600, "v", 12000], "trial": 6, "serialpos": 12, "trial_type": "single-stim", "trial_index": 237, "time_elapsed": 1301955, "internal_node_id": "0.0-174.0"}}, {"uniqueid": "MTK0142:3KB8R4ZV1FE2BVZ7LGLW1434WNLBGH", "current_trial": 238, "dateTime": 1509293722742, "trialdata": {"rt": -1, "stimulus": "<p id=\"stim\">FIREMAN</p>", "key_press": -1, "type": "PRES_VIS", "word": "fireman", "wordID": 568, "conditions": [24, 1600, "v", 12000], "trial": 6, "serialpos": 13, "trial_type": "single-stim", "trial_index": 238, "time_elapsed": 1304558, "internal_node_id": "0.0-175.0"}}, {"uniqueid": "MTK0142:3KB8R4ZV1FE2BVZ7LGLW1434WNLBGH", "current_trial": 239, "dateTime": 1509293725438, "trialdata": {"rt": -1, "stimulus": "<p id=\"stim\">WRIST</p>", "key_press": -1, "type": "PRES_VIS", "word": "wrist", "wordID": 1625, "conditions": [24, 1600, "v", 12000], "trial": 6, "serialpos": 14, "trial_type": "single-stim", "trial_index": 239, "time_elapsed": 1307254, "internal_node_id": "0.0-176.0"}}, {"uniqueid": "MTK0142:3KB8R4ZV1FE2BVZ7LGLW1434WNLBGH", "current_trial": 240, "dateTime": 1509293728100, "trialdata": {"rt": -1, "stimulus": "<p id=\"stim\">BUGGY</p>", "key_press": -1, "type": "PRES_VIS", "word": "buggy", "wordID": 187, "conditions": [24, 1600, "v", 12000], "trial": 6, "serialpos": 15, "trial_type": "single-stim", "trial_index": 240, "time_elapsed": 1309916, "internal_node_id": "0.0-177.0"}}, {"uniqueid": "MTK0142:3KB8R4ZV1FE2BVZ7LGLW1434WNLBGH", "current_trial": 241, "dateTime": 1509293730768, "trialdata": {"rt": -1, "stimulus": "<p id=\"stim\">ISLAND</p>", "key_press": -1, "type": "PRES_VIS", "word": "island", "wordID": 744, "conditions": [24, 1600, "v", 12000], "trial": 6, "serialpos": 16, "trial_type": "single-stim", "trial_index": 241, "time_elapsed": 1312584, "internal_node_id": "0.0-178.0"}}, {"uniqueid": "MTK0142:3KB8R4ZV1FE2BVZ7LGLW1434WNLBGH", "current_trial": 242, "dateTime": 1509293733468, "trialdata": {"rt": -1, "stimulus": "<p id=\"stim\">STOVE</p>", "key_press": -1, "type": "PRES_VIS", "word": "stove", "wordID": 1387, "conditions": [24, 1600, "v", 12000], "trial": 6, "serialpos": 17, "trial_type": "single-stim", "trial_index": 242, "time_elapsed": 1315284, "internal_node_id": "0.0-179.0"}}, {"uniqueid": "MTK0142:3KB8R4ZV1FE2BVZ7LGLW1434WNLBGH", "current_trial": 243, "dateTime": 1509293736268, "trialdata": {"rt": -1, "stimulus": "<p id=\"stim\">SUMMIT</p>", "key_press": -1, "type": "PRES_VIS", "word": "summit", "wordID": 1404, "conditions": [24, 1600, "v", 12000], "trial": 6, "serialpos": 18, "trial_type": "single-stim", "trial_index": 243, "time_elapsed": 1318084, "internal_node_id": "0.0-180.0"}}, {"uniqueid": "MTK0142:3KB8R4ZV1FE2BVZ7LGLW1434WNLBGH", "current_trial": 244, "dateTime": 1509293738681, "trialdata": {"rt": -1, "stimulus": "<p id=\"stim\">ELBOW</p>", "key_press": -1, "type": "PRES_VIS", "word": "elbow", "wordID": 519, "conditions": [24, 1600, "v", 12000], "trial": 6, "serialpos": 19, "trial_type": "single-stim", "trial_index": 244, "time_elapsed": 1320497, "internal_node_id": "0.0-181.0"}}, {"uniqueid": "MTK0142:3KB8R4ZV1FE2BVZ7LGLW1434WNLBGH", "current_trial": 245, "dateTime": 1509293741155, "trialdata": {"rt": -1, "stimulus": "<p id=\"stim\">ASIA</p>", "key_press": -1, "type": "PRES_VIS", "word": "asia", "wordID": 45, "conditions": [24, 1600, "v", 12000], "trial": 6, "serialpos": 20, "trial_type": "single-stim", "trial_index": 245, "time_elapsed": 1322971, "internal_node_id": "0.0-182.0"}}, {"uniqueid": "MTK0142:3KB8R4ZV1FE2BVZ7LGLW1434WNLBGH", "current_trial": 246, "dateTime": 1509293743648, "trialdata": {"rt": -1, "stimulus": "<p id=\"stim\">POSSUM</p>", "key_press": -1, "type": "PRES_VIS", "word": "possum", "wordID": 1111, "conditions": [24, 1600, "v", 12000], "trial": 6, "serialpos": 21, "trial_type": "single-stim", "trial_index": 246, "time_elapsed": 1325464, "internal_node_id": "0.0-183.0"}}, {"uniqueid": "MTK0142:3KB8R4ZV1FE2BVZ7LGLW1434WNLBGH", "current_trial": 247, "dateTime": 1509293746056, "trialdata": {"rt": -1, "stimulus": "<p id=\"stim\">SNAKE</p>", "key_press": -1, "type": "PRES_VIS", "word": "snake", "wordID": 1332, "conditions": [24, 1600, "v", 12000], "trial": 6, "serialpos": 22, "trial_type": "single-stim", "trial_index": 247, "time_elapsed": 1327872, "internal_node_id": "0.0-184.0"}}, {"uniqueid": "MTK0142:3KB8R4ZV1FE2BVZ7LGLW1434WNLBGH", "current_trial": 248, "dateTime": 1509293748761, "trialdata": {"rt": -1, "stimulus": "<p id=\"stim\">BLUEPRINT</p>", "key_press": -1, "type": "PRES_VIS", "word": "blueprint", "wordID": 141, "conditions": [24, 1600, "v", 12000], "trial": 6, "serialpos": 23, "trial_type": "single-stim", "trial_index": 248, "time_elapsed": 1330577, "internal_node_id": "0.0-185.0"}}, {"uniqueid": "MTK0142:3KB8R4ZV1FE2BVZ7LGLW1434WNLBGH", "current_trial": 249, "dateTime": 1509293751150, "trialdata": {"rt": -1, "stimulus": "", "key_press": -1, "type": "PRE_RECALL_DELAY", "trial_type": "single-stim", "trial_index": 249, "time_elapsed": 1332966, "internal_node_id": "0.0-186.0-0.0"}}, {"uniqueid": "MTK0142:3KB8R4ZV1FE2BVZ7LGLW1434WNLBGH", "current_trial": 250, "dateTime": 1509293751652, "trialdata": {"rt": -1000, "stimulus": "/static/audio/400Hz.wav", "key_press": -1, "type": "PRE_RECALL_ALERT", "trial_type": "single-audio", "trial_index": 250, "time_elapsed": 1333468, "internal_node_id": "0.0-187.0"}}, {"uniqueid": "MTK0142:3KB8R4ZV1FE2BVZ7LGLW1434WNLBGH", "current_trial": 251, "dateTime": 1509293811665, "trialdata": {"rt": [17300, 22192, 29367, 33292, 38912, 53527, 57337], "recwords": ["oyster", "actor", "scarecrow", "platground", "playground", "japan", "french"], "type": "FREE_RECALL", "conditions": [24, 1600, "v", 12000], "trial": 6, "trial_type": "free-recall", "trial_index": 251, "time_elapsed": 1393475, "internal_node_id": "0.0-188.0-0.0"}}, {"uniqueid": "MTK0142:3KB8R4ZV1FE2BVZ7LGLW1434WNLBGH", "current_trial": 252, "dateTime": 1509293814990, "trialdata": {"rt": 1320, "key_press": 32, "type": "INSTRUCTIONS", "trial_type": "text", "trial_index": 252, "time_elapsed": 1396805, "internal_node_id": "0.0-189.0"}}, {"uniqueid": "MTK0142:3KB8R4ZV1FE2BVZ7LGLW1434WNLBGH", "current_trial": 253, "dateTime": 1509293841001, "trialdata": {"rt": [5095, 7839, 11831, 15194, 20732], "responses": ["9", "14", "19", "16", "15"], "num1": [2, 5, 7, 1, 4, 7], "num2": [6, 5, 9, 6, 8, 1], "num3": [1, 4, 3, 9, 3, 5], "type": "DISTRACTOR", "conditions": [12, 1600, "v", 24000], "trial": 7, "trial_type": "math-distractor", "trial_index": 253, "time_elapsed": 1422817, "internal_node_id": "0.0-190.0"}}, {"uniqueid": "MTK0142:3KB8R4ZV1FE2BVZ7LGLW1434WNLBGH", "current_trial": 254, "dateTime": 1509293844009, "trialdata": {"rt": -1, "stimulus": "<p id=\"stim\">10</p>", "key_press": -1, "trial_type": "single-stim", "trial_index": 254, "time_elapsed": 1425825, "internal_node_id": "0.0-191.0-0.0"}}, {"uniqueid": "MTK0142:3KB8R4ZV1FE2BVZ7LGLW1434WNLBGH", "current_trial": 255, "dateTime": 1509293845011, "trialdata": {"rt": -1, "stimulus": "<p id=\"stim\">9</p>", "key_press": -1, "trial_type": "single-stim", "trial_index": 255, "time_elapsed": 1426827, "internal_node_id": "0.0-191.0-1.0"}}, {"uniqueid": "MTK0142:3KB8R4ZV1FE2BVZ7LGLW1434WNLBGH", "current_trial": 256, "dateTime": 1509293846015, "trialdata": {"rt": -1, "stimulus": "<p id=\"stim\">8</p>", "key_press": -1, "trial_type": "single-stim", "trial_index": 256, "time_elapsed": 1427831, "internal_node_id": "0.0-191.0-2.0"}}, {"uniqueid": "MTK0142:3KB8R4ZV1FE2BVZ7LGLW1434WNLBGH", "current_trial": 257, "dateTime": 1509293847020, "trialdata": {"rt": -1, "stimulus": "<p id=\"stim\">7</p>", "key_press": -1, "trial_type": "single-stim", "trial_index": 257, "time_elapsed": 1428836, "internal_node_id": "0.0-191.0-3.0"}}, {"uniqueid": "MTK0142:3KB8R4ZV1FE2BVZ7LGLW1434WNLBGH", "current_trial": 258, "dateTime": 1509293848026, "trialdata": {"rt": -1, "stimulus": "<p id=\"stim\">6</p>", "key_press": -1, "trial_type": "single-stim", "trial_index": 258, "time_elapsed": 1429842, "internal_node_id": "0.0-191.0-4.0"}}, {"uniqueid": "MTK0142:3KB8R4ZV1FE2BVZ7LGLW1434WNLBGH", "current_trial": 259, "dateTime": 1509293849031, "trialdata": {"rt": -1, "stimulus": "<p id=\"stim\">5</p>", "key_press": -1, "trial_type": "single-stim", "trial_index": 259, "time_elapsed": 1430847, "internal_node_id": "0.0-191.0-5.0"}}, {"uniqueid": "MTK0142:3KB8R4ZV1FE2BVZ7LGLW1434WNLBGH", "current_trial": 260, "dateTime": 1509293850041, "trialdata": {"rt": -1, "stimulus": "<p id=\"stim\">4</p>", "key_press": -1, "trial_type": "single-stim", "trial_index": 260, "time_elapsed": 1431856, "internal_node_id": "0.0-191.0-6.0"}}, {"uniqueid": "MTK0142:3KB8R4ZV1FE2BVZ7LGLW1434WNLBGH", "current_trial": 261, "dateTime": 1509293851050, "trialdata": {"rt": -1, "stimulus": "<p id=\"stim\">3</p>", "key_press": -1, "trial_type": "single-stim", "trial_index": 261, "time_elapsed": 1432866, "internal_node_id": "0.0-191.0-7.0"}}, {"uniqueid": "MTK0142:3KB8R4ZV1FE2BVZ7LGLW1434WNLBGH", "current_trial": 262, "dateTime": 1509293852055, "trialdata": {"rt": -1, "stimulus": "<p id=\"stim\">2</p>", "key_press": -1, "trial_type": "single-stim", "trial_index": 262, "time_elapsed": 1433870, "internal_node_id": "0.0-191.0-8.0"}}, {"uniqueid": "MTK0142:3KB8R4ZV1FE2BVZ7LGLW1434WNLBGH", "current_trial": 263, "dateTime": 1509293853060, "trialdata": {"rt": -1, "stimulus": "<p id=\"stim\">1</p>", "key_press": -1, "trial_type": "single-stim", "trial_index": 263, "time_elapsed": 1434876, "internal_node_id": "0.0-191.0-9.0"}}, {"uniqueid": "MTK0142:3KB8R4ZV1FE2BVZ7LGLW1434WNLBGH", "current_trial": 264, "dateTime": 1509293854566, "trialdata": {"rt": -1, "stimulus": "<p id=\"stim\">+</p>", "key_press": -1, "type": "FIXATION", "trial_type": "single-stim", "trial_index": 264, "time_elapsed": 1436382, "internal_node_id": "0.0-192.0-0.0"}}, {"uniqueid": "MTK0142:3KB8R4ZV1FE2BVZ7LGLW1434WNLBGH", "current_trial": 265, "dateTime": 1509293856172, "trialdata": {"rt": -1, "stimulus": "<p id=\"stim\">CLAM</p>", "key_press": -1, "type": "PRES_VIS", "word": "clam", "wordID": 314, "conditions": [12, 1600, "v", 24000], "trial": 7, "serialpos": 0, "trial_type": "single-stim", "trial_index": 265, "time_elapsed": 1437988, "internal_node_id": "0.0-193.0"}}, {"uniqueid": "MTK0142:3KB8R4ZV1FE2BVZ7LGLW1434WNLBGH", "current_trial": 266, "dateTime": 1509293858766, "trialdata": {"rt": -1, "stimulus": "<p id=\"stim\">CABIN</p>", "key_press": -1, "type": "PRES_VIS", "word": "cabin", "wordID": 210, "conditions": [12, 1600, "v", 24000], "trial": 7, "serialpos": 1, "trial_type": "single-stim", "trial_index": 266, "time_elapsed": 1440582, "internal_node_id": "0.0-194.0"}}, {"uniqueid": "MTK0142:3KB8R4ZV1FE2BVZ7LGLW1434WNLBGH", "current_trial": 267, "dateTime": 1509293861460, "trialdata": {"rt": -1, "stimulus": "<p id=\"stim\">BLENDER</p>", "key_press": -1, "type": "PRES_VIS", "word": "blender", "wordID": 135, "conditions": [12, 1600, "v", 24000], "trial": 7, "serialpos": 2, "trial_type": "single-stim", "trial_index": 267, "time_elapsed": 1443276, "internal_node_id": "0.0-195.0"}}, {"uniqueid": "MTK0142:3KB8R4ZV1FE2BVZ7LGLW1434WNLBGH", "current_trial": 268, "dateTime": 1509293863914, "trialdata": {"rt": -1, "stimulus": "<p id=\"stim\">PADDLE</p>", "key_press": -1, "type": "PRES_VIS", "word": "paddle", "wordID": 999, "conditions": [12, 1600, "v", 24000], "trial": 7, "serialpos": 3, "trial_type": "single-stim", "trial_index": 268, "time_elapsed": 1445730, "internal_node_id": "0.0-196.0"}}, {"uniqueid": "MTK0142:3KB8R4ZV1FE2BVZ7LGLW1434WNLBGH", "current_trial": 269, "dateTime": 1509293866487, "trialdata": {"rt": -1, "stimulus": "<p id=\"stim\">POLICE</p>", "key_press": -1, "type": "PRES_VIS", "word": "police", "wordID": 1097, "conditions": [12, 1600, "v", 24000], "trial": 7, "serialpos": 4, "trial_type": "single-stim", "trial_index": 269, "time_elapsed": 1448303, "internal_node_id": "0.0-197.0"}}, {"uniqueid": "MTK0142:3KB8R4ZV1FE2BVZ7LGLW1434WNLBGH", "current_trial": 270, "dateTime": 1509293869036, "trialdata": {"rt": -1, "stimulus": "<p id=\"stim\">TURNIP</p>", "key_press": -1, "type": "PRES_VIS", "word": "turnip", "wordID": 1520, "conditions": [12, 1600, "v", 24000], "trial": 7, "serialpos": 5, "trial_type": "single-stim", "trial_index": 270, "time_elapsed": 1450852, "internal_node_id": "0.0-198.0"}}, {"uniqueid": "MTK0142:3KB8R4ZV1FE2BVZ7LGLW1434WNLBGH", "current_trial": 271, "dateTime": 1509293871552, "trialdata": {"rt": -1, "stimulus": "<p id=\"stim\">COCOON</p>", "key_press": -1, "type": "PRES_VIS", "word": "cocoon", "wordID": 338, "conditions": [12, 1600, "v", 24000], "trial": 7, "serialpos": 6, "trial_type": "single-stim", "trial_index": 271, "time_elapsed": 1453368, "internal_node_id": "0.0-199.0"}}, {"uniqueid": "MTK0142:3KB8R4ZV1FE2BVZ7LGLW1434WNLBGH", "current_trial": 272, "dateTime": 1509293874001, "trialdata": {"rt": -1, "stimulus": "<p id=\"stim\">LUNCH</p>", "key_press": -1, "type": "PRES_VIS", "word": "lunch", "wordID": 848, "conditions": [12, 1600, "v", 24000], "trial": 7, "serialpos": 7, "trial_type": "single-stim", "trial_index": 272, "time_elapsed": 1455817, "internal_node_id": "0.0-200.0"}}, {"uniqueid": "MTK0142:3KB8R4ZV1FE2BVZ7LGLW1434WNLBGH", "current_trial": 273, "dateTime": 1509293876604, "trialdata": {"rt": -1, "stimulus": "<p id=\"stim\">SPOON</p>", "