{"condition": 0, "counterbalance": 163, "assignmentId": "3QILPRALQ62PJPIM58EH0MM0TI5N83", "workerId": "MTK0870", "hitId": "3HFWPF5AK9QYBL6RBLV5JFSBKN1S31", "currenttrial": 626, "bonus": 0, "data": [{"uniqueid": "MTK0870:3QILPRALQ62PJPIM58EH0MM0TI5N83", "current_trial": 0, "dateTime": 1512855158781, "trialdata": {"rt": 1343, "key_press": 32, "type": "INSTRUCTIONS", "trial_type": "text", "trial_index": 0, "time_elapsed": 1348, "internal_node_id": "0.0-0.0"}}, {"uniqueid": "MTK0870:3QILPRALQ62PJPIM58EH0MM0TI5N83", "current_trial": 1, "dateTime": 1512855242250, "trialdata": {"rt": 83466, "key_press": 32, "type": "INSTRUCTIONS", "trial_type": "text", "trial_index": 1, "time_elapsed": 84819, "internal_node_id": "0.0-1.0"}}, {"uniqueid": "MTK0870:3QILPRALQ62PJPIM58EH0MM0TI5N83", "current_trial": 2, "dateTime": 1512855254157, "trialdata": {"rt": [11893], "responses": ["ocean"], "type": "AUDIO_TEST", "trial_type": "audio-test", "trial_index": 2, "time_elapsed": 96726, "internal_node_id": "0.0-2.0"}}, {"uniqueid": "MTK0870:3QILPRALQ62PJPIM58EH0MM0TI5N83", "current_trial": 3, "dateTime": 1512855258534, "trialdata": {"rt": [4372], "responses": ["crystal"], "type": "AUDIO_TEST", "trial_type": "audio-test", "trial_index": 3, "time_elapsed": 101103, "internal_node_id": "0.0-3.0"}}, {"uniqueid": "MTK0870:3QILPRALQ62PJPIM58EH0MM0TI5N83", "current_trial": 4, "dateTime": 1512855262399, "trialdata": {"rt": [3862], "responses": ["spice"], "type": "AUDIO_TEST", "trial_type": "audio-test", "trial_index": 4, "time_elapsed": 104968, "internal_node_id": "0.0-4.0"}}, {"uniqueid": "MTK0870:3QILPRALQ62PJPIM58EH0MM0TI5N83", "current_trial": 5, "dateTime": 1512855287551, "trialdata": {"rt": 24396, "responses": "{\"Q0\":\"3:00 am\",\"Q1\":\"10:00 am\",\"Q2\":\"3\"}", "type": "SLEEP_SURVEY", "trial_type": "survey-text", "trial_index": 5, "time_elapsed": 130120, "internal_node_id": "0.0-5.0"}}, {"uniqueid": "MTK0870:3QILPRALQ62PJPIM58EH0MM0TI5N83", "current_trial": 6, "dateTime": 1512855339155, "trialdata": {"rt": 50600, "key_press": 32, "type": "INSTRUCTIONS", "trial_type": "text", "trial_index": 6, "time_elapsed": 181724, "internal_node_id": "0.0-6.0"}}, {"uniqueid": "MTK0870:3QILPRALQ62PJPIM58EH0MM0TI5N83", "current_trial": 7, "dateTime": 1512855368245, "trialdata": {"rt": 28584, "key_press": 32, "type": "INSTRUCTIONS", "trial_type": "text", "trial_index": 7, "time_elapsed": 210814, "internal_node_id": "0.0-7.0"}}, {"uniqueid": "MTK0870:3QILPRALQ62PJPIM58EH0MM0TI5N83", "current_trial": 8, "dateTime": 1512855378264, "trialdata": {"rt": 9516, "key_press": 32, "type": "INSTRUCTIONS", "trial_type": "text", "trial_index": 8, "time_elapsed": 220833, "internal_node_id": "0.0-8.0"}}, {"uniqueid": "MTK0870:3QILPRALQ62PJPIM58EH0MM0TI5N83", "current_trial": 9, "dateTime": 1512855397280, "trialdata": {"rt": [2247, 4663, 6130, 7584, 9775, 11339, 14175, 15611, 17527], "responses": ["16", "9", "15", "13", "14", "18", "12", "13", "14"], "num1": [8, 4, 1, 6, 9, 3, 5, 6, 4, 1], "num2": [3, 4, 5, 6, 2, 8, 6, 4, 4, 8], "num3": [5, 1, 9, 1, 3, 7, 1, 3, 6, 7], "type": "DISTRACTOR", "conditions": [18, 1200, "v", 18000], "trial": 0, "trial_type": "math-distractor", "trial_index": 9, "time_elapsed": 239849, "internal_node_id": "0.0-9.0"}}, {"uniqueid": "MTK0870:3QILPRALQ62PJPIM58EH0MM0TI5N83", "current_trial": 10, "dateTime": 1512855400292, "trialdata": {"rt": -1, "stimulus": "<p id=\"stim\">10</p>", "key_press": -1, "trial_type": "single-stim", "trial_index": 10, "time_elapsed": 242861, "internal_node_id": "0.0-10.0-0.0"}}, {"uniqueid": "MTK0870:3QILPRALQ62PJPIM58EH0MM0TI5N83", "current_trial": 11, "dateTime": 1512855401295, "trialdata": {"rt": -1, "stimulus": "<p id=\"stim\">9</p>", "key_press": -1, "trial_type": "single-stim", "trial_index": 11, "time_elapsed": 243864, "internal_node_id": "0.0-10.0-1.0"}}, {"uniqueid": "MTK0870:3QILPRALQ62PJPIM58EH0MM0TI5N83", "current_trial": 12, "dateTime": 1512855402302, "trialdata": {"rt": -1, "stimulus": "<p id=\"stim\">8</p>", "key_press": -1, "trial_type": "single-stim", "trial_index": 12, "time_elapsed": 244871, "internal_node_id": "0.0-10.0-2.0"}}, {"uniqueid": "MTK0870:3QILPRALQ62PJPIM58EH0MM0TI5N83", "current_trial": 13, "dateTime": 1512855403308, "trialdata": {"rt": -1, "stimulus": "<p id=\"stim\">7</p>", "key_press": -1, "trial_type": "single-stim", "trial_index": 13, "time_elapsed": 245877, "internal_node_id": "0.0-10.0-3.0"}}, {"uniqueid": "MTK0870:3QILPRALQ62PJPIM58EH0MM0TI5N83", "current_trial": 14, "dateTime": 1512855404314, "trialdata": {"rt": -1, "stimulus": "<p id=\"stim\">6</p>", "key_press": -1, "trial_type": "single-stim", "trial_index": 14, "time_elapsed": 246883, "internal_node_id": "0.0-10.0-4.0"}}, {"uniqueid": "MTK0870:3QILPRALQ62PJPIM58EH0MM0TI5N83", "current_trial": 15, "dateTime": 1512855405318, "trialdata": {"rt": -1, "stimulus": "<p id=\"stim\">5</p>", "key_press": -1, "trial_type": "single-stim", "trial_index": 15, "time_elapsed": 247887, "internal_node_id": "0.0-10.0-5.0"}}, {"uniqueid": "MTK0870:3QILPRALQ62PJPIM58EH0MM0TI5N83", "current_trial": 16, "dateTime": 1512855406322, "trialdata": {"rt": -1, "stimulus": "<p id=\"stim\">4</p>", "key_press": -1, "trial_type": "single-stim", "trial_index": 16, "time_elapsed": 248891, "internal_node_id": "0.0-10.0-6.0"}}, {"uniqueid": "MTK0870:3QILPRALQ62PJPIM58EH0MM0TI5N83", "current_trial": 17, "dateTime": 1512855407325, "trialdata": {"rt": -1, "stimulus": "<p id=\"stim\">3</p>", "key_press": -1, "trial_type": "single-stim", "trial_index": 17, "time_elapsed": 249894, "internal_node_id": "0.0-10.0-7.0"}}, {"uniqueid": "MTK0870:3QILPRALQ62PJPIM58EH0MM0TI5N83", "current_trial": 18, "dateTime": 1512855408331, "trialdata": {"rt": -1, "stimulus": "<p id=\"stim\">2</p>", "key_press": -1, "trial_type": "single-stim", "trial_index": 18, "time_elapsed": 250900, "internal_node_id": "0.0-10.0-8.0"}}, {"uniqueid": "MTK0870:3QILPRALQ62PJPIM58EH0MM0TI5N83", "current_trial": 19, "dateTime": 1512855409335, "trialdata": {"rt": -1, "stimulus": "<p id=\"stim\">1</p>", "key_press": -1, "trial_type": "single-stim", "trial_index": 19, "time_elapsed": 251904, "internal_node_id": "0.0-10.0-9.0"}}, {"uniqueid": "MTK0870:3QILPRALQ62PJPIM58EH0MM0TI5N83", "current_trial": 20, "dateTime": 1512855410838, "trialdata": {"rt": -1, "stimulus": "<p id=\"stim\">+</p>", "key_press": -1, "type": "FIXATION", "trial_type": "single-stim", "trial_index": 20, "time_elapsed": 253407, "internal_node_id": "0.0-11.0-0.0"}}, {"uniqueid": "MTK0870:3QILPRALQ62PJPIM58EH0MM0TI5N83", "current_trial": 21, "dateTime": 1512855412044, "trialdata": {"rt": -1, "stimulus": "<p id=\"stim\">ROBIN</p>", "key_press": -1, "type": "PRES_VIS", "word": "robin", "wordID": 1198, "conditions": [18, 1200, "v", 18000], "trial": 0, "serialpos": 0, "trial_type": "single-stim", "trial_index": 21, "time_elapsed": 254613, "internal_node_id": "0.0-12.0"}}, {"uniqueid": "MTK0870:3QILPRALQ62PJPIM58EH0MM0TI5N83", "current_trial": 22, "dateTime": 1512855414285, "trialdata": {"rt": -1, "stimulus": "<p id=\"stim\">GROUND</p>", "key_press": -1, "type": "PRES_VIS", "word": "ground", "wordID": 665, "conditions": [18, 1200, "v", 18000], "trial": 0, "serialpos": 1, "trial_type": "single-stim", "trial_index": 22, "time_elapsed": 256854, "internal_node_id": "0.0-13.0"}}, {"uniqueid": "MTK0870:3QILPRALQ62PJPIM58EH0MM0TI5N83", "current_trial": 23, "dateTime": 1512855416531, "trialdata": {"rt": -1, "stimulus": "<p id=\"stim\">CONTRACT</p>", "key_press": -1, "type": "PRES_VIS", "word": "contract", "wordID": 367, "conditions": [18, 1200, "v", 18000], "trial": 0, "serialpos": 2, "trial_type": "single-stim", "trial_index": 23, "time_elapsed": 259100, "internal_node_id": "0.0-14.0"}}, {"uniqueid": "MTK0870:3QILPRALQ62PJPIM58EH0MM0TI5N83", "current_trial": 24, "dateTime": 1512855418604, "trialdata": {"rt": -1, "stimulus": "<p id=\"stim\">BANQUET</p>", "key_press": -1, "type": "PRES_VIS", "word": "banquet", "wordID": 85, "conditions": [18, 1200, "v", 18000], "trial": 0, "serialpos": 3, "trial_type": "single-stim", "trial_index": 24, "time_elapsed": 261173, "internal_node_id": "0.0-15.0"}}, {"uniqueid": "MTK0870:3QILPRALQ62PJPIM58EH0MM0TI5N83", "current_trial": 25, "dateTime": 1512855420978, "trialdata": {"rt": -1, "stimulus": "<p id=\"stim\">MUSTARD</p>", "key_press": -1, "type": "PRES_VIS", "word": "mustard", "wordID": 934, "conditions": [18, 1200, "v", 18000], "trial": 0, "serialpos": 4, "trial_type": "single-stim", "trial_index": 25, "time_elapsed": 263547, "internal_node_id": "0.0-16.0"}}, {"uniqueid": "MTK0870:3QILPRALQ62PJPIM58EH0MM0TI5N83", "current_trial": 26, "dateTime": 1512855423317, "trialdata": {"rt": -1, "stimulus": "<p id=\"stim\">CREATURE</p>", "key_press": -1, "type": "PRES_VIS", "word": "creature", "wordID": 402, "conditions": [18, 1200, "v", 18000], "trial": 0, "serialpos": 5, "trial_type": "single-stim", "trial_index": 26, "time_elapsed": 265885, "internal_node_id": "0.0-17.0"}}, {"uniqueid": "MTK0870:3QILPRALQ62PJPIM58EH0MM0TI5N83", "current_trial": 27, "dateTime": 1512855425583, "trialdata": {"rt": -1, "stimulus": "<p id=\"stim\">FOX</p>", "key_press": -1, "type": "PRES_VIS", "word": "fox", "wordID": 597, "conditions": [18, 1200, "v", 18000], "trial": 0, "serialpos": 6, "trial_type": "single-stim", "trial_index": 27, "time_elapsed": 268151, "internal_node_id": "0.0-18.0"}}, {"uniqueid": "MTK0870:3QILPRALQ62PJPIM58EH0MM0TI5N83", "current_trial": 28, "dateTime": 1512855427849, "trialdata": {"rt": -1, "stimulus": "<p id=\"stim\">SHORTS</p>", "key_press": -1, "type": "PRES_VIS", "word": "shorts", "wordID": 1292, "conditions": [18, 1200, "v", 18000], "trial": 0, "serialpos": 7, "trial_type": "single-stim", "trial_index": 28, "time_elapsed": 270418, "internal_node_id": "0.0-19.0"}}, {"uniqueid": "MTK0870:3QILPRALQ62PJPIM58EH0MM0TI5N83", "current_trial": 29, "dateTime": 1512855429878, "trialdata": {"rt": -1, "stimulus": "<p id=\"stim\">POCKET</p>", "key_press": -1, "type": "PRES_VIS", "word": "pocket", "wordID": 1092, "conditions": [18, 1200, "v", 18000], "trial": 0, "serialpos": 8, "trial_type": "single-stim", "trial_index": 29, "time_elapsed": 272447, "internal_node_id": "0.0-20.0"}}, {"uniqueid": "MTK0870:3QILPRALQ62PJPIM58EH0MM0TI5N83", "current_trial": 30, "dateTime": 1512855432170, "trialdata": {"rt": -1, "stimulus": "<p id=\"stim\">HUSBAND</p>", "key_press": -1, "type": "PRES_VIS", "word": "husband", "wordID": 727, "conditions": [18, 1200, "v", 18000], "trial": 0, "serialpos": 9, "trial_type": "single-stim", "trial_index": 30, "time_elapsed": 274738, "internal_node_id": "0.0-21.0"}}, {"uniqueid": "MTK0870:3QILPRALQ62PJPIM58EH0MM0TI5N83", "current_trial": 31, "dateTime": 1512855434478, "trialdata": {"rt": -1, "stimulus": "<p id=\"stim\">CONVICT</p>", "key_press": -1, "type": "PRES_VIS", "word": "convict", "wordID": 370, "conditions": [18, 1200, "v", 18000], "trial": 0, "serialpos": 10, "trial_type": "single-stim", "trial_index": 31, "time_elapsed": 277047, "internal_node_id": "0.0-22.0"}}, {"uniqueid": "MTK0870:3QILPRALQ62PJPIM58EH0MM0TI5N83", "current_trial": 32, "dateTime": 1512855436574, "trialdata": {"rt": -1, "stimulus": "<p id=\"stim\">AGENT</p>", "key_press": -1, "type": "PRES_VIS", "word": "agent", "wordID": 9, "conditions": [18, 1200, "v", 18000], "trial": 0, "serialpos": 11, "trial_type": "single-stim", "trial_index": 32, "time_elapsed": 279143, "internal_node_id": "0.0-23.0"}}, {"uniqueid": "MTK0870:3QILPRALQ62PJPIM58EH0MM0TI5N83", "current_trial": 33, "dateTime": 1512855438785, "trialdata": {"rt": -1, "stimulus": "<p id=\"stim\">GRAPE</p>", "key_press": -1, "type": "PRES_VIS", "word": "grape", "wordID": 653, "conditions": [18, 1200, "v", 18000], "trial": 0, "serialpos": 12, "trial_type": "single-stim", "trial_index": 33, "time_elapsed": 281353, "internal_node_id": "0.0-24.0"}}, {"uniqueid": "MTK0870:3QILPRALQ62PJPIM58EH0MM0TI5N83", "current_trial": 34, "dateTime": 1512855440920, "trialdata": {"rt": -1, "stimulus": "<p id=\"stim\">FLUTE</p>", "key_press": -1, "type": "PRES_VIS", "word": "flute", "wordID": 584, "conditions": [18, 1200, "v", 18000], "trial": 0, "serialpos": 13, "trial_type": "single-stim", "trial_index": 34, "time_elapsed": 283489, "internal_node_id": "0.0-25.0"}}, {"uniqueid": "MTK0870:3QILPRALQ62PJPIM58EH0MM0TI5N83", "current_trial": 35, "dateTime": 1512855443309, "trialdata": {"rt": -1, "stimulus": "<p id=\"stim\">BUNNY</p>", "key_press": -1, "type": "PRES_VIS", "word": "bunny", "wordID": 197, "conditions": [18, 1200, "v", 18000], "trial": 0, "serialpos": 14, "trial_type": "single-stim", "trial_index": 35, "time_elapsed": 285878, "internal_node_id": "0.0-26.0"}}, {"uniqueid": "MTK0870:3QILPRALQ62PJPIM58EH0MM0TI5N83", "current_trial": 36, "dateTime": 1512855445610, "trialdata": {"rt": -1, "stimulus": "<p id=\"stim\">LEADER</p>", "key_press": -1, "type": "PRES_VIS", "word": "leader", "wordID": 806, "conditions": [18, 1200, "v", 18000], "trial": 0, "serialpos": 15, "trial_type": "single-stim", "trial_index": 36, "time_elapsed": 288179, "internal_node_id": "0.0-27.0"}}, {"uniqueid": "MTK0870:3QILPRALQ62PJPIM58EH0MM0TI5N83", "current_trial": 37, "dateTime": 1512855447913, "trialdata": {"rt": -1, "stimulus": "<p id=\"stim\">SPOOL</p>", "key_press": -1, "type": "PRES_VIS", "word": "spool", "wordID": 1355, "conditions": [18, 1200, "v", 18000], "trial": 0, "serialpos": 16, "trial_type": "single-stim", "trial_index": 37, "time_elapsed": 290482, "internal_node_id": "0.0-28.0"}}, {"uniqueid": "MTK0870:3QILPRALQ62PJPIM58EH0MM0TI5N83", "current_trial": 38, "dateTime": 1512855450201, "trialdata": {"rt": -1, "stimulus": "<p id=\"stim\">VELVET</p>", "key_press": -1, "type": "PRES_VIS", "word": "velvet", "wordID": 1554, "conditions": [18, 1200, "v", 18000], "trial": 0, "serialpos": 17, "trial_type": "single-stim", "trial_index": 38, "time_elapsed": 292770, "internal_node_id": "0.0-29.0"}}, {"uniqueid": "MTK0870:3QILPRALQ62PJPIM58EH0MM0TI5N83", "current_trial": 39, "dateTime": 1512855452475, "trialdata": {"rt": -1, "stimulus": "", "key_press": -1, "type": "PRE_RECALL_DELAY", "trial_type": "single-stim", "trial_index": 39, "time_elapsed": 295044, "internal_node_id": "0.0-30.0-0.0"}}, {"uniqueid": "MTK0870:3QILPRALQ62PJPIM58EH0MM0TI5N83", "current_trial": 40, "dateTime": 1512855452980, "trialdata": {"rt": -1000, "stimulus": "/static/audio/400Hz.wav", "key_press": -1, "type": "PRE_RECALL_ALERT", "trial_type": "single-audio", "trial_index": 40, "time_elapsed": 295549, "internal_node_id": "0.0-31.0"}}, {"uniqueid": "MTK0870:3QILPRALQ62PJPIM58EH0MM0TI5N83", "current_trial": 41, "dateTime": 1512855512990, "trialdata": {"rt": [2765, 4074, 5671, 6946, 8091, 36845, 38969, 43658], "recwords": ["spool", "velvet", "husband", "convict", "robin", "banquet", "velvet", "thread"], "type": "FREE_RECALL", "conditions": [18, 1200, "v", 18000], "trial": 0, "trial_type": "free-recall", "trial_index": 41, "time_elapsed": 355555, "internal_node_id": "0.0-32.0-0.0"}}, {"uniqueid": "MTK0870:3QILPRALQ62PJPIM58EH0MM0TI5N83", "current_trial": 42, "dateTime": 1512855515915, "trialdata": {"rt": 920, "key_press": 32, "type": "INSTRUCTIONS", "trial_type": "text", "trial_index": 42, "time_elapsed": 358484, "internal_node_id": "0.0-33.0"}}, {"uniqueid": "MTK0870:3QILPRALQ62PJPIM58EH0MM0TI5N83", "current_trial": 43, "dateTime": 1512855535922, "trialdata": {"rt": [1728, 3029, 4305, 5487, 7783, 9174, 10809, 12679, 14066, 15875], "responses": ["10", "14", "7", "12", "19", "18", "14", "14", "18", "14"], "num1": [2, 8, 1, 2, 6, 8, 3, 7, 8, 7, 4], "num2": [2, 2, 3, 8, 4, 2, 7, 6, 2, 5, 5], "num3": [6, 4, 3, 8, 9, 8, 1, 1, 8, 2, 7], "type": "DISTRACTOR", "conditions": [18, 1200, "a", 18000], "trial": 1, "trial_type": "math-distractor", "trial_index": 43, "time_elapsed": 378491, "internal_node_id": "0.0-34.0"}}, {"uniqueid": "MTK0870:3QILPRALQ62PJPIM58EH0MM0TI5N83", "current_trial": 44, "dateTime": 1512855538930, "trialdata": {"rt": -1, "stimulus": "<p id=\"stim\">10</p>", "key_press": -1, "trial_type": "single-stim", "trial_index": 44, "time_elapsed": 381498, "internal_node_id": "0.0-35.0-0.0"}}, {"uniqueid": "MTK0870:3QILPRALQ62PJPIM58EH0MM0TI5N83", "current_trial": 45, "dateTime": 1512855539934, "trialdata": {"rt": -1, "stimulus": "<p id=\"stim\">9</p>", "key_press": -1, "trial_type": "single-stim", "trial_index": 45, "time_elapsed": 382503, "internal_node_id": "0.0-35.0-1.0"}}, {"uniqueid": "MTK0870:3QILPRALQ62PJPIM58EH0MM0TI5N83", "current_trial": 46, "dateTime": 1512855540938, "trialdata": {"rt": -1, "stimulus": "<p id=\"stim\">8</p>", "key_press": -1, "trial_type": "single-stim", "trial_index": 46, "time_elapsed": 383507, "internal_node_id": "0.0-35.0-2.0"}}, {"uniqueid": "MTK0870:3QILPRALQ62PJPIM58EH0MM0TI5N83", "current_trial": 47, "dateTime": 1512855541942, "trialdata": {"rt": -1, "stimulus": "<p id=\"stim\">7</p>", "key_press": -1, "trial_type": "single-stim", "trial_index": 47, "time_elapsed": 384510, "internal_node_id": "0.0-35.0-3.0"}}, {"uniqueid": "MTK0870:3QILPRALQ62PJPIM58EH0MM0TI5N83", "current_trial": 48, "dateTime": 1512855542946, "trialdata": {"rt": -1, "stimulus": "<p id=\"stim\">6</p>", "key_press": -1, "trial_type": "single-stim", "trial_index": 48, "time_elapsed": 385514, "internal_node_id": "0.0-35.0-4.0"}}, {"uniqueid": "MTK0870:3QILPRALQ62PJPIM58EH0MM0TI5N83", "current_trial": 49, "dateTime": 1512855543950, "trialdata": {"rt": -1, "stimulus": "<p id=\"stim\">5</p>", "key_press": -1, "trial_type": "single-stim", "trial_index": 49, "time_elapsed": 386519, "internal_node_id": "0.0-35.0-5.0"}}, {"uniqueid": "MTK0870:3QILPRALQ62PJPIM58EH0MM0TI5N83", "current_trial": 50, "dateTime": 1512855544955, "trialdata": {"rt": -1, "stimulus": "<p id=\"stim\">4</p>", "key_press": -1, "trial_type": "single-stim", "trial_index": 50, "time_elapsed": 387523, "internal_node_id": "0.0-35.0-6.0"}}, {"uniqueid": "MTK0870:3QILPRALQ62PJPIM58EH0MM0TI5N83", "current_trial": 51, "dateTime": 1512855545958, "trialdata": {"rt": -1, "stimulus": "<p id=\"stim\">3</p>", "key_press": -1, "trial_type": "single-stim", "trial_index": 51, "time_elapsed": 388527, "internal_node_id": "0.0-35.0-7.0"}}, {"uniqueid": "MTK0870:3QILPRALQ62PJPIM58EH0MM0TI5N83", "current_trial": 52, "dateTime": 1512855546962, "trialdata": {"rt": -1, "stimulus": "<p id=\"stim\">2</p>", "key_press": -1, "trial_type": "single-stim", "trial_index": 52, "time_elapsed": 389531, "internal_node_id": "0.0-35.0-8.0"}}, {"uniqueid": "MTK0870:3QILPRALQ62PJPIM58EH0MM0TI5N83", "current_trial": 53, "dateTime": 1512855547967, "trialdata": {"rt": -1, "stimulus": "<p id=\"stim\">1</p>", "key_press": -1, "trial_type": "single-stim", "trial_index": 53, "time_elapsed": 390536, "internal_node_id": "0.0-35.0-9.0"}}, {"uniqueid": "MTK0870:3QILPRALQ62PJPIM58EH0MM0TI5N83", "current_trial": 54, "dateTime": 1512855549474, "trialdata": {"rt": -1, "stimulus": "<p id=\"stim\">+</p>", "key_press": -1, "type": "FIXATION", "trial_type": "single-stim", "trial_index": 54, "time_elapsed": 392043, "internal_node_id": "0.0-36.0-0.0"}}, {"uniqueid": "MTK0870:3QILPRALQ62PJPIM58EH0MM0TI5N83", "current_trial": 55, "dateTime": 1512855551758, "trialdata": {"rt": -1000, "stimulus": "/static/audio/wordpool/BACKBONE.wav", "key_press": -1, "type": "PRES_AUD", "word": "backbone", "wordID": 65, "conditions": [18, 1200, "a", 18000], "trial": 1, "serialpos": 0, "trial_type": "single-audio", "trial_index": 55, "time_elapsed": 394327, "internal_node_id": "0.0-37.0"}}, {"uniqueid": "MTK0870:3QILPRALQ62PJPIM58EH0MM0TI5N83", "current_trial": 56, "dateTime": 1512855553874, "trialdata": {"rt": -1000, "stimulus": "/static/audio/wordpool/BRANDY.wav", "key_press": -1, "type": "PRES_AUD", "word": "brandy", "wordID": 168, "conditions": [18, 1200, "a", 18000], "trial": 1, "serialpos": 1, "trial_type": "single-audio", "trial_index": 56, "time_elapsed": 396443, "internal_node_id": "0.0-38.0"}}, {"uniqueid": "MTK0870:3QILPRALQ62PJPIM58EH0MM0TI5N83", "current_trial": 57, "dateTime": 1512855556270, "trialdata": {"rt": -1000, "stimulus": "/static/audio/wordpool/TURTLE.wav", "key_press": -1, "type": "PRES_AUD", "word": "turtle", "wordID": 1521, "conditions": [18, 1200, "a", 18000], "trial": 1, "serialpos": 2, "trial_type": "single-audio", "trial_index": 57, "time_elapsed": 398838, "internal_node_id": "0.0-39.0"}}, {"uniqueid": "MTK0870:3QILPRALQ62PJPIM58EH0MM0TI5N83", "current_trial": 58, "dateTime": 1512855558406, "trialdata": {"rt": -1000, "stimulus": "/static/audio/wordpool/DENIM.wav", "key_press": -1, "type": "PRES_AUD", "word": "denim", "wordID": 445, "conditions": [18, 1200, "a", 18000], "trial": 1, "serialpos": 3, "trial_type": "single-audio", "trial_index": 58, "time_elapsed": 400975, "internal_node_id": "0.0-40.0"}}, {"uniqueid": "MTK0870:3QILPRALQ62PJPIM58EH0MM0TI5N83", "current_trial": 59, "dateTime": 1512855560722, "trialdata": {"rt": -1000, "stimulus": "/static/audio/wordpool/LAPEL.wav", "key_press": -1, "type": "PRES_AUD", "word": "lapel", "wordID": 799, "conditions": [18, 1200, "a", 18000], "trial": 1, "serialpos": 4, "trial_type": "single-audio", "trial_index": 59, "time_elapsed": 403290, "internal_node_id": "0.0-41.0"}}, {"uniqueid": "MTK0870:3QILPRALQ62PJPIM58EH0MM0TI5N83", "current_trial": 60, "dateTime": 1512855563035, "trialdata": {"rt": -1000, "stimulus": "/static/audio/wordpool/SWIMMER.wav", "key_press": -1, "type": "PRES_AUD", "word": "swimmer", "wordID": 1419, "conditions": [18, 1200, "a", 18000], "trial": 1, "serialpos": 5, "trial_type": "single-audio", "trial_index": 60, "time_elapsed": 405604, "internal_node_id": "0.0-42.0"}}, {"uniqueid": "MTK0870:3QILPRALQ62PJPIM58EH0MM0TI5N83", "current_trial": 61, "dateTime": 1512855565293, "trialdata": {"rt": -1000, "stimulus": "/static/audio/wordpool/UNCLE.wav", "key_press": -1, "type": "PRES_AUD", "word": "uncle", "wordID": 1535, "conditions": [18, 1200, "a", 18000], "trial": 1, "serialpos": 6, "trial_type": "single-audio", "trial_index": 61, "time_elapsed": 407862, "internal_node_id": "0.0-43.0"}}, {"uniqueid": "MTK0870:3QILPRALQ62PJPIM58EH0MM0TI5N83", "current_trial": 62, "dateTime": 1512855567572, "trialdata": {"rt": -1000, "stimulus": "/static/audio/wordpool/TURKEY.wav", "key_press": -1, "type": "PRES_AUD", "word": "turkey", "wordID": 1519, "conditions": [18, 1200, "a", 18000], "trial": 1, "serialpos": 7, "trial_type": "single-audio", "trial_index": 62, "time_elapsed": 410141, "internal_node_id": "0.0-44.0"}}, {"uniqueid": "MTK0870:3QILPRALQ62PJPIM58EH0MM0TI5N83", "current_trial": 63, "dateTime": 1512855569757, "trialdata": {"rt": -1000, "stimulus": "/static/audio/wordpool/GARLIC.wav", "key_press": -1, "type": "PRES_AUD", "word": "garlic", "wordID": 623, "conditions": [18, 1200, "a", 18000], "trial": 1, "serialpos": 8, "trial_type": "single-audio", "trial_index": 63, "time_elapsed": 412326, "internal_node_id": "0.0-45.0"}}, {"uniqueid": "MTK0870:3QILPRALQ62PJPIM58EH0MM0TI5N83", "current_trial": 64, "dateTime": 1512855571821, "trialdata": {"rt": -1000, "stimulus": "/static/audio/wordpool/CHIPMUNK.wav", "key_press": -1, "type": "PRES_AUD", "word": "chipmunk", "wordID": 303, "conditions": [18, 1200, "a", 18000], "trial": 1, "serialpos": 9, "trial_type": "single-audio", "trial_index": 64, "time_elapsed": 414390, "internal_node_id": "0.0-46.0"}}, {"uniqueid": "MTK0870:3QILPRALQ62PJPIM58EH0MM0TI5N83", "current_trial": 65, "dateTime": 1512855574177, "trialdata": {"rt": -1000, "stimulus": "/static/audio/wordpool/PUDDLE.wav", "key_press": -1, "type": "PRES_AUD", "word": "puddle", "wordID": 1139, "conditions": [18, 1200, "a", 18000], "trial": 1, "serialpos": 10, "trial_type": "single-audio", "trial_index": 65, "time_elapsed": 416744, "internal_node_id": "0.0-47.0"}}, {"uniqueid": "MTK0870:3QILPRALQ62PJPIM58EH0MM0TI5N83", "current_trial": 66, "dateTime": 1512855576298, "trialdata": {"rt": -1000, "stimulus": "/static/audio/wordpool/NURSE.wav", "key_press": -1, "type": "PRES_AUD", "word": "nurse", "wordID": 962, "conditions": [18, 1200, "a", 18000], "trial": 1, "serialpos": 11, "trial_type": "single-audio", "trial_index": 66, "time_elapsed": 418867, "internal_node_id": "0.0-48.0"}}, {"uniqueid": "MTK0870:3QILPRALQ62PJPIM58EH0MM0TI5N83", "current_trial": 67, "dateTime": 1512855578527, "trialdata": {"rt": -1000, "stimulus": "/static/audio/wordpool/SKIRT.wav", "key_press": -1, "type": "PRES_AUD", "word": "skirt", "wordID": 1318, "conditions": [18, 1200, "a", 18000], "trial": 1, "serialpos": 12, "trial_type": "single-audio", "trial_index": 67, "time_elapsed": 421096, "internal_node_id": "0.0-49.0"}}, {"uniqueid": "MTK0870:3QILPRALQ62PJPIM58EH0MM0TI5N83", "current_trial": 68, "dateTime": 1512855580661, "trialdata": {"rt": -1000, "stimulus": "/static/audio/wordpool/DINER.wav", "key_press": -1, "type": "PRES_AUD", "word": "diner", "wordID": 466, "conditions": [18, 1200, "a", 18000], "trial": 1, "serialpos": 13, "trial_type": "single-audio", "trial_index": 68, "time_elapsed": 423228, "internal_node_id": "0.0-50.0"}}, {"uniqueid": "MTK0870:3QILPRALQ62PJPIM58EH0MM0TI5N83", "current_trial": 69, "dateTime": 1512855582960, "trialdata": {"rt": -1000, "stimulus": "/static/audio/wordpool/BIKE.wav", "key_press": -1, "type": "PRES_AUD", "word": "bike", "wordID": 124, "conditions": [18, 1200, "a", 18000], "trial": 1, "serialpos": 14, "trial_type": "single-audio", "trial_index": 69, "time_elapsed": 425529, "internal_node_id": "0.0-51.0"}}, {"uniqueid": "MTK0870:3QILPRALQ62PJPIM58EH0MM0TI5N83", "current_trial": 70, "dateTime": 1512855585339, "trialdata": {"rt": -1000, "stimulus": "/static/audio/wordpool/POISON.wav", "key_press": -1, "type": "PRES_AUD", "word": "poison", "wordID": 1095, "conditions": [18, 1200, "a", 18000], "trial": 1, "serialpos": 15, "trial_type": "single-audio", "trial_index": 70, "time_elapsed": 427908, "internal_node_id": "0.0-52.0"}}, {"uniqueid": "MTK0870:3QILPRALQ62PJPIM58EH0MM0TI5N83", "current_trial": 71, "dateTime": 1512855587541, "trialdata": {"rt": -1000, "stimulus": "/static/audio/wordpool/BLUEPRINT.wav", "key_press": -1, "type": "PRES_AUD", "word": "blueprint", "wordID": 141, "conditions": [18, 1200, "a", 18000], "trial": 1, "serialpos": 16, "trial_type": "single-audio", "trial_index": 71, "time_elapsed": 430110, "internal_node_id": "0.0-53.0"}}, {"uniqueid": "MTK0870:3QILPRALQ62PJPIM58EH0MM0TI5N83", "current_trial": 72, "dateTime": 1512855589872, "trialdata": {"rt": -1000, "stimulus": "/static/audio/wordpool/ICING.wav", "key_press": -1, "type": "PRES_AUD", "word": "icing", "wordID": 731, "conditions": [18, 1200, "a", 18000], "trial": 1, "serialpos": 17, "trial_type": "single-audio", "trial_index": 72, "time_elapsed": 432441, "internal_node_id": "0.0-54.0"}}, {"uniqueid": "MTK0870:3QILPRALQ62PJPIM58EH0MM0TI5N83", "current_trial": 73, "dateTime": 1512855591213, "trialdata": {"rt": -1, "stimulus": "", "key_press": -1, "type": "PRE_RECALL_DELAY", "trial_type": "single-stim", "trial_index": 73, "time_elapsed": 433782, "internal_node_id": "0.0-55.0-0.0"}}, {"uniqueid": "MTK0870:3QILPRALQ62PJPIM58EH0MM0TI5N83", "current_trial": 74, "dateTime": 1512855591715, "trialdata": {"rt": -1000, "stimulus": "/static/audio/400Hz.wav", "key_press": -1, "type": "PRE_RECALL_ALERT", "trial_type": "single-audio", "trial_index": 74, "time_elapsed": 434284, "internal_node_id": "0.0-56.0"}}, {"uniqueid": "MTK0870:3QILPRALQ62PJPIM58EH0MM0TI5N83", "current_trial": 75, "dateTime": 1512855651725, "trialdata": {"rt": [1473, 4837, 5646, 6672, 7981, 12510, 13385, 16330, 30628, 31444], "recwords": ["icing", "chipmunk", "uncle", "skirt", "blueprint", "turkey", "turtle", "garlic", "huddle", "nurse"], "type": "FREE_RECALL", "conditions": [18, 1200, "a", 18000], "trial": 1, "trial_type": "free-recall", "trial_index": 75, "time_elapsed": 494292, "internal_node_id": "0.0-57.0-0.0"}}, {"uniqueid": "MTK0870:3QILPRALQ62PJPIM58EH0MM0TI5N83", "current_trial": 76, "dateTime": 1512855655605, "trialdata": {"rt": 1865, "key_press": 32, "type": "INSTRUCTIONS", "trial_type": "text", "trial_index": 76, "time_elapsed": 498166, "internal_node_id": "0.0-58.0"}}, {"uniqueid": "MTK0870:3QILPRALQ62PJPIM58EH0MM0TI5N83", "current_trial": 77, "dateTime": 1512855680615, "trialdata": {"rt": [1742, 3909, 6816, 9845, 11826, 14331, 15851, 17200, 18874, 22459, 23920], "responses": ["17", "13", "23", "21", "16", "17", "12", "9", "19", "19", "10"], "num1": [3, 1, 8, 7, 9, 9, 6, 7, 5, 8, 1, 1], "num2": [7, 8, 5, 8, 3, 2, 1, 1, 7, 2, 5, 6], "num3": [7, 4, 9, 6, 4, 6, 5, 1, 7, 9, 4, 7], "type": "DISTRACTOR", "conditions": [24, 1600, "v", 24000], "trial": 2, "trial_type": "math-distractor", "trial_index": 77, "time_elapsed": 523184, "internal_node_id": "0.0-59.0"}}, {"uniqueid": "MTK0870:3QILPRALQ62PJPIM58EH0MM0TI5N83", "current_trial": 78, "dateTime": 1512855683622, "trialdata": {"rt": -1, "stimulus": "<p id=\"stim\">10</p>", "key_press": -1, "trial_type": "single-stim", "trial_index": 78, "time_elapsed": 526191, "internal_node_id": "0.0-60.0-0.0"}}, {"uniqueid": "MTK0870:3QILPRALQ62PJPIM58EH0MM0TI5N83", "current_trial": 79, "dateTime": 1512855684627, "trialdata": {"rt": -1, "stimulus": "<p id=\"stim\">9</p>", "key_press": -1, "trial_type": "single-stim", "trial_index": 79, "time_elapsed": 527195, "internal_node_id": "0.0-60.0-1.0"}}, {"uniqueid": "MTK0870:3QILPRALQ62PJPIM58EH0MM0TI5N83", "current_trial": 80, "dateTime": 1512855685631, "trialdata": {"rt": -1, "stimulus": "<p id=\"stim\">8</p>", "key_press": -1, "trial_type": "single-stim", "trial_index": 80, "time_elapsed": 528200, "internal_node_id": "0.0-60.0-2.0"}}, {"uniqueid": "MTK0870:3QILPRALQ62PJPIM58EH0MM0TI5N83", "current_trial": 81, "dateTime": 1512855686635, "trialdata": {"rt": -1, "stimulus": "<p id=\"stim\">7</p>", "key_press": -1, "trial_type": "single-stim", "trial_index": 81, "time_elapsed": 529204, "internal_node_id": "0.0-60.0-3.0"}}, {"uniqueid": "MTK0870:3QILPRALQ62PJPIM58EH0MM0TI5N83", "current_trial": 82, "dateTime": 1512855687639, "trialdata": {"rt": -1, "stimulus": "<p id=\"stim\">6</p>", "key_press": -1, "trial_type": "single-stim", "trial_index": 82, "time_elapsed": 530208, "internal_node_id": "0.0-60.0-4.0"}}, {"uniqueid": "MTK0870:3QILPRALQ62PJPIM58EH0MM0TI5N83", "current_trial": 83, "dateTime": 1512855688647, "trialdata": {"rt": -1, "stimulus": "<p id=\"stim\">5</p>", "key_press": -1, "trial_type": "single-stim", "trial_index": 83, "time_elapsed": 531215, "internal_node_id": "0.0-60.0-5.0"}}, {"uniqueid": "MTK0870:3QILPRALQ62PJPIM58EH0MM0TI5N83", "current_trial": 84, "dateTime": 1512855689653, "trialdata": {"rt": -1, "stimulus": "<p id=\"stim\">4</p>", "key_press": -1, "trial_type": "single-stim", "trial_index": 84, "time_elapsed": 532222, "internal_node_id": "0.0-60.0-6.0"}}, {"uniqueid": "MTK0870:3QILPRALQ62PJPIM58EH0MM0TI5N83", "current_trial": 85, "dateTime": 1512855690657, "trialdata": {"rt": -1, "stimulus": "<p id=\"stim\">3</p>", "key_press": -1, "trial_type": "single-stim", "trial_index": 85, "time_elapsed": 533226, "internal_node_id": "0.0-60.0-7.0"}}, {"uniqueid": "MTK0870:3QILPRALQ62PJPIM58EH0MM0TI5N83", "current_trial": 86, "dateTime": 1512855691661, "trialdata": {"rt": -1, "stimulus": "<p id=\"stim\">2</p>", "key_press": -1, "trial_type": "single-stim", "trial_index": 86, "time_elapsed": 534230, "internal_node_id": "0.0-60.0-8.0"}}, {"uniqueid": "MTK0870:3QILPRALQ62PJPIM58EH0MM0TI5N83", "current_trial": 87, "dateTime": 1512855692665, "trialdata": {"rt": -1, "stimulus": "<p id=\"stim\">1</p>", "key_press": -1, "trial_type": "single-stim", "trial_index": 87, "time_elapsed": 535234, "internal_node_id": "0.0-60.0-9.0"}}, {"uniqueid": "MTK0870:3QILPRALQ62PJPIM58EH0MM0TI5N83", "current_trial": 88, "dateTime": 1512855694169, "trialdata": {"rt": -1, "stimulus": "<p id=\"stim\">+</p>", "key_press": -1, "type": "FIXATION", "trial_type": "single-stim", "trial_index": 88, "time_elapsed": 536737, "internal_node_id": "0.0-61.0-0.0"}}, {"uniqueid": "MTK0870:3QILPRALQ62PJPIM58EH0MM0TI5N83", "current_trial": 89, "dateTime": 1512855695775, "trialdata": {"rt": -1, "stimulus": "<p id=\"stim\">STOVE</p>", "key_press": -1, "type": "PRES_VIS", "word": "stove", "wordID": 1387, "conditions": [24, 1600, "v", 24000], "trial": 2, "serialpos": 0, "trial_type": "single-stim", "trial_index": 89, "time_elapsed": 538344, "internal_node_id": "0.0-62.0"}}, {"uniqueid": "MTK0870:3QILPRALQ62PJPIM58EH0MM0TI5N83", "current_trial": 90, "dateTime": 1512855698348, "trialdata": {"rt": -1, "stimulus": "<p id=\"stim\">SUSPECT</p>", "key_press": -1, "type": "PRES_VIS", "word": "suspect", "wordID": 1414, "conditions": [24, 1600, "v", 24000], "trial": 2, "serialpos": 1, "trial_type": "single-stim", "trial_index": 90, "time_elapsed": 540916, "internal_node_id": "0.0-63.0"}}, {"uniqueid": "MTK0870:3QILPRALQ62PJPIM58EH0MM0TI5N83", "current_trial": 91, "dateTime": 1512855701006, "trialdata": {"rt": -1, "stimulus": "<p id=\"stim\">ULCER</p>", "key_press": -1, "type": "PRES_VIS", "word": "ulcer", "wordID": 1532, "conditions": [24, 1600, "v", 24000], "trial": 2, "serialpos": 2, "trial_type": "single-stim", "trial_index": 91, "time_elapsed": 543575, "internal_node_id": "0.0-64.0"}}, {"uniqueid": "MTK0870:3QILPRALQ62PJPIM58EH0MM0TI5N83", "current_trial": 92, "dateTime": 1512855703718, "trialdata": {"rt": -1, "stimulus": "<p id=\"stim\">JOURNAL</p>", "key_press": -1, "type": "PRES_VIS", "word": "journal", "wordID": 759, "conditions": [24, 1600, "v", 24000], "trial": 2, "serialpos": 3, "trial_type": "single-stim", "trial_index": 92, "time_elapsed": 546286, "internal_node_id": "0.0-65.0"}}, {"uniqueid": "MTK0870:3QILPRALQ62PJPIM58EH0MM0TI5N83", "current_trial": 93, "dateTime": 1512855706399, "trialdata": {"rt": -1, "stimulus": "<p id=\"stim\">BALLOON</p>", "key_press": -1, "type": "PRES_VIS", "word": "balloon", "wordID": 74, "conditions": [24, 1600, "v", 24000], "trial": 2, "serialpos": 4, "trial_type": "single-stim", "trial_index": 93, "time_elapsed": 548968, "internal_node_id": "0.0-66.0"}}, {"uniqueid": "MTK0870:3QILPRALQ62PJPIM58EH0MM0TI5N83", "current_trial": 94, "dateTime": 1512855709181, "trialdata": {"rt": -1, "stimulus": "<p id=\"stim\">POLICE</p>", "key_press": -1, "type": "PRES_VIS", "word": "police", "wordID": 1097, "conditions": [24, 1600, "v", 24000], "trial": 2, "serialpos": 5, "trial_type": "single-stim", "trial_index": 94, "time_elapsed": 551750, "internal_node_id": "0.0-67.0"}}, {"uniqueid": "MTK0870:3QILPRALQ62PJPIM58EH0MM0TI5N83", "current_trial": 95, "dateTime": 1512855711767, "trialdata": {"rt": -1, "stimulus": "<p id=\"stim\">PATROL</p>", "key_press": -1, "type": "PRES_VIS", "word": "patrol", "wordID": 1026, "conditions": [24, 1600, "v", 24000], "trial": 2, "serialpos": 6, "trial_type": "single-stim", "trial_index": 95, "time_elapsed": 554336, "internal_node_id": "0.0-68.0"}}, {"uniqueid": "MTK0870:3QILPRALQ62PJPIM58EH0MM0TI5N83", "current_trial": 96, "dateTime": 1512855714309, "trialdata": {"rt": -1, "stimulus": "<p id=\"stim\">FIREPLACE</p>", "key_press": -1, "type": "PRES_VIS", "word": "fireplace", "wordID": 569, "conditions": [24, 1600, "v", 24000], "trial": 2, "serialpos": 7, "trial_type": "single-stim", "trial_index": 96, "time_elapsed": 556878, "internal_node_id": "0.0-69.0"}}, {"uniqueid": "MTK0870:3QILPRALQ62PJPIM58EH0MM0TI5N83", "current_trial": 97, "dateTime": 1512855717022, "trialdata": {"rt": -1, "stimulus": "<p id=\"stim\">COIN</p>", "key_press": -1, "type": "PRES_VIS", "word": "coin", "wordID": 342, "conditions": [24, 1600, "v", 24000], "trial": 2, "serialpos": 8, "trial_type": "single-stim", "trial_index": 97, "time_elapsed": 559591, "internal_node_id": "0.0-70.0"}}, {"uniqueid": "MTK0870:3QILPRALQ62PJPIM58EH0MM0TI5N83", "current_trial": 98, "dateTime": 1512855719817, "trialdata": {"rt": -1, "stimulus": "<p id=\"stim\">ATLAS</p>", "key_press": -1, "type": "PRES_VIS", "word": "atlas", "wordID": 52, "conditions": [24, 1600, "v", 24000], "trial": 2, "serialpos": 9, "trial_type": "single-stim", "trial_index": 98, "time_elapsed": 562386, "internal_node_id": "0.0-71.0"}}, {"uniqueid": "MTK0870:3QILPRALQ62PJPIM58EH0MM0TI5N83", "current_trial": 99, "dateTime": 1512855722518, "trialdata": {"rt": -1, "stimulus": "<p id=\"stim\">BOUQUET</p>", "key_press": -1, "type": "PRES_VIS", "word": "bouquet", "wordID": 156, "conditions": [24, 1600, "v", 24000], "trial": 2, "serialpos": 10, "trial_type": "single-stim", "trial_index": 99, "time_elapsed": 565087, "internal_node_id": "0.0-72.0"}}, {"uniqueid": "MTK0870:3QILPRALQ62PJPIM58EH0MM0TI5N83", "current_trial": 100, "dateTime": 1512855724986, "trialdata": {"rt": -1, "stimulus": "<p id=\"stim\">PISTON</p>", "key_press": -1, "type": "PRES_VIS", "word": "piston", "wordID": 1075, "conditions": [24, 1600, "v", 24000], "trial": 2, "serialpos": 11, "trial_type": "single-stim", "trial_index": 100, "time_elapsed": 567555, "internal_node_id": "0.0-73.0"}}, {"uniqueid": "MTK0870:3QILPRALQ62PJPIM58EH0MM0TI5N83", "current_trial": 101, "dateTime": 1512855727535, "trialdata": {"rt": -1, "stimulus": "<p id=\"stim\">LIZARD</p>", "key_press": -1, "type": "PRES_VIS", "word": "lizard", "wordID": 833, "conditions": [24, 1600, "v", 24000], "trial": 2, "serialpos": 12, "trial_type": "single-stim", "trial_index": 101, "time_elapsed": 570104, "internal_node_id": "0.0-74.0"}}, {"uniqueid": "MTK0870:3QILPRALQ62PJPIM58EH0MM0TI5N83", "current_trial": 102, "dateTime": 1512855730108, "trialdata": {"rt": -1, "stimulus": "<p id=\"stim\">SALAD</p>", "key_press": -1, "type": "PRES_VIS", "word": "salad", "wordID": 1223, "conditions": [24, 1600, "v", 24000], "trial": 2, "serialpos": 13, "trial_type": "single-stim", "trial_index": 102, "time_elapsed": 572677, "internal_node_id": "0.0-75.0"}}, {"uniqueid": "MTK0870:3QILPRALQ62PJPIM58EH0MM0TI5N83", "current_trial": 103, "dateTime": 1512855732525, "trialdata": {"rt": -1, "stimulus": "<p id=\"stim\">SANDWICH</p>", "key_press": -1, "type": "PRES_VIS", "word": "sandwich", "wordID": 1231, "conditions": [24, 1600, "v", 24000], "trial": 2, "serialpos": 14, "trial_type": "single-stim", "trial_index": 103, "time_elapsed": 575094, "internal_node_id": "0.0-76.0"}}, {"uniqueid": "MTK0870:3QILPRALQ62PJPIM58EH0MM0TI5N83", "current_trial": 104, "dateTime": 1512855735210, "trialdata": {"rt": -1, "stimulus": "<p id=\"stim\">PAPER</p>", "key_press": -1, "type": "PRES_VIS", "word": "paper", "wordID": 1010, "conditions": [24, 1600, "v", 24000], "trial": 2, "serialpos": 15, "trial_type": "single-stim", "trial_index": 104, "time_elapsed": 577779, "internal_node_id": "0.0-77.0"}}, {"uniqueid": "MTK0870:3QILPRALQ62PJPIM58EH0MM0TI5N83", "current_trial": 105, "dateTime": 1512855737626, "trialdata": {"rt": -1, "stimulus": "<p id=\"stim\">FOREHEAD</p>", "key_press": -1, "type": "PRES_VIS", "word": "forehead", "wordID": 591, "conditions": [24, 1600, "v", 24000], "trial": 2, "serialpos": 16, "trial_type": "single-stim", "trial_index": 105, "time_elapsed": 580195, "internal_node_id": "0.0-78.0"}}, {"uniqueid": "MTK0870:3QILPRALQ62PJPIM58EH0MM0TI5N83", "current_trial": 106, "dateTime": 1512855740306, "trialdata": {"rt": -1, "stimulus": "<p id=\"stim\">SUITCASE</p>", "key_press": -1, "type": "PRES_VIS", "word": "suitcase", "wordID": 1402, "conditions": [24, 1600, "v", 24000], "trial": 2, "serialpos": 17, "trial_type": "single-stim", "trial_index": 106, "time_elapsed": 582874, "internal_node_id": "0.0-79.0"}}, {"uniqueid": "MTK0870:3QILPRALQ62PJPIM58EH0MM0TI5N83", "current_trial": 107, "dateTime": 1512855742918, "trialdata": {"rt": -1, "stimulus": "<p id=\"stim\">CLIMBER</p>", "key_press": -1, "type": "PRES_VIS", "word": "climber", "wordID": 322, "conditions": [24, 1600, "v", 24000], "trial": 2, "serialpos": 18, "trial_type": "single-stim", "trial_index": 107, "time_elapsed": 585487, "internal_node_id": "0.0-80.0"}}, {"uniqueid": "MTK0870:3QILPRALQ62PJPIM58EH0MM0TI5N83", "current_trial": 108, "dateTime": 1512855745356, "trialdata": {"rt": -1, "stimulus": "<p id=\"stim\">SPHINX</p>", "key_press": -1, "type": "PRES_VIS", "word": "sphinx", "wordID": 1348, "conditions": [24, 1600, "v", 24000], "trial": 2, "serialpos": 19, "trial_type": "single-stim", "trial_index": 108, "time_elapsed": 587925, "internal_node_id": "0.0-81.0"}}, {"uniqueid": "MTK0870:3QILPRALQ62PJPIM58EH0MM0TI5N83", "current_trial": 109, "dateTime": 1512855747770, "trialdata": {"rt": -1, "stimulus": "<p id=\"stim\">HAND</p>", "key_press": -1, "type": "PRES_VIS", "word": "hand", "wordID": 682, "conditions": [24, 1600, "v", 24000], "trial": 2, "serialpos": 20, "trial_type": "single-stim", "trial_index": 109, "time_elapsed": 590339, "internal_node_id": "0.0-82.0"}}, {"uniqueid": "MTK0870:3QILPRALQ62PJPIM58EH0MM0TI5N83", "current_trial": 110, "dateTime": 1512855750317, "trialdata": {"rt": -1, "stimulus": "<p id=\"stim\">CRUTCH</p>", "key_press": -1, "type": "PRES_VIS", "word": "crutch", "wordID": 416, "conditions": [24, 1600, "v", 24000], "trial": 2, "serialpos": 21, "trial_type": "single-stim", "trial_index": 110, "time_elapsed": 592886, "internal_node_id": "0.0-83.0"}}, {"uniqueid": "MTK0870:3QILPRALQ62PJPIM58EH0MM0TI5N83", "current_trial": 111, "dateTime": 1512855752814, "trialdata": {"rt": -1, "stimulus": "<p id=\"stim\">COOKBOOK</p>", "key_press": -1, "type": "PRES_VIS", "word": "cookbook", "wordID": 372, "conditions": [24, 1600, "v", 24000], "trial": 2, "serialpos": 22, "trial_type": "single-stim", "trial_index": 111, "time_elapsed": 595383, "internal_node_id": "0.0-84.0"}}, {"uniqueid": "MTK0870:3QILPRALQ62PJPIM58EH0MM0TI5N83", "current_trial": 112, "dateTime": 1512855755519, "trialdata": {"rt": -1, "stimulus": "<p id=\"stim\">HIKER</p>", "key_press": -1, "type": "PRES_VIS", "word": "hiker", "wordID": 707, "conditions": [24, 1600, "v", 24000], "trial": 2, "serialpos": 23, "trial_type": "single-stim", "trial_index": 112, "time_elapsed": 598088, "internal_node_id": "0.0-85.0"}}, {"uniqueid": "MTK0870:3QILPRALQ62PJPIM58EH0MM0TI5N83", "current_trial": 113, "dateTime": 1512855757833, "trialdata": {"rt": -1, "stimulus": "", "key_press": -1, "type": "PRE_RECALL_DELAY", "trial_type": "single-stim", "trial_index": 113, "time_elapsed": 600402, "internal_node_id": "0.0-86.0-0.0"}}, {"uniqueid": "MTK0870:3QILPRALQ62PJPIM58EH0MM0TI5N83", "current_trial": 114, "dateTime": 1512855758335, "trialdata": {"rt": -1000, "stimulus": "/static/audio/400Hz.wav", "key_press": -1, "type": "PRE_RECALL_ALERT", "trial_type": "single-audio", "trial_index": 114, "time_elapsed": 600904, "internal_node_id": "0.0-87.0"}}, {"uniqueid": "MTK0870:3QILPRALQ62PJPIM58EH0MM0TI5N83", "current_trial": 115, "dateTime": 1512855818348, "trialdata": {"rt": [2270, 2978, 4731, 6049, 7693, 8645, 11084, 15690, 16787, 23916, 25884, 28843], "recwords": ["cookbook", "hiker", "bouquet", "journal", "police", "patrol", "balloon", "hand", "fireplace", "forehead", "lizard", "ulcer"], "type": "FREE_RECALL", "conditions": [24, 1600, "v", 24000], "trial": 2, "trial_type": "free-recall", "trial_index": 115, "time_elapsed": 660915, "internal_node_id": "0.0-88.0-0.0"}}, {"uniqueid": "MTK0870:3QILPRALQ62PJPIM58EH0MM0TI5N83", "current_trial": 116, "dateTime": 1512855820930, "trialdata": {"rt": 577, "key_press": 32, "type": "INSTRUCTIONS", "trial_type": "text", "trial_index": 116, "time_elapsed": 663499, "internal_node_id": "0.0-89.0"}}, {"uniqueid": "MTK0870:3QILPRALQ62PJPIM58EH0MM0TI5N83", "current_trial": 117, "dateTime": 1512855834938, "trialdata": {"rt": [2483, 3723, 7236, 10821], "responses": ["10", "12", "24", "21"], "num1": [4, 3, 9, 8, 3], "num2": [2, 7, 9, 3, 4], "num3": [4, 2, 6, 9, 5], "type": "DISTRACTOR", "conditions": [24, 800, "a", 12000], "trial": 3, "trial_type": "math-distractor", "trial_index": 117, "time_elapsed": 677507, "internal_node_id": "0.0-90.0"}}, {"uniqueid": "MTK0870:3QILPRALQ62PJPIM58EH0MM0TI5N83", "current_trial": 118, "dateTime": 1512855837944, "trialdata": {"rt": -1, "stimulus": "<p id=\"stim\">10</p>", "key_press": -1, "trial_type": "single-stim", "trial_index": 118, "time_elapsed": 680512, "internal_node_id": "0.0-91.0-0.0"}}, {"uniqueid": "MTK0870:3QILPRALQ62PJPIM58EH0MM0TI5N83", "current_trial": 119, "dateTime": 1512855838948, "trialdata": {"rt": -1, "stimulus": "<p id=\"stim\">9</p>", "key_press": -1, "trial_type": "single-stim", "trial_index": 119, "time_elapsed": 681517, "internal_node_id": "0.0-91.0-1.0"}}, {"uniqueid": "MTK0870:3QILPRALQ62PJPIM58EH0MM0TI5N83", "current_trial": 120, "dateTime": 1512855839954, "trialdata": {"rt": -1, "stimulus": "<p id=\"stim\">8</p>", "key_press": -1, "trial_type": "single-stim", "trial_index": 120, "time_elapsed": 682522, "internal_node_id": "0.0-91.0-2.0"}}, {"uniqueid": "MTK0870:3QILPRALQ62PJPIM58EH0MM0TI5N83", "current_trial": 121, "dateTime": 1512855840959, "trialdata": {"rt": -1, "stimulus": "<p id=\"stim\">7</p>", "key_press": -1, "trial_type": "single-stim", "trial_index": 121, "time_elapsed": 683528, "internal_node_id": "0.0-91.0-3.0"}}, {"uniqueid": "MTK0870:3QILPRALQ62PJPIM58EH0MM0TI5N83", "current_trial": 122, "dateTime": 1512855841964, "trialdata": {"rt": -1, "stimulus": "<p id=\"stim\">6</p>", "key_press": -1, "trial_type": "single-stim", "trial_index": 122, "time_elapsed": 684533, "internal_node_id": "0.0-91.0-4.0"}}, {"uniqueid": "MTK0870:3QILPRALQ62PJPIM58EH0MM0TI5N83", "current_trial": 123, "dateTime": 1512855842969, "trialdata": {"rt": -1, "stimulus": "<p id=\"stim\">5</p>", "key_press": -1, "trial_type": "single-stim", "trial_index": 123, "time_elapsed": 685538, "internal_node_id": "0.0-91.0-5.0"}}, {"uniqueid": "MTK0870:3QILPRALQ62PJPIM58EH0MM0TI5N83", "current_trial": 124, "dateTime": 1512855843974, "trialdata": {"rt": -1, "stimulus": "<p id=\"stim\">4</p>", "key_press": -1, "trial_type": "single-stim", "trial_index": 124, "time_elapsed": 686543, "internal_node_id": "0.0-91.0-6.0"}}, {"uniqueid": "MTK0870:3QILPRALQ62PJPIM58EH0MM0TI5N83", "current_trial": 125, "dateTime": 1512855844978, "trialdata": {"rt": -1, "stimulus": "<p id=\"stim\">3</p>", "key_press": -1, "trial_type": "single-stim", "trial_index": 125, "time_elapsed": 687547, "internal_node_id": "0.0-91.0-7.0"}}, {"uniqueid": "MTK0870:3QILPRALQ62PJPIM58EH0MM0TI5N83", "current_trial": 126, "dateTime": 1512855845982, "trialdata": {"rt": -1, "stimulus": "<p id=\"stim\">2</p>", "key_press": -1, "trial_type": "single-stim", "trial_index": 126, "time_elapsed": 688551, "internal_node_id": "0.0-91.0-8.0"}}, {"uniqueid": "MTK0870:3QILPRALQ62PJPIM58EH0MM0TI5N83", "current_trial": 127, "dateTime": 1512855846987, "trialdata": {"rt": -1, "stimulus": "<p id=\"stim\">1</p>", "key_press": -1, "trial_type": "single-stim", "trial_index": 127, "time_elapsed": 689555, "internal_node_id": "0.0-91.0-9.0"}}, {"uniqueid": "MTK0870:3QILPRALQ62PJPIM58EH0MM0TI5N83", "current_trial": 128, "dateTime": 1512855848490, "trialdata": {"rt": -1, "stimulus": "<p id=\"stim\">+</p>", "key_press": -1, "type": "FIXATION", "trial_type": "single-stim", "trial_index": 128, "time_elapsed": 691059, "internal_node_id": "0.0-92.0-0.0"}}, {"uniqueid": "MTK0870:3QILPRALQ62PJPIM58EH0MM0TI5N83", "current_trial": 129, "dateTime": 1512855850463, "trialdata": {"rt": -1000, "stimulus": "/static/audio/wordpool/MASK.wav", "key_press": -1, "type": "PRES_AUD", "word": "mask", "wordID": 875, "conditions": [24, 800, "a", 12000], "trial": 3, "serialpos": 0, "trial_type": "single-audio", "trial_index": 129, "time_elapsed": 693032, "internal_node_id": "0.0-93.0"}}, {"uniqueid": "MTK0870:3QILPRALQ62PJPIM58EH0MM0TI5N83", "current_trial": 130, "dateTime": 1512855852280, "trialdata": {"rt": -1000, "stimulus": "/static/audio/wordpool/INMATE.wav", "key_press": -1, "type": "PRES_AUD", "word": "inmate", "wordID": 737, "conditions": [24, 800, "a", 12000], "trial": 3, "serialpos": 1, "trial_type": "single-audio", "trial_index": 130, "time_elapsed": 694848, "internal_node_id": "0.0-94.0"}}, {"uniqueid": "MTK0870:3QILPRALQ62PJPIM58EH0MM0TI5N83", "current_trial": 131, "dateTime": 1512855854247, "trialdata": {"rt": -1000, "stimulus": "/static/audio/wordpool/BEEF.wav", "key_press": -1, "type": "PRES_AUD", "word": "beef", "wordID": 112, "conditions": [24, 800, "a", 12000], "trial": 3, "serialpos": 2, "trial_type": "single-audio", "trial_index": 131, "time_elapsed": 696816, "internal_node_id": "0.0-95.0"}}, {"uniqueid": "MTK0870:3QILPRALQ62PJPIM58EH0MM0TI5N83", "current_trial": 132, "dateTime": 1512855856030, "trialdata": {"rt": -1000, "stimulus": "/static/audio/wordpool/MUMMY.wav", "key_press": -1, "type": "PRES_AUD", "word": "mummy", "wordID": 931, "conditions": [24, 800, "a", 12000], "trial": 3, "serialpos": 3, "trial_type": "single-audio", "trial_index": 132, "time_elapsed": 698599, "internal_node_id": "0.0-96.0"}}, {"uniqueid": "MTK0870:3QILPRALQ62PJPIM58EH0MM0TI5N83", "current_trial": 133, "dateTime": 1512855857870, "trialdata": {"rt": -1000, "stimulus": "/static/audio/wordpool/JUDGE.wav", "key_press": -1, "type": "PRES_AUD", "word": "judge", "wordID": 760, "conditions": [24, 800, "a", 12000], "trial": 3, "serialpos": 4, "trial_type": "single-audio", "trial_index": 133, "time_elapsed": 700438, "internal_node_id": "0.0-97.0"}}, {"uniqueid": "MTK0870:3QILPRALQ62PJPIM58EH0MM0TI5N83", "current_trial": 134, "dateTime": 1512855859542, "trialdata": {"rt": -1000, "stimulus": "/static/audio/wordpool/STREAM.wav", "key_press": -1, "type": "PRES_AUD", "word": "stream", "wordID": 1391, "conditions": [24, 800, "a", 12000], "trial": 3, "serialpos": 5, "trial_type": "single-audio", "trial_index": 134, "time_elapsed": 702111, "internal_node_id": "0.0-98.0"}}, {"uniqueid": "MTK0870:3QILPRALQ62PJPIM58EH0MM0TI5N83", "current_trial": 135, "dateTime": 1512855861397, "trialdata": {"rt": -1000, "stimulus": "/static/audio/wordpool/BADGE.wav", "key_press": -1, "type": "PRES_AUD", "word": "badge", "wordID": 67, "conditions": [24, 800, "a", 12000], "trial": 3, "serialpos": 6, "trial_type": "single-audio", "trial_index": 135, "time_elapsed": 703966, "internal_node_id": "0.0-99.0"}}, {"uniqueid": "MTK0870:3QILPRALQ62PJPIM58EH0MM0TI5N83", "current_trial": 136, "dateTime": 1512855863097, "trialdata": {"rt": -1000, "stimulus": "/static/audio/wordpool/STICKER.wav", "key_press": -1, "type": "PRES_AUD", "word": "sticker", "wordID": 1381, "conditions": [24, 800, "a", 12000], "trial": 3, "serialpos": 7, "trial_type": "single-audio", "trial_index": 136, "time_elapsed": 705666, "internal_node_id": "0.0-100.0"}}, {"uniqueid": "MTK0870:3QILPRALQ62PJPIM58EH0MM0TI5N83", "current_trial": 137, "dateTime": 1512855865096, "trialdata": {"rt": -1000, "stimulus": "/static/audio/wordpool/BANKER.wav", "key_press": -1, "type": "PRES_AUD", "word": "banker", "wordID": 83, "conditions": [24, 800, "a", 12000], "trial": 3, "serialpos": 8, "trial_type": "single-audio", "trial_index": 137, "time_elapsed": 707665, "internal_node_id": "0.0-101.0"}}, {"uniqueid": "MTK0870:3QILPRALQ62PJPIM58EH0MM0TI5N83", "current_trial": 138, "dateTime": 1512855867056, "trialdata": {"rt": -1000, "stimulus": "/static/audio/wordpool/WIDOW.wav", "key_press": -1, "type": "PRES_AUD", "word": "widow", "wordID": 1607, "conditions": [24, 800, "a", 12000], "trial": 3, "serialpos": 9, "trial_type": "single-audio", "trial_index": 138, "time_elapsed": 709625, "internal_node_id": "0.0-102.0"}}, {"uniqueid": "MTK0870:3QILPRALQ62PJPIM58EH0MM0TI5N83", "current_trial": 139, "dateTime": 1512855868743, "trialdata": {"rt": -1000, "stimulus": "/static/audio/wordpool/JURY.wav", "key_press": -1, "type": "PRES_AUD", "word": "jury", "wordID": 765, "conditions": [24, 800, "a", 12000], "trial": 3, "serialpos": 10, "trial_type": "single-audio", "trial_index": 139, "time_elapsed": 711312, "internal_node_id": "0.0-103.0"}}, {"uniqueid": "MTK0870:3QILPRALQ62PJPIM58EH0MM0TI5N83", "current_trial": 140, "dateTime": 1512855870718, "trialdata": {"rt": -1000, "stimulus": "/static/audio/wordpool/BOYFRIEND.wav", "key_press": -1, "type": "PRES_AUD", "word": "boyfriend", "wordID": 161, "conditions": [24, 800, "a", 12000], "trial": 3, "serialpos": 11, "trial_type": "single-audio", "trial_index": 140, "time_elapsed": 713287, "internal_node_id": "0.0-104.0"}}, {"uniqueid": "MTK0870:3QILPRALQ62PJPIM58EH0MM0TI5N83", "current_trial": 141, "dateTime": 1512855872358, "trialdata": {"rt": -1000, "stimulus": "/static/audio/wordpool/SUNRISE.wav", "key_press": -1, "type": "PRES_AUD", "word": "sunrise", "wordID": 1406, "conditions": [24, 800, "a", 12000], "trial": 3, "serialpos": 12, "trial_type": "single-audio", "trial_index": 141, "time_elapsed": 714927, "internal_node_id": "0.0-105.0"}}, {"uniqueid": "MTK0870:3QILPRALQ62PJPIM58EH0MM0TI5N83", "current_trial": 142, "dateTime": 1512855874331, "trialdata": {"rt": -1000, "stimulus": "/static/audio/wordpool/TORTOISE.wav", "key_press": -1, "type": "PRES_AUD", "word": "tortoise", "wordID": 1485, "conditions": [24, 800, "a", 12000], "trial": 3, "serialpos": 13, "trial_type": "single-audio", "trial_index": 142, "time_elapsed": 716900, "internal_node_id": "0.0-106.0"}}, {"uniqueid": "MTK0870:3QILPRALQ62PJPIM58EH0MM0TI5N83", "current_trial": 143, "dateTime": 1512855876260, "trialdata": {"rt": -1000, "stimulus": "/static/audio/wordpool/SNAIL.wav", "key_press": -1, "type": "PRES_AUD", "word": "snail", "wordID": 1331, "conditions": [24, 800, "a", 12000], "trial": 3, "serialpos": 14, "trial_type": "single-audio", "trial_index": 143, "time_elapsed": 718829, "internal_node_id": "0.0-107.0"}}, {"uniqueid": "MTK0870:3QILPRALQ62PJPIM58EH0MM0TI5N83", "current_trial": 144, "dateTime": 1512855878060, "trialdata": {"rt": -1000, "stimulus": "/static/audio/wordpool/BLENDER.wav", "key_press": -1, "type": "PRES_AUD", "word": "blender", "wordID": 135, "conditions": [24, 800, "a", 12000], "trial": 3, "serialpos": 15, "trial_type": "single-audio", "trial_index": 144, "time_elapsed": 720629, "internal_node_id": "0.0-108.0"}}, {"uniqueid": "MTK0870:3QILPRALQ62PJPIM58EH0MM0TI5N83", "current_trial": 145, "dateTime": 1512855879899, "trialdata": {"rt": -1000, "stimulus": "/static/audio/wordpool/KEEPER.wav", "key_press": -1, "type": "PRES_AUD", "word": "keeper", "wordID": 768, "conditions": [24, 800, "a", 12000], "trial": 3, "serialpos": 16, "trial_type": "single-audio", "trial_index": 145, "time_elapsed": 722468, "internal_node_id": "0.0-109.0"}}, {"uniqueid": "MTK0870:3QILPRALQ62PJPIM58EH0MM0TI5N83", "current_trial": 146, "dateTime": 1512855881664, "trialdata": {"rt": -1000, "stimulus": "/static/audio/wordpool/BLOCKADE.wav", "key_press": -1, "type": "PRES_AUD", "word": "blockade", "wordID": 136, "conditions": [24, 800, "a", 12000], "trial": 3, "serialpos": 17, "trial_type": "single-audio", "trial_index": 146, "time_elapsed": 724233, "internal_node_id": "0.0-110.0"}}, {"uniqueid": "MTK0870:3QILPRALQ62PJPIM58EH0MM0TI5N83", "current_trial": 147, "dateTime": 1512855883565, "trialdata": {"rt": -1000, "stimulus": "/static/audio/wordpool/GALLON.wav", "key_press": -1, "type": "PRES_AUD", "word": "gallon", "wordID": 617, "conditions": [24, 800, "a", 12000], "trial": 3, "serialpos": 18, "trial_type": "single-audio", "trial_index": 147, "time_elapsed": 726134, "internal_node_id": "0.0-111.0"}}, {"uniqueid": "MTK0870:3QILPRALQ62PJPIM58EH0MM0TI5N83", "current_trial": 148, "dateTime": 1512855885456, "trialdata": {"rt": -1000, "stimulus": "/static/audio/wordpool/SUNSET.wav", "key_press": -1, "type": "PRES_AUD", "word": "sunset", "wordID": 1407, "conditions": [24, 800, "a", 12000], "trial": 3, "serialpos": 19, "trial_type": "single-audio", "trial_index": 148, "time_elapsed": 728025, "internal_node_id": "0.0-112.0"}}, {"uniqueid": "MTK0870:3QILPRALQ62PJPIM58EH0MM0TI5N83", "current_trial": 149, "dateTime": 1512855887231, "trialdata": {"rt": -1000, "stimulus": "/static/audio/wordpool/GYMNAST.wav", "key_press": -1, "type": "PRES_AUD", "word": "gymnast", "wordID": 674, "conditions": [24, 800, "a", 12000], "trial": 3, "serialpos": 20, "trial_type": "single-audio", "trial_index": 149, "time_elapsed": 729800, "internal_node_id": "0.0-113.0"}}, {"uniqueid": "MTK0870:3QILPRALQ62PJPIM58EH0MM0TI5N83", "current_trial": 150, "dateTime": 1512855888881, "trialdata": {"rt": -1000, "stimulus": "/static/audio/wordpool/VAGRANT.wav", "key_press": -1, "type": "PRES_AUD", "word": "vagrant", "wordID": 1543, "conditions": [24, 800, "a", 12000], "trial": 3, "serialpos": 21, "trial_type": "single-audio", "trial_index": 150, "time_elapsed": 731450, "internal_node_id": "0.0-114.0"}}, {"uniqueid": "MTK0870:3QILPRALQ62PJPIM58EH0MM0TI5N83", "current_trial": 151, "dateTime": 1512855890884, "trialdata": {"rt": -1000, "stimulus": "/static/audio/wordpool/GHETTO.wav", "key_press": -1, "type": "PRES_AUD", "word": "ghetto", "wordID": 632, "conditions": [24, 800, "a", 12000], "trial": 3, "serialpos": 22, "trial_type": "single-audio", "trial_index": 151, "time_elapsed": 733453, "internal_node_id": "0.0-115.0"}}, {"uniqueid": "MTK0870:3QILPRALQ62PJPIM58EH0MM0TI5N83", "current_trial": 152, "dateTime": 1512855892626, "trialdata": {"rt": -1000, "stimulus": "/static/audio/wordpool/CATCHER.wav", "key_press": -1, "type": "PRES_AUD", "word": "catcher", "wordID": 257, "conditions": [24, 800, "a", 12000], "trial": 3, "serialpos": 23, "trial_type": "single-audio", "trial_index": 152, "time_elapsed": 735194, "internal_node_id": "0.0-116.0"}}, {"uniqueid": "MTK0870:3QILPRALQ62PJPIM58EH0MM0TI5N83", "current_trial": 153, "dateTime": 1512855893874, "trialdata": {"rt": -1, "stimulus": "", "key_press": -1, "type": "PRE_RECALL_DELAY", "trial_type": "single-stim", "trial_index": 153, "time_elapsed": 736442, "internal_node_id": "0.0-117.0-0.0"}}, {"uniqueid": "MTK0870:3QILPRALQ62PJPIM58EH0MM0TI5N83", "current_trial": 154, "dateTime": 1512855894375, "trialdata": {"rt": -1000, "stimulus": "/static/audio/400Hz.wav", "key_press": -1, "type": "PRE_RECALL_ALERT", "trial_type": "single-audio", "trial_index": 154, "time_elapsed": 736944, "internal_node_id": "0.0-118.0"}}, {"uniqueid": "MTK0870:3QILPRALQ62PJPIM58EH0MM0TI5N83", "current_trial": 155, "dateTime": 1512855954387, "trialdata": {"rt": [1375, 2659, 5228, 8700, 13822, 18802, 26057, 29346, 39774, 46367], "recwords": ["catcher", "vagrant", "snail", "boyfriend", "jury", "tortoise", "sunset", "banker", "sphinx", "catcher"], "type": "FREE_RECALL", "conditions": [24, 800, "a", 12000], "trial": 3, "trial_type": "free-recall", "trial_index": 155, "time_elapsed": 796952, "internal_node_id": "0.0-119.0-0.0"}}, {"uniqueid": "MTK0870:3QILPRALQ62PJPIM58EH0MM0TI5N83", "current_trial": 156, "dateTime": 1512856017507, "trialdata": {"rt": 61115, "key_press": 32, "type": "INSTRUCTIONS", "trial_type": "text", "trial_index": 156, "time_elapsed": 860076, "internal_node_id": "0.0-120.0"}}, {"uniqueid": "MTK0870:3QILPRALQ62PJPIM58EH0MM0TI5N83", "current_trial": 157, "dateTime": 1512856043522, "trialdata": {"rt": [1552, 3723, 6001, 7857, 9269, 11051, 12484, 13723, 15425, 17632, 19663, 21523, 22903], "responses": ["15", "12", "19", "16", "12", "13", "17", "16", "9", "14", "27", "12", "12"], "num1": [5, 4, 8, 2, 2, 5, 5, 9, 2, 2, 8, 3, 3, 2], "num2": [9, 1, 5, 5, 3, 4, 6, 1, 5, 9, 9, 7, 8, 4], "num3": [1, 7, 6, 9, 7, 4, 6, 6, 2, 3, 9, 2, 1, 1], "type": "DISTRACTOR", "conditions": [24, 1600, "a", 24000], "trial": 4, "trial_type": "math-distractor", "trial_index": 157, "time_elapsed": 886091, "internal_node_id": "0.0-121.0"}}, {"uniqueid": "MTK0870:3QILPRALQ62PJPIM58EH0MM0TI5N83", "current_trial": 158, "dateTime": 1512856046530, "trialdata": {"rt": -1, "stimulus": "<p id=\"stim\">10</p>", "key_press": -1, "trial_type": "single-stim", "trial_index": 158, "time_elapsed": 889099, "internal_node_id": "0.0-122.0-0.0"}}, {"uniqueid": "MTK0870:3QILPRALQ62PJPIM58EH0MM0TI5N83", "current_trial": 159, "dateTime": 1512856047535, "trialdata": {"rt": -1, "stimulus": "<p id=\"stim\">9</p>", "key_press": -1, "trial_type": "single-stim", "trial_index": 159, "time_elapsed": 890103, "internal_node_id": "0.0-122.0-1.0"}}, {"uniqueid": "MTK0870:3QILPRALQ62PJPIM58EH0MM0TI5N83", "current_trial": 160, "dateTime": 1512856048541, "trialdata": {"rt": -1, "stimulus": "<p id=\"stim\">8</p>", "key_press": -1, "trial_type": "single-stim", "trial_index": 160, "time_elapsed": 891109, "internal_node_id": "0.0-122.0-2.0"}}, {"uniqueid": "MTK0870:3QILPRALQ62PJPIM58EH0MM0TI5N83", "current_trial": 161, "dateTime": 1512856049543, "trialdata": {"rt": -1, "stimulus": "<p id=\"stim\">7</p>", "key_press": -1, "trial_type": "single-stim", "trial_index": 161, "time_elapsed": 892112, "internal_node_id": "0.0-122.0-3.0"}}, {"uniqueid": "MTK0870:3QILPRALQ62PJPIM58EH0MM0TI5N83", "current_trial": 162, "dateTime": 1512856050549, "trialdata": {"rt": -1, "stimulus": "<p id=\"stim\">6</p>", "key_press": -1, "trial_type": "single-stim", "trial_index": 162, "time_elapsed": 893117, "internal_node_id": "0.0-122.0-4.0"}}, {"uniqueid": "MTK0870:3QILPRALQ62PJPIM58EH0MM0TI5N83", "current_trial": 163, "dateTime": 1512856051551, "trialdata": {"rt": -1, "stimulus": "<p id=\"stim\">5</p>", "key_press": -1, "trial_type": "single-stim", "trial_index": 163, "time_elapsed": 894120, "internal_node_id": "0.0-122.0-5.0"}}, {"uniqueid": "MTK0870:3QILPRALQ62PJPIM58EH0MM0TI5N83", "current_trial": 164, "dateTime": 1512856052555, "trialdata": {"rt": -1, "stimulus": "<p id=\"stim\">4</p>", "key_press": -1, "trial_type": "single-stim", "trial_index": 164, "time_elapsed": 895124, "internal_node_id": "0.0-122.0-6.0"}}, {"uniqueid": "MTK0870:3QILPRALQ62PJPIM58EH0MM0TI5N83", "current_trial": 165, "dateTime": 1512856053559, "trialdata": {"rt": -1, "stimulus": "<p id=\"stim\">3</p>", "key_press": -1, "trial_type": "single-stim", "trial_index": 165, "time_elapsed": 896128, "internal_node_id": "0.0-122.0-7.0"}}, {"uniqueid": "MTK0870:3QILPRALQ62PJPIM58EH0MM0TI5N83", "current_trial": 166, "dateTime": 1512856054562, "trialdata": {"rt": -1, "stimulus": "<p id=\"stim\">2</p>", "key_press": -1, "trial_type": "single-stim", "trial_index": 166, "time_elapsed": 897131, "internal_node_id": "0.0-122.0-8.0"}}, {"uniqueid": "MTK0870:3QILPRALQ62PJPIM58EH0MM0TI5N83", "current_trial": 167, "dateTime": 1512856055566, "trialdata": {"rt": -1, "stimulus": "<p id=\"stim\">1</p>", "key_press": -1, "trial_type": "single-stim", "trial_index": 167, "time_elapsed": 898135, "internal_node_id": "0.0-122.0-9.0"}}, {"uniqueid": "MTK0870:3QILPRALQ62PJPIM58EH0MM0TI5N83", "current_trial": 168, "dateTime": 1512856057070, "trialdata": {"rt": -1, "stimulus": "<p id=\"stim\">+</p>", "key_press": -1, "type": "FIXATION", "trial_type": "single-stim", "trial_index": 168, "time_elapsed": 899639, "internal_node_id": "0.0-123.0-0.0"}}, {"uniqueid": "MTK0870:3QILPRALQ62PJPIM58EH0MM0TI5N83", "current_trial": 169, "dateTime": 1512856059626, "trialdata": {"rt": -1000, "stimulus": "/static/audio/wordpool/TUTU.wav", "key_press": -1, "type": "PRES_AUD", "word": "tutu", "wordID": 1523, "conditions": [24, 1600, "a", 24000], "trial": 4, "serialpos": 0, "trial_type": "single-audio", "trial_index": 169, "time_elapsed": 902194, "internal_node_id": "0.0-124.0"}}, {"uniqueid": "MTK0870:3QILPRALQ62PJPIM58EH0MM0TI5N83", "current_trial": 170, "dateTime": 1512856062110, "trialdata": {"rt": -1000, "stimulus": "/static/audio/wordpool/BUG.wav", "key_press": -1, "type": "PRES_AUD", "word": "bug", "wordID": 186, "conditions": [24, 1600, "a", 24000], "trial": 4, "serialpos": 1, "trial_type": "single-audio", "trial_index": 170, "time_elapsed": 904679, "internal_node_id": "0.0-125.0"}}, {"uniqueid": "MTK0870:3QILPRALQ62PJPIM58EH0MM0TI5N83", "current_trial": 171, "dateTime": 1512856064847, "trialdata": {"rt": -1000, "stimulus": "/static/audio/wordpool/VIRUS.wav", "key_press": -1, "type": "PRES_AUD", "word": "virus", "wordID": 1571, "conditions": [24, 1600, "a", 24000], "trial": 4, "serialpos": 2, "trial_type": "single-audio", "trial_index": 171, "time_elapsed": 907416, "internal_node_id": "0.0-126.0"}}, {"uniqueid": "MTK0870:3QILPRALQ62PJPIM58EH0MM0TI5N83", "current_trial": 172, "dateTime": 1512856067283, "trialdata": {"rt": -1000, "stimulus": "/static/audio/wordpool/FIDDLE.wav", "key_press": -1, "type": "PRES_AUD", "word": "fiddle", "wordID": 560, "conditions": [24, 1600, "a", 24000], "trial": 4, "serialpos": 3, "trial_type": "single-audio", "trial_index": 172, "time_elapsed": 909852, "internal_node_id": "0.0-127.0"}}, {"uniqueid": "MTK0870:3QILPRALQ62PJPIM58EH0MM0TI5N83", "current_trial": 173, "dateTime": 1512856069820, "trialdata": {"rt": -1000, "stimulus": "/static/audio/wordpool/JAPAN.wav", "key_press": -1, "type": "PRES_AUD", "word": "japan", "wordID": 748, "conditions": [24, 1600, "a", 24000], "trial": 4, "serialpos": 4, "trial_type": "single-audio", "trial_index": 173, "time_elapsed": 912389, "internal_node_id": "0.0-128.0"}}, {"uniqueid": "MTK0870:3QILPRALQ62PJPIM58EH0MM0TI5N83", "current_trial": 174, "dateTime": 1512856072257, "trialdata": {"rt": -1000, "stimulus": "/static/audio/wordpool/TERMITE.wav", "key_press": -1, "type": "PRES_AUD", "word": "termite", "wordID": 1450, "conditions": [24, 1600, "a", 24000], "trial": 4, "serialpos": 5, "trial_type": "single-audio", "trial_index": 174, "time_elapsed": 914826, "internal_node_id": "0.0-129.0"}}, {"uniqueid": "MTK0870:3QILPRALQ62PJPIM58EH0MM0TI5N83", "current_trial": 175, "dateTime": 1512856074792, "trialdata": {"rt": -1000, "stimulus": "/static/audio/wordpool/RABBIT.wav", "key_press": -1, "type": "PRES_AUD", "word": "rabbit", "wordID": 1151, "conditions": [24, 1600, "a", 24000], "trial": 4, "serialpos": 6, "trial_type": "single-audio", "trial_index": 175, "time_elapsed": 917360, "internal_node_id": "0.0-130.0"}}, {"uniqueid": "MTK0870:3QILPRALQ62PJPIM58EH0MM0TI5N83", "current_trial": 176, "dateTime": 1512856077358, "trialdata": {"rt": -1000, "stimulus": "/static/audio/wordpool/COUSIN.wav", "key_press": -1, "type": "PRES_AUD", "word": "cousin", "wordID": 391, "conditions": [24, 1600, "a", 24000], "trial": 4, "serialpos": 7, "trial_type": "single-audio", "trial_index": 176, "time_elapsed": 919927, "internal_node_id": "0.0-131.0"}}, {"uniqueid": "MTK0870:3QILPRALQ62PJPIM58EH0MM0TI5N83", "current_trial": 177, "dateTime": 1512856080003, "trialdata": {"rt": -1000, "stimulus": "/static/audio/wordpool/PEPPER.wav", "key_press": -1, "type": "PRES_AUD", "word": "pepper", "wordID": 1046, "conditions": [24, 1600, "a", 24000], "trial": 4, "serialpos": 8, "trial_type": "single-audio", "trial_index": 177, "time_elapsed": 922572, "internal_node_id": "0.0-132.0"}}, {"uniqueid": "MTK0870:3QILPRALQ62PJPIM58EH0MM0TI5N83", "current_trial": 178, "dateTime": 1512856082612, "trialdata": {"rt": -1000, "stimulus": "/static/audio/wordpool/GUITAR.wav", "key_press": -1, "type": "PRES_AUD", "word": "guitar", "wordID": 669, "conditions": [24, 1600, "a", 24000], "trial": 4, "serialpos": 9, "trial_type": "single-audio", "trial_index": 178, "time_elapsed": 925181, "internal_node_id": "0.0-133.0"}}, {"uniqueid": "MTK0870:3QILPRALQ62PJPIM58EH0MM0TI5N83", "current_trial": 179, "dateTime": 1512856085371, "trialdata": {"rt": -1000, "stimulus": "/static/audio/wordpool/BABY.wav", "key_press": -1, "type": "PRES_AUD", "word": "baby", "wordID": 63, "conditions": [24, 1600, "a", 24000], "trial": 4, "serialpos": 10, "trial_type": "single-audio", "trial_index": 179, "time_elapsed": 927940, "internal_node_id": "0.0-134.0"}}, {"uniqueid": "MTK0870:3QILPRALQ62PJPIM58EH0MM0TI5N83", "current_trial": 180, "dateTime": 1512856087820, "trialdata": {"rt": -1000, "stimulus": "/static/audio/wordpool/FRANCE.wav", "key_press": -1, "type": "PRES_AUD", "word": "france", "wordID": 600, "conditions": [24, 1600, "a", 24000], "trial": 4, "serialpos": 11, "trial_type": "single-audio", "trial_index": 180, "time_elapsed": 930389, "internal_node_id": "0.0-135.0"}}, {"uniqueid": "MTK0870:3QILPRALQ62PJPIM58EH0MM0TI5N83", "current_trial": 181, "dateTime": 1512856090289, "trialdata": {"rt": -1000, "stimulus": "/static/audio/wordpool/FLASK.wav", "key_press": -1, "type": "PRES_AUD", "word": "flask", "wordID": 575, "conditions": [24, 1600, "a", 24000], "trial": 4, "serialpos": 12, "trial_type": "single-audio", "trial_index": 181, "time_elapsed": 932858, "internal_node_id": "0.0-136.0"}}, {"uniqueid": "MTK0870:3QILPRALQ62PJPIM58EH0MM0TI5N83", "current_trial": 182, "dateTime": 1512856092886, "trialdata": {"rt": -1000, "stimulus": "/static/audio/wordpool/LUNCH.wav", "key_press": -1, "type": "PRES_AUD", "word": "lunch", "wordID": 848, "conditions": [24, 1600, "a", 24000], "trial": 4, "serialpos": 13, "trial_type": "single-audio", "trial_index": 182, "time_elapsed": 935455, "internal_node_id": "0.0-137.0"}}, {"uniqueid": "MTK0870:3QILPRALQ62PJPIM58EH0MM0TI5N83", "current_trial": 183, "dateTime": 1512856095421, "trialdata": {"rt": -1000, "stimulus": "/static/audio/wordpool/PUDDING.wav", "key_press": -1, "type": "PRES_AUD", "word": "pudding", "wordID": 1138, "conditions": [24, 1600, "a", 24000], "trial": 4, "serialpos": 14, "trial_type": "single-audio", "trial_index": 183, "time_elapsed": 937989, "internal_node_id": "0.0-138.0"}}, {"uniqueid": "MTK0870:3QILPRALQ62PJPIM58EH0MM0TI5N83", "current_trial": 184, "dateTime": 1512856098220, "trialdata": {"rt": -1000, "stimulus": "/static/audio/wordpool/BANK.wav", "key_press": -1, "type": "PRES_AUD", "word": "bank", "wordID": 82, "conditions": [24, 1600, "a", 24000], "trial": 4, "serialpos": 15, "trial_type": "single-audio", "trial_index": 184, "time_elapsed": 940789, "internal_node_id": "0.0-139.0"}}, {"uniqueid": "MTK0870:3QILPRALQ62PJPIM58EH0MM0TI5N83", "current_trial": 185, "dateTime": 1512856100697, "trialdata": {"rt": -1000, "stimulus": "/static/audio/wordpool/TRANSPLANT.wav", "key_press": -1, "type": "PRES_AUD", "word": "transplant", "wordID": 1495, "conditions": [24, 1600, "a", 24000], "trial": 4, "serialpos": 16, "trial_type": "single-audio", "trial_index": 185, "time_elapsed": 943266, "internal_node_id": "0.0-140.0"}}, {"uniqueid": "MTK0870:3QILPRALQ62PJPIM58EH0MM0TI5N83", "current_trial": 186, "dateTime": 1512856103369, "trialdata": {"rt": -1000, "stimulus": "/static/audio/wordpool/SALMON.wav", "key_press": -1, "type": "PRES_AUD", "word": "salmon", "wordID": 1226, "conditions": [24, 1600, "a", 24000], "trial": 4, "serialpos": 17, "trial_type": "single-audio", "trial_index": 186, "time_elapsed": 945938, "internal_node_id": "0.0-141.0"}}, {"uniqueid": "MTK0870:3QILPRALQ62PJPIM58EH0MM0TI5N83", "current_trial": 187, "dateTime": 1512856105980, "trialdata": {"rt": -1000, "stimulus": "/static/audio/wordpool/DIME.wav", "key_press": -1, "type": "PRES_AUD", "word": "dime", "wordID": 465, "conditions": [24, 1600, "a", 24000], "trial": 4, "serialpos": 18, "trial_type": "single-audio", "trial_index": 187, "time_elapsed": 948549, "internal_node_id": "0.0-142.0"}}, {"uniqueid": "MTK0870:3QILPRALQ62PJPIM58EH0MM0TI5N83", "current_trial": 188, "dateTime": 1512856108474, "trialdata": {"rt": -1000, "stimulus": "/static/audio/wordpool/COUCH.wav", "key_press": -1, "type": "PRES_AUD", "word": "couch", "wordID": 385, "conditions": [24, 1600, "a", 24000], "trial": 4, "serialpos": 19, "trial_type": "single-audio", "trial_index": 188, "time_elapsed": 951042, "internal_node_id": "0.0-143.0"}}, {"uniqueid": "MTK0870:3QILPRALQ62PJPIM58EH0MM0TI5N83", "current_trial": 189, "dateTime": 1512856111194, "trialdata": {"rt": -1000, "stimulus": "/static/audio/wordpool/BRANCH.wav", "key_press": -1, "type": "PRES_AUD", "word": "branch", "wordID": 167, "conditions": [24, 1600, "a", 24000], "trial": 4, "serialpos": 20, "trial_type": "single-audio", "trial_index": 189, "time_elapsed": 953763, "internal_node_id": "0.0-144.0"}}, {"uniqueid": "MTK0870:3QILPRALQ62PJPIM58EH0MM0TI5N83", "current_trial": 190, "dateTime": 1512856113872, "trialdata": {"rt": -1000, "stimulus": "/static/audio/wordpool/ZEBRA.wav", "key_press": -1, "type": "PRES_AUD", "word": "zebra", "wordID": 1634, "conditions": [24, 1600, "a", 24000], "trial": 4, "serialpos": 21, "trial_type": "single-audio", "trial_index": 190, "time_elapsed": 956441, "internal_node_id": "0.0-145.0"}}, {"uniqueid": "MTK0870:3QILPRALQ62PJPIM58EH0MM0TI5N83", "current_trial": 191, "dateTime": 1512856116476, "trialdata": {"rt": -1000, "stimulus": "/static/audio/wordpool/PANTHER.wav", "key_press": -1, "type": "PRES_AUD", "word": "panther", "wordID": 1008, "conditions": [24, 1600, "a", 24000], "trial": 4, "serialpos": 22, "trial_type": "single-audio", "trial_index": 191, "time_elapsed": 959045, "internal_node_id": "0.0-146.0"}}, {"uniqueid": "MTK0870:3QILPRALQ62PJPIM58EH0MM0TI5N83", "current_trial": 192, "dateTime": 1512856118990, "trialdata": {"rt": -1000, "stimulus": "/static/audio/wordpool/OMELET.wav", "key_press": -1, "type": "PRES_AUD", "word": "omelet", "wordID": 975, "conditions": [24, 1600, "a", 24000], "trial": 4, "serialpos": 23, "trial_type": "single-audio", "trial_index": 192, "time_elapsed": 961558, "internal_node_id": "0.0-147.0"}}, {"uniqueid": "MTK0870:3QILPRALQ62PJPIM58EH0MM0TI5N83", "current_trial": 193, "dateTime": 1512856120206, "trialdata": {"rt": -1, "stimulus": "", "key_press": -1, "type": "PRE_RECALL_DELAY", "trial_type": "single-stim", "trial_index": 193, "time_elapsed": 962775, "internal_node_id": "0.0-148.0-0.0"}}, {"uniqueid": "MTK0870:3QILPRALQ62PJPIM58EH0MM0TI5N83", "current_trial": 194, "dateTime": 1512856120708, "trialdata": {"rt": -1000, "stimulus": "/static/audio/400Hz.wav", "key_press": -1, "type": "PRE_RECALL_ALERT", "trial_type": "single-audio", "trial_index": 194, "time_elapsed": 963277, "internal_node_id": "0.0-149.0"}}, {"uniqueid": "MTK0870:3QILPRALQ62PJPIM58EH0MM0TI5N83", "current_trial": 195, "dateTime": 1512856180720, "trialdata": {"rt": [2793, 3860, 4692, 5781, 9307, 10738, 44837, 53549, 57717], "recwords": ["omelette", "zebra", "panther", "bank", "cousin", "france", "salad", "lunch", "pudding"], "type": "FREE_RECALL", "conditions": [24, 1600, "a", 24000], "trial": 4, "trial_type": "free-recall", "trial_index": 195, "time_elapsed": 1023285, "internal_node_id": "0.0-150.0-0.0"}}, {"uniqueid": "MTK0870:3QILPRALQ62PJPIM58EH0MM0TI5N83", "current_trial": 196, "dateTime": 1512856183645, "trialdata": {"rt": 918, "key_press": 32, "type": "INSTRUCTIONS", "trial_type": "text", "trial_index": 196, "time_elapsed": 1026214, "internal_node_id": "0.0-151.0"}}, {"uniqueid": "MTK0870:3QILPRALQ62PJPIM58EH0MM0TI5N83", "current_trial": 197, "dateTime": 1512856209658, "trialdata": {"rt": [1991, 4376, 5734, 11603, 13832, 15298, 16679, 18445, 21790, 23655], "responses": ["18", "19", "12", "21", "15", "12", "13", "6", "22", "17"], "num1": [7, 6, 2, 6, 7, 3, 6, 3, 8, 8, 2], "num2": [4, 8, 3, 7, 4, 2, 6, 1, 7, 4, 9], "num3": [7, 5, 7, 5, 4, 7, 1, 2, 7, 5, 3], "type": "DISTRACTOR", "conditions": [12, 1600, "a", 24000], "trial": 5, "trial_type": "math-distractor", "trial_index": 197, "time_elapsed": 1052227, "internal_node_id": "0.0-152.0"}}, {"uniqueid": "MTK0870:3QILPRALQ62PJPIM58EH0MM0TI5N83", "current_trial": 198, "dateTime": 1512856212666, "trialdata": {"rt": -1, "stimulus": "<p id=\"stim\">10</p>", "key_press": -1, "trial_type": "single-stim", "trial_index": 198, "time_elapsed": 1055235, "internal_node_id": "0.0-153.0-0.0"}}, {"uniqueid": "MTK0870:3QILPRALQ62PJPIM58EH0MM0TI5N83", "current_trial": 199, "dateTime": 1512856213669, "trialdata": {"rt": -1, "stimulus": "<p id=\"stim\">9</p>", "key_press": -1, "trial_type": "single-stim", "trial_index": 199, "time_elapsed": 1056237, "internal_node_id": "0.0-153.0-1.0"}}, {"uniqueid": "MTK0870:3QILPRALQ62PJPIM58EH0MM0TI5N83", "current_trial": 200, "dateTime": 1512856214673, "trialdata": {"rt": -1, "stimulus": "<p id=\"stim\">8</p>", "key_press": -1, "trial_type": "single-stim", "trial_index": 200, "time_elapsed": 1057242, "internal_node_id": "0.0-153.0-2.0"}}, {"uniqueid": "MTK0870:3QILPRALQ62PJPIM58EH0MM0TI5N83", "current_trial": 201, "dateTime": 1512856215676, "trialdata": {"rt": -1, "stimulus": "<p id=\"stim\">7</p>", "key_press": -1, "trial_type": "single-stim", "trial_index": 201, "time_elapsed": 1058245, "internal_node_id": "0.0-153.0-3.0"}}, {"uniqueid": "MTK0870:3QILPRALQ62PJPIM58EH0MM0TI5N83", "current_trial": 202, "dateTime": 1512856216686, "trialdata": {"rt": -1, "stimulus": "<p id=\"stim\">6</p>", "key_press": -1, "trial_type": "single-stim", "trial_index": 202, "time_elapsed": 1059250, "internal_node_id": "0.0-153.0-4.0"}}, {"uniqueid": "MTK0870:3QILPRALQ62PJPIM58EH0MM0TI5N83", "current_trial": 203, "dateTime": 1512856217691, "trialdata": {"rt": -1, "stimulus": "<p id=\"stim\">5</p>", "key_press": -1, "trial_type": "single-stim", "trial_index": 203, "time_elapsed": 1060260, "internal_node_id": "0.0-153.0-5.0"}}, {"uniqueid": "MTK0870:3QILPRALQ62PJPIM58EH0MM0TI5N83", "current_trial": 204, "dateTime": 1512856218698, "trialdata": {"rt": -1, "stimulus": "<p id=\"stim\">4</p>", "key_press": -1, "trial_type": "single-stim", "trial_index": 204, "time_elapsed": 1061267, "internal_node_id": "0.0-153.0-6.0"}}, {"uniqueid": "MTK0870:3QILPRALQ62PJPIM58EH0MM0TI5N83", "current_trial": 205, "dateTime": 1512856219703, "trialdata": {"rt": -1, "stimulus": "<p id=\"stim\">3</p>", "key_press": -1, "trial_type": "single-stim", "trial_index": 205, "time_elapsed": 1062272, "internal_node_id": "0.0-153.0-7.0"}}, {"uniqueid": "MTK0870:3QILPRALQ62PJPIM58EH0MM0TI5N83", "current_trial": 206, "dateTime": 1512856220709, "trialdata": {"rt": -1, "stimulus": "<p id=\"stim\">2</p>", "key_press": -1, "trial_type": "single-stim", "trial_index": 206, "time_elapsed": 1063278, "internal_node_id": "0.0-153.0-8.0"}}, {"uniqueid": "MTK0870:3QILPRALQ62PJPIM58EH0MM0TI5N83", "current_trial": 207, "dateTime": 1512856221711, "trialdata": {"rt": -1, "stimulus": "<p id=\"stim\">1</p>", "key_press": -1, "trial_type": "single-stim", "trial_index": 207, "time_elapsed": 1064279, "internal_node_id": "0.0-153.0-9.0"}}, {"uniqueid": "MTK0870:3QILPRALQ62PJPIM58EH0MM0TI5N83", "current_trial": 208, "dateTime": 1512856223217, "trialdata": {"rt": -1, "stimulus": "<p id=\"stim\">+</p>", "key_press": -1, "type": "FIXATION", "trial_type": "single-stim", "trial_index": 208, "time_elapsed": 1065785, "internal_node_id": "0.0-154.0-0.0"}}, {"uniqueid": "MTK0870:3QILPRALQ62PJPIM58EH0MM0TI5N83", "current_trial": 209, "dateTime": 1512856225715, "trialdata": {"rt": -1000, "stimulus": "/static/audio/wordpool/SALT.wav", "key_press": -1, "type": "PRES_AUD", "word": "salt", "wordID": 1228, "conditions": [12, 1600, "a", 24000], "trial": 5, "serialpos": 0, "trial_type": "single-audio", "trial_index": 209, "time_elapsed": 1068284, "internal_node_id": "0.0-155.0"}}, {"uniqueid": "MTK0870:3QILPRALQ62PJPIM58EH0MM0TI5N83", "current_trial": 210, "dateTime": 1512856228282, "trialdata": {"rt": -1000, "stimulus": "/static/audio/wordpool/ORANGE.wav", "key_press": -1, "type": "PRES_AUD", "word": "orange", "wordID": 979, "conditions": [12, 1600, "a", 24000], "trial": 5, "serialpos": 1, "trial_type": "single-audio", "trial_index": 210, "time_elapsed": 1070851, "internal_node_id": "0.0-156.0"}}, {"uniqueid": "MTK0870:3QILPRALQ62PJPIM58EH0MM0TI5N83", "current_trial": 211, "dateTime": 1512856230720, "trialdata": {"rt": -1000, "stimulus": "/static/audio/wordpool/RECEIPT.wav", "key_press": -1, "type": "PRES_AUD", "word": "receipt", "wordID": 1172, "conditions": [12, 1600, "a", 24000], "trial": 5, "serialpos": 2, "trial_type": "single-audio", "trial_index": 211, "time_elapsed": 1073289, "internal_node_id": "0.0-157.0"}}, {"uniqueid": "MTK0870:3QILPRALQ62PJPIM58EH0MM0TI5N83", "current_trial": 212, "dateTime": 1512856233285, "trialdata": {"rt": -1000, "stimulus": "/static/audio/wordpool/PIZZA.wav", "key_press": -1, "type": "PRES_AUD", "word": "pizza", "wordID": 1078, "conditions": [12, 1600, "a", 24000], "trial": 5, "serialpos": 3, "trial_type": "single-audio", "trial_index": 212, "time_elapsed": 1075854, "internal_node_id": "0.0-158.0"}}, {"uniqueid": "MTK0870:3QILPRALQ62PJPIM58EH0MM0TI5N83", "current_trial": 213, "dateTime": 1512856235810, "trialdata": {"rt": -1000, "stimulus": "/static/audio/wordpool/APPLE.wav", "key_press": -1, "type": "PRES_AUD", "word": "apple", "wordID": 32, "conditions": [12, 1600, "a", 24000], "trial": 5, "serialpos": 4, "trial_type": "single-audio", "trial_index": 213, "time_elapsed": 1078379, "internal_node_id": "0.0-159.0"}}, {"uniqueid": "MTK0870:3QILPRALQ62PJPIM58EH0MM0TI5N83", "current_trial": 214, "dateTime": 1512856238540, "trialdata": {"rt": -1000, "stimulus": "/static/audio/wordpool/DRAGON.wav", "key_press": -1, "type": "PRES_AUD", "word": "dragon", "wordID": 491, "conditions": [12, 1600, "a", 24000], "trial": 5, "serialpos": 5, "trial_type": "single-audio", "trial_index": 214, "time_elapsed": 1081109, "internal_node_id": "0.0-160.0"}}, {"uniqueid": "MTK0870:3QILPRALQ62PJPIM58EH0MM0TI5N83", "current_trial": 215, "dateTime": 1512856241071, "trialdata": {"rt": -1000, "stimulus": "/static/audio/wordpool/TWIG.wav", "key_press": -1, "type": "PRES_AUD", "word": "twig", "wordID": 1526, "conditions": [12, 1600, "a", 24000], "trial": 5, "serialpos": 6, "trial_type": "single-audio", "trial_index": 215, "time_elapsed": 1083640, "internal_node_id": "0.0-161.0"}}, {"uniqueid": "MTK0870:3QILPRALQ62PJPIM58EH0MM0TI5N83", "current_trial": 216, "dateTime": 1512856243644, "trialdata": {"rt": -1000, "stimulus": "/static/audio/wordpool/PASTA.wav", "key_press": -1, "type": "PRES_AUD", "word": "pasta", "wordID": 1020, "conditions": [12, 1600, "a", 24000], "trial": 5, "serialpos": 7, "trial_type": "single-audio", "trial_index": 216, "time_elapsed": 1086213, "internal_node_id": "0.0-162.0"}}, {"uniqueid": "MTK0870:3QILPRALQ62PJPIM58EH0MM0TI5N83", "current_trial": 217, "dateTime": 1512856246052, "trialdata": {"rt": -1000, "stimulus": "/static/audio/wordpool/NAPKIN.wav", "key_press": -1, "type": "PRES_AUD", "word": "napkin", "wordID": 936, "conditions": [12, 1600, "a", 24000], "trial": 5, "serialpos": 8, "trial_type": "single-audio", "trial_index": 217, "time_elapsed": 1088621, "internal_node_id": "0.0-163.0"}}, {"uniqueid": "MTK0870:3QILPRALQ62PJPIM58EH0MM0TI5N83", "current_trial": 218, "dateTime": 1512856248610, "trialdata": {"rt": -1000, "stimulus": "/static/audio/wordpool/PARSLEY.wav", "key_press": -1, "type": "PRES_AUD", "word": "parsley", "wordID": 1015, "conditions": [12, 1600, "a", 24000], "trial": 5, "serialpos": 9, "trial_type": "single-audio", "trial_index": 218, "time_elapsed": 1091179, "internal_node_id": "0.0-164.0"}}, {"uniqueid": "MTK0870:3QILPRALQ62PJPIM58EH0MM0TI5N83", "current_trial": 219, "dateTime": 1512856251060, "trialdata": {"rt": -1000, "stimulus": "/static/audio/wordpool/CABBAGE.wav", "key_press": -1, "type": "PRES_AUD", "word": "cabbage", "wordID": 209, "conditions": [12, 1600, "a", 24000], "trial": 5, "serialpos": 10, "trial_type": "single-audio", "trial_index": 219, "time_elapsed": 1093629, "internal_node_id": "0.0-165.0"}}, {"uniqueid": "MTK0870:3QILPRALQ62PJPIM58EH0MM0TI5N83", "current_trial": 220, "dateTime": 1512856253581, "trialdata": {"rt": -1000, "stimulus": "/static/audio/wordpool/PISTOL.wav", "key_press": -1, "type": "PRES_AUD", "word": "pistol", "wordID": 1074, "conditions": [12, 1600, "a", 24000], "trial": 5, "serialpos": 11, "trial_type": "single-audio", "trial_index": 220, "time_elapsed": 1096150, "internal_node_id": "0.0-166.0"}}, {"uniqueid": "MTK0870:3QILPRALQ62PJPIM58EH0MM0TI5N83", "current_trial": 221, "dateTime": 1512856254894, "trialdata": {"rt": -1, "stimulus": "", "key_press": -1, "type": "PRE_RECALL_DELAY", "trial_type": "single-stim", "trial_index": 221, "time_elapsed": 1097463, "internal_node_id": "0.0-167.0-0.0"}}, {"uniqueid": "MTK0870:3QILPRALQ62PJPIM58EH0MM0TI5N83", "current_trial": 222, "dateTime": 1512856255396, "trialdata": {"rt": -1000, "stimulus": "/static/audio/400Hz.wav", "key_press": -1, "type": "PRE_RECALL_ALERT", "trial_type": "single-audio", "trial_index": 222, "time_elapsed": 1097965, "internal_node_id": "0.0-168.0"}}, {"uniqueid": "MTK0870:3QILPRALQ62PJPIM58EH0MM0TI5N83", "current_trial": 223, "dateTime": 1512856315406, "trialdata": {"rt": [2034, 3180, 4289, 5454, 29905, 52717, 54228], "recwords": ["pistol", "cabbage", "parsley", "napkin", "napkin", "dragon", "bee"], "type": "FREE_RECALL", "conditions": [12, 1600, "a", 24000], "trial": 5, "trial_type": "free-recall", "trial_index": 223, "time_elapsed": 1157972, "internal_node_id": "0.0-169.0-0.0"}}, {"uniqueid": "MTK0870:3QILPRALQ62PJPIM58EH0MM0TI5N83", "current_trial": 224, "dateTime": 1512856317851, "trialdata": {"rt": 439, "key_press": 32, "type": "INSTRUCTIONS", "trial_type": "text", "trial_index": 224, "time_elapsed": 1160419, "internal_node_id": "0.0-170.0"}}, {"uniqueid": "MTK0870:3QILPRALQ62PJPIM58EH0MM0TI5N83", "current_trial": 225, "dateTime": 1512856331871, "trialdata": {"rt": [2309, 3429, 5027, 7394, 9035, 11959], "responses": ["19", "9", "18", "15", "19", "14"], "num1": [3, 3, 7, 4, 5, 7, 5], "num2": [7, 3, 3, 7, 5, 6, 8], "num3": [9, 3, 8, 4, 9, 2, 3], "type": "DISTRACTOR", "conditions": [24, 800, "v", 12000], "trial": 6, "trial_type": "math-distractor", "trial_index": 225, "time_elapsed": 1174439, "internal_node_id": "0.0-171.0"}}, {"uniqueid": "MTK0870:3QILPRALQ62PJPIM58EH0MM0TI5N83", "current_trial": 226, "dateTime": 1512856334876, "trialdata": {"rt": -1, "stimulus": "<p id=\"stim\">10</p>", "key_press": -1, "trial_type": "single-stim", "trial_index": 226, "time_elapsed": 1177445, "internal_node_id": "0.0-172.0-0.0"}}, {"uniqueid": "MTK0870:3QILPRALQ62PJPIM58EH0MM0TI5N83", "current_trial": 227, "dateTime": 1512856335878, "trialdata": {"rt": -1, "stimulus": "<p id=\"stim\">9</p>", "key_press": -1, "trial_type": "single-stim", "trial_index": 227, "time_elapsed": 1178447, "internal_node_id": "0.0-172.0-1.0"}}, {"uniqueid": "MTK0870:3QILPRALQ62PJPIM58EH0MM0TI5N83", "current_trial": 228, "dateTime": 1512856336884, "trialdata": {"rt": -1, "stimulus": "<p id=\"stim\">8</p>", "key_press": -1, "trial_type": "single-stim", "trial_index": 228, "time_elapsed": 1179453, "internal_node_id": "0.0-172.0-2.0"}}, {"uniqueid": "MTK0870:3QILPRALQ62PJPIM58EH0MM0TI5N83", "current_trial": 229, "dateTime": 1512856337888, "trialdata": {"rt": -1, "stimulus": "<p id=\"stim\">7</p>", "key_press": -1, "trial_type": "single-stim", "trial_index": 229, "time_elapsed": 1180457, "internal_node_id": "0.0-172.0-3.0"}}, {"uniqueid": "MTK0870:3QILPRALQ62PJPIM58EH0MM0TI5N83", "current_trial": 230, "dateTime": 1512856338892, "trialdata": {"rt": -1, "stimulus": "<p id=\"stim\">6</p>", "key_press": -1, "trial_type": "single-stim", "trial_index": 230, "time_elapsed": 1181461, "internal_node_id": "0.0-172.0-4.0"}}, {"uniqueid": "MTK0870:3QILPRALQ62PJPIM58EH0MM0TI5N83", "current_trial": 231, "dateTime": 1512856339897, "trialdata": {"rt": -1, "stimulus": "<p id=\"stim\">5</p>", "key_press": -1, "trial_type": "single-stim", "trial_index": 231, "time_elapsed": 1182465, "internal_node_id": "0.0-172.0-5.0"}}, {"uniqueid": "MTK0870:3QILPRALQ62PJPIM58EH0MM0TI5N83", "current_trial": 232, "dateTime": 1512856340901, "trialdata": {"rt": -1, "stimulus": "<p id=\"stim\">4</p>", "key_press": -1, "trial_type": "single-stim", "trial_index": 232, "time_elapsed": 1183470, "internal_node_id": "0.0-172.0-6.0"}}, {"uniqueid": "MTK0870:3QILPRALQ62PJPIM58EH0MM0TI5N83", "current_trial": 233, "dateTime": 1512856341904, "trialdata": {"rt": -1, "stimulus": "<p id=\"stim\">3</p>", "key_press": -1, "trial_type": "single-stim", "trial_index": 233, "time_elapsed": 1184473, "internal_node_id": "0.0-172.0-7.0"}}, {"uniqueid": "MTK0870:3QILPRALQ62PJPIM58EH0MM0TI5N83", "current_trial": 234, "dateTime": 1512856342909, "trialdata": {"rt": -1, "stimulus": "<p id=\"stim\">2</p>", "key_press": -1, "trial_type": "single-stim", "trial_index": 234, "time_elapsed": 1185477, "internal_node_id": "0.0-172.0-8.0"}}, {"uniqueid": "MTK0870:3QILPRALQ62PJPIM58EH0MM0TI5N83", "current_trial": 235, "dateTime": 1512856343913, "trialdata": {"rt": -1, "stimulus": "<p id=\"stim\">1</p>", "key_press": -1, "trial_type": "single-stim", "trial_index": 235, "time_elapsed": 1186482, "internal_node_id": "0.0-172.0-9.0"}}, {"uniqueid": "MTK0870:3QILPRALQ62PJPIM58EH0MM0TI5N83", "current_trial": 236, "dateTime": 1512856345416, "trialdata": {"rt": -1, "stimulus": "<p id=\"stim\">+</p>", "key_press": -1, "type": "FIXATION", "trial_type": "single-stim", "trial_index": 236, "time_elapsed": 1187985, "internal_node_id": "0.0-173.0-0.0"}}, {"uniqueid": "MTK0870:3QILPRALQ62PJPIM58EH0MM0TI5N83", "current_trial": 237, "dateTime": 1512856346219, "trialdata": {"rt": -1, "stimulus": "<p id=\"stim\">DOUGHNUT</p>", "key_press": -1, "type": "PRES_VIS", "word": "doughnut", "wordID": 489, "conditions": [24, 800, "v", 12000], "trial": 6, "serialpos": 0, "trial_type": "single-stim", "trial_index": 237, "time_elapsed": 1188788, "internal_node_id": "0.0-174.0"}}, {"uniqueid": "MTK0870:3QILPRALQ62PJPIM58EH0MM0TI5N83", "current_trial": 238, "dateTime": 1512856347957, "trialdata": {"rt": -1, "stimulus": "<p id=\"stim\">POSSUM</p>", "key_press": -1, "type": "PRES_VIS", "word": "possum", "wordID": 1111, "conditions": [24, 800, "v", 12000], "trial": 6, "serialpos": 1, "trial_type": "single-stim", "trial_index": 238, "time_elapsed": 1190526, "internal_node_id": "0.0-175.0"}}, {"uniqueid": "MTK0870:3QILPRALQ62PJPIM58EH0MM0TI5N83", "current_trial": 239, "dateTime": 1512856349740, "trialdata": {"rt": -1, "stimulus": "<p id=\"stim\">PIMPLE</p>", "key_press": -1, "type": "PRES_VIS", "word": "pimple", "wordID": 1070, "conditions": [24, 800, "v", 12000], "trial": 6, "serialpos": 2, "trial_type": "single-stim", "trial_index": 239, "time_elapsed": 1192307, "internal_node_id": "0.0-176.0"}}, {"uniqueid": "MTK0870:3QILPRALQ62PJPIM58EH0MM0TI5N83", "current_trial": 240, "dateTime": 1512856351447, "trialdata": {"rt": -1, "stimulus": "<p id=\"stim\">SHOVEL</p>", "key_press": -1, "type": "PRES_VIS", "word": "shovel", "wordID": 1294, "conditions": [24, 800, "v", 12000], "trial": 6, "serialpos": 3, "trial_type": "single-stim", "trial_index": 240, "time_elapsed": 1194016, "internal_node_id": "0.0-177.0"}}, {"uniqueid": "MTK0870:3QILPRALQ62PJPIM58EH0MM0TI5N83", "current_trial": 241, "dateTime": 1512856353292, "trialdata": {"rt": -1, "stimulus": "<p id=\"stim\">FLOWER</p>", "key_press": -1, "type": "PRES_VIS", "word": "flower", "wordID": 583, "conditions": [24, 800, "v", 12000], "trial": 6, "serialpos": 4, "trial_type": "single-stim", "trial_index": 241, "time_elapsed": 1195861, "internal_node_id": "0.0-178.0"}}, {"uniqueid": "MTK0870:3QILPRALQ62PJPIM58EH0MM0TI5N83", "current_trial": 242, "dateTime": 1512856355092, "trialdata": {"rt": -1, "stimulus": "<p id=\"stim\">COCKTAIL</p>", "key_press": -1, "type": "PRES_VIS", "word": "cocktail", "wordID": 337, "conditions": [24, 800, "v", 12000], "trial": 6, "serialpos": 5, "trial_type": "single-stim", "trial_index": 242, "time_elapsed": 1197660, "internal_node_id": "0.0-179.0"}}, {"uniqueid": "MTK0870:3QILPRALQ62PJPIM58EH0MM0TI5N83", "current_trial": 243, "dateTime": 1512856356949, "trialdata": {"rt": -1, "stimulus": "<p id=\"stim\">MUFFIN</p>", "key_press": -1, "type": "PRES_VIS", "word": "muffin", "wordID": 928, "conditions": [24, 800, "v", 12000], "trial": 6, "serialpos": 6, "trial_type": "single-stim", "trial_index": 243, "time_elapsed": 1199518, "internal_node_id": "0.0-180.0"}}, {"uniqueid": "MTK0870:3QILPRALQ62PJPIM58EH0MM0TI5N83", "current_trial": 244, "dateTime": 1512856358814, "trialdata": {"rt": -1, "stimulus": "<p id=\"stim\">LAGOON</p>", "key_press": -1, "type": "PRES_VIS", "word": "lagoon", "wordID": 794, "conditions": [24, 800, "v", 12000], "trial": 6, "serialpos": 7, "trial_type": "single-stim", "trial_index": 244, "time_elapsed": 1201382, "internal_node_id": "0.0-181.0"}}, {"uniqueid": "MTK0870:3QILPRALQ62PJPIM58EH0MM0TI5N83", "current_trial": 245, "dateTime": 1512856360583, "trialdata": {"rt": -1, "stimulus": "<p id=\"stim\">RIVER</p>", "key_press": -1, "type": "PRES_VIS", "word": "river", "wordID": 1193, "conditions": [24, 800, "v", 12000], "trial": 6, "serialpos": 8, "trial_type": "single-stim", "trial_index": 245, "time_elapsed": 1203152, "internal_node_id": "0.0-182.0"}}, {"uniqueid": "MTK0870:3QILPRALQ62PJPIM58EH0MM0TI5N83", "current_trial": 246, "dateTime": 1512856362242, "trialdata": {"rt": -1, "stimulus": "<p id=\"stim\">LAMP</p>", "key_press": -1, "type": "PRES_VIS", "word": "lamp", "wordID": 797, "conditions": [24, 800, "v", 12000], "trial": 6, "serialpos": 9, "trial_type": "single-stim", "trial_index": 246, "time_elapsed": 1204811, "internal_node_id": "0.0-183.0"}}, {"uniqueid": "MTK0870:3QILPRALQ62PJPIM58EH0MM0TI5N83", "current_trial": 247, "dateTime": 1512856364019, "trialdata": {"rt": -1, "stimulus": "<p id=\"stim\">BOX</p>", "key_press": -1, "type": "PRES_VIS", "word": "box", "wordID": 158, "conditions": [24, 800, "v", 12000], "trial": 6, "serialpos": 10, "trial_type": "single-stim", "trial_index": 247, "time_elapsed": 1206587, "internal_node_id": "0.0-184.0"}}, {"uniqueid": "MTK0870:3QILPRALQ62PJPIM58EH0MM0TI5N83", "current_trial": 248, "dateTime": 1512856365738, "trialdata": {"rt": -1, "stimulus": "<p id=\"stim\">BELLY</p>", "key_press": -1, "type": "PRES_VIS", "word": "belly", "wordID": 118, "conditions": [24, 800, "v", 12000], "trial": 6, "serialpos": 11, "trial_type": "single-stim", "trial_index": 248, "time_elapsed": 1208307, "internal_node_id": "0.0-185.0"}}, {"uniqueid": "MTK0870:3QILPRALQ62PJPIM58EH0MM0TI5N83", "current_trial": 249, "dateTime": 1512856367398, "trialdata": {"rt": -1, "stimulus": "<p id=\"stim\">FRECKLE</p>", "key_press": -1, "type": "PRES_VIS", "word": "freckle", "wordID": 601, "conditions": [24, 800, "v", 12000], "trial": 6, "serialpos": 12, "trial_type": "single-stim", "trial_index": 249, "time_elapsed": 1209966, "internal_node_id": "0.0-186.0"}}, {"uniqueid": "MTK0870:3QILPRALQ62PJPIM58EH0MM0TI5N83", "current_trial": 250, "dateTime": 1512856369074, "trialdata": {"rt": -1, "stimulus": "<p id=\"stim\">PICTURE</p>", "key_press": -1, "type": "PRES_VIS", "word": "picture", "wordID": 1060, "conditions": [24, 800, "v", 12000], "trial": 6, "serialpos": 13, "trial_type": "single-stim", "trial_index": 250, "time_elapsed": 1211643, "internal_node_id": "0.0-187.0"}}, {"uniqueid": "MTK0870:3QILPRALQ62PJPIM58EH0MM0TI5N83", "current_trial": 251, "dateTime": 1512856370958, "trialdata": {"rt": -1, "stimulus": "<p id=\"stim\">ACTOR</p>", "key_press": -1, "type": "PRES_VIS", "word": "actor", "wordID": 4, "conditions": [24, 800, "v", 12000], "trial": 6, "serialpos": 14, "trial_type": "single-stim", "trial_index": 251, "time_elapsed": 1213527, "internal_node_id": "0.0-188.0"}}, {"uniqueid": "MTK0870:3QILPRALQ62PJPIM58EH0MM0TI5N83", "current_trial": 252, "dateTime": 1512856372831, "trialdata": {"rt": -1, "stimulus": "<p id=\"stim\">PILOT</p>", "key_press": -1, "type": "PRES_VIS", "word": "pilot", "wordID": 1069, "conditions": [24, 800, "v", 12000], "trial": 6, "serialpos": 15, "trial_type": "single-stim", "trial_index": 252, "time_elapsed": 1215399, "internal_node_id": "0.0-189.0"}}, {"uniqueid": "MTK0870:3QILPRALQ62PJPIM58EH0MM0TI5N83", "current_trial": 253, "dateTime": 1512856374525, "trialdata": {"rt": -1, "stimulus": "<p id=\"stim\">HOOK</p>", "key_press": -1, "type": "PRES_VIS", "word": "hook", "wordID": 714, "conditions": [24, 800, "v", 12000], "trial": 6, "serialpos": 16, "trial_type": "single-stim", "trial_index": 253, "time_elapsed": 1217094, "internal_node_id": "0.0-190.0"}}, {"uniqueid": "MTK0870:3QILPRALQ62PJPIM58EH0MM0TI5N83", "current_trial": 254, "dateTime": 1512856376205, "trialdata": {"rt": -1, "stimulus": "<p id=\"stim\">ARM</p>", "key_press": -1, "type": "PRES_VIS", "word": "arm", "wordID": 37, "conditions": [24, 800, "v", 12000], "trial": 6, "serialpos": 17, "trial_type": "single-stim", "trial_index": 254, "time_elapsed": 1218774, "internal_node_id": "0.0-191.0"}}, {"uniqueid": "MTK0870:3QILPRALQ62PJPIM58EH0MM0TI5N83", "current_trial": 255, "dateTime": 1512856377876, "trialdata": {"rt": -1, "stimulus": "<p id=\"stim\">KITCHEN</p>", "key_press": -1, "type": "PRES_VIS", "word": "kitchen", "wordID": 777, "conditions": [24, 800, "v", 12000], "trial": 6, "serialpos": 18, "trial_type": "single-stim", "trial_index": 255, "time_elapsed": 1220445, "internal_node_id": "0.0-192.0"}}, {"uniqueid": "MTK0870:3QILPRALQ62PJPIM58EH0MM0TI5N83", "current_trial": 256, "dateTime": 1512856379853, "trialdata": {"rt": -1, "stimulus": "<p id=\"stim\">MARROW</p>", "key_press": -1, "type": "PRES_VIS", "word": "marrow", "wordID": 871, "conditions": [24, 800, "v", 12000], "trial": 6, "serialpos": 19, "trial_type": "single-stim", "trial_index": 256, "time_elapsed": 1222422, "internal_node_id": "0.0-193.0"}}, {"uniqueid": "MTK0870:3QILPRALQ62PJPIM58EH0MM0TI5N83", "current_trial": 257, "dateTime": 1512856381669, "trialdata": {"rt": -1, "stimulus": "<p id=\"stim\">LIVER</p>", "key_press": -1, "type": "PRES_VIS", "word": "liver", "wordID": 832, "conditions": [24, 800, "v", 12000], "trial": 6, "serialpos": 20, "trial_type": "single-stim", "trial_index": 257, "time_elapsed": 1224237, "internal_node_id": "0.0-194.0"}}, {"uniqueid": "MTK0870:3QILPRALQ62PJPIM58EH0MM0TI5N83", "current_trial": 258, "dateTime": 1512856383392, "trialdata": {"rt": -1, "stimulus": "<p id=\"stim\">CRATER</p>", "key_press": -1, "type": "PRES_VIS", "word": "crater", "wordID": 399, "conditions": [24, 800, "v", 12000], "trial": 6, "serialpos": 21, "trial_type": "single-stim", "trial_index": 258, "time_elapsed": 1225961, "internal_node_id": "0.0-195.0"}}, {"uniqueid": "MTK0870:3QILPRALQ62PJPIM58EH0MM0TI5N83", "current_trial": 259, "dateTime": 1512856385395, "trialdata": {"rt": -1, "stimulus": "<p id=\"stim\">AUTHOR</p>", "key_press": -1, "type": "PRES_VIS", "word": "author", "wordID": 60, "conditions": [24, 800, "v", 12000], "trial": 6, "serialpos": 22, "trial_type": "single-stim", "trial_index": 259, "time_elapsed": 1227964, "internal_node_id": "0.0-196.0"}}, {"uniqueid": "MTK0870:3QILPRALQ62PJPIM58EH0MM0TI5N83", "current_trial": 260, "dateTime": 1512856387015, "trialdata": {"rt": -1, "stimulus": "<p id=\"stim\">PORTRAIT</p>", "key_press": -1, "type": "PRES_VIS", "word": "portrait", "wordID": 1110, "conditions": [24, 800, "v", 12000], "trial": 6, "serialpos": 23, "trial_type": "single-stim", "trial_index": 260, "time_elapsed": 1229584, "internal_node_id": "0.0-197.0"}}, {"uniqueid": "MTK0870:3QILPRALQ62PJPIM58EH0MM0TI5N83", "current_trial": 261, "dateTime": 1512856389224, "trialdata": {"rt": -1, "stimulus": "", "key_press": -1, "type": "PRE_RECALL_DELAY", "trial_type": "single-stim", "trial_index": 261, "time_elapsed": 1231792, "internal_node_id": "0.0-198.0-0.0"}}, {"uniqueid": "MTK0870:3QILPRALQ62PJPIM58EH0MM0TI5N83", "current_trial": 262, "dateTime": 1512856389725, "trialdata": {"rt": -1000, "stimulus": "/static/audio/400Hz.wav", "key_press": -1, "type": "PRE_RECALL_ALERT", "trial_type": "single-audio", "trial_index": 262, "time_elapsed": 1232294, "internal_node_id": "0.0-199.0"}}, {"uniqueid": "MTK0870:3QILPRALQ62PJPIM58EH0MM0TI5N83", "current_trial": 263, "dateTime": 1512856449740, "trialdata": {"rt": [1194, 2097, 3409, 13370, 28845, 31911, 41891, 52624], "recwords": ["marrow", "liver", "portrait", "pilot", "arrow", "cabbage", "arm", "possum"], "type": "FREE_RECALL", "conditions": [24, 800, "v", 12000], "trial": 6, "trial_type": "free-recall", "trial_index": 263, "time_elapsed": 1292304, "internal_node_id": "0.0-200.0-0.0"}}, {"uniqueid": "MTK0870:3QILPRALQ62PJPIM58EH0MM0TI5N83", "current_trial": 264, "dateTime": 1512856452223, "trialdata": {"rt": 474, "key_press": 32, "type": "INSTRUCTIONS", "trial_type": "text", "trial_index": 264, "time_elapsed": 1294790, "internal_node_id": "0.0-201.0"}}, {"uniqueid": "MTK0870:3QILPRALQ62PJPIM58EH0MM0TI5N83", "current_trial": 265, "dateTime": 1512856478233, "trialdata": {"rt": [1802, 3474, 5016, 7046, 8268, 10241, 11994, 13454, 16289, 20248, 23365], "responses": ["15", "17", "17", "18", "11", "17", "11", "9", "18", "25", "24"], "num1": [4, 7, 5, 9, 9, 6, 1, 2, 3, 9, 8, 1], "num2": [5, 1, 7, 3, 1, 2, 4, 5, 9, 9, 7, 7], "num3": [6, 9, 5, 6, 1, 9, 6, 2, 6, 7, 7, 6], "type": "DISTRACTOR", "conditions": [12, 800, "v", 24000], "trial": 7, "trial_type": "math-distractor", "trial_index": 265, "time_elapsed": 1320802, "internal_node_id": "0.0-202.0"}}, {"uniqueid": "MTK0870:3QILPRALQ62PJPIM58EH0MM0TI5N83", "current_trial": 266, "dateTime": 1512856481240, "trialdata": {"rt": -1, "stimulus": "<p id=\"stim\">10</p>", "key_press": -1, "trial_type": "single-stim", "trial_index": 266, "time_elapsed": 1323809, "internal_node_id": "0.0-203.0-