{"condition": 0, "counterbalance": 147, "assignmentId": "3HYA4D452SQ29I3GR3M3IQ0O3J7F2J", "workerId": "MTK0593", "hitId": "3DFYDSXB2W7PBC0K3BISENRO17LJUD", "currenttrial": 626, "bonus": 0, "data": [{"uniqueid": "MTK0593:3HYA4D452SQ29I3GR3M3IQ0O3J7F2J", "current_trial": 0, "dateTime": 1511556800684, "trialdata": {"rt": 27119, "key_press": 122, "type": "INSTRUCTIONS", "trial_type": "text", "trial_index": 0, "time_elapsed": 27127, "internal_node_id": "0.0-0.0"}}, {"uniqueid": "MTK0593:3HYA4D452SQ29I3GR3M3IQ0O3J7F2J", "current_trial": 1, "dateTime": 1511556808975, "trialdata": {"rt": 8171, "key_press": 32, "type": "INSTRUCTIONS", "trial_type": "text", "trial_index": 1, "time_elapsed": 35419, "internal_node_id": "0.0-1.0"}}, {"uniqueid": "MTK0593:3HYA4D452SQ29I3GR3M3IQ0O3J7F2J", "current_trial": 2, "dateTime": 1511556817347, "trialdata": {"rt": [8005], "responses": ["ocean"], "type": "AUDIO_TEST", "trial_type": "audio-test", "trial_index": 2, "time_elapsed": 43791, "internal_node_id": "0.0-2.0"}}, {"uniqueid": "MTK0593:3HYA4D452SQ29I3GR3M3IQ0O3J7F2J", "current_trial": 3, "dateTime": 1511556825178, "trialdata": {"rt": [7828], "responses": ["crystal"], "type": "AUDIO_TEST", "trial_type": "audio-test", "trial_index": 3, "time_elapsed": 51622, "internal_node_id": "0.0-3.0"}}, {"uniqueid": "MTK0593:3HYA4D452SQ29I3GR3M3IQ0O3J7F2J", "current_trial": 4, "dateTime": 1511556831274, "trialdata": {"rt": [6092], "responses": ["spice"], "type": "AUDIO_TEST", "trial_type": "audio-test", "trial_index": 4, "time_elapsed": 57718, "internal_node_id": "0.0-4.0"}}, {"uniqueid": "MTK0593:3HYA4D452SQ29I3GR3M3IQ0O3J7F2J", "current_trial": 5, "dateTime": 1511556863626, "trialdata": {"rt": 31594, "responses": "{\"Q0\":\"7:00 PM\",\"Q1\":\"1:00 AM\",\"Q2\":\"2\"}", "type": "SLEEP_SURVEY", "trial_type": "survey-text", "trial_index": 5, "time_elapsed": 90070, "internal_node_id": "0.0-5.0"}}, {"uniqueid": "MTK0593:3HYA4D452SQ29I3GR3M3IQ0O3J7F2J", "current_trial": 6, "dateTime": 1511556893967, "trialdata": {"rt": 29340, "key_press": 32, "type": "INSTRUCTIONS", "trial_type": "text", "trial_index": 6, "time_elapsed": 120411, "internal_node_id": "0.0-6.0"}}, {"uniqueid": "MTK0593:3HYA4D452SQ29I3GR3M3IQ0O3J7F2J", "current_trial": 7, "dateTime": 1511557063270, "trialdata": {"rt": 168797, "key_press": 32, "type": "INSTRUCTIONS", "trial_type": "text", "trial_index": 7, "time_elapsed": 289714, "internal_node_id": "0.0-7.0"}}, {"uniqueid": "MTK0593:3HYA4D452SQ29I3GR3M3IQ0O3J7F2J", "current_trial": 8, "dateTime": 1511559477685, "trialdata": {"rt": 2413907, "key_press": 32, "type": "INSTRUCTIONS", "trial_type": "text", "trial_index": 8, "time_elapsed": 2704129, "internal_node_id": "0.0-8.0"}}, {"uniqueid": "MTK0593:3HYA4D452SQ29I3GR3M3IQ0O3J7F2J", "current_trial": 9, "dateTime": 1511559496692, "trialdata": {"rt": [2691, 4115, 5443, 7050, 8802, 11475, 12986, 14826, 16306], "responses": ["16", "9", "12", "14", "21", "7", "8", "16", "9"], "num1": [6, 4, 5, 4, 9, 1, 2, 4, 4, 6], "num2": [6, 4, 2, 4, 9, 3, 4, 7, 1, 9], "num3": [4, 1, 5, 6, 3, 3, 2, 5, 4, 4], "type": "DISTRACTOR", "conditions": [18, 1200, "a", 18000], "trial": 0, "trial_type": "math-distractor", "trial_index": 9, "time_elapsed": 2723135, "internal_node_id": "0.0-9.0"}}, {"uniqueid": "MTK0593:3HYA4D452SQ29I3GR3M3IQ0O3J7F2J", "current_trial": 10, "dateTime": 1511559499702, "trialdata": {"rt": -1, "stimulus": "<p id=\"stim\">10</p>", "key_press": -1, "trial_type": "single-stim", "trial_index": 10, "time_elapsed": 2726145, "internal_node_id": "0.0-10.0-0.0"}}, {"uniqueid": "MTK0593:3HYA4D452SQ29I3GR3M3IQ0O3J7F2J", "current_trial": 11, "dateTime": 1511559500703, "trialdata": {"rt": -1, "stimulus": "<p id=\"stim\">9</p>", "key_press": -1, "trial_type": "single-stim", "trial_index": 11, "time_elapsed": 2727147, "internal_node_id": "0.0-10.0-1.0"}}, {"uniqueid": "MTK0593:3HYA4D452SQ29I3GR3M3IQ0O3J7F2J", "current_trial": 12, "dateTime": 1511559501704, "trialdata": {"rt": -1, "stimulus": "<p id=\"stim\">8</p>", "key_press": -1, "trial_type": "single-stim", "trial_index": 12, "time_elapsed": 2728148, "internal_node_id": "0.0-10.0-2.0"}}, {"uniqueid": "MTK0593:3HYA4D452SQ29I3GR3M3IQ0O3J7F2J", "current_trial": 13, "dateTime": 1511559502707, "trialdata": {"rt": -1, "stimulus": "<p id=\"stim\">7</p>", "key_press": -1, "trial_type": "single-stim", "trial_index": 13, "time_elapsed": 2729151, "internal_node_id": "0.0-10.0-3.0"}}, {"uniqueid": "MTK0593:3HYA4D452SQ29I3GR3M3IQ0O3J7F2J", "current_trial": 14, "dateTime": 1511559503714, "trialdata": {"rt": -1, "stimulus": "<p id=\"stim\">6</p>", "key_press": -1, "trial_type": "single-stim", "trial_index": 14, "time_elapsed": 2730158, "internal_node_id": "0.0-10.0-4.0"}}, {"uniqueid": "MTK0593:3HYA4D452SQ29I3GR3M3IQ0O3J7F2J", "current_trial": 15, "dateTime": 1511559504725, "trialdata": {"rt": -1, "stimulus": "<p id=\"stim\">5</p>", "key_press": -1, "trial_type": "single-stim", "trial_index": 15, "time_elapsed": 2731169, "internal_node_id": "0.0-10.0-5.0"}}, {"uniqueid": "MTK0593:3HYA4D452SQ29I3GR3M3IQ0O3J7F2J", "current_trial": 16, "dateTime": 1511559505725, "trialdata": {"rt": -1, "stimulus": "<p id=\"stim\">4</p>", "key_press": -1, "trial_type": "single-stim", "trial_index": 16, "time_elapsed": 2732169, "internal_node_id": "0.0-10.0-6.0"}}, {"uniqueid": "MTK0593:3HYA4D452SQ29I3GR3M3IQ0O3J7F2J", "current_trial": 17, "dateTime": 1511559506727, "trialdata": {"rt": -1, "stimulus": "<p id=\"stim\">3</p>", "key_press": -1, "trial_type": "single-stim", "trial_index": 17, "time_elapsed": 2733171, "internal_node_id": "0.0-10.0-7.0"}}, {"uniqueid": "MTK0593:3HYA4D452SQ29I3GR3M3IQ0O3J7F2J", "current_trial": 18, "dateTime": 1511559507729, "trialdata": {"rt": -1, "stimulus": "<p id=\"stim\">2</p>", "key_press": -1, "trial_type": "single-stim", "trial_index": 18, "time_elapsed": 2734173, "internal_node_id": "0.0-10.0-8.0"}}, {"uniqueid": "MTK0593:3HYA4D452SQ29I3GR3M3IQ0O3J7F2J", "current_trial": 19, "dateTime": 1511559508731, "trialdata": {"rt": -1, "stimulus": "<p id=\"stim\">1</p>", "key_press": -1, "trial_type": "single-stim", "trial_index": 19, "time_elapsed": 2735175, "internal_node_id": "0.0-10.0-9.0"}}, {"uniqueid": "MTK0593:3HYA4D452SQ29I3GR3M3IQ0O3J7F2J", "current_trial": 20, "dateTime": 1511559510232, "trialdata": {"rt": -1, "stimulus": "<p id=\"stim\">+</p>", "key_press": -1, "type": "FIXATION", "trial_type": "single-stim", "trial_index": 20, "time_elapsed": 2736676, "internal_node_id": "0.0-11.0-0.0"}}, {"uniqueid": "MTK0593:3HYA4D452SQ29I3GR3M3IQ0O3J7F2J", "current_trial": 21, "dateTime": 1511559512412, "trialdata": {"rt": -1000, "stimulus": "/static/audio/wordpool/WASHER.wav", "key_press": -1, "type": "PRES_AUD", "word": "washer", "wordID": 1591, "conditions": [18, 1200, "a", 18000], "trial": 0, "serialpos": 0, "trial_type": "single-audio", "trial_index": 21, "time_elapsed": 2738856, "internal_node_id": "0.0-12.0"}}, {"uniqueid": "MTK0593:3HYA4D452SQ29I3GR3M3IQ0O3J7F2J", "current_trial": 22, "dateTime": 1511559514469, "trialdata": {"rt": -1000, "stimulus": "/static/audio/wordpool/SWORD.wav", "key_press": -1, "type": "PRES_AUD", "word": "sword", "wordID": 1422, "conditions": [18, 1200, "a", 18000], "trial": 0, "serialpos": 1, "trial_type": "single-audio", "trial_index": 22, "time_elapsed": 2740913, "internal_node_id": "0.0-13.0"}}, {"uniqueid": "MTK0593:3HYA4D452SQ29I3GR3M3IQ0O3J7F2J", "current_trial": 23, "dateTime": 1511559516574, "trialdata": {"rt": -1000, "stimulus": "/static/audio/wordpool/FIREPLACE.wav", "key_press": -1, "type": "PRES_AUD", "word": "fireplace", "wordID": 569, "conditions": [18, 1200, "a", 18000], "trial": 0, "serialpos": 2, "trial_type": "single-audio", "trial_index": 23, "time_elapsed": 2743018, "internal_node_id": "0.0-14.0"}}, {"uniqueid": "MTK0593:3HYA4D452SQ29I3GR3M3IQ0O3J7F2J", "current_trial": 24, "dateTime": 1511559518772, "trialdata": {"rt": -1000, "stimulus": "/static/audio/wordpool/ELBOW.wav", "key_press": -1, "type": "PRES_AUD", "word": "elbow", "wordID": 519, "conditions": [18, 1200, "a", 18000], "trial": 0, "serialpos": 3, "trial_type": "single-audio", "trial_index": 24, "time_elapsed": 2745216, "internal_node_id": "0.0-15.0"}}, {"uniqueid": "MTK0593:3HYA4D452SQ29I3GR3M3IQ0O3J7F2J", "current_trial": 25, "dateTime": 1511559520849, "trialdata": {"rt": -1000, "stimulus": "/static/audio/wordpool/LIZARD.wav", "key_press": -1, "type": "PRES_AUD", "word": "lizard", "wordID": 833, "conditions": [18, 1200, "a", 18000], "trial": 0, "serialpos": 4, "trial_type": "single-audio", "trial_index": 25, "time_elapsed": 2747293, "internal_node_id": "0.0-16.0"}}, {"uniqueid": "MTK0593:3HYA4D452SQ29I3GR3M3IQ0O3J7F2J", "current_trial": 26, "dateTime": 1511559523242, "trialdata": {"rt": -1000, "stimulus": "/static/audio/wordpool/SAUSAGE.wav", "key_press": -1, "type": "PRES_AUD", "word": "sausage", "wordID": 1237, "conditions": [18, 1200, "a", 18000], "trial": 0, "serialpos": 5, "trial_type": "single-audio", "trial_index": 26, "time_elapsed": 2749686, "internal_node_id": "0.0-17.0"}}, {"uniqueid": "MTK0593:3HYA4D452SQ29I3GR3M3IQ0O3J7F2J", "current_trial": 27, "dateTime": 1511559525315, "trialdata": {"rt": -1000, "stimulus": "/static/audio/wordpool/BOYFRIEND.wav", "key_press": -1, "type": "PRES_AUD", "word": "boyfriend", "wordID": 161, "conditions": [18, 1200, "a", 18000], "trial": 0, "serialpos": 6, "trial_type": "single-audio", "trial_index": 27, "time_elapsed": 2751759, "internal_node_id": "0.0-18.0"}}, {"uniqueid": "MTK0593:3HYA4D452SQ29I3GR3M3IQ0O3J7F2J", "current_trial": 28, "dateTime": 1511559527591, "trialdata": {"rt": -1000, "stimulus": "/static/audio/wordpool/NOTEBOOK.wav", "key_press": -1, "type": "PRES_AUD", "word": "notebook", "wordID": 958, "conditions": [18, 1200, "a", 18000], "trial": 0, "serialpos": 7, "trial_type": "single-audio", "trial_index": 28, "time_elapsed": 2754034, "internal_node_id": "0.0-19.0"}}, {"uniqueid": "MTK0593:3HYA4D452SQ29I3GR3M3IQ0O3J7F2J", "current_trial": 29, "dateTime": 1511559529991, "trialdata": {"rt": -1000, "stimulus": "/static/audio/wordpool/CITRUS.wav", "key_press": -1, "type": "PRES_AUD", "word": "citrus", "wordID": 312, "conditions": [18, 1200, "a", 18000], "trial": 0, "serialpos": 8, "trial_type": "single-audio", "trial_index": 29, "time_elapsed": 2756435, "internal_node_id": "0.0-20.0"}}, {"uniqueid": "MTK0593:3HYA4D452SQ29I3GR3M3IQ0O3J7F2J", "current_trial": 30, "dateTime": 1511559532164, "trialdata": {"rt": -1000, "stimulus": "/static/audio/wordpool/AWARD.wav", "key_press": -1, "type": "PRES_AUD", "word": "award", "wordID": 62, "conditions": [18, 1200, "a", 18000], "trial": 0, "serialpos": 9, "trial_type": "single-audio", "trial_index": 30, "time_elapsed": 2758608, "internal_node_id": "0.0-21.0"}}, {"uniqueid": "MTK0593:3HYA4D452SQ29I3GR3M3IQ0O3J7F2J", "current_trial": 31, "dateTime": 1511559534399, "trialdata": {"rt": -1000, "stimulus": "/static/audio/wordpool/SKETCH.wav", "key_press": -1, "type": "PRES_AUD", "word": "sketch", "wordID": 1314, "conditions": [18, 1200, "a", 18000], "trial": 0, "serialpos": 10, "trial_type": "single-audio", "trial_index": 31, "time_elapsed": 2760843, "internal_node_id": "0.0-22.0"}}, {"uniqueid": "MTK0593:3HYA4D452SQ29I3GR3M3IQ0O3J7F2J", "current_trial": 32, "dateTime": 1511559536659, "trialdata": {"rt": -1000, "stimulus": "/static/audio/wordpool/SPACE.wav", "key_press": -1, "type": "PRES_AUD", "word": "space", "wordID": 1344, "conditions": [18, 1200, "a", 18000], "trial": 0, "serialpos": 11, "trial_type": "single-audio", "trial_index": 32, "time_elapsed": 2763103, "internal_node_id": "0.0-23.0"}}, {"uniqueid": "MTK0593:3HYA4D452SQ29I3GR3M3IQ0O3J7F2J", "current_trial": 33, "dateTime": 1511559538748, "trialdata": {"rt": -1000, "stimulus": "/static/audio/wordpool/TOASTER.wav", "key_press": -1, "type": "PRES_AUD", "word": "toaster", "wordID": 1471, "conditions": [18, 1200, "a", 18000], "trial": 0, "serialpos": 12, "trial_type": "single-audio", "trial_index": 33, "time_elapsed": 2765192, "internal_node_id": "0.0-24.0"}}, {"uniqueid": "MTK0593:3HYA4D452SQ29I3GR3M3IQ0O3J7F2J", "current_trial": 34, "dateTime": 1511559540945, "trialdata": {"rt": -1000, "stimulus": "/static/audio/wordpool/OINTMENT.wav", "key_press": -1, "type": "PRES_AUD", "word": "ointment", "wordID": 973, "conditions": [18, 1200, "a", 18000], "trial": 0, "serialpos": 13, "trial_type": "single-audio", "trial_index": 34, "time_elapsed": 2767389, "internal_node_id": "0.0-25.0"}}, {"uniqueid": "MTK0593:3HYA4D452SQ29I3GR3M3IQ0O3J7F2J", "current_trial": 35, "dateTime": 1511559543295, "trialdata": {"rt": -1000, "stimulus": "/static/audio/wordpool/HAND.wav", "key_press": -1, "type": "PRES_AUD", "word": "hand", "wordID": 682, "conditions": [18, 1200, "a", 18000], "trial": 0, "serialpos": 14, "trial_type": "single-audio", "trial_index": 35, "time_elapsed": 2769739, "internal_node_id": "0.0-26.0"}}, {"uniqueid": "MTK0593:3HYA4D452SQ29I3GR3M3IQ0O3J7F2J", "current_trial": 36, "dateTime": 1511559545446, "trialdata": {"rt": -1000, "stimulus": "/static/audio/wordpool/LIVER.wav", "key_press": -1, "type": "PRES_AUD", "word": "liver", "wordID": 832, "conditions": [18, 1200, "a", 18000], "trial": 0, "serialpos": 15, "trial_type": "single-audio", "trial_index": 36, "time_elapsed": 2771890, "internal_node_id": "0.0-27.0"}}, {"uniqueid": "MTK0593:3HYA4D452SQ29I3GR3M3IQ0O3J7F2J", "current_trial": 37, "dateTime": 1511559547520, "trialdata": {"rt": -1000, "stimulus": "/static/audio/wordpool/BISON.wav", "key_press": -1, "type": "PRES_AUD", "word": "bison", "wordID": 130, "conditions": [18, 1200, "a", 18000], "trial": 0, "serialpos": 16, "trial_type": "single-audio", "trial_index": 37, "time_elapsed": 2773963, "internal_node_id": "0.0-28.0"}}, {"uniqueid": "MTK0593:3HYA4D452SQ29I3GR3M3IQ0O3J7F2J", "current_trial": 38, "dateTime": 1511559549856, "trialdata": {"rt": -1000, "stimulus": "/static/audio/wordpool/PALACE.wav", "key_press": -1, "type": "PRES_AUD", "word": "palace", "wordID": 1005, "conditions": [18, 1200, "a", 18000], "trial": 0, "serialpos": 17, "trial_type": "single-audio", "trial_index": 38, "time_elapsed": 2776300, "internal_node_id": "0.0-29.0"}}, {"uniqueid": "MTK0593:3HYA4D452SQ29I3GR3M3IQ0O3J7F2J", "current_trial": 39, "dateTime": 1511559551157, "trialdata": {"rt": -1, "stimulus": "", "key_press": -1, "type": "PRE_RECALL_DELAY", "trial_type": "single-stim", "trial_index": 39, "time_elapsed": 2777601, "internal_node_id": "0.0-30.0-0.0"}}, {"uniqueid": "MTK0593:3HYA4D452SQ29I3GR3M3IQ0O3J7F2J", "current_trial": 40, "dateTime": 1511559551658, "trialdata": {"rt": -1000, "stimulus": "/static/audio/400Hz.wav", "key_press": -1, "type": "PRE_RECALL_ALERT", "trial_type": "single-audio", "trial_index": 40, "time_elapsed": 2778102, "internal_node_id": "0.0-31.0"}}, {"uniqueid": "MTK0593:3HYA4D452SQ29I3GR3M3IQ0O3J7F2J", "current_trial": 41, "dateTime": 1511559611695, "trialdata": {"rt": [3784, 5944, 8200, 10680, 15504, 35545, 46135], "recwords": ["boyfriend", "palace", "liver", "sketch", "bison", "lizard", "sword"], "type": "FREE_RECALL", "conditions": [18, 1200, "a", 18000], "trial": 0, "trial_type": "free-recall", "trial_index": 41, "time_elapsed": 2838105, "internal_node_id": "0.0-32.0-0.0"}}, {"uniqueid": "MTK0593:3HYA4D452SQ29I3GR3M3IQ0O3J7F2J", "current_trial": 42, "dateTime": 1511559616434, "trialdata": {"rt": 2738, "key_press": 32, "type": "INSTRUCTIONS", "trial_type": "text", "trial_index": 42, "time_elapsed": 2842878, "internal_node_id": "0.0-33.0"}}, {"uniqueid": "MTK0593:3HYA4D452SQ29I3GR3M3IQ0O3J7F2J", "current_trial": 43, "dateTime": 1511559636450, "trialdata": {"rt": [1637, 3501, 5037, 6653, 8605, 10832, 12533, 14054, 15325, 17437], "responses": ["15", "14", "16", "9", "16", "15", "19", "8", "12", "17"], "num1": [2, 2, 6, 4, 4, 9, 8, 2, 5, 5, 8], "num2": [8, 3, 4, 2, 8, 4, 8, 3, 2, 3, 8], "num3": [5, 9, 6, 3, 4, 2, 3, 3, 5, 9, 7], "type": "DISTRACTOR", "conditions": [18, 1200, "v", 18000], "trial": 1, "trial_type": "math-distractor", "trial_index": 43, "time_elapsed": 2862894, "internal_node_id": "0.0-34.0"}}, {"uniqueid": "MTK0593:3HYA4D452SQ29I3GR3M3IQ0O3J7F2J", "current_trial": 44, "dateTime": 1511559639457, "trialdata": {"rt": -1, "stimulus": "<p id=\"stim\">10</p>", "key_press": -1, "trial_type": "single-stim", "trial_index": 44, "time_elapsed": 2865900, "internal_node_id": "0.0-35.0-0.0"}}, {"uniqueid": "MTK0593:3HYA4D452SQ29I3GR3M3IQ0O3J7F2J", "current_trial": 45, "dateTime": 1511559640458, "trialdata": {"rt": -1, "stimulus": "<p id=\"stim\">9</p>", "key_press": -1, "trial_type": "single-stim", "trial_index": 45, "time_elapsed": 2866902, "internal_node_id": "0.0-35.0-1.0"}}, {"uniqueid": "MTK0593:3HYA4D452SQ29I3GR3M3IQ0O3J7F2J", "current_trial": 46, "dateTime": 1511559641459, "trialdata": {"rt": -1, "stimulus": "<p id=\"stim\">8</p>", "key_press": -1, "trial_type": "single-stim", "trial_index": 46, "time_elapsed": 2867903, "internal_node_id": "0.0-35.0-2.0"}}, {"uniqueid": "MTK0593:3HYA4D452SQ29I3GR3M3IQ0O3J7F2J", "current_trial": 47, "dateTime": 1511559642460, "trialdata": {"rt": -1, "stimulus": "<p id=\"stim\">7</p>", "key_press": -1, "trial_type": "single-stim", "trial_index": 47, "time_elapsed": 2868904, "internal_node_id": "0.0-35.0-3.0"}}, {"uniqueid": "MTK0593:3HYA4D452SQ29I3GR3M3IQ0O3J7F2J", "current_trial": 48, "dateTime": 1511559643462, "trialdata": {"rt": -1, "stimulus": "<p id=\"stim\">6</p>", "key_press": -1, "trial_type": "single-stim", "trial_index": 48, "time_elapsed": 2869906, "internal_node_id": "0.0-35.0-4.0"}}, {"uniqueid": "MTK0593:3HYA4D452SQ29I3GR3M3IQ0O3J7F2J", "current_trial": 49, "dateTime": 1511559644464, "trialdata": {"rt": -1, "stimulus": "<p id=\"stim\">5</p>", "key_press": -1, "trial_type": "single-stim", "trial_index": 49, "time_elapsed": 2870908, "internal_node_id": "0.0-35.0-5.0"}}, {"uniqueid": "MTK0593:3HYA4D452SQ29I3GR3M3IQ0O3J7F2J", "current_trial": 50, "dateTime": 1511559645465, "trialdata": {"rt": -1, "stimulus": "<p id=\"stim\">4</p>", "key_press": -1, "trial_type": "single-stim", "trial_index": 50, "time_elapsed": 2871909, "internal_node_id": "0.0-35.0-6.0"}}, {"uniqueid": "MTK0593:3HYA4D452SQ29I3GR3M3IQ0O3J7F2J", "current_trial": 51, "dateTime": 1511559646466, "trialdata": {"rt": -1, "stimulus": "<p id=\"stim\">3</p>", "key_press": -1, "trial_type": "single-stim", "trial_index": 51, "time_elapsed": 2872910, "internal_node_id": "0.0-35.0-7.0"}}, {"uniqueid": "MTK0593:3HYA4D452SQ29I3GR3M3IQ0O3J7F2J", "current_trial": 52, "dateTime": 1511559647468, "trialdata": {"rt": -1, "stimulus": "<p id=\"stim\">2</p>", "key_press": -1, "trial_type": "single-stim", "trial_index": 52, "time_elapsed": 2873912, "internal_node_id": "0.0-35.0-8.0"}}, {"uniqueid": "MTK0593:3HYA4D452SQ29I3GR3M3IQ0O3J7F2J", "current_trial": 53, "dateTime": 1511559648469, "trialdata": {"rt": -1, "stimulus": "<p id=\"stim\">1</p>", "key_press": -1, "trial_type": "single-stim", "trial_index": 53, "time_elapsed": 2874913, "internal_node_id": "0.0-35.0-9.0"}}, {"uniqueid": "MTK0593:3HYA4D452SQ29I3GR3M3IQ0O3J7F2J", "current_trial": 54, "dateTime": 1511559649971, "trialdata": {"rt": -1, "stimulus": "<p id=\"stim\">+</p>", "key_press": -1, "type": "FIXATION", "trial_type": "single-stim", "trial_index": 54, "time_elapsed": 2876415, "internal_node_id": "0.0-36.0-0.0"}}, {"uniqueid": "MTK0593:3HYA4D452SQ29I3GR3M3IQ0O3J7F2J", "current_trial": 55, "dateTime": 1511559651171, "trialdata": {"rt": -1, "stimulus": "<p id=\"stim\">CABBAGE</p>", "key_press": -1, "type": "PRES_VIS", "word": "cabbage", "wordID": 209, "conditions": [18, 1200, "v", 18000], "trial": 1, "serialpos": 0, "trial_type": "single-stim", "trial_index": 55, "time_elapsed": 2877615, "internal_node_id": "0.0-37.0"}}, {"uniqueid": "MTK0593:3HYA4D452SQ29I3GR3M3IQ0O3J7F2J", "current_trial": 56, "dateTime": 1511559653352, "trialdata": {"rt": -1, "stimulus": "<p id=\"stim\">SCISSORS</p>", "key_press": -1, "type": "PRES_VIS", "word": "scissors", "wordID": 1249, "conditions": [18, 1200, "v", 18000], "trial": 1, "serialpos": 1, "trial_type": "single-stim", "trial_index": 56, "time_elapsed": 2879796, "internal_node_id": "0.0-38.0"}}, {"uniqueid": "MTK0593:3HYA4D452SQ29I3GR3M3IQ0O3J7F2J", "current_trial": 57, "dateTime": 1511559655419, "trialdata": {"rt": -1, "stimulus": "<p id=\"stim\">DENIM</p>", "key_press": -1, "type": "PRES_VIS", "word": "denim", "wordID": 445, "conditions": [18, 1200, "v", 18000], "trial": 1, "serialpos": 2, "trial_type": "single-stim", "trial_index": 57, "time_elapsed": 2881863, "internal_node_id": "0.0-39.0"}}, {"uniqueid": "MTK0593:3HYA4D452SQ29I3GR3M3IQ0O3J7F2J", "current_trial": 58, "dateTime": 1511559657668, "trialdata": {"rt": -1, "stimulus": "<p id=\"stim\">FRAGRANCE</p>", "key_press": -1, "type": "PRES_VIS", "word": "fragrance", "wordID": 598, "conditions": [18, 1200, "v", 18000], "trial": 1, "serialpos": 3, "trial_type": "single-stim", "trial_index": 58, "time_elapsed": 2884112, "internal_node_id": "0.0-40.0"}}, {"uniqueid": "MTK0593:3HYA4D452SQ29I3GR3M3IQ0O3J7F2J", "current_trial": 59, "dateTime": 1511559660056, "trialdata": {"rt": -1, "stimulus": "<p id=\"stim\">ULCER</p>", "key_press": -1, "type": "PRES_VIS", "word": "ulcer", "wordID": 1532, "conditions": [18, 1200, "v", 18000], "trial": 1, "serialpos": 4, "trial_type": "single-stim", "trial_index": 59, "time_elapsed": 2886500, "internal_node_id": "0.0-41.0"}}, {"uniqueid": "MTK0593:3HYA4D452SQ29I3GR3M3IQ0O3J7F2J", "current_trial": 60, "dateTime": 1511559662137, "trialdata": {"rt": -1, "stimulus": "<p id=\"stim\">HORNET</p>", "key_press": -1, "type": "PRES_VIS", "word": "hornet", "wordID": 717, "conditions": [18, 1200, "v", 18000], "trial": 1, "serialpos": 5, "trial_type": "single-stim", "trial_index": 60, "time_elapsed": 2888581, "internal_node_id": "0.0-42.0"}}, {"uniqueid": "MTK0593:3HYA4D452SQ29I3GR3M3IQ0O3J7F2J", "current_trial": 61, "dateTime": 1511559664426, "trialdata": {"rt": -1, "stimulus": "<p id=\"stim\">LAVA</p>", "key_press": -1, "type": "PRES_VIS", "word": "lava", "wordID": 803, "conditions": [18, 1200, "v", 18000], "trial": 1, "serialpos": 6, "trial_type": "single-stim", "trial_index": 61, "time_elapsed": 2890870, "internal_node_id": "0.0-43.0"}}, {"uniqueid": "MTK0593:3HYA4D452SQ29I3GR3M3IQ0O3J7F2J", "current_trial": 62, "dateTime": 1511559666810, "trialdata": {"rt": -1, "stimulus": "<p id=\"stim\">RATTLE</p>", "key_press": -1, "type": "PRES_VIS", "word": "rattle", "wordID": 1169, "conditions": [18, 1200, "v", 18000], "trial": 1, "serialpos": 7, "trial_type": "single-stim", "trial_index": 62, "time_elapsed": 2893254, "internal_node_id": "0.0-44.0"}}, {"uniqueid": "MTK0593:3HYA4D452SQ29I3GR3M3IQ0O3J7F2J", "current_trial": 63, "dateTime": 1511559669151, "trialdata": {"rt": -1, "stimulus": "<p id=\"stim\">TURTLE</p>", "key_press": -1, "type": "PRES_VIS", "word": "turtle", "wordID": 1521, "conditions": [18, 1200, "v", 18000], "trial": 1, "serialpos": 8, "trial_type": "single-stim", "trial_index": 63, "time_elapsed": 2895595, "internal_node_id": "0.0-45.0"}}, {"uniqueid": "MTK0593:3HYA4D452SQ29I3GR3M3IQ0O3J7F2J", "current_trial": 64, "dateTime": 1511559671326, "trialdata": {"rt": -1, "stimulus": "<p id=\"stim\">COBRA</p>", "key_press": -1, "type": "PRES_VIS", "word": "cobra", "wordID": 335, "conditions": [18, 1200, "v", 18000], "trial": 1, "serialpos": 9, "trial_type": "single-stim", "trial_index": 64, "time_elapsed": 2897770, "internal_node_id": "0.0-46.0"}}, {"uniqueid": "MTK0593:3HYA4D452SQ29I3GR3M3IQ0O3J7F2J", "current_trial": 65, "dateTime": 1511559673720, "trialdata": {"rt": -1, "stimulus": "<p id=\"stim\">PEBBLE</p>", "key_press": -1, "type": "PRES_VIS", "word": "pebble", "wordID": 1034, "conditions": [18, 1200, "v", 18000], "trial": 1, "serialpos": 10, "trial_type": "single-stim", "trial_index": 65, "time_elapsed": 2900164, "internal_node_id": "0.0-47.0"}}, {"uniqueid": "MTK0593:3HYA4D452SQ29I3GR3M3IQ0O3J7F2J", "current_trial": 66, "dateTime": 1511559676101, "trialdata": {"rt": -1, "stimulus": "<p id=\"stim\">CONVICT</p>", "key_press": -1, "type": "PRES_VIS", "word": "convict", "wordID": 370, "conditions": [18, 1200, "v", 18000], "trial": 1, "serialpos": 11, "trial_type": "single-stim", "trial_index": 66, "time_elapsed": 2902545, "internal_node_id": "0.0-48.0"}}, {"uniqueid": "MTK0593:3HYA4D452SQ29I3GR3M3IQ0O3J7F2J", "current_trial": 67, "dateTime": 1511559678341, "trialdata": {"rt": -1, "stimulus": "<p id=\"stim\">CARRIAGE</p>", "key_press": -1, "type": "PRES_VIS", "word": "carriage", "wordID": 247, "conditions": [18, 1200, "v", 18000], "trial": 1, "serialpos": 12, "trial_type": "single-stim", "trial_index": 67, "time_elapsed": 2904785, "internal_node_id": "0.0-49.0"}}, {"uniqueid": "MTK0593:3HYA4D452SQ29I3GR3M3IQ0O3J7F2J", "current_trial": 68, "dateTime": 1511559680631, "trialdata": {"rt": -1, "stimulus": "<p id=\"stim\">CABIN</p>", "key_press": -1, "type": "PRES_VIS", "word": "cabin", "wordID": 210, "conditions": [18, 1200, "v", 18000], "trial": 1, "serialpos": 13, "trial_type": "single-stim", "trial_index": 68, "time_elapsed": 2907015, "internal_node_id": "0.0-50.0"}}, {"uniqueid": "MTK0593:3HYA4D452SQ29I3GR3M3IQ0O3J7F2J", "current_trial": 69, "dateTime": 1511559682699, "trialdata": {"rt": -1, "stimulus": "<p id=\"stim\">DONOR</p>", "key_press": -1, "type": "PRES_VIS", "word": "donor", "wordID": 484, "conditions": [18, 1200, "v", 18000], "trial": 1, "serialpos": 14, "trial_type": "single-stim", "trial_index": 69, "time_elapsed": 2909143, "internal_node_id": "0.0-51.0"}}, {"uniqueid": "MTK0593:3HYA4D452SQ29I3GR3M3IQ0O3J7F2J", "current_trial": 70, "dateTime": 1511559684889, "trialdata": {"rt": -1, "stimulus": "<p id=\"stim\">DUST</p>", "key_press": -1, "type": "PRES_VIS", "word": "dust", "wordID": 507, "conditions": [18, 1200, "v", 18000], "trial": 1, "serialpos": 15, "trial_type": "single-stim", "trial_index": 70, "time_elapsed": 2911333, "internal_node_id": "0.0-52.0"}}, {"uniqueid": "MTK0593:3HYA4D452SQ29I3GR3M3IQ0O3J7F2J", "current_trial": 71, "dateTime": 1511559687162, "trialdata": {"rt": -1, "stimulus": "<p id=\"stim\">LOVER</p>", "key_press": -1, "type": "PRES_VIS", "word": "lover", "wordID": 845, "conditions": [18, 1200, "v", 18000], "trial": 1, "serialpos": 16, "trial_type": "single-stim", "trial_index": 71, "time_elapsed": 2913606, "internal_node_id": "0.0-53.0"}}, {"uniqueid": "MTK0593:3HYA4D452SQ29I3GR3M3IQ0O3J7F2J", "current_trial": 72, "dateTime": 1511559689344, "trialdata": {"rt": -1, "stimulus": "<p id=\"stim\">JAPAN</p>", "key_press": -1, "type": "PRES_VIS", "word": "japan", "wordID": 748, "conditions": [18, 1200, "v", 18000], "trial": 1, "serialpos": 17, "trial_type": "single-stim", "trial_index": 72, "time_elapsed": 2915788, "internal_node_id": "0.0-54.0"}}, {"uniqueid": "MTK0593:3HYA4D452SQ29I3GR3M3IQ0O3J7F2J", "current_trial": 73, "dateTime": 1511559691612, "trialdata": {"rt": -1, "stimulus": "", "key_press": -1, "type": "PRE_RECALL_DELAY", "trial_type": "single-stim", "trial_index": 73, "time_elapsed": 2918056, "internal_node_id": "0.0-55.0-0.0"}}, {"uniqueid": "MTK0593:3HYA4D452SQ29I3GR3M3IQ0O3J7F2J", "current_trial": 74, "dateTime": 1511559692116, "trialdata": {"rt": -1000, "stimulus": "/static/audio/400Hz.wav", "key_press": -1, "type": "PRE_RECALL_ALERT", "trial_type": "single-audio", "trial_index": 74, "time_elapsed": 2918560, "internal_node_id": "0.0-56.0"}}, {"uniqueid": "MTK0593:3HYA4D452SQ29I3GR3M3IQ0O3J7F2J", "current_trial": 75, "dateTime": 1511559752120, "trialdata": {"rt": [6565, 7789, 9197, 10453, 11757, 13349, 19869, 26133, 54237], "recwords": ["convict", "carrot", "cabbage", "donor", "dust", "japan", "ulcer", "lava", "horse"], "type": "FREE_RECALL", "conditions": [18, 1200, "v", 18000], "trial": 1, "trial_type": "free-recall", "trial_index": 75, "time_elapsed": 2978562, "internal_node_id": "0.0-57.0-0.0"}}, {"uniqueid": "MTK0593:3HYA4D452SQ29I3GR3M3IQ0O3J7F2J", "current_trial": 76, "dateTime": 1511559758684, "trialdata": {"rt": 4559, "key_press": 32, "type": "INSTRUCTIONS", "trial_type": "text", "trial_index": 76, "time_elapsed": 2985124, "internal_node_id": "0.0-58.0"}}, {"uniqueid": "MTK0593:3HYA4D452SQ29I3GR3M3IQ0O3J7F2J", "current_trial": 77, "dateTime": 1511559783687, "trialdata": {"rt": [4747, 6642, 8322, 10330, 12306, 14146, 15994, 17202, 19235, 22050, 23530], "responses": ["26", "14", "14", "9", "17", "21", "10", "5", "20", "13", "11"], "num1": [9, 3, 5, 3, 5, 5, 2, 2, 9, 7, 1, 2], "num2": [8, 4, 3, 1, 6, 9, 3, 1, 2, 1, 3, 3], "num3": [9, 7, 6, 5, 6, 7, 5, 2, 9, 5, 7, 7], "type": "DISTRACTOR", "conditions": [24, 1600, "a", 24000], "trial": 2, "trial_type": "math-distractor", "trial_index": 77, "time_elapsed": 3010131, "internal_node_id": "0.0-59.0"}}, {"uniqueid": "MTK0593:3HYA4D452SQ29I3GR3M3IQ0O3J7F2J", "current_trial": 78, "dateTime": 1511559786695, "trialdata": {"rt": -1, "stimulus": "<p id=\"stim\">10</p>", "key_press": -1, "trial_type": "single-stim", "trial_index": 78, "time_elapsed": 3013139, "internal_node_id": "0.0-60.0-0.0"}}, {"uniqueid": "MTK0593:3HYA4D452SQ29I3GR3M3IQ0O3J7F2J", "current_trial": 79, "dateTime": 1511559787697, "trialdata": {"rt": -1, "stimulus": "<p id=\"stim\">9</p>", "key_press": -1, "trial_type": "single-stim", "trial_index": 79, "time_elapsed": 3014141, "internal_node_id": "0.0-60.0-1.0"}}, {"uniqueid": "MTK0593:3HYA4D452SQ29I3GR3M3IQ0O3J7F2J", "current_trial": 80, "dateTime": 1511559788698, "trialdata": {"rt": -1, "stimulus": "<p id=\"stim\">8</p>", "key_press": -1, "trial_type": "single-stim", "trial_index": 80, "time_elapsed": 3015142, "internal_node_id": "0.0-60.0-2.0"}}, {"uniqueid": "MTK0593:3HYA4D452SQ29I3GR3M3IQ0O3J7F2J", "current_trial": 81, "dateTime": 1511559789699, "trialdata": {"rt": -1, "stimulus": "<p id=\"stim\">7</p>", "key_press": -1, "trial_type": "single-stim", "trial_index": 81, "time_elapsed": 3016143, "internal_node_id": "0.0-60.0-3.0"}}, {"uniqueid": "MTK0593:3HYA4D452SQ29I3GR3M3IQ0O3J7F2J", "current_trial": 82, "dateTime": 1511559790701, "trialdata": {"rt": -1, "stimulus": "<p id=\"stim\">6</p>", "key_press": -1, "trial_type": "single-stim", "trial_index": 82, "time_elapsed": 3017145, "internal_node_id": "0.0-60.0-4.0"}}, {"uniqueid": "MTK0593:3HYA4D452SQ29I3GR3M3IQ0O3J7F2J", "current_trial": 83, "dateTime": 1511559791703, "trialdata": {"rt": -1, "stimulus": "<p id=\"stim\">5</p>", "key_press": -1, "trial_type": "single-stim", "trial_index": 83, "time_elapsed": 3018147, "internal_node_id": "0.0-60.0-5.0"}}, {"uniqueid": "MTK0593:3HYA4D452SQ29I3GR3M3IQ0O3J7F2J", "current_trial": 84, "dateTime": 1511559792704, "trialdata": {"rt": -1, "stimulus": "<p id=\"stim\">4</p>", "key_press": -1, "trial_type": "single-stim", "trial_index": 84, "time_elapsed": 3019148, "internal_node_id": "0.0-60.0-6.0"}}, {"uniqueid": "MTK0593:3HYA4D452SQ29I3GR3M3IQ0O3J7F2J", "current_trial": 85, "dateTime": 1511559793706, "trialdata": {"rt": -1, "stimulus": "<p id=\"stim\">3</p>", "key_press": -1, "trial_type": "single-stim", "trial_index": 85, "time_elapsed": 3020150, "internal_node_id": "0.0-60.0-7.0"}}, {"uniqueid": "MTK0593:3HYA4D452SQ29I3GR3M3IQ0O3J7F2J", "current_trial": 86, "dateTime": 1511559794708, "trialdata": {"rt": -1, "stimulus": "<p id=\"stim\">2</p>", "key_press": -1, "trial_type": "single-stim", "trial_index": 86, "time_elapsed": 3021152, "internal_node_id": "0.0-60.0-8.0"}}, {"uniqueid": "MTK0593:3HYA4D452SQ29I3GR3M3IQ0O3J7F2J", "current_trial": 87, "dateTime": 1511559795709, "trialdata": {"rt": -1, "stimulus": "<p id=\"stim\">1</p>", "key_press": -1, "trial_type": "single-stim", "trial_index": 87, "time_elapsed": 3022153, "internal_node_id": "0.0-60.0-9.0"}}, {"uniqueid": "MTK0593:3HYA4D452SQ29I3GR3M3IQ0O3J7F2J", "current_trial": 88, "dateTime": 1511559797210, "trialdata": {"rt": -1, "stimulus": "<p id=\"stim\">+</p>", "key_press": -1, "type": "FIXATION", "trial_type": "single-stim", "trial_index": 88, "time_elapsed": 3023654, "internal_node_id": "0.0-61.0-0.0"}}, {"uniqueid": "MTK0593:3HYA4D452SQ29I3GR3M3IQ0O3J7F2J", "current_trial": 89, "dateTime": 1511559799885, "trialdata": {"rt": -1000, "stimulus": "/static/audio/wordpool/CONCERT.wav", "key_press": -1, "type": "PRES_AUD", "word": "concert", "wordID": 359, "conditions": [24, 1600, "a", 24000], "trial": 2, "serialpos": 0, "trial_type": "single-audio", "trial_index": 89, "time_elapsed": 3026329, "internal_node_id": "0.0-62.0"}}, {"uniqueid": "MTK0593:3HYA4D452SQ29I3GR3M3IQ0O3J7F2J", "current_trial": 90, "dateTime": 1511559802502, "trialdata": {"rt": -1000, "stimulus": "/static/audio/wordpool/YARN.wav", "key_press": -1, "type": "PRES_AUD", "word": "yarn", "wordID": 1630, "conditions": [24, 1600, "a", 24000], "trial": 2, "serialpos": 1, "trial_type": "single-audio", "trial_index": 90, "time_elapsed": 3028946, "internal_node_id": "0.0-63.0"}}, {"uniqueid": "MTK0593:3HYA4D452SQ29I3GR3M3IQ0O3J7F2J", "current_trial": 91, "dateTime": 1511559805007, "trialdata": {"rt": -1000, "stimulus": "/static/audio/wordpool/BANQUET.wav", "key_press": -1, "type": "PRES_AUD", "word": "banquet", "wordID": 85, "conditions": [24, 1600, "a", 24000], "trial": 2, "serialpos": 2, "trial_type": "single-audio", "trial_index": 91, "time_elapsed": 3031451, "internal_node_id": "0.0-64.0"}}, {"uniqueid": "MTK0593:3HYA4D452SQ29I3GR3M3IQ0O3J7F2J", "current_trial": 92, "dateTime": 1511559807747, "trialdata": {"rt": -1000, "stimulus": "/static/audio/wordpool/SUPPER.wav", "key_press": -1, "type": "PRES_AUD", "word": "supper", "wordID": 1410, "conditions": [24, 1600, "a", 24000], "trial": 2, "serialpos": 3, "trial_type": "single-audio", "trial_index": 92, "time_elapsed": 3034191, "internal_node_id": "0.0-65.0"}}, {"uniqueid": "MTK0593:3HYA4D452SQ29I3GR3M3IQ0O3J7F2J", "current_trial": 93, "dateTime": 1511559810206, "trialdata": {"rt": -1000, "stimulus": "/static/audio/wordpool/BRANDY.wav", "key_press": -1, "type": "PRES_AUD", "word": "brandy", "wordID": 168, "conditions": [24, 1600, "a", 24000], "trial": 2, "serialpos": 4, "trial_type": "single-audio", "trial_index": 93, "time_elapsed": 3036650, "internal_node_id": "0.0-66.0"}}, {"uniqueid": "MTK0593:3HYA4D452SQ29I3GR3M3IQ0O3J7F2J", "current_trial": 94, "dateTime": 1511559812659, "trialdata": {"rt": -1000, "stimulus": "/static/audio/wordpool/SPOON.wav", "key_press": -1, "type": "PRES_AUD", "word": "spoon", "wordID": 1356, "conditions": [24, 1600, "a", 24000], "trial": 2, "serialpos": 5, "trial_type": "single-audio", "trial_index": 94, "time_elapsed": 3039103, "internal_node_id": "0.0-67.0"}}, {"uniqueid": "MTK0593:3HYA4D452SQ29I3GR3M3IQ0O3J7F2J", "current_trial": 95, "dateTime": 1511559815422, "trialdata": {"rt": -1000, "stimulus": "/static/audio/wordpool/HONEY.wav", "key_press": -1, "type": "PRES_AUD", "word": "honey", "wordID": 712, "conditions": [24, 1600, "a", 24000], "trial": 2, "serialpos": 6, "trial_type": "single-audio", "trial_index": 95, "time_elapsed": 3041866, "internal_node_id": "0.0-68.0"}}, {"uniqueid": "MTK0593:3HYA4D452SQ29I3GR3M3IQ0O3J7F2J", "current_trial": 96, "dateTime": 1511559818218, "trialdata": {"rt": -1000, "stimulus": "/static/audio/wordpool/POCKET.wav", "key_press": -1, "type": "PRES_AUD", "word": "pocket", "wordID": 1092, "conditions": [24, 1600, "a", 24000], "trial": 2, "serialpos": 7, "trial_type": "single-audio", "trial_index": 96, "time_elapsed": 3044662, "internal_node_id": "0.0-69.0"}}, {"uniqueid": "MTK0593:3HYA4D452SQ29I3GR3M3IQ0O3J7F2J", "current_trial": 97, "dateTime": 1511559820884, "trialdata": {"rt": -1000, "stimulus": "/static/audio/wordpool/CREVICE.wav", "key_press": -1, "type": "PRES_AUD", "word": "crevice", "wordID": 404, "conditions": [24, 1600, "a", 24000], "trial": 2, "serialpos": 8, "trial_type": "single-audio", "trial_index": 97, "time_elapsed": 3047328, "internal_node_id": "0.0-70.0"}}, {"uniqueid": "MTK0593:3HYA4D452SQ29I3GR3M3IQ0O3J7F2J", "current_trial": 98, "dateTime": 1511559823560, "trialdata": {"rt": -1000, "stimulus": "/static/audio/wordpool/MOTOR.wav", "key_press": -1, "type": "PRES_AUD", "word": "motor", "wordID": 921, "conditions": [24, 1600, "a", 24000], "trial": 2, "serialpos": 9, "trial_type": "single-audio", "trial_index": 98, "time_elapsed": 3050004, "internal_node_id": "0.0-71.0"}}, {"uniqueid": "MTK0593:3HYA4D452SQ29I3GR3M3IQ0O3J7F2J", "current_trial": 99, "dateTime": 1511559826267, "trialdata": {"rt": -1000, "stimulus": "/static/audio/wordpool/VAGRANT.wav", "key_press": -1, "type": "PRES_AUD", "word": "vagrant", "wordID": 1543, "conditions": [24, 1600, "a", 24000], "trial": 2, "serialpos": 10, "trial_type": "single-audio", "trial_index": 99, "time_elapsed": 3052711, "internal_node_id": "0.0-72.0"}}, {"uniqueid": "MTK0593:3HYA4D452SQ29I3GR3M3IQ0O3J7F2J", "current_trial": 100, "dateTime": 1511559828914, "trialdata": {"rt": -1000, "stimulus": "/static/audio/wordpool/MILK.wav", "key_press": -1, "type": "PRES_AUD", "word": "milk", "wordID": 894, "conditions": [24, 1600, "a", 24000], "trial": 2, "serialpos": 11, "trial_type": "single-audio", "trial_index": 100, "time_elapsed": 3055358, "internal_node_id": "0.0-73.0"}}, {"uniqueid": "MTK0593:3HYA4D452SQ29I3GR3M3IQ0O3J7F2J", "current_trial": 101, "dateTime": 1511559831357, "trialdata": {"rt": -1000, "stimulus": "/static/audio/wordpool/DRESS.wav", "key_press": -1, "type": "PRES_AUD", "word": "dress", "wordID": 494, "conditions": [24, 1600, "a", 24000], "trial": 2, "serialpos": 12, "trial_type": "single-audio", "trial_index": 101, "time_elapsed": 3057801, "internal_node_id": "0.0-74.0"}}, {"uniqueid": "MTK0593:3HYA4D452SQ29I3GR3M3IQ0O3J7F2J", "current_trial": 102, "dateTime": 1511559834051, "trialdata": {"rt": -1000, "stimulus": "/static/audio/wordpool/PLAYGROUND.wav", "key_press": -1, "type": "PRES_AUD", "word": "playground", "wordID": 1086, "conditions": [24, 1600, "a", 24000], "trial": 2, "serialpos": 13, "trial_type": "single-audio", "trial_index": 102, "time_elapsed": 3060495, "internal_node_id": "0.0-75.0"}}, {"uniqueid": "MTK0593:3HYA4D452SQ29I3GR3M3IQ0O3J7F2J", "current_trial": 103, "dateTime": 1511559836650, "trialdata": {"rt": -1000, "stimulus": "/static/audio/wordpool/MATCH.wav", "key_press": -1, "type": "PRES_AUD", "word": "match", "wordID": 877, "conditions": [24, 1600, "a", 24000], "trial": 2, "serialpos": 14, "trial_type": "single-audio", "trial_index": 103, "time_elapsed": 3063094, "internal_node_id": "0.0-76.0"}}, {"uniqueid": "MTK0593:3HYA4D452SQ29I3GR3M3IQ0O3J7F2J", "current_trial": 104, "dateTime": 1511559839373, "trialdata": {"rt": -1000, "stimulus": "/static/audio/wordpool/CHURCH.wav", "key_press": -1, "type": "PRES_AUD", "word": "church", "wordID": 306, "conditions": [24, 1600, "a", 24000], "trial": 2, "serialpos": 15, "trial_type": "single-audio", "trial_index": 104, "time_elapsed": 3065817, "internal_node_id": "0.0-77.0"}}, {"uniqueid": "MTK0593:3HYA4D452SQ29I3GR3M3IQ0O3J7F2J", "current_trial": 105, "dateTime": 1511559842112, "trialdata": {"rt": -1000, "stimulus": "/static/audio/wordpool/CATTLE.wav", "key_press": -1, "type": "PRES_AUD", "word": "cattle", "wordID": 260, "conditions": [24, 1600, "a", 24000], "trial": 2, "serialpos": 16, "trial_type": "single-audio", "trial_index": 105, "time_elapsed": 3068556, "internal_node_id": "0.0-78.0"}}, {"uniqueid": "MTK0593:3HYA4D452SQ29I3GR3M3IQ0O3J7F2J", "current_trial": 106, "dateTime": 1511559844648, "trialdata": {"rt": -1000, "stimulus": "/static/audio/wordpool/BIKE.wav", "key_press": -1, "type": "PRES_AUD", "word": "bike", "wordID": 124, "conditions": [24, 1600, "a", 24000], "trial": 2, "serialpos": 17, "trial_type": "single-audio", "trial_index": 106, "time_elapsed": 3071092, "internal_node_id": "0.0-79.0"}}, {"uniqueid": "MTK0593:3HYA4D452SQ29I3GR3M3IQ0O3J7F2J", "current_trial": 107, "dateTime": 1511559847141, "trialdata": {"rt": -1000, "stimulus": "/static/audio/wordpool/LAGOON.wav", "key_press": -1, "type": "PRES_AUD", "word": "lagoon", "wordID": 794, "conditions": [24, 1600, "a", 24000], "trial": 2, "serialpos": 18, "trial_type": "single-audio", "trial_index": 107, "time_elapsed": 3073585, "internal_node_id": "0.0-80.0"}}, {"uniqueid": "MTK0593:3HYA4D452SQ29I3GR3M3IQ0O3J7F2J", "current_trial": 108, "dateTime": 1511559849816, "trialdata": {"rt": -1000, "stimulus": "/static/audio/wordpool/REBEL.wav", "key_press": -1, "type": "PRES_AUD", "word": "rebel", "wordID": 1171, "conditions": [24, 1600, "a", 24000], "trial": 2, "serialpos": 19, "trial_type": "single-audio", "trial_index": 108, "time_elapsed": 3076260, "internal_node_id": "0.0-81.0"}}, {"uniqueid": "MTK0593:3HYA4D452SQ29I3GR3M3IQ0O3J7F2J", "current_trial": 109, "dateTime": 1511559852540, "trialdata": {"rt": -1000, "stimulus": "/static/audio/wordpool/ACTOR.wav", "key_press": -1, "type": "PRES_AUD", "word": "actor", "wordID": 4, "conditions": [24, 1600, "a", 24000], "trial": 2, "serialpos": 20, "trial_type": "single-audio", "trial_index": 109, "time_elapsed": 3078984, "internal_node_id": "0.0-82.0"}}, {"uniqueid": "MTK0593:3HYA4D452SQ29I3GR3M3IQ0O3J7F2J", "current_trial": 110, "dateTime": 1511559855024, "trialdata": {"rt": -1000, "stimulus": "/static/audio/wordpool/TRANSPLANT.wav", "key_press": -1, "type": "PRES_AUD", "word": "transplant", "wordID": 1495, "conditions": [24, 1600, "a", 24000], "trial": 2, "serialpos": 21, "trial_type": "single-audio", "trial_index": 110, "time_elapsed": 3081468, "internal_node_id": "0.0-83.0"}}, {"uniqueid": "MTK0593:3HYA4D452SQ29I3GR3M3IQ0O3J7F2J", "current_trial": 111, "dateTime": 1511559857630, "trialdata": {"rt": -1000, "stimulus": "/static/audio/wordpool/KIDNEY.wav", "key_press": -1, "type": "PRES_AUD", "word": "kidney", "wordID": 775, "conditions": [24, 1600, "a", 24000], "trial": 2, "serialpos": 22, "trial_type": "single-audio", "trial_index": 111, "time_elapsed": 3084074, "internal_node_id": "0.0-84.0"}}, {"uniqueid": "MTK0593:3HYA4D452SQ29I3GR3M3IQ0O3J7F2J", "current_trial": 112, "dateTime": 1511559860058, "trialdata": {"rt": -1000, "stimulus": "/static/audio/wordpool/SCARF.wav", "key_press": -1, "type": "PRES_AUD", "word": "scarf", "wordID": 1245, "conditions": [24, 1600, "a", 24000], "trial": 2, "serialpos": 23, "trial_type": "single-audio", "trial_index": 112, "time_elapsed": 3086502, "internal_node_id": "0.0-85.0"}}, {"uniqueid": "MTK0593:3HYA4D452SQ29I3GR3M3IQ0O3J7F2J", "current_trial": 113, "dateTime": 1511559861341, "trialdata": {"rt": -1, "stimulus": "", "key_press": -1, "type": "PRE_RECALL_DELAY", "trial_type": "single-stim", "trial_index": 113, "time_elapsed": 3087785, "internal_node_id": "0.0-86.0-0.0"}}, {"uniqueid": "MTK0593:3HYA4D452SQ29I3GR3M3IQ0O3J7F2J", "current_trial": 114, "dateTime": 1511559861844, "trialdata": {"rt": -1000, "stimulus": "/static/audio/400Hz.wav", "key_press": -1, "type": "PRE_RECALL_ALERT", "trial_type": "single-audio", "trial_index": 114, "time_elapsed": 3088288, "internal_node_id": "0.0-87.0"}}, {"uniqueid": "MTK0593:3HYA4D452SQ29I3GR3M3IQ0O3J7F2J", "current_trial": 115, "dateTime": 1511559921850, "trialdata": {"rt": [3468, 4860, 6372, 8179, 10708, 11955, 13596, 23723, 25291, 33619], "recwords": ["church", "lagoon", "kidney", "scarf", "banquet", "dinner", "spoon", "pocket", "crevice", "gravy"], "type": "FREE_RECALL", "conditions": [24, 1600, "a", 24000], "trial": 2, "trial_type": "free-recall", "trial_index": 115, "time_elapsed": 3148291, "internal_node_id": "0.0-88.0-0.0"}}, {"uniqueid": "MTK0593:3HYA4D452SQ29I3GR3M3IQ0O3J7F2J", "current_trial": 116, "dateTime": 1511559925497, "trialdata": {"rt": 1645, "key_press": 32, "type": "INSTRUCTIONS", "trial_type": "text", "trial_index": 116, "time_elapsed": 3151941, "internal_node_id": "0.0-89.0"}}, {"uniqueid": "MTK0593:3HYA4D452SQ29I3GR3M3IQ0O3J7F2J", "current_trial": 117, "dateTime": 1511559939499, "trialdata": {"rt": [2438, 4310, 5718, 7710, 9549, 11134], "responses": ["9", "14", "12", "13", "17", "16"], "num1": [2, 3, 4, 2, 5, 6, 6], "num2": [2, 9, 7, 4, 8, 2, 2], "num3": [5, 2, 1, 7, 4, 8, 2], "type": "DISTRACTOR", "conditions": [12, 1600, "v", 12000], "trial": 3, "trial_type": "math-distractor", "trial_index": 117, "time_elapsed": 3165943, "internal_node_id": "0.0-90.0"}}, {"uniqueid": "MTK0593:3HYA4D452SQ29I3GR3M3IQ0O3J7F2J", "current_trial": 118, "dateTime": 1511559942501, "trialdata": {"rt": -1, "stimulus": "<p id=\"stim\">10</p>", "key_press": -1, "trial_type": "single-stim", "trial_index": 118, "time_elapsed": 3168945, "internal_node_id": "0.0-91.0-0.0"}}, {"uniqueid": "MTK0593:3HYA4D452SQ29I3GR3M3IQ0O3J7F2J", "current_trial": 119, "dateTime": 1511559943503, "trialdata": {"rt": -1, "stimulus": "<p id=\"stim\">9</p>", "key_press": -1, "trial_type": "single-stim", "trial_index": 119, "time_elapsed": 3169947, "internal_node_id": "0.0-91.0-1.0"}}, {"uniqueid": "MTK0593:3HYA4D452SQ29I3GR3M3IQ0O3J7F2J", "current_trial": 120, "dateTime": 1511559944505, "trialdata": {"rt": -1, "stimulus": "<p id=\"stim\">8</p>", "key_press": -1, "trial_type": "single-stim", "trial_index": 120, "time_elapsed": 3170949, "internal_node_id": "0.0-91.0-2.0"}}, {"uniqueid": "MTK0593:3HYA4D452SQ29I3GR3M3IQ0O3J7F2J", "current_trial": 121, "dateTime": 1511559945505, "trialdata": {"rt": -1, "stimulus": "<p id=\"stim\">7</p>", "key_press": -1, "trial_type": "single-stim", "trial_index": 121, "time_elapsed": 3171949, "internal_node_id": "0.0-91.0-3.0"}}, {"uniqueid": "MTK0593:3HYA4D452SQ29I3GR3M3IQ0O3J7F2J", "current_trial": 122, "dateTime": 1511559946507, "trialdata": {"rt": -1, "stimulus": "<p id=\"stim\">6</p>", "key_press": -1, "trial_type": "single-stim", "trial_index": 122, "time_elapsed": 3172951, "internal_node_id": "0.0-91.0-4.0"}}, {"uniqueid": "MTK0593:3HYA4D452SQ29I3GR3M3IQ0O3J7F2J", "current_trial": 123, "dateTime": 1511559947508, "trialdata": {"rt": -1, "stimulus": "<p id=\"stim\">5</p>", "key_press": -1, "trial_type": "single-stim", "trial_index": 123, "time_elapsed": 3173952, "internal_node_id": "0.0-91.0-5.0"}}, {"uniqueid": "MTK0593:3HYA4D452SQ29I3GR3M3IQ0O3J7F2J", "current_trial": 124, "dateTime": 1511559948509, "trialdata": {"rt": -1, "stimulus": "<p id=\"stim\">4</p>", "key_press": -1, "trial_type": "single-stim", "trial_index": 124, "time_elapsed": 3174953, "internal_node_id": "0.0-91.0-6.0"}}, {"uniqueid": "MTK0593:3HYA4D452SQ29I3GR3M3IQ0O3J7F2J", "current_trial": 125, "dateTime": 1511559949511, "trialdata": {"rt": -1, "stimulus": "<p id=\"stim\">3</p>", "key_press": -1, "trial_type": "single-stim", "trial_index": 125, "time_elapsed": 3175955, "internal_node_id": "0.0-91.0-7.0"}}, {"uniqueid": "MTK0593:3HYA4D452SQ29I3GR3M3IQ0O3J7F2J", "current_trial": 126, "dateTime": 1511559950512, "trialdata": {"rt": -1, "stimulus": "<p id=\"stim\">2</p>", "key_press": -1, "trial_type": "single-stim", "trial_index": 126, "time_elapsed": 3176956, "internal_node_id": "0.0-91.0-8.0"}}, {"uniqueid": "MTK0593:3HYA4D452SQ29I3GR3M3IQ0O3J7F2J", "current_trial": 127, "dateTime": 1511559951514, "trialdata": {"rt": -1, "stimulus": "<p id=\"stim\">1</p>", "key_press": -1, "trial_type": "single-stim", "trial_index": 127, "time_elapsed": 3177958, "internal_node_id": "0.0-91.0-9.0"}}, {"uniqueid": "MTK0593:3HYA4D452SQ29I3GR3M3IQ0O3J7F2J", "current_trial": 128, "dateTime": 1511559953015, "trialdata": {"rt": -1, "stimulus": "<p id=\"stim\">+</p>", "key_press": -1, "type": "FIXATION", "trial_type": "single-stim", "trial_index": 128, "time_elapsed": 3179459, "internal_node_id": "0.0-92.0-0.0"}}, {"uniqueid": "MTK0593:3HYA4D452SQ29I3GR3M3IQ0O3J7F2J", "current_trial": 129, "dateTime": 1511559954616, "trialdata": {"rt": -1, "stimulus": "<p id=\"stim\">PARSLEY</p>", "key_press": -1, "type": "PRES_VIS", "word": "parsley", "wordID": 1015, "conditions": [12, 1600, "v", 12000], "trial": 3, "serialpos": 0, "trial_type": "single-stim", "trial_index": 129, "time_elapsed": 3181060, "internal_node_id": "0.0-93.0"}}, {"uniqueid": "MTK0593:3HYA4D452SQ29I3GR3M3IQ0O3J7F2J", "current_trial": 130, "dateTime": 1511559957229, "trialdata": {"rt": -1, "stimulus": "<p id=\"stim\">FLASHLIGHT</p>", "key_press": -1, "type": "PRES_VIS", "word": "flashlight", "wordID": 574, "conditions": [12, 1600, "v", 12000], "trial": 3, "serialpos": 1, "trial_type": "single-stim", "trial_index": 130, "time_elapsed": 3183673, "internal_node_id": "0.0-94.0"}}, {"uniqueid": "MTK0593:3HYA4D452SQ29I3GR3M3IQ0O3J7F2J", "current_trial": 131, "dateTime": 1511559959659, "trialdata": {"rt": -1, "stimulus": "<p id=\"stim\">FUNGUS</p>", "key_press": -1, "type": "PRES_VIS", "word": "fungus", "wordID": 613, "conditions": [12, 1600, "v", 12000], "trial": 3, "serialpos": 2, "trial_type": "single-stim", "trial_index": 131, "time_elapsed": 3186103, "internal_node_id": "0.0-95.0"}}, {"uniqueid": "MTK0593:3HYA4D452SQ29I3GR3M3IQ0O3J7F2J", "current_trial": 132, "dateTime": 1511559962330, "trialdata": {"rt": -1, "stimulus": "<p id=\"stim\">WASP</p>", "key_press": -1, "type": "PRES_VIS", "word": "wasp", "wordID": 1592, "conditions": [12, 1600, "v", 12000], "trial": 3, "serialpos": 3, "trial_type": "single-stim", "trial_index": 132, "time_elapsed": 3188774, "internal_node_id": "0.0-96.0"}}, {"uniqueid": "MTK0593:3HYA4D452SQ29I3GR3M3IQ0O3J7F2J", "current_trial": 133, "dateTime": 1511559964964, "trialdata": {"rt": -1, "stimulus": "<p id=\"stim\">OZONE</p>", "key_press": -1, "type": "PRES_VIS", "word": "ozone", "wordID": 995, "conditions": [12, 1600, "v", 12000], "trial": 3, "serialpos": 4, "trial_type": "single-stim", "trial_index": 133, "time_elapsed": 3191408, "internal_node_id": "0.0-97.0"}}, {"uniqueid": "MTK0593:3HYA4D452SQ29I3GR3M3IQ0O3J7F2J", "current_trial": 134, "dateTime": 1511559967535, "trialdata": {"rt": -1, "stimulus": "<p id=\"stim\">BINDER</p>", "key_press": -1, "type": "PRES_VIS", "word": "binder", "wordID": 126, "conditions": [12, 1600, "v", 12000], "trial": 3, "serialpos": 5, "trial_type": "single-stim", "trial_index": 134, "time_elapsed": 3193979, "internal_node_id": "0.0-98.0"}}, {"uniqueid": "MTK0593:3HYA4D452SQ29I3GR3M3IQ0O3J7F2J", "current_trial": 135, "dateTime": 1511559969993, "trialdata": {"rt": -1, "stimulus": "<p id=\"stim\">TROUT</p>", "key_press": -1, "type": "PRES_VIS", "word": "trout", "wordID": 1510, "conditions": [12, 1600, "v", 12000], "trial": 3, "serialpos": 6, "trial_type": "single-stim", "trial_index": 135, "time_elapsed": 3196437, "internal_node_id": "0.0-99.0"}}, {"uniqueid": "MTK0593:3HYA4D452SQ29I3GR3M3IQ0O3J7F2J", "current_trial": 136, "dateTime": 1511559972398, "trialdata": {"rt": -1, "stimulus": "<p id=\"stim\">LAMP</p>", "key_press": -1, "type": "PRES_VIS", "word": "lamp", "wordID": 797, "conditions": [12, 1600, "v", 12000], "trial": 3, "serialpos": 7, "trial_type": "single-stim", "trial_index": 136, "time_elapsed": 3198842, "internal_node_id": "0.0-100.0"}}, {"uniqueid": "MTK0593:3HYA4D452SQ29I3GR3M3IQ0O3J7F2J", "current_trial": 137, "dateTime": 1511559975175, "trialdata": {"rt": -1, "stimulus": "<p id=\"stim\">SHELF</p>", "key_press": -1, "type": "PRES_VIS", "word": "shelf", "wordID": 1279, "conditions": [12, 1600, "v", 12000], "trial": 3, "serialpos": 8, "trial_type": "single-stim", "trial_index": 137, "time_elapsed": 3201619, "internal_node_id": "0.0-101.0"}}, {"uniqueid": "MTK0593:3HYA4D452SQ29I3GR3M3IQ0O3J7F2J", "current_trial": 138, "dateTime": 1511559977579, "trialdata": {"rt": -1, "stimulus": "<p id=\"stim\">WIDOW</p>", "key_press": -1, "type": "PRES_VIS", "word": "widow", "wordID": 1607, "conditions": [12, 1600, "v", 12000], "trial": 3, "serialpos": 9, "trial_type": "single-stim", "trial_index": 138, "time_elapsed": 3204023, "internal_node_id": "0.0-102.0"}}, {"uniqueid": "MTK0593:3HYA4D452SQ29I3GR3M3IQ0O3J7F2J", "current_trial": 139, "dateTime": 1511559980180, "trialdata": {"rt": -1, "stimulus": "<p id=\"stim\">FLUTE</p>", "key_press": -1, "type": "PRES_VIS", "word": "flute", "wordID": 584, "conditions": [12, 1600, "v", 12000], "trial": 3, "serialpos": 10, "trial_type": "single-stim", "trial_index": 139, "time_elapsed": 3206624, "internal_node_id": "0.0-103.0"}}, {"uniqueid": "MTK0593:3HYA4D452SQ29I3GR3M3IQ0O3J7F2J", "current_trial": 140, "dateTime": 1511559982829, "trialdata": {"rt": -1, "stimulus": "<p id=\"stim\">SMOG</p>", "key_press": -1, "type": "PRES_VIS", "word": "smog", "wordID": 1329, "conditions": [12, 1600, "v", 12000], "trial": 3, "serialpos": 11, "trial_type": "single-stim", "trial_index": 140, "time_elapsed": 3209273, "internal_node_id": "0.0-104.0"}}, {"uniqueid": "MTK0593:3HYA4D452SQ29I3GR3M3IQ0O3J7F2J", "current_trial": 141, "dateTime": 1511559985115, "trialdata": {"rt": -1, "stimulus": "", "key_press": -1, "type": "PRE_RECALL_DELAY", "trial_type": "single-stim", "trial_index": 141, "time_elapsed": 3211559, "internal_node_id": "0.0-105.0-0.0"}}, {"uniqueid": "MTK0593:3HYA4D452SQ29I3GR3M3IQ0O3J7F2J", "current_trial": 142, "dateTime": 1511559985620, "trialdata": {"rt": -1000, "stimulus": "/static/audio/400Hz.wav", "key_press": -1, "type": "PRE_RECALL_ALERT", "trial_type": "single-audio", "trial_index": 142, "time_elapsed": 3212063, "internal_node_id": "0.0-106.0"}}, {"uniqueid": "MTK0593:3HYA4D452SQ29I3GR3M3IQ0O3J7F2J", "current_trial": 143, "dateTime": 1511560045632, "trialdata": {"rt": [4316, 6523, 8131, 9763, 11515, 13107, 22107], "recwords": ["parsley", "fungus", "trout", "wasp", "lamp", "shelf", "ozone"], "type": "FREE_RECALL", "conditions": [12, 1600, "v", 12000], "trial": 3, "trial_type": "free-recall", "trial_index": 143, "time_elapsed": 3272075, "internal_node_id": "0.0-107.0-0.0"}}, {"uniqueid": "MTK0593:3HYA4D452SQ29I3GR3M3IQ0O3J7F2J", "current_trial": 144, "dateTime": 1511560050415, "trialdata": {"rt": 2782, "key_press": 32, "type": "INSTRUCTIONS", "trial_type": "text", "trial_index": 144, "time_elapsed": 3276859, "internal_node_id": "0.0-108.0"}}, {"uniqueid": "MTK0593:3HYA4D452SQ29I3GR3M3IQ0O3J7F2J", "current_trial": 145, "dateTime": 1511560064418, "trialdata": {"rt": [3645, 5140, 6428, 7981, 9651, 11899], "responses": ["18", "14", "12", "11", "10", "26"], "num1": [2, 8, 4, 6, 5, 9, 8], "num2": [9, 2, 4, 1, 1, 8, 6], "num3": [7, 4, 4, 4, 4, 9, 1], "type": "DISTRACTOR", "conditions": [24, 1600, "v", 12000], "trial": 4, "trial_type": "math-distractor", "trial_index": 145, "time_elapsed": 3290862, "internal_node_id": "0.0-109.0"}}, {"uniqueid": "MTK0593:3HYA4D452SQ29I3GR3M3IQ0O3J7F2J", "current_trial": 146, "dateTime": 1511560067420, "trialdata": {"rt": -1, "stimulus": "<p id=\"stim\">10</p>", "key_press": -1, "trial_type": "single-stim", "trial_index": 146, "time_elapsed": 3293864, "internal_node_id": "0.0-110.0-0.0"}}, {"uniqueid": "MTK0593:3HYA4D452SQ29I3GR3M3IQ0O3J7F2J", "current_trial": 147, "dateTime": 1511560068422, "trialdata": {"rt": -1, "stimulus": "<p id=\"stim\">9</p>", "key_press": -1, "trial_type": "single-stim", "trial_index": 147, "time_elapsed": 3294866, "internal_node_id": "0.0-110.0-1.0"}}, {"uniqueid": "MTK0593:3HYA4D452SQ29I3GR3M3IQ0O3J7F2J", "current_trial": 148, "dateTime": 1511560069424, "trialdata": {"rt": -1, "stimulus": "<p id=\"stim\">8</p>", "key_press": -1, "trial_type": "single-stim", "trial_index": 148, "time_elapsed": 3295868, "internal_node_id": "0.0-110.0-2.0"}}, {"uniqueid": "MTK0593:3HYA4D452SQ29I3GR3M3IQ0O3J7F2J", "current_trial": 149, "dateTime": 1511560070425, "trialdata": {"rt": -1, "stimulus": "<p id=\"stim\">7</p>", "key_press": -1, "trial_type": "single-stim", "trial_index": 149, "time_elapsed": 3296869, "internal_node_id": "0.0-110.0-3.0"}}, {"uniqueid": "MTK0593:3HYA4D452SQ29I3GR3M3IQ0O3J7F2J", "current_trial": 150, "dateTime": 1511560071427, "trialdata": {"rt": -1, "stimulus": "<p id=\"stim\">6</p>", "key_press": -1, "trial_type": "single-stim", "trial_index": 150, "time_elapsed": 3297871, "internal_node_id": "0.0-110.0-4.0"}}, {"uniqueid": "MTK0593:3HYA4D452SQ29I3GR3M3IQ0O3J7F2J", "current_trial": 151, "dateTime": 1511560072428, "trialdata": {"rt": -1, "stimulus": "<p id=\"stim\">5</p>", "key_press": -1, "trial_type": "single-stim", "trial_index": 151, "time_elapsed": 3298872, "internal_node_id": "0.0-110.0-5.0"}}, {"uniqueid": "MTK0593:3HYA4D452SQ29I3GR3M3IQ0O3J7F2J", "current_trial": 152, "dateTime": 1511560073438, "trialdata": {"rt": -1, "stimulus": "<p id=\"stim\">4</p>", "key_press": -1, "trial_type": "single-stim", "trial_index": 152, "time_elapsed": 3299882, "internal_node_id": "0.0-110.0-6.0"}}, {"uniqueid": "MTK0593:3HYA4D452SQ29I3GR3M3IQ0O3J7F2J", "current_trial": 153, "dateTime": 1511560074440, "trialdata": {"rt": -1, "stimulus": "<p id=\"stim\">3</p>", "key_press": -1, "trial_type": "single-stim", "trial_index": 153, "time_elapsed": 3300883, "internal_node_id": "0.0-110.0-7.0"}}, {"uniqueid": "MTK0593:3HYA4D452SQ29I3GR3M3IQ0O3J7F2J", "current_trial": 154, "dateTime": 1511560075441, "trialdata": {"rt": -1, "stimulus": "<p id=\"stim\">2</p>", "key_press": -1, "trial_type": "single-stim", "trial_index": 154, "time_elapsed": 3301885, "internal_node_id": "0.0-110.0-8.0"}}, {"uniqueid": "MTK0593:3HYA4D452SQ29I3GR3M3IQ0O3J7F2J", "current_trial": 155, "dateTime": 1511560076442, "trialdata": {"rt": -1, "stimulus": "<p id=\"stim\">1</p>", "key_press": -1, "trial_type": "single-stim", "trial_index": 155, "time_elapsed": 3302886, "internal_node_id": "0.0-110.0-9.0"}}, {"uniqueid": "MTK0593:3HYA4D452SQ29I3GR3M3IQ0O3J7F2J", "current_trial": 156, "dateTime": 1511560077944, "trialdata": {"rt": -1, "stimulus": "<p id=\"stim\">+</p>", "key_press": -1, "type": "FIXATION", "trial_type": "single-stim", "trial_index": 156, "time_elapsed": 3304388, "internal_node_id": "0.0-111.0-0.0"}}, {"uniqueid": "MTK0593:3HYA4D452SQ29I3GR3M3IQ0O3J7F2J", "current_trial": 157, "dateTime": 1511560079545, "trialdata": {"rt": -1, "stimulus": "<p id=\"stim\">XEROX</p>", "key_press": -1, "type": "PRES_VIS", "word": "xerox", "wordID": 1627, "conditions": [24, 1600, "v", 12000], "trial": 4, "serialpos": 0, "trial_type": "single-stim", "trial_index": 157, "time_elapsed": 3305989, "internal_node_id": "0.0-112.0"}}, {"uniqueid": "MTK0593:3HYA4D452SQ29I3GR3M3IQ0O3J7F2J", "current_trial": 158, "dateTime": 1511560082100, "trialdata": {"rt": -1, "stimulus": "<p id=\"stim\">EUROPE</p>", "key_press": -1, "type": "PRES_VIS", "word": "europe", "wordID": 540, "conditions": [24, 1600, "v", 12000], "trial": 4, "serialpos": 1, "trial_type": "single-stim", "trial_index": 158, "time_elapsed": 3308544, "internal_node_id": "0.0-113.0"}}, {"uniqueid": "MTK0593:3HYA4D452SQ29I3GR3M3IQ0O3J7F2J", "current_trial": 159, "dateTime": 1511560084535, "trialdata": {"rt": -1, "stimulus": "<p id=\"stim\">IGLOO</p>", "key_press": -1, "type": "PRES_VIS", "word": "igloo", "wordID": 733, "conditions": [24, 1600, "v", 12000], "trial": 4, "serialpos": 2, "trial_type": "single-stim", "trial_index": 159, "time_elapsed": 3310979, "internal_node_id": "0.0-114.0"}}, {"uniqueid": "MTK0593:3HYA4D452SQ29I3GR3M3IQ0O3J7F2J", "current_trial": 160, "dateTime": 1511560087103, "trialdata": {"rt": -1, "stimulus": "<p id=\"stim\">JURY</p>", "key_press": -1, "type": "PRES_VIS", "word": "jury", "wordID": 765, "conditions": [24, 1600, "v", 12000], "trial": 4, "serialpos": 3, "trial_type": "single-stim", "trial_index": 160, "time_elapsed": 3313547, "internal_node_id": "0.0-115.0"}}, {"uniqueid": "MTK0593:3HYA4D452SQ29I3GR3M3IQ0O3J7F2J", "current_trial": 161, "dateTime": 1511560089795, "trialdata": {"rt": -1, "stimulus": "<p id=\"stim\">JUDGE</p>", "key_press": -1, "type": "PRES_VIS", "word": "judge", "wordID": 760, "conditions": [24, 1600, "v", 12000], "trial": 4, "serialpos": 4, "trial_type": "single-stim", "trial_index": 161, "time_elapsed": 3316239, "internal_node_id": "0.0-116.0"}}, {"uniqueid": "MTK0593:3HYA4D452SQ29I3GR3M3IQ0O3J7F2J", "current_trial": 162, "dateTime": 1511560092520, "trialdata": {"rt": -1, "stimulus": "<p id=\"stim\">TUNNEL</p>", "key_press": -1, "type": "PRES_VIS", "word": "tunnel", "wordID": 1518, "conditions": [24, 1600, "v", 12000], "trial": 4, "serialpos": 5, "trial_type": "single-stim", "trial_index": 162, "time_elapsed": 3318964, "internal_node_id": "0.0-117.0"}}, {"uniqueid": "MTK0593:3HYA4D452SQ29I3GR3M3IQ0O3J7F2J", "current_trial": 163, "dateTime": 1511560095018, "trialdata": {"rt": -1, "stimulus": "<p id=\"stim\">LONDON</p>", "key_press": -1, "type": "PRES_VIS", "word": "london", "wordID": 842, "conditions": [24, 1600, "v", 12000], "trial": 4, "serialpos": 6, "trial_type": "single-stim", "trial_index": 163, "time_elapsed": 3321462, "internal_node_id": "0.0-118.0"}}, {"uniqueid": "MTK0593:3HYA4D452SQ29I3GR3M3IQ0O3J7F2J", "current_trial": 164, "dateTime": 1511560097810, "trialdata": {"rt": -1, "stimulus": "<p id=\"stim\">PASTRY</p>", "key_press": -1, "type": "PRES_VIS", "word": "pastry", "wordID": 1021, "conditions": [24, 1600, "v", 12000], "trial": 4, "serialpos": 7, "trial_type": "single-stim", "trial_index": 164, "time_elapsed": 3324254, "internal_node_id": "0.0-119.0"}}, {"uniqueid": "MTK0593:3HYA4D452SQ29I3GR3M3IQ0O3J7F2J", "current_trial": 165, "dateTime": 1511560100245, "trialdata": {"rt": -1, "stimulus": "<p id=\"stim\">YACHT</p>", "key_press": -1, "type": "PRES_VIS", "word": "yacht", "wordID": 1628, "conditions": [24, 1600, "v", 12000], "trial": 4, "serialpos": 8, "trial_type": "single-stim", "trial_index": 165, "time_elapsed": 3326689, "internal_node_id": "0.0-120.0"}}, {"uniqueid": "MTK0593:3HYA4D452SQ29I3GR3M3IQ0O3J7F2J", "current_trial": 166, "dateTime": 1511560102917, "trialdata": {"rt": -1, "stimulus": "<p id=\"stim\">PATIENT</p>", "key_press": -1, "type": "PRES_VIS", "word": "patient", "wordID": 1023, "conditions": [24, 1600, "v", 12000], "trial": 4, "serialpos": 9, "trial_type": "single-stim", "trial_index": 166, "time_elapsed": 3329361, "internal_node_id": "0.0-121.0"}}, {"uniqueid": "MTK0593:3HYA4D452SQ29I3GR3M3IQ0O3J7F2J", "current_trial": 167, "dateTime": 1511560105606, "trialdata": {"rt": -1, "stimulus": "<p id=\"stim\">DRIVER</p>", "key_press": -1, "type": "PRES_VIS", "word": "driver", "wordID": 498, "conditions": [24, 1600, "v", 12000], "trial": 4, "serialpos": 10, "trial_type": "single-stim", "trial_index": 167, "time_elapsed": 3332050, "internal_node_id": "0.0-122.0"}}, {"uniqueid": "MTK0593:3HYA4D452SQ29I3GR3M3IQ0O3J7F2J", "current_trial": 168, "dateTime": 1511560108053, "trialdata": {"rt": -1, "stimulus": "<p id=\"stim\">FARMER</p>", "key_press": -1, "type": "PRES_VIS", "word": "farmer", "wordID": 552, "conditions": [24, 1600, "v", 12000], "trial": 4, "serialpos": 11, "trial_type": "single-stim", "trial_index": 168, "time_elapsed": 3334497, "internal_node_id": "0.0-123.0"}}, {"uniqueid": "MTK0593:3HYA4D452SQ29I3GR3M3IQ0O3J7F2J", "current_trial": 169, "dateTime": 1511560110486, "trialdata": {"rt": -1, "stimulus": "<p id=\"stim\">CAPTIVE</p>", "key_press": -1, "type": "PRES_VIS", "word": "captive", "wordID": 239, "conditions": [24, 1600, "v", 12000], "trial": 4, "serialpos": 12, "trial_type": "single-stim", "trial_index": 169, "time_elapsed": 3336930, "internal_node_id": "0.0-124.0"}}, {"uniqueid": "MTK0593:3HYA4D452SQ29I3GR3M3IQ0O3J7F2J", "current_trial": 170, "dateTime": 1511560113192, "trialdata": {"rt": -1, "stimulus": "<p id=\"stim\">CRAYON</p>", "key_press": -1, "type": "PRES_VIS", "word": "crayon", "wordID": 400, "conditions": [24, 1600, "v", 12000], "trial": 4, "serialpos": 13, "trial_type": "single-stim", "trial_index": 170, "time_elapsed": 3339636, "internal_node_id": "0.0-125.0"}}, {"uniqueid": "MTK0593:3HYA4D452SQ29I3GR3M3IQ0O3J7F2J", "current_trial": 171, "dateTime": 1511560115903, "trialdata": {"rt": -1, "stimulus": "<p id=\"stim\">BOX</p>", "key_press": -1, "type": "PRES_VIS", "word": "box", "wordID": 158, "conditions": [24, 1600, "v", 12000], "trial": 4, "serialpos": 14, "trial_type": "single-stim", "trial_index": 171, "time_elapsed": 3342347, "internal_node_id": "0.0-126.0"}}, {"uniqueid": "MTK0593:3HYA4D452SQ29I3GR3M3IQ0O3J7F2J", "current_trial": 172, "dateTime": 1511560118347, "trialdata": {"rt": -1, "stimulus": "<p id=\"stim\">RABBIT</p>", "key_press": -1, "type": "PRES_VIS", "word": "rabbit", "wordID": 1151, "conditions": [24, 1600, "v", 12000], "trial": 4, "serialpos": 15, "trial_type": "single-stim", "trial_index": 172, "time_elapsed": 3344791, "internal_node_id": "0.0-127.0"}}, {"uniqueid": "MTK0593:3HYA4D452SQ29I3GR3M3IQ0O3J7F2J", "current_trial": 173, "dateTime": 1511560121026, "trialdata": {"rt": -1, "stimulus": "<p id=\"stim\">CREATURE</p>", "key_press": -1, "type": "PRES_VIS", "word": "creature", "wordID": 402, "conditions": [24, 1600, "v", 12000], "trial": 4, "serialpos": 16, "trial_type": "single-stim", "trial_index": 173, "time_elapsed": 3347470, "internal_node_id": "0.0-128.0"}}, {"uniqueid": "MTK0593:3HYA4D452SQ29I3GR3M3IQ0O3J7F2J", "current_trial": 174, "dateTime": 1511560123819, "trialdata": {"rt": -1, "stimulus": "<p id=\"stim\">TROMBONE</p>", "key_press": -1, "type": "PRES_VIS", "word": "trombone", "wordID": 1507, "conditions": [24, 1600, "v", 12000], "trial": 4, "serialpos": 17, "trial_type": "single-stim", "trial_index": 174, "time_elapsed": 3350263, "internal_node_id": "0.0-129.0"}}, {"uniqueid": "MTK0593:3HYA4D452SQ29I3GR3M3IQ0O3J7F2J", "current_trial": 175, "dateTime": 1511560126523, "trialdata": {"rt": -1, "stimulus": "<p id=\"stim\">CLAM</p>", "key_press": -1, "type": "PRES_VIS", "word": "clam", "wordID": 314, "conditions": [24, 1600, "v", 12000], "trial": 4, "serialpos": 18, "trial_type": "single-stim", "trial_index": 175, "time_elapsed": 3352967, "internal_node_id": "0.0-130.0"}}, {"uniqueid": "MTK0593:3HYA4D452SQ29I3GR3M3IQ0O3J7F2J", "current_trial": 176, "dateTime": 1511560129164, "trialdata": {"rt": -1, "stimulus": "<p id=\"stim\">SODA</p>", "key_press": -1, "type": "PRES_VIS", "word": "soda", "wordID": 1340, "conditions": [24, 1600, "v", 12000], "trial": 4, "serialpos": 19, "trial_type": "single-stim", "trial_index": 176, "time_elapsed": 3355608, "internal_node_id": "0.0-131.0"}}, {"uniqueid": "MTK0593:3HYA4D452SQ29I3GR3M3IQ0O3J7F2J", "current_trial": 177, "dateTime": 1511560131730, "trialdata": {"rt": -1, "stimulus": "<p id=\"stim\">PIGEON</p>", "key_press": -1, "type": "PRES_VIS", "word": "pigeon", "wordID": 1064, "conditions": [24, 1600, "v", 12000], "trial": 4, "serialpos": 20, "trial_type": "single-stim", "trial_index": 177, "time_elapsed": 3358174, "internal_node_id": "0.0-132.0"}}, {"uniqueid": "MTK0593:3HYA4D452SQ29I3GR3M3IQ0O3J7F2J", "current_trial": 178, "dateTime": 1511560134300, "trialdata": {"rt": -1, "stimulus": "<p id=\"stim\">PUDDING</p>", "key_press": -1, "type": "PRES_VIS", "word": "pudding", "wordID": 1138, "conditions": [24, 1600, "v", 12000], "trial": 4, "serialpos": 21, "trial_type": "single-stim", "trial_index": 178, "time_elapsed": 3360744, "internal_node_id": "0.0-133.0"}}, {"uniqueid": "MTK0593:3HYA4D452SQ29I3GR3M3IQ0O3J7F2J", "current_trial": 179, "dateTime": 1511560136958, "trialdata": {"rt": -1, "stimulus": "<p id=\"stim\">SUSPECT</p>", "key_press": -1, "type": "PRES_VIS", "word": "suspect", "wordID": 1414, "conditions": [24, 1600, "v", 12000], "trial": 4, "serialpos": 22, "trial_type": "single-stim", "trial_index": 179, "time_elapsed": 3363402, "internal_node_id": "0.0-134.0"}}, {"uniqueid": "MTK0593:3HYA4D452SQ29I3GR3M3IQ0O3J7F2J", "current_trial": 180, "dateTime": 1511560139677, "trialdata": {"rt": -1, "stimulus": "<p id=\"stim\">ROBBER</p>", "key_press": -1, "type": "PRES_VIS", "word": "robber", "wordID": 1196, "conditions": [24, 1600, "v", 12000], "trial": 4, "serialpos": 23, "trial_type": "single-stim", "trial_index": 180, "time_elapsed": 3366121, "internal_node_id": "0.0-135.0"}}, {"uniqueid": "MTK0593:3HYA4D452SQ29I3GR3M3IQ0O3J7F2J", "current_trial": 181, "dateTime": 1511560141901, "trialdata": {"rt": -1, "stimulus": "", "key_press": -1, "type": "PRE_RECALL_DELAY", "trial_type": "single-stim", "trial_index": 181, "time_elapsed": 3368345, "internal_node_id": "0.0-136.0-0.0"}}, {"uniqueid": "MTK0593:3HYA4D452SQ29I3GR3M3IQ0O3J7F2J", "current_trial": 182, "dateTime": 1511560142408, "trialdata": {"rt": -1000, "stimulus": "/static/audio/400Hz.wav", "key_press": -1, "type": "PRE_RECALL_ALERT", "trial_type": "single-audio", "trial_index": 182, "time_elapsed": 3368852, "internal_node_id": "0.0-137.0"}}, {"uniqueid": "MTK0593:3HYA4D452SQ29I3GR3M3IQ0O3J7F2J", "current_trial": 183, "dateTime": 1511560202415, "trialdata": {"rt": [2579, 3756, 5036, 6203, 8339, 9779, 11555, 13180, 20852, 22699, 23884, 53620], "recwords": ["suspect", "robber", "judge", "jury", "xerox", "london", "tunnel", "box", "yacht", "driver", "farmer", "europe"], "type": "FREE_RECALL", "conditions": [24, 1600, "v", 12000], "trial": 4, "trial_type": "free-recall", "trial_index": 183, "time_elapsed": 3428855, "internal_node_id": "0.0-138.0-0.0"}}, {"uniqueid": "MTK0593:3HYA4D452SQ29I3GR3M3IQ0O3J7F2J", "current_trial": 184, "dateTime": 1511560205205, "trialdata": {"rt": 789, "key_press": 32, "type": "INSTRUCTIONS", "trial_type": "text", "trial_index": 184, "time_elapsed": 3431649, "internal_node_id": "0.0-139.0"}}, {"uniqueid": "MTK0593:3HYA4D452SQ29I3GR3M3IQ0O3J7F2J", "current_trial": 185, "dateTime": 1511560219209, "trialdata": {"rt": [1764, 5477, 6845, 8902, 10461], "responses": ["8", "7", "14", "22", "11"], "num1": [4, 2, 4, 5, 3, 5], "num2": [2, 3, 4, 8, 1, 2], "num3": [2, 2, 6, 9, 7, 8], "type": "DISTRACTOR", "conditions": [12, 1600, "a", 12000], "trial": 5, "trial_type": "math-distractor", "trial_index": 185, "time_elapsed": 3445653, "internal_node_id": "0.0-140.0"}}, {"uniqueid": "MTK0593:3HYA4D452SQ29I3GR3M3IQ0O3J7F2J", "current_trial": 186, "dateTime": 1511560222212, "trialdata": {"rt": -1, "stimulus": "<p id=\"stim\">10</p>", "key_press": -1, "trial_type": "single-stim", "trial_index": 186, "time_elapsed": 3448656, "internal_node_id": "0.0-141.0-0.0"}}, {"uniqueid": "MTK0593:3HYA4D452SQ29I3GR3M3IQ0O3J7F2J", "current_trial": 187, "dateTime": 1511560223214, "trialdata": {"rt": -1, "stimulus": "<p id=\"stim\">9</p>", "key_press": -1, "trial_type": "single-stim", "trial_index": 187, "time_elapsed": 3449658, "internal_node_id": "0.0-141.0-1.0"}}, {"uniqueid": "MTK0593:3HYA4D452SQ29I3GR3M3IQ0O3J7F2J", "current_trial": 188, "dateTime": 1511560224216, "trialdata": {"rt": -1, "stimulus": "<p id=\"stim\">8</p>", "key_press": -1, "trial_type": "single-stim", "trial_index": 188, "time_elapsed": 3450660, "internal_node_id": "0.0-141.0-2.0"}}, {"uniqueid": "MTK0593:3HYA4D452SQ29I3GR3M3IQ0O3J7F2J", "current_trial": 189, "dateTime": 1511560225217, "trialdata": {"rt": -1, "stimulus": "<p id=\"stim\">7</p>", "key_press": -1, "trial_type": "single-stim", "trial_index": 189, "time_elapsed": 3451661, "internal_node_id": "0.0-141.0-3.0"}}, {"uniqueid": "MTK0593:3HYA4D452SQ29I3GR3M3IQ0O3J7F2J", "current_trial": 190, "dateTime": 1511560226218, "trialdata": {"rt": -1, "stimulus": "<p id=\"stim\">6</p>", "key_press": -1, "trial_type": "single-stim", "trial_index": 190, "time_elapsed": 3452662, "internal_node_id": "0.0-141.0-4.0"}}, {"uniqueid": "MTK0593:3HYA4D452SQ29I3GR3M3IQ0O3J7F2J", "current_trial": 191, "dateTime": 1511560227219, "trialdata": {"rt": -1, "stimulus": "<p id=\"stim\">5</p>", "key_press": -1, "trial_type": "single-stim", "trial_index": 191, "time_elapsed": 3453663, "internal_node_id": "0.0-141.0-5.0"}}, {"uniqueid": "MTK0593:3HYA4D452SQ29I3GR3M3IQ0O3J7F2J", "current_trial": 192, "dateTime": 1511560228220, "trialdata": {"rt": -1, "stimulus": "<p id=\"stim\">4</p>", "key_press": -1, "trial_type": "single-stim", "trial_index": 192, "time_elapsed": 3454664, "internal_node_id": "0.0-141.0-6.0"}}, {"uniqueid": "MTK0593:3HYA4D452SQ29I3GR3M3IQ0O3J7F2J", "current_trial": 193, "dateTime": 1511560229223, "trialdata": {"rt": -1, "stimulus": "<p id=\"stim\">3</p>", "key_press": -1, "trial_type": "single-stim", "trial_index": 193, "time_elapsed": 3455667, "internal_node_id": "0.0-141.0-7.0"}}, {"uniqueid": "MTK0593:3HYA4D452SQ29I3GR3M3IQ0O3J7F2J", "current_trial": 194, "dateTime": 1511560230225, "trialdata": {"rt": -1, "stimulus": "<p id=\"stim\">2</p>", "key_press": -1, "trial_type": "single-stim", "trial_index": 194, "time_elapsed": 3456669, "internal_node_id": "0.0-141.0-8.0"}}, {"uniqueid": "MTK0593:3HYA4D452SQ29I3GR3M3IQ0O3J7F2J", "current_trial": 195, "dateTime": 1511560231225, "trialdata": {"rt": -1, "stimulus": "<p id=\"stim\">1</p>", "key_press": -1, "trial_type": "single-stim", "trial_index": 195, "time_elapsed": 3457669, "internal_node_id": "0.0-141.0-9.0"}}, {"uniqueid": "MTK0593:3HYA4D452SQ29I3GR3M3IQ0O3J7F2J", "current_trial": 196, "dateTime": 1511560232726, "trialdata": {"rt": -1, "stimulus": "<p id=\"stim\">+</p>", "key_press": -1, "type": "FIXATION", "trial_type": "single-stim", "trial_index": 196, "time_elapsed": 3459170, "internal_node_id": "0.0-142.0-0.0"}}, {"uniqueid": "MTK0593:3HYA4D452SQ29I3GR3M3IQ0O3J7F2J", "current_trial": 197, "dateTime": 1511560235431, "trialdata": {"rt": -1000, "stimulus": "/static/audio/wordpool/POSTAGE.wav", "key_press": -1, "type": "PRES_AUD", "word": "postage", "wordID": 1112, "conditions": [12, 1600, "a", 12000], "trial": 5, "serialpos": 0, "trial_type": "single-audio", "trial_index": 197, "time_elapsed": 3461875, "internal_node_id": "0.0-143.0"}}, {"uniqueid": "MTK0593:3HYA4D452SQ29I3GR3M3IQ0O3J7F2J", "current_trial": 198, "dateTime": 1511560238230, "trialdata": {"rt": -1000, "stimulus": "/static/audio/wordpool/SHRUB.wav", "key_press": -1, "type": "PRES_AUD", "word": "shrub", "wordID": 1298, "conditions": [12, 1600, "a", 12000], "trial": 5, "serialpos": 1, "trial_type": "single-audio", "trial_index": 198, "time_elapsed": 3464674, "internal_node_id": "0.0-144.0"}}, {"uniqueid": "MTK0593:3HYA4D452SQ29I3GR3M3IQ0O3J7F2J", "current_trial": 199, "dateTime": 1511560240861, "trialdata": {"rt": -1000, "stimulus": "/static/audio/wordpool/SALMON.wav", "key_press": -1, "type": "PRES_AUD", "word": "salmon", "wordID": 1226, "conditions": [12, 1600, "a", 12000], "trial": 5, "serialpos": 2, "trial_type": "single-audio", "trial_index": 199, "time_elapsed": 3467304, "internal_node_id": "0.0-145.0"}}, {"uniqueid": "MTK0593:3HYA4D452SQ29I3GR3M3IQ0O3J7F2J", "current_trial": 200, "dateTime": 1511560243442, "trialdata": {"rt": -1000, "stimulus": "/static/audio/wordpool/TOMBSTONE.wav", "key_press": -1, "type": "PRES_AUD", "word": "tombstone", "wordID": 1477, "conditions": [12, 1600, "a", 12000], "trial": 5, "serialpos": 3, "trial_type": "single-audio", "trial_index": 200, "time_elapsed": 3469886, "internal_node_id": "0.0-146.0"}}, {"uniqueid": "MTK0593:3HYA4D452SQ29I3GR3M3IQ0O3J7F2J", "current_trial": 201, "dateTime": 1511560246028, "trialdata": {"rt": -1000, "stimulus": "/static/audio/wordpool/CASKET.wav", "key_press": -1, "type": "PRES_AUD", "word": "casket", "wordID": 254, "conditions": [12, 1600, "a", 12000], "trial": 5, "serialpos": 4, "trial_type": "single-audio", "trial_index": 201, "time_elapsed": 3472472, "internal_node_id": "0.0-147.0"}}, {"uniqueid": "MTK0593:3HYA4D452SQ29I3GR3M3IQ0O3J7F2J", "current_trial": 202, "dateTime": 1511560248456, "trialdata": {"rt": -1000, "stimulus": "/static/audio/wordpool/HEDGE.wav", "key_press": -1, "type": "PRES_AUD", "word": "hedge", "wordID": 698, "conditions": [12, 1600, "a", 12000], "trial": 5, "serialpos": 5, "trial_type": "single-audio", "trial_index": 202, "time_elapsed": 3474900, "internal_node_id": "0.0-148.0"}}, {"uniqueid": "MTK0593:3HYA4D452SQ29I3GR3M3IQ0O3J7F2J", "current_trial": 203, "dateTime": 1511560251071, "trialdata": {"rt": -1000, "stimulus": "/static/audio/wordpool/COMET.wav", "key_press": -1, "type": "PRES_AUD", "word": "comet", "wordID": 352, "conditions": [12, 1600, "a", 12000], "trial": 5, "serialpos": 6, "trial_type": "single-audio", "trial_index": 203, "time_elapsed": 3477515, "internal_node_id": "0.0-149.0"}}, {"uniqueid": "MTK0593:3HYA4D452SQ29I3GR3M3IQ0O3J7F2J", "current_trial": 204, "dateTime": 1511560253809, "trialdata": {"rt": -1000, "stimulus": "/static/audio/wordpool/WAITER.wav", "key_press": -1, "type": "PRES_AUD", "word": "waiter", "wordID": 1579, "conditions": [12, 1600, "a", 12000], "trial": 5, "serialpos": 7, "trial_type": "single-audio", "trial_index": 204, "time_elapsed": 3480253, "internal_node_id": "0.0-150.0"}}, {"uniqueid": "MTK0593:3HYA4D452SQ29I3GR3M3IQ0O3J7F2J", "current_trial": 205, "dateTime": 1511560256501, "trialdata": {"rt": -1000, "stimulus": "/static/audio/wordpool/SEAFOOD.wav", "key_press": -1, "type": "PRES_AUD", "word": "seafood", "wordID": 1259, "conditions": [12, 1600, "a", 12000], "trial": 5, "serialpos": 8, "trial_type": "single-audio", "trial_index": 205, "time_elapsed": 3482944, "internal_node_id": "0.0-151.0"}}, {"uniqueid": "MTK0593:3HYA4D452SQ29I3GR3M3IQ0O3J7F2J", "current_trial": 206, "dateTime": 1511560259257, "trialdata": {"rt": -1000, "stimulus": "/static/audio/wordpool/LUNCH.wav", "key_press": -1, "type": "PRES_AUD", "word": "lunch", "wordID": 848, "conditions": [12, 1600, "a", 12000], "trial": 5, "serialpos": 9, "trial_type": "single-audio", "trial_index": 206, "time_elapsed": 3485701, "internal_node_id": "0.0-152.0"}}, {"uniqueid": "MTK0593:3HYA4D452SQ29I3GR3M3IQ0O3J7F2J", "current_trial": 207, "dateTime": 1511560261963, "trialdata": {"rt": -1000, "stimulus": "/static/audio/wordpool/TRUCK.wav", "key_press": -1, "type": "PRES_AUD", "word": "truck", "wordID": 1511, "conditions": [12, 1600, "a", 12000], "trial": 5, "serialpos": 10, "trial_type": "single-audio", "trial_index": 207, "time_elapsed": 3488407, "internal_node_id": "0.0-153.0"}}, {"uniqueid": "MTK0593:3HYA4D452SQ29I3GR3M3IQ0O3J7F2J", "current_trial": 208, "dateTime": 1511560264607, "trialdata": {"rt": -1000, "stimulus": "/static/audio/wordpool/SIDEWALK.wav", "key_press": -1, "type": "PRES_AUD", "word": "sidewalk", "wordID": 1302, "conditions": [12, 1600, "a", 12000], "trial": 5, "serialpos": 11, "trial_type": "single-audio", "trial_index": 208, "time_elapsed": 3491051, "internal_node_id": "0.0-154.0"}}, {"uniqueid": "MTK0593:3HYA4D452SQ29I3GR3M3IQ0O3J7F2J", "current_trial": 209, "dateTime": 1511560265862, "trialdata": {"rt": -1, "stimulus": "", "key_press": -1, "type": "PRE_RECALL_DELAY", "trial_type": "single-stim", "trial_index": 209, "time_elapsed": 3492306, "internal_node_id": "0.0-155.0-0.0"}}, {"uniqueid": "MTK0593:3HYA4D452SQ29I3GR3M3IQ0O3J7F2J", "current_trial": 210, "dateTime": 1511560266365, "trialdata": {"rt": -1000, "stimulus": "/static/audio/400Hz.wav", "key_press": -1, "type": "PRE_RECALL_ALERT", "trial_type": "single-audio", "trial_index": 210, "time_elapsed": 3492809, "internal_node_id": "0.0-156.0"}}, {"uniqueid": "MTK0593:3HYA4D452SQ29I3GR3M3IQ0O3J7F2J", "current_trial": 211, "dateTime": 1511560326371, "trialdata": {"rt": [3301, 4701, 6033, 7765, 9485, 11829, 12845, 15261, 16829, 19677, 44517], "recwords": ["sidewalk", "lunch", "truck", "salmon", "seafood", "bush", "hedge", "tombstone", "casket", "comet", "postage"], "type": "FREE_RECALL", "conditions": [12, 1600, "a", 12000], "trial": 5, "trial_type": "free-recall", "trial_index": 211, "time_elapsed": 3552812, "internal_node_id": "0.0-157.0-0.0"}}, {"uniqueid": "MTK0593:3HYA4D452SQ29I3GR3M3IQ0O3J7F2J", "current_trial": 212, "dateTime": 1511560329275, "trialdata": {"rt": 902, "key_press": 32, "type": "INSTRUCTIONS", "trial_type": "text", "trial_index": 212, "time_elapsed": 3555719, "internal_node_id": "0.0-158.0"}}, {"uniqueid": "MTK0593:3HYA4D452SQ29I3GR3M3IQ0O3J7F2J", "current_trial": 213, "dateTime": 1511560355278, "trialdata": {"rt": [2094, 4270, 6101, 8536, 11301, 12869, 15317, 17501, 19205, 20861, 23975], "responses": ["20", "13", "6", "20", "17", "21", "16", "13", "19", "15", "23"], "num1": [2, 1, 2, 8, 8, 8, 6, 2, 4, 2, 7, 5], "num2": [9, 8, 1, 7, 4, 7, 2, 4, 7, 6, 8, 8], "num3": [9, 4, 3, 5, 5, 6, 8, 7, 8, 7, 9, 6], "type": "DISTRACTOR", "conditions": [24, 800, "v", 24000], "trial": 6, "trial_type": "math-distractor", "trial_index": 213, "time_elapsed": 3581722, "internal_node_id": "0.0-159.0"}}, {"uniqueid": "MTK0593:3HYA4D452SQ29I3GR3M3IQ0O3J7F2J", "current_trial": 214, "dateTime": 1511560358281, "trialdata": {"rt": -1, "stimulus": "<p id=\"stim\">10</p>", "key_press": -1, "trial_type": "single-stim", "trial_index": 214, "time_elapsed": 3584725, "internal_node_id": "0.0-160.0-0.0"}}, {"uniqueid": "MTK0593:3HYA4D452SQ29I3GR3M3IQ0O3J7F2J", "current_trial": 215, "dateTime": 1511560359283, "trialdata": {"rt": -1, "stimulus": "<p id=\"stim\">9</p>", "key_press": -1, "trial_type": "single-stim", "trial_index": 215, "time_elapsed": 3585727, "internal_node_id": "0.0-160.0-1.0"}}, {"uniqueid": "MTK0593:3HYA4D452SQ29I3GR3M3IQ0O3J7F2J", "current_trial": 216, "dateTime": 1511560360284, "trialdata": {"rt": -1, "stimulus": "<p id=\"stim\">8</p>", "key_press": -1, "trial_type": "single-stim", "trial_index": 216, "time_elapsed": 3586728, "internal_node_id": "0.0-160.0-2.0"}}, {"uniqueid": "MTK0593:3HYA4D452SQ29I3GR3M3IQ0O3J7F2J", "current_trial": 217, "dateTime": 1511560361284, "trialdata": {"rt": -1, "stimulus": "<p id=\"stim\">7</p>", "key_press": -1, "trial_type": "single-stim", "trial_index": 217, "time_elapsed": 3587728, "internal_node_id": "0.0-160.0-3.0"}}, {"uniqueid": "MTK0593:3HYA4D452SQ29I3GR3M3IQ0O3J7F2J", "current_trial": 218, "dateTime": 1511560362286, "trialdata": {"rt": -1, "stimulus": "<p id=\"stim\">6</p>", "key_press": -1, "trial_type": "single-stim", "trial_index": 218, "time_elapsed": 3588730, "internal_node_id": "0.0-160.0-4.0"}}, {"uniqueid": "MTK0593:3HYA4D452SQ29I3GR3M3IQ0O3J7F2J", "current_trial": 219, "dateTime": 1511560363288, "trialdata": {"rt": -1, "stimulus": "<p id=\"stim\">5</p>", "key_press": -1, "trial_type": "single-stim", "trial_index": 219, "time_elapsed": 3589732, "internal_node_id": "0.0-160.0-5.0"}}, {"uniqueid": "MTK0593:3HYA4D452SQ29I3GR3M3IQ0O3J7F2J", "current_trial": 220, "dateTime": 1511560364289, "trialdata": {"rt": -1, "stimulus": "<p id=\"stim\">4</p>", "key_press": -1, "trial_type": "single-stim", "trial_index": 220, "time_elapsed": 3590733, "internal_node_id": "0.0-160.0-6.0"}}, {"uniqueid": "MTK0593:3HYA4D452SQ29I3GR3M3IQ0O3J7F2J", "current_trial": 221, "dateTime": 1511560365290, "trialdata": {"rt": -1, "stimulus": "<p id=\"stim\">3</p>", "key_press": -1, "trial_type": "single-stim", "trial_index": 221, "time_elapsed": 3591734, "internal_node_id": "0.0-160.0-7.0"}}, {"uniqueid": "MTK0593:3HYA4D452SQ29I3GR3M3IQ0O3J7F2J", "current_trial": 222, "dateTime": 1511560366291, "trialdata": {"rt": -1, "stimulus": "<p id=\"stim\">2</p>", "key_press": -1, "trial_type": "single-stim", "trial_index": 222, "time_elapsed": 3592735, "internal_node_id": "0.0-160.0-8.0"}}, {"uniqueid": "MTK0593:3HYA4D452SQ29I3GR3M3IQ0O3J7F2J", "current_trial": 223, "dateTime": 1511560367292, "trialdata": {"rt": -1, "stimulus": "<p id=\"stim\">1</p>", "key_press": -1, "trial_type": "single-stim", "trial_index": 223, "time_elapsed": 3593736, "internal_node_id": "0.0-160.0-9.0"}}, {"uniqueid": "MTK0593:3HYA4D452SQ29I3GR3M3IQ0O3J7F2J", "current_trial": 224, "dateTime": 1511560368793, "trialdata": {"rt": -1, "stimulus": "<p id=\"stim\">+</p>", "key_press": -1, "type": "FIXATION", "trial_type": "single-stim", "trial_index": 224, "time_elapsed": 3595237, "internal_node_id": "0.0-161.0-0.0"}}, {"uniqueid": "MTK0593:3HYA4D452SQ29I3GR3M3IQ0O3J7F2J", "current_trial": 225, "dateTime": 1511560369595, "trialdata": {"rt": -1, "stimulus": "<p id=\"stim\">TRIBE</p>", "key_press": -1, "type": "PRES_VIS", "word": "tribe", "wordID": 1504, "conditions": [24, 800, "v", 24000], "trial": 6, "serialpos": 0, "trial_type": "single-stim", "trial_index": 225, "time_elapsed": 3596039, "internal_node_id": "0.0-162.0"}}, {"uniqueid": "MTK0593:3HYA4D452SQ29I3GR3M3IQ0O3J7F2J", "current_trial": 226, "dateTime": 1511560371508, "trialdata": {"rt": -1, "stimulus": "<p id=\"stim\">DONKEY</p>", "key_press": -1, "type": "PRES_VIS", "word": "donkey", "wordID": 483, "conditions": [24, 800, "v", 24000], "trial": 6, "serialpos": 1, "trial_type": "single-stim", "trial_index": 226, "time_elapsed": 3597952, "internal_node_id": "0.0-163.0"}}, {"uniqueid": "MTK0593:3HYA4D452SQ29I3GR3M3IQ0O3J7F2J", "current_trial": 227, "dateTime": 1511560373229, "trialdata": {"rt": -1, "stimulus": "<p id=\"stim\">PORK</p>", "key_press": -1, "type": "PRES_VIS", "word": "pork", "wordID": 1107, "conditions": [24, 800, "v", 24000], "trial": 6, "serialpos": 2, "trial_type": "single-stim", "trial_index": 227, "time_elapsed": 3599673, "internal_node_id": "0.0-164.0"}}, {"uniqueid": "MTK0593:3HYA4D452SQ29I3GR3M3IQ0O3J7F2J", "current_trial": 228, "dateTime": 1511560375093, "trialdata": {"rt": -1, "stimulus": "<p id=\"stim\">CHAPEL</p>", "key_press": -1, "type": "PRES_VIS", "word": "chapel", "wordID": 279, "conditions": [24, 800, "v", 24000], "trial": 6, "serialpos": 3, "trial_type": "single-stim", "trial_index": 228, "time_elapsed": 3601537, "internal_node_id": "0.0-165.0"}}, {"uniqueid": "MTK0593:3HYA4D452SQ29I3GR3M3IQ0O3J7F2J", "current_trial": 229, "dateTime": 1511560376830, "trialdata": {"rt": -1, "stimulus": "<p id=\"stim\">ROOSTER</p>", "key_press": -1, "type": "PRES_VIS", "word": "rooster", "wordID": 1208, "conditions": [24, 800, "v", 24000], "trial": 6, "serialpos": 4, "trial_type": "single-stim", "trial_index": 229, "time_elapsed": 3603274, "internal_node_id": "0.0-166.0"}}, {"uniqueid": "MTK0593:3HYA4D452SQ29I3GR3M3IQ0O3J7F2J", "current_trial": 230, "dateTime": 1511560378639, "trialdata": {"rt": -1, "stimulus": "<p id=\"stim\">HANDBAG</p>", "key_press": -1, "type": "PRES_VIS", "word": "handbag", "wordID": 683, "conditions": [24, 800, "v", 24000], "trial": 6, "serialpos": 5, "trial_type": "single-stim", "trial_index": 230, "time_elapsed": 3605083, "internal_node_id": "0.0-167.0"}}, {"uniqueid": "MTK0593:3HYA4D452SQ29I3GR3M3IQ0O3J7F2J", "current_trial": 231, "dateTime": 1511560380408, "trialdata": {"rt": -1, "stimulus": "<p id=\"stim\">CHILD</p>", "key_press": -1, "type": "PRES_VIS", "word": "child", "wordID": 298, "conditions": [24, 800, "v", 24000], "trial": 6, "serialpos": 6, "trial_type": "single-stim", "trial_index": 231, "time_elapsed": 3606852, "internal_node_id": "0.0-168.0"}}, {"uniqueid": "MTK0593:3HYA4D452SQ29I3GR3M3IQ0O3J7F2J", "current_trial": 232, "dateTime": 1511560382062, "trialdata": {"rt": -1, "stimulus": "<p id=\"stim\">NIGHTGOWN</p>", "key_press": -1, "type": "PRES_VIS", "word": "nightgown", "wordID": 952, "conditions": [24, 800, "v", 24000], "trial": 6, "serialpos": 7, "trial_type": "single-stim", "trial_index": 232, "time_elapsed": 3608506, "internal_node_id": "0.0-169.0"}}, {"uniqueid": "MTK0593:3HYA4D452SQ29I3GR3M3IQ0O3J7F2J", "current_trial": 233, "dateTime": 1511560383931, "trialdata": {"rt": -1, "stimulus": "<p id=\"stim\">CLOTHES</p>", "key_press": -1, "type": "PRES_VIS", "word": "clothes", "wordID": 326, "conditions": [24, 800, "v", 24000], "trial": 6, "serialpos": 8, "trial_type": "single-stim", "trial_index": 233, "time_elapsed": 3610375, "internal_node_id": "0.0-170.0"}}, {"uniqueid": "MTK0593:3HYA4D452SQ29I3GR3M3IQ0O3J7F2J", "current_trial": 234, "dateTime": 1511560385662, "trialdata": {"rt": -1, "stimulus": "<p id=\"stim\">INFANT</p>", "key_press": -1, "type": "PRES_VIS", "word": "infant", "wordID": 736, "conditions": [24, 800, "v", 24000], "trial": 6, "serialpos": 9, "trial_type": "single-stim", "trial_index": 234, "time_elapsed": 3612106, "internal_node_id": "0.0-171.0"}}, {"uniqueid": "MTK0593:3HYA4D452SQ29I3GR3M3IQ0O3J7F2J", "current_trial": 235, "dateTime": 1511560387425, "trialdata": {"rt": -1, "stimulus": "<p id=\"stim\">PECAN</p>", "key_press": -1, "type": "PRES_VIS", "word": "pecan", "wordID": 1035, "conditions": [24, 800, "v", 24000], "trial": 6, "serialpos": 10, "trial_type": "single-stim", "trial_index": 235, "time_elapsed": 3613868, "internal_node_id": "0.0-172.0"}}, {"uniqueid": "MTK0593:3HYA4D452SQ29I3GR3M3IQ0O3J7F2J", "current_trial": 236, "dateTime": 1511560389113, "trialdata": {"rt": -1, "stimulus": "<p id=\"stim\">FRIEND</p>", "key_press": -1, "type": "PRES_VIS", "word": "friend", "wordID": 605, "conditions": [24, 800, "v", 24000], "trial": 6, "serialpos": 11, "trial_type": "single-stim", "trial_index": 236, "time_elapsed": 3615557, "internal_node_id": "0.0-173.0"}}, {"uniqueid": "MTK0593:3HYA4D452SQ29I3GR3M3IQ0O3J7F2J", "current_trial": 237, "dateTime": 1511560391015, "trialdata": {"rt": -1, "stimulus": "<p id=\"stim\">GIRL</p>", "key_press": -1, "type": "PRES_VIS", "word": "girl", "wordID": 636, "conditions": [24, 800, "v", 24000], "trial": 6, "serialpos": 12, "trial_type": "single-stim", "trial_index": 237, "time_elapsed": 3617459, "internal_node_id": "0.0-174.0"}}, {"uniqueid": "MTK0593:3HYA4D452SQ29I3GR3M3IQ0O3J7F2J", "current_trial": 238, "dateTime": 1511560392851, "trialdata": {"rt": -1, "stimulus": "<p id=\"stim\">CARROT</p>", "key_press": -1, "type": "PRES_VIS", "word": "carrot", "wordID": 248, "conditions": [24, 800, "v", 24000], "trial": 6, "serialpos": 13, "trial_type": "single-stim", "trial_index": 238, "time_elapsed": 3619295, "internal_node_id": "0.0-175.0"}}, {"uniqueid": "MTK0593:3HYA4D452SQ29I3GR3M3IQ0O3J7F2J", "current_trial": 239, "dateTime": 1511560394559, "trialdata": {"rt": -1, "stimulus": "<p id=\"stim\">SHORTCAKE</p>", "key_press": -1, "type": "PRES_VIS", "word": "shortcake", "wordID": 1291, "conditions": [24, 800, "v", 24000], "trial": 6, "serialpos": 14, "trial_type": "single-stim", "trial_index": 239, "time_elapsed": 3621003, "internal_node_id": "0.0-176.0"}}, {"uniqueid": "MTK0593:3HYA4D452SQ29I3GR3M3IQ0O3J7F2J", "current_trial": 240, "dateTime": 1511560396414, "trialdata": {"rt": -1, "stimulus": "<p id=\"stim\">SPIDER</p>", "key_press": -1, "type": "PRES_VIS", "word": "spider", "wordID": 1350, "conditions": [24, 800, "v", 24000], "trial": 6, "serialpos": 15, "trial_type": "single-stim", "trial_index": 240, "time_elapsed": 3622858, "internal_node_id": "0.0-177.0"}}, {"uniqueid": "MTK0593:3HYA4D452SQ29I3GR3M3IQ0O3J7F2J", "current_trial": 241, "dateTime": 1511560398228, "trialdata": {"rt": -1, "stimulus": "<p id=\"stim\">SNAKE</p>", "key_press": -1, "type": "PRES_VIS", "word": "snake", "wordID": 1332, "conditions": [24, 800, "v", 24000], "trial": 6, "serialpos": 16, "trial_type": "single-stim", "trial_index": 241, "time_elapsed": 3624672, "internal_node_id": "0.0-178.0"}}, {"uniqueid": "MTK0593:3HYA4D452SQ29I3GR3M3IQ0O3J7F2J", "current_trial": 242, "dateTime": 1511560399867, "trialdata": {"rt": -1, "stimulus": "<p id=\"stim\">SALAD</p>", "key_press": -1, "type": "PRES_VIS", "word": "salad", "wordID": 1223, "conditions": [24, 800, "v", 24000], "trial": 6, "serialpos": 17, "trial_type": "single-stim", "trial_index": 242, "time_elapsed": 3626311, "internal_node_id": "0.0-179.0"}}, {"uniqueid": "MTK0593:3HYA4D452SQ29I3GR3M3IQ0O3J7F2J", "current_trial": 243, "dateTime": 1511560401765, "trialdata": {"rt": -1, "stimulus": "<p id=\"stim\">CUSTARD</p>", "key_press": -1, "type": "PRES_VIS", "word": "custard", "wordID": 428, "conditions": [24, 800, "v", 24000], "trial": 6, "serialpos": 18, "trial_type": "single-stim", "trial_index": 243, "time_elapsed": 3628209, "internal_node_id": "0.0-180.0"}}, {"uniqueid": "MTK0593:3HYA4D452SQ29I3GR3M3IQ0O3J7F2J", "current_trial": 244, "dateTime": 1511560403485, "trialdata": {"rt": -1, "stimulus": "<p id=\"stim\">REPORT</p>", "key_press": -1, "type": "PRES_VIS", "word": "report", "wordID": 1183, "conditions": [24, 800, "v", 24000], "trial": 6, "serialpos": 19, "trial_type": "single-stim", "trial_index": 244, "time_elapsed": 3629929, "internal_node_id": "0.0-181.0"}}, {"uniqueid": "MTK0593:3HYA4D452SQ29I3GR3M3IQ0O3J7F2J", "current_trial": 245, "dateTime": 1511560405430, "trialdata": {"rt": -1, "stimulus": "<p id=\"stim\">BEAVER</p>", "key_press": -1, "type": "PRES_VIS", "word": "beaver", "wordID": 108, "conditions": [24, 800, "v", 24000], "trial": 6, "serialpos": 20, "trial_type": "single-stim", "trial_index": 245, "time_elapsed": 3631874, "internal_node_id": "0.0-182.0"}}, {"uniqueid": "MTK0593:3HYA4D452SQ29I3GR3M3IQ0O3J7F2J", "current_trial": 246, "dateTime": 1511560407382, "trialdata": {"rt": -1, "stimulus": "<p id=\"stim\">BABY</p>", "key_press": -1, "type": "PRES_VIS", "word": "baby", "wordID": 63, "conditions": [24, 800, "v", 24000], "trial": 6, "serialpos": 21, "trial_type": "single-stim", "trial_index": 246, "time_elapsed": 3633826, "internal_node_id": "0.0-183.0"}}, {"uniqueid": "MTK0593:3HYA4D452SQ29I3GR3M3IQ0O3J7F2J", "current_trial": 247, "dateTime": 1511560409324, "trialdata": {"rt": -1, "stimulus": "<p id=\"stim\">ICEBERG</p>", "key_press": -1, "type": "PRES_VIS", "word": "iceberg", "wordID": 730, "conditions": [24, 800, "v", 24000], "trial": 6, "serialpos": 22, "trial_type": "single-stim", "trial_index": 247, "time_elapsed": 3635768, "internal_node_id": "0.0-184.0"}}, {"uniqueid": "MTK0593:3HYA4D452SQ29I3GR3M3IQ0O3J7F2J", "current_trial": 248, "dateTime": 1511560410937, "trialdata": {"rt": -1, "stimulus": "<p id=\"stim\">LADY</p>", "key_press": -1, "type": "PRES_VIS", "word": "lady", "wordID": 793, "conditions": [24, 800, "v", 24000], "trial": 6, "serialpos": 23, "trial_type": "single-stim", "trial_index": 248, "time_elapsed": 3637381, "internal_node_id": "0.0-185.0"}}, {"uniqueid": "MTK0593:3HYA4D452SQ29I3GR3M3IQ0O3J7F2J", "current_trial": 249, "dateTime": 1511560413046, "trialdata": {"rt": -1, "stimulus": "", "key_press": -1, "type": "PRE_RECALL_DELAY", "trial_type": "single-stim", "trial_index": 249, "time_elapsed": 3639490, "internal_node_id": "0.0-186.0-0.0"}}, {"uniqueid": "MTK0593:3HYA4D452SQ29I3GR3M3IQ0O3J7F2J", "current_trial": 250, "dateTime": 1511560413553, "trialdata": {"rt": -1000, "stimulus": "/static/audio/400Hz.wav", "key_press": -1, "type": "PRE_RECALL_ALERT", "trial_type": "single-audio", "trial_index": 250, "time_elapsed": 3639997, "internal_node_id": "0.0-187.0"}}, {"uniqueid": "MTK0593:3HYA4D452SQ29I3GR3M3IQ0O3J7F2J", "current_trial": 251, "dateTime": 1511560473563, "trialdata": {"rt": [3846, 4878, 5839, 7104, 8150, 9670, 11429, 13725, 19327, 20558, 44581], "recwords": ["girl", "friend", "lady", "spider", "snake", "salad", "custard", "tribe", "baby", "infant", "nightgown"], "type": "FREE_RECALL", "conditions": [24, 800, "v", 24000], "trial": 6, "trial_type": "free-recall", "trial_index": 251, "time_elapsed": 3700003, "internal_node_id": "0.0-188.0-0.0"}}, {"uniqueid": "MTK0593:3HYA4D452SQ29I3GR3M3IQ0O3J7F2J", "current_trial": 252, "dateTime": 1511560476714, "trialdata": {"rt": 1148, "key_press": 32, "type": "INSTRUCTIONS", "trial_type": "text", "trial_index": 252, "time_elapsed": 3703158, "internal_node_id": "0.0-189.0"}}, {"uniqueid": "MTK0593:3HYA4D452SQ29I3GR3M3IQ0O3J7F2J", "current_trial": 253, "dateTime": 1511560490718, "trialdata": {"rt": [3075, 6420, 8005, 10091], "responses": ["16", "17", "7", "18"], "num1": [6, 5, 2, 9, 3], "num2": [3, 3, 1, 4, 9], "num3": [7, 9, 4, 5, 8], "type": "DISTRACTOR", "conditions": [12, 800, "v", 12000], "trial": 7, "trial_type": "math-distractor", "trial_index": 253, "time_elapsed": 3717162, "internal_node_id": "0.0-190.0"}}, {"uniqueid": "MTK0593:3HYA4D452SQ29I3GR3M3IQ0O3J7F2J", "current_trial": 254, "dateTime": 1511560493720, "trialdata": {"rt": -1, "stimulus": "<p id=\"stim\">10</p>", "key_press": -1, "trial_type": "single-stim", "trial_index": 254, "time_elapsed": 3720164, "internal_node_id": "0.0-191.0-0.0"}}, {"uniqueid": "MTK0593:3HYA4D452SQ29I3GR3M3IQ0O3J7F2J", "current_trial": 255, "dateTime": 1511560494721, "trialdata": {"rt": -1, "stimulus": "<p id=\"stim\">9</p>", "key_press": -1, "trial_type": "single-stim", "trial_index": 255, "time_elapsed": 3721165, "internal_node_id": "0.0-191.0-1.0"}}, {"uniqueid": "MTK0593:3HYA4D452SQ29I3GR3M3IQ0O3J7F2J", "current_trial": 256, "dateTime": 1511560495722, "trialdata": {"rt": -1, "stimulus": "<p id=\"stim\">8</p>", "key_press": -1, "trial_type": "single-stim", "trial_index": 256, "time_elapsed": 3722166, "internal_node_id": "0.0-191.0-2.0"}}, {"uniqueid": "MTK0593:3HYA4D452SQ29I3GR3M3IQ0O3J7F2J", "current_trial": 257, "dateTime": 1511560496724, "trialdata": {"rt": -1, "stimulus": "<p id=\"stim\">7</p>", "key_press": -1, "trial_type": "single-stim", "trial_index": 257, "time_elapsed": 3723168, "internal_node_id": "0.0-191.0-3.0"}}, {"uniqueid": "MTK0593:3HYA4D452SQ29I3GR3M3IQ0O3J7F2J", "current_trial": 258, "dateTime": 1511560497726, "trialdata": {"rt": -1, "stimulus": "<p id=\"stim\">6</p>", "key_press": -1, "trial_type": "single-stim", "trial_index": 258, "time_elapsed": 3724170, "internal_node_id": "0.0-191.0-4.0"}}, {"uniqueid": "MTK0593:3HYA4D452SQ29I3GR3M3IQ0O3J7F2J", "current_trial": 259, "dateTime": 1511560498727, "trialdata": {"rt": -1, "stimulus": "<p id=\"stim\">5</p>", "key_press": -1, "trial_type": "single-stim", "trial_index": 259, "time_elapsed": 3725171, "internal_node_id": "0.0-191.0-5.0"}}, {"uniqueid": "MTK0593:3HYA4D452SQ29I3GR3M3IQ0O3J7F2J", "current_trial": 260, "dateTime": 1511560499729, "trialdata": {"rt": -1, "stimulus": "<p id=\"stim\">4</p>", "key_press": -1, "trial_type": "single-stim", "trial_index": 260, "time_elapsed": 3726173, "internal_node_id": "0.0-191.0-6.0"}}, {"uniqueid": "MTK0593:3HYA4D452SQ29I3GR3M3IQ0O3J7F2J", "current_trial": 261, "dateTime": 1511560500730, "trialdata": {"rt": -1, "stimulus": "<p id=\"stim\">3</p>", "key_press": -1, "trial_type": "single-stim", "trial_index": 261, "time_elapsed": 3727174, "internal_node_id": "0.0-191.0-7.0"}}, {"uniqueid": "MTK0593:3HYA4D452SQ29I3GR3M3IQ0O3J7F2J", "current_trial": 262, "dateTime": 1511560501731, "trialdata": {"rt": -1, "stimulus": "<p id=\"stim\">2</p>", "key_press": -1, "trial_type": "single-stim", "trial_index": 262, "time_elapsed": 3728175, "internal_node_id": "0.0-191.0-8.0"}}, {"uniqueid": "MTK0593:3HYA4D452SQ29I3GR3M3IQ0O3J7F2J", "current_trial": 263, "dateTime": 1511560502733, "trialdata": {"rt": -1, "stimulus": "<p id=\"stim\">1</p>", "key_press": -1, "trial_type": "single-stim", "trial_index": 263, "time_elapsed": 3729177, "internal_node_id": "0.0-191.0-9.0"}}, {"uniqueid": "MTK0593:3HYA4D452SQ29I3GR3M3IQ0O3J7F2J", "current_trial": 264, "dateTime": 1511560504234, "trialdata": {"rt": -1, "stimulus": "<p id=\"stim\">+</p>", "key_press": -1, "type": "FIXATION", "trial_type": "single-stim", "trial_index": 264, "time_elapsed": 3730678, "internal_node_id": "0.0-192.0-0.0"}}, {"uniqueid": "MTK0593:3HYA4D452SQ29I3GR3M3IQ0O3J7F2J", "current_trial": 265, "dateTime": 1511560505036, "trialdata": {"rt": -1, "stimulus": "<p id=\"stim\">TEACHER</p>", "key_press": -1, "type": "PRES_VIS", "word": "teacher", "wordID": 1439, "conditions": [12, 800, "v", 12000], "trial": 7, "serialpos": 0, "trial_type": "single-stim", "trial_index": 265, "time_elapsed": 3731480, "internal_node_id": "0.0-193.0"}}, {"uniqueid": "MTK0593:3HYA4D452SQ29I3GR3M3IQ0O3J7F2J", "current_trial": 266, "dateTime": 1511560506893, "trialdata": {"rt": -1, "stimulus": "<p id=\"stim\">MUFFIN</p>", "key_press": -1, "type": "PRES_VIS", "word": "muffin", "wordID": 928, "conditions": [12, 800, "v", 12000], "trial": 7, "serialpos": 1, "trial_type": "single-stim", "trial_index": 266, "time_elapsed": 3733337, "internal_node_id": "0.0-194.0"}}, {"uniqueid": "MTK0593:3HYA4D452SQ29I3GR3M3IQ0O3J7F2J", "current_trial": 267, "dateTime": 1511560508574, "trialdata": {"rt": -1, "stimulus": "<p id=\"stim\">RIVER</p>", "key_press": -1, "type": "PRES_VIS", "word": "river", "wordID": 1193, "conditions": [12, 800, "v", 12000], "trial": 7, "serialpos": 2, "trial_type": "single-stim", "trial_index": 267, "time_elapsed": 3735018, "internal_node_id": "0.0-195.0"}}, {"uniqueid": "MTK0593:3HYA4D452SQ29I3GR3M3IQ0O3J7F2J", "current_trial": 268, "dateTime": 1511560510516, "trialdata": {"rt": -1, "stimulus": "<p id=\"stim\">BLUEPRINT</p>", "key_press": -1, "type": "PRES_VIS", "word": "blueprint", "wordID": 141, "conditions": [12, 800, "v", 12000], "trial": 7, "serialpos": 3, "trial_type": "single-stim", "trial_index": 268, "time_elapsed": 3736960, "internal_node_id": "0.0-196.0"}}, {"uniqueid": "MTK0593:3HYA4D452SQ29I3GR3M3IQ0O3J7F2J", "current_trial": 269, "dateTime": 1511560512501, "trialdata": {"rt": -1, "stimulus": "<p id=\"stim\">PAPER</p>", "key_press": -1, "type": "PRES_VIS", "word": "paper", "wordID": 1010, "conditions": [12, 800, "v", 12000], "trial": 7, "serialpos": 4, "trial_type": "single-stim", "trial_index": 269, "time_elapsed": 3738945, "internal_node_id": "0.0-197.0"}}, {"uniqueid": "MTK0593:3HYA4D452SQ29I3GR3M3IQ0O3J7F2J", "current_trial": 270, "dateTime": 1511560514165, "trialdata": {"rt": -1, "stimulus": "<p id=\"stim\">CRIB</p>", "key_press": -1, "type": "PRES_VIS", "word": "crib", "wordID": 406, "conditi