{"condition": 0, "counterbalance": 2635, "assignmentId": "39GXDJN2OUL2RURV7Z08A3GDFGO8VC", "workerId": "MTK0727", "hitId": "3PZDSVZ3J5OMD4XQ33J2UQABBNHN4V", "currenttrial": 626, "bonus": 0, "data": [{"uniqueid": "MTK0727:39GXDJN2OUL2RURV7Z08A3GDFGO8VC", "current_trial": 0, "dateTime": 1512674033564, "trialdata": {"rt": 2641, "key_press": 71, "type": "INSTRUCTIONS", "trial_type": "text", "trial_index": 0, "time_elapsed": 2645, "internal_node_id": "0.0-0.0"}}, {"uniqueid": "MTK0727:39GXDJN2OUL2RURV7Z08A3GDFGO8VC", "current_trial": 1, "dateTime": 1512674062889, "trialdata": {"rt": 29322, "key_press": 72, "type": "INSTRUCTIONS", "trial_type": "text", "trial_index": 1, "time_elapsed": 31971, "internal_node_id": "0.0-1.0"}}, {"uniqueid": "MTK0727:39GXDJN2OUL2RURV7Z08A3GDFGO8VC", "current_trial": 2, "dateTime": 1512674071303, "trialdata": {"rt": [8364], "responses": ["ocean"], "type": "AUDIO_TEST", "trial_type": "audio-test", "trial_index": 2, "time_elapsed": 40385, "internal_node_id": "0.0-2.0"}}, {"uniqueid": "MTK0727:39GXDJN2OUL2RURV7Z08A3GDFGO8VC", "current_trial": 3, "dateTime": 1512674076855, "trialdata": {"rt": [5533], "responses": ["crystal"], "type": "AUDIO_TEST", "trial_type": "audio-test", "trial_index": 3, "time_elapsed": 45937, "internal_node_id": "0.0-3.0"}}, {"uniqueid": "MTK0727:39GXDJN2OUL2RURV7Z08A3GDFGO8VC", "current_trial": 4, "dateTime": 1512674119431, "trialdata": {"rt": [42558], "responses": ["spice"], "type": "AUDIO_TEST", "trial_type": "audio-test", "trial_index": 4, "time_elapsed": 88513, "internal_node_id": "0.0-4.0"}}, {"uniqueid": "MTK0727:39GXDJN2OUL2RURV7Z08A3GDFGO8VC", "current_trial": 5, "dateTime": 1512674144146, "trialdata": {"rt": 23954, "responses": "{\"Q0\":\"11:00pm\",\"Q1\":\"7:00am\",\"Q2\":\"4\"}", "type": "SLEEP_SURVEY", "trial_type": "survey-text", "trial_index": 5, "time_elapsed": 113228, "internal_node_id": "0.0-5.0"}}, {"uniqueid": "MTK0727:39GXDJN2OUL2RURV7Z08A3GDFGO8VC", "current_trial": 6, "dateTime": 1512674158368, "trialdata": {"rt": 13217, "key_press": 174, "type": "INSTRUCTIONS", "trial_type": "text", "trial_index": 6, "time_elapsed": 127449, "internal_node_id": "0.0-6.0"}}, {"uniqueid": "MTK0727:39GXDJN2OUL2RURV7Z08A3GDFGO8VC", "current_trial": 7, "dateTime": 1512674220141, "trialdata": {"rt": 61266, "key_press": 72, "type": "INSTRUCTIONS", "trial_type": "text", "trial_index": 7, "time_elapsed": 189223, "internal_node_id": "0.0-7.0"}}, {"uniqueid": "MTK0727:39GXDJN2OUL2RURV7Z08A3GDFGO8VC", "current_trial": 8, "dateTime": 1512674230278, "trialdata": {"rt": 9625, "key_press": 70, "type": "INSTRUCTIONS", "trial_type": "text", "trial_index": 8, "time_elapsed": 199360, "internal_node_id": "0.0-8.0"}}, {"uniqueid": "MTK0727:39GXDJN2OUL2RURV7Z08A3GDFGO8VC", "current_trial": 9, "dateTime": 1512674249306, "trialdata": {"rt": [5418, 8442, 11098, 12858, 14842, 17034], "responses": ["25", "12", "9", "18", "18", "24"], "num1": [9, 9, 3, 9, 5, 6, 2], "num2": [7, 1, 4, 7, 9, 8, 7], "num3": [9, 2, 2, 2, 4, 8, 3], "type": "DISTRACTOR", "conditions": [18, 1200, "v", 18000], "trial": 0, "trial_type": "math-distractor", "trial_index": 9, "time_elapsed": 218388, "internal_node_id": "0.0-9.0"}}, {"uniqueid": "MTK0727:39GXDJN2OUL2RURV7Z08A3GDFGO8VC", "current_trial": 10, "dateTime": 1512674252323, "trialdata": {"rt": -1, "stimulus": "<p id=\"stim\">10</p>", "key_press": -1, "trial_type": "single-stim", "trial_index": 10, "time_elapsed": 221405, "internal_node_id": "0.0-10.0-0.0"}}, {"uniqueid": "MTK0727:39GXDJN2OUL2RURV7Z08A3GDFGO8VC", "current_trial": 11, "dateTime": 1512674253332, "trialdata": {"rt": -1, "stimulus": "<p id=\"stim\">9</p>", "key_press": -1, "trial_type": "single-stim", "trial_index": 11, "time_elapsed": 222414, "internal_node_id": "0.0-10.0-1.0"}}, {"uniqueid": "MTK0727:39GXDJN2OUL2RURV7Z08A3GDFGO8VC", "current_trial": 12, "dateTime": 1512674254319, "trialdata": {"rt": -1, "stimulus": "<p id=\"stim\">8</p>", "key_press": -1, "trial_type": "single-stim", "trial_index": 12, "time_elapsed": 223401, "internal_node_id": "0.0-10.0-2.0"}}, {"uniqueid": "MTK0727:39GXDJN2OUL2RURV7Z08A3GDFGO8VC", "current_trial": 13, "dateTime": 1512674255320, "trialdata": {"rt": -1, "stimulus": "<p id=\"stim\">7</p>", "key_press": -1, "trial_type": "single-stim", "trial_index": 13, "time_elapsed": 224402, "internal_node_id": "0.0-10.0-3.0"}}, {"uniqueid": "MTK0727:39GXDJN2OUL2RURV7Z08A3GDFGO8VC", "current_trial": 14, "dateTime": 1512674256332, "trialdata": {"rt": -1, "stimulus": "<p id=\"stim\">6</p>", "key_press": -1, "trial_type": "single-stim", "trial_index": 14, "time_elapsed": 225414, "internal_node_id": "0.0-10.0-4.0"}}, {"uniqueid": "MTK0727:39GXDJN2OUL2RURV7Z08A3GDFGO8VC", "current_trial": 15, "dateTime": 1512674257334, "trialdata": {"rt": -1, "stimulus": "<p id=\"stim\">5</p>", "key_press": -1, "trial_type": "single-stim", "trial_index": 15, "time_elapsed": 226416, "internal_node_id": "0.0-10.0-5.0"}}, {"uniqueid": "MTK0727:39GXDJN2OUL2RURV7Z08A3GDFGO8VC", "current_trial": 16, "dateTime": 1512674258322, "trialdata": {"rt": -1, "stimulus": "<p id=\"stim\">4</p>", "key_press": -1, "trial_type": "single-stim", "trial_index": 16, "time_elapsed": 227403, "internal_node_id": "0.0-10.0-6.0"}}, {"uniqueid": "MTK0727:39GXDJN2OUL2RURV7Z08A3GDFGO8VC", "current_trial": 17, "dateTime": 1512674259328, "trialdata": {"rt": -1, "stimulus": "<p id=\"stim\">3</p>", "key_press": -1, "trial_type": "single-stim", "trial_index": 17, "time_elapsed": 228409, "internal_node_id": "0.0-10.0-7.0"}}, {"uniqueid": "MTK0727:39GXDJN2OUL2RURV7Z08A3GDFGO8VC", "current_trial": 18, "dateTime": 1512674260326, "trialdata": {"rt": -1, "stimulus": "<p id=\"stim\">2</p>", "key_press": -1, "trial_type": "single-stim", "trial_index": 18, "time_elapsed": 229407, "internal_node_id": "0.0-10.0-8.0"}}, {"uniqueid": "MTK0727:39GXDJN2OUL2RURV7Z08A3GDFGO8VC", "current_trial": 19, "dateTime": 1512674261321, "trialdata": {"rt": -1, "stimulus": "<p id=\"stim\">1</p>", "key_press": -1, "trial_type": "single-stim", "trial_index": 19, "time_elapsed": 230403, "internal_node_id": "0.0-10.0-9.0"}}, {"uniqueid": "MTK0727:39GXDJN2OUL2RURV7Z08A3GDFGO8VC", "current_trial": 20, "dateTime": 1512674262836, "trialdata": {"rt": -1, "stimulus": "<p id=\"stim\">+</p>", "key_press": -1, "type": "FIXATION", "trial_type": "single-stim", "trial_index": 20, "time_elapsed": 231917, "internal_node_id": "0.0-11.0-0.0"}}, {"uniqueid": "MTK0727:39GXDJN2OUL2RURV7Z08A3GDFGO8VC", "current_trial": 21, "dateTime": 1512674264040, "trialdata": {"rt": -1, "stimulus": "<p id=\"stim\">CANAL</p>", "key_press": -1, "type": "PRES_VIS", "word": "canal", "wordID": 225, "conditions": [18, 1200, "v", 18000], "trial": 0, "serialpos": 0, "trial_type": "single-stim", "trial_index": 21, "time_elapsed": 233122, "internal_node_id": "0.0-12.0"}}, {"uniqueid": "MTK0727:39GXDJN2OUL2RURV7Z08A3GDFGO8VC", "current_trial": 22, "dateTime": 1512674266071, "trialdata": {"rt": -1, "stimulus": "<p id=\"stim\">MASK</p>", "key_press": -1, "type": "PRES_VIS", "word": "mask", "wordID": 875, "conditions": [18, 1200, "v", 18000], "trial": 0, "serialpos": 1, "trial_type": "single-stim", "trial_index": 22, "time_elapsed": 235153, "internal_node_id": "0.0-13.0"}}, {"uniqueid": "MTK0727:39GXDJN2OUL2RURV7Z08A3GDFGO8VC", "current_trial": 23, "dateTime": 1512674268404, "trialdata": {"rt": -1, "stimulus": "<p id=\"stim\">UNCLE</p>", "key_press": -1, "type": "PRES_VIS", "word": "uncle", "wordID": 1535, "conditions": [18, 1200, "v", 18000], "trial": 0, "serialpos": 2, "trial_type": "single-stim", "trial_index": 23, "time_elapsed": 237486, "internal_node_id": "0.0-14.0"}}, {"uniqueid": "MTK0727:39GXDJN2OUL2RURV7Z08A3GDFGO8VC", "current_trial": 24, "dateTime": 1512674270504, "trialdata": {"rt": -1, "stimulus": "<p id=\"stim\">MARROW</p>", "key_press": -1, "type": "PRES_VIS", "word": "marrow", "wordID": 871, "conditions": [18, 1200, "v", 18000], "trial": 0, "serialpos": 3, "trial_type": "single-stim", "trial_index": 24, "time_elapsed": 239586, "internal_node_id": "0.0-15.0"}}, {"uniqueid": "MTK0727:39GXDJN2OUL2RURV7Z08A3GDFGO8VC", "current_trial": 25, "dateTime": 1512674272750, "trialdata": {"rt": -1, "stimulus": "<p id=\"stim\">ARM</p>", "key_press": -1, "type": "PRES_VIS", "word": "arm", "wordID": 37, "conditions": [18, 1200, "v", 18000], "trial": 0, "serialpos": 4, "trial_type": "single-stim", "trial_index": 25, "time_elapsed": 241831, "internal_node_id": "0.0-16.0"}}, {"uniqueid": "MTK0727:39GXDJN2OUL2RURV7Z08A3GDFGO8VC", "current_trial": 26, "dateTime": 1512674274831, "trialdata": {"rt": -1, "stimulus": "<p id=\"stim\">AIRPORT</p>", "key_press": -1, "type": "PRES_VIS", "word": "airport", "wordID": 12, "conditions": [18, 1200, "v", 18000], "trial": 0, "serialpos": 5, "trial_type": "single-stim", "trial_index": 26, "time_elapsed": 243913, "internal_node_id": "0.0-17.0"}}, {"uniqueid": "MTK0727:39GXDJN2OUL2RURV7Z08A3GDFGO8VC", "current_trial": 27, "dateTime": 1512674276888, "trialdata": {"rt": -1, "stimulus": "<p id=\"stim\">PARSLEY</p>", "key_press": -1, "type": "PRES_VIS", "word": "parsley", "wordID": 1015, "conditions": [18, 1200, "v", 18000], "trial": 0, "serialpos": 6, "trial_type": "single-stim", "trial_index": 27, "time_elapsed": 245969, "internal_node_id": "0.0-18.0"}}, {"uniqueid": "MTK0727:39GXDJN2OUL2RURV7Z08A3GDFGO8VC", "current_trial": 28, "dateTime": 1512674279193, "trialdata": {"rt": -1, "stimulus": "<p id=\"stim\">STATUE</p>", "key_press": -1, "type": "PRES_VIS", "word": "statue", "wordID": 1373, "conditions": [18, 1200, "v", 18000], "trial": 0, "serialpos": 7, "trial_type": "single-stim", "trial_index": 28, "time_elapsed": 248275, "internal_node_id": "0.0-19.0"}}, {"uniqueid": "MTK0727:39GXDJN2OUL2RURV7Z08A3GDFGO8VC", "current_trial": 29, "dateTime": 1512674281605, "trialdata": {"rt": -1, "stimulus": "<p id=\"stim\">HELMET</p>", "key_press": -1, "type": "PRES_VIS", "word": "helmet", "wordID": 701, "conditions": [18, 1200, "v", 18000], "trial": 0, "serialpos": 8, "trial_type": "single-stim", "trial_index": 29, "time_elapsed": 250686, "internal_node_id": "0.0-20.0"}}, {"uniqueid": "MTK0727:39GXDJN2OUL2RURV7Z08A3GDFGO8VC", "current_trial": 30, "dateTime": 1512674283735, "trialdata": {"rt": -1, "stimulus": "<p id=\"stim\">CHAPEL</p>", "key_press": -1, "type": "PRES_VIS", "word": "chapel", "wordID": 279, "conditions": [18, 1200, "v", 18000], "trial": 0, "serialpos": 9, "trial_type": "single-stim", "trial_index": 30, "time_elapsed": 252817, "internal_node_id": "0.0-21.0"}}, {"uniqueid": "MTK0727:39GXDJN2OUL2RURV7Z08A3GDFGO8VC", "current_trial": 31, "dateTime": 1512674286152, "trialdata": {"rt": -1, "stimulus": "<p id=\"stim\">LOVER</p>", "key_press": -1, "type": "PRES_VIS", "word": "lover", "wordID": 845, "conditions": [18, 1200, "v", 18000], "trial": 0, "serialpos": 10, "trial_type": "single-stim", "trial_index": 31, "time_elapsed": 255233, "internal_node_id": "0.0-22.0"}}, {"uniqueid": "MTK0727:39GXDJN2OUL2RURV7Z08A3GDFGO8VC", "current_trial": 32, "dateTime": 1512674288372, "trialdata": {"rt": -1, "stimulus": "<p id=\"stim\">FRAME</p>", "key_press": -1, "type": "PRES_VIS", "word": "frame", "wordID": 599, "conditions": [18, 1200, "v", 18000], "trial": 0, "serialpos": 11, "trial_type": "single-stim", "trial_index": 32, "time_elapsed": 257454, "internal_node_id": "0.0-23.0"}}, {"uniqueid": "MTK0727:39GXDJN2OUL2RURV7Z08A3GDFGO8VC", "current_trial": 33, "dateTime": 1512674290730, "trialdata": {"rt": -1, "stimulus": "<p id=\"stim\">DRIVER</p>", "key_press": -1, "type": "PRES_VIS", "word": "driver", "wordID": 498, "conditions": [18, 1200, "v", 18000], "trial": 0, "serialpos": 12, "trial_type": "single-stim", "trial_index": 33, "time_elapsed": 259811, "internal_node_id": "0.0-24.0"}}, {"uniqueid": "MTK0727:39GXDJN2OUL2RURV7Z08A3GDFGO8VC", "current_trial": 34, "dateTime": 1512674293152, "trialdata": {"rt": -1, "stimulus": "<p id=\"stim\">CYCLONE</p>", "key_press": -1, "type": "PRES_VIS", "word": "cyclone", "wordID": 430, "conditions": [18, 1200, "v", 18000], "trial": 0, "serialpos": 13, "trial_type": "single-stim", "trial_index": 34, "time_elapsed": 262233, "internal_node_id": "0.0-25.0"}}, {"uniqueid": "MTK0727:39GXDJN2OUL2RURV7Z08A3GDFGO8VC", "current_trial": 35, "dateTime": 1512674295168, "trialdata": {"rt": -1, "stimulus": "<p id=\"stim\">WAITRESS</p>", "key_press": -1, "type": "PRES_VIS", "word": "waitress", "wordID": 1580, "conditions": [18, 1200, "v", 18000], "trial": 0, "serialpos": 14, "trial_type": "single-stim", "trial_index": 35, "time_elapsed": 264250, "internal_node_id": "0.0-26.0"}}, {"uniqueid": "MTK0727:39GXDJN2OUL2RURV7Z08A3GDFGO8VC", "current_trial": 36, "dateTime": 1512674297223, "trialdata": {"rt": -1, "stimulus": "<p id=\"stim\">VICTIM</p>", "key_press": -1, "type": "PRES_VIS", "word": "victim", "wordID": 1561, "conditions": [18, 1200, "v", 18000], "trial": 0, "serialpos": 15, "trial_type": "single-stim", "trial_index": 36, "time_elapsed": 266304, "internal_node_id": "0.0-27.0"}}, {"uniqueid": "MTK0727:39GXDJN2OUL2RURV7Z08A3GDFGO8VC", "current_trial": 37, "dateTime": 1512674299449, "trialdata": {"rt": -1, "stimulus": "<p id=\"stim\">TUTU</p>", "key_press": -1, "type": "PRES_VIS", "word": "tutu", "wordID": 1523, "conditions": [18, 1200, "v", 18000], "trial": 0, "serialpos": 16, "trial_type": "single-stim", "trial_index": 37, "time_elapsed": 268531, "internal_node_id": "0.0-28.0"}}, {"uniqueid": "MTK0727:39GXDJN2OUL2RURV7Z08A3GDFGO8VC", "current_trial": 38, "dateTime": 1512674301603, "trialdata": {"rt": -1, "stimulus": "<p id=\"stim\">KLEENEX</p>", "key_press": -1, "type": "PRES_VIS", "word": "kleenex", "wordID": 781, "conditions": [18, 1200, "v", 18000], "trial": 0, "serialpos": 17, "trial_type": "single-stim", "trial_index": 38, "time_elapsed": 270685, "internal_node_id": "0.0-29.0"}}, {"uniqueid": "MTK0727:39GXDJN2OUL2RURV7Z08A3GDFGO8VC", "current_trial": 39, "dateTime": 1512674304074, "trialdata": {"rt": -1, "stimulus": "", "key_press": -1, "type": "PRE_RECALL_DELAY", "trial_type": "single-stim", "trial_index": 39, "time_elapsed": 273155, "internal_node_id": "0.0-30.0-0.0"}}, {"uniqueid": "MTK0727:39GXDJN2OUL2RURV7Z08A3GDFGO8VC", "current_trial": 40, "dateTime": 1512674304634, "trialdata": {"rt": -1000, "stimulus": "/static/audio/400Hz.wav", "key_press": -1, "type": "PRE_RECALL_ALERT", "trial_type": "single-audio", "trial_index": 40, "time_elapsed": 273715, "internal_node_id": "0.0-31.0"}}, {"uniqueid": "MTK0727:39GXDJN2OUL2RURV7Z08A3GDFGO8VC", "current_trial": 41, "dateTime": 1512674364661, "trialdata": {"rt": [4216, 5848, 9049, 10424, 12840, 16072, 17880, 25896, 52680], "recwords": ["kleenex", "arm", "chapel", "boat", "face", "frame", "lover", "marrow", ""], "type": "FREE_RECALL", "conditions": [18, 1200, "v", 18000], "trial": 0, "trial_type": "free-recall", "trial_index": 41, "time_elapsed": 333734, "internal_node_id": "0.0-32.0-0.0"}}, {"uniqueid": "MTK0727:39GXDJN2OUL2RURV7Z08A3GDFGO8VC", "current_trial": 42, "dateTime": 1512674369881, "trialdata": {"rt": 3201, "key_press": 71, "type": "INSTRUCTIONS", "trial_type": "text", "trial_index": 42, "time_elapsed": 338963, "internal_node_id": "0.0-33.0"}}, {"uniqueid": "MTK0727:39GXDJN2OUL2RURV7Z08A3GDFGO8VC", "current_trial": 43, "dateTime": 1512674389896, "trialdata": {"rt": [2456, 4984, 6552, 8760, 10280, 11800, 14152, 16552], "responses": ["7", "13", "10", "17", "10", "16", "26", "14"], "num1": [1, 4, 2, 1, 4, 9, 8, 2, 7], "num2": [1, 2, 1, 7, 3, 3, 9, 4, 1], "num3": [5, 7, 7, 9, 3, 4, 9, 8, 6], "type": "DISTRACTOR", "conditions": [18, 1200, "a", 18000], "trial": 1, "trial_type": "math-distractor", "trial_index": 43, "time_elapsed": 358978, "internal_node_id": "0.0-34.0"}}, {"uniqueid": "MTK0727:39GXDJN2OUL2RURV7Z08A3GDFGO8VC", "current_trial": 44, "dateTime": 1512674392905, "trialdata": {"rt": -1, "stimulus": "<p id=\"stim\">10</p>", "key_press": -1, "trial_type": "single-stim", "trial_index": 44, "time_elapsed": 361987, "internal_node_id": "0.0-35.0-0.0"}}, {"uniqueid": "MTK0727:39GXDJN2OUL2RURV7Z08A3GDFGO8VC", "current_trial": 45, "dateTime": 1512674393906, "trialdata": {"rt": -1, "stimulus": "<p id=\"stim\">9</p>", "key_press": -1, "trial_type": "single-stim", "trial_index": 45, "time_elapsed": 362988, "internal_node_id": "0.0-35.0-1.0"}}, {"uniqueid": "MTK0727:39GXDJN2OUL2RURV7Z08A3GDFGO8VC", "current_trial": 46, "dateTime": 1512674394913, "trialdata": {"rt": -1, "stimulus": "<p id=\"stim\">8</p>", "key_press": -1, "trial_type": "single-stim", "trial_index": 46, "time_elapsed": 363995, "internal_node_id": "0.0-35.0-2.0"}}, {"uniqueid": "MTK0727:39GXDJN2OUL2RURV7Z08A3GDFGO8VC", "current_trial": 47, "dateTime": 1512674395916, "trialdata": {"rt": -1, "stimulus": "<p id=\"stim\">7</p>", "key_press": -1, "trial_type": "single-stim", "trial_index": 47, "time_elapsed": 364998, "internal_node_id": "0.0-35.0-3.0"}}, {"uniqueid": "MTK0727:39GXDJN2OUL2RURV7Z08A3GDFGO8VC", "current_trial": 48, "dateTime": 1512674396916, "trialdata": {"rt": -1, "stimulus": "<p id=\"stim\">6</p>", "key_press": -1, "trial_type": "single-stim", "trial_index": 48, "time_elapsed": 365998, "internal_node_id": "0.0-35.0-4.0"}}, {"uniqueid": "MTK0727:39GXDJN2OUL2RURV7Z08A3GDFGO8VC", "current_trial": 49, "dateTime": 1512674397914, "trialdata": {"rt": -1, "stimulus": "<p id=\"stim\">5</p>", "key_press": -1, "trial_type": "single-stim", "trial_index": 49, "time_elapsed": 366996, "internal_node_id": "0.0-35.0-5.0"}}, {"uniqueid": "MTK0727:39GXDJN2OUL2RURV7Z08A3GDFGO8VC", "current_trial": 50, "dateTime": 1512674398928, "trialdata": {"rt": -1, "stimulus": "<p id=\"stim\">4</p>", "key_press": -1, "trial_type": "single-stim", "trial_index": 50, "time_elapsed": 368010, "internal_node_id": "0.0-35.0-6.0"}}, {"uniqueid": "MTK0727:39GXDJN2OUL2RURV7Z08A3GDFGO8VC", "current_trial": 51, "dateTime": 1512674399912, "trialdata": {"rt": -1, "stimulus": "<p id=\"stim\">3</p>", "key_press": -1, "trial_type": "single-stim", "trial_index": 51, "time_elapsed": 368994, "internal_node_id": "0.0-35.0-7.0"}}, {"uniqueid": "MTK0727:39GXDJN2OUL2RURV7Z08A3GDFGO8VC", "current_trial": 52, "dateTime": 1512674400915, "trialdata": {"rt": -1, "stimulus": "<p id=\"stim\">2</p>", "key_press": -1, "trial_type": "single-stim", "trial_index": 52, "time_elapsed": 369997, "internal_node_id": "0.0-35.0-8.0"}}, {"uniqueid": "MTK0727:39GXDJN2OUL2RURV7Z08A3GDFGO8VC", "current_trial": 53, "dateTime": 1512674401907, "trialdata": {"rt": -1, "stimulus": "<p id=\"stim\">1</p>", "key_press": -1, "trial_type": "single-stim", "trial_index": 53, "time_elapsed": 370988, "internal_node_id": "0.0-35.0-9.0"}}, {"uniqueid": "MTK0727:39GXDJN2OUL2RURV7Z08A3GDFGO8VC", "current_trial": 54, "dateTime": 1512674403422, "trialdata": {"rt": -1, "stimulus": "<p id=\"stim\">+</p>", "key_press": -1, "type": "FIXATION", "trial_type": "single-stim", "trial_index": 54, "time_elapsed": 372504, "internal_node_id": "0.0-36.0-0.0"}}, {"uniqueid": "MTK0727:39GXDJN2OUL2RURV7Z08A3GDFGO8VC", "current_trial": 55, "dateTime": 1512674405713, "trialdata": {"rt": -1000, "stimulus": "/static/audio/wordpool/ROCKET.wav", "key_press": -1, "type": "PRES_AUD", "word": "rocket", "wordID": 1201, "conditions": [18, 1200, "a", 18000], "trial": 1, "serialpos": 0, "trial_type": "single-audio", "trial_index": 55, "time_elapsed": 374794, "internal_node_id": "0.0-37.0"}}, {"uniqueid": "MTK0727:39GXDJN2OUL2RURV7Z08A3GDFGO8VC", "current_trial": 56, "dateTime": 1512674408044, "trialdata": {"rt": -1000, "stimulus": "/static/audio/wordpool/AWARD.wav", "key_press": -1, "type": "PRES_AUD", "word": "award", "wordID": 62, "conditions": [18, 1200, "a", 18000], "trial": 1, "serialpos": 1, "trial_type": "single-audio", "trial_index": 56, "time_elapsed": 377126, "internal_node_id": "0.0-38.0"}}, {"uniqueid": "MTK0727:39GXDJN2OUL2RURV7Z08A3GDFGO8VC", "current_trial": 57, "dateTime": 1512674410314, "trialdata": {"rt": -1000, "stimulus": "/static/audio/wordpool/SPOON.wav", "key_press": -1, "type": "PRES_AUD", "word": "spoon", "wordID": 1356, "conditions": [18, 1200, "a", 18000], "trial": 1, "serialpos": 2, "trial_type": "single-audio", "trial_index": 57, "time_elapsed": 379396, "internal_node_id": "0.0-39.0"}}, {"uniqueid": "MTK0727:39GXDJN2OUL2RURV7Z08A3GDFGO8VC", "current_trial": 58, "dateTime": 1512674412427, "trialdata": {"rt": -1000, "stimulus": "/static/audio/wordpool/PIGMENT.wav", "key_press": -1, "type": "PRES_AUD", "word": "pigment", "wordID": 1065, "conditions": [18, 1200, "a", 18000], "trial": 1, "serialpos": 3, "trial_type": "single-audio", "trial_index": 58, "time_elapsed": 381509, "internal_node_id": "0.0-40.0"}}, {"uniqueid": "MTK0727:39GXDJN2OUL2RURV7Z08A3GDFGO8VC", "current_trial": 59, "dateTime": 1512674414477, "trialdata": {"rt": -1000, "stimulus": "/static/audio/wordpool/BRIEFCASE.wav", "key_press": -1, "type": "PRES_AUD", "word": "briefcase", "wordID": 174, "conditions": [18, 1200, "a", 18000], "trial": 1, "serialpos": 4, "trial_type": "single-audio", "trial_index": 59, "time_elapsed": 383558, "internal_node_id": "0.0-41.0"}}, {"uniqueid": "MTK0727:39GXDJN2OUL2RURV7Z08A3GDFGO8VC", "current_trial": 60, "dateTime": 1512674416667, "trialdata": {"rt": -1000, "stimulus": "/static/audio/wordpool/PLAZA.wav", "key_press": -1, "type": "PRES_AUD", "word": "plaza", "wordID": 1087, "conditions": [18, 1200, "a", 18000], "trial": 1, "serialpos": 5, "trial_type": "single-audio", "trial_index": 60, "time_elapsed": 385748, "internal_node_id": "0.0-42.0"}}, {"uniqueid": "MTK0727:39GXDJN2OUL2RURV7Z08A3GDFGO8VC", "current_trial": 61, "dateTime": 1512674419000, "trialdata": {"rt": -1000, "stimulus": "/static/audio/wordpool/BEAST.wav", "key_press": -1, "type": "PRES_AUD", "word": "beast", "wordID": 107, "conditions": [18, 1200, "a", 18000], "trial": 1, "serialpos": 6, "trial_type": "single-audio", "trial_index": 61, "time_elapsed": 388082, "internal_node_id": "0.0-43.0"}}, {"uniqueid": "MTK0727:39GXDJN2OUL2RURV7Z08A3GDFGO8VC", "current_trial": 62, "dateTime": 1512674421390, "trialdata": {"rt": -1000, "stimulus": "/static/audio/wordpool/PIGEON.wav", "key_press": -1, "type": "PRES_AUD", "word": "pigeon", "wordID": 1064, "conditions": [18, 1200, "a", 18000], "trial": 1, "serialpos": 7, "trial_type": "single-audio", "trial_index": 62, "time_elapsed": 390471, "internal_node_id": "0.0-44.0"}}, {"uniqueid": "MTK0727:39GXDJN2OUL2RURV7Z08A3GDFGO8VC", "current_trial": 63, "dateTime": 1512674423785, "trialdata": {"rt": -1000, "stimulus": "/static/audio/wordpool/IGLOO.wav", "key_press": -1, "type": "PRES_AUD", "word": "igloo", "wordID": 733, "conditions": [18, 1200, "a", 18000], "trial": 1, "serialpos": 8, "trial_type": "single-audio", "trial_index": 63, "time_elapsed": 392867, "internal_node_id": "0.0-45.0"}}, {"uniqueid": "MTK0727:39GXDJN2OUL2RURV7Z08A3GDFGO8VC", "current_trial": 64, "dateTime": 1512674425813, "trialdata": {"rt": -1000, "stimulus": "/static/audio/wordpool/TURTLE.wav", "key_press": -1, "type": "PRES_AUD", "word": "turtle", "wordID": 1521, "conditions": [18, 1200, "a", 18000], "trial": 1, "serialpos": 9, "trial_type": "single-audio", "trial_index": 64, "time_elapsed": 394895, "internal_node_id": "0.0-46.0"}}, {"uniqueid": "MTK0727:39GXDJN2OUL2RURV7Z08A3GDFGO8VC", "current_trial": 65, "dateTime": 1512674428060, "trialdata": {"rt": -1000, "stimulus": "/static/audio/wordpool/ORCHID.wav", "key_press": -1, "type": "PRES_AUD", "word": "orchid", "wordID": 981, "conditions": [18, 1200, "a", 18000], "trial": 1, "serialpos": 10, "trial_type": "single-audio", "trial_index": 65, "time_elapsed": 397142, "internal_node_id": "0.0-47.0"}}, {"uniqueid": "MTK0727:39GXDJN2OUL2RURV7Z08A3GDFGO8VC", "current_trial": 66, "dateTime": 1512674430079, "trialdata": {"rt": -1000, "stimulus": "/static/audio/wordpool/PLIERS.wav", "key_press": -1, "type": "PRES_AUD", "word": "pliers", "wordID": 1088, "conditions": [18, 1200, "a", 18000], "trial": 1, "serialpos": 11, "trial_type": "single-audio", "trial_index": 66, "time_elapsed": 399161, "internal_node_id": "0.0-48.0"}}, {"uniqueid": "MTK0727:39GXDJN2OUL2RURV7Z08A3GDFGO8VC", "current_trial": 67, "dateTime": 1512674432312, "trialdata": {"rt": -1000, "stimulus": "/static/audio/wordpool/PENGUIN.wav", "key_press": -1, "type": "PRES_AUD", "word": "penguin", "wordID": 1043, "conditions": [18, 1200, "a", 18000], "trial": 1, "serialpos": 12, "trial_type": "single-audio", "trial_index": 67, "time_elapsed": 401393, "internal_node_id": "0.0-49.0"}}, {"uniqueid": "MTK0727:39GXDJN2OUL2RURV7Z08A3GDFGO8VC", "current_trial": 68, "dateTime": 1512674434477, "trialdata": {"rt": -1000, "stimulus": "/static/audio/wordpool/BRANCH.wav", "key_press": -1, "type": "PRES_AUD", "word": "branch", "wordID": 167, "conditions": [18, 1200, "a", 18000], "trial": 1, "serialpos": 13, "trial_type": "single-audio", "trial_index": 68, "time_elapsed": 403559, "internal_node_id": "0.0-50.0"}}, {"uniqueid": "MTK0727:39GXDJN2OUL2RURV7Z08A3GDFGO8VC", "current_trial": 69, "dateTime": 1512674436759, "trialdata": {"rt": -1000, "stimulus": "/static/audio/wordpool/EAGLE.wav", "key_press": -1, "type": "PRES_AUD", "word": "eagle", "wordID": 511, "conditions": [18, 1200, "a", 18000], "trial": 1, "serialpos": 14, "trial_type": "single-audio", "trial_index": 69, "time_elapsed": 405840, "internal_node_id": "0.0-51.0"}}, {"uniqueid": "MTK0727:39GXDJN2OUL2RURV7Z08A3GDFGO8VC", "current_trial": 70, "dateTime": 1512674438872, "trialdata": {"rt": -1000, "stimulus": "/static/audio/wordpool/JOURNAL.wav", "key_press": -1, "type": "PRES_AUD", "word": "journal", "wordID": 759, "conditions": [18, 1200, "a", 18000], "trial": 1, "serialpos": 15, "trial_type": "single-audio", "trial_index": 70, "time_elapsed": 407954, "internal_node_id": "0.0-52.0"}}, {"uniqueid": "MTK0727:39GXDJN2OUL2RURV7Z08A3GDFGO8VC", "current_trial": 71, "dateTime": 1512674441110, "trialdata": {"rt": -1000, "stimulus": "/static/audio/wordpool/LASER.wav", "key_press": -1, "type": "PRES_AUD", "word": "laser", "wordID": 800, "conditions": [18, 1200, "a", 18000], "trial": 1, "serialpos": 16, "trial_type": "single-audio", "trial_index": 71, "time_elapsed": 410191, "internal_node_id": "0.0-53.0"}}, {"uniqueid": "MTK0727:39GXDJN2OUL2RURV7Z08A3GDFGO8VC", "current_trial": 72, "dateTime": 1512674443146, "trialdata": {"rt": -1000, "stimulus": "/static/audio/wordpool/PICNIC.wav", "key_press": -1, "type": "PRES_AUD", "word": "picnic", "wordID": 1059, "conditions": [18, 1200, "a", 18000], "trial": 1, "serialpos": 17, "trial_type": "single-audio", "trial_index": 72, "time_elapsed": 412228, "internal_node_id": "0.0-54.0"}}, {"uniqueid": "MTK0727:39GXDJN2OUL2RURV7Z08A3GDFGO8VC", "current_trial": 73, "dateTime": 1512674444367, "trialdata": {"rt": -1, "stimulus": "", "key_press": -1, "type": "PRE_RECALL_DELAY", "trial_type": "single-stim", "trial_index": 73, "time_elapsed": 413448, "internal_node_id": "0.0-55.0-0.0"}}, {"uniqueid": "MTK0727:39GXDJN2OUL2RURV7Z08A3GDFGO8VC", "current_trial": 74, "dateTime": 1512674444877, "trialdata": {"rt": -1000, "stimulus": "/static/audio/400Hz.wav", "key_press": -1, "type": "PRE_RECALL_ALERT", "trial_type": "single-audio", "trial_index": 74, "time_elapsed": 413959, "internal_node_id": "0.0-56.0"}}, {"uniqueid": "MTK0727:39GXDJN2OUL2RURV7Z08A3GDFGO8VC", "current_trial": 75, "dateTime": 1512674504902, "trialdata": {"rt": [5302, 7687, 9094, 13383, 14886, 20806, 25206, 29734], "recwords": ["eagle", "rocket", "spoon", "branch", "turtle", "pidgeon", "boat", "laser"], "type": "FREE_RECALL", "conditions": [18, 1200, "a", 18000], "trial": 1, "trial_type": "free-recall", "trial_index": 75, "time_elapsed": 473976, "internal_node_id": "0.0-57.0-0.0"}}, {"uniqueid": "MTK0727:39GXDJN2OUL2RURV7Z08A3GDFGO8VC", "current_trial": 76, "dateTime": 1512674516206, "trialdata": {"rt": 9288, "key_press": 71, "type": "INSTRUCTIONS", "trial_type": "text", "trial_index": 76, "time_elapsed": 485281, "internal_node_id": "0.0-58.0"}}, {"uniqueid": "MTK0727:39GXDJN2OUL2RURV7Z08A3GDFGO8VC", "current_trial": 77, "dateTime": 1512674529218, "trialdata": {"rt": [2391, 4263, 5815, 7399, 9064, 11047], "responses": ["10", "14", "8", "12", "14", "17"], "num1": [5, 4, 5, 5, 7, 2, 6], "num2": [4, 9, 2, 3, 4, 6, 1], "num3": [1, 2, 1, 4, 3, 9, 8], "type": "DISTRACTOR", "conditions": [12, 800, "v", 12000], "trial": 2, "trial_type": "math-distractor", "trial_index": 77, "time_elapsed": 498299, "internal_node_id": "0.0-59.0"}}, {"uniqueid": "MTK0727:39GXDJN2OUL2RURV7Z08A3GDFGO8VC", "current_trial": 78, "dateTime": 1512674532244, "trialdata": {"rt": -1, "stimulus": "<p id=\"stim\">10</p>", "key_press": -1, "trial_type": "single-stim", "trial_index": 78, "time_elapsed": 501325, "internal_node_id": "0.0-60.0-0.0"}}, {"uniqueid": "MTK0727:39GXDJN2OUL2RURV7Z08A3GDFGO8VC", "current_trial": 79, "dateTime": 1512674533243, "trialdata": {"rt": -1, "stimulus": "<p id=\"stim\">9</p>", "key_press": -1, "trial_type": "single-stim", "trial_index": 79, "time_elapsed": 502324, "internal_node_id": "0.0-60.0-1.0"}}, {"uniqueid": "MTK0727:39GXDJN2OUL2RURV7Z08A3GDFGO8VC", "current_trial": 80, "dateTime": 1512674534229, "trialdata": {"rt": -1, "stimulus": "<p id=\"stim\">8</p>", "key_press": -1, "trial_type": "single-stim", "trial_index": 80, "time_elapsed": 503311, "internal_node_id": "0.0-60.0-2.0"}}, {"uniqueid": "MTK0727:39GXDJN2OUL2RURV7Z08A3GDFGO8VC", "current_trial": 81, "dateTime": 1512674535241, "trialdata": {"rt": -1, "stimulus": "<p id=\"stim\">7</p>", "key_press": -1, "trial_type": "single-stim", "trial_index": 81, "time_elapsed": 504323, "internal_node_id": "0.0-60.0-3.0"}}, {"uniqueid": "MTK0727:39GXDJN2OUL2RURV7Z08A3GDFGO8VC", "current_trial": 82, "dateTime": 1512674536242, "trialdata": {"rt": -1, "stimulus": "<p id=\"stim\">6</p>", "key_press": -1, "trial_type": "single-stim", "trial_index": 82, "time_elapsed": 505323, "internal_node_id": "0.0-60.0-4.0"}}, {"uniqueid": "MTK0727:39GXDJN2OUL2RURV7Z08A3GDFGO8VC", "current_trial": 83, "dateTime": 1512674537243, "trialdata": {"rt": -1, "stimulus": "<p id=\"stim\">5</p>", "key_press": -1, "trial_type": "single-stim", "trial_index": 83, "time_elapsed": 506325, "internal_node_id": "0.0-60.0-5.0"}}, {"uniqueid": "MTK0727:39GXDJN2OUL2RURV7Z08A3GDFGO8VC", "current_trial": 84, "dateTime": 1512674538246, "trialdata": {"rt": -1, "stimulus": "<p id=\"stim\">4</p>", "key_press": -1, "trial_type": "single-stim", "trial_index": 84, "time_elapsed": 507327, "internal_node_id": "0.0-60.0-6.0"}}, {"uniqueid": "MTK0727:39GXDJN2OUL2RURV7Z08A3GDFGO8VC", "current_trial": 85, "dateTime": 1512674539234, "trialdata": {"rt": -1, "stimulus": "<p id=\"stim\">3</p>", "key_press": -1, "trial_type": "single-stim", "trial_index": 85, "time_elapsed": 508316, "internal_node_id": "0.0-60.0-7.0"}}, {"uniqueid": "MTK0727:39GXDJN2OUL2RURV7Z08A3GDFGO8VC", "current_trial": 86, "dateTime": 1512674540238, "trialdata": {"rt": -1, "stimulus": "<p id=\"stim\">2</p>", "key_press": -1, "trial_type": "single-stim", "trial_index": 86, "time_elapsed": 509319, "internal_node_id": "0.0-60.0-8.0"}}, {"uniqueid": "MTK0727:39GXDJN2OUL2RURV7Z08A3GDFGO8VC", "current_trial": 87, "dateTime": 1512674541230, "trialdata": {"rt": -1, "stimulus": "<p id=\"stim\">1</p>", "key_press": -1, "trial_type": "single-stim", "trial_index": 87, "time_elapsed": 510311, "internal_node_id": "0.0-60.0-9.0"}}, {"uniqueid": "MTK0727:39GXDJN2OUL2RURV7Z08A3GDFGO8VC", "current_trial": 88, "dateTime": 1512674542744, "trialdata": {"rt": -1, "stimulus": "<p id=\"stim\">+</p>", "key_press": -1, "type": "FIXATION", "trial_type": "single-stim", "trial_index": 88, "time_elapsed": 511826, "internal_node_id": "0.0-61.0-0.0"}}, {"uniqueid": "MTK0727:39GXDJN2OUL2RURV7Z08A3GDFGO8VC", "current_trial": 89, "dateTime": 1512674543556, "trialdata": {"rt": -1, "stimulus": "<p id=\"stim\">CATTLE</p>", "key_press": -1, "type": "PRES_VIS", "word": "cattle", "wordID": 260, "conditions": [12, 800, "v", 12000], "trial": 2, "serialpos": 0, "trial_type": "single-stim", "trial_index": 89, "time_elapsed": 512638, "internal_node_id": "0.0-62.0"}}, {"uniqueid": "MTK0727:39GXDJN2OUL2RURV7Z08A3GDFGO8VC", "current_trial": 90, "dateTime": 1512674545537, "trialdata": {"rt": -1, "stimulus": "<p id=\"stim\">HORNET</p>", "key_press": -1, "type": "PRES_VIS", "word": "hornet", "wordID": 717, "conditions": [12, 800, "v", 12000], "trial": 2, "serialpos": 1, "trial_type": "single-stim", "trial_index": 90, "time_elapsed": 514619, "internal_node_id": "0.0-63.0"}}, {"uniqueid": "MTK0727:39GXDJN2OUL2RURV7Z08A3GDFGO8VC", "current_trial": 91, "dateTime": 1512674547238, "trialdata": {"rt": -1, "stimulus": "<p id=\"stim\">LEADER</p>", "key_press": -1, "type": "PRES_VIS", "word": "leader", "wordID": 806, "conditions": [12, 800, "v", 12000], "trial": 2, "serialpos": 2, "trial_type": "single-stim", "trial_index": 91, "time_elapsed": 516320, "internal_node_id": "0.0-64.0"}}, {"uniqueid": "MTK0727:39GXDJN2OUL2RURV7Z08A3GDFGO8VC", "current_trial": 92, "dateTime": 1512674549126, "trialdata": {"rt": -1, "stimulus": "<p id=\"stim\">HATCHET</p>", "key_press": -1, "type": "PRES_VIS", "word": "hatchet", "wordID": 690, "conditions": [12, 800, "v", 12000], "trial": 2, "serialpos": 3, "trial_type": "single-stim", "trial_index": 92, "time_elapsed": 518208, "internal_node_id": "0.0-65.0"}}, {"uniqueid": "MTK0727:39GXDJN2OUL2RURV7Z08A3GDFGO8VC", "current_trial": 93, "dateTime": 1512674550883, "trialdata": {"rt": -1, "stimulus": "<p id=\"stim\">SUMMIT</p>", "key_press": -1, "type": "PRES_VIS", "word": "summit", "wordID": 1404, "conditions": [12, 800, "v", 12000], "trial": 2, "serialpos": 4, "trial_type": "single-stim", "trial_index": 93, "time_elapsed": 519965, "internal_node_id": "0.0-66.0"}}, {"uniqueid": "MTK0727:39GXDJN2OUL2RURV7Z08A3GDFGO8VC", "current_trial": 94, "dateTime": 1512674552708, "trialdata": {"rt": -1, "stimulus": "<p id=\"stim\">BEAVER</p>", "key_press": -1, "type": "PRES_VIS", "word": "beaver", "wordID": 108, "conditions": [12, 800, "v", 12000], "trial": 2, "serialpos": 5, "trial_type": "single-stim", "trial_index": 94, "time_elapsed": 521790, "internal_node_id": "0.0-67.0"}}, {"uniqueid": "MTK0727:39GXDJN2OUL2RURV7Z08A3GDFGO8VC", "current_trial": 95, "dateTime": 1512674554690, "trialdata": {"rt": -1, "stimulus": "<p id=\"stim\">GIRL</p>", "key_press": -1, "type": "PRES_VIS", "word": "girl", "wordID": 636, "conditions": [12, 800, "v", 12000], "trial": 2, "serialpos": 6, "trial_type": "single-stim", "trial_index": 95, "time_elapsed": 523772, "internal_node_id": "0.0-68.0"}}, {"uniqueid": "MTK0727:39GXDJN2OUL2RURV7Z08A3GDFGO8VC", "current_trial": 96, "dateTime": 1512674556564, "trialdata": {"rt": -1, "stimulus": "<p id=\"stim\">WOMAN</p>", "key_press": -1, "type": "PRES_VIS", "word": "woman", "wordID": 1619, "conditions": [12, 800, "v", 12000], "trial": 2, "serialpos": 7, "trial_type": "single-stim", "trial_index": 96, "time_elapsed": 525646, "internal_node_id": "0.0-69.0"}}, {"uniqueid": "MTK0727:39GXDJN2OUL2RURV7Z08A3GDFGO8VC", "current_trial": 97, "dateTime": 1512674558324, "trialdata": {"rt": -1, "stimulus": "<p id=\"stim\">BEEF</p>", "key_press": -1, "type": "PRES_VIS", "word": "beef", "wordID": 112, "conditions": [12, 800, "v", 12000], "trial": 2, "serialpos": 8, "trial_type": "single-stim", "trial_index": 97, "time_elapsed": 527406, "internal_node_id": "0.0-70.0"}}, {"uniqueid": "MTK0727:39GXDJN2OUL2RURV7Z08A3GDFGO8VC", "current_trial": 98, "dateTime": 1512674560140, "trialdata": {"rt": -1, "stimulus": "<p id=\"stim\">TEMPLE</p>", "key_press": -1, "type": "PRES_VIS", "word": "temple", "wordID": 1447, "conditions": [12, 800, "v", 12000], "trial": 2, "serialpos": 9, "trial_type": "single-stim", "trial_index": 98, "time_elapsed": 529222, "internal_node_id": "0.0-71.0"}}, {"uniqueid": "MTK0727:39GXDJN2OUL2RURV7Z08A3GDFGO8VC", "current_trial": 99, "dateTime": 1512674562071, "trialdata": {"rt": -1, "stimulus": "<p id=\"stim\">MARS</p>", "key_press": -1, "type": "PRES_VIS", "word": "mars", "wordID": 872, "conditions": [12, 800, "v", 12000], "trial": 2, "serialpos": 10, "trial_type": "single-stim", "trial_index": 99, "time_elapsed": 531152, "internal_node_id": "0.0-72.0"}}, {"uniqueid": "MTK0727:39GXDJN2OUL2RURV7Z08A3GDFGO8VC", "current_trial": 100, "dateTime": 1512674563883, "trialdata": {"rt": -1, "stimulus": "<p id=\"stim\">HAMPER</p>", "key_press": -1, "type": "PRES_VIS", "word": "hamper", "wordID": 681, "conditions": [12, 800, "v", 12000], "trial": 2, "serialpos": 11, "trial_type": "single-stim", "trial_index": 100, "time_elapsed": 532965, "internal_node_id": "0.0-73.0"}}, {"uniqueid": "MTK0727:39GXDJN2OUL2RURV7Z08A3GDFGO8VC", "current_trial": 101, "dateTime": 1512674566294, "trialdata": {"rt": -1, "stimulus": "", "key_press": -1, "type": "PRE_RECALL_DELAY", "trial_type": "single-stim", "trial_index": 101, "time_elapsed": 535376, "internal_node_id": "0.0-74.0-0.0"}}, {"uniqueid": "MTK0727:39GXDJN2OUL2RURV7Z08A3GDFGO8VC", "current_trial": 102, "dateTime": 1512674566801, "trialdata": {"rt": -1000, "stimulus": "/static/audio/400Hz.wav", "key_press": -1, "type": "PRE_RECALL_ALERT", "trial_type": "single-audio", "trial_index": 102, "time_elapsed": 535882, "internal_node_id": "0.0-75.0"}}, {"uniqueid": "MTK0727:39GXDJN2OUL2RURV7Z08A3GDFGO8VC", "current_trial": 103, "dateTime": 1512674626827, "trialdata": {"rt": [2190, 4190, 5342, 6606, 8318, 12367, 13518, 15070], "recwords": ["mars", "hamper", "cattle", "beef", "temple", "hornet", "girl", "woman"], "type": "FREE_RECALL", "conditions": [12, 800, "v", 12000], "trial": 2, "trial_type": "free-recall", "trial_index": 103, "time_elapsed": 595900, "internal_node_id": "0.0-76.0-0.0"}}, {"uniqueid": "MTK0727:39GXDJN2OUL2RURV7Z08A3GDFGO8VC", "current_trial": 104, "dateTime": 1512674630774, "trialdata": {"rt": 1932, "key_press": 72, "type": "INSTRUCTIONS", "trial_type": "text", "trial_index": 104, "time_elapsed": 599855, "internal_node_id": "0.0-77.0"}}, {"uniqueid": "MTK0727:39GXDJN2OUL2RURV7Z08A3GDFGO8VC", "current_trial": 105, "dateTime": 1512674656782, "trialdata": {"rt": [1436, 3516, 4908, 6044, 8044, 9676, 11692, 13500, 15228, 16588, 18092, 20012, 21900, 23756], "responses": ["11", "19", "10", "5", "20", "20", "16", "18", "6", "5", "9", "20", "12", "12"], "num1": [6, 7, 3, 2, 7, 9, 3, 1, 1, 1, 5, 6, 5, 5, 7], "num2": [4, 6, 3, 2, 7, 9, 9, 9, 3, 1, 3, 9, 4, 2, 2], "num3": [1, 6, 4, 1, 6, 2, 4, 8, 2, 3, 1, 5, 3, 5, 6], "type": "DISTRACTOR", "conditions": [24, 1600, "v", 24000], "trial": 3, "trial_type": "math-distractor", "trial_index": 105, "time_elapsed": 625864, "internal_node_id": "0.0-78.0"}}, {"uniqueid": "MTK0727:39GXDJN2OUL2RURV7Z08A3GDFGO8VC", "current_trial": 106, "dateTime": 1512674659804, "trialdata": {"rt": -1, "stimulus": "<p id=\"stim\">10</p>", "key_press": -1, "trial_type": "single-stim", "trial_index": 106, "time_elapsed": 628885, "internal_node_id": "0.0-79.0-0.0"}}, {"uniqueid": "MTK0727:39GXDJN2OUL2RURV7Z08A3GDFGO8VC", "current_trial": 107, "dateTime": 1512674660804, "trialdata": {"rt": -1, "stimulus": "<p id=\"stim\">9</p>", "key_press": -1, "trial_type": "single-stim", "trial_index": 107, "time_elapsed": 629886, "internal_node_id": "0.0-79.0-1.0"}}, {"uniqueid": "MTK0727:39GXDJN2OUL2RURV7Z08A3GDFGO8VC", "current_trial": 108, "dateTime": 1512674661806, "trialdata": {"rt": -1, "stimulus": "<p id=\"stim\">8</p>", "key_press": -1, "trial_type": "single-stim", "trial_index": 108, "time_elapsed": 630887, "internal_node_id": "0.0-79.0-2.0"}}, {"uniqueid": "MTK0727:39GXDJN2OUL2RURV7Z08A3GDFGO8VC", "current_trial": 109, "dateTime": 1512674662807, "trialdata": {"rt": -1, "stimulus": "<p id=\"stim\">7</p>", "key_press": -1, "trial_type": "single-stim", "trial_index": 109, "time_elapsed": 631889, "internal_node_id": "0.0-79.0-3.0"}}, {"uniqueid": "MTK0727:39GXDJN2OUL2RURV7Z08A3GDFGO8VC", "current_trial": 110, "dateTime": 1512674663796, "trialdata": {"rt": -1, "stimulus": "<p id=\"stim\">6</p>", "key_press": -1, "trial_type": "single-stim", "trial_index": 110, "time_elapsed": 632878, "internal_node_id": "0.0-79.0-4.0"}}, {"uniqueid": "MTK0727:39GXDJN2OUL2RURV7Z08A3GDFGO8VC", "current_trial": 111, "dateTime": 1512674664800, "trialdata": {"rt": -1, "stimulus": "<p id=\"stim\">5</p>", "key_press": -1, "trial_type": "single-stim", "trial_index": 111, "time_elapsed": 633882, "internal_node_id": "0.0-79.0-5.0"}}, {"uniqueid": "MTK0727:39GXDJN2OUL2RURV7Z08A3GDFGO8VC", "current_trial": 112, "dateTime": 1512674665807, "trialdata": {"rt": -1, "stimulus": "<p id=\"stim\">4</p>", "key_press": -1, "trial_type": "single-stim", "trial_index": 112, "time_elapsed": 634888, "internal_node_id": "0.0-79.0-6.0"}}, {"uniqueid": "MTK0727:39GXDJN2OUL2RURV7Z08A3GDFGO8VC", "current_trial": 113, "dateTime": 1512674666809, "trialdata": {"rt": -1, "stimulus": "<p id=\"stim\">3</p>", "key_press": -1, "trial_type": "single-stim", "trial_index": 113, "time_elapsed": 635890, "internal_node_id": "0.0-79.0-7.0"}}, {"uniqueid": "MTK0727:39GXDJN2OUL2RURV7Z08A3GDFGO8VC", "current_trial": 114, "dateTime": 1512674667807, "trialdata": {"rt": -1, "stimulus": "<p id=\"stim\">2</p>", "key_press": -1, "trial_type": "single-stim", "trial_index": 114, "time_elapsed": 636889, "internal_node_id": "0.0-79.0-8.0"}}, {"uniqueid": "MTK0727:39GXDJN2OUL2RURV7Z08A3GDFGO8VC", "current_trial": 115, "dateTime": 1512674668804, "trialdata": {"rt": -1, "stimulus": "<p id=\"stim\">1</p>", "key_press": -1, "trial_type": "single-stim", "trial_index": 115, "time_elapsed": 637885, "internal_node_id": "0.0-79.0-9.0"}}, {"uniqueid": "MTK0727:39GXDJN2OUL2RURV7Z08A3GDFGO8VC", "current_trial": 116, "dateTime": 1512674670317, "trialdata": {"rt": -1, "stimulus": "<p id=\"stim\">+</p>", "key_press": -1, "type": "FIXATION", "trial_type": "single-stim", "trial_index": 116, "time_elapsed": 639398, "internal_node_id": "0.0-80.0-0.0"}}, {"uniqueid": "MTK0727:39GXDJN2OUL2RURV7Z08A3GDFGO8VC", "current_trial": 117, "dateTime": 1512674671917, "trialdata": {"rt": -1, "stimulus": "<p id=\"stim\">BUG</p>", "key_press": -1, "type": "PRES_VIS", "word": "bug", "wordID": 186, "conditions": [24, 1600, "v", 24000], "trial": 3, "serialpos": 0, "trial_type": "single-stim", "trial_index": 117, "time_elapsed": 640999, "internal_node_id": "0.0-81.0"}}, {"uniqueid": "MTK0727:39GXDJN2OUL2RURV7Z08A3GDFGO8VC", "current_trial": 118, "dateTime": 1512674674683, "trialdata": {"rt": -1, "stimulus": "<p id=\"stim\">WIDOW</p>", "key_press": -1, "type": "PRES_VIS", "word": "widow", "wordID": 1607, "conditions": [24, 1600, "v", 24000], "trial": 3, "serialpos": 1, "trial_type": "single-stim", "trial_index": 118, "time_elapsed": 643764, "internal_node_id": "0.0-82.0"}}, {"uniqueid": "MTK0727:39GXDJN2OUL2RURV7Z08A3GDFGO8VC", "current_trial": 119, "dateTime": 1512674677237, "trialdata": {"rt": -1, "stimulus": "<p id=\"stim\">HUSBAND</p>", "key_press": -1, "type": "PRES_VIS", "word": "husband", "wordID": 727, "conditions": [24, 1600, "v", 24000], "trial": 3, "serialpos": 2, "trial_type": "single-stim", "trial_index": 119, "time_elapsed": 646318, "internal_node_id": "0.0-83.0"}}, {"uniqueid": "MTK0727:39GXDJN2OUL2RURV7Z08A3GDFGO8VC", "current_trial": 120, "dateTime": 1512674679955, "trialdata": {"rt": -1, "stimulus": "<p id=\"stim\">STUDENT</p>", "key_press": -1, "type": "PRES_VIS", "word": "student", "wordID": 1394, "conditions": [24, 1600, "v", 24000], "trial": 3, "serialpos": 3, "trial_type": "single-stim", "trial_index": 120, "time_elapsed": 649036, "internal_node_id": "0.0-84.0"}}, {"uniqueid": "MTK0727:39GXDJN2OUL2RURV7Z08A3GDFGO8VC", "current_trial": 121, "dateTime": 1512674682613, "trialdata": {"rt": -1, "stimulus": "<p id=\"stim\">SPARROW</p>", "key_press": -1, "type": "PRES_VIS", "word": "sparrow", "wordID": 1346, "conditions": [24, 1600, "v", 24000], "trial": 3, "serialpos": 4, "trial_type": "single-stim", "trial_index": 121, "time_elapsed": 651695, "internal_node_id": "0.0-85.0"}}, {"uniqueid": "MTK0727:39GXDJN2OUL2RURV7Z08A3GDFGO8VC", "current_trial": 122, "dateTime": 1512674685040, "trialdata": {"rt": -1, "stimulus": "<p id=\"stim\">BRICK</p>", "key_press": -1, "type": "PRES_VIS", "word": "brick", "wordID": 171, "conditions": [24, 1600, "v", 24000], "trial": 3, "serialpos": 5, "trial_type": "single-stim", "trial_index": 122, "time_elapsed": 654122, "internal_node_id": "0.0-86.0"}}, {"uniqueid": "MTK0727:39GXDJN2OUL2RURV7Z08A3GDFGO8VC", "current_trial": 123, "dateTime": 1512674687800, "trialdata": {"rt": -1, "stimulus": "<p id=\"stim\">SPIDER</p>", "key_press": -1, "type": "PRES_VIS", "word": "spider", "wordID": 1350, "conditions": [24, 1600, "v", 24000], "trial": 3, "serialpos": 6, "trial_type": "single-stim", "trial_index": 123, "time_elapsed": 656882, "internal_node_id": "0.0-87.0"}}, {"uniqueid": "MTK0727:39GXDJN2OUL2RURV7Z08A3GDFGO8VC", "current_trial": 124, "dateTime": 1512674690229, "trialdata": {"rt": -1, "stimulus": "<p id=\"stim\">LAKE</p>", "key_press": -1, "type": "PRES_VIS", "word": "lake", "wordID": 795, "conditions": [24, 1600, "v", 24000], "trial": 3, "serialpos": 7, "trial_type": "single-stim", "trial_index": 124, "time_elapsed": 659311, "internal_node_id": "0.0-88.0"}}, {"uniqueid": "MTK0727:39GXDJN2OUL2RURV7Z08A3GDFGO8VC", "current_trial": 125, "dateTime": 1512674692819, "trialdata": {"rt": -1, "stimulus": "<p id=\"stim\">SUSPECT</p>", "key_press": -1, "type": "PRES_VIS", "word": "suspect", "wordID": 1414, "conditions": [24, 1600, "v", 24000], "trial": 3, "serialpos": 8, "trial_type": "single-stim", "trial_index": 125, "time_elapsed": 661900, "internal_node_id": "0.0-89.0"}}, {"uniqueid": "MTK0727:39GXDJN2OUL2RURV7Z08A3GDFGO8VC", "current_trial": 126, "dateTime": 1512674695466, "trialdata": {"rt": -1, "stimulus": "<p id=\"stim\">THIEF</p>", "key_press": -1, "type": "PRES_VIS", "word": "thief", "wordID": 1455, "conditions": [24, 1600, "v", 24000], "trial": 3, "serialpos": 9, "trial_type": "single-stim", "trial_index": 126, "time_elapsed": 664547, "internal_node_id": "0.0-90.0"}}, {"uniqueid": "MTK0727:39GXDJN2OUL2RURV7Z08A3GDFGO8VC", "current_trial": 127, "dateTime": 1512674698049, "trialdata": {"rt": -1, "stimulus": "<p id=\"stim\">TEACHER</p>", "key_press": -1, "type": "PRES_VIS", "word": "teacher", "wordID": 1439, "conditions": [24, 1600, "v", 24000], "trial": 3, "serialpos": 10, "trial_type": "single-stim", "trial_index": 127, "time_elapsed": 667130, "internal_node_id": "0.0-91.0"}}, {"uniqueid": "MTK0727:39GXDJN2OUL2RURV7Z08A3GDFGO8VC", "current_trial": 128, "dateTime": 1512674700731, "trialdata": {"rt": -1, "stimulus": "<p id=\"stim\">PIANO</p>", "key_press": -1, "type": "PRES_VIS", "word": "piano", "wordID": 1056, "conditions": [24, 1600, "v", 24000], "trial": 3, "serialpos": 11, "trial_type": "single-stim", "trial_index": 128, "time_elapsed": 669812, "internal_node_id": "0.0-92.0"}}, {"uniqueid": "MTK0727:39GXDJN2OUL2RURV7Z08A3GDFGO8VC", "current_trial": 129, "dateTime": 1512674703299, "trialdata": {"rt": -1, "stimulus": "<p id=\"stim\">WORLD</p>", "key_press": -1, "type": "PRES_VIS", "word": "world", "wordID": 1621, "conditions": [24, 1600, "v", 24000], "trial": 3, "serialpos": 12, "trial_type": "single-stim", "trial_index": 129, "time_elapsed": 672381, "internal_node_id": "0.0-93.0"}}, {"uniqueid": "MTK0727:39GXDJN2OUL2RURV7Z08A3GDFGO8VC", "current_trial": 130, "dateTime": 1512674705949, "trialdata": {"rt": -1, "stimulus": "<p id=\"stim\">PASTRY</p>", "key_press": -1, "type": "PRES_VIS", "word": "pastry", "wordID": 1021, "conditions": [24, 1600, "v", 24000], "trial": 3, "serialpos": 13, "trial_type": "single-stim", "trial_index": 130, "time_elapsed": 675030, "internal_node_id": "0.0-94.0"}}, {"uniqueid": "MTK0727:39GXDJN2OUL2RURV7Z08A3GDFGO8VC", "current_trial": 131, "dateTime": 1512674708390, "trialdata": {"rt": -1, "stimulus": "<p id=\"stim\">CUSTARD</p>", "key_press": -1, "type": "PRES_VIS", "word": "custard", "wordID": 428, "conditions": [24, 1600, "v", 24000], "trial": 3, "serialpos": 14, "trial_type": "single-stim", "trial_index": 131, "time_elapsed": 677472, "internal_node_id": "0.0-95.0"}}, {"uniqueid": "MTK0727:39GXDJN2OUL2RURV7Z08A3GDFGO8VC", "current_trial": 132, "dateTime": 1512674711132, "trialdata": {"rt": -1, "stimulus": "<p id=\"stim\">SPOUSE</p>", "key_press": -1, "type": "PRES_VIS", "word": "spouse", "wordID": 1357, "conditions": [24, 1600, "v", 24000], "trial": 3, "serialpos": 15, "trial_type": "single-stim", "trial_index": 132, "time_elapsed": 680214, "internal_node_id": "0.0-96.0"}}, {"uniqueid": "MTK0727:39GXDJN2OUL2RURV7Z08A3GDFGO8VC", "current_trial": 133, "dateTime": 1512674713802, "trialdata": {"rt": -1, "stimulus": "<p id=\"stim\">POET</p>", "key_press": -1, "type": "PRES_VIS", "word": "poet", "wordID": 1094, "conditions": [24, 1600, "v", 24000], "trial": 3, "serialpos": 16, "trial_type": "single-stim", "trial_index": 133, "time_elapsed": 682884, "internal_node_id": "0.0-97.0"}}, {"uniqueid": "MTK0727:39GXDJN2OUL2RURV7Z08A3GDFGO8VC", "current_trial": 134, "dateTime": 1512674716550, "trialdata": {"rt": -1, "stimulus": "<p id=\"stim\">SCRIBBLE</p>", "key_press": -1, "type": "PRES_VIS", "word": "scribble", "wordID": 1255, "conditions": [24, 1600, "v", 24000], "trial": 3, "serialpos": 17, "trial_type": "single-stim", "trial_index": 134, "time_elapsed": 685632, "internal_node_id": "0.0-98.0"}}, {"uniqueid": "MTK0727:39GXDJN2OUL2RURV7Z08A3GDFGO8VC", "current_trial": 135, "dateTime": 1512674719196, "trialdata": {"rt": -1, "stimulus": "<p id=\"stim\">FIDDLE</p>", "key_press": -1, "type": "PRES_VIS", "word": "fiddle", "wordID": 560, "conditions": [24, 1600, "v", 24000], "trial": 3, "serialpos": 18, "trial_type": "single-stim", "trial_index": 135, "time_elapsed": 688278, "internal_node_id": "0.0-99.0"}}, {"uniqueid": "MTK0727:39GXDJN2OUL2RURV7Z08A3GDFGO8VC", "current_trial": 136, "dateTime": 1512674721671, "trialdata": {"rt": -1, "stimulus": "<p id=\"stim\">RECEIPT</p>", "key_press": -1, "type": "PRES_VIS", "word": "receipt", "wordID": 1172, "conditions": [24, 1600, "v", 24000], "trial": 3, "serialpos": 19, "trial_type": "single-stim", "trial_index": 136, "time_elapsed": 690752, "internal_node_id": "0.0-100.0"}}, {"uniqueid": "MTK0727:39GXDJN2OUL2RURV7Z08A3GDFGO8VC", "current_trial": 137, "dateTime": 1512674724201, "trialdata": {"rt": -1, "stimulus": "<p id=\"stim\">DOLPHIN</p>", "key_press": -1, "type": "PRES_VIS", "word": "dolphin", "wordID": 482, "conditions": [24, 1600, "v", 24000], "trial": 3, "serialpos": 20, "trial_type": "single-stim", "trial_index": 137, "time_elapsed": 693283, "internal_node_id": "0.0-101.0"}}, {"uniqueid": "MTK0727:39GXDJN2OUL2RURV7Z08A3GDFGO8VC", "current_trial": 138, "dateTime": 1512674726851, "trialdata": {"rt": -1, "stimulus": "<p id=\"stim\">GYMNAST</p>", "key_press": -1, "type": "PRES_VIS", "word": "gymnast", "wordID": 674, "conditions": [24, 1600, "v", 24000], "trial": 3, "serialpos": 21, "trial_type": "single-stim", "trial_index": 138, "time_elapsed": 695932, "internal_node_id": "0.0-102.0"}}, {"uniqueid": "MTK0727:39GXDJN2OUL2RURV7Z08A3GDFGO8VC", "current_trial": 139, "dateTime": 1512674729637, "trialdata": {"rt": -1, "stimulus": "<p id=\"stim\">GALLON</p>", "key_press": -1, "type": "PRES_VIS", "word": "gallon", "wordID": 617, "conditions": [24, 1600, "v", 24000], "trial": 3, "serialpos": 22, "trial_type": "single-stim", "trial_index": 139, "time_elapsed": 698719, "internal_node_id": "0.0-103.0"}}, {"uniqueid": "MTK0727:39GXDJN2OUL2RURV7Z08A3GDFGO8VC", "current_trial": 140, "dateTime": 1512674732307, "trialdata": {"rt": -1, "stimulus": "<p id=\"stim\">SHARK</p>", "key_press": -1, "type": "PRES_VIS", "word": "shark", "wordID": 1274, "conditions": [24, 1600, "v", 24000], "trial": 3, "serialpos": 23, "trial_type": "single-stim", "trial_index": 140, "time_elapsed": 701389, "internal_node_id": "0.0-104.0"}}, {"uniqueid": "MTK0727:39GXDJN2OUL2RURV7Z08A3GDFGO8VC", "current_trial": 141, "dateTime": 1512674734647, "trialdata": {"rt": -1, "stimulus": "", "key_press": -1, "type": "PRE_RECALL_DELAY", "trial_type": "single-stim", "trial_index": 141, "time_elapsed": 703729, "internal_node_id": "0.0-105.0-0.0"}}, {"uniqueid": "MTK0727:39GXDJN2OUL2RURV7Z08A3GDFGO8VC", "current_trial": 142, "dateTime": 1512674735153, "trialdata": {"rt": -1000, "stimulus": "/static/audio/400Hz.wav", "key_press": -1, "type": "PRE_RECALL_ALERT", "trial_type": "single-audio", "trial_index": 142, "time_elapsed": 704235, "internal_node_id": "0.0-106.0"}}, {"uniqueid": "MTK0727:39GXDJN2OUL2RURV7Z08A3GDFGO8VC", "current_trial": 143, "dateTime": 1512674795174, "trialdata": {"rt": [3554, 4834, 6242, 9618, 11458, 13666, 25826], "recwords": ["gallon", "shark", "thief", "widow", "spider", "husband", "riddle"], "type": "FREE_RECALL", "conditions": [24, 1600, "v", 24000], "trial": 3, "trial_type": "free-recall", "trial_index": 143, "time_elapsed": 764252, "internal_node_id": "0.0-107.0-0.0"}}, {"uniqueid": "MTK0727:39GXDJN2OUL2RURV7Z08A3GDFGO8VC", "current_trial": 144, "dateTime": 1512674798934, "trialdata": {"rt": 1747, "key_press": 98, "type": "INSTRUCTIONS", "trial_type": "text", "trial_index": 144, "time_elapsed": 768016, "internal_node_id": "0.0-108.0"}}, {"uniqueid": "MTK0727:39GXDJN2OUL2RURV7Z08A3GDFGO8VC", "current_trial": 145, "dateTime": 1512674824945, "trialdata": {"rt": [2154, 3418, 4938, 6458, 7754, 8795, 10442, 12538, 14330, 16922, 18154, 20074, 21547, 23114], "responses": ["9", "11", "16", "14", "10", "4", "20", "12", "16", "18", "10", "20", "9", "8"], "num1": [4, 1, 8, 4, 5, 2, 4, 1, 4, 4, 8, 2, 1, 5, 7], "num2": [2, 6, 2, 5, 3, 1, 9, 3, 4, 6, 1, 9, 6, 1, 8], "num3": [3, 4, 6, 5, 2, 1, 7, 8, 8, 8, 1, 9, 2, 2, 9], "type": "DISTRACTOR", "conditions": [24, 1600, "a", 24000], "trial": 4, "trial_type": "math-distractor", "trial_index": 145, "time_elapsed": 794027, "internal_node_id": "0.0-109.0"}}, {"uniqueid": "MTK0727:39GXDJN2OUL2RURV7Z08A3GDFGO8VC", "current_trial": 146, "dateTime": 1512674827968, "trialdata": {"rt": -1, "stimulus": "<p id=\"stim\">10</p>", "key_press": -1, "trial_type": "single-stim", "trial_index": 146, "time_elapsed": 797050, "internal_node_id": "0.0-110.0-0.0"}}, {"uniqueid": "MTK0727:39GXDJN2OUL2RURV7Z08A3GDFGO8VC", "current_trial": 147, "dateTime": 1512674828968, "trialdata": {"rt": -1, "stimulus": "<p id=\"stim\">9</p>", "key_press": -1, "trial_type": "single-stim", "trial_index": 147, "time_elapsed": 798050, "internal_node_id": "0.0-110.0-1.0"}}, {"uniqueid": "MTK0727:39GXDJN2OUL2RURV7Z08A3GDFGO8VC", "current_trial": 148, "dateTime": 1512674829965, "trialdata": {"rt": -1, "stimulus": "<p id=\"stim\">8</p>", "key_press": -1, "trial_type": "single-stim", "trial_index": 148, "time_elapsed": 799047, "internal_node_id": "0.0-110.0-2.0"}}, {"uniqueid": "MTK0727:39GXDJN2OUL2RURV7Z08A3GDFGO8VC", "current_trial": 149, "dateTime": 1512674830965, "trialdata": {"rt": -1, "stimulus": "<p id=\"stim\">7</p>", "key_press": -1, "trial_type": "single-stim", "trial_index": 149, "time_elapsed": 800047, "internal_node_id": "0.0-110.0-3.0"}}, {"uniqueid": "MTK0727:39GXDJN2OUL2RURV7Z08A3GDFGO8VC", "current_trial": 150, "dateTime": 1512674831967, "trialdata": {"rt": -1, "stimulus": "<p id=\"stim\">6</p>", "key_press": -1, "trial_type": "single-stim", "trial_index": 150, "time_elapsed": 801049, "internal_node_id": "0.0-110.0-4.0"}}, {"uniqueid": "MTK0727:39GXDJN2OUL2RURV7Z08A3GDFGO8VC", "current_trial": 151, "dateTime": 1512674832960, "trialdata": {"rt": -1, "stimulus": "<p id=\"stim\">5</p>", "key_press": -1, "trial_type": "single-stim", "trial_index": 151, "time_elapsed": 802042, "internal_node_id": "0.0-110.0-5.0"}}, {"uniqueid": "MTK0727:39GXDJN2OUL2RURV7Z08A3GDFGO8VC", "current_trial": 152, "dateTime": 1512674833959, "trialdata": {"rt": -1, "stimulus": "<p id=\"stim\">4</p>", "key_press": -1, "trial_type": "single-stim", "trial_index": 152, "time_elapsed": 803040, "internal_node_id": "0.0-110.0-6.0"}}, {"uniqueid": "MTK0727:39GXDJN2OUL2RURV7Z08A3GDFGO8VC", "current_trial": 153, "dateTime": 1512674834962, "trialdata": {"rt": -1, "stimulus": "<p id=\"stim\">3</p>", "key_press": -1, "trial_type": "single-stim", "trial_index": 153, "time_elapsed": 804044, "internal_node_id": "0.0-110.0-7.0"}}, {"uniqueid": "MTK0727:39GXDJN2OUL2RURV7Z08A3GDFGO8VC", "current_trial": 154, "dateTime": 1512674835970, "trialdata": {"rt": -1, "stimulus": "<p id=\"stim\">2</p>", "key_press": -1, "trial_type": "single-stim", "trial_index": 154, "time_elapsed": 805051, "internal_node_id": "0.0-110.0-8.0"}}, {"uniqueid": "MTK0727:39GXDJN2OUL2RURV7Z08A3GDFGO8VC", "current_trial": 155, "dateTime": 1512674836969, "trialdata": {"rt": -1, "stimulus": "<p id=\"stim\">1</p>", "key_press": -1, "trial_type": "single-stim", "trial_index": 155, "time_elapsed": 806051, "internal_node_id": "0.0-110.0-9.0"}}, {"uniqueid": "MTK0727:39GXDJN2OUL2RURV7Z08A3GDFGO8VC", "current_trial": 156, "dateTime": 1512674838483, "trialdata": {"rt": -1, "stimulus": "<p id=\"stim\">+</p>", "key_press": -1, "type": "FIXATION", "trial_type": "single-stim", "trial_index": 156, "time_elapsed": 807565, "internal_node_id": "0.0-111.0-0.0"}}, {"uniqueid": "MTK0727:39GXDJN2OUL2RURV7Z08A3GDFGO8VC", "current_trial": 157, "dateTime": 1512674841099, "trialdata": {"rt": -1000, "stimulus": "/static/audio/wordpool/OYSTER.wav", "key_press": -1, "type": "PRES_AUD", "word": "oyster", "wordID": 994, "conditions": [24, 1600, "a", 24000], "trial": 4, "serialpos": 0, "trial_type": "single-audio", "trial_index": 157, "time_elapsed": 810180, "internal_node_id": "0.0-112.0"}}, {"uniqueid": "MTK0727:39GXDJN2OUL2RURV7Z08A3GDFGO8VC", "current_trial": 158, "dateTime": 1512674843652, "trialdata": {"rt": 390.66162109372726, "stimulus": "/static/audio/wordpool/FLASK.wav", "key_press": 175, "type": "PRES_AUD", "word": "flask", "wordID": 575, "conditions": [24, 1600, "a", 24000], "trial": 4, "serialpos": 1, "trial_type": "single-audio", "trial_index": 158, "time_elapsed": 812733, "internal_node_id": "0.0-113.0"}}, {"uniqueid": "MTK0727:39GXDJN2OUL2RURV7Z08A3GDFGO8VC", "current_trial": 159, "dateTime": 1512674846214, "trialdata": {"rt": -1000, "stimulus": "/static/audio/wordpool/SOFTBALL.wav", "key_press": -1, "type": "PRES_AUD", "word": "softball", "wordID": 1342, "conditions": [24, 1600, "a", 24000], "trial": 4, "serialpos": 2, "trial_type": "single-audio", "trial_index": 159, "time_elapsed": 815296, "internal_node_id": "0.0-114.0"}}, {"uniqueid": "MTK0727:39GXDJN2OUL2RURV7Z08A3GDFGO8VC", "current_trial": 160, "dateTime": 1512674849015, "trialdata": {"rt": -1000, "stimulus": "/static/audio/wordpool/CROSS.wav", "key_press": -1, "type": "PRES_AUD", "word": "cross", "wordID": 412, "conditions": [24, 1600, "a", 24000], "trial": 4, "serialpos": 3, "trial_type": "single-audio", "trial_index": 160, "time_elapsed": 818096, "internal_node_id": "0.0-115.0"}}, {"uniqueid": "MTK0727:39GXDJN2OUL2RURV7Z08A3GDFGO8VC", "current_trial": 161, "dateTime": 1512674851799, "trialdata": {"rt": -1000, "stimulus": "/static/audio/wordpool/CHIPMUNK.wav", "key_press": -1, "type": "PRES_AUD", "word": "chipmunk", "wordID": 303, "conditions": [24, 1600, "a", 24000], "trial": 4, "serialpos": 4, "trial_type": "single-audio", "trial_index": 161, "time_elapsed": 820880, "internal_node_id": "0.0-116.0"}}, {"uniqueid": "MTK0727:39GXDJN2OUL2RURV7Z08A3GDFGO8VC", "current_trial": 162, "dateTime": 1512674854490, "trialdata": {"rt": -1000, "stimulus": "/static/audio/wordpool/SIBLING.wav", "key_press": -1, "type": "PRES_AUD", "word": "sibling", "wordID": 1300, "conditions": [24, 1600, "a", 24000], "trial": 4, "serialpos": 5, "trial_type": "single-audio", "trial_index": 162, "time_elapsed": 823572, "internal_node_id": "0.0-117.0"}}, {"uniqueid": "MTK0727:39GXDJN2OUL2RURV7Z08A3GDFGO8VC", "current_trial": 163, "dateTime": 1512674857025, "trialdata": {"rt": -1000, "stimulus": "/static/audio/wordpool/FRUIT.wav", "key_press": -1, "type": "PRES_AUD", "word": "fruit", "wordID": 609, "conditions": [24, 1600, "a", 24000], "trial": 4, "serialpos": 6, "trial_type": "single-audio", "trial_index": 163, "time_elapsed": 826107, "internal_node_id": "0.0-118.0"}}, {"uniqueid": "MTK0727:39GXDJN2OUL2RURV7Z08A3GDFGO8VC", "current_trial": 164, "dateTime": 1512674859667, "trialdata": {"rt": -1000, "stimulus": "/static/audio/wordpool/LACE.wav", "key_press": -1, "type": "PRES_AUD", "word": "lace", "wordID": 791, "conditions": [24, 1600, "a", 24000], "trial": 4, "serialpos": 7, "trial_type": "single-audio", "trial_index": 164, "time_elapsed": 828749, "internal_node_id": "0.0-119.0"}}, {"uniqueid": "MTK0727:39GXDJN2OUL2RURV7Z08A3GDFGO8VC", "current_trial": 165, "dateTime": 1512674862202, "trialdata": {"rt": -1000, "stimulus": "/static/audio/wordpool/PLAID.wav", "key_press": -1, "type": "PRES_AUD", "word": "plaid", "wordID": 1079, "conditions": [24, 1600, "a", 24000], "trial": 4, "serialpos": 8, "trial_type": "single-audio", "trial_index": 165, "time_elapsed": 831284, "internal_node_id": "0.0-120.0"}}, {"uniqueid": "MTK0727:39GXDJN2OUL2RURV7Z08A3GDFGO8VC", "current_trial": 166, "dateTime": 1512674864948, "trialdata": {"rt": -1000, "stimulus": "/static/audio/wordpool/TROMBONE.wav", "key_press": -1, "type": "PRES_AUD", "word": "trombone", "wordID": 1507, "conditions": [24, 1600, "a", 24000], "trial": 4, "serialpos": 9, "trial_type": "single-audio", "trial_index": 166, "time_elapsed": 834029, "internal_node_id": "0.0-121.0"}}, {"uniqueid": "MTK0727:39GXDJN2OUL2RURV7Z08A3GDFGO8VC", "current_trial": 167, "dateTime": 1512674867387, "trialdata": {"rt": -1000, "stimulus": "/static/audio/wordpool/FLOWER.wav", "key_press": -1, "type": "PRES_AUD", "word": "flower", "wordID": 583, "conditions": [24, 1600, "a", 24000], "trial": 4, "serialpos": 10, "trial_type": "single-audio", "trial_index": 167, "time_elapsed": 836469, "internal_node_id": "0.0-122.0"}}, {"uniqueid": "MTK0727:39GXDJN2OUL2RURV7Z08A3GDFGO8VC", "current_trial": 168, "dateTime": 1512674869935, "trialdata": {"rt": -1000, "stimulus": "/static/audio/wordpool/JUNGLE.wav", "key_press": -1, "type": "PRES_AUD", "word": "jungle", "wordID": 763, "conditions": [24, 1600, "a", 24000], "trial": 4, "serialpos": 11, "trial_type": "single-audio", "trial_index": 168, "time_elapsed": 839016, "internal_node_id": "0.0-123.0"}}, {"uniqueid": "MTK0727:39GXDJN2OUL2RURV7Z08A3GDFGO8VC", "current_trial": 169, "dateTime": 1512674872689, "trialdata": {"rt": -1000, "stimulus": "/static/audio/wordpool/FIREPLACE.wav", "key_press": -1, "type": "PRES_AUD", "word": "fireplace", "wordID": 569, "conditions": [24, 1600, "a", 24000], "trial": 4, "serialpos": 12, "trial_type": "single-audio", "trial_index": 169, "time_elapsed": 841770, "internal_node_id": "0.0-124.0"}}, {"uniqueid": "MTK0727:39GXDJN2OUL2RURV7Z08A3GDFGO8VC", "current_trial": 170, "dateTime": 1512674875224, "trialdata": {"rt": -1000, "stimulus": "/static/audio/wordpool/LEG.wav", "key_press": -1, "type": "PRES_AUD", "word": "leg", "wordID": 808, "conditions": [24, 1600, "a", 24000], "trial": 4, "serialpos": 13, "trial_type": "single-audio", "trial_index": 170, "time_elapsed": 844306, "internal_node_id": "0.0-125.0"}}, {"uniqueid": "MTK0727:39GXDJN2OUL2RURV7Z08A3GDFGO8VC", "current_trial": 171, "dateTime": 1512674878010, "trialdata": {"rt": -1000, "stimulus": "/static/audio/wordpool/HEDGE.wav", "key_press": -1, "type": "PRES_AUD", "word": "hedge", "wordID": 698, "conditions": [24, 1600, "a", 24000], "trial": 4, "serialpos": 14, "trial_type": "single-audio", "trial_index": 171, "time_elapsed": 847091, "internal_node_id": "0.0-126.0"}}, {"uniqueid": "MTK0727:39GXDJN2OUL2RURV7Z08A3GDFGO8VC", "current_trial": 172, "dateTime": 1512674880543, "trialdata": {"rt": -1000, "stimulus": "/static/audio/wordpool/FOX.wav", "key_press": -1, "type": "PRES_AUD", "word": "fox", "wordID": 597, "conditions": [24, 1600, "a", 24000], "trial": 4, "serialpos": 15, "trial_type": "single-audio", "trial_index": 172, "time_elapsed": 849624, "internal_node_id": "0.0-127.0"}}, {"uniqueid": "MTK0727:39GXDJN2OUL2RURV7Z08A3GDFGO8VC", "current_trial": 173, "dateTime": 1512674883344, "trialdata": {"rt": -1000, "stimulus": "/static/audio/wordpool/LION.wav", "key_press": -1, "type": "PRES_AUD", "word": "lion", "wordID": 826, "conditions": [24, 1600, "a", 24000], "trial": 4, "serialpos": 16, "trial_type": "single-audio", "trial_index": 173, "time_elapsed": 852426, "internal_node_id": "0.0-128.0"}}, {"uniqueid": "MTK0727:39GXDJN2OUL2RURV7Z08A3GDFGO8VC", "current_trial": 174, "dateTime": 1512674885823, "trialdata": {"rt": -1000, "stimulus": "/static/audio/wordpool/DUSTPAN.wav", "key_press": -1, "type": "PRES_AUD", "word": "dustpan", "wordID": 508, "conditions": [24, 1600, "a", 24000], "trial": 4, "serialpos": 17, "trial_type": "single-audio", "trial_index": 174, "time_elapsed": 854905, "internal_node_id": "0.0-129.0"}}, {"uniqueid": "MTK0727:39GXDJN2OUL2RURV7Z08A3GDFGO8VC", "current_trial": 175, "dateTime": 1512674888298, "trialdata": {"rt": -1000, "stimulus": "/static/audio/wordpool/TILE.wav", "key_press": -1, "type": "PRES_AUD", "word": "tile", "wordID": 1467, "conditions": [24, 1600, "a", 24000], "trial": 4, "serialpos": 18, "trial_type": "single-audio", "trial_index": 175, "time_elapsed": 857379, "internal_node_id": "0.0-130.0"}}, {"uniqueid": "MTK0727:39GXDJN2OUL2RURV7Z08A3GDFGO8VC", "current_trial": 176, "dateTime": 1512674890816, "trialdata": {"rt": -1000, "stimulus": "/static/audio/wordpool/FRAGRANCE.wav", "key_press": -1, "type": "PRES_AUD", "word": "fragrance", "wordID": 598, "conditions": [24, 1600, "a", 24000], "trial": 4, "serialpos": 19, "trial_type": "single-audio", "trial_index": 176, "time_elapsed": 859898, "internal_node_id": "0.0-131.0"}}, {"uniqueid": "MTK0727:39GXDJN2OUL2RURV7Z08A3GDFGO8VC", "current_trial": 177, "dateTime": 1512674893490, "trialdata": {"rt": -1000, "stimulus": "/static/audio/wordpool/BACON.wav", "key_press": -1, "type": "PRES_AUD", "word": "bacon", "wordID": 66, "conditions": [24, 1600, "a", 24000], "trial": 4, "serialpos": 20, "trial_type": "single-audio", "trial_index": 177, "time_elapsed": 862571, "internal_node_id": "0.0-132.0"}}, {"uniqueid": "MTK0727:39GXDJN2OUL2RURV7Z08A3GDFGO8VC", "current_trial": 178, "dateTime": 1512674896198, "trialdata": {"rt": -1000, "stimulus": "/static/audio/wordpool/SANDWICH.wav", "key_press": -1, "type": "PRES_AUD", "word": "sandwich", "wordID": 1231, "conditions": [24, 1600, "a", 24000], "trial": 4, "serialpos": 21, "trial_type": "single-audio", "trial_index": 178, "time_elapsed": 865279, "internal_node_id": "0.0-133.0"}}, {"uniqueid": "MTK0727:39GXDJN2OUL2RURV7Z08A3GDFGO8VC", "current_trial": 179, "dateTime": 1512674898684, "trialdata": {"rt": -1000, "stimulus": "/static/audio/wordpool/TURKEY.wav", "key_press": -1, "type": "PRES_AUD", "word": "turkey", "wordID": 1519, "conditions": [24, 1600, "a", 24000], "trial": 4, "serialpos": 22, "trial_type": "single-audio", "trial_index": 179, "time_elapsed": 867766, "internal_node_id": "0.0-134.0"}}, {"uniqueid": "MTK0727:39GXDJN2OUL2RURV7Z08A3GDFGO8VC", "current_trial": 180, "dateTime": 1512674901463, "trialdata": {"rt": -1000, "stimulus": "/static/audio/wordpool/PERFUME.wav", "key_press": -1, "type": "PRES_AUD", "word": "perfume", "wordID": 1048, "conditions": [24, 1600, "a", 24000], "trial": 4, "serialpos": 23, "trial_type": "single-audio", "trial_index": 180, "time_elapsed": 870545, "internal_node_id": "0.0-135.0"}}, {"uniqueid": "MTK0727:39GXDJN2OUL2RURV7Z08A3GDFGO8VC", "current_trial": 181, "dateTime": 1512674902794, "trialdata": {"rt": -1, "stimulus": "", "key_press": -1, "type": "PRE_RECALL_DELAY", "trial_type": "single-stim", "trial_index": 181, "time_elapsed": 871876, "internal_node_id": "0.0-136.0-0.0"}}, {"uniqueid": "MTK0727:39GXDJN2OUL2RURV7Z08A3GDFGO8VC", "current_trial": 182, "dateTime": 1512674903298, "trialdata": {"rt": -1000, "stimulus": "/static/audio/400Hz.wav", "key_press": -1, "type": "PRE_RECALL_ALERT", "trial_type": "single-audio", "trial_index": 182, "time_elapsed": 872379, "internal_node_id": "0.0-137.0"}}, {"uniqueid": "MTK0727:39GXDJN2OUL2RURV7Z08A3GDFGO8VC", "current_trial": 183, "dateTime": 1512674963318, "trialdata": {"rt": [2497, 3857, 5666, 7538, 18033], "recwords": ["perfume", "turkey", "sandwich", "oyster", "yell"], "type": "FREE_RECALL", "conditions": [24, 1600, "a", 24000], "trial": 4, "trial_type": "free-recall", "trial_index": 183, "time_elapsed": 932395, "internal_node_id": "0.0-138.0-0.0"}}, {"uniqueid": "MTK0727:39GXDJN2OUL2RURV7Z08A3GDFGO8VC", "current_trial": 184, "dateTime": 1512674966854, "trialdata": {"rt": 1524, "key_press": 101, "type": "INSTRUCTIONS", "trial_type": "text", "trial_index": 184, "time_elapsed": 935936, "internal_node_id": "0.0-139.0"}}, {"uniqueid": "MTK0727:39GXDJN2OUL2RURV7Z08A3GDFGO8VC", "current_trial": 185, "dateTime": 1512674980885, "trialdata": {"rt": [1772, 3404, 4828, 7500, 10268], "responses": ["17", "13", "10", "18", "13"], "num1": [7, 2, 1, 6, 8, 4], "num2": [8, 2, 7, 5, 1, 2], "num3": [2, 9, 2, 7, 4, 9], "type": "DISTRACTOR", "conditions": [24, 1600, "v", 12000], "trial": 5, "trial_type": "math-distractor", "trial_index": 185, "time_elapsed": 949967, "internal_node_id": "0.0-140.0"}}, {"uniqueid": "MTK0727:39GXDJN2OUL2RURV7Z08A3GDFGO8VC", "current_trial": 186, "dateTime": 1512674983913, "trialdata": {"rt": -1, "stimulus": "<p id=\"stim\">10</p>", "key_press": -1, "trial_type": "single-stim", "trial_index": 186, "time_elapsed": 952994, "internal_node_id": "0.0-141.0-0.0"}}, {"uniqueid": "MTK0727:39GXDJN2OUL2RURV7Z08A3GDFGO8VC", "current_trial": 187, "dateTime": 1512674984916, "trialdata": {"rt": -1, "stimulus": "<p id=\"stim\">9</p>", "key_press": -1, "trial_type": "single-stim", "trial_index": 187, "time_elapsed": 953997, "internal_node_id": "0.0-141.0-1.0"}}, {"uniqueid": "MTK0727:39GXDJN2OUL2RURV7Z08A3GDFGO8VC", "current_trial": 188, "dateTime": 1512674985922, "trialdata": {"rt": -1, "stimulus": "<p id=\"stim\">8</p>", "key_press": -1, "trial_type": "single-stim", "trial_index": 188, "time_elapsed": 955003, "internal_node_id": "0.0-141.0-2.0"}}, {"uniqueid": "MTK0727:39GXDJN2OUL2RURV7Z08A3GDFGO8VC", "current_trial": 189, "dateTime": 1512674986922, "trialdata": {"rt": -1, "stimulus": "<p id=\"stim\">7</p>", "key_press": -1, "trial_type": "single-stim", "trial_index": 189, "time_elapsed": 956003, "internal_node_id": "0.0-141.0-3.0"}}, {"uniqueid": "MTK0727:39GXDJN2OUL2RURV7Z08A3GDFGO8VC", "current_trial": 190, "dateTime": 1512674987924, "trialdata": {"rt": -1, "stimulus": "<p id=\"stim\">6</p>", "key_press": -1, "trial_type": "single-stim", "trial_index": 190, "time_elapsed": 957005, "internal_node_id": "0.0-141.0-4.0"}}, {"uniqueid": "MTK0727:39GXDJN2OUL2RURV7Z08A3GDFGO8VC", "current_trial": 191, "dateTime": 1512674988917, "trialdata": {"rt": -1, "stimulus": "<p id=\"stim\">5</p>", "key_press": -1, "trial_type": "single-stim", "trial_index": 191, "time_elapsed": 957998, "internal_node_id": "0.0-141.0-5.0"}}, {"uniqueid": "MTK0727:39GXDJN2OUL2RURV7Z08A3GDFGO8VC", "current_trial": 192, "dateTime": 1512674989915, "trialdata": {"rt": -1, "stimulus": "<p id=\"stim\">4</p>", "key_press": -1, "trial_type": "single-stim", "trial_index": 192, "time_elapsed": 958996, "internal_node_id": "0.0-141.0-6.0"}}, {"uniqueid": "MTK0727:39GXDJN2OUL2RURV7Z08A3GDFGO8VC", "current_trial": 193, "dateTime": 1512674990915, "trialdata": {"rt": -1, "stimulus": "<p id=\"stim\">3</p>", "key_press": -1, "trial_type": "single-stim", "trial_index": 193, "time_elapsed": 959996, "internal_node_id": "0.0-141.0-7.0"}}, {"uniqueid": "MTK0727:39GXDJN2OUL2RURV7Z08A3GDFGO8VC", "current_trial": 194, "dateTime": 1512674991929, "trialdata": {"rt": -1, "stimulus": "<p id=\"stim\">2</p>", "key_press": -1, "trial_type": "single-stim", "trial_index": 194, "time_elapsed": 961010, "internal_node_id": "0.0-141.0-8.0"}}, {"uniqueid": "MTK0727:39GXDJN2OUL2RURV7Z08A3GDFGO8VC", "current_trial": 195, "dateTime": 1512674992929, "trialdata": {"rt": -1, "stimulus": "<p id=\"stim\">1</p>", "key_press": -1, "trial_type": "single-stim", "trial_index": 195, "time_elapsed": 962010, "internal_node_id": "0.0-141.0-9.0"}}, {"uniqueid": "MTK0727:39GXDJN2OUL2RURV7Z08A3GDFGO8VC", "current_trial": 196, "dateTime": 1512674994431, "trialdata": {"rt": -1, "stimulus": "<p id=\"stim\">+</p>", "key_press": -1, "type": "FIXATION", "trial_type": "single-stim", "trial_index": 196, "time_elapsed": 963512, "internal_node_id": "0.0-142.0-0.0"}}, {"uniqueid": "MTK0727:39GXDJN2OUL2RURV7Z08A3GDFGO8VC", "current_trial": 197, "dateTime": 1512674996048, "trialdata": {"rt": -1, "stimulus": "<p id=\"stim\">NOMAD</p>", "key_press": -1, "type": "PRES_VIS", "word": "nomad", "wordID": 954, "conditions": [24, 1600, "v", 12000], "trial": 5, "serialpos": 0, "trial_type": "single-stim", "trial_index": 197, "time_elapsed": 965129, "internal_node_id": "0.0-143.0"}}, {"uniqueid": "MTK0727:39GXDJN2OUL2RURV7Z08A3GDFGO8VC", "current_trial": 198, "dateTime": 1512674998602, "trialdata": {"rt": -1, "stimulus": "<p id=\"stim\">CLAM</p>", "key_press": -1, "type": "PRES_VIS", "word": "clam", "wordID": 314, "conditions": [24, 1600, "v", 12000], "trial": 5, "serialpos": 1, "trial_type": "single-stim", "trial_index": 198, "time_elapsed": 967683, "internal_node_id": "0.0-144.0"}}, {"uniqueid": "MTK0727:39GXDJN2OUL2RURV7Z08A3GDFGO8VC", "current_trial": 199, "dateTime": 1512675001297, "trialdata": {"rt": -1, "stimulus": "<p id=\"stim\">MAILMAN</p>", "key_press": -1, "type": "PRES_VIS", "word": "mailman", "wordID": 857, "conditions": [24, 1600, "v", 12000], "trial": 5, "serialpos": 2, "trial_type": "single-stim", "trial_index": 199, "time_elapsed": 970378, "internal_node_id": "0.0-145.0"}}, {"uniqueid": "MTK0727:39GXDJN2OUL2RURV7Z08A3GDFGO8VC", "current_trial": 200, "dateTime": 1512675003842, "trialdata": {"rt": -1, "stimulus": "<p id=\"stim\">MAILBOX</p>", "key_press": -1, "type": "PRES_VIS", "word": "mailbox", "wordID": 856, "conditions": [24, 1600, "v", 12000], "trial": 5, "serialpos": 3, "trial_type": "single-stim", "trial_index": 200, "time_elapsed": 972924, "internal_node_id": "0.0-146.0"}}, {"uniqueid": "MTK0727:39GXDJN2OUL2RURV7Z08A3GDFGO8VC", "current_trial": 201, "dateTime": 1512675006492, "trialdata": {"rt": -1, "stimulus": "<p id=\"stim\">ELBOW</p>", "key_press": -1, "type": "PRES_VIS", "word": "elbow", "wordID": 519, "conditions": [24, 1600, "v", 12000], "trial": 5, "serialpos": 4, "trial_type": "single-stim", "trial_index": 201, "time_elapsed": 975573, "internal_node_id": "0.0-147.0"}}, {"uniqueid": "MTK0727:39GXDJN2OUL2RURV7Z08A3GDFGO8VC", "current_trial": 202, "dateTime": 1512675009110, "trialdata": {"rt": -1, "stimulus": "<p id=\"stim\">MARKER</p>", "key_press": -1, "type": "PRES_VIS", "word": "marker", "wordID": 869, "conditions": [24, 1600, "v", 12000], "trial": 5, "serialpos": 5, "trial_type": "single-stim", "trial_index": 202, "time_elapsed": 978192, "internal_node_id": "0.0-148.0"}}, {"uniqueid": "MTK0727:39GXDJN2OUL2RURV7Z08A3GDFGO8VC", "current_trial": 203, "dateTime": 1512675011727, "trialdata": {"rt": -1, "stimulus": "<p id=\"stim\">STAPLE</p>", "key_press": -1, "type": "PRES_VIS", "word": "staple", "wordID": 1370, "conditions": [24, 1600, "v", 12000], "trial": 5, "serialpos": 6, "trial_type": "single-stim", "trial_index": 203, "time_elapsed": 980809, "internal_node_id": "0.0-149.0"}}, {"uniqueid": "MTK0727:39GXDJN2OUL2RURV7Z08A3GDFGO8VC", "current_trial": 204, "dateTime": 1512675014272, "trialdata": {"rt": -1, "stimulus": "<p id=\"stim\">CRAB</p>", "key_press": -1, "type": "PRES_VIS", "word": "crab", "wordID": 396, "conditions": [24, 1600, "v", 12000], "trial": 5, "serialpos": 7, "trial_type": "single-stim", "trial_index": 204, "time_elapsed": 983353, "internal_node_id": "0.0-150.0"}}, {"uniqueid": "MTK0727:39GXDJN2OUL2RURV7Z08A3GDFGO8VC", "current_trial": 205, "dateTime": 1512675016810, "trialdata": {"rt": -1, "stimulus": "<p id=\"stim\">PUDDLE</p>", "key_press": -1, "type": "PRES_VIS", "word": "puddle", "wordID": 1139, "conditions": [24, 1600, "v", 12000], "trial": 5, "serialpos": 8, "trial_type": "single-stim", "trial_index": 205, "time_elapsed": 985892, "internal_node_id": "0.0-151.0"}}, {"uniqueid": "MTK0727:39GXDJN2OUL2RURV7Z08A3GDFGO8VC", "current_trial": 206, "dateTime": 1512675019528, "trialdata": {"rt": -1, "stimulus": "<p id=\"stim\">PLASTER</p>", "key_press": -1, "type": "PRES_VIS", "word": "plaster", "wordID": 1084, "conditions": [24, 1600, "v", 12000], "trial": 5, "serialpos": 9, "trial_type": "single-stim", "trial_index": 206, "time_elapsed": 988609, "internal_node_id": "0.0-152.0"}}, {"uniqueid": "MTK0727:39GXDJN2OUL2RURV7Z08A3GDFGO8VC", "current_trial": 207, "dateTime": 1512675022177, "trialdata": {"rt": -1, "stimulus": "<p id=\"stim\">SWAMP</p>", "key_press": -1, "type": "PRES_VIS", "word": "swamp", "wordID": 1415, "conditions": [24, 1600, "v", 12000], "trial": 5, "serialpos": 10, "trial_type": "single-stim", "trial_index": 207, "time_elapsed": 991258, "internal_node_id": "0.0-153.0"}}, {"uniqueid": "MTK0727:39GXDJN2OUL2RURV7Z08A3GDFGO8VC", "current_trial": 208, "dateTime": 1512675024942, "trialdata": {"rt": -1, "stimulus": "<p id=\"stim\">NIGHTGOWN</p>", "key_press": -1, "type": "PRES_VIS", "word": "nightgown", "wordID": 952, "conditions": [24, 1600, "v", 12000], "trial": 5, "serialpos": 11, "trial_type": "single-stim", "trial_index": 208, "time_elapsed": 994024, "internal_node_id": "0.0-154.0"}}, {"uniqueid": "MTK0727:39GXDJN2OUL2RURV7Z08A3GDFGO8VC", "current_trial": 209, "dateTime": 1512675027673, "trialdata": {"rt": -1, "stimulus": "<p id=\"stim\">KETCHUP</p>", "key_press": -1, "type": "PRES_VIS", "word": "ketchup", "wordID": 770, "conditions": [24, 1600, "v", 12000], "trial": 5, "serialpos": 12, "trial_type": "single-stim", "trial_index": 209, "time_elapsed": 996754, "internal_node_id": "0.0-155.0"}}, {"uniqueid": "MTK0727:39GXDJN2OUL2RURV7Z08A3GDFGO8VC", "current_trial": 210, "dateTime": 1512675030126, "trialdata": {"rt": -1, "stimulus": "<p id=\"stim\">SCISSORS</p>", "key_press": -1, "type": "PRES_VIS", "word": "scissors", "wordID": 1249, "conditions": [24, 1600, "v", 12000], "trial": 5, "serialpos": 13, "trial_type": "single-stim", "trial_index": 210, "time_elapsed": 999208, "internal_node_id": "0.0-156.0"}}, {"uniqueid": "MTK0727:39GXDJN2OUL2RURV7Z08A3GDFGO8VC", "current_trial": 211, "dateTime": 1512675032743, "trialdata": {"rt": -1, "stimulus": "<p id=\"stim\">EUROPE</p>", "key_press": -1, "type": "PRES_VIS", "word": "europe", "wordID": 540, "conditions": [24, 1600, "v", 12000], "trial": 5, "serialpos": 14, "trial_type": "single-stim", "trial_index": 211, "time_elapsed": 1001824, "internal_node_id": "0.0-157.0"}}, {"uniqueid": "MTK0727:39GXDJN2OUL2RURV7Z08A3GDFGO8VC", "current_trial": 212, "dateTime": 1512675035213, "trialdata": {"rt": -1, "stimulus": "<p id=\"stim\">ASIA</p>", "key_press": -1, "type": "PRES_VIS", "word": "asia", "wordID": 45, "conditions": [24, 1600, "v", 12000], "trial": 5, "serialpos": 15, "trial_type": "single-stim", "trial_index": 212, "time_elapsed": 1004295, "internal_node_id": "0.0-158.0"}}, {"uniqueid": "MTK0727:39GXDJN2OUL2RURV7Z08A3GDFGO8VC", "current_trial": 213, "dateTime": 1512675037790, "trialdata": {"rt": -1, "stimulus": "<p id=\"stim\">WRIST</p>", "key_press": -1, "type": "PRES_VIS", "word": "wrist", "wordID": 1625, "conditions": [24, 1600, "v", 12000], "trial": 5, "serialpos": 16, "trial_type": "single-stim", "trial_index": 213, "time_elapsed": 1006872, "internal_node_id": "0.0-159.0"}}, {"uniqueid": "MTK0727:39GXDJN2OUL2RURV7Z08A3GDFGO8VC", "current_trial": 214, "dateTime": 1512675040273, "trialdata": {"rt": -1, "stimulus": "<p id=\"stim\">WARDROBE</p>", "key_press": -1, "type": "PRES_VIS", "word": "wardrobe", "wordID": 1586, "conditions": [24, 1600, "v", 12000], "trial": 5, "serialpos": 17, "trial_type": "single-stim", "trial_index": 214, "time_elapsed": 1009355, "internal_node_id": "0.0-160.0"}}, {"uniqueid": "MTK0727:39GXDJN2OUL2RURV7Z08A3GDFGO8VC", "current_trial": 215, "dateTime": 1512675042971, "trialdata": {"rt": -1, "stimulus": "<p id=\"stim\">CREATURE</p>", "key_press": -1, "type": "PRES_VIS", "word": "creature", "wordID": 402, "conditions": [24, 1600, "v", 12000], "trial": 5, "serialpos": 18, "trial_type": "single-stim", "trial_index": 215, "time_elapsed": 1012052, "internal_node_id": "0.0-161.0"}}, {"uniqueid": "MTK0727:39GXDJN2OUL2RURV7Z08A3GDFGO8VC", "current_trial": 216, "dateTime": 1512675045442, "trialdata": {"rt": -1, "stimulus": "<p id=\"stim\">JELLO</p>", "key_press": -1, "type": "PRES_VIS", "word": "jello", "wordID": 753, "conditions": [24, 1600, "v", 12000], "trial": 5, "serialpos": 19, "trial_type": "single-stim", "trial_index": 216, "time_elapsed": 1014524, "internal_node_id": "0.0-162.0"}}, {"uniqueid": "MTK0727:39GXDJN2OUL2RURV7Z08A3GDFGO8VC", "current_trial": 217, "dateTime": 1512675048012, "trialdata": {"rt": -1, "stimulus": "<p id=\"stim\">HEADBAND</p>", "key_press": -1, "type": "PRES_VIS", "word": "headband", "wordID": 695, "conditions": [24, 1600, "v", 12000], "trial": 5, "serialpos": 20, "trial_type": "single-stim", "trial_index": 217, "time_elapsed": 1017093, "internal_node_id": "0.0-163.0"}}, {"uniqueid": "MTK0727:39GXDJN2OUL2RURV7Z08A3GDFGO8VC", "current_trial": 218, "dateTime": 1512675050535, "trialdata": {"rt": -1, "stimulus": "<p id=\"stim\">LUMBER</p>", "key_press": -1, "type": "PRES_VIS", "word": "lumber", "wordID": 847, "conditions": [24, 1600, "v", 12000], "trial": 5, "serialpos": 21, "trial_type": "single-stim", "trial_index": 218, "time_elapsed": 1019616, "internal_node_id": "0.0-164.0"}}, {"uniqueid": "MTK0727:39GXDJN2OUL2RURV7Z08A3GDFGO8VC", "current_trial": 219, "dateTime": 1512675053339, "trialdata": {"rt": -1, "stimulus": "<p id=\"stim\">BLOUSE</p>", "key_press": -1, "type": "PRES_VIS", "word": "blouse", "wordID": 138, "conditions": [24, 1600, "v", 12000], "trial": 5, "serialpos": 22, "trial_type": "single-stim", "trial_index": 219, "time_elapsed": 1022421, "internal_node_id": "0.0-165.0"}}, {"uniqueid": "MTK0727:39GXDJN2OUL2RURV7Z08A3GDFGO8VC", "current_trial": 220, "dateTime": 1512675056060, "trialdata": {"rt": -1, "stimulus": "<p id=\"stim\">ROD</p>", "key_press": -1, "type": "PRES_VIS", "word": "rod", "wordID": 1202, "conditions": [24, 1600, "v", 12000], "trial": 5, "serialpos": 23, "trial_type": "single-stim", "trial_index": 220, "time_elapsed": 1025141, "internal_node_id": "0.0-166.0"}}, {"uniqueid": "MTK0727:39GXDJN2OUL2RURV7Z08A3GDFGO8VC", "current_trial": 221, "dateTime": 1512675058375, "trialdata": {"rt": -1, "stimulus": "", "key_press": -1, "type": "PRE_RECALL_DELAY", "trial_type": "single-stim", "trial_index": 221, "time_elapsed": 1027457, "internal_node_id": "0.0-167.0-0.0"}}, {"uniqueid": "MTK0727:39GXDJN2OUL2RURV7Z08A3GDFGO8VC", "current_trial": 222, "dateTime": 1512675058879, "trialdata": {"rt": -1000, "stimulus": "/static/audio/400Hz.wav", "key_press": -1, "type": "PRE_RECALL_ALERT", "trial_type": "single-audio", "trial_index": 222, "time_elapsed": 1027960, "internal_node_id": "0.0-168.0"}}, {"uniqueid": "MTK0727:39GXDJN2OUL2RURV7Z08A3GDFGO8VC", "current_trial": 223, "dateTime": 1512675118905, "trialdata": {"rt": [2928, 4016, 6000, 7376, 8721, 10128, 11648, 13424, 14944, 20304, 22768, 24544, 26576, 28848, 33296], "recwords": ["blouse", "rod", "lumberer", "moad", "clam", "asia", "europe", "puddle", "staple", "closet", "wardrobe", "wrist", "nightgown", "blouse", "elbow"], "type": "FREE_RECALL", "conditions": [24, 1600, "v", 12000], "trial": 5, "trial_type": "free-recall", "trial_index": 223, "time_elapsed": 1087982, "internal_node_id": "0.0-169.0-0.0"}}, {"uniqueid": "MTK0727:39GXDJN2OUL2RURV7Z08A3GDFGO8VC", "current_trial": 224, "dateTime": 1512675130775, "trialdata": {"rt": 9862, "key_press": 101, "type": "INSTRUCTIONS", "trial_type": "text", "trial_index": 224, "time_elapsed": 1099856, "internal_node_id": "0.0-170.0"}}, {"uniqueid": "MTK0727:39GXDJN2OUL2RURV7Z08A3GDFGO8VC", "current_trial": 225, "dateTime": 1512675156796, "trialdata": {"rt": [1320, 3320, 4760, 8056, 9624, 11752, 13336, 14984, 17192, 19032, 20248, 23688], "responses": ["11", "14", "14", "9", "12", "23", "15", "13", "13", "16", "11", "26"], "num1": [6, 8, 8, 2, 2, 7, 1, 8, 5, 5, 1, 9, 3], "num2": [4, 1, 2, 5, 6, 7, 9, 2, 2, 8, 1, 8, 2], "num3": [1, 5, 4, 2, 4, 9, 5, 3, 6, 3, 9, 9, 1], "type": "DISTRACTOR", "conditions": [24, 800, "v", 24000], "trial": 6, "trial_type": "math-distractor", "trial_index": 225, "time_elapsed": 1125877, "internal_node_id": "0.0-171.0"}}, {"uniqueid": "MTK0727:39GXDJN2OUL2RURV7Z08A3GDFGO8VC", "current_trial": 226, "dateTime": 1512675159811, "trialdata": {"rt": -1, "stimulus": "<p id=\"stim\">10</p>", "key_press": -1, "trial_type": "single-stim", "trial_index": 226, "time_elapsed": 1128892, "internal_node_id": "0.0-172.0-0.0"}}, {"uniqueid": "MTK0727:39GXDJN2OUL2RURV7Z08A3GDFGO8VC", "current_trial": 227, "dateTime": 1512675160810, "trialdata": {"rt": -1, "stimulus": "<p id=\"stim\">9</p>", "key_press": -1, "trial_type": "single-stim", "trial_index": 227, "time_elapsed": 1129892, "internal_node_id": "0.0-172.0-1.0"}}, {"uniqueid": "MTK0727:39GXDJN2OUL2RURV7Z08A3GDFGO8VC", "current_trial": 228, "dateTime": 1512675161823, "trialdata": {"rt": -1, "stimulus": "<p id=\"stim\">8</p>", "key_press": -1, "trial_type": "single-stim", "trial_index": 228, "time_elapsed": 1130904, "internal_node_id": "0.0-172.0-2.0"}}, {"uniqueid": "MTK0727:39GXDJN2OUL2RURV7Z08A3GDFGO8VC", "current_trial": 229, "dateTime": 1512675162825, "trialdata": {"rt": -1, "stimulus": "<p id=\"stim\">7</p>", "key_press": -1, "trial_type": "single-stim", "trial_index": 229, "time_elapsed": 1131906, "internal_node_id": "0.0-172.0-3.0"}}, {"uniqueid": "MTK0727:39GXDJN2OUL2RURV7Z08A3GDFGO8VC", "current_trial": 230, "dateTime": 1512675163814, "trialdata": {"rt": -1, "stimulus": "<p id=\"stim\">6</p>", "key_press": -1, "trial_type": "single-stim", "trial_index": 230, "time_elapsed": 1132895, "internal_node_id": "0.0-172.0-4.0"}}, {"uniqueid": "MTK0727:39GXDJN2OUL2RURV7Z08A3GDFGO8VC", "current_trial": 231, "dateTime": 1512675164815, "trialdata": {"rt": -1, "stimulus": "<p id=\"stim\">5</p>", "key_press": -1, "trial_type": "single-stim", "trial_index": 231, "time_elapsed": 1133896, "internal_node_id": "0.0-172.0-5.0"}}, {"uniqueid": "MTK0727:39GXDJN2OUL2RURV7Z08A3GDFGO8VC", "current_trial": 232, "dateTime": 1512675165817, "trialdata": {"rt": -1, "stimulus": "<p id=\"stim\">4</p>", "key_press": -1, "trial_type": "single-stim", "trial_index": 232, "time_elapsed": 1134899, "internal_node_id": "0.0-172.0-6.0"}}, {"uniqueid": "MTK0727:39GXDJN2OUL2RURV7Z08A3GDFGO8VC", "current_trial": 233, "dateTime": 1512675166809, "trialdata": {"rt": -1, "stimulus": "<p id=\"stim\">3</p>", "key_press": -1, "trial_type": "single-stim", "trial_index": 233, "time_elapsed": 1135890, "internal_node_id": "0.0-172.0-7.0"}}, {"uniqueid": "MTK0727:39GXDJN2OUL2RURV7Z08A3GDFGO8VC", "current_trial": 234, "dateTime": 1512675167809, "trialdata": {"rt": -1, "stimulus": "<p id=\"stim\">2</p>", "key_press": -1, "trial_type": "single-stim", "trial_index": 234, "time_elapsed": 1136890, "internal_node_id": "0.0-172.0-8.0"}}, {"uniqueid": "MTK0727:39GXDJN2OUL2RURV7Z08A3GDFGO8VC", "current_trial": 235, "dateTime": 1512675168810, "trialdata": {"rt": -1, "stimulus": "<p id=\"stim\">1</p>", "key_press": -1, "trial_type": "single-stim", "trial_index": 235, "time_elapsed": 1137892, "internal_node_id": "0.0-172.0-9.0"}}, {"uniqueid": "MTK0727:39GXDJN2OUL2RURV7Z08A3GDFGO8VC", "current_trial": 236, "dateTime": 1512675170323, "trialdata": {"rt": -1, "stimulus": "<p id=\"stim\">+</p>", "key_press": -1, "type": "FIXATION", "trial_type": "single-stim", "trial_index": 236, "time_elapsed": 1139405, "internal_node_id": "0.0-173.0-0.0"}}, {"uniqueid": "MTK0727:39GXDJN2OUL2RURV7Z08A3GDFGO8VC", "current_trial": 237, "dateTime": 1512675171135, "trialdata": {"rt": -1, "stimulus": "<p id=\"stim\">BODY</p>", "key_press": -1, "type": "PRES_VIS", "word": "body", "wordID": 144, "conditions": [24, 800, "v", 24000], "trial": 6, "serialpos": 0, "trial_type": "single-stim", "trial_index": 237, "time_elapsed": 1140216, "internal_node_id": "0.0-174.0"}}, {"uniqueid": "MTK0727:39GXDJN2OUL2RURV7Z08A3GDFGO8VC", "current_trial": 238, "dateTime": 1512675172854, "trialdata": {"rt": -1, "stimulus": "<p id=\"stim\">PORK</p>", "key_press": -1, "type": "PRES_VIS", "word": "pork", "wordID": 1107, "conditions": [24, 800, "v", 24000], "trial": 6, "serialpos": 1, "trial_type": "single-stim", "trial_index": 238, "time_elapsed": 1141936, "internal_node_id": "0.0-175.0"}}, {"uniqueid": "MTK0727:39GXDJN2OUL2RURV7Z08A3GDFGO8VC", "current_trial": 239, "dateTime": 1512675174835, "trialdata": {"rt": -1, "stimulus": "<p id=\"stim\">SPACE</p>", "key_press": -1, "type": "PRES_VIS", "word": "space", "wordID": 1344, "conditions": [24, 800, "v", 24000], "trial": 6, "serialpos": 2, "trial_type": "single-stim", "trial_index": 239, "time_elapsed": 1143917, "internal_node_id": "0.0-176.0"}}, {"uniqueid": "MTK0727:39GXDJN2OUL2RURV7Z08A3GDFGO8VC", "current_trial": 240, "dateTime": 1512675176571, "trialdata": {"rt": -1, "stimulus": "<p id=\"stim\">KIDNEY</p>", "key_press": -1, "type": "PRES_VIS", "word": "kidney", "wordID": 775, "conditions": [24, 800, "v", 24000], "trial": 6, "serialpos": 3, "trial_type": "single-stim", "trial_index": 240, "time_elapsed": 1145653, "internal_node_id": "0.0-177.0"}}, {"uniqueid": "MTK0727:39GXDJN2OUL2RURV7Z08A3GDFGO8VC", "current_trial": 241, "dateTime": 1512675178410, "trialdata": {"rt": -1, "stimulus": "<p id=\"stim\">LIVER</p>", "key_press": -1, "type": "PRES_VIS", "word": "liver", "wordID": 832, "conditions": [24, 800, "v", 24000], "trial": 6, "serialpos": 4, "trial_type": "single-stim", "trial_index": 241, "time_elapsed": 1147492, "internal_node_id": "0.0-178.0"}}, {"uniqueid": "MTK0727:39GXDJN2OUL2RURV7Z08A3GDFGO8VC", "current_trial": 242, "dateTime": 1512675180290, "trialdata": {"rt": -1, "stimulus": "<p id=\"stim\">HIGHWAY</p>", "key_press": -1, "type": "PRES_VIS", "word": "highway", "wordID": 706, "conditions": [24, 800, "v", 24000], "trial": 6, "serialpos": 5, "trial_type": "single-stim", "trial_index": 242, "time_elapsed": 1149371, "internal_node_id": "0.0-179.0"}}, {"uniqueid": "MTK0727:39GXDJN2OUL2RURV7Z08A3GDFGO8VC", "current_trial": 243, "dateTime": 1512675182013, "trialdata": {"rt": -1, "stimulus": "<p id=\"stim\">BASEMENT</p>", "key_press": -1, "type": "PRES_VIS", "word": "basement", "wordID": 93, "conditions": [24, 800, "v", 24000], "trial": 6, "serialpos": 6, "trial_type": "single-stim", "trial_index": 243, "time_elapsed": 1151095, "internal_node_id": "0.0-180.0"}}, {"uniqueid": "MTK0727:39GXDJN2OUL2RURV7Z08A3GDFGO8VC", "current_trial": 244, "dateTime": 1512675183789, "trialdata": {"rt": -1, "stimulus": "<p id=\"stim\">MILK</p>", "key_press": -1, "type": "PRES_VIS", "word": "milk", "wordID": 894, "conditions": [24, 800, "v", 24000], "trial": 6, "serialpos": 7, "trial_type": "single-stim", "trial_index": 244, "time_elapsed": 1152871, "internal_node_id": "0.0-181.0"}}, {"uniqueid": "MTK0727:39GXDJN2OUL2RURV7Z08A3GDFGO8VC", "current_trial": 245, "dateTime": 1512675185554, "trialdata": {"rt": -1, "stimulus": "<p id=\"stim\">PLATE</p>", "key_press": -1, "type": "PRES_VIS", "word": "plate", "wordID": 1085, "conditions": [24, 800, "v", 24000], "trial": 6, "serialpos": 8, "trial_type": "single-stim", "trial_index": 245, "time_elapsed": 1154635, "internal_node_id": "0.0-182.0"}}, {"uniqueid": "MTK0727:39GXDJN2OUL2RURV7Z08A3GDFGO8VC", "current_trial": 246, "dateTime": 1512675187302, "trialdata": {"rt": -1, "stimulus": "<p id=\"stim\">YARN</p>", "key_press": -1, "type": "PRES_VIS", "word": "yarn", "wordID": 1630, "conditions": [24, 800, "v", 24000], "trial": 6, "serialpos": 9, "trial_type": "single-stim", "trial_index": 246, "time_elapsed": 1156383, "internal_node_id": "0.0-183.0"}}, {"uniqueid": "MTK0727:39GXDJN2OUL2RURV7Z08A3GDFGO8VC", "current_trial": 247, "dateTime": 1512675189136, "trialdata": {"rt": -1, "stimulus": "<p id=\"stim\">FILM</p>", "key_press": -1, "type": "PRES_VIS", "word": "film", "wordID": 564, "conditions": [24, 800, "v", 24000], "trial": 6, "serialpos": 10, "trial_type": "single-stim", "trial_index": 247, "time_elapsed": 1158216, "internal_node_id": "0.0-184.0"}}, {"uniqueid": "MTK0727:39GXDJN2OUL2RURV7Z08A3GDFGO8VC", "current_trial": 248, "dateTime": 1512675190903, "trialdata": {"rt": -1, "stimulus": "<p id=\"stim\">HONEY</p>", "key_press": -1, "type": "PRES_VIS", "word": "honey", "wordID": 712, "conditions": [24, 800, "v", 24000], "trial": 6, "serialpos": 11, "trial_type": "single-stim", "trial_index": 248, "time_elapsed": 1159984, "internal_node_id": "0.0-185.0"}}, {"uniqueid": "MTK0727:39GXDJN2OUL2RURV7Z08A3GDFGO8VC", "current_trial": 249, "dateTime": 1512675192589, "trialdata": {"rt": -1, "stimulus": "<p id=\"stim\">ICEBERG</p>", "key_press": -1, "type": "PRES_VIS", "word": "iceberg", "wordID": 730, "conditions": [24, 800, "v", 24000], "trial": 6, "serialpos": 12, "trial_type": "single-stim", "trial_index": 249, "time_elapsed": 1161671, "internal_node_id": "0.0-186.0"}}, {"uniqueid": "MTK0727:39GXDJN2OUL2RURV7Z08A3GDFGO8VC", "current_trial": 250, "dateTime": 1512675194279, "trialdata": {"rt": -1, "stimulus": "<p id=\"stim\">HOUND</p>", "key_press": -1, "type": "PRES_VIS", "word": "hound", "wordID": 723, "conditions": [24, 800, "v", 24000], "trial": 6, "serialpos": 13, "trial_type": "single-stim", "trial_index": 250, "time_elapsed": 1163360, "internal_node_id": "0.0-187.0"}}, {"uniqueid": "MTK0727:39GXDJN2OUL2RURV7Z08A3GDFGO8VC", "current_trial": 251, "dateTime": 1512675196105, "trialdata": {"rt": -1, "stimulus": "<p id=\"stim\">JUGGLER</p>", "key_press": -1, "type": "PRES_VIS", "word": "juggler", "wordID": 762, "conditions": [24, 800, "v", 24000], "trial": 6, "serialpos": 14, "trial_type": "single-stim", "trial_index": 251, "time_elapsed": 1165187, "internal_node_id": "0.0-188.0"}}, {"uniqueid": "MTK0727:39GXDJN2OUL2RURV7Z08A3GDFGO8VC", "current_trial": 252, "dateTime": 1512675197787, "trialdata": {"rt": -1, "stimulus": "<p id=\"stim\">LILY</p>", "key_press": -1, "type": "PRES_VIS", "word": "lily", "wordID": 820, "conditions": [24, 800, "v", 24000], "trial": 6, "serialpos": 15, "trial_type": "single-stim", "trial_index": 252, "time_elapsed": 1166869, "internal_node_id": "0.0-189.0"}}, {"uniqueid": "MTK0727:39GXDJN2OUL2RURV7Z08A3GDFGO8VC", "current_trial": 253, "dateTime": 1512675199484, "trialdata": {"rt": -1, "stimulus": "<p id=\"stim\">SCALLOP</p>", "key_press": -1, "type": "PRES_VIS", "word": "scallop", "wordID": 1241, "conditions": [24, 800, "v", 24000], "trial": 6, "serialpos": 16, "trial_type": "single-stim", "trial_index": 253, "time_elapsed": 1168565, "internal_node_id": "0.0-190.0"}}, {"uniqueid": "MTK0727:39GXDJN2OUL2RURV7Z08A3GDFGO8VC", "current_trial": 254, "dateTime": 1512675201230, "trialdata": {"rt": -1, "stimulus": "<p id=\"stim\">STOMACH</p>", "key_press": -1, "type": "PRES_VIS", "word": "stomach", "wordID": 1383, "conditions": [24, 800, "v", 24000], "trial": 6, "serialpos": 17, "trial_type": "single-stim", "trial_index": 254, "time_elapsed": 1170311, "internal_node_id": "0.0-191.0"}}, {"uniqueid": "MTK0727:39GXDJN2OUL2RURV7Z08A3GDFGO8VC", "current_trial": 255, "dateTime": 1512675203231, "trialdata": {"rt": -1, "stimulus": "<p id=\"stim\">CHEST</p>", "key_press": -1, "type": "PRES_VIS", "word": "chest", "wordID": 294, "conditions": [24, 800, "v", 24000], "trial": 6, "serialpos": 18, "trial_type": "single-stim", "trial_index": 255, "time_elapsed": 1172312, "internal_node_id": "0.0-192.0"}}, {"uniqueid": "MTK0727:39GXDJN2OUL2RURV7Z08A3GDFGO8VC", "current_trial": 256, "dateTime": 1512675204987, "trialdata": {"rt": -1, "stimulus": "<p id=\"stim\">TUBA</p>", "key_press": -1, "type": "PRES_VIS", "word": "tuba", "wordID": 1514, "conditions": [24, 800, "v", 24000], "trial": 6, "serialpos": 19, "trial_type": "single-stim", "trial_index": 256, "time_elapsed": 1174068, "internal_node_id": "0.0-193.0"}}, {"uniqueid": "MTK0727:39GXDJN2OUL2RURV7Z08A3GDFGO8VC", "current_trial": 257, "dateTime": 1512675206946, "trialdata": {"rt": -1, "stimulus": "<p id=\"stim\">SKILLET</p>", "key_press": -1, "type": "PRES_VIS", "word": "skillet", "wordID": 1316, "conditions": [24, 800, "v", 24000], "trial": 6, "serialpos": 20, "trial_type": "single-stim", "trial_index": 257, "time_elapsed": 1176027, "internal_node_id": "0.0-194.0"}}, {"uniqueid": "MTK0727:39GXDJN2OUL2RURV7Z08A3GDFGO8VC", "current_trial": 258, "dateTime": 1512675208869, "trialdata": {"rt": -1, "stimulus": "<p id=\"stim\">WASP</p>", "key_press": -1, "type": "PRES_VIS", "word": "wasp", "wordID": 1592, "conditions": [24, 800, "v", 24000], "trial": 6, "serialpos": 21, "trial_type": "single-stim", "trial_index": 258, "time_elapsed": 1177951, "internal_node_id": "0.0-195.0"}}, {"uniqueid": "MTK0727:39GXDJN2OUL2RURV7Z08A3GDFGO8VC", "current_trial": 259, "dateTime": 1512675210885, "trialdata": {"rt": -1, "stimulus": "<p id=\"stim\">BREAST</p>", "key_press": -1, "type": "PRES_VIS", "word": "breast", "wordID": 170, "conditions": [24, 800, "v", 24000], "trial": 6, "serialpos": 22, "trial_type": "single-stim", "trial_index": 259, "time_elapsed": 1179966, "internal_node_id": "0.0-196.0"}}, {"uniqueid": "MTK0727:39GXDJN2OUL2RURV7Z08A3GDFGO8VC", "current_trial": 260, "dateTime": 1512675212892, "trialdata": {"rt": -1, "stimulus": "<p id=\"stim\">BLENDER</p>", "key_press": -1, "type": "PRES_VIS", "word": "blender", "wordID": 135, "conditions": [24, 800, "v", 24000], "trial": 6, "serialpos": 23, "trial_type": "single-stim", "trial_index": 260, "time_elapsed": 1181974, "internal_node_id": "0.0-197.0"}}, {"uniqueid": "MTK0727:39GXDJN2OUL2RURV7Z08A3GDFGO8VC", "current_trial": 261, "dateTime": 1512675215072, "trialdata": {"rt": -1, "stimulus": "", "key_press": -1, "type": "PRE_RECALL_DELAY", "trial_type": "single-stim", "trial_index": 261, "time_elapsed": 1184153, "internal_node_id": "0.0-198.0-0.0"}}, {"uniqueid": "MTK0727:39GXDJN2OUL2RURV7Z08A3GDFGO8VC", "current_trial": 262, "dateTime": 1512675215590, "trialdata": {"rt": -1000, "stimulus": "/static/audio/400Hz.wav", "key_press": -1, "type": "PRE_RECALL_ALERT", "trial_type": "single-audio", "trial_index": 262, "time_elapsed": 1184672, "internal_node_id": "0.0-199.0"}}, {"uniqueid": "MTK0727:39GXDJN2OUL2RURV7Z08A3GDFGO8VC", "current_trial": 263, "dateTime": 1512675275618, "trialdata": {"rt": [3243, 5419, 7724, 8875, 10491, 14123, 15086, 16251, 18827, 23115, 43979], "recwords": ["breast", "blender", "stomach", "liver", "kidney", "honey", "plate", "milk", "body", "sparse", "juggler"], "type": "FREE_RECALL", "conditions": [24, 800, "v", 24000], "trial": 6, "trial_type": "free-recall", "trial_index": 263, "time_elapsed": 1244681, "internal_node_id": "0.0-200.0-0.0"}}, {"uniqueid": "MTK0727:39GXDJN2OUL2RURV7Z08A3GDFGO8VC", "current_trial": 264, "dateTime": 1512675286139, "trialdata": {"rt": 8519, "key_press": 101, "type": "INSTRUCTIONS", "trial_type": "text", "trial_index": 264, "time_elapsed": 1255220, "internal_node_id": "0.0-201.0"}}, {"uniqueid": "MTK0727:39GXDJN2OUL2RURV7Z08A3GDFGO8VC", "current_trial": 265, "dateTime": 1512675300172, "trialdata": {"rt": [2102, 4182, 5990, 7894, 9414, 11622], "responses": ["20", "27", "17", "14", "15", "17"], "num1": [9, 9, 8, 2, 4, 3, 4], "num2": [7, 9, 2, 5, 4, 7, 8], "num3": [4, 9, 7, 8, 7, 7, 4], "type": "DISTRACTOR", "conditions": [24, 800, "v", 12000], "trial": 7, "trial_type": "math-distractor", "trial_index": 265, "time_elapsed": 1269253, "internal_node_id": "0.0-202.0"}}, {"uniqueid": "MTK0727:39GXDJN2OUL2RURV7Z08A3GDFGO8VC", "current_trial": 266, "dateTime": 1512675303192, "trialdata": {"rt": -1, "stimulus": "<p id=\"stim\">10</p>", "key_press": -1, "trial_type": "single-stim", "trial_index": 266, "time_elapsed": 1272273, "internal_node_id": "0.0-203.0-0.0"}}, {"uniqueid": "MTK0727:39GXDJN2OUL2RURV7Z08A3GDFGO8VC", "current_trial": 267, "dateTime": 1512675304190, "trialdata": {"rt": -1, "stimulus": "<p id=\"stim\">9</p>", "key_press": -1, "trial_type": "single-stim", "trial_index": 267, "time_elapsed": 1273271, "internal_node_id": "0.0-203.0-1.0"}}, {"uniqueid": "MTK0727:39GXDJN2OUL2RURV7Z08A3GDFGO8VC", "current_trial": 268, "dateTime": 1512675305204, "trialdata": {"rt": -1, "stimulus": "<p id=\"stim\">8</p>", "key_press": -1, "trial_type": "single-stim", "trial_index": 268, "time_elapsed": 1274285, "