{"condition": 0, "counterbalance": 1189, "assignmentId": "3G5F9DBFOQ4VK5SOA3UENG9CHX5VH0", "workerId": "MTK0694", "hitId": "3TC2K6WK9G9R7JVZTNBVJENI2DY826", "currenttrial": 626, "bonus": 0, "data": [{"uniqueid": "MTK0694:3G5F9DBFOQ4VK5SOA3UENG9CHX5VH0", "current_trial": 0, "dateTime": 1512611395299, "trialdata": {"rt": 3829, "key_press": 13, "type": "INSTRUCTIONS", "trial_type": "text", "trial_index": 0, "time_elapsed": 3832, "internal_node_id": "0.0-0.0"}}, {"uniqueid": "MTK0694:3G5F9DBFOQ4VK5SOA3UENG9CHX5VH0", "current_trial": 1, "dateTime": 1512611423506, "trialdata": {"rt": 28206, "key_press": 13, "type": "INSTRUCTIONS", "trial_type": "text", "trial_index": 1, "time_elapsed": 32040, "internal_node_id": "0.0-1.0"}}, {"uniqueid": "MTK0694:3G5F9DBFOQ4VK5SOA3UENG9CHX5VH0", "current_trial": 2, "dateTime": 1512611457090, "trialdata": {"rt": [33530], "responses": ["ocean"], "type": "AUDIO_TEST", "trial_type": "audio-test", "trial_index": 2, "time_elapsed": 65623, "internal_node_id": "0.0-2.0"}}, {"uniqueid": "MTK0694:3G5F9DBFOQ4VK5SOA3UENG9CHX5VH0", "current_trial": 3, "dateTime": 1512611472426, "trialdata": {"rt": [15332], "responses": ["crystal"], "type": "AUDIO_TEST", "trial_type": "audio-test", "trial_index": 3, "time_elapsed": 80960, "internal_node_id": "0.0-3.0"}}, {"uniqueid": "MTK0694:3G5F9DBFOQ4VK5SOA3UENG9CHX5VH0", "current_trial": 4, "dateTime": 1512611485123, "trialdata": {"rt": [12691], "responses": ["spice"], "type": "AUDIO_TEST", "trial_type": "audio-test", "trial_index": 4, "time_elapsed": 93657, "internal_node_id": "0.0-4.0"}}, {"uniqueid": "MTK0694:3G5F9DBFOQ4VK5SOA3UENG9CHX5VH0", "current_trial": 5, "dateTime": 1512611568438, "trialdata": {"rt": 82561, "responses": "{\"Q0\":\"9:00\",\"Q1\":\"6:30\",\"Q2\":\"5\"}", "type": "SLEEP_SURVEY", "trial_type": "survey-text", "trial_index": 5, "time_elapsed": 176972, "internal_node_id": "0.0-5.0"}}, {"uniqueid": "MTK0694:3G5F9DBFOQ4VK5SOA3UENG9CHX5VH0", "current_trial": 6, "dateTime": 1512611682859, "trialdata": {"rt": 113420, "key_press": 13, "type": "INSTRUCTIONS", "trial_type": "text", "trial_index": 6, "time_elapsed": 291393, "internal_node_id": "0.0-6.0"}}, {"uniqueid": "MTK0694:3G5F9DBFOQ4VK5SOA3UENG9CHX5VH0", "current_trial": 7, "dateTime": 1512611724484, "trialdata": {"rt": 41124, "key_press": 13, "type": "INSTRUCTIONS", "trial_type": "text", "trial_index": 7, "time_elapsed": 333018, "internal_node_id": "0.0-7.0"}}, {"uniqueid": "MTK0694:3G5F9DBFOQ4VK5SOA3UENG9CHX5VH0", "current_trial": 8, "dateTime": 1512611741643, "trialdata": {"rt": 16659, "key_press": 13, "type": "INSTRUCTIONS", "trial_type": "text", "trial_index": 8, "time_elapsed": 350177, "internal_node_id": "0.0-8.0"}}, {"uniqueid": "MTK0694:3G5F9DBFOQ4VK5SOA3UENG9CHX5VH0", "current_trial": 9, "dateTime": 1512611760648, "trialdata": {"rt": [10226, 15987], "responses": ["21", "14"], "num1": [8, 8, 5], "num2": [6, 5, 3], "num3": [7, 1, 2], "type": "DISTRACTOR", "conditions": [18, 1200, "a", 18000], "trial": 0, "trial_type": "math-distractor", "trial_index": 9, "time_elapsed": 369181, "internal_node_id": "0.0-9.0"}}, {"uniqueid": "MTK0694:3G5F9DBFOQ4VK5SOA3UENG9CHX5VH0", "current_trial": 10, "dateTime": 1512611763648, "trialdata": {"rt": -1, "stimulus": "<p id=\"stim\">10</p>", "key_press": -1, "trial_type": "single-stim", "trial_index": 10, "time_elapsed": 372182, "internal_node_id": "0.0-10.0-0.0"}}, {"uniqueid": "MTK0694:3G5F9DBFOQ4VK5SOA3UENG9CHX5VH0", "current_trial": 11, "dateTime": 1512611764649, "trialdata": {"rt": -1, "stimulus": "<p id=\"stim\">9</p>", "key_press": -1, "trial_type": "single-stim", "trial_index": 11, "time_elapsed": 373183, "internal_node_id": "0.0-10.0-1.0"}}, {"uniqueid": "MTK0694:3G5F9DBFOQ4VK5SOA3UENG9CHX5VH0", "current_trial": 12, "dateTime": 1512611765651, "trialdata": {"rt": -1, "stimulus": "<p id=\"stim\">8</p>", "key_press": -1, "trial_type": "single-stim", "trial_index": 12, "time_elapsed": 374184, "internal_node_id": "0.0-10.0-2.0"}}, {"uniqueid": "MTK0694:3G5F9DBFOQ4VK5SOA3UENG9CHX5VH0", "current_trial": 13, "dateTime": 1512611766652, "trialdata": {"rt": -1, "stimulus": "<p id=\"stim\">7</p>", "key_press": -1, "trial_type": "single-stim", "trial_index": 13, "time_elapsed": 375186, "internal_node_id": "0.0-10.0-3.0"}}, {"uniqueid": "MTK0694:3G5F9DBFOQ4VK5SOA3UENG9CHX5VH0", "current_trial": 14, "dateTime": 1512611767652, "trialdata": {"rt": -1, "stimulus": "<p id=\"stim\">6</p>", "key_press": -1, "trial_type": "single-stim", "trial_index": 14, "time_elapsed": 376186, "internal_node_id": "0.0-10.0-4.0"}}, {"uniqueid": "MTK0694:3G5F9DBFOQ4VK5SOA3UENG9CHX5VH0", "current_trial": 15, "dateTime": 1512611768653, "trialdata": {"rt": -1, "stimulus": "<p id=\"stim\">5</p>", "key_press": -1, "trial_type": "single-stim", "trial_index": 15, "time_elapsed": 377186, "internal_node_id": "0.0-10.0-5.0"}}, {"uniqueid": "MTK0694:3G5F9DBFOQ4VK5SOA3UENG9CHX5VH0", "current_trial": 16, "dateTime": 1512611769654, "trialdata": {"rt": -1, "stimulus": "<p id=\"stim\">4</p>", "key_press": -1, "trial_type": "single-stim", "trial_index": 16, "time_elapsed": 378187, "internal_node_id": "0.0-10.0-6.0"}}, {"uniqueid": "MTK0694:3G5F9DBFOQ4VK5SOA3UENG9CHX5VH0", "current_trial": 17, "dateTime": 1512611770655, "trialdata": {"rt": -1, "stimulus": "<p id=\"stim\">3</p>", "key_press": -1, "trial_type": "single-stim", "trial_index": 17, "time_elapsed": 379188, "internal_node_id": "0.0-10.0-7.0"}}, {"uniqueid": "MTK0694:3G5F9DBFOQ4VK5SOA3UENG9CHX5VH0", "current_trial": 18, "dateTime": 1512611771655, "trialdata": {"rt": -1, "stimulus": "<p id=\"stim\">2</p>", "key_press": -1, "trial_type": "single-stim", "trial_index": 18, "time_elapsed": 380189, "internal_node_id": "0.0-10.0-8.0"}}, {"uniqueid": "MTK0694:3G5F9DBFOQ4VK5SOA3UENG9CHX5VH0", "current_trial": 19, "dateTime": 1512611772656, "trialdata": {"rt": -1, "stimulus": "<p id=\"stim\">1</p>", "key_press": -1, "trial_type": "single-stim", "trial_index": 19, "time_elapsed": 381189, "internal_node_id": "0.0-10.0-9.0"}}, {"uniqueid": "MTK0694:3G5F9DBFOQ4VK5SOA3UENG9CHX5VH0", "current_trial": 20, "dateTime": 1512611774156, "trialdata": {"rt": -1, "stimulus": "<p id=\"stim\">+</p>", "key_press": -1, "type": "FIXATION", "trial_type": "single-stim", "trial_index": 20, "time_elapsed": 382690, "internal_node_id": "0.0-11.0-0.0"}}, {"uniqueid": "MTK0694:3G5F9DBFOQ4VK5SOA3UENG9CHX5VH0", "current_trial": 21, "dateTime": 1512611776493, "trialdata": {"rt": -1000, "stimulus": "/static/audio/wordpool/OUTDOORS.wav", "key_press": -1, "type": "PRES_AUD", "word": "outdoors", "wordID": 986, "conditions": [18, 1200, "a", 18000], "trial": 0, "serialpos": 0, "trial_type": "single-audio", "trial_index": 21, "time_elapsed": 385026, "internal_node_id": "0.0-12.0"}}, {"uniqueid": "MTK0694:3G5F9DBFOQ4VK5SOA3UENG9CHX5VH0", "current_trial": 22, "dateTime": 1512611778514, "trialdata": {"rt": -1000, "stimulus": "/static/audio/wordpool/LIZARD.wav", "key_press": -1, "type": "PRES_AUD", "word": "lizard", "wordID": 833, "conditions": [18, 1200, "a", 18000], "trial": 0, "serialpos": 1, "trial_type": "single-audio", "trial_index": 22, "time_elapsed": 387048, "internal_node_id": "0.0-13.0"}}, {"uniqueid": "MTK0694:3G5F9DBFOQ4VK5SOA3UENG9CHX5VH0", "current_trial": 23, "dateTime": 1512611780761, "trialdata": {"rt": -1000, "stimulus": "/static/audio/wordpool/PUPPY.wav", "key_press": -1, "type": "PRES_AUD", "word": "puppy", "wordID": 1143, "conditions": [18, 1200, "a", 18000], "trial": 0, "serialpos": 2, "trial_type": "single-audio", "trial_index": 23, "time_elapsed": 389295, "internal_node_id": "0.0-14.0"}}, {"uniqueid": "MTK0694:3G5F9DBFOQ4VK5SOA3UENG9CHX5VH0", "current_trial": 24, "dateTime": 1512611782907, "trialdata": {"rt": -1000, "stimulus": "/static/audio/wordpool/JUGGLER.wav", "key_press": -1, "type": "PRES_AUD", "word": "juggler", "wordID": 762, "conditions": [18, 1200, "a", 18000], "trial": 0, "serialpos": 3, "trial_type": "single-audio", "trial_index": 24, "time_elapsed": 391441, "internal_node_id": "0.0-15.0"}}, {"uniqueid": "MTK0694:3G5F9DBFOQ4VK5SOA3UENG9CHX5VH0", "current_trial": 25, "dateTime": 1512611784979, "trialdata": {"rt": -1000, "stimulus": "/static/audio/wordpool/ROCKET.wav", "key_press": -1, "type": "PRES_AUD", "word": "rocket", "wordID": 1201, "conditions": [18, 1200, "a", 18000], "trial": 0, "serialpos": 4, "trial_type": "single-audio", "trial_index": 25, "time_elapsed": 393513, "internal_node_id": "0.0-16.0"}}, {"uniqueid": "MTK0694:3G5F9DBFOQ4VK5SOA3UENG9CHX5VH0", "current_trial": 26, "dateTime": 1512611787008, "trialdata": {"rt": -1000, "stimulus": "/static/audio/wordpool/LAPEL.wav", "key_press": -1, "type": "PRES_AUD", "word": "lapel", "wordID": 799, "conditions": [18, 1200, "a", 18000], "trial": 0, "serialpos": 5, "trial_type": "single-audio", "trial_index": 26, "time_elapsed": 395541, "internal_node_id": "0.0-17.0"}}, {"uniqueid": "MTK0694:3G5F9DBFOQ4VK5SOA3UENG9CHX5VH0", "current_trial": 27, "dateTime": 1512611789229, "trialdata": {"rt": -1000, "stimulus": "/static/audio/wordpool/CROSS.wav", "key_press": -1, "type": "PRES_AUD", "word": "cross", "wordID": 412, "conditions": [18, 1200, "a", 18000], "trial": 0, "serialpos": 6, "trial_type": "single-audio", "trial_index": 27, "time_elapsed": 397763, "internal_node_id": "0.0-18.0"}}, {"uniqueid": "MTK0694:3G5F9DBFOQ4VK5SOA3UENG9CHX5VH0", "current_trial": 28, "dateTime": 1512611791288, "trialdata": {"rt": -1000, "stimulus": "/static/audio/wordpool/BUCKET.wav", "key_press": -1, "type": "PRES_AUD", "word": "bucket", "wordID": 183, "conditions": [18, 1200, "a", 18000], "trial": 0, "serialpos": 7, "trial_type": "single-audio", "trial_index": 28, "time_elapsed": 399822, "internal_node_id": "0.0-19.0"}}, {"uniqueid": "MTK0694:3G5F9DBFOQ4VK5SOA3UENG9CHX5VH0", "current_trial": 29, "dateTime": 1512611793505, "trialdata": {"rt": -1000, "stimulus": "/static/audio/wordpool/PERMIT.wav", "key_press": -1, "type": "PRES_AUD", "word": "permit", "wordID": 1050, "conditions": [18, 1200, "a", 18000], "trial": 0, "serialpos": 8, "trial_type": "single-audio", "trial_index": 29, "time_elapsed": 402039, "internal_node_id": "0.0-20.0"}}, {"uniqueid": "MTK0694:3G5F9DBFOQ4VK5SOA3UENG9CHX5VH0", "current_trial": 30, "dateTime": 1512611795829, "trialdata": {"rt": -1000, "stimulus": "/static/audio/wordpool/ASIA.wav", "key_press": -1, "type": "PRES_AUD", "word": "asia", "wordID": 45, "conditions": [18, 1200, "a", 18000], "trial": 0, "serialpos": 9, "trial_type": "single-audio", "trial_index": 30, "time_elapsed": 404363, "internal_node_id": "0.0-21.0"}}, {"uniqueid": "MTK0694:3G5F9DBFOQ4VK5SOA3UENG9CHX5VH0", "current_trial": 31, "dateTime": 1512611797934, "trialdata": {"rt": -1000, "stimulus": "/static/audio/wordpool/SHOULDER.wav", "key_press": -1, "type": "PRES_AUD", "word": "shoulder", "wordID": 1293, "conditions": [18, 1200, "a", 18000], "trial": 0, "serialpos": 10, "trial_type": "single-audio", "trial_index": 31, "time_elapsed": 406468, "internal_node_id": "0.0-22.0"}}, {"uniqueid": "MTK0694:3G5F9DBFOQ4VK5SOA3UENG9CHX5VH0", "current_trial": 32, "dateTime": 1512611800216, "trialdata": {"rt": -1000, "stimulus": "/static/audio/wordpool/ACTRESS.wav", "key_press": -1, "type": "PRES_AUD", "word": "actress", "wordID": 5, "conditions": [18, 1200, "a", 18000], "trial": 0, "serialpos": 11, "trial_type": "single-audio", "trial_index": 32, "time_elapsed": 408750, "internal_node_id": "0.0-23.0"}}, {"uniqueid": "MTK0694:3G5F9DBFOQ4VK5SOA3UENG9CHX5VH0", "current_trial": 33, "dateTime": 1512611802522, "trialdata": {"rt": -1000, "stimulus": "/static/audio/wordpool/WAITRESS.wav", "key_press": -1, "type": "PRES_AUD", "word": "waitress", "wordID": 1580, "conditions": [18, 1200, "a", 18000], "trial": 0, "serialpos": 12, "trial_type": "single-audio", "trial_index": 33, "time_elapsed": 411056, "internal_node_id": "0.0-24.0"}}, {"uniqueid": "MTK0694:3G5F9DBFOQ4VK5SOA3UENG9CHX5VH0", "current_trial": 34, "dateTime": 1512611804871, "trialdata": {"rt": -1000, "stimulus": "/static/audio/wordpool/TOASTER.wav", "key_press": -1, "type": "PRES_AUD", "word": "toaster", "wordID": 1471, "conditions": [18, 1200, "a", 18000], "trial": 0, "serialpos": 13, "trial_type": "single-audio", "trial_index": 34, "time_elapsed": 413405, "internal_node_id": "0.0-25.0"}}, {"uniqueid": "MTK0694:3G5F9DBFOQ4VK5SOA3UENG9CHX5VH0", "current_trial": 35, "dateTime": 1512611806872, "trialdata": {"rt": -1000, "stimulus": "/static/audio/wordpool/FOREHEAD.wav", "key_press": -1, "type": "PRES_AUD", "word": "forehead", "wordID": 591, "conditions": [18, 1200, "a", 18000], "trial": 0, "serialpos": 14, "trial_type": "single-audio", "trial_index": 35, "time_elapsed": 415406, "internal_node_id": "0.0-26.0"}}, {"uniqueid": "MTK0694:3G5F9DBFOQ4VK5SOA3UENG9CHX5VH0", "current_trial": 36, "dateTime": 1512611808956, "trialdata": {"rt": -1000, "stimulus": "/static/audio/wordpool/POPCORN.wav", "key_press": -1, "type": "PRES_AUD", "word": "popcorn", "wordID": 1103, "conditions": [18, 1200, "a", 18000], "trial": 0, "serialpos": 15, "trial_type": "single-audio", "trial_index": 36, "time_elapsed": 417490, "internal_node_id": "0.0-27.0"}}, {"uniqueid": "MTK0694:3G5F9DBFOQ4VK5SOA3UENG9CHX5VH0", "current_trial": 37, "dateTime": 1512611811054, "trialdata": {"rt": -1000, "stimulus": "/static/audio/wordpool/CUSTARD.wav", "key_press": -1, "type": "PRES_AUD", "word": "custard", "wordID": 428, "conditions": [18, 1200, "a", 18000], "trial": 0, "serialpos": 16, "trial_type": "single-audio", "trial_index": 37, "time_elapsed": 419588, "internal_node_id": "0.0-28.0"}}, {"uniqueid": "MTK0694:3G5F9DBFOQ4VK5SOA3UENG9CHX5VH0", "current_trial": 38, "dateTime": 1512611813339, "trialdata": {"rt": -1000, "stimulus": "/static/audio/wordpool/SERVER.wav", "key_press": -1, "type": "PRES_AUD", "word": "server", "wordID": 1271, "conditions": [18, 1200, "a", 18000], "trial": 0, "serialpos": 17, "trial_type": "single-audio", "trial_index": 38, "time_elapsed": 421873, "internal_node_id": "0.0-29.0"}}, {"uniqueid": "MTK0694:3G5F9DBFOQ4VK5SOA3UENG9CHX5VH0", "current_trial": 39, "dateTime": 1512611814641, "trialdata": {"rt": -1, "stimulus": "", "key_press": -1, "type": "PRE_RECALL_DELAY", "trial_type": "single-stim", "trial_index": 39, "time_elapsed": 423175, "internal_node_id": "0.0-30.0-0.0"}}, {"uniqueid": "MTK0694:3G5F9DBFOQ4VK5SOA3UENG9CHX5VH0", "current_trial": 40, "dateTime": 1512611815142, "trialdata": {"rt": -1000, "stimulus": "/static/audio/400Hz.wav", "key_press": -1, "type": "PRE_RECALL_ALERT", "trial_type": "single-audio", "trial_index": 40, "time_elapsed": 423676, "internal_node_id": "0.0-31.0"}}, {"uniqueid": "MTK0694:3G5F9DBFOQ4VK5SOA3UENG9CHX5VH0", "current_trial": 41, "dateTime": 1512611875151, "trialdata": {"rt": [5585, 10145, 13593, 17377, 20281, 26105], "recwords": ["outdoors", "lizard", "puppy", "bucket", "asia", "rocket"], "type": "FREE_RECALL", "conditions": [18, 1200, "a", 18000], "trial": 0, "trial_type": "free-recall", "trial_index": 41, "time_elapsed": 483680, "internal_node_id": "0.0-32.0-0.0"}}, {"uniqueid": "MTK0694:3G5F9DBFOQ4VK5SOA3UENG9CHX5VH0", "current_trial": 42, "dateTime": 1512611879474, "trialdata": {"rt": 2322, "key_press": 13, "type": "INSTRUCTIONS", "trial_type": "text", "trial_index": 42, "time_elapsed": 488008, "internal_node_id": "0.0-33.0"}}, {"uniqueid": "MTK0694:3G5F9DBFOQ4VK5SOA3UENG9CHX5VH0", "current_trial": 43, "dateTime": 1512611899477, "trialdata": {"rt": [4053, 10445, 16357], "responses": ["14", "17", "14"], "num1": [8, 5, 3, 2], "num2": [4, 7, 6, 8], "num3": [2, 5, 5, 6], "type": "DISTRACTOR", "conditions": [18, 1200, "v", 18000], "trial": 1, "trial_type": "math-distractor", "trial_index": 43, "time_elapsed": 508011, "internal_node_id": "0.0-34.0"}}, {"uniqueid": "MTK0694:3G5F9DBFOQ4VK5SOA3UENG9CHX5VH0", "current_trial": 44, "dateTime": 1512611902477, "trialdata": {"rt": -1, "stimulus": "<p id=\"stim\">10</p>", "key_press": -1, "trial_type": "single-stim", "trial_index": 44, "time_elapsed": 511011, "internal_node_id": "0.0-35.0-0.0"}}, {"uniqueid": "MTK0694:3G5F9DBFOQ4VK5SOA3UENG9CHX5VH0", "current_trial": 45, "dateTime": 1512611903477, "trialdata": {"rt": -1, "stimulus": "<p id=\"stim\">9</p>", "key_press": -1, "trial_type": "single-stim", "trial_index": 45, "time_elapsed": 512011, "internal_node_id": "0.0-35.0-1.0"}}, {"uniqueid": "MTK0694:3G5F9DBFOQ4VK5SOA3UENG9CHX5VH0", "current_trial": 46, "dateTime": 1512611904478, "trialdata": {"rt": -1, "stimulus": "<p id=\"stim\">8</p>", "key_press": -1, "trial_type": "single-stim", "trial_index": 46, "time_elapsed": 513012, "internal_node_id": "0.0-35.0-2.0"}}, {"uniqueid": "MTK0694:3G5F9DBFOQ4VK5SOA3UENG9CHX5VH0", "current_trial": 47, "dateTime": 1512611905479, "trialdata": {"rt": -1, "stimulus": "<p id=\"stim\">7</p>", "key_press": -1, "trial_type": "single-stim", "trial_index": 47, "time_elapsed": 514012, "internal_node_id": "0.0-35.0-3.0"}}, {"uniqueid": "MTK0694:3G5F9DBFOQ4VK5SOA3UENG9CHX5VH0", "current_trial": 48, "dateTime": 1512611906480, "trialdata": {"rt": -1, "stimulus": "<p id=\"stim\">6</p>", "key_press": -1, "trial_type": "single-stim", "trial_index": 48, "time_elapsed": 515013, "internal_node_id": "0.0-35.0-4.0"}}, {"uniqueid": "MTK0694:3G5F9DBFOQ4VK5SOA3UENG9CHX5VH0", "current_trial": 49, "dateTime": 1512611907481, "trialdata": {"rt": -1, "stimulus": "<p id=\"stim\">5</p>", "key_press": -1, "trial_type": "single-stim", "trial_index": 49, "time_elapsed": 516015, "internal_node_id": "0.0-35.0-5.0"}}, {"uniqueid": "MTK0694:3G5F9DBFOQ4VK5SOA3UENG9CHX5VH0", "current_trial": 50, "dateTime": 1512611908482, "trialdata": {"rt": -1, "stimulus": "<p id=\"stim\">4</p>", "key_press": -1, "trial_type": "single-stim", "trial_index": 50, "time_elapsed": 517016, "internal_node_id": "0.0-35.0-6.0"}}, {"uniqueid": "MTK0694:3G5F9DBFOQ4VK5SOA3UENG9CHX5VH0", "current_trial": 51, "dateTime": 1512611909483, "trialdata": {"rt": -1, "stimulus": "<p id=\"stim\">3</p>", "key_press": -1, "trial_type": "single-stim", "trial_index": 51, "time_elapsed": 518016, "internal_node_id": "0.0-35.0-7.0"}}, {"uniqueid": "MTK0694:3G5F9DBFOQ4VK5SOA3UENG9CHX5VH0", "current_trial": 52, "dateTime": 1512611910484, "trialdata": {"rt": -1, "stimulus": "<p id=\"stim\">2</p>", "key_press": -1, "trial_type": "single-stim", "trial_index": 52, "time_elapsed": 519017, "internal_node_id": "0.0-35.0-8.0"}}, {"uniqueid": "MTK0694:3G5F9DBFOQ4VK5SOA3UENG9CHX5VH0", "current_trial": 53, "dateTime": 1512611911486, "trialdata": {"rt": -1, "stimulus": "<p id=\"stim\">1</p>", "key_press": -1, "trial_type": "single-stim", "trial_index": 53, "time_elapsed": 520019, "internal_node_id": "0.0-35.0-9.0"}}, {"uniqueid": "MTK0694:3G5F9DBFOQ4VK5SOA3UENG9CHX5VH0", "current_trial": 54, "dateTime": 1512611912987, "trialdata": {"rt": -1, "stimulus": "<p id=\"stim\">+</p>", "key_press": -1, "type": "FIXATION", "trial_type": "single-stim", "trial_index": 54, "time_elapsed": 521521, "internal_node_id": "0.0-36.0-0.0"}}, {"uniqueid": "MTK0694:3G5F9DBFOQ4VK5SOA3UENG9CHX5VH0", "current_trial": 55, "dateTime": 1512611914188, "trialdata": {"rt": -1, "stimulus": "<p id=\"stim\">PIGEON</p>", "key_press": -1, "type": "PRES_VIS", "word": "pigeon", "wordID": 1064, "conditions": [18, 1200, "v", 18000], "trial": 1, "serialpos": 0, "trial_type": "single-stim", "trial_index": 55, "time_elapsed": 522722, "internal_node_id": "0.0-37.0"}}, {"uniqueid": "MTK0694:3G5F9DBFOQ4VK5SOA3UENG9CHX5VH0", "current_trial": 56, "dateTime": 1512611916392, "trialdata": {"rt": -1, "stimulus": "<p id=\"stim\">CRAYON</p>", "key_press": -1, "type": "PRES_VIS", "word": "crayon", "wordID": 400, "conditions": [18, 1200, "v", 18000], "trial": 1, "serialpos": 1, "trial_type": "single-stim", "trial_index": 56, "time_elapsed": 524925, "internal_node_id": "0.0-38.0"}}, {"uniqueid": "MTK0694:3G5F9DBFOQ4VK5SOA3UENG9CHX5VH0", "current_trial": 57, "dateTime": 1512611918491, "trialdata": {"rt": -1, "stimulus": "<p id=\"stim\">FUNGUS</p>", "key_press": -1, "type": "PRES_VIS", "word": "fungus", "wordID": 613, "conditions": [18, 1200, "v", 18000], "trial": 1, "serialpos": 2, "trial_type": "single-stim", "trial_index": 57, "time_elapsed": 527025, "internal_node_id": "0.0-39.0"}}, {"uniqueid": "MTK0694:3G5F9DBFOQ4VK5SOA3UENG9CHX5VH0", "current_trial": 58, "dateTime": 1512611920775, "trialdata": {"rt": -1, "stimulus": "<p id=\"stim\">HAMPER</p>", "key_press": -1, "type": "PRES_VIS", "word": "hamper", "wordID": 681, "conditions": [18, 1200, "v", 18000], "trial": 1, "serialpos": 3, "trial_type": "single-stim", "trial_index": 58, "time_elapsed": 529308, "internal_node_id": "0.0-40.0"}}, {"uniqueid": "MTK0694:3G5F9DBFOQ4VK5SOA3UENG9CHX5VH0", "current_trial": 59, "dateTime": 1512611923009, "trialdata": {"rt": -1, "stimulus": "<p id=\"stim\">ROOSTER</p>", "key_press": -1, "type": "PRES_VIS", "word": "rooster", "wordID": 1208, "conditions": [18, 1200, "v", 18000], "trial": 1, "serialpos": 4, "trial_type": "single-stim", "trial_index": 59, "time_elapsed": 531542, "internal_node_id": "0.0-41.0"}}, {"uniqueid": "MTK0694:3G5F9DBFOQ4VK5SOA3UENG9CHX5VH0", "current_trial": 60, "dateTime": 1512611925114, "trialdata": {"rt": -1, "stimulus": "<p id=\"stim\">BACON</p>", "key_press": -1, "type": "PRES_VIS", "word": "bacon", "wordID": 66, "conditions": [18, 1200, "v", 18000], "trial": 1, "serialpos": 5, "trial_type": "single-stim", "trial_index": 60, "time_elapsed": 533647, "internal_node_id": "0.0-42.0"}}, {"uniqueid": "MTK0694:3G5F9DBFOQ4VK5SOA3UENG9CHX5VH0", "current_trial": 61, "dateTime": 1512611927369, "trialdata": {"rt": -1, "stimulus": "<p id=\"stim\">LEG</p>", "key_press": -1, "type": "PRES_VIS", "word": "leg", "wordID": 808, "conditions": [18, 1200, "v", 18000], "trial": 1, "serialpos": 6, "trial_type": "single-stim", "trial_index": 61, "time_elapsed": 535903, "internal_node_id": "0.0-43.0"}}, {"uniqueid": "MTK0694:3G5F9DBFOQ4VK5SOA3UENG9CHX5VH0", "current_trial": 62, "dateTime": 1512611929628, "trialdata": {"rt": -1, "stimulus": "<p id=\"stim\">HAWK</p>", "key_press": -1, "type": "PRES_VIS", "word": "hawk", "wordID": 691, "conditions": [18, 1200, "v", 18000], "trial": 1, "serialpos": 7, "trial_type": "single-stim", "trial_index": 62, "time_elapsed": 538161, "internal_node_id": "0.0-44.0"}}, {"uniqueid": "MTK0694:3G5F9DBFOQ4VK5SOA3UENG9CHX5VH0", "current_trial": 63, "dateTime": 1512611931841, "trialdata": {"rt": -1, "stimulus": "<p id=\"stim\">GYMNAST</p>", "key_press": -1, "type": "PRES_VIS", "word": "gymnast", "wordID": 674, "conditions": [18, 1200, "v", 18000], "trial": 1, "serialpos": 8, "trial_type": "single-stim", "trial_index": 63, "time_elapsed": 540375, "internal_node_id": "0.0-45.0"}}, {"uniqueid": "MTK0694:3G5F9DBFOQ4VK5SOA3UENG9CHX5VH0", "current_trial": 64, "dateTime": 1512611933861, "trialdata": {"rt": -1, "stimulus": "<p id=\"stim\">TURTLE</p>", "key_press": -1, "type": "PRES_VIS", "word": "turtle", "wordID": 1521, "conditions": [18, 1200, "v", 18000], "trial": 1, "serialpos": 9, "trial_type": "single-stim", "trial_index": 64, "time_elapsed": 542395, "internal_node_id": "0.0-46.0"}}, {"uniqueid": "MTK0694:3G5F9DBFOQ4VK5SOA3UENG9CHX5VH0", "current_trial": 65, "dateTime": 1512611936097, "trialdata": {"rt": -1, "stimulus": "<p id=\"stim\">GLOVE</p>", "key_press": -1, "type": "PRES_VIS", "word": "glove", "wordID": 641, "conditions": [18, 1200, "v", 18000], "trial": 1, "serialpos": 10, "trial_type": "single-stim", "trial_index": 65, "time_elapsed": 544631, "internal_node_id": "0.0-47.0"}}, {"uniqueid": "MTK0694:3G5F9DBFOQ4VK5SOA3UENG9CHX5VH0", "current_trial": 66, "dateTime": 1512611938435, "trialdata": {"rt": -1, "stimulus": "<p id=\"stim\">DRIVER</p>", "key_press": -1, "type": "PRES_VIS", "word": "driver", "wordID": 498, "conditions": [18, 1200, "v", 18000], "trial": 1, "serialpos": 11, "trial_type": "single-stim", "trial_index": 66, "time_elapsed": 546969, "internal_node_id": "0.0-48.0"}}, {"uniqueid": "MTK0694:3G5F9DBFOQ4VK5SOA3UENG9CHX5VH0", "current_trial": 67, "dateTime": 1512611940437, "trialdata": {"rt": -1, "stimulus": "<p id=\"stim\">LIVER</p>", "key_press": -1, "type": "PRES_VIS", "word": "liver", "wordID": 832, "conditions": [18, 1200, "v", 18000], "trial": 1, "serialpos": 12, "trial_type": "single-stim", "trial_index": 67, "time_elapsed": 548971, "internal_node_id": "0.0-49.0"}}, {"uniqueid": "MTK0694:3G5F9DBFOQ4VK5SOA3UENG9CHX5VH0", "current_trial": 68, "dateTime": 1512611942457, "trialdata": {"rt": -1, "stimulus": "<p id=\"stim\">CHAMPAGNE</p>", "key_press": -1, "type": "PRES_VIS", "word": "champagne", "wordID": 277, "conditions": [18, 1200, "v", 18000], "trial": 1, "serialpos": 13, "trial_type": "single-stim", "trial_index": 68, "time_elapsed": 550986, "internal_node_id": "0.0-50.0"}}, {"uniqueid": "MTK0694:3G5F9DBFOQ4VK5SOA3UENG9CHX5VH0", "current_trial": 69, "dateTime": 1512611944731, "trialdata": {"rt": -1, "stimulus": "<p id=\"stim\">TERMITE</p>", "key_press": -1, "type": "PRES_VIS", "word": "termite", "wordID": 1450, "conditions": [18, 1200, "v", 18000], "trial": 1, "serialpos": 14, "trial_type": "single-stim", "trial_index": 69, "time_elapsed": 553265, "internal_node_id": "0.0-51.0"}}, {"uniqueid": "MTK0694:3G5F9DBFOQ4VK5SOA3UENG9CHX5VH0", "current_trial": 70, "dateTime": 1512611947070, "trialdata": {"rt": -1, "stimulus": "<p id=\"stim\">VALVE</p>", "key_press": -1, "type": "PRES_VIS", "word": "valve", "wordID": 1545, "conditions": [18, 1200, "v", 18000], "trial": 1, "serialpos": 15, "trial_type": "single-stim", "trial_index": 70, "time_elapsed": 555604, "internal_node_id": "0.0-52.0"}}, {"uniqueid": "MTK0694:3G5F9DBFOQ4VK5SOA3UENG9CHX5VH0", "current_trial": 71, "dateTime": 1512611949250, "trialdata": {"rt": -1, "stimulus": "<p id=\"stim\">CROWN</p>", "key_press": -1, "type": "PRES_VIS", "word": "crown", "wordID": 414, "conditions": [18, 1200, "v", 18000], "trial": 1, "serialpos": 16, "trial_type": "single-stim", "trial_index": 71, "time_elapsed": 557784, "internal_node_id": "0.0-53.0"}}, {"uniqueid": "MTK0694:3G5F9DBFOQ4VK5SOA3UENG9CHX5VH0", "current_trial": 72, "dateTime": 1512611951417, "trialdata": {"rt": -1, "stimulus": "<p id=\"stim\">LADY</p>", "key_press": -1, "type": "PRES_VIS", "word": "lady", "wordID": 793, "conditions": [18, 1200, "v", 18000], "trial": 1, "serialpos": 17, "trial_type": "single-stim", "trial_index": 72, "time_elapsed": 559951, "internal_node_id": "0.0-54.0"}}, {"uniqueid": "MTK0694:3G5F9DBFOQ4VK5SOA3UENG9CHX5VH0", "current_trial": 73, "dateTime": 1512611953742, "trialdata": {"rt": -1, "stimulus": "", "key_press": -1, "type": "PRE_RECALL_DELAY", "trial_type": "single-stim", "trial_index": 73, "time_elapsed": 562275, "internal_node_id": "0.0-55.0-0.0"}}, {"uniqueid": "MTK0694:3G5F9DBFOQ4VK5SOA3UENG9CHX5VH0", "current_trial": 74, "dateTime": 1512611954243, "trialdata": {"rt": -1000, "stimulus": "/static/audio/400Hz.wav", "key_press": -1, "type": "PRE_RECALL_ALERT", "trial_type": "single-audio", "trial_index": 74, "time_elapsed": 562776, "internal_node_id": "0.0-56.0"}}, {"uniqueid": "MTK0694:3G5F9DBFOQ4VK5SOA3UENG9CHX5VH0", "current_trial": 75, "dateTime": 1512612014249, "trialdata": {"rt": [4467, 12388, 18220, 20780, 35523], "recwords": ["turtle", "pigeon", "crown", "lady", "driver"], "type": "FREE_RECALL", "conditions": [18, 1200, "v", 18000], "trial": 1, "trial_type": "free-recall", "trial_index": 75, "time_elapsed": 622780, "internal_node_id": "0.0-57.0-0.0"}}, {"uniqueid": "MTK0694:3G5F9DBFOQ4VK5SOA3UENG9CHX5VH0", "current_trial": 76, "dateTime": 1512612021653, "trialdata": {"rt": 5398, "key_press": 13, "type": "INSTRUCTIONS", "trial_type": "text", "trial_index": 76, "time_elapsed": 630183, "internal_node_id": "0.0-58.0"}}, {"uniqueid": "MTK0694:3G5F9DBFOQ4VK5SOA3UENG9CHX5VH0", "current_trial": 77, "dateTime": 1512612046662, "trialdata": {"rt": [4268, 11316, 14739, 21140], "responses": ["11", "7", "17", "16"], "num1": [1, 2, 7, 2, 1], "num2": [3, 1, 5, 7, 1], "num3": [8, 4, 5, 6, 9], "type": "DISTRACTOR", "conditions": [12, 1600, "a", 24000], "trial": 2, "trial_type": "math-distractor", "trial_index": 77, "time_elapsed": 655196, "internal_node_id": "0.0-59.0"}}, {"uniqueid": "MTK0694:3G5F9DBFOQ4VK5SOA3UENG9CHX5VH0", "current_trial": 78, "dateTime": 1512612049662, "trialdata": {"rt": -1, "stimulus": "<p id=\"stim\">10</p>", "key_press": -1, "trial_type": "single-stim", "trial_index": 78, "time_elapsed": 658196, "internal_node_id": "0.0-60.0-0.0"}}, {"uniqueid": "MTK0694:3G5F9DBFOQ4VK5SOA3UENG9CHX5VH0", "current_trial": 79, "dateTime": 1512612050664, "trialdata": {"rt": -1, "stimulus": "<p id=\"stim\">9</p>", "key_press": -1, "trial_type": "single-stim", "trial_index": 79, "time_elapsed": 659197, "internal_node_id": "0.0-60.0-1.0"}}, {"uniqueid": "MTK0694:3G5F9DBFOQ4VK5SOA3UENG9CHX5VH0", "current_trial": 80, "dateTime": 1512612051665, "trialdata": {"rt": -1, "stimulus": "<p id=\"stim\">8</p>", "key_press": -1, "trial_type": "single-stim", "trial_index": 80, "time_elapsed": 660199, "internal_node_id": "0.0-60.0-2.0"}}, {"uniqueid": "MTK0694:3G5F9DBFOQ4VK5SOA3UENG9CHX5VH0", "current_trial": 81, "dateTime": 1512612052667, "trialdata": {"rt": -1, "stimulus": "<p id=\"stim\">7</p>", "key_press": -1, "trial_type": "single-stim", "trial_index": 81, "time_elapsed": 661201, "internal_node_id": "0.0-60.0-3.0"}}, {"uniqueid": "MTK0694:3G5F9DBFOQ4VK5SOA3UENG9CHX5VH0", "current_trial": 82, "dateTime": 1512612053669, "trialdata": {"rt": -1, "stimulus": "<p id=\"stim\">6</p>", "key_press": -1, "trial_type": "single-stim", "trial_index": 82, "time_elapsed": 662202, "internal_node_id": "0.0-60.0-4.0"}}, {"uniqueid": "MTK0694:3G5F9DBFOQ4VK5SOA3UENG9CHX5VH0", "current_trial": 83, "dateTime": 1512612054670, "trialdata": {"rt": -1, "stimulus": "<p id=\"stim\">5</p>", "key_press": -1, "trial_type": "single-stim", "trial_index": 83, "time_elapsed": 663203, "internal_node_id": "0.0-60.0-5.0"}}, {"uniqueid": "MTK0694:3G5F9DBFOQ4VK5SOA3UENG9CHX5VH0", "current_trial": 84, "dateTime": 1512612055670, "trialdata": {"rt": -1, "stimulus": "<p id=\"stim\">4</p>", "key_press": -1, "trial_type": "single-stim", "trial_index": 84, "time_elapsed": 664204, "internal_node_id": "0.0-60.0-6.0"}}, {"uniqueid": "MTK0694:3G5F9DBFOQ4VK5SOA3UENG9CHX5VH0", "current_trial": 85, "dateTime": 1512612056672, "trialdata": {"rt": -1, "stimulus": "<p id=\"stim\">3</p>", "key_press": -1, "trial_type": "single-stim", "trial_index": 85, "time_elapsed": 665205, "internal_node_id": "0.0-60.0-7.0"}}, {"uniqueid": "MTK0694:3G5F9DBFOQ4VK5SOA3UENG9CHX5VH0", "current_trial": 86, "dateTime": 1512612057673, "trialdata": {"rt": -1, "stimulus": "<p id=\"stim\">2</p>", "key_press": -1, "trial_type": "single-stim", "trial_index": 86, "time_elapsed": 666206, "internal_node_id": "0.0-60.0-8.0"}}, {"uniqueid": "MTK0694:3G5F9DBFOQ4VK5SOA3UENG9CHX5VH0", "current_trial": 87, "dateTime": 1512612058674, "trialdata": {"rt": -1, "stimulus": "<p id=\"stim\">1</p>", "key_press": -1, "trial_type": "single-stim", "trial_index": 87, "time_elapsed": 667207, "internal_node_id": "0.0-60.0-9.0"}}, {"uniqueid": "MTK0694:3G5F9DBFOQ4VK5SOA3UENG9CHX5VH0", "current_trial": 88, "dateTime": 1512612060175, "trialdata": {"rt": -1, "stimulus": "<p id=\"stim\">+</p>", "key_press": -1, "type": "FIXATION", "trial_type": "single-stim", "trial_index": 88, "time_elapsed": 668709, "internal_node_id": "0.0-61.0-0.0"}}, {"uniqueid": "MTK0694:3G5F9DBFOQ4VK5SOA3UENG9CHX5VH0", "current_trial": 89, "dateTime": 1512612062817, "trialdata": {"rt": -1000, "stimulus": "/static/audio/wordpool/PECAN.wav", "key_press": -1, "type": "PRES_AUD", "word": "pecan", "wordID": 1035, "conditions": [12, 1600, "a", 24000], "trial": 2, "serialpos": 0, "trial_type": "single-audio", "trial_index": 89, "time_elapsed": 671351, "internal_node_id": "0.0-62.0"}}, {"uniqueid": "MTK0694:3G5F9DBFOQ4VK5SOA3UENG9CHX5VH0", "current_trial": 90, "dateTime": 1512612065265, "trialdata": {"rt": -1000, "stimulus": "/static/audio/wordpool/PICTURE.wav", "key_press": -1, "type": "PRES_AUD", "word": "picture", "wordID": 1060, "conditions": [12, 1600, "a", 24000], "trial": 2, "serialpos": 1, "trial_type": "single-audio", "trial_index": 90, "time_elapsed": 673799, "internal_node_id": "0.0-63.0"}}, {"uniqueid": "MTK0694:3G5F9DBFOQ4VK5SOA3UENG9CHX5VH0", "current_trial": 91, "dateTime": 1512612067765, "trialdata": {"rt": -1000, "stimulus": "/static/audio/wordpool/PORTRAIT.wav", "key_press": -1, "type": "PRES_AUD", "word": "portrait", "wordID": 1110, "conditions": [12, 1600, "a", 24000], "trial": 2, "serialpos": 2, "trial_type": "single-audio", "trial_index": 91, "time_elapsed": 676299, "internal_node_id": "0.0-64.0"}}, {"uniqueid": "MTK0694:3G5F9DBFOQ4VK5SOA3UENG9CHX5VH0", "current_trial": 92, "dateTime": 1512612070221, "trialdata": {"rt": -1000, "stimulus": "/static/audio/wordpool/BEAKER.wav", "key_press": -1, "type": "PRES_AUD", "word": "beaker", "wordID": 103, "conditions": [12, 1600, "a", 24000], "trial": 2, "serialpos": 3, "trial_type": "single-audio", "trial_index": 92, "time_elapsed": 678755, "internal_node_id": "0.0-65.0"}}, {"uniqueid": "MTK0694:3G5F9DBFOQ4VK5SOA3UENG9CHX5VH0", "current_trial": 93, "dateTime": 1512612072819, "trialdata": {"rt": -1000, "stimulus": "/static/audio/wordpool/DIME.wav", "key_press": -1, "type": "PRES_AUD", "word": "dime", "wordID": 465, "conditions": [12, 1600, "a", 24000], "trial": 2, "serialpos": 4, "trial_type": "single-audio", "trial_index": 93, "time_elapsed": 681353, "internal_node_id": "0.0-66.0"}}, {"uniqueid": "MTK0694:3G5F9DBFOQ4VK5SOA3UENG9CHX5VH0", "current_trial": 94, "dateTime": 1512612075298, "trialdata": {"rt": -1000, "stimulus": "/static/audio/wordpool/BEAVER.wav", "key_press": -1, "type": "PRES_AUD", "word": "beaver", "wordID": 108, "conditions": [12, 1600, "a", 24000], "trial": 2, "serialpos": 5, "trial_type": "single-audio", "trial_index": 94, "time_elapsed": 683832, "internal_node_id": "0.0-67.0"}}, {"uniqueid": "MTK0694:3G5F9DBFOQ4VK5SOA3UENG9CHX5VH0", "current_trial": 95, "dateTime": 1512612077966, "trialdata": {"rt": -1000, "stimulus": "/static/audio/wordpool/DAISY.wav", "key_press": -1, "type": "PRES_AUD", "word": "daisy", "wordID": 434, "conditions": [12, 1600, "a", 24000], "trial": 2, "serialpos": 6, "trial_type": "single-audio", "trial_index": 95, "time_elapsed": 686499, "internal_node_id": "0.0-68.0"}}, {"uniqueid": "MTK0694:3G5F9DBFOQ4VK5SOA3UENG9CHX5VH0", "current_trial": 96, "dateTime": 1512612080458, "trialdata": {"rt": -1000, "stimulus": "/static/audio/wordpool/EYELASH.wav", "key_press": -1, "type": "PRES_AUD", "word": "eyelash", "wordID": 545, "conditions": [12, 1600, "a", 24000], "trial": 2, "serialpos": 7, "trial_type": "single-audio", "trial_index": 96, "time_elapsed": 688992, "internal_node_id": "0.0-69.0"}}, {"uniqueid": "MTK0694:3G5F9DBFOQ4VK5SOA3UENG9CHX5VH0", "current_trial": 97, "dateTime": 1512612083221, "trialdata": {"rt": -1000, "stimulus": "/static/audio/wordpool/PARROT.wav", "key_press": -1, "type": "PRES_AUD", "word": "parrot", "wordID": 1014, "conditions": [12, 1600, "a", 24000], "trial": 2, "serialpos": 8, "trial_type": "single-audio", "trial_index": 97, "time_elapsed": 691755, "internal_node_id": "0.0-70.0"}}, {"uniqueid": "MTK0694:3G5F9DBFOQ4VK5SOA3UENG9CHX5VH0", "current_trial": 98, "dateTime": 1512612085622, "trialdata": {"rt": -1000, "stimulus": "/static/audio/wordpool/PRIMATE.wav", "key_press": -1, "type": "PRES_AUD", "word": "primate", "wordID": 1122, "conditions": [12, 1600, "a", 24000], "trial": 2, "serialpos": 9, "trial_type": "single-audio", "trial_index": 98, "time_elapsed": 694156, "internal_node_id": "0.0-71.0"}}, {"uniqueid": "MTK0694:3G5F9DBFOQ4VK5SOA3UENG9CHX5VH0", "current_trial": 99, "dateTime": 1512612088032, "trialdata": {"rt": -1000, "stimulus": "/static/audio/wordpool/CHIPMUNK.wav", "key_press": -1, "type": "PRES_AUD", "word": "chipmunk", "wordID": 303, "conditions": [12, 1600, "a", 24000], "trial": 2, "serialpos": 10, "trial_type": "single-audio", "trial_index": 99, "time_elapsed": 696566, "internal_node_id": "0.0-72.0"}}, {"uniqueid": "MTK0694:3G5F9DBFOQ4VK5SOA3UENG9CHX5VH0", "current_trial": 100, "dateTime": 1512612090543, "trialdata": {"rt": -1000, "stimulus": "/static/audio/wordpool/WORKER.wav", "key_press": -1, "type": "PRES_AUD", "word": "worker", "wordID": 1620, "conditions": [12, 1600, "a", 24000], "trial": 2, "serialpos": 11, "trial_type": "single-audio", "trial_index": 100, "time_elapsed": 699077, "internal_node_id": "0.0-73.0"}}, {"uniqueid": "MTK0694:3G5F9DBFOQ4VK5SOA3UENG9CHX5VH0", "current_trial": 101, "dateTime": 1512612091840, "trialdata": {"rt": -1, "stimulus": "", "key_press": -1, "type": "PRE_RECALL_DELAY", "trial_type": "single-stim", "trial_index": 101, "time_elapsed": 700373, "internal_node_id": "0.0-74.0-0.0"}}, {"uniqueid": "MTK0694:3G5F9DBFOQ4VK5SOA3UENG9CHX5VH0", "current_trial": 102, "dateTime": 1512612092343, "trialdata": {"rt": -1000, "stimulus": "/static/audio/400Hz.wav", "key_press": -1, "type": "PRE_RECALL_ALERT", "trial_type": "single-audio", "trial_index": 102, "time_elapsed": 700877, "internal_node_id": "0.0-75.0"}}, {"uniqueid": "MTK0694:3G5F9DBFOQ4VK5SOA3UENG9CHX5VH0", "current_trial": 103, "dateTime": 1512612152353, "trialdata": {"rt": [5816, 10112, 12977, 37112, 44539], "recwords": ["pecan", "picture", "worker", "portrait", "chipmunk"], "type": "FREE_RECALL", "conditions": [12, 1600, "a", 24000], "trial": 2, "trial_type": "free-recall", "trial_index": 103, "time_elapsed": 760880, "internal_node_id": "0.0-76.0-0.0"}}, {"uniqueid": "MTK0694:3G5F9DBFOQ4VK5SOA3UENG9CHX5VH0", "current_trial": 104, "dateTime": 1512612156554, "trialdata": {"rt": 2198, "key_press": 13, "type": "INSTRUCTIONS", "trial_type": "text", "trial_index": 104, "time_elapsed": 765088, "internal_node_id": "0.0-77.0"}}, {"uniqueid": "MTK0694:3G5F9DBFOQ4VK5SOA3UENG9CHX5VH0", "current_trial": 105, "dateTime": 1512612182557, "trialdata": {"rt": [4044, 7638, 10437, 13965, 17061, 20588], "responses": ["15", "13", "14", "15", "16", "13"], "num1": [1, 1, 4, 1, 6, 3, 4], "num2": [5, 9, 5, 9, 3, 3, 8], "num3": [9, 3, 5, 5, 7, 7, 3], "type": "DISTRACTOR", "conditions": [24, 800, "a", 24000], "trial": 3, "trial_type": "math-distractor", "trial_index": 105, "time_elapsed": 791091, "internal_node_id": "0.0-78.0"}}, {"uniqueid": "MTK0694:3G5F9DBFOQ4VK5SOA3UENG9CHX5VH0", "current_trial": 106, "dateTime": 1512612185558, "trialdata": {"rt": -1, "stimulus": "<p id=\"stim\">10</p>", "key_press": -1, "trial_type": "single-stim", "trial_index": 106, "time_elapsed": 794091, "internal_node_id": "0.0-79.0-0.0"}}, {"uniqueid": "MTK0694:3G5F9DBFOQ4VK5SOA3UENG9CHX5VH0", "current_trial": 107, "dateTime": 1512612186558, "trialdata": {"rt": -1, "stimulus": "<p id=\"stim\">9</p>", "key_press": -1, "trial_type": "single-stim", "trial_index": 107, "time_elapsed": 795092, "internal_node_id": "0.0-79.0-1.0"}}, {"uniqueid": "MTK0694:3G5F9DBFOQ4VK5SOA3UENG9CHX5VH0", "current_trial": 108, "dateTime": 1512612187560, "trialdata": {"rt": -1, "stimulus": "<p id=\"stim\">8</p>", "key_press": -1, "trial_type": "single-stim", "trial_index": 108, "time_elapsed": 796094, "internal_node_id": "0.0-79.0-2.0"}}, {"uniqueid": "MTK0694:3G5F9DBFOQ4VK5SOA3UENG9CHX5VH0", "current_trial": 109, "dateTime": 1512612188563, "trialdata": {"rt": -1, "stimulus": "<p id=\"stim\">7</p>", "key_press": -1, "trial_type": "single-stim", "trial_index": 109, "time_elapsed": 797097, "internal_node_id": "0.0-79.0-3.0"}}, {"uniqueid": "MTK0694:3G5F9DBFOQ4VK5SOA3UENG9CHX5VH0", "current_trial": 110, "dateTime": 1512612189564, "trialdata": {"rt": -1, "stimulus": "<p id=\"stim\">6</p>", "key_press": -1, "trial_type": "single-stim", "trial_index": 110, "time_elapsed": 798097, "internal_node_id": "0.0-79.0-4.0"}}, {"uniqueid": "MTK0694:3G5F9DBFOQ4VK5SOA3UENG9CHX5VH0", "current_trial": 111, "dateTime": 1512612190565, "trialdata": {"rt": -1, "stimulus": "<p id=\"stim\">5</p>", "key_press": -1, "trial_type": "single-stim", "trial_index": 111, "time_elapsed": 799098, "internal_node_id": "0.0-79.0-5.0"}}, {"uniqueid": "MTK0694:3G5F9DBFOQ4VK5SOA3UENG9CHX5VH0", "current_trial": 112, "dateTime": 1512612191565, "trialdata": {"rt": -1, "stimulus": "<p id=\"stim\">4</p>", "key_press": -1, "trial_type": "single-stim", "trial_index": 112, "time_elapsed": 800099, "internal_node_id": "0.0-79.0-6.0"}}, {"uniqueid": "MTK0694:3G5F9DBFOQ4VK5SOA3UENG9CHX5VH0", "current_trial": 113, "dateTime": 1512612192567, "trialdata": {"rt": -1, "stimulus": "<p id=\"stim\">3</p>", "key_press": -1, "trial_type": "single-stim", "trial_index": 113, "time_elapsed": 801100, "internal_node_id": "0.0-79.0-7.0"}}, {"uniqueid": "MTK0694:3G5F9DBFOQ4VK5SOA3UENG9CHX5VH0", "current_trial": 114, "dateTime": 1512612193568, "trialdata": {"rt": -1, "stimulus": "<p id=\"stim\">2</p>", "key_press": -1, "trial_type": "single-stim", "trial_index": 114, "time_elapsed": 802101, "internal_node_id": "0.0-79.0-8.0"}}, {"uniqueid": "MTK0694:3G5F9DBFOQ4VK5SOA3UENG9CHX5VH0", "current_trial": 115, "dateTime": 1512612194569, "trialdata": {"rt": -1, "stimulus": "<p id=\"stim\">1</p>", "key_press": -1, "trial_type": "single-stim", "trial_index": 115, "time_elapsed": 803103, "internal_node_id": "0.0-79.0-9.0"}}, {"uniqueid": "MTK0694:3G5F9DBFOQ4VK5SOA3UENG9CHX5VH0", "current_trial": 116, "dateTime": 1512612196071, "trialdata": {"rt": -1, "stimulus": "<p id=\"stim\">+</p>", "key_press": -1, "type": "FIXATION", "trial_type": "single-stim", "trial_index": 116, "time_elapsed": 804605, "internal_node_id": "0.0-80.0-0.0"}}, {"uniqueid": "MTK0694:3G5F9DBFOQ4VK5SOA3UENG9CHX5VH0", "current_trial": 117, "dateTime": 1512612198041, "trialdata": {"rt": -1000, "stimulus": "/static/audio/wordpool/HIKER.wav", "key_press": -1, "type": "PRES_AUD", "word": "hiker", "wordID": 707, "conditions": [24, 800, "a", 24000], "trial": 3, "serialpos": 0, "trial_type": "single-audio", "trial_index": 117, "time_elapsed": 806574, "internal_node_id": "0.0-81.0"}}, {"uniqueid": "MTK0694:3G5F9DBFOQ4VK5SOA3UENG9CHX5VH0", "current_trial": 118, "dateTime": 1512612199747, "trialdata": {"rt": -1000, "stimulus": "/static/audio/wordpool/LODGE.wav", "key_press": -1, "type": "PRES_AUD", "word": "lodge", "wordID": 838, "conditions": [24, 800, "a", 24000], "trial": 3, "serialpos": 1, "trial_type": "single-audio", "trial_index": 118, "time_elapsed": 808281, "internal_node_id": "0.0-82.0"}}, {"uniqueid": "MTK0694:3G5F9DBFOQ4VK5SOA3UENG9CHX5VH0", "current_trial": 119, "dateTime": 1512612201603, "trialdata": {"rt": -1000, "stimulus": "/static/audio/wordpool/MISSILE.wav", "key_press": -1, "type": "PRES_AUD", "word": "missile", "wordID": 899, "conditions": [24, 800, "a", 24000], "trial": 3, "serialpos": 2, "trial_type": "single-audio", "trial_index": 119, "time_elapsed": 810137, "internal_node_id": "0.0-83.0"}}, {"uniqueid": "MTK0694:3G5F9DBFOQ4VK5SOA3UENG9CHX5VH0", "current_trial": 120, "dateTime": 1512612203406, "trialdata": {"rt": -1000, "stimulus": "/static/audio/wordpool/KIDNEY.wav", "key_press": -1, "type": "PRES_AUD", "word": "kidney", "wordID": 775, "conditions": [24, 800, "a", 24000], "trial": 3, "serialpos": 3, "trial_type": "single-audio", "trial_index": 120, "time_elapsed": 811940, "internal_node_id": "0.0-84.0"}}, {"uniqueid": "MTK0694:3G5F9DBFOQ4VK5SOA3UENG9CHX5VH0", "current_trial": 121, "dateTime": 1512612205154, "trialdata": {"rt": -1000, "stimulus": "/static/audio/wordpool/BRIEFCASE.wav", "key_press": -1, "type": "PRES_AUD", "word": "briefcase", "wordID": 174, "conditions": [24, 800, "a", 24000], "trial": 3, "serialpos": 4, "trial_type": "single-audio", "trial_index": 121, "time_elapsed": 813688, "internal_node_id": "0.0-85.0"}}, {"uniqueid": "MTK0694:3G5F9DBFOQ4VK5SOA3UENG9CHX5VH0", "current_trial": 122, "dateTime": 1512612206882, "trialdata": {"rt": -1000, "stimulus": "/static/audio/wordpool/DRINK.wav", "key_press": -1, "type": "PRES_AUD", "word": "drink", "wordID": 497, "conditions": [24, 800, "a", 24000], "trial": 3, "serialpos": 5, "trial_type": "single-audio", "trial_index": 122, "time_elapsed": 815416, "internal_node_id": "0.0-86.0"}}, {"uniqueid": "MTK0694:3G5F9DBFOQ4VK5SOA3UENG9CHX5VH0", "current_trial": 123, "dateTime": 1512612208519, "trialdata": {"rt": -1000, "stimulus": "/static/audio/wordpool/SODA.wav", "key_press": -1, "type": "PRES_AUD", "word": "soda", "wordID": 1340, "conditions": [24, 800, "a", 24000], "trial": 3, "serialpos": 6, "trial_type": "single-audio", "trial_index": 123, "time_elapsed": 817053, "internal_node_id": "0.0-87.0"}}, {"uniqueid": "MTK0694:3G5F9DBFOQ4VK5SOA3UENG9CHX5VH0", "current_trial": 124, "dateTime": 1512612210490, "trialdata": {"rt": -1000, "stimulus": "/static/audio/wordpool/HANDBAG.wav", "key_press": -1, "type": "PRES_AUD", "word": "handbag", "wordID": 683, "conditions": [24, 800, "a", 24000], "trial": 3, "serialpos": 7, "trial_type": "single-audio", "trial_index": 124, "time_elapsed": 819024, "internal_node_id": "0.0-88.0"}}, {"uniqueid": "MTK0694:3G5F9DBFOQ4VK5SOA3UENG9CHX5VH0", "current_trial": 125, "dateTime": 1512612212167, "trialdata": {"rt": -1000, "stimulus": "/static/audio/wordpool/VIRUS.wav", "key_press": -1, "type": "PRES_AUD", "word": "virus", "wordID": 1571, "conditions": [24, 800, "a", 24000], "trial": 3, "serialpos": 8, "trial_type": "single-audio", "trial_index": 125, "time_elapsed": 820701, "internal_node_id": "0.0-89.0"}}, {"uniqueid": "MTK0694:3G5F9DBFOQ4VK5SOA3UENG9CHX5VH0", "current_trial": 126, "dateTime": 1512612214163, "trialdata": {"rt": -1000, "stimulus": "/static/audio/wordpool/SEAGULL.wav", "key_press": -1, "type": "PRES_AUD", "word": "seagull", "wordID": 1260, "conditions": [24, 800, "a", 24000], "trial": 3, "serialpos": 9, "trial_type": "single-audio", "trial_index": 126, "time_elapsed": 822697, "internal_node_id": "0.0-90.0"}}, {"uniqueid": "MTK0694:3G5F9DBFOQ4VK5SOA3UENG9CHX5VH0", "current_trial": 127, "dateTime": 1512612215876, "trialdata": {"rt": -1000, "stimulus": "/static/audio/wordpool/MONSTER.wav", "key_press": -1, "type": "PRES_AUD", "word": "monster", "wordID": 911, "conditions": [24, 800, "a", 24000], "trial": 3, "serialpos": 10, "trial_type": "single-audio", "trial_index": 127, "time_elapsed": 824410, "internal_node_id": "0.0-91.0"}}, {"uniqueid": "MTK0694:3G5F9DBFOQ4VK5SOA3UENG9CHX5VH0", "current_trial": 128, "dateTime": 1512612217710, "trialdata": {"rt": -1000, "stimulus": "/static/audio/wordpool/ICEBERG.wav", "key_press": -1, "type": "PRES_AUD", "word": "iceberg", "wordID": 730, "conditions": [24, 800, "a", 24000], "trial": 3, "serialpos": 11, "trial_type": "single-audio", "trial_index": 128, "time_elapsed": 826244, "internal_node_id": "0.0-92.0"}}, {"uniqueid": "MTK0694:3G5F9DBFOQ4VK5SOA3UENG9CHX5VH0", "current_trial": 129, "dateTime": 1512612219458, "trialdata": {"rt": -1000, "stimulus": "/static/audio/wordpool/PUDDLE.wav", "key_press": -1, "type": "PRES_AUD", "word": "puddle", "wordID": 1139, "conditions": [24, 800, "a", 24000], "trial": 3, "serialpos": 12, "trial_type": "single-audio", "trial_index": 129, "time_elapsed": 827992, "internal_node_id": "0.0-93.0"}}, {"uniqueid": "MTK0694:3G5F9DBFOQ4VK5SOA3UENG9CHX5VH0", "current_trial": 130, "dateTime": 1512612221321, "trialdata": {"rt": -1000, "stimulus": "/static/audio/wordpool/AIRPLANE.wav", "key_press": -1, "type": "PRES_AUD", "word": "airplane", "wordID": 11, "conditions": [24, 800, "a", 24000], "trial": 3, "serialpos": 13, "trial_type": "single-audio", "trial_index": 130, "time_elapsed": 829855, "internal_node_id": "0.0-94.0"}}, {"uniqueid": "MTK0694:3G5F9DBFOQ4VK5SOA3UENG9CHX5VH0", "current_trial": 131, "dateTime": 1512612223219, "trialdata": {"rt": -1000, "stimulus": "/static/audio/wordpool/TORTOISE.wav", "key_press": -1, "type": "PRES_AUD", "word": "tortoise", "wordID": 1485, "conditions": [24, 800, "a", 24000], "trial": 3, "serialpos": 14, "trial_type": "single-audio", "trial_index": 131, "time_elapsed": 831753, "internal_node_id": "0.0-95.0"}}, {"uniqueid": "MTK0694:3G5F9DBFOQ4VK5SOA3UENG9CHX5VH0", "current_trial": 132, "dateTime": 1512612225013, "trialdata": {"rt": -1000, "stimulus": "/static/audio/wordpool/MAMMAL.wav", "key_press": -1, "type": "PRES_AUD", "word": "mammal", "wordID": 860, "conditions": [24, 800, "a", 24000], "trial": 3, "serialpos": 15, "trial_type": "single-audio", "trial_index": 132, "time_elapsed": 833547, "internal_node_id": "0.0-96.0"}}, {"uniqueid": "MTK0694:3G5F9DBFOQ4VK5SOA3UENG9CHX5VH0", "current_trial": 133, "dateTime": 1512612226779, "trialdata": {"rt": -1000, "stimulus": "/static/audio/wordpool/PALACE.wav", "key_press": -1, "type": "PRES_AUD", "word": "palace", "wordID": 1005, "conditions": [24, 800, "a", 24000], "trial": 3, "serialpos": 16, "trial_type": "single-audio", "trial_index": 133, "time_elapsed": 835313, "internal_node_id": "0.0-97.0"}}, {"uniqueid": "MTK0694:3G5F9DBFOQ4VK5SOA3UENG9CHX5VH0", "current_trial": 134, "dateTime": 1512612228769, "trialdata": {"rt": -1000, "stimulus": "/static/audio/wordpool/CASKET.wav", "key_press": -1, "type": "PRES_AUD", "word": "casket", "wordID": 254, "conditions": [24, 800, "a", 24000], "trial": 3, "serialpos": 17, "trial_type": "single-audio", "trial_index": 134, "time_elapsed": 837302, "internal_node_id": "0.0-98.0"}}, {"uniqueid": "MTK0694:3G5F9DBFOQ4VK5SOA3UENG9CHX5VH0", "current_trial": 135, "dateTime": 1512612230582, "trialdata": {"rt": -1000, "stimulus": "/static/audio/wordpool/SNAIL.wav", "key_press": -1, "type": "PRES_AUD", "word": "snail", "wordID": 1331, "conditions": [24, 800, "a", 24000], "trial": 3, "serialpos": 18, "trial_type": "single-audio", "trial_index": 135, "time_elapsed": 839116, "internal_node_id": "0.0-99.0"}}, {"uniqueid": "MTK0694:3G5F9DBFOQ4VK5SOA3UENG9CHX5VH0", "current_trial": 136, "dateTime": 1512612232333, "trialdata": {"rt": -1000, "stimulus": "/static/audio/wordpool/POISON.wav", "key_press": -1, "type": "PRES_AUD", "word": "poison", "wordID": 1095, "conditions": [24, 800, "a", 24000], "trial": 3, "serialpos": 19, "trial_type": "single-audio", "trial_index": 136, "time_elapsed": 840867, "internal_node_id": "0.0-100.0"}}, {"uniqueid": "MTK0694:3G5F9DBFOQ4VK5SOA3UENG9CHX5VH0", "current_trial": 137, "dateTime": 1512612233990, "trialdata": {"rt": -1000, "stimulus": "/static/audio/wordpool/DRESSER.wav", "key_press": -1, "type": "PRES_AUD", "word": "dresser", "wordID": 495, "conditions": [24, 800, "a", 24000], "trial": 3, "serialpos": 20, "trial_type": "single-audio", "trial_index": 137, "time_elapsed": 842524, "internal_node_id": "0.0-101.0"}}, {"uniqueid": "MTK0694:3G5F9DBFOQ4VK5SOA3UENG9CHX5VH0", "current_trial": 138, "dateTime": 1512612235953, "trialdata": {"rt": -1000, "stimulus": "/static/audio/wordpool/TOMBSTONE.wav", "key_press": -1, "type": "PRES_AUD", "word": "tombstone", "wordID": 1477, "conditions": [24, 800, "a", 24000], "trial": 3, "serialpos": 21, "trial_type": "single-audio", "trial_index": 138, "time_elapsed": 844487, "internal_node_id": "0.0-102.0"}}, {"uniqueid": "MTK0694:3G5F9DBFOQ4VK5SOA3UENG9CHX5VH0", "current_trial": 139, "dateTime": 1512612237853, "trialdata": {"rt": -1000, "stimulus": "/static/audio/wordpool/TILE.wav", "key_press": -1, "type": "PRES_AUD", "word": "tile", "wordID": 1467, "conditions": [24, 800, "a", 24000], "trial": 3, "serialpos": 22, "trial_type": "single-audio", "trial_index": 139, "time_elapsed": 846387, "internal_node_id": "0.0-103.0"}}, {"uniqueid": "MTK0694:3G5F9DBFOQ4VK5SOA3UENG9CHX5VH0", "current_trial": 140, "dateTime": 1512612239686, "trialdata": {"rt": -1000, "stimulus": "/static/audio/wordpool/INMATE.wav", "key_press": -1, "type": "PRES_AUD", "word": "inmate", "wordID": 737, "conditions": [24, 800, "a", 24000], "trial": 3, "serialpos": 23, "trial_type": "single-audio", "trial_index": 140, "time_elapsed": 848220, "internal_node_id": "0.0-104.0"}}, {"uniqueid": "MTK0694:3G5F9DBFOQ4VK5SOA3UENG9CHX5VH0", "current_trial": 141, "dateTime": 1512612240984, "trialdata": {"rt": -1, "stimulus": "", "key_press": -1, "type": "PRE_RECALL_DELAY", "trial_type": "single-stim", "trial_index": 141, "time_elapsed": 849518, "internal_node_id": "0.0-105.0-0.0"}}, {"uniqueid": "MTK0694:3G5F9DBFOQ4VK5SOA3UENG9CHX5VH0", "current_trial": 142, "dateTime": 1512612241486, "trialdata": {"rt": -1000, "stimulus": "/static/audio/400Hz.wav", "key_press": -1, "type": "PRE_RECALL_ALERT", "trial_type": "single-audio", "trial_index": 142, "time_elapsed": 850020, "internal_node_id": "0.0-106.0"}}, {"uniqueid": "MTK0694:3G5F9DBFOQ4VK5SOA3UENG9CHX5VH0", "current_trial": 143, "dateTime": 1512612301497, "trialdata": {"rt": [4883, 6522, 8874, 12218, 15713, 19218, 22466, 24825, 26818, 29066, 32313, 34794, 36979, 39633, 44634, 48481, 50762, 55585, 58386], "recwords": ["hiker", "lodge", "missle", "kidney", "briefcase", "virus", "seagull", "monster", "tile", "inmate", "palace", "snail", "casket", "airplane", "iceberg", "dresser", "poison", "soda", "drink"], "type": "FREE_RECALL", "conditions": [24, 800, "a", 24000], "trial": 3, "trial_type": "free-recall", "trial_index": 143, "time_elapsed": 910022, "internal_node_id": "0.0-107.0-0.0"}}, {"uniqueid": "MTK0694:3G5F9DBFOQ4VK5SOA3UENG9CHX5VH0", "current_trial": 144, "dateTime": 1512612304913, "trialdata": {"rt": 1415, "key_press": 13, "type": "INSTRUCTIONS", "trial_type": "text", "trial_index": 144, "time_elapsed": 913447, "internal_node_id": "0.0-108.0"}}, {"uniqueid": "MTK0694:3G5F9DBFOQ4VK5SOA3UENG9CHX5VH0", "current_trial": 145, "dateTime": 1512612330919, "trialdata": {"rt": [2751, 4855, 8559, 13854, 18672, 21238], "responses": ["10", "15", "14", "24", "22", "6"], "num1": [1, 7, 6, 6, 7, 1, 8], "num2": [6, 3, 2, 8, 8, 3, 5], "num3": [3, 5, 6, 6, 7, 1, 7], "type": "DISTRACTOR", "conditions": [12, 1600, "v", 24000], "trial": 4, "trial_type": "math-distractor", "trial_index": 145, "time_elapsed": 939453, "internal_node_id": "0.0-109.0"}}, {"uniqueid": "MTK0694:3G5F9DBFOQ4VK5SOA3UENG9CHX5VH0", "current_trial": 146, "dateTime": 1512612333920, "trialdata": {"rt": -1, "stimulus": "<p id=\"stim\">10</p>", "key_press": -1, "trial_type": "single-stim", "trial_index": 146, "time_elapsed": 942454, "internal_node_id": "0.0-110.0-0.0"}}, {"uniqueid": "MTK0694:3G5F9DBFOQ4VK5SOA3UENG9CHX5VH0", "current_trial": 147, "dateTime": 1512612334920, "trialdata": {"rt": -1, "stimulus": "<p id=\"stim\">9</p>", "key_press": -1, "trial_type": "single-stim", "trial_index": 147, "time_elapsed": 943454, "internal_node_id": "0.0-110.0-1.0"}}, {"uniqueid": "MTK0694:3G5F9DBFOQ4VK5SOA3UENG9CHX5VH0", "current_trial": 148, "dateTime": 1512612335921, "trialdata": {"rt": -1, "stimulus": "<p id=\"stim\">8</p>", "key_press": -1, "trial_type": "single-stim", "trial_index": 148, "time_elapsed": 944455, "internal_node_id": "0.0-110.0-2.0"}}, {"uniqueid": "MTK0694:3G5F9DBFOQ4VK5SOA3UENG9CHX5VH0", "current_trial": 149, "dateTime": 1512612336922, "trialdata": {"rt": -1, "stimulus": "<p id=\"stim\">7</p>", "key_press": -1, "trial_type": "single-stim", "trial_index": 149, "time_elapsed": 945455, "internal_node_id": "0.0-110.0-3.0"}}, {"uniqueid": "MTK0694:3G5F9DBFOQ4VK5SOA3UENG9CHX5VH0", "current_trial": 150, "dateTime": 1512612337926, "trialdata": {"rt": -1, "stimulus": "<p id=\"stim\">6</p>", "key_press": -1, "trial_type": "single-stim", "trial_index": 150, "time_elapsed": 946460, "internal_node_id": "0.0-110.0-4.0"}}, {"uniqueid": "MTK0694:3G5F9DBFOQ4VK5SOA3UENG9CHX5VH0", "current_trial": 151, "dateTime": 1512612338927, "trialdata": {"rt": -1, "stimulus": "<p id=\"stim\">5</p>", "key_press": -1, "trial_type": "single-stim", "trial_index": 151, "time_elapsed": 947460, "internal_node_id": "0.0-110.0-5.0"}}, {"uniqueid": "MTK0694:3G5F9DBFOQ4VK5SOA3UENG9CHX5VH0", "current_trial": 152, "dateTime": 1512612339928, "trialdata": {"rt": -1, "stimulus": "<p id=\"stim\">4</p>", "key_press": -1, "trial_type": "single-stim", "trial_index": 152, "time_elapsed": 948462, "internal_node_id": "0.0-110.0-6.0"}}, {"uniqueid": "MTK0694:3G5F9DBFOQ4VK5SOA3UENG9CHX5VH0", "current_trial": 153, "dateTime": 1512612340929, "trialdata": {"rt": -1, "stimulus": "<p id=\"stim\">3</p>", "key_press": -1, "trial_type": "single-stim", "trial_index": 153, "time_elapsed": 949462, "internal_node_id": "0.0-110.0-7.0"}}, {"uniqueid": "MTK0694:3G5F9DBFOQ4VK5SOA3UENG9CHX5VH0", "current_trial": 154, "dateTime": 1512612341930, "trialdata": {"rt": -1, "stimulus": "<p id=\"stim\">2</p>", "key_press": -1, "trial_type": "single-stim", "trial_index": 154, "time_elapsed": 950464, "internal_node_id": "0.0-110.0-8.0"}}, {"uniqueid": "MTK0694:3G5F9DBFOQ4VK5SOA3UENG9CHX5VH0", "current_trial": 155, "dateTime": 1512612342932, "trialdata": {"rt": -1, "stimulus": "<p id=\"stim\">1</p>", "key_press": -1, "trial_type": "single-stim", "trial_index": 155, "time_elapsed": 951465, "internal_node_id": "0.0-110.0-9.0"}}, {"uniqueid": "MTK0694:3G5F9DBFOQ4VK5SOA3UENG9CHX5VH0", "current_trial": 156, "dateTime": 1512612344432, "trialdata": {"rt": -1, "stimulus": "<p id=\"stim\">+</p>", "key_press": -1, "type": "FIXATION", "trial_type": "single-stim", "trial_index": 156, "time_elapsed": 952966, "internal_node_id": "0.0-111.0-0.0"}}, {"uniqueid": "MTK0694:3G5F9DBFOQ4VK5SOA3UENG9CHX5VH0", "current_trial": 157, "dateTime": 1512612346035, "trialdata": {"rt": -1, "stimulus": "<p id=\"stim\">MATCH</p>", "key_press": -1, "type": "PRES_VIS", "word": "match", "wordID": 877, "conditions": [12, 1600, "v", 24000], "trial": 4, "serialpos": 0, "trial_type": "single-stim", "trial_index": 157, "time_elapsed": 954569, "internal_node_id": "0.0-112.0"}}, {"uniqueid": "MTK0694:3G5F9DBFOQ4VK5SOA3UENG9CHX5VH0", "current_trial": 158, "dateTime": 1512612348662, "trialdata": {"rt": -1, "stimulus": "<p id=\"stim\">BUNNY</p>", "key_press": -1, "type": "PRES_VIS", "word": "bunny", "wordID": 197, "conditions": [12, 1600, "v", 24000], "trial": 4, "serialpos": 1, "trial_type": "single-stim", "trial_index": 158, "time_elapsed": 957195, "internal_node_id": "0.0-113.0"}}, {"uniqueid": "MTK0694:3G5F9DBFOQ4VK5SOA3UENG9CHX5VH0", "current_trial": 159, "dateTime": 1512612351075, "trialdata": {"rt": -1, "stimulus": "<p id=\"stim\">ATLAS</p>", "key_press": -1, "type": "PRES_VIS", "word": "atlas", "wordID": 52, "conditions": [12, 1600, "v", 24000], "trial": 4, "serialpos": 2, "trial_type": "single-stim", "trial_index": 159, "time_elapsed": 959609, "internal_node_id": "0.0-114.0"}}, {"uniqueid": "MTK0694:3G5F9DBFOQ4VK5SOA3UENG9CHX5VH0", "current_trial": 160, "dateTime": 1512612353678, "trialdata": {"rt": -1, "stimulus": "<p id=\"stim\">ATOM</p>", "key_press": -1, "type": "PRES_VIS", "word": "atom", "wordID": 54, "conditions": [12, 1600, "v", 24000], "trial": 4, "serialpos": 3, "trial_type": "single-stim", "trial_index": 160, "time_elapsed": 962211, "internal_node_id": "0.0-115.0"}}, {"uniqueid": "MTK0694:3G5F9DBFOQ4VK5SOA3UENG9CHX5VH0", "current_trial": 161, "dateTime": 1512612356080, "trialdata": {"rt": -1, "stimulus": "<p id=\"stim\">PREACHER</p>", "key_press": -1, "type": "PRES_VIS", "word": "preacher", "wordID": 1118, "conditions": [12, 1600, "v", 24000], "trial": 4, "serialpos": 4, "trial_type": "single-stim", "trial_index": 161, "time_elapsed": 964614, "internal_node_id": "0.0-116.0"}}, {"uniqueid": "MTK0694:3G5F9DBFOQ4VK5SOA3UENG9CHX5VH0", "current_trial": 162, "dateTime": 1512612358673, "trialdata": {"rt": -1, "stimulus": "<p id=\"stim\">PARTNER</p>", "key_press": -1, "type": "PRES_VIS", "word": "partner", "wordID": 1016, "conditions": [12, 1600, "v", 24000], "trial": 4, "serialpos": 5, "trial_type": "single-stim", "trial_index": 162, "time_elapsed": 967206, "internal_node_id": "0.0-117.0"}}, {"uniqueid": "MTK0694:3G5F9DBFOQ4VK5SOA3UENG9CHX5VH0", "current_trial": 163, "dateTime": 1512612361348, "trialdata": {"rt": -1, "stimulus": "<p id=\"stim\">FRUIT</p>", "key_press": -1, "type": "PRES_VIS", "word": "fruit", "wordID": 609, "conditions": [12, 1600, "v", 24000], "trial": 4, "serialpos": 6, "trial_type": "single-stim", "trial_index": 163, "time_elapsed": 969881, "internal_node_id": "0.0-118.0"}}, {"uniqueid": "MTK0694:3G5F9DBFOQ4VK5SOA3UENG9CHX5VH0", "current_trial": 164, "dateTime": 1512612363839, "trialdata": {"rt": -1, "stimulus": "<p id=\"stim\">CITRUS</p>", "key_press": -1, "type": "PRES_VIS", "word": "citrus", "wordID": 312, "conditions": [12, 1600, "v", 24000], "trial": 4, "serialpos": 7, "trial_type": "single-stim", "trial_index": 164, "time_elapsed": 972372, "internal_node_id": "0.0-119.0"}}, {"uniqueid": "MTK0694:3G5F9DBFOQ4VK5SOA3UENG9CHX5VH0", "current_trial": 165, "dateTime": 1512612366307, "trialdata": {"rt": -1, "stimulus": "<p id=\"stim\">YACHT</p>", "key_press": -1, "type": "PRES_VIS", "word": "yacht", "wordID": 1628, "conditions": [12, 1600, "v", 24000], "trial": 4, "serialpos": 8, "trial_type": "single-stim", "trial_index": 165, "time_elapsed": 974840, "internal_node_id": "0.0-120.0"}}, {"uniqueid": "MTK0694:3G5F9DBFOQ4VK5SOA3UENG9CHX5VH0", "current_trial": 166, "dateTime": 1512612368923, "trialdata": {"rt": -1, "stimulus": "<p id=\"stim\">FLIPPER</p>", "key_press": -1, "type": "PRES_VIS", "word": "flipper", "wordID": 579, "conditions": [12, 1600, "v", 24000], "trial": 4, "serialpos": 9, "trial_type": "single-stim", "trial_index": 166, "time_elapsed": 977456, "internal_node_id": "0.0-121.0"}}, {"uniqueid": "MTK0694:3G5F9DBFOQ4VK5SOA3UENG9CHX5VH0", "current_trial": 167, "dateTime": 1512612371414, "trialdata": {"rt": -1, "stimulus": "<p id=\"stim\">CREATURE</p>", "key_press": -1, "type": "PRES_VIS", "word": "creature", "wordID": 402, "conditions": [12, 1600, "v", 24000], "trial": 4, "serialpos": 10, "trial_type": "single-stim", "trial_index": 167, "time_elapsed": 979947, "internal_node_id": "0.0-122.0"}}, {"uniqueid": "MTK0694:3G5F9DBFOQ4VK5SOA3UENG9CHX5VH0", "current_trial": 168, "dateTime": 1512612374050, "trialdata": {"rt": -1, "stimulus": "<p id=\"stim\">RABBIT</p>", "key_press": -1, "type": "PRES_VIS", "word": "rabbit", "wordID": 1151, "conditions": [12, 1600, "v", 24000], "trial": 4, "serialpos": 11, "trial_type": "single-stim", "trial_index": 168, "time_elapsed": 982584, "internal_node_id": "0.0-123.0"}}, {"uniqueid": "MTK0694:3G5F9DBFOQ4VK5SOA3UENG9CHX5VH0", "current_trial": 169, "dateTime": 1512612376342, "trialdata": {"rt": -1, "stimulus": "", "key_press": -1, "type": "PRE_RECALL_DELAY", "trial_type": "single-stim", "trial_index": 169, "time_elapsed": 984875, "internal_node_id": "0.0-124.0-0.0"}}, {"uniqueid": "MTK0694:3G5F9DBFOQ4VK5SOA3UENG9CHX5VH0", "current_trial": 170, "dateTime": 1512612376843, "trialdata": {"rt": -1000, "stimulus": "/static/audio/400Hz.wav", "key_press": -1, "type": "PRE_RECALL_ALERT", "trial_type": "single-audio", "trial_index": 170, "time_elapsed": 985376, "internal_node_id": "0.0-125.0"}}, {"uniqueid": "MTK0694:3G5F9DBFOQ4VK5SOA3UENG9CHX5VH0", "current_trial": 171, "dateTime": 1512612436852, "trialdata": {"rt": [3316, 6315, 8916, 12356, 15307, 19044, 22587, 26316, 29380], "recwords": ["match", "bunny", "atom", "partner", "citrus", "yacht", "friut", "flipper", "creature"], "type": "FREE_RECALL", "conditions": [12, 1600, "v", 24000], "trial": 4, "trial_type": "free-recall", "trial_index": 171, "time_elapsed": 1045380, "internal_node_id": "0.0-126.0-0.0"}}, {"uniqueid": "MTK0694:3G5F9DBFOQ4VK5SOA3UENG9CHX5VH0", "current_trial": 172, "dateTime": 1512612439937, "trialdata": {"rt": 1085, "key_press": 13, "type": "INSTRUCTIONS", "trial_type": "text", "trial_index": 172, "time_elapsed": 1048471, "internal_node_id": "0.0-127.0"}}, {"uniqueid": "MTK0694:3G5F9DBFOQ4VK5SOA3UENG9CHX5VH0", "current_trial": 173, "dateTime": 1512612453945, "trialdata": {"rt": [7877, 10854], "responses": ["17", "17]"], "num1": [5, 7, 2], "num2": [3, 9, 4], "num3": [9, 1, 4], "type": "DISTRACTOR", "conditions": [24, 1600, "v", 12000], "trial": 5, "trial_type": "math-distractor", "trial_index": 173, "time_elapsed": 1062479, "internal_node_id": "0.0-128.0"}}, {"uniqueid": "MTK0694:3G5F9DBFOQ4VK5SOA3UENG9CHX5VH0", "current_trial": 174, "dateTime": 1512612456946, "trialdata": {"rt": -1, "stimulus": "<p id=\"stim\">10</p>", "key_press": -1, "trial_type": "single-stim", "trial_index": 174, "time_elapsed": 1065480, "internal_node_id": "0.0-129.0-0.0"}}, {"uniqueid": "MTK0694:3G5F9DBFOQ4VK5SOA3UENG9CHX5VH0", "current_trial": 175, "dateTime": 1512612457947, "trialdata": {"rt": -1, "stimulus": "<p id=\"stim\">9</p>", "key_press": -1, "trial_type": "single-stim", "trial_index": 175, "time_elapsed": 1066480, "internal_node_id": "0.0-129.0-1.0"}}, {"uniqueid": "MTK0694:3G5F9DBFOQ4VK5SOA3UENG9CHX5VH0", "current_trial": 176, "dateTime": 1512612458947, "trialdata": {"rt": -1, "stimulus": "<p id=\"stim\">8</p>", "key_press": -1, "trial_type": "single-stim", "trial_index": 176, "time_elapsed": 1067481, "internal_node_id": "0.0-129.0-2.0"}}, {"uniqueid": "MTK0694:3G5F9DBFOQ4VK5SOA3UENG9CHX5VH0", "current_trial": 177, "dateTime": 1512612459948, "trialdata": {"rt": -1, "stimulus": "<p id=\"stim\">7</p>", "key_press": -1, "trial_type": "single-stim", "trial_index": 177, "time_elapsed": 1068482, "internal_node_id": "0.0-129.0-3.0"}}, {"uniqueid": "MTK0694:3G5F9DBFOQ4VK5SOA3UENG9CHX5VH0", "current_trial": 178, "dateTime": 1512612460949, "trialdata": {"rt": -1, "stimulus": "<p id=\"stim\">6</p>", "key_press": -1, "trial_type": "single-stim", "trial_index": 178, "time_elapsed": 1069482, "internal_node_id": "0.0-129.0-4.0"}}, {"uniqueid": "MTK0694:3G5F9DBFOQ4VK5SOA3UENG9CHX5VH0", "current_trial": 179, "dateTime": 1512612461951, "trialdata": {"rt": -1, "stimulus": "<p id=\"stim\">5</p>", "key_press": -1, "trial_type": "single-stim", "trial_index": 179, "time_elapsed": 1070485, "internal_node_id": "0.0-129.0-5.0"}}, {"uniqueid": "MTK0694:3G5F9DBFOQ4VK5SOA3UENG9CHX5VH0", "current_trial": 180, "dateTime": 1512612462951, "trialdata": {"rt": -1, "stimulus": "<p id=\"stim\">4</p>", "key_press": -1, "trial_type": "single-stim", "trial_index": 180, "time_elapsed": 1071485, "internal_node_id": "0.0-129.0-6.0"}}, {"uniqueid": "MTK0694:3G5F9DBFOQ4VK5SOA3UENG9CHX5VH0", "current_trial": 181, "dateTime": 1512612463958, "trialdata": {"rt": -1, "stimulus": "<p id=\"stim\">3</p>", "key_press": -1, "trial_type": "single-stim", "trial_index": 181, "time_elapsed": 1072491, "internal_node_id": "0.0-129.0-7.0"}}, {"uniqueid": "MTK0694:3G5F9DBFOQ4VK5SOA3UENG9CHX5VH0", "current_trial": 182, "dateTime": 1512612464960, "trialdata": {"rt": -1, "stimulus": "<p id=\"stim\">2</p>", "key_press": -1, "trial_type": "single-stim", "trial_index": 182, "time_elapsed": 1073493, "internal_node_id": "0.0-129.0-8.0"}}, {"uniqueid": "MTK0694:3G5F9DBFOQ4VK5SOA3UENG9CHX5VH0", "current_trial": 183, "dateTime": 1512612465961, "trialdata": {"rt": -1, "stimulus": "<p id=\"stim\">1</p>", "key_press": -1, "trial_type": "single-stim", "trial_index": 183, "time_elapsed": 1074495, "internal_node_id": "0.0-129.0-9.0"}}, {"uniqueid": "MTK0694:3G5F9DBFOQ4VK5SOA3UENG9CHX5VH0", "current_trial": 184, "dateTime": 1512612467461, "trialdata": {"rt": -1, "stimulus": "<p id=\"stim\">+</p>", "key_press": -1, "type": "FIXATION", "trial_type": "single-stim", "trial_index": 184, "time_elapsed": 1075995, "internal_node_id": "0.0-130.0-0.0"}}, {"uniqueid": "MTK0694:3G5F9DBFOQ4VK5SOA3UENG9CHX5VH0", "current_trial": 185, "dateTime": 1512612469062, "trialdata": {"rt": -1, "stimulus": "<p id=\"stim\">WIDOW</p>", "key_press": -1, "type": "PRES_VIS", "word": "widow", "wordID": 1607, "conditions": [24, 1600, "v", 12000], "trial": 5, "serialpos": 0, "trial_type": "single-stim", "trial_index": 185, "time_elapsed": 1077595, "internal_node_id": "0.0-131.0"}}, {"uniqueid": "MTK0694:3G5F9DBFOQ4VK5SOA3UENG9CHX5VH0", "current_trial": 186, "dateTime": 1512612471571, "trialdata": {"rt": -1, "stimulus": "<p id=\"stim\">BURGLAR</p>", "key_press": -1, "type": "PRES_VIS", "word": "burglar", "wordID": 199, "conditions": [24, 1600, "v", 12000], "trial": 5, "serialpos": 1, "trial_type": "single-stim", "trial_index": 186, "time_elapsed": 1080105, "internal_node_id": "0.0-132.0"}}, {"uniqueid": "MTK0694:3G5F9DBFOQ4VK5SOA3UENG9CHX5VH0", "current_trial": 187, "dateTime": 1512612474181, "trialdata": {"rt": -1, "stimulus": "<p id=\"stim\">SWIMMER</p>", "key_press": -1, "type": "PRES_VIS", "word": "swimmer", "wordID": 1419, "conditions": [24, 1600, "v", 12000], "trial": 5, "serialpos": 2, "trial_type": "single-stim", "trial_index": 187, "time_elapsed": 1082715, "internal_node_id": "0.0-133.0"}}, {"uniqueid": "MTK0694:3G5F9DBFOQ4VK5SOA3UENG9CHX5VH0", "current_trial": 188, "dateTime": 1512612476812, "trialdata": {"rt": -1, "stimulus": "<p id=\"stim\">MAILBOX</p>", "key_press": -1, "type": "PRES_VIS", "word": "mailbox", "wordID": 856, "conditions": [24, 1600, "v", 12000], "trial": 5, "serialpos": 3, "trial_type": "single-stim", "trial_index": 188, "time_elapsed": 1085345, "internal_node_id": "0.0-134.0"}}, {"uniqueid": "MTK0694:3G5F9DBFOQ4VK5SOA3UENG9CHX5VH0", "current_trial": 189, "dateTime": 1512612479302, "trialdata": {"rt": -1, "stimulus": "<p id=\"stim\">WAGON</p>", "key_press": -1, "type": "PRES_VIS", "word": "wagon", "wordID": 1577, "conditions": [24, 1600, "v", 12000], "trial": 5, "serialpos": 4, "trial_type": "single-stim", "trial_index": 189, "time_elapsed": 1087835, "internal_node_id": "0.0-135.0"}}, {"uniqueid": "MTK0694:3G5F9DBFOQ4VK5SOA3UENG9CHX5VH0", "current_trial": 190, "dateTime": 1512612482004, "trialdata": {"rt": -1, "stimulus": "<p id=\"stim\">VALLEY</p>", "key_press": -1, "type": "PRES_VIS", "word": "valley", "wordID": 1544, "conditions": [24, 1600, "v", 12000], "trial": 5, "serialpos": 5, "trial_type": "single-stim", "trial_index": 190, "time_elapsed": 1090537, "internal_node_id": "0.0-136.0"}}, {"uniqueid": "MTK0694:3G5F9DBFOQ4VK5SOA3UENG9CHX5VH0", "current_trial": 191, "dateTime": 1512612484568, "trialdata": {"rt": -1, "stimulus": "<p id=\"stim\">CHAPEL</p>", "key_press": -1, "type": "PRES_VIS", "word": "chapel", "wordID": 279, "conditions": [24, 1600, "v", 12000], "trial": 5, "serialpos": 6, "trial_type": "single-stim", "trial_index": 191, "time_elapsed": 1093102, "internal_node_id": "0.0-137.0"}}, {"uniqueid": "MTK0694:3G5F9DBFOQ4VK5SOA3UENG9CHX5VH0", "current_trial": 192, "dateTime": 1512612487363, "trialdata": {"rt": -1, "stimulus": "<p id=\"stim\">LETTUCE</p>", "key_press": -1, "type": "PRES_VIS", "word": "lettuce", "wordID": 813, "conditions": [24, 1600, "v", 12000], "trial": 5, "serialpos": 7, "trial_type": "single-stim", "trial_index": 192, "time_elapsed": 1095896, "internal_node_id": "0.0-138.0"}}, {"uniqueid": "MTK0694:3G5F9DBFOQ4VK5SOA3UENG9CHX5VH0", "current_trial": 193, "dateTime": 1512612489944, "trialdata": {"rt": -1, "stimulus": "<p id=\"stim\">BANK</p>", "key_press": -1, "type": "PRES_VIS", "word": "bank", "wordID": 82, "conditions": [24, 1600, "v", 12000], "trial": 5, "serialpos": 8, "trial_type": "single-stim", "trial_index": 193, "time_elapsed": 1098477, "internal_node_id": "0.0-139.0"}}, {"uniqueid": "MTK0694:3G5F9DBFOQ4VK5SOA3UENG9CHX5VH0", "current_trial": 194, "dateTime": 1512612492435, "trialdata": {"rt": -1, "stimulus": "<p id=\"stim\">BANKER</p>", "key_press": -1, "type": "PRES_VIS", "word": "banker", "wordID": 83, "conditions": [24, 1600, "v", 12000], "trial": 5, "serialpos": 9, "trial_type": "single-stim", "trial_index": 194, "time_elapsed": 1100968, "internal_node_id": "0.0-140.0"}}, {"uniqueid": "MTK0694:3G5F9DBFOQ4VK5SOA3UENG9CHX5VH0", "current_trial": 195, "dateTime": 1512612495191, "trialdata": {"rt": -1, "stimulus": "<p id=\"stim\">CATTLE</p>", "key_press": -1, "type": "PRES_VIS", "word": "cattle", "wordID": 260, "conditions": [24, 1600, "v", 12000], "trial": 5, "serialpos": 10, "trial_type": "single-stim", "trial_index": 195, "time_elapsed": 1103724, "internal_node_id": "0.0-141.0"}}, {"uniqueid": "MTK0694:3G5F9DBFOQ4VK5SOA3UENG9CHX5VH0", "current_trial": 196, "dateTime": 1512612497938, "trialdata": {"rt": -1, "stimulus": "<p id=\"stim\">ROBBER</p>", "key_press": -1, "type": "PRES_VIS", "word": "robber", "wordID": 1196, "conditions": [24, 1600, "v", 12000], "trial": 5, "serialpos": 11, "trial_type": "single-stim", "trial_index": 196, "time_elapsed": 1106472, "internal_node_id": "0.0-142.0"}}, {"uniqueid": "MTK0694:3G5F9DBFOQ4VK5SOA3UENG9CHX5VH0", "current_trial": 197, "dateTime": 1512612500447, "trialdata": {"rt": -1, "stimulus": "<p id=\"stim\">CANYON</p>", "key_press": -1, "type": "PRES_VIS", "word": "canyon", "wordID": 234, "conditions": [24, 1600, "v", 12000], "trial": 5, "serialpos": 12, "trial_type": "single-stim", "trial_index": 197, "time_elapsed": 1108980, "internal_node_id": "0.0-143.0"}}, {"uniqueid": "MTK0694:3G5F9DBFOQ4VK5SOA3UENG9CHX5VH0", "current_trial": 198, "dateTime": 1512612502991, "trialdata": {"rt": -1, "stimulus": "<p id=\"stim\">GRAVEL</p>", "key_press": -1, "type": "PRES_VIS", "word": "gravel", "wordID": 658, "conditions": [24, 1600, "v", 12000], "trial": 5, "serialpos": 13, "trial_type": "single-stim", "trial_index": 198, "time_elapsed": 1111525, "internal_node_id": "0.0-144.0"}}, {"uniqueid": "MTK0694:3G5F9DBFOQ4VK5SOA3UENG9CHX5VH0", "current_trial": 199, "dateTime": 1512612505539, "trialdata": {"rt": -1, "stimulus": "<p id=\"stim\">COOK</p>", "key_press": -1, "type": "PRES_VIS", "word": "cook", "wordID": 371, "conditions": [24, 1600, "v", 12000], "trial": 5, "serialpos": 14, "trial_type": "single-stim", "trial_index": 199, "time_elapsed": 1114072, "internal_node_id": "0.0-145.0"}}, {"uniqueid": "MTK0694:3G5F9DBFOQ4VK5SOA3UENG9CHX5VH0", "current_trial": 200, "dateTime": 1512612508248, "trialdata": {"rt": -1, "stimulus": "<p id=\"stim\">KITCHEN</p>", "key_press": -1, "type": "PRES_VIS", "word": "kitchen", "wordID": 777, "conditions": [24, 1600, "v", 12000], "trial": 5, "serialpos": 15, "trial_type": "single-stim", "trial_index": 200, "time_elapsed": 1116782, "internal_node_id": "0.0-146.0"}}, {"uniqueid": "MTK0694:3G5F9DBFOQ4VK5SOA3UENG9CHX5VH0", "current_trial": 201, "dateTime": 1512612511001, "trialdata": {"rt": -1, "stimulus": "<p id=\"stim\">CHEST</p>", "key_press": -1, "type": "PRES_VIS", "word": "chest", "wordID": 294, "conditions": [24, 1600, "v", 12000], "trial": 5, "serialpos": 16, "trial_type": "single-stim", "trial_index": 201, "time_elapsed": 1119535, "internal_node_id": "0.0-147.0"}}, {"uniqueid": "MTK0694:3G5F9DBFOQ4VK5SOA3UENG9CHX5VH0", "current_trial": 202, "dateTime": 1512612513718, "trialdata": {"rt": -1, "stimulus": "<p id=\"stim\">TURKEY</p>", "key_press": -1, "type": "PRES_VIS", "word": "turkey", "wordID": 1519, "conditions": [24, 1600, "v", 12000], "trial": 5, "serialpos": 17, "trial_type": "single-stim", "trial_index": 202, "time_elapsed": 1122251, "internal_node_id": "0.0-148.0"}}, {"uniqueid": "MTK0694:3G5F9DBFOQ4VK5SOA3UENG9CHX5VH0", "current_trial": 203, "dateTime": 1512612516414, "trialdata": {"rt": -1, "stimulus": "<p id=\"stim\">MACHINE</p>", "key_press": -1, "type": "PRES_VIS", "word": "machine", "wordID": 851, "conditions": [24, 1600, "v", 12000], "trial": 5, "serialpos": 18, "trial_type": "single-stim", "trial_index": 203, "time_elapsed": 1124947, "internal_node_id": "0.0-149.0"}}, {"uniqueid": "MTK0694:3G5F9DBFOQ4VK5SOA3UENG9CHX5VH0", "current_trial": 204, "dateTime": 1512612519136, "trialdata": {"rt": -1, "stimulus": "<p id=\"stim\">SUBWAY</p>", "key_press": -1, "type": "PRES_VIS", "word": "subway", "wordID": 1399, "conditions": [24, 1600, "v", 12000], "trial": 5, "serialpos": 19, "trial_type": "single-stim", "trial_index": 204, "time_elapsed": 1127669, "internal_node_id": "0.0-150.0"}}, {"uniqueid": "MTK0694:3G5F9DBFOQ4VK5SOA3UENG9CHX5VH0", "current_trial": 205, "dateTime": 1512612521772, "trialdata": {"rt": -1, "stimulus": "<p id=\"stim\">EUROPE</p>", "key_press": -1, "type": "PRES_VIS", "word": "europe", "wordID": 540, "conditions": [24, 1600, "v", 12000], "trial": 5, "serialpos": 20, "trial_type": "single-stim", "trial_index": 205, "time_elapsed": 1130306, "internal_node_id": "0.0-151.0"}}, {"uniqueid": "MTK0694:3G5F9DBFOQ4VK5SOA3UENG9CHX5VH0", "current_trial": 206, "dateTime": 1512612524393, "trialdata": {"rt": -1, "stimulus": "<p id=\"stim\">JELLO</p>", "key_press": -1, "type": "PRES_VIS", "word": "jello", "wordID": 753, "conditions": [24, 1600, "v", 12000], "trial": 5, "serialpos": 21, "trial_type": "single-stim", "trial_index": 206, "time_elapsed": 1132927, "internal_node_id": "0.0-152.0"}}, {"uniqueid": "MTK0694:3G5F9DBFOQ4VK5SOA3UENG9CHX5VH0", "current_trial": 207, "dateTime": 1512612526918, "trialdata": {"rt": -1, "stimulus": "<p id=\"stim\">BUTCHER</p>", "key_press": -1, "type": "PRES_VIS", "word": "butcher", "wordID": 202, "conditions": [24, 1600, "v", 12000], "trial": 5, "serialpos": 22, "trial_type": "single-stim", "trial_index": 207, "time_elapsed": 1135451, "internal_node_id": "0.0-153.0"}}, {"uniqueid": "MTK0694:3G5F9DBFOQ4VK5SOA3UENG9CHX5VH0", "current_trial": 208, "dateTime": 1512612529587, "trialdata": {"rt": -1, "stimulus": "<p id=\"stim\">QUAIL</p>", "key_press": -1, "type": "PRES_VIS", "word": "quail", "wordID": 1146, "conditions": [24, 1600, "v", 12000], "trial": 5, "serialpos": 23, "trial_type": "single-stim", "trial_index": 208, "time_elapsed": 1138121, "internal_node_id": "0.0-154.0"}}, {"uniqueid": "MTK0694:3G5F9DBFOQ4VK5SOA3UENG9CHX5VH0", "current_trial": 209, "dateTime": 1512612531755, "trialdata": {"rt": -1, "stimulus": "", "key_press": -1, "type": "PRE_RECALL_DELAY", "trial_type": "single-stim", "trial_index": 209, "time_elapsed": 1140288, "internal_node_id": "0.0-155.0-0.0"}}, {"uniqueid": "MTK0694:3G5F9DBFOQ4VK5SOA3UENG9CHX5VH0", "current_trial": 210, "dateTime": 1512612532256, "trialdata": {"rt": -1000, "stimulus": "/static/audio/400Hz.wav", "key_press": -1, "type": "PRE_RECALL_ALERT", "trial_type": "single-audio", "trial_index": 210, "time_elapsed": 1140789, "internal_node_id": "0.0-156.0"}}, {"uniqueid": "MTK0694:3G5F9DBFOQ4VK5SOA3UENG9CHX5VH0", "current_trial": 211, "dateTime": 1512612592266, "trialdata": {"rt": [3215, 7023, 9951, 12168, 14999, 18407, 20655, 22415, 25114, 27783, 29887, 31567, 35504, 38735, 40991, 43488, 45447, 48303, 52823, 58473], "recwords": ["widow", "burglar", "swimmer", "mailbox", "lettuce", "subway", "bank", "banker", "machine", "cattle", "valley", "wagon", "kitchen", "cook", "chest", "turkey", "jello", "quail", "europe", "canyon"], "type": "FREE_RECALL", "conditions": [24, 1600, "v", 12000], "trial": 5, "trial_type": "free-recall", "trial_index": 211, "time_elapsed": 1200793, "internal_node_id": "0.0-157.0-0.0"}}, {"uniqueid": "MTK0694:3G5F9DBFOQ4VK5SOA3UENG9CHX5VH0", "current_trial": 212, "dateTime": 1512612595602, "trialdata": {"rt": 1334, "key_press": 13, "type": "INSTRUCTIONS", "trial_type": "text", "trial_index": 212, "time_elapsed": 1204135, "internal_node_id": "0.0-158.0"}}, {"uniqueid": "MTK0694:3G5F9DBFOQ4VK5SOA3UENG9CHX5VH0", "current_trial": 213, "dateTime": 1512612609605, "trialdata": {"rt": [2757, 4917], "responses": ["13", "8"], "num1": [3, 3, 1], "num2": [5, 2, 5], "num3": [5, 3, 8], "type": "DISTRACTOR", "conditions": [24, 800, "a", 12000], "trial": 6, "trial_type": "math-distractor", "trial_index": 213, "time_elapsed": 1218139, "internal_node_id": "0.0-159.0"}}, {"uniqueid": "MTK0694:3G5F9DBFOQ4VK5SOA3UENG9CHX5VH0", "current_trial": 214, "dateTime": 1512612612605, "trialdata": {"rt": -1, "stimulus": "<p id=\"stim\">10</p>", "key_press": -1, "trial_type": "single-stim", "trial_index": 214, "time_elapsed": 1221139, "internal_node_id": "0.0-160.0-0.0"}}, {"uniqueid": "MTK0694:3G5F9DBFOQ4VK5SOA3UENG9CHX5VH0", "current_trial": 215, "dateTime": 1512612613606, "trialdata": {"rt": -1, "stimulus": "<p id=\"stim\">9</p>", "key_press": -1, "trial_type": "single-stim", "trial_index": 215, "time_elapsed": 1222139, "internal_node_id": "0.0-160.0-1.0"}}, {"uniqueid": "MTK0694:3G5F9DBFOQ4VK5SOA3UENG9CHX5VH0", "current_trial": 216, "dateTime": 1512612614607, "trialdata": {"rt": -1, "stimulus": "<p id=\"stim\">8</p>", "key_press": -1, "trial_type": "single-stim", "trial_index": 216, "time_elapsed": 1223140, "internal_node_id": "0.0-160.0-2.0"}}, {"uniqueid": "MTK0694:3G5F9DBFOQ4VK5SOA3UENG9CHX5VH0", "current_trial": 217, "dateTime": 1512612615608, "trialdata": {"rt": -1, "stimulus": "<p id=\"stim\">7</p>", "key_press": -1, "trial_type": "single-stim", "trial_index": 217, "time_elapsed": 1224142, "internal_node_id": "0.0-160.0-3.0"}}, {"uniqueid": "MTK0694:3G5F9DBFOQ4VK5SOA3UENG9CHX5VH0", "current_trial": 218, "dateTime": 1512612616609, "trialdata": {"rt": -1, "stimulus": "<p id=\"stim\">6</p>", "key_press": -1, "trial_type": "single-stim", "trial_index": 218, "time_elapsed": 1225143, "internal_node_id": "0.0-160.0-4.0"}}, {"uniqueid": "MTK0694:3G5F9DBFOQ4VK5SOA3UENG9CHX5VH0", "current_trial": 219, "dateTime": 1512612617611, "trialdata": {"rt": -1, "stimulus": "<p id=\"stim\">5</p>", "key_press": -1, "trial_type": "single-stim", "trial_index": 219, "time_elapsed": 1226145, "internal_node_id": "0.0-160.0-5.0"}}, {"uniqueid": "MTK0694:3G5F9DBFOQ4VK5SOA3UENG9CHX5VH0", "current_trial": 220, "dateTime": 1512612618611, "trialdata": {"rt": -1, "stimulus": "<p id=\"stim\">4</p>", "key_press": -1, "trial_type": "single-stim", "trial_index": 220, "time_elapsed": 1227145, "internal_node_id": "0.0-160.0-6.0"}}, {"uniqueid": "MTK0694:3G5F9DBFOQ4VK5SOA3UENG9CHX5VH0", "current_trial": 221, "dateTime": 1512612619612, "trialdata": {"rt": -1, "stimulus": "<p id=\"stim\">3</p>", "key_press": -1, "trial_type": "single-stim", "trial_index": 221, "time_elapsed": 1228145, "internal_node_id": "0.0-160.0-7.0"}}, {"uniqueid": "MTK0694:3G5F9DBFOQ4VK5SOA3UENG9CHX5VH0", "current_trial": 222, "dateTime": 1512612620612, "trialdata": {"rt": -1, "stimulus": "<p id=\"stim\">2</p>", "key_press": -1, "trial_type": "single-stim", "trial_index": 222, "time_elapsed": 1229146, "internal_node_id": "0.0-160.0-8.0"}}, {"uniqueid": "MTK0694:3G5F9DBFOQ4VK5SOA3UENG9CHX5VH0", "current_trial": 223, "dateTime": 1512612621612, "trialdata": {"rt": -1, "stimulus": "<p id=\"stim\">1</p>", "key_press": -1, "trial_type": "single-stim", "trial_index": 223, "time_elapsed": 1230146, "internal_node_id": "0.0-160.0-9.0"}}, {"uniqueid": "MTK0694:3G5F9DBFOQ4VK5SOA3UENG9CHX5VH0", "current_trial": 224, "dateTime": 1512612623112, "trialdata": {"rt": -1, "stimulus": "<p id=\"stim\">+</p>", "key_press": -1, "type": "FIXATION", "trial_type": "single-stim", "trial_index": 224, "time_elapsed": 1231646, "internal_node_id": "0.0-161.0-0.0"}}, {"uniqueid": "MTK0694:3G5F9DBFOQ4VK5SOA3UENG9CHX5VH0", "current_trial": 225, "dateTime": 1512612624876, "trialdata": {"rt": -1000, "stimulus": "/static/audio/wordpool/COLLEGE.wav", "key_press": -1, "type": "PRES_AUD", "word": "college", "wordID": 345, "conditions": [24, 800, "a", 12000], "trial": 6, "serialpos": 0, "trial_type": "single-audio", "trial_index": 225, "time_elapsed": 1233410, "internal_node_id": "0.0-162.0"}}, {"uniqueid": "MTK0694:3G5F9DBFOQ4VK5SOA3UENG9CHX5VH0", "current_trial": 226, "dateTime": 1512612626555, "trialdata": {"rt": -1000, "stimulus": "/static/audio/wordpool/ANKLE.wav", "key_press": -1, "type": "PRES_AUD", "word": "ankle", "wordID": 23, "conditions": [24, 800, "a", 12000], "trial": 6, "serialpos": 1, "trial_type": "single-audio", "trial_index": 226, "time_elapsed": 1235086, "internal_node_id": "0.0-163.0"}}, {"uniqueid": "MTK0694:3G5F9DBFOQ4VK5SOA3UENG9CHX5VH0", "current_trial": 227, "dateTime": 1512612628369, "trialdata": {"rt": -1000, "stimulus": "/static/audio/wordpool/CREVICE.wav", "key_press": -1, "type": "PRES_AUD", "word": "crevice", "wordID": 404, "conditions": [24, 800, "a", 12000], "trial": 6, "serialpos": 2, "trial_type": "single-audio", "trial_index": 227, "time_elapsed": 1236903, "internal_node_id": "0.0-164.0"}}, {"uniqueid": "MTK0694:3G5F9DBFOQ4VK5SOA3UENG9CHX5VH0", "current_trial": 228, "dateTime": 1512612630024, "trialdata": {"rt": -1000, "stimulus": "/static/audio/wordpool/FRECKLE.wav", "key_press": -1, "type": "PRES_AUD", "word": "freckle", "wordID": 601, "conditions": [24, 800, "a", 12000], "trial": 6, "serialpos": 3, "trial_type": "single-audio", "trial_index": 228, "time_elapsed": 1238558, "internal_node_id": "0.0-165.0"}}, {"uniqueid": "MTK0694:3G5F9DBFOQ4VK5SOA3UENG9CHX5VH0", "current_trial": 229, "dateTime": 1512612631879, "trialdata": {"rt": -1000, "stimulus": "/static/audio/wordpool/SHORTCAKE.wav", "key_press": -1, "type": "PRES_AUD", "word": "shortcake", "wordID": 1291, "conditions": [24, 800, "a", 12000], "trial": 6, "serialpos": 4, "trial_type": "single-audio", "trial_index": 229, "time_elapsed": 1240413, "internal_node_id": "0.0-166.0"}}, {"uniqueid": "MTK0694:3G5F9DBFOQ4VK5SOA3UENG9CHX5VH0", "current_trial": 230, "dateTime": 1512612633559, "trialdata": {"rt": -1000, "stimulus": "/static/audio/wordpool/FREEZER.wav", "key_press": -1, "type": "PRES_AUD", "word": "freezer", "wordID": 603, "conditions": [24, 800, "a", 12000], "trial": 6, "serialpos": 5, "trial_type": "single-audio", "trial_index": 230, "time_elapsed": 1242093, "internal_node_id": "0.0-167.0"}}, {"uniqueid": "MTK0694:3G5F9DBFOQ4VK5SOA3UENG9CHX5VH0", "current_trial": 231, "dateTime": 1512612635274, "trialdata": {"rt": -1000, "stimulus": "/static/audio/wordpool/PANTHER.wav", "key_press": -1, "type": "PRES_AUD", "word": "panther", "wordID": 1008, "conditions": [24, 800, "a", 12000], "trial": 6, "serialpos": 6, "trial_type": "single-audio", "trial_index": 231, "time_elapsed": 1243808, "internal_node_id": "0.0-168.0"}}, {"uniqueid": "MTK0694:3G5F9DBFOQ4VK5SOA3UENG9CHX5VH0", "current_trial": 232, "dateTime": 1512612637077, "trialdata": {"rt": -1000, "stimulus": "/static/audio/wordpool/PIMPLE.wav", "key_press": -1, "type": "PRES_AUD", "word": "pimple", "wordID": 1070, "conditions": [24, 800, "a", 12000], "trial": 6, "serialpos": 7, "trial_type": "single-audio", "trial_index": 232, "time_elapsed": 1245611, "internal_node_id": "0.0-169.0"}}, {"uniqueid": "MTK0694:3G5F9DBFOQ4VK5SOA3UENG9CHX5VH0", "current_trial": 233, "dateTime": 1512612638894, "trialdata": {"rt": -1000, "stimulus": "/static/audio/wordpool/ARMY.wav", "key_press": -1, "type": "PRES_AUD", "word": "army", "wordID": 38, "conditions": [24, 800, "a", 12000], "trial": 6, "serialpos": 8, "trial_type": "single-audio", "trial_index": 233, "time_elapsed": 1247428, "internal_node_id": "0.0-170.0"}}, {"uniqueid": "MTK0694:3G5F9DBFOQ4VK5SOA3UENG9CHX5VH0", "current_trial": 234, "dateTime": 1512612640767, "trialdata": {"rt": -1000, "stimulus": "/static/audio/wordpool/MARINE.wav", "key_press": -1, "type": "PRES_AUD", "word": "marine", "wordID": 868, "conditions": [24, 800, "a", 12000], "trial": 6, "serialpos": 9, "trial_type": "single-audio", "trial_index": 234, "time_elapsed": 1249301, "internal_node_id": "0.0-171.0"}}, {"uniqueid": "MTK0694:3G5F9DBFOQ4VK5SOA3UENG9CHX5VH0", "current_trial": 235, "dateTime": 1512612642434, "trialdata": {"rt": -1000, "stimulus": "/static/audio/wordpool/ONION.wav", "key_press": -1, "type": "PRES_AUD", "word": "onion", "wordID": 976, "conditions": [24, 800, "a", 12000], "trial": 6, "serialpos": 10, "trial_type": "single-audio", "trial_index": 235, "time_elapsed": 1250968, "internal_node_id": "0.0-172.0"}}, {"uniqueid": "MTK0694:3G5F9DBFOQ4VK5SOA3UENG9CHX5VH0", "current_trial": 236, "dateTime": 1512612644093, "trialdata": {"rt": -1000, "stimulus": "/static/audio/wordpool/APPLE.wav", "key_press": -1, "type": "PRES_AUD", "word": "apple", "wordID": 32, "conditions": [24, 800, "a", 12000], "trial": 6, "serialpos": 11, "trial_type": "single-audio", "trial_index": 236, "time_elapsed": 1252627, "internal_node_id": "0.0-173.0"}}, {"uniqueid": "MTK0694:3G5F9DBFOQ4VK5SOA3UENG9CHX5VH0", "current_trial": 237, "dateTime": 1512612646010, "trialdata": {"rt": -1000, "stimulus": "/static/audio/wordpool/DRUG.wav", "key_press": -1, "type": "PRES_AUD", "word": "drug", "wordID": 500, "conditions": [24, 800, "a", 12000], "trial": 6, "serialpos": 12, "trial_type": "single-audio", "trial_index": 237, "time_elapsed": 1254544, "internal_node_id": "0.0-174.0"}}, {"uniqueid": "MTK0694:3G5F9DBFOQ4VK5SOA3UENG9CHX5VH0", "current_trial": 238, "dateTime": 1512612647842, "trialdata": {"rt": -1000, "stimulus": "/static/audio/wordpool/DOUGHNUT.wav", "key_press": -1, "type": "PRES_AUD", "word": "doughnut", "wordID": 489, "conditions": [24, 800, "a", 12000], "trial": 6, "serialpos": 13, "trial_type": "single-audio", "trial_index": 238, "time_elapsed": 1256376, "internal_node_id": "0.0-175.0"}}, {"uniqueid": "MTK0694:3G5F9DBFOQ4VK5SOA3UENG9CHX5VH0", "current_trial": 239, "dateTime": 1512612649676, "trialdata": {"rt": -1000, "stimulus": "/static/audio/wordpool/FILM.wav", "key_press": -1, "type": "PRES_AUD", "word": "film", "wordID": 564, "conditions": [24, 800, "a", 12000], "trial": 6, "serialpos": 14, "trial_type": "single-audio", "trial_index": 239, "time_elapsed": 1258210, "internal_node_id": "0.0-176.0"}}, {"uniqueid": "MTK0694:3G5F9DBFOQ4VK5SOA3UENG9CHX5VH0", "current_trial": 240, "dateTime": 1512612651504, "trialdata": {"rt": -1000, "stimulus": "/static/audio/wordpool/BLOCKADE.wav", "key_press": -1, "type": "PRES_AUD", "word": "blockade", "wordID": 136, "conditions": [24, 800, "a", 12000], "trial": 6, "serialpos": 15, "trial_type": "single-audio", "trial_index": 240, "time_elapsed": 1260038, "internal_node_id": "0.0-177.0"}}, {"uniqueid": "MTK0694:3G5F9DBFOQ4VK5SOA3UENG9CHX5VH0", "current_trial": 241, "dateTime": 1512612653191, "trialdata": {"rt": -1000, "stimulus": "/static/audio/wordpool/SURVEY.wav", "key_press": -1, "type": "PRES_AUD", "word": "survey", "wordID": 1413, "conditions": [24, 800, "a", 12000], "trial": 6, "serialpos": 16, "trial_type": "single-audio", "trial_index": 241, "time_elapsed": 1261725, "internal_node_id": "0.0-178.0"}}, {"uniqueid": "MTK0694:3G5F9DBFOQ4VK5SOA3UENG9CHX5VH0", "current_trial": 242, "dateTime": 1512612654856, "trialdata": {"rt": -1000, "stimulus": "/static/audio/wordpool/REPORT.wav", "key_press": -1, "type": "PRES_AUD", "word": "report", "wordID": 1183, "conditions": [24, 800, "a", 12000], "trial": 6, "serialpos": 17, "trial_type": "single-audio", "trial_index": 242, "time_elapsed": 1263390, "internal_node_id": "0.0-179.0"}}, {"uniqueid": "MTK0694:3G5F9DBFOQ4VK5SOA3UENG9CHX5VH0", "current_trial": 243, "dateTime": 1512612656545, "trialdata": {"rt": -1000, "stimulus": "/static/audio/wordpool/COUNTY.wav", "key_press": -1, "type": "PRES_AUD", "word": "county", "wordID": 388, "conditions": [24, 800, "a", 12000], "trial": 6, "serialpos": 18, "trial_type": "single-audio", "trial_index": 243, "time_elapsed": 1265079, "internal_node_id": "0.0-180.0"}}, {"uniqueid": "MTK0694:3G5F9DBFOQ4VK5SOA3UENG9CHX5VH0", "current_trial": 244, "dateTime": 1512612658521, "trialdata": {"rt": -1000, "stimulus": "/static/audio/wordpool/MOTEL.wav", "key_press": -1, "type": "PRES_AUD", "word": "motel", "wordID": 918, "conditions": [24, 800, "a", 12000], "trial": 6, "serialpos": 19, "trial_type": "single-audio", "trial_index": 244, "time_elapsed": 1267054, "internal_node_id": "0.0-181.0"}}, {"uniqueid": "MTK0694:3G5F9DBFOQ4VK5SOA3UENG9CHX5VH0", "current_trial": 245, "dateTime": 1512612660470, "trialdata": {"rt": -1000, "stimulus": "/static/audio/wordpool/MUMMY.wav", "key_press": -1, "type": "PRES_AUD", "word": "mummy", "wordID": 931, "conditions": [24, 800, "a", 12000], "trial": 6, "serialpos": 20, "trial_type": "single-audio", "trial_index": 245, "time_elapsed": 1269004, "internal_node_id": "0.0-182.0"}}, {"uniqueid": "MTK0694:3G5F9DBFOQ4VK5SOA3UENG9CHX5VH0", "current_trial": 246, "dateTime": 1512612662386, "trialdata": {"rt": -1000, "stimulus": "/static/audio/wordpool/SKILLET.wav", "key_press": -1, "type": "PRES_AUD", "word": "skillet", "wordID": 1316, "conditions": [24, 800, "a", 12000], "trial": 6, "serialpos": 21, "trial_type": "single-audio", "trial_index": 246, "time_elapsed": 1270920, "internal_node_id": "0.0-183.0"}}, {"uniqueid": "MTK0694:3G5F9DBFOQ4VK5SOA3UENG9CHX5VH0", "current_trial": 247, "dateTime": 1512612664233, "trialdata": {"rt": -1000, "stimulus": "/static/audio/wordpool/PICNIC.wav", "key_press": -1, "type": "PRES_AUD", "word": "picnic", "wordID": 1059, "conditions": [24, 800, "a", 12000], "trial": 6, "serialpos": 22, "trial_type": "single-audio", "trial_index": 247, "time_elapsed": 1272767, "internal_node_id": "0.0-184.0"}}, {"uniqueid": "MTK0694:3G5F9DBFOQ4VK5SOA3UENG9CHX5VH0", "current_trial": 248, "dateTime": 1512612666188, "trialdata": {"rt": -1000, "stimulus": "/static/audio/wordpool/MUFFIN.wav", "key_press": -1, "type": "PRES_AUD", "word": "muffin", "wordID": 928, "conditions": [24, 800, "a", 12000], "trial": 6, "serialpos": 23, "trial_type": "single-audio", "trial_index": 248, "time_elapsed": 1274722, "internal_node_id": "0.0-185.0"}}, {"uniqueid": "MTK0694:3G5F9DBFOQ4VK5SOA3UENG9CHX5VH0", "current_trial": 249, "dateTime": 1512612667487, "trialdata": {"rt": -1, "stimulus": "", "key_press": -1, "type": "PRE_RECALL_DELAY", "trial_type": "single-stim", "trial_index": 249, "time_elapsed": 1276020, "internal_node_id": "0.0-186.0-0.0"}}, {"uniqueid": "MTK0694:3G5F9DBFOQ4VK5SOA3UENG9CHX5VH0", "current_trial": 250, "dateTime": 1512612667987, "trialdata": {"rt": -1000, "stimulus": "/static/audio/400Hz.wav", "key_press": -1, "type": "PRE_RECALL_ALERT", "trial_type": "single-audio", "trial_index": 250, "time_elapsed": 1276521, "internal_node_id": "0.0-187.0"}}, {"uniqueid": "MTK0694:3G5F9DBFOQ4VK5SOA3UENG9CHX5VH0", "current_trial": 251, "dateTime": 1512612727998, "trialdata": {"rt": [2909, 5517, 8484, 10517, 13381, 16924, 19349, 22685, 26797, 30533, 34869, 41453, 45404, 47276, 49597, 52029, 53677, 56324, 59589], "recwords": ["college", "ankle", "crevice", "skillet", "panther", "donut", "pimple", "muffin", "county", "film", "survey", "opinion", "picnic", "mummy", "apple", "drug", "motel", "report", "army"], "type": "FREE_RECALL", "conditions": [24, 800, "a", 12000], "trial": 6, "trial_type": "free-recall", "trial_index": 251, "time_elapsed": 1336524, "internal_node_id": "0.0-188.0-0.0"}}, {"uniqueid": "MTK0694:3G5F9DBFOQ4VK5SOA3UENG9CHX5VH0", "current_trial": 252, "dateTime": 1512612731513, "trialdata": {"rt": 1514, "key_press": 13, "type": "INSTRUCTIONS", "trial_type": "text", "trial_index": 252, "time_elapsed": 1340047, "internal_node_id": "0.0-189.0"}}, {"uniqueid": "MTK0694:3G5F9DBFOQ4VK5SOA3UENG9CHX5VH0", "current_trial": 253, "dateTime": 1512612757517, "trialdata": {"rt": [3652, 6772, 9533, 13108, 17533, 21844], "responses": ["16", "21", "14", "18", "14", "17"], "num1": [4, 9, 3, 6, 1, 8, 4], "num2": [9, 6, 2, 9, 9, 5, 9], "num3": [3, 6, 9, 3, 4, 4, 9], "type": "DISTRACTOR", "conditions": [12, 800, "a", 24000], "trial": 7, "trial_type": "math-distractor", "trial_index": 253, "time_elapsed": 1366051, "internal_node_id": "0.0-190.0"}}, {"uniqueid": "MTK0694:3G5F9DBFOQ4VK5SOA3UENG9CHX5VH0", "current_trial": 254, "dateTime": 1512612760519, "trialdata": {"rt": -1, "stimulus": "<p id=\"stim\">10</p>", "key_press": -1, "trial_type": "single-stim", "trial_index": 254, "time_elapsed": 1369052, "internal_node_id": "0.0-191.0-0.0"}}, {"uniqueid": "MTK0694:3G5F9DBFOQ4VK5SOA3UENG9CHX5VH0", "current_trial": 255, "dateTime": 1512612761520, "trialdata": {"rt": -1, "stimulus": "<p id=\"stim\">9</p>", "key_press": -1, "trial_type": "single-stim", "trial_index": 255, "time_elapsed": 1370053, "internal_node_id": "0.0-191.0-1.0"}}, {"uniqueid": "MTK0694:3G5F9DBFOQ4VK5SOA3UENG9CHX5VH0", "current_trial": 256, "dateTime": 1512612762521, "trialdata": {"rt": -1, "stimulus": "<p id=\"stim\">8</p>", "key_press": -1, "trial_type": "single-stim", "trial_index": 256, "time_elapsed": 1371055, "internal_node_id": "0.0-191.0-2.0"}}, {"uniqueid": "MTK0694:3G5F9DBFOQ4VK5SOA3UENG9CHX5VH0", "current_trial": 257, "dateTime": 1512612763522, "trialdata": {"rt": -1, "stimulus": "<p id=\"stim\">7</p>", "key_press": -1, "trial_type": "single-stim", "trial_index": 257, "time_elapsed": 1372055, "internal_node_id": "0.0-191.0-3.0"}}, {"uniqueid": "MTK0694:3G5F9DBFOQ4VK5SOA3UENG9CHX5VH0", "current_trial": 258, "dateTime": 1512612764523, "trialdata": {"rt": -1, "stimulus": "<p id=\"stim\">6</p>", "key_press": -1, "trial_type": "single-stim", "trial_index": 258, "time_elapsed": 1373056, "internal_node_id": "0.0-191.0-4.0"}}, {"uniqueid": "MTK0694:3G5F9DBFOQ4VK5SOA3UENG9CHX5VH0", "current_trial": 259, "dateTime": 1512612765525, "trialdata": {"rt": -1, "stimulus": "<p id=\"stim\">5</p>", "key_press": -1, "trial_type": "single-stim", "trial_index": 259, "time_elapsed": 1374059, "internal_node_id": "0.0-191.0-5.0"}}, {"uniqueid": "MTK0694:3G5F9DBFOQ4VK5SOA3UENG9CHX5VH0", "current_trial": 260, "dateTime": 1512612766526, "trialdata": {"rt": -1, "stimulus": "<p id=\"stim\">4</p>", "key_press": -1, "trial_type": "single-stim", "trial_index": 260, "time_elapsed": 1375059, "internal_node_id": "0.0-191.0-6.0"}}, {"uniqueid": "MTK0694:3G5F9DBFOQ4VK5SOA3UENG9CHX5VH0", "current_trial": 261, "dateTime": 1512612767526, "trialdata": {"rt": -1, "stimulus": "<p id=\"stim\">3</p>", "key_press": -1, "trial_type": "single-stim", "trial_index": 261, "time_elapsed": 1376060, "internal_node_id": "0.0-191.0-7.0"}}, {"uniqueid": "MTK0694:3G5F9DBFOQ4VK5SOA3UENG9CHX5VH0", "current_trial": 262, "dateTime": 1512612768528, "trialdata": {"rt": -1, "stimulus": "<p id=\"stim\">2</p>", "key_press": -1, "trial_type": "single-stim", "trial_index": 262, "time_elapsed": 1377061, "internal_node_id": "0.0-191.0-8.0"}}, {"uniqueid": "MTK0694:3G5F9DBFOQ4VK5SOA3UENG9CHX5VH0", "current_trial": 263, "dateTime": 1512612769529, "trialdata": {"rt": -1, "stimulus": "<p id=\"stim\">1</p>", "key_press": -1, "trial_type": "single-stim", "trial_index": 263, "time_elapsed": 1378062, "internal_node_id": "0.0-191.0-9.0"}}, {"uniqueid": "MTK0694:3G5F9DBFOQ4VK5SOA3UENG9CHX5VH0", "current_trial": 264, "dateTime": 1512612771029, "trialdata": {"rt": -1, "stimulus": "<p id=\"stim\">+</p>", "key_press": -1, "type": "FIXATION", "trial_type": "single-stim", "trial_index": 264, "time_elapsed": 1379563, "internal_node_id": "0.0-192.0-0.0"}}, {"uniqueid": "MTK0694:3G5F9DBFOQ4VK5SOA3UENG9CHX5VH0", "current_trial": 265, "dateTime": 1512612772757, "trialdata": {"rt": -1000, "stimulus": "/static/audio/wordpool/TROMBONE.wav", "key_press": -1, "type": "PRES_AUD", "word": "trombone", "wordID": 1507, "conditions": [12, 800, "a", 24000], "trial": 7, "serialpos": 0, "trial_type": "single-audio", "trial_index": 265, "time_elapsed": 1381291, "internal_node_id": "0.0-193.0"}}, {"uniqueid": "MTK0694:3G5F9DBFOQ4VK5SOA3UENG9CHX5VH0", "current_trial": 266, "dateTime": 1512612774545, "trialdata": {"rt": -1000, "stimulus": "/static/audio/wordpool/DONKEY.wav", "key_press": -1, "type": "PRES_AUD", "word": "donkey", "wordID": 483, "conditions": [12, 800, "a", 24000], "trial": 7, "serialpos": 1, "trial_type": "single-audio", "trial_index": 266, "time_elapsed": 1383079, "internal_node_id": "0.0-194.0"}}, {"uniqueid": "MTK0694:3G5F9DBFOQ4VK5SOA3UENG9CHX5VH0", "current_trial": 267, "dateTime": 1512612776253, "trialdata": {"rt": -1000, "stimulus": "/static/audio/wordpool/CANDY.wav", "key_press": -1, "type": "PRES_AUD", "word": "candy", "wordID": 229, "conditions": [12, 800, "a", 24000], "trial": 7, "serialpos": 2, "trial_type": "single-audio", "trial_index": 267, "time_elapsed": 1384787, "internal_node_id": "0.0-195.0"}}, {"uniqueid": "MTK0694:3G5F9DBFOQ4VK5SOA3UENG9CHX5VH0", "current_trial": 268, "dateTime": 1512612777871, "trialdata": {"rt": -1000, "stimulus": "/static/audio/wordpool/BALLOON.wav", "key_press": -1, "type": "PRES_AUD", "word": "balloon", "wordID": 74, "conditions": [12, 800, "a", 24000], "trial": 7, "serialpos": 3, "trial_type": "single-audio", "trial_index": 268, "time_elapsed": 1386405, "internal_node_id": "0.0-196.0"}}, {"uniqueid": "MTK0694:3G5F9DBFOQ4VK5SOA3UENG9CHX5VH0", "current_trial": 269, "dateTime": 1512612779627, "trialdata": {"rt": -1000, "stimulus": "/static/audio/wordpool/FLAG.wav", "key_press": -1, "type": "PRES_AUD", "word": "flag", "wordID": 572, "conditions": [12, 800, "a", 24000], "trial": 7, "serialpos": 4, "trial_type": "single-audio", "trial_index": 269, "time_elapsed": 1388161, "internal_node_id": "0.0-197.0"}}, {"uniqueid": "MTK0694:3G5F9DBFOQ4VK5SOA3UENG9CHX5VH0", "current_trial": 270, "dateTime": 1512612781339, "trialdata": {"rt": -1000, "stimulus": "/static/audio/wordpool/ITEM.wav", "key_press": -1, "type": "PRES_AUD", "word": "item", "wordID": 745, "conditions": [12, 800, "a", 24000], "trial": 7, "serialpos": 5, "trial_type": "single-audio", "trial_index": 270, "time_elapsed": 1389873, "internal_node_id": "0.0-198