{"condition": 0, "counterbalance": 861, "assignmentId": "3JPSL1DZ5T632DB126YVWDSVHONNAN", "workerId": "MTK0507", "hitId": "3VDVA3ILIDMZBDJLTHN568UBYFBG15", "currenttrial": 626, "bonus": 0, "data": [{"uniqueid": "MTK0507:3JPSL1DZ5T632DB126YVWDSVHONNAN", "current_trial": 0, "dateTime": 1511192632065, "trialdata": {"rt": 9516, "key_press": 32, "type": "INSTRUCTIONS", "trial_type": "text", "trial_index": 0, "time_elapsed": 9523, "internal_node_id": "0.0-0.0"}}, {"uniqueid": "MTK0507:3JPSL1DZ5T632DB126YVWDSVHONNAN", "current_trial": 1, "dateTime": 1511192649268, "trialdata": {"rt": 17198, "key_press": 32, "type": "INSTRUCTIONS", "trial_type": "text", "trial_index": 1, "time_elapsed": 26726, "internal_node_id": "0.0-1.0"}}, {"uniqueid": "MTK0507:3JPSL1DZ5T632DB126YVWDSVHONNAN", "current_trial": 2, "dateTime": 1511192655113, "trialdata": {"rt": [5827], "responses": ["ocean"], "type": "AUDIO_TEST", "trial_type": "audio-test", "trial_index": 2, "time_elapsed": 32572, "internal_node_id": "0.0-2.0"}}, {"uniqueid": "MTK0507:3JPSL1DZ5T632DB126YVWDSVHONNAN", "current_trial": 3, "dateTime": 1511192662908, "trialdata": {"rt": [7780], "responses": ["crystal"], "type": "AUDIO_TEST", "trial_type": "audio-test", "trial_index": 3, "time_elapsed": 40367, "internal_node_id": "0.0-3.0"}}, {"uniqueid": "MTK0507:3JPSL1DZ5T632DB126YVWDSVHONNAN", "current_trial": 4, "dateTime": 1511192675465, "trialdata": {"rt": [12547], "responses": ["spice"], "type": "AUDIO_TEST", "trial_type": "audio-test", "trial_index": 4, "time_elapsed": 52924, "internal_node_id": "0.0-4.0"}}, {"uniqueid": "MTK0507:3JPSL1DZ5T632DB126YVWDSVHONNAN", "current_trial": 5, "dateTime": 1511192717809, "trialdata": {"rt": 41587, "responses": "{\"Q0\":\"1 am\",\"Q1\":\"8:30 am\",\"Q2\":\"4\"}", "type": "SLEEP_SURVEY", "trial_type": "survey-text", "trial_index": 5, "time_elapsed": 95267, "internal_node_id": "0.0-5.0"}}, {"uniqueid": "MTK0507:3JPSL1DZ5T632DB126YVWDSVHONNAN", "current_trial": 6, "dateTime": 1511192721491, "trialdata": {"rt": 2679, "key_press": 17, "type": "INSTRUCTIONS", "trial_type": "text", "trial_index": 6, "time_elapsed": 98950, "internal_node_id": "0.0-6.0"}}, {"uniqueid": "MTK0507:3JPSL1DZ5T632DB126YVWDSVHONNAN", "current_trial": 7, "dateTime": 1511192744043, "trialdata": {"rt": 22049, "key_press": 32, "type": "INSTRUCTIONS", "trial_type": "text", "trial_index": 7, "time_elapsed": 121502, "internal_node_id": "0.0-7.0"}}, {"uniqueid": "MTK0507:3JPSL1DZ5T632DB126YVWDSVHONNAN", "current_trial": 8, "dateTime": 1511192776634, "trialdata": {"rt": 32087, "key_press": 13, "type": "INSTRUCTIONS", "trial_type": "text", "trial_index": 8, "time_elapsed": 154093, "internal_node_id": "0.0-8.0"}}, {"uniqueid": "MTK0507:3JPSL1DZ5T632DB126YVWDSVHONNAN", "current_trial": 9, "dateTime": 1511192795669, "trialdata": {"rt": [4360, 7793, 11240, 13142, 15040, 17327], "responses": ["17", "20", "17", "12", "8", "17"], "num1": [2, 9, 3, 8, 1, 7, 8], "num2": [6, 2, 6, 2, 4, 8, 6], "num3": [9, 9, 8, 2, 3, 2, 5], "type": "DISTRACTOR", "conditions": [18, 1200, "v", 18000], "trial": 0, "trial_type": "math-distractor", "trial_index": 9, "time_elapsed": 173128, "internal_node_id": "0.0-9.0"}}, {"uniqueid": "MTK0507:3JPSL1DZ5T632DB126YVWDSVHONNAN", "current_trial": 10, "dateTime": 1511192798677, "trialdata": {"rt": -1, "stimulus": "<p id=\"stim\">10</p>", "key_press": -1, "trial_type": "single-stim", "trial_index": 10, "time_elapsed": 176135, "internal_node_id": "0.0-10.0-0.0"}}, {"uniqueid": "MTK0507:3JPSL1DZ5T632DB126YVWDSVHONNAN", "current_trial": 11, "dateTime": 1511192799680, "trialdata": {"rt": -1, "stimulus": "<p id=\"stim\">9</p>", "key_press": -1, "trial_type": "single-stim", "trial_index": 11, "time_elapsed": 177139, "internal_node_id": "0.0-10.0-1.0"}}, {"uniqueid": "MTK0507:3JPSL1DZ5T632DB126YVWDSVHONNAN", "current_trial": 12, "dateTime": 1511192800683, "trialdata": {"rt": -1, "stimulus": "<p id=\"stim\">8</p>", "key_press": -1, "trial_type": "single-stim", "trial_index": 12, "time_elapsed": 178142, "internal_node_id": "0.0-10.0-2.0"}}, {"uniqueid": "MTK0507:3JPSL1DZ5T632DB126YVWDSVHONNAN", "current_trial": 13, "dateTime": 1511192801687, "trialdata": {"rt": -1, "stimulus": "<p id=\"stim\">7</p>", "key_press": -1, "trial_type": "single-stim", "trial_index": 13, "time_elapsed": 179146, "internal_node_id": "0.0-10.0-3.0"}}, {"uniqueid": "MTK0507:3JPSL1DZ5T632DB126YVWDSVHONNAN", "current_trial": 14, "dateTime": 1511192802689, "trialdata": {"rt": -1, "stimulus": "<p id=\"stim\">6</p>", "key_press": -1, "trial_type": "single-stim", "trial_index": 14, "time_elapsed": 180148, "internal_node_id": "0.0-10.0-4.0"}}, {"uniqueid": "MTK0507:3JPSL1DZ5T632DB126YVWDSVHONNAN", "current_trial": 15, "dateTime": 1511192803692, "trialdata": {"rt": -1, "stimulus": "<p id=\"stim\">5</p>", "key_press": -1, "trial_type": "single-stim", "trial_index": 15, "time_elapsed": 181150, "internal_node_id": "0.0-10.0-5.0"}}, {"uniqueid": "MTK0507:3JPSL1DZ5T632DB126YVWDSVHONNAN", "current_trial": 16, "dateTime": 1511192804694, "trialdata": {"rt": -1, "stimulus": "<p id=\"stim\">4</p>", "key_press": -1, "trial_type": "single-stim", "trial_index": 16, "time_elapsed": 182153, "internal_node_id": "0.0-10.0-6.0"}}, {"uniqueid": "MTK0507:3JPSL1DZ5T632DB126YVWDSVHONNAN", "current_trial": 17, "dateTime": 1511192805699, "trialdata": {"rt": -1, "stimulus": "<p id=\"stim\">3</p>", "key_press": -1, "trial_type": "single-stim", "trial_index": 17, "time_elapsed": 183158, "internal_node_id": "0.0-10.0-7.0"}}, {"uniqueid": "MTK0507:3JPSL1DZ5T632DB126YVWDSVHONNAN", "current_trial": 18, "dateTime": 1511192806701, "trialdata": {"rt": -1, "stimulus": "<p id=\"stim\">2</p>", "key_press": -1, "trial_type": "single-stim", "trial_index": 18, "time_elapsed": 184160, "internal_node_id": "0.0-10.0-8.0"}}, {"uniqueid": "MTK0507:3JPSL1DZ5T632DB126YVWDSVHONNAN", "current_trial": 19, "dateTime": 1511192807703, "trialdata": {"rt": -1, "stimulus": "<p id=\"stim\">1</p>", "key_press": -1, "trial_type": "single-stim", "trial_index": 19, "time_elapsed": 185162, "internal_node_id": "0.0-10.0-9.0"}}, {"uniqueid": "MTK0507:3JPSL1DZ5T632DB126YVWDSVHONNAN", "current_trial": 20, "dateTime": 1511192809206, "trialdata": {"rt": -1, "stimulus": "<p id=\"stim\">+</p>", "key_press": -1, "type": "FIXATION", "trial_type": "single-stim", "trial_index": 20, "time_elapsed": 186665, "internal_node_id": "0.0-11.0-0.0"}}, {"uniqueid": "MTK0507:3JPSL1DZ5T632DB126YVWDSVHONNAN", "current_trial": 21, "dateTime": 1511192810411, "trialdata": {"rt": -1, "stimulus": "<p id=\"stim\">WIFE</p>", "key_press": -1, "type": "PRES_VIS", "word": "wife", "wordID": 1608, "conditions": [18, 1200, "v", 18000], "trial": 0, "serialpos": 0, "trial_type": "single-stim", "trial_index": 21, "time_elapsed": 187870, "internal_node_id": "0.0-12.0"}}, {"uniqueid": "MTK0507:3JPSL1DZ5T632DB126YVWDSVHONNAN", "current_trial": 22, "dateTime": 1511192812668, "trialdata": {"rt": -1, "stimulus": "<p id=\"stim\">ROBBER</p>", "key_press": -1, "type": "PRES_VIS", "word": "robber", "wordID": 1196, "conditions": [18, 1200, "v", 18000], "trial": 0, "serialpos": 1, "trial_type": "single-stim", "trial_index": 22, "time_elapsed": 190127, "internal_node_id": "0.0-13.0"}}, {"uniqueid": "MTK0507:3JPSL1DZ5T632DB126YVWDSVHONNAN", "current_trial": 23, "dateTime": 1511192814990, "trialdata": {"rt": -1, "stimulus": "<p id=\"stim\">STOMACH</p>", "key_press": -1, "type": "PRES_VIS", "word": "stomach", "wordID": 1383, "conditions": [18, 1200, "v", 18000], "trial": 0, "serialpos": 2, "trial_type": "single-stim", "trial_index": 23, "time_elapsed": 192449, "internal_node_id": "0.0-14.0"}}, {"uniqueid": "MTK0507:3JPSL1DZ5T632DB126YVWDSVHONNAN", "current_trial": 24, "dateTime": 1511192817367, "trialdata": {"rt": -1, "stimulus": "<p id=\"stim\">LIGHTNING</p>", "key_press": -1, "type": "PRES_VIS", "word": "lightning", "wordID": 819, "conditions": [18, 1200, "v", 18000], "trial": 0, "serialpos": 3, "trial_type": "single-stim", "trial_index": 24, "time_elapsed": 194826, "internal_node_id": "0.0-15.0"}}, {"uniqueid": "MTK0507:3JPSL1DZ5T632DB126YVWDSVHONNAN", "current_trial": 25, "dateTime": 1511192819405, "trialdata": {"rt": -1, "stimulus": "<p id=\"stim\">CHURCH</p>", "key_press": -1, "type": "PRES_VIS", "word": "church", "wordID": 306, "conditions": [18, 1200, "v", 18000], "trial": 0, "serialpos": 4, "trial_type": "single-stim", "trial_index": 25, "time_elapsed": 196864, "internal_node_id": "0.0-16.0"}}, {"uniqueid": "MTK0507:3JPSL1DZ5T632DB126YVWDSVHONNAN", "current_trial": 26, "dateTime": 1511192821573, "trialdata": {"rt": -1, "stimulus": "<p id=\"stim\">YACHT</p>", "key_press": -1, "type": "PRES_VIS", "word": "yacht", "wordID": 1628, "conditions": [18, 1200, "v", 18000], "trial": 0, "serialpos": 5, "trial_type": "single-stim", "trial_index": 26, "time_elapsed": 199032, "internal_node_id": "0.0-17.0"}}, {"uniqueid": "MTK0507:3JPSL1DZ5T632DB126YVWDSVHONNAN", "current_trial": 27, "dateTime": 1511192823745, "trialdata": {"rt": -1, "stimulus": "<p id=\"stim\">BUG</p>", "key_press": -1, "type": "PRES_VIS", "word": "bug", "wordID": 186, "conditions": [18, 1200, "v", 18000], "trial": 0, "serialpos": 6, "trial_type": "single-stim", "trial_index": 27, "time_elapsed": 201203, "internal_node_id": "0.0-18.0"}}, {"uniqueid": "MTK0507:3JPSL1DZ5T632DB126YVWDSVHONNAN", "current_trial": 28, "dateTime": 1511192825912, "trialdata": {"rt": -1, "stimulus": "<p id=\"stim\">PEACH</p>", "key_press": -1, "type": "PRES_VIS", "word": "peach", "wordID": 1030, "conditions": [18, 1200, "v", 18000], "trial": 0, "serialpos": 7, "trial_type": "single-stim", "trial_index": 28, "time_elapsed": 203370, "internal_node_id": "0.0-19.0"}}, {"uniqueid": "MTK0507:3JPSL1DZ5T632DB126YVWDSVHONNAN", "current_trial": 29, "dateTime": 1511192828254, "trialdata": {"rt": -1, "stimulus": "<p id=\"stim\">MESSAGE</p>", "key_press": -1, "type": "PRES_VIS", "word": "message", "wordID": 887, "conditions": [18, 1200, "v", 18000], "trial": 0, "serialpos": 8, "trial_type": "single-stim", "trial_index": 29, "time_elapsed": 205712, "internal_node_id": "0.0-20.0"}}, {"uniqueid": "MTK0507:3JPSL1DZ5T632DB126YVWDSVHONNAN", "current_trial": 30, "dateTime": 1511192830628, "trialdata": {"rt": -1, "stimulus": "<p id=\"stim\">PECAN</p>", "key_press": -1, "type": "PRES_VIS", "word": "pecan", "wordID": 1035, "conditions": [18, 1200, "v", 18000], "trial": 0, "serialpos": 9, "trial_type": "single-stim", "trial_index": 30, "time_elapsed": 208087, "internal_node_id": "0.0-21.0"}}, {"uniqueid": "MTK0507:3JPSL1DZ5T632DB126YVWDSVHONNAN", "current_trial": 31, "dateTime": 1511192832869, "trialdata": {"rt": -1, "stimulus": "<p id=\"stim\">COD</p>", "key_press": -1, "type": "PRES_VIS", "word": "cod", "wordID": 339, "conditions": [18, 1200, "v", 18000], "trial": 0, "serialpos": 10, "trial_type": "single-stim", "trial_index": 31, "time_elapsed": 210327, "internal_node_id": "0.0-22.0"}}, {"uniqueid": "MTK0507:3JPSL1DZ5T632DB126YVWDSVHONNAN", "current_trial": 32, "dateTime": 1511192835082, "trialdata": {"rt": -1, "stimulus": "<p id=\"stim\">WORKER</p>", "key_press": -1, "type": "PRES_VIS", "word": "worker", "wordID": 1620, "conditions": [18, 1200, "v", 18000], "trial": 0, "serialpos": 11, "trial_type": "single-stim", "trial_index": 32, "time_elapsed": 212541, "internal_node_id": "0.0-23.0"}}, {"uniqueid": "MTK0507:3JPSL1DZ5T632DB126YVWDSVHONNAN", "current_trial": 33, "dateTime": 1511192837451, "trialdata": {"rt": -1, "stimulus": "<p id=\"stim\">PLATE</p>", "key_press": -1, "type": "PRES_VIS", "word": "plate", "wordID": 1085, "conditions": [18, 1200, "v", 18000], "trial": 0, "serialpos": 12, "trial_type": "single-stim", "trial_index": 33, "time_elapsed": 214910, "internal_node_id": "0.0-24.0"}}, {"uniqueid": "MTK0507:3JPSL1DZ5T632DB126YVWDSVHONNAN", "current_trial": 34, "dateTime": 1511192839807, "trialdata": {"rt": -1, "stimulus": "<p id=\"stim\">BADGE</p>", "key_press": -1, "type": "PRES_VIS", "word": "badge", "wordID": 67, "conditions": [18, 1200, "v", 18000], "trial": 0, "serialpos": 13, "trial_type": "single-stim", "trial_index": 34, "time_elapsed": 217266, "internal_node_id": "0.0-25.0"}}, {"uniqueid": "MTK0507:3JPSL1DZ5T632DB126YVWDSVHONNAN", "current_trial": 35, "dateTime": 1511192841932, "trialdata": {"rt": -1, "stimulus": "<p id=\"stim\">SWAMP</p>", "key_press": -1, "type": "PRES_VIS", "word": "swamp", "wordID": 1415, "conditions": [18, 1200, "v", 18000], "trial": 0, "serialpos": 14, "trial_type": "single-stim", "trial_index": 35, "time_elapsed": 219390, "internal_node_id": "0.0-26.0"}}, {"uniqueid": "MTK0507:3JPSL1DZ5T632DB126YVWDSVHONNAN", "current_trial": 36, "dateTime": 1511192843956, "trialdata": {"rt": -1, "stimulus": "<p id=\"stim\">GRAPE</p>", "key_press": -1, "type": "PRES_VIS", "word": "grape", "wordID": 653, "conditions": [18, 1200, "v", 18000], "trial": 0, "serialpos": 15, "trial_type": "single-stim", "trial_index": 36, "time_elapsed": 221415, "internal_node_id": "0.0-27.0"}}, {"uniqueid": "MTK0507:3JPSL1DZ5T632DB126YVWDSVHONNAN", "current_trial": 37, "dateTime": 1511192846000, "trialdata": {"rt": -1, "stimulus": "<p id=\"stim\">COWBOY</p>", "key_press": -1, "type": "PRES_VIS", "word": "cowboy", "wordID": 394, "conditions": [18, 1200, "v", 18000], "trial": 0, "serialpos": 16, "trial_type": "single-stim", "trial_index": 37, "time_elapsed": 223459, "internal_node_id": "0.0-28.0"}}, {"uniqueid": "MTK0507:3JPSL1DZ5T632DB126YVWDSVHONNAN", "current_trial": 38, "dateTime": 1511192848347, "trialdata": {"rt": -1, "stimulus": "<p id=\"stim\">PUDDLE</p>", "key_press": -1, "type": "PRES_VIS", "word": "puddle", "wordID": 1139, "conditions": [18, 1200, "v", 18000], "trial": 0, "serialpos": 17, "trial_type": "single-stim", "trial_index": 38, "time_elapsed": 225806, "internal_node_id": "0.0-29.0"}}, {"uniqueid": "MTK0507:3JPSL1DZ5T632DB126YVWDSVHONNAN", "current_trial": 39, "dateTime": 1511192850624, "trialdata": {"rt": -1, "stimulus": "", "key_press": -1, "type": "PRE_RECALL_DELAY", "trial_type": "single-stim", "trial_index": 39, "time_elapsed": 228083, "internal_node_id": "0.0-30.0-0.0"}}, {"uniqueid": "MTK0507:3JPSL1DZ5T632DB126YVWDSVHONNAN", "current_trial": 40, "dateTime": 1511192851133, "trialdata": {"rt": -1000, "stimulus": "/static/audio/400Hz.wav", "key_press": -1, "type": "PRE_RECALL_ALERT", "trial_type": "single-audio", "trial_index": 40, "time_elapsed": 228592, "internal_node_id": "0.0-31.0"}}, {"uniqueid": "MTK0507:3JPSL1DZ5T632DB126YVWDSVHONNAN", "current_trial": 41, "dateTime": 1511192911146, "trialdata": {"rt": [4313, 6571, 8650, 10448, 12323, 21481, 34825, 48381], "recwords": ["puddle", "church", "lightning", "grape", "puddle", "yatch", "coffee", "mechanical"], "type": "FREE_RECALL", "conditions": [18, 1200, "v", 18000], "trial": 0, "trial_type": "free-recall", "trial_index": 41, "time_elapsed": 288600, "internal_node_id": "0.0-32.0-0.0"}}, {"uniqueid": "MTK0507:3JPSL1DZ5T632DB126YVWDSVHONNAN", "current_trial": 42, "dateTime": 1511192914781, "trialdata": {"rt": 1632, "key_press": 32, "type": "INSTRUCTIONS", "trial_type": "text", "trial_index": 42, "time_elapsed": 292240, "internal_node_id": "0.0-33.0"}}, {"uniqueid": "MTK0507:3JPSL1DZ5T632DB126YVWDSVHONNAN", "current_trial": 43, "dateTime": 1511192934791, "trialdata": {"rt": [2187, 5053, 6843, 8682, 10678, 13466, 15823], "responses": ["13", "15", "12", "11", "8", "18", "10"], "num1": [5, 4, 2, 5, 1, 1, 1, 3], "num2": [3, 2, 4, 3, 2, 8, 2, 3], "num3": [5, 9, 6, 3, 5, 9, 7, 8], "type": "DISTRACTOR", "conditions": [18, 1200, "a", 18000], "trial": 1, "trial_type": "math-distractor", "trial_index": 43, "time_elapsed": 312250, "internal_node_id": "0.0-34.0"}}, {"uniqueid": "MTK0507:3JPSL1DZ5T632DB126YVWDSVHONNAN", "current_trial": 44, "dateTime": 1511192937794, "trialdata": {"rt": -1, "stimulus": "<p id=\"stim\">10</p>", "key_press": -1, "trial_type": "single-stim", "trial_index": 44, "time_elapsed": 315253, "internal_node_id": "0.0-35.0-0.0"}}, {"uniqueid": "MTK0507:3JPSL1DZ5T632DB126YVWDSVHONNAN", "current_trial": 45, "dateTime": 1511192938799, "trialdata": {"rt": -1, "stimulus": "<p id=\"stim\">9</p>", "key_press": -1, "trial_type": "single-stim", "trial_index": 45, "time_elapsed": 316258, "internal_node_id": "0.0-35.0-1.0"}}, {"uniqueid": "MTK0507:3JPSL1DZ5T632DB126YVWDSVHONNAN", "current_trial": 46, "dateTime": 1511192939802, "trialdata": {"rt": -1, "stimulus": "<p id=\"stim\">8</p>", "key_press": -1, "trial_type": "single-stim", "trial_index": 46, "time_elapsed": 317261, "internal_node_id": "0.0-35.0-2.0"}}, {"uniqueid": "MTK0507:3JPSL1DZ5T632DB126YVWDSVHONNAN", "current_trial": 47, "dateTime": 1511192940807, "trialdata": {"rt": -1, "stimulus": "<p id=\"stim\">7</p>", "key_press": -1, "trial_type": "single-stim", "trial_index": 47, "time_elapsed": 318266, "internal_node_id": "0.0-35.0-3.0"}}, {"uniqueid": "MTK0507:3JPSL1DZ5T632DB126YVWDSVHONNAN", "current_trial": 48, "dateTime": 1511192941812, "trialdata": {"rt": -1, "stimulus": "<p id=\"stim\">6</p>", "key_press": -1, "trial_type": "single-stim", "trial_index": 48, "time_elapsed": 319271, "internal_node_id": "0.0-35.0-4.0"}}, {"uniqueid": "MTK0507:3JPSL1DZ5T632DB126YVWDSVHONNAN", "current_trial": 49, "dateTime": 1511192942814, "trialdata": {"rt": -1, "stimulus": "<p id=\"stim\">5</p>", "key_press": -1, "trial_type": "single-stim", "trial_index": 49, "time_elapsed": 320273, "internal_node_id": "0.0-35.0-5.0"}}, {"uniqueid": "MTK0507:3JPSL1DZ5T632DB126YVWDSVHONNAN", "current_trial": 50, "dateTime": 1511192943816, "trialdata": {"rt": -1, "stimulus": "<p id=\"stim\">4</p>", "key_press": -1, "trial_type": "single-stim", "trial_index": 50, "time_elapsed": 321275, "internal_node_id": "0.0-35.0-6.0"}}, {"uniqueid": "MTK0507:3JPSL1DZ5T632DB126YVWDSVHONNAN", "current_trial": 51, "dateTime": 1511192944819, "trialdata": {"rt": -1, "stimulus": "<p id=\"stim\">3</p>", "key_press": -1, "trial_type": "single-stim", "trial_index": 51, "time_elapsed": 322278, "internal_node_id": "0.0-35.0-7.0"}}, {"uniqueid": "MTK0507:3JPSL1DZ5T632DB126YVWDSVHONNAN", "current_trial": 52, "dateTime": 1511192945821, "trialdata": {"rt": -1, "stimulus": "<p id=\"stim\">2</p>", "key_press": -1, "trial_type": "single-stim", "trial_index": 52, "time_elapsed": 323280, "internal_node_id": "0.0-35.0-8.0"}}, {"uniqueid": "MTK0507:3JPSL1DZ5T632DB126YVWDSVHONNAN", "current_trial": 53, "dateTime": 1511192946824, "trialdata": {"rt": -1, "stimulus": "<p id=\"stim\">1</p>", "key_press": -1, "trial_type": "single-stim", "trial_index": 53, "time_elapsed": 324283, "internal_node_id": "0.0-35.0-9.0"}}, {"uniqueid": "MTK0507:3JPSL1DZ5T632DB126YVWDSVHONNAN", "current_trial": 54, "dateTime": 1511192948328, "trialdata": {"rt": -1, "stimulus": "<p id=\"stim\">+</p>", "key_press": -1, "type": "FIXATION", "trial_type": "single-stim", "trial_index": 54, "time_elapsed": 325786, "internal_node_id": "0.0-36.0-0.0"}}, {"uniqueid": "MTK0507:3JPSL1DZ5T632DB126YVWDSVHONNAN", "current_trial": 55, "dateTime": 1511192950556, "trialdata": {"rt": -1000, "stimulus": "/static/audio/wordpool/BUNNY.wav", "key_press": -1, "type": "PRES_AUD", "word": "bunny", "wordID": 197, "conditions": [18, 1200, "a", 18000], "trial": 1, "serialpos": 0, "trial_type": "single-audio", "trial_index": 55, "time_elapsed": 328014, "internal_node_id": "0.0-37.0"}}, {"uniqueid": "MTK0507:3JPSL1DZ5T632DB126YVWDSVHONNAN", "current_trial": 56, "dateTime": 1511192952808, "trialdata": {"rt": -1000, "stimulus": "/static/audio/wordpool/CABIN.wav", "key_press": -1, "type": "PRES_AUD", "word": "cabin", "wordID": 210, "conditions": [18, 1200, "a", 18000], "trial": 1, "serialpos": 1, "trial_type": "single-audio", "trial_index": 56, "time_elapsed": 330267, "internal_node_id": "0.0-38.0"}}, {"uniqueid": "MTK0507:3JPSL1DZ5T632DB126YVWDSVHONNAN", "current_trial": 57, "dateTime": 1511192954906, "trialdata": {"rt": -1000, "stimulus": "/static/audio/wordpool/BUREAU.wav", "key_press": -1, "type": "PRES_AUD", "word": "bureau", "wordID": 198, "conditions": [18, 1200, "a", 18000], "trial": 1, "serialpos": 2, "trial_type": "single-audio", "trial_index": 57, "time_elapsed": 332364, "internal_node_id": "0.0-39.0"}}, {"uniqueid": "MTK0507:3JPSL1DZ5T632DB126YVWDSVHONNAN", "current_trial": 58, "dateTime": 1511192957071, "trialdata": {"rt": -1000, "stimulus": "/static/audio/wordpool/VELVET.wav", "key_press": -1, "type": "PRES_AUD", "word": "velvet", "wordID": 1554, "conditions": [18, 1200, "a", 18000], "trial": 1, "serialpos": 3, "trial_type": "single-audio", "trial_index": 58, "time_elapsed": 334530, "internal_node_id": "0.0-40.0"}}, {"uniqueid": "MTK0507:3JPSL1DZ5T632DB126YVWDSVHONNAN", "current_trial": 59, "dateTime": 1511192959423, "trialdata": {"rt": -1000, "stimulus": "/static/audio/wordpool/LAGOON.wav", "key_press": -1, "type": "PRES_AUD", "word": "lagoon", "wordID": 794, "conditions": [18, 1200, "a", 18000], "trial": 1, "serialpos": 4, "trial_type": "single-audio", "trial_index": 59, "time_elapsed": 336881, "internal_node_id": "0.0-41.0"}}, {"uniqueid": "MTK0507:3JPSL1DZ5T632DB126YVWDSVHONNAN", "current_trial": 60, "dateTime": 1511192961714, "trialdata": {"rt": -1000, "stimulus": "/static/audio/wordpool/MAPLE.wav", "key_press": -1, "type": "PRES_AUD", "word": "maple", "wordID": 865, "conditions": [18, 1200, "a", 18000], "trial": 1, "serialpos": 5, "trial_type": "single-audio", "trial_index": 60, "time_elapsed": 339173, "internal_node_id": "0.0-42.0"}}, {"uniqueid": "MTK0507:3JPSL1DZ5T632DB126YVWDSVHONNAN", "current_trial": 61, "dateTime": 1511192963987, "trialdata": {"rt": -1000, "stimulus": "/static/audio/wordpool/CLOCK.wav", "key_press": -1, "type": "PRES_AUD", "word": "clock", "wordID": 324, "conditions": [18, 1200, "a", 18000], "trial": 1, "serialpos": 6, "trial_type": "single-audio", "trial_index": 61, "time_elapsed": 341446, "internal_node_id": "0.0-43.0"}}, {"uniqueid": "MTK0507:3JPSL1DZ5T632DB126YVWDSVHONNAN", "current_trial": 62, "dateTime": 1511192966153, "trialdata": {"rt": -1000, "stimulus": "/static/audio/wordpool/VALVE.wav", "key_press": -1, "type": "PRES_AUD", "word": "valve", "wordID": 1545, "conditions": [18, 1200, "a", 18000], "trial": 1, "serialpos": 7, "trial_type": "single-audio", "trial_index": 62, "time_elapsed": 343611, "internal_node_id": "0.0-44.0"}}, {"uniqueid": "MTK0507:3JPSL1DZ5T632DB126YVWDSVHONNAN", "current_trial": 63, "dateTime": 1511192968364, "trialdata": {"rt": -1000, "stimulus": "/static/audio/wordpool/UNCLE.wav", "key_press": -1, "type": "PRES_AUD", "word": "uncle", "wordID": 1535, "conditions": [18, 1200, "a", 18000], "trial": 1, "serialpos": 8, "trial_type": "single-audio", "trial_index": 63, "time_elapsed": 345823, "internal_node_id": "0.0-45.0"}}, {"uniqueid": "MTK0507:3JPSL1DZ5T632DB126YVWDSVHONNAN", "current_trial": 64, "dateTime": 1511192970559, "trialdata": {"rt": -1000, "stimulus": "/static/audio/wordpool/SPACE.wav", "key_press": -1, "type": "PRES_AUD", "word": "space", "wordID": 1344, "conditions": [18, 1200, "a", 18000], "trial": 1, "serialpos": 9, "trial_type": "single-audio", "trial_index": 64, "time_elapsed": 348018, "internal_node_id": "0.0-46.0"}}, {"uniqueid": "MTK0507:3JPSL1DZ5T632DB126YVWDSVHONNAN", "current_trial": 65, "dateTime": 1511192972765, "trialdata": {"rt": -1000, "stimulus": "/static/audio/wordpool/BIKE.wav", "key_press": -1, "type": "PRES_AUD", "word": "bike", "wordID": 124, "conditions": [18, 1200, "a", 18000], "trial": 1, "serialpos": 10, "trial_type": "single-audio", "trial_index": 65, "time_elapsed": 350224, "internal_node_id": "0.0-47.0"}}, {"uniqueid": "MTK0507:3JPSL1DZ5T632DB126YVWDSVHONNAN", "current_trial": 66, "dateTime": 1511192975097, "trialdata": {"rt": -1000, "stimulus": "/static/audio/wordpool/SHRUB.wav", "key_press": -1, "type": "PRES_AUD", "word": "shrub", "wordID": 1298, "conditions": [18, 1200, "a", 18000], "trial": 1, "serialpos": 11, "trial_type": "single-audio", "trial_index": 66, "time_elapsed": 352555, "internal_node_id": "0.0-48.0"}}, {"uniqueid": "MTK0507:3JPSL1DZ5T632DB126YVWDSVHONNAN", "current_trial": 67, "dateTime": 1511192977100, "trialdata": {"rt": -1000, "stimulus": "/static/audio/wordpool/BEAST.wav", "key_press": -1, "type": "PRES_AUD", "word": "beast", "wordID": 107, "conditions": [18, 1200, "a", 18000], "trial": 1, "serialpos": 12, "trial_type": "single-audio", "trial_index": 67, "time_elapsed": 354559, "internal_node_id": "0.0-49.0"}}, {"uniqueid": "MTK0507:3JPSL1DZ5T632DB126YVWDSVHONNAN", "current_trial": 68, "dateTime": 1511192979269, "trialdata": {"rt": -1000, "stimulus": "/static/audio/wordpool/BREAST.wav", "key_press": -1, "type": "PRES_AUD", "word": "breast", "wordID": 170, "conditions": [18, 1200, "a", 18000], "trial": 1, "serialpos": 13, "trial_type": "single-audio", "trial_index": 68, "time_elapsed": 356723, "internal_node_id": "0.0-50.0"}}, {"uniqueid": "MTK0507:3JPSL1DZ5T632DB126YVWDSVHONNAN", "current_trial": 69, "dateTime": 1511192981519, "trialdata": {"rt": -1000, "stimulus": "/static/audio/wordpool/FLASHLIGHT.wav", "key_press": -1, "type": "PRES_AUD", "word": "flashlight", "wordID": 574, "conditions": [18, 1200, "a", 18000], "trial": 1, "serialpos": 14, "trial_type": "single-audio", "trial_index": 69, "time_elapsed": 358977, "internal_node_id": "0.0-51.0"}}, {"uniqueid": "MTK0507:3JPSL1DZ5T632DB126YVWDSVHONNAN", "current_trial": 70, "dateTime": 1511192983688, "trialdata": {"rt": -1000, "stimulus": "/static/audio/wordpool/SPOOL.wav", "key_press": -1, "type": "PRES_AUD", "word": "spool", "wordID": 1355, "conditions": [18, 1200, "a", 18000], "trial": 1, "serialpos": 15, "trial_type": "single-audio", "trial_index": 70, "time_elapsed": 361147, "internal_node_id": "0.0-52.0"}}, {"uniqueid": "MTK0507:3JPSL1DZ5T632DB126YVWDSVHONNAN", "current_trial": 71, "dateTime": 1511192985833, "trialdata": {"rt": -1000, "stimulus": "/static/audio/wordpool/GLOVE.wav", "key_press": -1, "type": "PRES_AUD", "word": "glove", "wordID": 641, "conditions": [18, 1200, "a", 18000], "trial": 1, "serialpos": 16, "trial_type": "single-audio", "trial_index": 71, "time_elapsed": 363291, "internal_node_id": "0.0-53.0"}}, {"uniqueid": "MTK0507:3JPSL1DZ5T632DB126YVWDSVHONNAN", "current_trial": 72, "dateTime": 1511192988214, "trialdata": {"rt": -1000, "stimulus": "/static/audio/wordpool/DONOR.wav", "key_press": -1, "type": "PRES_AUD", "word": "donor", "wordID": 484, "conditions": [18, 1200, "a", 18000], "trial": 1, "serialpos": 17, "trial_type": "single-audio", "trial_index": 72, "time_elapsed": 365672, "internal_node_id": "0.0-54.0"}}, {"uniqueid": "MTK0507:3JPSL1DZ5T632DB126YVWDSVHONNAN", "current_trial": 73, "dateTime": 1511192989415, "trialdata": {"rt": -1, "stimulus": "", "key_press": -1, "type": "PRE_RECALL_DELAY", "trial_type": "single-stim", "trial_index": 73, "time_elapsed": 366874, "internal_node_id": "0.0-55.0-0.0"}}, {"uniqueid": "MTK0507:3JPSL1DZ5T632DB126YVWDSVHONNAN", "current_trial": 74, "dateTime": 1511192989917, "trialdata": {"rt": -1000, "stimulus": "/static/audio/400Hz.wav", "key_press": -1, "type": "PRE_RECALL_ALERT", "trial_type": "single-audio", "trial_index": 74, "time_elapsed": 367376, "internal_node_id": "0.0-56.0"}}, {"uniqueid": "MTK0507:3JPSL1DZ5T632DB126YVWDSVHONNAN", "current_trial": 75, "dateTime": 1511193049930, "trialdata": {"rt": [2571, 5321, 6721, 8748, 11908], "recwords": ["donor", "beast", "breast", "lagoon", "spool"], "type": "FREE_RECALL", "conditions": [18, 1200, "a", 18000], "trial": 1, "trial_type": "free-recall", "trial_index": 75, "time_elapsed": 427382, "internal_node_id": "0.0-57.0-0.0"}}, {"uniqueid": "MTK0507:3JPSL1DZ5T632DB126YVWDSVHONNAN", "current_trial": 76, "dateTime": 1511193055459, "trialdata": {"rt": 3513, "key_press": 32, "type": "INSTRUCTIONS", "trial_type": "text", "trial_index": 76, "time_elapsed": 432904, "internal_node_id": "0.0-58.0"}}, {"uniqueid": "MTK0507:3JPSL1DZ5T632DB126YVWDSVHONNAN", "current_trial": 77, "dateTime": 1511193080469, "trialdata": {"rt": [3316, 6061, 8611, 10410, 12419, 18655, 20904, 22956], "responses": ["15", "19", "15", "10", "14", "23", "15", "14"], "num1": [8, 8, 4, 2, 4, 6, 3, 1, 2], "num2": [2, 3, 9, 3, 1, 9, 9, 4, 3], "num3": [5, 8, 3, 5, 9, 8, 3, 9, 9], "type": "DISTRACTOR", "conditions": [24, 800, "a", 24000], "trial": 2, "trial_type": "math-distractor", "trial_index": 77, "time_elapsed": 457928, "internal_node_id": "0.0-59.0"}}, {"uniqueid": "MTK0507:3JPSL1DZ5T632DB126YVWDSVHONNAN", "current_trial": 78, "dateTime": 1511193083473, "trialdata": {"rt": -1, "stimulus": "<p id=\"stim\">10</p>", "key_press": -1, "trial_type": "single-stim", "trial_index": 78, "time_elapsed": 460931, "internal_node_id": "0.0-60.0-0.0"}}, {"uniqueid": "MTK0507:3JPSL1DZ5T632DB126YVWDSVHONNAN", "current_trial": 79, "dateTime": 1511193084477, "trialdata": {"rt": -1, "stimulus": "<p id=\"stim\">9</p>", "key_press": -1, "trial_type": "single-stim", "trial_index": 79, "time_elapsed": 461935, "internal_node_id": "0.0-60.0-1.0"}}, {"uniqueid": "MTK0507:3JPSL1DZ5T632DB126YVWDSVHONNAN", "current_trial": 80, "dateTime": 1511193085480, "trialdata": {"rt": -1, "stimulus": "<p id=\"stim\">8</p>", "key_press": -1, "trial_type": "single-stim", "trial_index": 80, "time_elapsed": 462939, "internal_node_id": "0.0-60.0-2.0"}}, {"uniqueid": "MTK0507:3JPSL1DZ5T632DB126YVWDSVHONNAN", "current_trial": 81, "dateTime": 1511193086487, "trialdata": {"rt": -1, "stimulus": "<p id=\"stim\">7</p>", "key_press": -1, "trial_type": "single-stim", "trial_index": 81, "time_elapsed": 463946, "internal_node_id": "0.0-60.0-3.0"}}, {"uniqueid": "MTK0507:3JPSL1DZ5T632DB126YVWDSVHONNAN", "current_trial": 82, "dateTime": 1511193087490, "trialdata": {"rt": -1, "stimulus": "<p id=\"stim\">6</p>", "key_press": -1, "trial_type": "single-stim", "trial_index": 82, "time_elapsed": 464949, "internal_node_id": "0.0-60.0-4.0"}}, {"uniqueid": "MTK0507:3JPSL1DZ5T632DB126YVWDSVHONNAN", "current_trial": 83, "dateTime": 1511193088494, "trialdata": {"rt": -1, "stimulus": "<p id=\"stim\">5</p>", "key_press": -1, "trial_type": "single-stim", "trial_index": 83, "time_elapsed": 465952, "internal_node_id": "0.0-60.0-5.0"}}, {"uniqueid": "MTK0507:3JPSL1DZ5T632DB126YVWDSVHONNAN", "current_trial": 84, "dateTime": 1511193089497, "trialdata": {"rt": -1, "stimulus": "<p id=\"stim\">4</p>", "key_press": -1, "trial_type": "single-stim", "trial_index": 84, "time_elapsed": 466955, "internal_node_id": "0.0-60.0-6.0"}}, {"uniqueid": "MTK0507:3JPSL1DZ5T632DB126YVWDSVHONNAN", "current_trial": 85, "dateTime": 1511193090500, "trialdata": {"rt": -1, "stimulus": "<p id=\"stim\">3</p>", "key_press": -1, "trial_type": "single-stim", "trial_index": 85, "time_elapsed": 467959, "internal_node_id": "0.0-60.0-7.0"}}, {"uniqueid": "MTK0507:3JPSL1DZ5T632DB126YVWDSVHONNAN", "current_trial": 86, "dateTime": 1511193091505, "trialdata": {"rt": -1, "stimulus": "<p id=\"stim\">2</p>", "key_press": -1, "trial_type": "single-stim", "trial_index": 86, "time_elapsed": 468964, "internal_node_id": "0.0-60.0-8.0"}}, {"uniqueid": "MTK0507:3JPSL1DZ5T632DB126YVWDSVHONNAN", "current_trial": 87, "dateTime": 1511193092509, "trialdata": {"rt": -1, "stimulus": "<p id=\"stim\">1</p>", "key_press": -1, "trial_type": "single-stim", "trial_index": 87, "time_elapsed": 469967, "internal_node_id": "0.0-60.0-9.0"}}, {"uniqueid": "MTK0507:3JPSL1DZ5T632DB126YVWDSVHONNAN", "current_trial": 88, "dateTime": 1511193094012, "trialdata": {"rt": -1, "stimulus": "<p id=\"stim\">+</p>", "key_press": -1, "type": "FIXATION", "trial_type": "single-stim", "trial_index": 88, "time_elapsed": 471470, "internal_node_id": "0.0-61.0-0.0"}}, {"uniqueid": "MTK0507:3JPSL1DZ5T632DB126YVWDSVHONNAN", "current_trial": 89, "dateTime": 1511193095960, "trialdata": {"rt": -1000, "stimulus": "/static/audio/wordpool/SISTER.wav", "key_press": -1, "type": "PRES_AUD", "word": "sister", "wordID": 1311, "conditions": [24, 800, "a", 24000], "trial": 2, "serialpos": 0, "trial_type": "single-audio", "trial_index": 89, "time_elapsed": 473418, "internal_node_id": "0.0-62.0"}}, {"uniqueid": "MTK0507:3JPSL1DZ5T632DB126YVWDSVHONNAN", "current_trial": 90, "dateTime": 1511193097634, "trialdata": {"rt": -1000, "stimulus": "/static/audio/wordpool/BROTHER.wav", "key_press": -1, "type": "PRES_AUD", "word": "brother", "wordID": 178, "conditions": [24, 800, "a", 24000], "trial": 2, "serialpos": 1, "trial_type": "single-audio", "trial_index": 90, "time_elapsed": 475093, "internal_node_id": "0.0-63.0"}}, {"uniqueid": "MTK0507:3JPSL1DZ5T632DB126YVWDSVHONNAN", "current_trial": 91, "dateTime": 1511193099379, "trialdata": {"rt": -1000, "stimulus": "/static/audio/wordpool/HARP.wav", "key_press": -1, "type": "PRES_AUD", "word": "harp", "wordID": 688, "conditions": [24, 800, "a", 24000], "trial": 2, "serialpos": 2, "trial_type": "single-audio", "trial_index": 91, "time_elapsed": 476838, "internal_node_id": "0.0-64.0"}}, {"uniqueid": "MTK0507:3JPSL1DZ5T632DB126YVWDSVHONNAN", "current_trial": 92, "dateTime": 1511193101222, "trialdata": {"rt": -1000, "stimulus": "/static/audio/wordpool/SNACK.wav", "key_press": -1, "type": "PRES_AUD", "word": "snack", "wordID": 1330, "conditions": [24, 800, "a", 24000], "trial": 2, "serialpos": 3, "trial_type": "single-audio", "trial_index": 92, "time_elapsed": 478681, "internal_node_id": "0.0-65.0"}}, {"uniqueid": "MTK0507:3JPSL1DZ5T632DB126YVWDSVHONNAN", "current_trial": 93, "dateTime": 1511193102941, "trialdata": {"rt": -1000, "stimulus": "/static/audio/wordpool/CIGAR.wav", "key_press": -1, "type": "PRES_AUD", "word": "cigar", "wordID": 307, "conditions": [24, 800, "a", 24000], "trial": 2, "serialpos": 4, "trial_type": "single-audio", "trial_index": 93, "time_elapsed": 480400, "internal_node_id": "0.0-66.0"}}, {"uniqueid": "MTK0507:3JPSL1DZ5T632DB126YVWDSVHONNAN", "current_trial": 94, "dateTime": 1511193104936, "trialdata": {"rt": -1000, "stimulus": "/static/audio/wordpool/PENGUIN.wav", "key_press": -1, "type": "PRES_AUD", "word": "penguin", "wordID": 1043, "conditions": [24, 800, "a", 24000], "trial": 2, "serialpos": 5, "trial_type": "single-audio", "trial_index": 94, "time_elapsed": 482395, "internal_node_id": "0.0-67.0"}}, {"uniqueid": "MTK0507:3JPSL1DZ5T632DB126YVWDSVHONNAN", "current_trial": 95, "dateTime": 1511193106748, "trialdata": {"rt": -1000, "stimulus": "/static/audio/wordpool/PARSLEY.wav", "key_press": -1, "type": "PRES_AUD", "word": "parsley", "wordID": 1015, "conditions": [24, 800, "a", 24000], "trial": 2, "serialpos": 6, "trial_type": "single-audio", "trial_index": 95, "time_elapsed": 484207, "internal_node_id": "0.0-68.0"}}, {"uniqueid": "MTK0507:3JPSL1DZ5T632DB126YVWDSVHONNAN", "current_trial": 96, "dateTime": 1511193108681, "trialdata": {"rt": -1000, "stimulus": "/static/audio/wordpool/AIRPLANE.wav", "key_press": -1, "type": "PRES_AUD", "word": "airplane", "wordID": 11, "conditions": [24, 800, "a", 24000], "trial": 2, "serialpos": 7, "trial_type": "single-audio", "trial_index": 96, "time_elapsed": 486139, "internal_node_id": "0.0-69.0"}}, {"uniqueid": "MTK0507:3JPSL1DZ5T632DB126YVWDSVHONNAN", "current_trial": 97, "dateTime": 1511193110326, "trialdata": {"rt": -1000, "stimulus": "/static/audio/wordpool/TUTU.wav", "key_press": -1, "type": "PRES_AUD", "word": "tutu", "wordID": 1523, "conditions": [24, 800, "a", 24000], "trial": 2, "serialpos": 8, "trial_type": "single-audio", "trial_index": 97, "time_elapsed": 487785, "internal_node_id": "0.0-70.0"}}, {"uniqueid": "MTK0507:3JPSL1DZ5T632DB126YVWDSVHONNAN", "current_trial": 98, "dateTime": 1511193112103, "trialdata": {"rt": -1000, "stimulus": "/static/audio/wordpool/BANJO.wav", "key_press": -1, "type": "PRES_AUD", "word": "banjo", "wordID": 81, "conditions": [24, 800, "a", 24000], "trial": 2, "serialpos": 9, "trial_type": "single-audio", "trial_index": 98, "time_elapsed": 489562, "internal_node_id": "0.0-71.0"}}, {"uniqueid": "MTK0507:3JPSL1DZ5T632DB126YVWDSVHONNAN", "current_trial": 99, "dateTime": 1511193114033, "trialdata": {"rt": -1000, "stimulus": "/static/audio/wordpool/VIRUS.wav", "key_press": -1, "type": "PRES_AUD", "word": "virus", "wordID": 1571, "conditions": [24, 800, "a", 24000], "trial": 2, "serialpos": 10, "trial_type": "single-audio", "trial_index": 99, "time_elapsed": 491492, "internal_node_id": "0.0-72.0"}}, {"uniqueid": "MTK0507:3JPSL1DZ5T632DB126YVWDSVHONNAN", "current_trial": 100, "dateTime": 1511193115645, "trialdata": {"rt": -1000, "stimulus": "/static/audio/wordpool/LADY.wav", "key_press": -1, "type": "PRES_AUD", "word": "lady", "wordID": 793, "conditions": [24, 800, "a", 24000], "trial": 2, "serialpos": 11, "trial_type": "single-audio", "trial_index": 100, "time_elapsed": 493104, "internal_node_id": "0.0-73.0"}}, {"uniqueid": "MTK0507:3JPSL1DZ5T632DB126YVWDSVHONNAN", "current_trial": 101, "dateTime": 1511193117369, "trialdata": {"rt": -1000, "stimulus": "/static/audio/wordpool/SKIRT.wav", "key_press": -1, "type": "PRES_AUD", "word": "skirt", "wordID": 1318, "conditions": [24, 800, "a", 24000], "trial": 2, "serialpos": 12, "trial_type": "single-audio", "trial_index": 101, "time_elapsed": 494828, "internal_node_id": "0.0-74.0"}}, {"uniqueid": "MTK0507:3JPSL1DZ5T632DB126YVWDSVHONNAN", "current_trial": 102, "dateTime": 1511193119116, "trialdata": {"rt": -1000, "stimulus": "/static/audio/wordpool/COLLEGE.wav", "key_press": -1, "type": "PRES_AUD", "word": "college", "wordID": 345, "conditions": [24, 800, "a", 24000], "trial": 2, "serialpos": 13, "trial_type": "single-audio", "trial_index": 102, "time_elapsed": 496575, "internal_node_id": "0.0-75.0"}}, {"uniqueid": "MTK0507:3JPSL1DZ5T632DB126YVWDSVHONNAN", "current_trial": 103, "dateTime": 1511193121087, "trialdata": {"rt": -1000, "stimulus": "/static/audio/wordpool/GARLIC.wav", "key_press": -1, "type": "PRES_AUD", "word": "garlic", "wordID": 623, "conditions": [24, 800, "a", 24000], "trial": 2, "serialpos": 14, "trial_type": "single-audio", "trial_index": 103, "time_elapsed": 498546, "internal_node_id": "0.0-76.0"}}, {"uniqueid": "MTK0507:3JPSL1DZ5T632DB126YVWDSVHONNAN", "current_trial": 104, "dateTime": 1511193122709, "trialdata": {"rt": -1000, "stimulus": "/static/audio/wordpool/CABBAGE.wav", "key_press": -1, "type": "PRES_AUD", "word": "cabbage", "wordID": 209, "conditions": [24, 800, "a", 24000], "trial": 2, "serialpos": 15, "trial_type": "single-audio", "trial_index": 104, "time_elapsed": 500168, "internal_node_id": "0.0-77.0"}}, {"uniqueid": "MTK0507:3JPSL1DZ5T632DB126YVWDSVHONNAN", "current_trial": 105, "dateTime": 1511193124672, "trialdata": {"rt": -1000, "stimulus": "/static/audio/wordpool/WIDOW.wav", "key_press": -1, "type": "PRES_AUD", "word": "widow", "wordID": 1607, "conditions": [24, 800, "a", 24000], "trial": 2, "serialpos": 16, "trial_type": "single-audio", "trial_index": 105, "time_elapsed": 502131, "internal_node_id": "0.0-78.0"}}, {"uniqueid": "MTK0507:3JPSL1DZ5T632DB126YVWDSVHONNAN", "current_trial": 106, "dateTime": 1511193126396, "trialdata": {"rt": -1000, "stimulus": "/static/audio/wordpool/BRANDY.wav", "key_press": -1, "type": "PRES_AUD", "word": "brandy", "wordID": 168, "conditions": [24, 800, "a", 24000], "trial": 2, "serialpos": 17, "trial_type": "single-audio", "trial_index": 106, "time_elapsed": 503855, "internal_node_id": "0.0-79.0"}}, {"uniqueid": "MTK0507:3JPSL1DZ5T632DB126YVWDSVHONNAN", "current_trial": 107, "dateTime": 1511193128008, "trialdata": {"rt": -1000, "stimulus": "/static/audio/wordpool/DRILL.wav", "key_press": -1, "type": "PRES_AUD", "word": "drill", "wordID": 496, "conditions": [24, 800, "a", 24000], "trial": 2, "serialpos": 18, "trial_type": "single-audio", "trial_index": 107, "time_elapsed": 505463, "internal_node_id": "0.0-80.0"}}, {"uniqueid": "MTK0507:3JPSL1DZ5T632DB126YVWDSVHONNAN", "current_trial": 108, "dateTime": 1511193129694, "trialdata": {"rt": -1000, "stimulus": "/static/audio/wordpool/STUDENT.wav", "key_press": -1, "type": "PRES_AUD", "word": "student", "wordID": 1394, "conditions": [24, 800, "a", 24000], "trial": 2, "serialpos": 19, "trial_type": "single-audio", "trial_index": 108, "time_elapsed": 507153, "internal_node_id": "0.0-81.0"}}, {"uniqueid": "MTK0507:3JPSL1DZ5T632DB126YVWDSVHONNAN", "current_trial": 109, "dateTime": 1511193131356, "trialdata": {"rt": -1000, "stimulus": "/static/audio/wordpool/BLOUSE.wav", "key_press": -1, "type": "PRES_AUD", "word": "blouse", "wordID": 138, "conditions": [24, 800, "a", 24000], "trial": 2, "serialpos": 20, "trial_type": "single-audio", "trial_index": 109, "time_elapsed": 508815, "internal_node_id": "0.0-82.0"}}, {"uniqueid": "MTK0507:3JPSL1DZ5T632DB126YVWDSVHONNAN", "current_trial": 110, "dateTime": 1511193132995, "trialdata": {"rt": -1000, "stimulus": "/static/audio/wordpool/GARBAGE.wav", "key_press": -1, "type": "PRES_AUD", "word": "garbage", "wordID": 621, "conditions": [24, 800, "a", 24000], "trial": 2, "serialpos": 21, "trial_type": "single-audio", "trial_index": 110, "time_elapsed": 510453, "internal_node_id": "0.0-83.0"}}, {"uniqueid": "MTK0507:3JPSL1DZ5T632DB126YVWDSVHONNAN", "current_trial": 111, "dateTime": 1511193134705, "trialdata": {"rt": -1000, "stimulus": "/static/audio/wordpool/POSTAGE.wav", "key_press": -1, "type": "PRES_AUD", "word": "postage", "wordID": 1112, "conditions": [24, 800, "a", 24000], "trial": 2, "serialpos": 22, "trial_type": "single-audio", "trial_index": 111, "time_elapsed": 512164, "internal_node_id": "0.0-84.0"}}, {"uniqueid": "MTK0507:3JPSL1DZ5T632DB126YVWDSVHONNAN", "current_trial": 112, "dateTime": 1511193136466, "trialdata": {"rt": -1000, "stimulus": "/static/audio/wordpool/BASEMENT.wav", "key_press": -1, "type": "PRES_AUD", "word": "basement", "wordID": 93, "conditions": [24, 800, "a", 24000], "trial": 2, "serialpos": 23, "trial_type": "single-audio", "trial_index": 112, "time_elapsed": 513924, "internal_node_id": "0.0-85.0"}}, {"uniqueid": "MTK0507:3JPSL1DZ5T632DB126YVWDSVHONNAN", "current_trial": 113, "dateTime": 1511193137790, "trialdata": {"rt": -1, "stimulus": "", "key_press": -1, "type": "PRE_RECALL_DELAY", "trial_type": "single-stim", "trial_index": 113, "time_elapsed": 515249, "internal_node_id": "0.0-86.0-0.0"}}, {"uniqueid": "MTK0507:3JPSL1DZ5T632DB126YVWDSVHONNAN", "current_trial": 114, "dateTime": 1511193138292, "trialdata": {"rt": -1000, "stimulus": "/static/audio/400Hz.wav", "key_press": -1, "type": "PRE_RECALL_ALERT", "trial_type": "single-audio", "trial_index": 114, "time_elapsed": 515751, "internal_node_id": "0.0-87.0"}}, {"uniqueid": "MTK0507:3JPSL1DZ5T632DB126YVWDSVHONNAN", "current_trial": 115, "dateTime": 1511193198304, "trialdata": {"rt": [2482, 4107, 5800, 6692, 12531], "recwords": ["basement", "postage", "cabbage", "lady", "college"], "type": "FREE_RECALL", "conditions": [24, 800, "a", 24000], "trial": 2, "trial_type": "free-recall", "trial_index": 115, "time_elapsed": 575757, "internal_node_id": "0.0-88.0-0.0"}}, {"uniqueid": "MTK0507:3JPSL1DZ5T632DB126YVWDSVHONNAN", "current_trial": 116, "dateTime": 1511193206197, "trialdata": {"rt": 5891, "key_press": 13, "type": "INSTRUCTIONS", "trial_type": "text", "trial_index": 116, "time_elapsed": 583656, "internal_node_id": "0.0-89.0"}}, {"uniqueid": "MTK0507:3JPSL1DZ5T632DB126YVWDSVHONNAN", "current_trial": 117, "dateTime": 1511193220208, "trialdata": {"rt": [3910, 6399, 8960], "responses": ["18", "18", "18"], "num1": [7, 7, 9, 3], "num2": [6, 4, 3, 8], "num3": [5, 7, 5, 9], "type": "DISTRACTOR", "conditions": [24, 800, "a", 12000], "trial": 3, "trial_type": "math-distractor", "trial_index": 117, "time_elapsed": 597667, "internal_node_id": "0.0-90.0"}}, {"uniqueid": "MTK0507:3JPSL1DZ5T632DB126YVWDSVHONNAN", "current_trial": 118, "dateTime": 1511193223212, "trialdata": {"rt": -1, "stimulus": "<p id=\"stim\">10</p>", "key_press": -1, "trial_type": "single-stim", "trial_index": 118, "time_elapsed": 600671, "internal_node_id": "0.0-91.0-0.0"}}, {"uniqueid": "MTK0507:3JPSL1DZ5T632DB126YVWDSVHONNAN", "current_trial": 119, "dateTime": 1511193224215, "trialdata": {"rt": -1, "stimulus": "<p id=\"stim\">9</p>", "key_press": -1, "trial_type": "single-stim", "trial_index": 119, "time_elapsed": 601674, "internal_node_id": "0.0-91.0-1.0"}}, {"uniqueid": "MTK0507:3JPSL1DZ5T632DB126YVWDSVHONNAN", "current_trial": 120, "dateTime": 1511193225217, "trialdata": {"rt": -1, "stimulus": "<p id=\"stim\">8</p>", "key_press": -1, "trial_type": "single-stim", "trial_index": 120, "time_elapsed": 602676, "internal_node_id": "0.0-91.0-2.0"}}, {"uniqueid": "MTK0507:3JPSL1DZ5T632DB126YVWDSVHONNAN", "current_trial": 121, "dateTime": 1511193226220, "trialdata": {"rt": -1, "stimulus": "<p id=\"stim\">7</p>", "key_press": -1, "trial_type": "single-stim", "trial_index": 121, "time_elapsed": 603679, "internal_node_id": "0.0-91.0-3.0"}}, {"uniqueid": "MTK0507:3JPSL1DZ5T632DB126YVWDSVHONNAN", "current_trial": 122, "dateTime": 1511193227225, "trialdata": {"rt": -1, "stimulus": "<p id=\"stim\">6</p>", "key_press": -1, "trial_type": "single-stim", "trial_index": 122, "time_elapsed": 604683, "internal_node_id": "0.0-91.0-4.0"}}, {"uniqueid": "MTK0507:3JPSL1DZ5T632DB126YVWDSVHONNAN", "current_trial": 123, "dateTime": 1511193228227, "trialdata": {"rt": -1, "stimulus": "<p id=\"stim\">5</p>", "key_press": -1, "trial_type": "single-stim", "trial_index": 123, "time_elapsed": 605686, "internal_node_id": "0.0-91.0-5.0"}}, {"uniqueid": "MTK0507:3JPSL1DZ5T632DB126YVWDSVHONNAN", "current_trial": 124, "dateTime": 1511193229229, "trialdata": {"rt": -1, "stimulus": "<p id=\"stim\">4</p>", "key_press": -1, "trial_type": "single-stim", "trial_index": 124, "time_elapsed": 606687, "internal_node_id": "0.0-91.0-6.0"}}, {"uniqueid": "MTK0507:3JPSL1DZ5T632DB126YVWDSVHONNAN", "current_trial": 125, "dateTime": 1511193230231, "trialdata": {"rt": -1, "stimulus": "<p id=\"stim\">3</p>", "key_press": -1, "trial_type": "single-stim", "trial_index": 125, "time_elapsed": 607690, "internal_node_id": "0.0-91.0-7.0"}}, {"uniqueid": "MTK0507:3JPSL1DZ5T632DB126YVWDSVHONNAN", "current_trial": 126, "dateTime": 1511193231234, "trialdata": {"rt": -1, "stimulus": "<p id=\"stim\">2</p>", "key_press": -1, "trial_type": "single-stim", "trial_index": 126, "time_elapsed": 608693, "internal_node_id": "0.0-91.0-8.0"}}, {"uniqueid": "MTK0507:3JPSL1DZ5T632DB126YVWDSVHONNAN", "current_trial": 127, "dateTime": 1511193232236, "trialdata": {"rt": -1, "stimulus": "<p id=\"stim\">1</p>", "key_press": -1, "trial_type": "single-stim", "trial_index": 127, "time_elapsed": 609695, "internal_node_id": "0.0-91.0-9.0"}}, {"uniqueid": "MTK0507:3JPSL1DZ5T632DB126YVWDSVHONNAN", "current_trial": 128, "dateTime": 1511193233740, "trialdata": {"rt": -1, "stimulus": "<p id=\"stim\">+</p>", "key_press": -1, "type": "FIXATION", "trial_type": "single-stim", "trial_index": 128, "time_elapsed": 611199, "internal_node_id": "0.0-92.0-0.0"}}, {"uniqueid": "MTK0507:3JPSL1DZ5T632DB126YVWDSVHONNAN", "current_trial": 129, "dateTime": 1511193235449, "trialdata": {"rt": -1000, "stimulus": "/static/audio/wordpool/SALAD.wav", "key_press": -1, "type": "PRES_AUD", "word": "salad", "wordID": 1223, "conditions": [24, 800, "a", 12000], "trial": 3, "serialpos": 0, "trial_type": "single-audio", "trial_index": 129, "time_elapsed": 612908, "internal_node_id": "0.0-93.0"}}, {"uniqueid": "MTK0507:3JPSL1DZ5T632DB126YVWDSVHONNAN", "current_trial": 130, "dateTime": 1511193237239, "trialdata": {"rt": -1000, "stimulus": "/static/audio/wordpool/OUTFIT.wav", "key_press": -1, "type": "PRES_AUD", "word": "outfit", "wordID": 987, "conditions": [24, 800, "a", 12000], "trial": 3, "serialpos": 1, "trial_type": "single-audio", "trial_index": 130, "time_elapsed": 614697, "internal_node_id": "0.0-94.0"}}, {"uniqueid": "MTK0507:3JPSL1DZ5T632DB126YVWDSVHONNAN", "current_trial": 131, "dateTime": 1511193238906, "trialdata": {"rt": -1000, "stimulus": "/static/audio/wordpool/POCKET.wav", "key_press": -1, "type": "PRES_AUD", "word": "pocket", "wordID": 1092, "conditions": [24, 800, "a", 12000], "trial": 3, "serialpos": 2, "trial_type": "single-audio", "trial_index": 131, "time_elapsed": 616365, "internal_node_id": "0.0-95.0"}}, {"uniqueid": "MTK0507:3JPSL1DZ5T632DB126YVWDSVHONNAN", "current_trial": 132, "dateTime": 1511193240886, "trialdata": {"rt": -1000, "stimulus": "/static/audio/wordpool/SERVANT.wav", "key_press": -1, "type": "PRES_AUD", "word": "servant", "wordID": 1270, "conditions": [24, 800, "a", 12000], "trial": 3, "serialpos": 3, "trial_type": "single-audio", "trial_index": 132, "time_elapsed": 618344, "internal_node_id": "0.0-96.0"}}, {"uniqueid": "MTK0507:3JPSL1DZ5T632DB126YVWDSVHONNAN", "current_trial": 133, "dateTime": 1511193242844, "trialdata": {"rt": -1000, "stimulus": "/static/audio/wordpool/GANGSTER.wav", "key_press": -1, "type": "PRES_AUD", "word": "gangster", "wordID": 619, "conditions": [24, 800, "a", 12000], "trial": 3, "serialpos": 4, "trial_type": "single-audio", "trial_index": 133, "time_elapsed": 620303, "internal_node_id": "0.0-97.0"}}, {"uniqueid": "MTK0507:3JPSL1DZ5T632DB126YVWDSVHONNAN", "current_trial": 134, "dateTime": 1511193244681, "trialdata": {"rt": -1000, "stimulus": "/static/audio/wordpool/KETCHUP.wav", "key_press": -1, "type": "PRES_AUD", "word": "ketchup", "wordID": 770, "conditions": [24, 800, "a", 12000], "trial": 3, "serialpos": 5, "trial_type": "single-audio", "trial_index": 134, "time_elapsed": 622139, "internal_node_id": "0.0-98.0"}}, {"uniqueid": "MTK0507:3JPSL1DZ5T632DB126YVWDSVHONNAN", "current_trial": 135, "dateTime": 1511193246315, "trialdata": {"rt": -1000, "stimulus": "/static/audio/wordpool/HELMET.wav", "key_press": -1, "type": "PRES_AUD", "word": "helmet", "wordID": 701, "conditions": [24, 800, "a", 12000], "trial": 3, "serialpos": 6, "trial_type": "single-audio", "trial_index": 135, "time_elapsed": 623774, "internal_node_id": "0.0-99.0"}}, {"uniqueid": "MTK0507:3JPSL1DZ5T632DB126YVWDSVHONNAN", "current_trial": 136, "dateTime": 1511193248298, "trialdata": {"rt": -1000, "stimulus": "/static/audio/wordpool/TROMBONE.wav", "key_press": -1, "type": "PRES_AUD", "word": "trombone", "wordID": 1507, "conditions": [24, 800, "a", 12000], "trial": 3, "serialpos": 7, "trial_type": "single-audio", "trial_index": 136, "time_elapsed": 625756, "internal_node_id": "0.0-100.0"}}, {"uniqueid": "MTK0507:3JPSL1DZ5T632DB126YVWDSVHONNAN", "current_trial": 137, "dateTime": 1511193249919, "trialdata": {"rt": -1000, "stimulus": "/static/audio/wordpool/GUITAR.wav", "key_press": -1, "type": "PRES_AUD", "word": "guitar", "wordID": 669, "conditions": [24, 800, "a", 12000], "trial": 3, "serialpos": 8, "trial_type": "single-audio", "trial_index": 137, "time_elapsed": 627378, "internal_node_id": "0.0-101.0"}}, {"uniqueid": "MTK0507:3JPSL1DZ5T632DB126YVWDSVHONNAN", "current_trial": 138, "dateTime": 1511193251568, "trialdata": {"rt": -1000, "stimulus": "/static/audio/wordpool/CELLAR.wav", "key_press": -1, "type": "PRES_AUD", "word": "cellar", "wordID": 266, "conditions": [24, 800, "a", 12000], "trial": 3, "serialpos": 9, "trial_type": "single-audio", "trial_index": 138, "time_elapsed": 629027, "internal_node_id": "0.0-102.0"}}, {"uniqueid": "MTK0507:3JPSL1DZ5T632DB126YVWDSVHONNAN", "current_trial": 139, "dateTime": 1511193253437, "trialdata": {"rt": -1000, "stimulus": "/static/audio/wordpool/OINTMENT.wav", "key_press": -1, "type": "PRES_AUD", "word": "ointment", "wordID": 973, "conditions": [24, 800, "a", 12000], "trial": 3, "serialpos": 10, "trial_type": "single-audio", "trial_index": 139, "time_elapsed": 630896, "internal_node_id": "0.0-103.0"}}, {"uniqueid": "MTK0507:3JPSL1DZ5T632DB126YVWDSVHONNAN", "current_trial": 140, "dateTime": 1511193255359, "trialdata": {"rt": -1000, "stimulus": "/static/audio/wordpool/RADISH.wav", "key_press": -1, "type": "PRES_AUD", "word": "radish", "wordID": 1157, "conditions": [24, 800, "a", 12000], "trial": 3, "serialpos": 11, "trial_type": "single-audio", "trial_index": 140, "time_elapsed": 632818, "internal_node_id": "0.0-104.0"}}, {"uniqueid": "MTK0507:3JPSL1DZ5T632DB126YVWDSVHONNAN", "current_trial": 141, "dateTime": 1511193257260, "trialdata": {"rt": -1000, "stimulus": "/static/audio/wordpool/DANCER.wav", "key_press": -1, "type": "PRES_AUD", "word": "dancer", "wordID": 436, "conditions": [24, 800, "a", 12000], "trial": 3, "serialpos": 12, "trial_type": "single-audio", "trial_index": 141, "time_elapsed": 634719, "internal_node_id": "0.0-105.0"}}, {"uniqueid": "MTK0507:3JPSL1DZ5T632DB126YVWDSVHONNAN", "current_trial": 142, "dateTime": 1511193258999, "trialdata": {"rt": -1000, "stimulus": "/static/audio/wordpool/DOUGHNUT.wav", "key_press": -1, "type": "PRES_AUD", "word": "doughnut", "wordID": 489, "conditions": [24, 800, "a", 12000], "trial": 3, "serialpos": 13, "trial_type": "single-audio", "trial_index": 142, "time_elapsed": 636457, "internal_node_id": "0.0-106.0"}}, {"uniqueid": "MTK0507:3JPSL1DZ5T632DB126YVWDSVHONNAN", "current_trial": 143, "dateTime": 1511193260915, "trialdata": {"rt": -1000, "stimulus": "/static/audio/wordpool/RAZOR.wav", "key_press": -1, "type": "PRES_AUD", "word": "razor", "wordID": 1170, "conditions": [24, 800, "a", 12000], "trial": 3, "serialpos": 14, "trial_type": "single-audio", "trial_index": 143, "time_elapsed": 638374, "internal_node_id": "0.0-107.0"}}, {"uniqueid": "MTK0507:3JPSL1DZ5T632DB126YVWDSVHONNAN", "current_trial": 144, "dateTime": 1511193262802, "trialdata": {"rt": -1000, "stimulus": "/static/audio/wordpool/QUAIL.wav", "key_press": -1, "type": "PRES_AUD", "word": "quail", "wordID": 1146, "conditions": [24, 800, "a", 12000], "trial": 3, "serialpos": 15, "trial_type": "single-audio", "trial_index": 144, "time_elapsed": 640261, "internal_node_id": "0.0-108.0"}}, {"uniqueid": "MTK0507:3JPSL1DZ5T632DB126YVWDSVHONNAN", "current_trial": 145, "dateTime": 1511193264595, "trialdata": {"rt": -1000, "stimulus": "/static/audio/wordpool/BISON.wav", "key_press": -1, "type": "PRES_AUD", "word": "bison", "wordID": 130, "conditions": [24, 800, "a", 12000], "trial": 3, "serialpos": 16, "trial_type": "single-audio", "trial_index": 145, "time_elapsed": 642054, "internal_node_id": "0.0-109.0"}}, {"uniqueid": "MTK0507:3JPSL1DZ5T632DB126YVWDSVHONNAN", "current_trial": 146, "dateTime": 1511193266516, "trialdata": {"rt": -1000, "stimulus": "/static/audio/wordpool/ITEM.wav", "key_press": -1, "type": "PRES_AUD", "word": "item", "wordID": 745, "conditions": [24, 800, "a", 12000], "trial": 3, "serialpos": 17, "trial_type": "single-audio", "trial_index": 146, "time_elapsed": 643974, "internal_node_id": "0.0-110.0"}}, {"uniqueid": "MTK0507:3JPSL1DZ5T632DB126YVWDSVHONNAN", "current_trial": 147, "dateTime": 1511193268421, "trialdata": {"rt": -1000, "stimulus": "/static/audio/wordpool/WASP.wav", "key_press": -1, "type": "PRES_AUD", "word": "wasp", "wordID": 1592, "conditions": [24, 800, "a", 12000], "trial": 3, "serialpos": 18, "trial_type": "single-audio", "trial_index": 147, "time_elapsed": 645880, "internal_node_id": "0.0-111.0"}}, {"uniqueid": "MTK0507:3JPSL1DZ5T632DB126YVWDSVHONNAN", "current_trial": 148, "dateTime": 1511193270415, "trialdata": {"rt": -1000, "stimulus": "/static/audio/wordpool/GHETTO.wav", "key_press": -1, "type": "PRES_AUD", "word": "ghetto", "wordID": 632, "conditions": [24, 800, "a", 12000], "trial": 3, "serialpos": 19, "trial_type": "single-audio", "trial_index": 148, "time_elapsed": 647873, "internal_node_id": "0.0-112.0"}}, {"uniqueid": "MTK0507:3JPSL1DZ5T632DB126YVWDSVHONNAN", "current_trial": 149, "dateTime": 1511193272048, "trialdata": {"rt": -1000, "stimulus": "/static/audio/wordpool/PASTRY.wav", "key_press": -1, "type": "PRES_AUD", "word": "pastry", "wordID": 1021, "conditions": [24, 800, "a", 12000], "trial": 3, "serialpos": 20, "trial_type": "single-audio", "trial_index": 149, "time_elapsed": 649507, "internal_node_id": "0.0-113.0"}}, {"uniqueid": "MTK0507:3JPSL1DZ5T632DB126YVWDSVHONNAN", "current_trial": 150, "dateTime": 1511193273723, "trialdata": {"rt": -1000, "stimulus": "/static/audio/wordpool/BACON.wav", "key_press": -1, "type": "PRES_AUD", "word": "bacon", "wordID": 66, "conditions": [24, 800, "a", 12000], "trial": 3, "serialpos": 21, "trial_type": "single-audio", "trial_index": 150, "time_elapsed": 651182, "internal_node_id": "0.0-114.0"}}, {"uniqueid": "MTK0507:3JPSL1DZ5T632DB126YVWDSVHONNAN", "current_trial": 151, "dateTime": 1511193275408, "trialdata": {"rt": -1000, "stimulus": "/static/audio/wordpool/FRUIT.wav", "key_press": -1, "type": "PRES_AUD", "word": "fruit", "wordID": 609, "conditions": [24, 800, "a", 12000], "trial": 3, "serialpos": 22, "trial_type": "single-audio", "trial_index": 151, "time_elapsed": 652867, "internal_node_id": "0.0-115.0"}}, {"uniqueid": "MTK0507:3JPSL1DZ5T632DB126YVWDSVHONNAN", "current_trial": 152, "dateTime": 1511193277036, "trialdata": {"rt": -1000, "stimulus": "/static/audio/wordpool/CITRUS.wav", "key_press": -1, "type": "PRES_AUD", "word": "citrus", "wordID": 312, "conditions": [24, 800, "a", 12000], "trial": 3, "serialpos": 23, "trial_type": "single-audio", "trial_index": 152, "time_elapsed": 654495, "internal_node_id": "0.0-116.0"}}, {"uniqueid": "MTK0507:3JPSL1DZ5T632DB126YVWDSVHONNAN", "current_trial": 153, "dateTime": 1511193278348, "trialdata": {"rt": -1, "stimulus": "", "key_press": -1, "type": "PRE_RECALL_DELAY", "trial_type": "single-stim", "trial_index": 153, "time_elapsed": 655807, "internal_node_id": "0.0-117.0-0.0"}}, {"uniqueid": "MTK0507:3JPSL1DZ5T632DB126YVWDSVHONNAN", "current_trial": 154, "dateTime": 1511193278849, "trialdata": {"rt": -1000, "stimulus": "/static/audio/400Hz.wav", "key_press": -1, "type": "PRE_RECALL_ALERT", "trial_type": "single-audio", "trial_index": 154, "time_elapsed": 656308, "internal_node_id": "0.0-118.0"}}, {"uniqueid": "MTK0507:3JPSL1DZ5T632DB126YVWDSVHONNAN", "current_trial": 155, "dateTime": 1511193338866, "trialdata": {"rt": [1634, 3391, 5294, 6958, 9020, 10594, 14395, 57308], "recwords": ["fruit", "citrus", "gangster", "ghetto", "ointment", "pastry", "flower", "wasp"], "type": "FREE_RECALL", "conditions": [24, 800, "a", 12000], "trial": 3, "trial_type": "free-recall", "trial_index": 155, "time_elapsed": 716314, "internal_node_id": "0.0-119.0-0.0"}}, {"uniqueid": "MTK0507:3JPSL1DZ5T632DB126YVWDSVHONNAN", "current_trial": 156, "dateTime": 1511193345941, "trialdata": {"rt": 5073, "key_press": 32, "type": "INSTRUCTIONS", "trial_type": "text", "trial_index": 156, "time_elapsed": 723400, "internal_node_id": "0.0-120.0"}}, {"uniqueid": "MTK0507:3JPSL1DZ5T632DB126YVWDSVHONNAN", "current_trial": 157, "dateTime": 1511193371947, "trialdata": {"rt": [2794, 5027, 7212, 9088, 11771, 14202, 15695, 18360, 22403], "responses": ["18", "9", "18", "13", "13", "15", "4", "17", "17"], "num1": [8, 6, 9, 6, 2, 3, 1, 3, 5, 3], "num2": [3, 2, 3, 6, 2, 7, 2, 6, 9, 8], "num3": [7, 1, 6, 1, 9, 5, 1, 8, 3, 8], "type": "DISTRACTOR", "conditions": [24, 800, "v", 24000], "trial": 4, "trial_type": "math-distractor", "trial_index": 157, "time_elapsed": 749406, "internal_node_id": "0.0-121.0"}}, {"uniqueid": "MTK0507:3JPSL1DZ5T632DB126YVWDSVHONNAN", "current_trial": 158, "dateTime": 1511193374952, "trialdata": {"rt": -1, "stimulus": "<p id=\"stim\">10</p>", "key_press": -1, "trial_type": "single-stim", "trial_index": 158, "time_elapsed": 752410, "internal_node_id": "0.0-122.0-0.0"}}, {"uniqueid": "MTK0507:3JPSL1DZ5T632DB126YVWDSVHONNAN", "current_trial": 159, "dateTime": 1511193375958, "trialdata": {"rt": -1, "stimulus": "<p id=\"stim\">9</p>", "key_press": -1, "trial_type": "single-stim", "trial_index": 159, "time_elapsed": 753416, "internal_node_id": "0.0-122.0-1.0"}}, {"uniqueid": "MTK0507:3JPSL1DZ5T632DB126YVWDSVHONNAN", "current_trial": 160, "dateTime": 1511193376961, "trialdata": {"rt": -1, "stimulus": "<p id=\"stim\">8</p>", "key_press": -1, "trial_type": "single-stim", "trial_index": 160, "time_elapsed": 754419, "internal_node_id": "0.0-122.0-2.0"}}, {"uniqueid": "MTK0507:3JPSL1DZ5T632DB126YVWDSVHONNAN", "current_trial": 161, "dateTime": 1511193377966, "trialdata": {"rt": -1, "stimulus": "<p id=\"stim\">7</p>", "key_press": -1, "trial_type": "single-stim", "trial_index": 161, "time_elapsed": 755424, "internal_node_id": "0.0-122.0-3.0"}}, {"uniqueid": "MTK0507:3JPSL1DZ5T632DB126YVWDSVHONNAN", "current_trial": 162, "dateTime": 1511193378968, "trialdata": {"rt": -1, "stimulus": "<p id=\"stim\">6</p>", "key_press": -1, "trial_type": "single-stim", "trial_index": 162, "time_elapsed": 756427, "internal_node_id": "0.0-122.0-4.0"}}, {"uniqueid": "MTK0507:3JPSL1DZ5T632DB126YVWDSVHONNAN", "current_trial": 163, "dateTime": 1511193379971, "trialdata": {"rt": -1, "stimulus": "<p id=\"stim\">5</p>", "key_press": -1, "trial_type": "single-stim", "trial_index": 163, "time_elapsed": 757430, "internal_node_id": "0.0-122.0-5.0"}}, {"uniqueid": "MTK0507:3JPSL1DZ5T632DB126YVWDSVHONNAN", "current_trial": 164, "dateTime": 1511193380975, "trialdata": {"rt": -1, "stimulus": "<p id=\"stim\">4</p>", "key_press": -1, "trial_type": "single-stim", "trial_index": 164, "time_elapsed": 758434, "internal_node_id": "0.0-122.0-6.0"}}, {"uniqueid": "MTK0507:3JPSL1DZ5T632DB126YVWDSVHONNAN", "current_trial": 165, "dateTime": 1511193381979, "trialdata": {"rt": -1, "stimulus": "<p id=\"stim\">3</p>", "key_press": -1, "trial_type": "single-stim", "trial_index": 165, "time_elapsed": 759438, "internal_node_id": "0.0-122.0-7.0"}}, {"uniqueid": "MTK0507:3JPSL1DZ5T632DB126YVWDSVHONNAN", "current_trial": 166, "dateTime": 1511193382982, "trialdata": {"rt": -1, "stimulus": "<p id=\"stim\">2</p>", "key_press": -1, "trial_type": "single-stim", "trial_index": 166, "time_elapsed": 760440, "internal_node_id": "0.0-122.0-8.0"}}, {"uniqueid": "MTK0507:3JPSL1DZ5T632DB126YVWDSVHONNAN", "current_trial": 167, "dateTime": 1511193383984, "trialdata": {"rt": -1, "stimulus": "<p id=\"stim\">1</p>", "key_press": -1, "trial_type": "single-stim", "trial_index": 167, "time_elapsed": 761443, "internal_node_id": "0.0-122.0-9.0"}}, {"uniqueid": "MTK0507:3JPSL1DZ5T632DB126YVWDSVHONNAN", "current_trial": 168, "dateTime": 1511193385488, "trialdata": {"rt": -1, "stimulus": "<p id=\"stim\">+</p>", "key_press": -1, "type": "FIXATION", "trial_type": "single-stim", "trial_index": 168, "time_elapsed": 762945, "internal_node_id": "0.0-123.0-0.0"}}, {"uniqueid": "MTK0507:3JPSL1DZ5T632DB126YVWDSVHONNAN", "current_trial": 169, "dateTime": 1511193386290, "trialdata": {"rt": -1, "stimulus": "<p id=\"stim\">BOUQUET</p>", "key_press": -1, "type": "PRES_VIS", "word": "bouquet", "wordID": 156, "conditions": [24, 800, "v", 24000], "trial": 4, "serialpos": 0, "trial_type": "single-stim", "trial_index": 169, "time_elapsed": 763749, "internal_node_id": "0.0-124.0"}}, {"uniqueid": "MTK0507:3JPSL1DZ5T632DB126YVWDSVHONNAN", "current_trial": 170, "dateTime": 1511193388048, "trialdata": {"rt": -1, "stimulus": "<p id=\"stim\">WORLD</p>", "key_press": -1, "type": "PRES_VIS", "word": "world", "wordID": 1621, "conditions": [24, 800, "v", 24000], "trial": 4, "serialpos": 1, "trial_type": "single-stim", "trial_index": 170, "time_elapsed": 765506, "internal_node_id": "0.0-125.0"}}, {"uniqueid": "MTK0507:3JPSL1DZ5T632DB126YVWDSVHONNAN", "current_trial": 171, "dateTime": 1511193389662, "trialdata": {"rt": -1, "stimulus": "<p id=\"stim\">LAKE</p>", "key_press": -1, "type": "PRES_VIS", "word": "lake", "wordID": 795, "conditions": [24, 800, "v", 24000], "trial": 4, "serialpos": 2, "trial_type": "single-stim", "trial_index": 171, "time_elapsed": 767121, "internal_node_id": "0.0-126.0"}}, {"uniqueid": "MTK0507:3JPSL1DZ5T632DB126YVWDSVHONNAN", "current_trial": 172, "dateTime": 1511193391572, "trialdata": {"rt": -1, "stimulus": "<p id=\"stim\">DAUGHTER</p>", "key_press": -1, "type": "PRES_VIS", "word": "daughter", "wordID": 441, "conditions": [24, 800, "v", 24000], "trial": 4, "serialpos": 3, "trial_type": "single-stim", "trial_index": 172, "time_elapsed": 769031, "internal_node_id": "0.0-127.0"}}, {"uniqueid": "MTK0507:3JPSL1DZ5T632DB126YVWDSVHONNAN", "current_trial": 173, "dateTime": 1511193393175, "trialdata": {"rt": -1, "stimulus": "<p id=\"stim\">EAGLE</p>", "key_press": -1, "type": "PRES_VIS", "word": "eagle", "wordID": 511, "conditions": [24, 800, "v", 24000], "trial": 4, "serialpos": 4, "trial_type": "single-stim", "trial_index": 173, "time_elapsed": 770634, "internal_node_id": "0.0-128.0"}}, {"uniqueid": "MTK0507:3JPSL1DZ5T632DB126YVWDSVHONNAN", "current_trial": 174, "dateTime": 1511193395139, "trialdata": {"rt": -1, "stimulus": "<p id=\"stim\">ROOSTER</p>", "key_press": -1, "type": "PRES_VIS", "word": "rooster", "wordID": 1208, "conditions": [24, 800, "v", 24000], "trial": 4, "serialpos": 5, "trial_type": "single-stim", "trial_index": 174, "time_elapsed": 772598, "internal_node_id": "0.0-129.0"}}, {"uniqueid": "MTK0507:3JPSL1DZ5T632DB126YVWDSVHONNAN", "current_trial": 175, "dateTime": 1511193397128, "trialdata": {"rt": -1, "stimulus": "<p id=\"stim\">JUNGLE</p>", "key_press": -1, "type": "PRES_VIS", "word": "jungle", "wordID": 763, "conditions": [24, 800, "v", 24000], "trial": 4, "serialpos": 6, "trial_type": "single-stim", "trial_index": 175, "time_elapsed": 774587, "internal_node_id": "0.0-130.0"}}, {"uniqueid": "MTK0507:3JPSL1DZ5T632DB126YVWDSVHONNAN", "current_trial": 176, "dateTime": 1511193398815, "trialdata": {"rt": -1, "stimulus": "<p id=\"stim\">BOYFRIEND</p>", "key_press": -1, "type": "PRES_VIS", "word": "boyfriend", "wordID": 161, "conditions": [24, 800, "v", 24000], "trial": 4, "serialpos": 7, "trial_type": "single-stim", "trial_index": 176, "time_elapsed": 776274, "internal_node_id": "0.0-131.0"}}, {"uniqueid": "MTK0507:3JPSL1DZ5T632DB126YVWDSVHONNAN", "current_trial": 177, "dateTime": 1511193400462, "trialdata": {"rt": -1, "stimulus": "<p id=\"stim\">BEAVER</p>", "key_press": -1, "type": "PRES_VIS", "word": "beaver", "wordID": 108, "conditions": [24, 800, "v", 24000], "trial": 4, "serialpos": 8, "trial_type": "single-stim", "trial_index": 177, "time_elapsed": 777921, "internal_node_id": "0.0-132.0"}}, {"uniqueid": "MTK0507:3JPSL1DZ5T632DB126YVWDSVHONNAN", "current_trial": 178, "dateTime": 1511193402423, "trialdata": {"rt": -1, "stimulus": "<p id=\"stim\">DRINK</p>", "key_press": -1, "type": "PRES_VIS", "word": "drink", "wordID": 497, "conditions": [24, 800, "v", 24000], "trial": 4, "serialpos": 9, "trial_type": "single-stim", "trial_index": 178, "time_elapsed": 779881, "internal_node_id": "0.0-133.0"}}, {"uniqueid": "MTK0507:3JPSL1DZ5T632DB126YVWDSVHONNAN", "current_trial": 179, "dateTime": 1511193404354, "trialdata": {"rt": -1, "stimulus": "<p id=\"stim\">SODA</p>", "key_press": -1, "type": "PRES_VIS", "word": "soda", "wordID": 1340, "conditions": [24, 800, "v", 24000], "trial": 4, "serialpos": 10, "trial_type": "single-stim", "trial_index": 179, "time_elapsed": 781813, "internal_node_id": "0.0-134.0"}}, {"uniqueid": "MTK0507:3JPSL1DZ5T632DB126YVWDSVHONNAN", "current_trial": 180, "dateTime": 1511193406349, "trialdata": {"rt": -1, "stimulus": "<p id=\"stim\">DINER</p>", "key_press": -1, "type": "PRES_VIS", "word": "diner", "wordID": 466, "conditions": [24, 800, "v", 24000], "trial": 4, "serialpos": 11, "trial_type": "single-stim", "trial_index": 180, "time_elapsed": 783807, "internal_node_id": "0.0-135.0"}}, {"uniqueid": "MTK0507:3JPSL1DZ5T632DB126YVWDSVHONNAN", "current_trial": 181, "dateTime": 1511193408077, "trialdata": {"rt": -1, "stimulus": "<p id=\"stim\">COMPASS</p>", "key_press": -1, "type": "PRES_VIS", "word": "compass", "wordID": 357, "conditions": [24, 800, "v", 24000], "trial": 4, "serialpos": 12, "trial_type": "single-stim", "trial_index": 181, "time_elapsed": 785536, "internal_node_id": "0.0-136.0"}}, {"uniqueid": "MTK0507:3JPSL1DZ5T632DB126YVWDSVHONNAN", "current_trial": 182, "dateTime": 1511193409972, "trialdata": {"rt": -1, "stimulus": "<p id=\"stim\">FOREHEAD</p>", "key_press": -1, "type": "PRES_VIS", "word": "forehead", "wordID": 591, "conditions": [24, 800, "v", 24000], "trial": 4, "serialpos": 13, "trial_type": "single-stim", "trial_index": 182, "time_elapsed": 787431, "internal_node_id": "0.0-137.0"}}, {"uniqueid": "MTK0507:3JPSL1DZ5T632DB126YVWDSVHONNAN", "current_trial": 183, "dateTime": 1511193411629, "trialdata": {"rt": -1, "stimulus": "<p id=\"stim\">PORTRAIT</p>", "key_press": -1, "type": "PRES_VIS", "word": "portrait", "wordID": 1110, "conditions": [24, 800, "v", 24000], "trial": 4, "serialpos": 14, "trial_type": "single-stim", "trial_index": 183, "time_elapsed": 789088, "internal_node_id": "0.0-138.0"}}, {"uniqueid": "MTK0507:3JPSL1DZ5T632DB126YVWDSVHONNAN", "current_trial": 184, "dateTime": 1511193413313, "trialdata": {"rt": -1, "stimulus": "<p id=\"stim\">LOFT</p>", "key_press": -1, "type": "PRES_VIS", "word": "loft", "wordID": 839, "conditions": [24, 800, "v", 24000], "trial": 4, "serialpos": 15, "trial_type": "single-stim", "trial_index": 184, "time_elapsed": 790772, "internal_node_id": "0.0-139.0"}}, {"uniqueid": "MTK0507:3JPSL1DZ5T632DB126YVWDSVHONNAN", "current_trial": 185, "dateTime": 1511193415217, "trialdata": {"rt": -1, "stimulus": "<p id=\"stim\">CHEST</p>", "key_press": -1, "type": "PRES_VIS", "word": "chest", "wordID": 294, "conditions": [24, 800, "v", 24000], "trial": 4, "serialpos": 16, "trial_type": "single-stim", "trial_index": 185, "time_elapsed": 792676, "internal_node_id": "0.0-140.0"}}, {"uniqueid": "MTK0507:3JPSL1DZ5T632DB126YVWDSVHONNAN", "current_trial": 186, "dateTime": 1511193417014, "trialdata": {"rt": -1, "stimulus": "<p id=\"stim\">ROBOT</p>", "key_press": -1, "type": "PRES_VIS", "word": "robot", "wordID": 1199, "conditions": [24, 800, "v", 24000], "trial": 4, "serialpos": 17, "trial_type": "single-stim", "trial_index": 186, "time_elapsed": 794472, "internal_node_id": "0.0-141.0"}}, {"uniqueid": "MTK0507:3JPSL1DZ5T632DB126YVWDSVHONNAN", "current_trial": 187, "dateTime": 1511193418642, "trialdata": {"rt": -1, "stimulus": "<p id=\"stim\">GALLON</p>", "key_press": -1, "type": "PRES_VIS", "word": "gallon", "wordID": 617, "conditions": [24, 800, "v", 24000], "trial": 4, "serialpos": 18, "trial_type": "single-stim", "trial_index": 187, "time_elapsed": 796101, "internal_node_id": "0.0-142.0"}}, {"uniqueid": "MTK0507:3JPSL1DZ5T632DB126YVWDSVHONNAN", "current_trial": 188, "dateTime": 1511193420398, "trialdata": {"rt": -1, "stimulus": "<p id=\"stim\">BARREL</p>", "key_press": -1, "type": "PRES_VIS", "word": "barrel", "wordID": 90, "conditions": [24, 800, "v", 24000], "trial": 4, "serialpos": 19, "trial_type": "single-stim", "trial_index": 188, "time_elapsed": 797857, "internal_node_id": "0.0-143.0"}}, {"uniqueid": "MTK0507:3JPSL1DZ5T632DB126YVWDSVHONNAN", "current_trial": 189, "dateTime": 1511193422042, "trialdata": {"rt": -1, "stimulus": "<p id=\"stim\">TUNNEL</p>", "key_press": -1, "type": "PRES_VIS", "word": "tunnel", "wordID": 1518, "conditions": [24, 800, "v", 24000], "trial": 4, "serialpos": 20, "trial_type": "single-stim", "trial_index": 189, "time_elapsed": 799501, "internal_node_id": "0.0-144.0"}}, {"uniqueid": "MTK0507:3JPSL1DZ5T632DB126YVWDSVHONNAN", "current_trial": 190, "dateTime": 1511193423896, "trialdata": {"rt": -1, "stimulus": "<p id=\"stim\">CONTRACT</p>", "key_press": -1, "type": "PRES_VIS", "word": "contract", "wordID": 367, "conditions": [24, 800, "v", 24000], "trial": 4, "serialpos": 21, "trial_type": "single-stim", "trial_index": 190, "time_elapsed": 801355, "internal_node_id": "0.0-145.0"}}, {"uniqueid": "MTK0507:3JPSL1DZ5T632DB126YVWDSVHONNAN", "current_trial": 191, "dateTime": 1511193425613, "trialdata": {"rt": -1, "stimulus": "<p id=\"stim\">TOURIST</p>", "key_press": -1, "type": "PRES_VIS", "word": "tourist", "wordID": 1487, "conditions": [24, 800, "v", 24000], "trial": 4, "serialpos": 22, "trial_type": "single-stim", "trial_index": 191, "time_elapsed": 803071, "internal_node_id": "0.0-146.0"}}, {"uniqueid": "MTK0507:3JPSL1DZ5T632DB126YVWDSVHONNAN", "current_trial": 192, "dateTime": 1511193427581, "trialdata": {"rt": -1, "stimulus": "<p id=\"stim\">EXPERT</p>", "key_press": -1, "type": "PRES_VIS", "word": "expert", "wordID": 542, "conditions": [24, 800, "v", 24000], "trial": 4, "serialpos": 23, "trial_type": "single-stim", "trial_index": 192, "time_elapsed": 805040, "internal_node_id": "0.0-147.0"}}, {"uniqueid": "MTK0507:3JPSL1DZ5T632DB126YVWDSVHONNAN", "current_trial": 193, "dateTime": 1511193429802, "trialdata": {"rt": -1, "stimulus": "", "key_press": -1, "type": "PRE_RECALL_DELAY", "trial_type": "single-stim", "trial_index": 193, "time_elapsed": 807260, "internal_node_id": "0.0-148.0-0.0"}}, {"uniqueid": "MTK0507:3JPSL1DZ5T632DB126YVWDSVHONNAN", "current_trial": 194, "dateTime": 1511193430304, "trialdata": {"rt": -1000, "stimulus": "/static/audio/400Hz.wav", "key_press": -1, "type": "PRE_RECALL_ALERT", "trial_type": "single-audio", "trial_index": 194, "time_elapsed": 807763, "internal_node_id": "0.0-149.0"}}, {"uniqueid": "MTK0507:3JPSL1DZ5T632DB126YVWDSVHONNAN", "current_trial": 195, "dateTime": 1511193490321, "trialdata": {"rt": [1896, 3173, 4752, 7563, 14704], "recwords": ["tourist", "expert", "robot", "tunnel", "foreign"], "type": "FREE_RECALL", "conditions": [24, 800, "v", 24000], "trial": 4, "trial_type": "free-recall", "trial_index": 195, "time_elapsed": 867769, "internal_node_id": "0.0-150.0-0.0"}}, {"uniqueid": "MTK0507:3JPSL1DZ5T632DB126YVWDSVHONNAN", "current_trial": 196, "dateTime": 1511193493888, "trialdata": {"rt": 1564, "key_press": 32, "type": "INSTRUCTIONS", "trial_type": "text", "trial_index": 196, "time_elapsed": 871347, "internal_node_id": "0.0-151.0"}}, {"uniqueid": "MTK0507:3JPSL1DZ5T632DB126YVWDSVHONNAN", "current_trial": 197, "dateTime": 1511193507893, "trialdata": {"rt": [1774, 4742, 6368, 8401, 11512], "responses": ["13", "21", "10", "17", "14"], "num1": [3, 8, 1, 8, 5, 8], "num2": [7, 9, 8, 4, 2, 9], "num3": [3, 5, 1, 5, 7, 8], "type": "DISTRACTOR", "conditions": [24, 800, "v", 12000], "trial": 5, "trial_type": "math-distractor", "trial_index": 197, "time_elapsed": 885352, "internal_node_id": "0.0-152.0"}}, {"uniqueid": "MTK0507:3JPSL1DZ5T632DB126YVWDSVHONNAN", "current_trial": 198, "dateTime": 1511193510896, "trialdata": {"rt": -1, "stimulus": "<p id=\"stim\">10</p>", "key_press": -1, "trial_type": "single-stim", "trial_index": 198, "time_elapsed": 888355, "internal_node_id": "0.0-153.0-0.0"}}, {"uniqueid": "MTK0507:3JPSL1DZ5T632DB126YVWDSVHONNAN", "current_trial": 199, "dateTime": 1511193511899, "trialdata": {"rt": -1, "stimulus": "<p id=\"stim\">9</p>", "key_press": -1, "trial_type": "single-stim", "trial_index": 199, "time_elapsed": 889358, "internal_node_id": "0.0-153.0-1.0"}}, {"uniqueid": "MTK0507:3JPSL1DZ5T632DB126YVWDSVHONNAN", "current_trial": 200, "dateTime": 1511193512902, "trialdata": {"rt": -1, "stimulus": "<p id=\"stim\">8</p>", "key_press": -1, "trial_type": "single-stim", "trial_index": 200, "time_elapsed": 890360, "internal_node_id": "0.0-153.0-2.0"}}, {"uniqueid": "MTK0507:3JPSL1DZ5T632DB126YVWDSVHONNAN", "current_trial": 201, "dateTime": 1511193513904, "trialdata": {"rt": -1, "stimulus": "<p id=\"stim\">7</p>", "key_press": -1, "trial_type": "single-stim", "trial_index": 201, "time_elapsed": 891363, "internal_node_id": "0.0-153.0-3.0"}}, {"uniqueid": "MTK0507:3JPSL1DZ5T632DB126YVWDSVHONNAN", "current_trial": 202, "dateTime": 1511193514906, "trialdata": {"rt": -1, "stimulus": "<p id=\"stim\">6</p>", "key_press": -1, "trial_type": "single-stim", "trial_index": 202, "time_elapsed": 892364, "internal_node_id": "0.0-153.0-4.0"}}, {"uniqueid": "MTK0507:3JPSL1DZ5T632DB126YVWDSVHONNAN", "current_trial": 203, "dateTime": 1511193515911, "trialdata": {"rt": -1, "stimulus": "<p id=\"stim\">5</p>", "key_press": -1, "trial_type": "single-stim", "trial_index": 203, "time_elapsed": 893370, "internal_node_id": "0.0-153.0-5.0"}}, {"uniqueid": "MTK0507:3JPSL1DZ5T632DB126YVWDSVHONNAN", "current_trial": 204, "dateTime": 1511193516917, "trialdata": {"rt": -1, "stimulus": "<p id=\"stim\">4</p>", "key_press": -1, "trial_type": "single-stim", "trial_index": 204, "time_elapsed": 894376, "internal_node_id": "0.0-153.0-6.0"}}, {"uniqueid": "MTK0507:3JPSL1DZ5T632DB126YVWDSVHONNAN", "current_trial": 205, "dateTime": 1511193517921, "trialdata": {"rt": -1, "stimulus": "<p id=\"stim\">3</p>", "key_press": -1, "trial_type": "single-stim", "trial_index": 205, "time_elapsed": 895379, "internal_node_id": "0.0-153.0-7.0"}}, {"uniqueid": "MTK0507:3JPSL1DZ5T632DB126YVWDSVHONNAN", "current_trial": 206, "dateTime": 1511193518925, "trialdata": {"rt": -1, "stimulus": "<p id=\"stim\">2</p>", "key_press": -1, "trial_type": "single-stim", "trial_index": 206, "time_elapsed": 896384, "internal_node_id": "0.0-153.0-8.0"}}, {"uniqueid": "MTK0507:3JPSL1DZ5T632DB126YVWDSVHONNAN", "current_trial": 207, "dateTime": 1511193519928, "trialdata": {"rt": -1, "stimulus": "<p id=\"stim\">1</p>", "key_press": -1, "trial_type": "single-stim", "trial_index": 207, "time_elapsed": 897386, "internal_node_id": "0.0-153.0-9.0"}}, {"uniqueid": "MTK0507:3JPSL1DZ5T632DB126YVWDSVHONNAN", "current_trial": 208, "dateTime": 1511193521432, "trialdata": {"rt": -1, "stimulus": "<p id=\"stim\">+</p>", "key_press": -1, "type": "FIXATION", "trial_type": "single-stim", "trial_index": 208, "time_elapsed": 898890, "internal_node_id": "0.0-154.0-0.0"}}, {"uniqueid": "MTK0507:3JPSL1DZ5T632DB126YVWDSVHONNAN", "current_trial": 209, "dateTime": 1511193522236, "trialdata": {"rt": -1, "stimulus": "<p id=\"stim\">SILK</p>", "key_press": -1, "type": "PRES_VIS", "word": "silk", "wordID": 1306, "conditions": [24, 800, "v", 12000], "trial": 5, "serialpos": 0, "trial_type": "single-stim", "trial_index": 209, "time_elapsed": 899694, "internal_node_id": "0.0-155.0"}}, {"uniqueid": "MTK0507:3JPSL1DZ5T632DB126YVWDSVHONNAN", "current_trial": 210, "dateTime": 1511193523922, "trialdata": {"rt": -1, "stimulus": "<p id=\"stim\">HEADBAND</p>", "key_press": -1, "type": "PRES_VIS", "word": "headband", "wordID": 695, "conditions": [24, 800, "v", 12000], "trial": 5, "serialpos": 1, "trial_type": "single-stim", "trial_index": 210, "time_elapsed": 901381, "internal_node_id": "0.0-156.0"}}, {"uniqueid": "MTK0507:3JPSL1DZ5T632DB126YVWDSVHONNAN", "current_trial": 211, "dateTime": 1511193525909, "trialdata": {"rt": -1, "stimulus": "<p id=\"stim\">PANTHER</p>", "key_press": -1, "type": "PRES_VIS", "word": "panther", "wordID": 1008, "conditions": [24, 800, "v", 12000], "trial": 5, "serialpos": 2, "trial_type": "single-stim", "trial_index": 211, "time_elapsed": 903368, "internal_node_id": "0.0-157.0"}}, {"uniqueid": "MTK0507:3JPSL1DZ5T632DB126YVWDSVHONNAN", "current_trial": 212, "dateTime": 1511193527558, "trialdata": {"rt": -1, "stimulus": "<p id=\"stim\">APRON</p>", "key_press": -1, "type": "PRES_VIS", "word": "apron", "wordID": 34, "conditions": [24, 800, "v", 12000], "trial": 5, "serialpos": 3, "trial_type": "single-stim", "trial_index": 212, "time_elapsed": 905017, "internal_node_id": "0.0-158.0"}}, {"uniqueid": "MTK0507:3JPSL1DZ5T632DB126YVWDSVHONNAN", "current_trial": 213, "dateTime": 1511193529517, "trialdata": {"rt": -1, "stimulus": "<p id=\"stim\">JELLY</p>", "key_press": -1, "type": "PRES_VIS", "word": "jelly", "wordID": 754, "conditions": [24, 800, "v", 12000], "trial": 5, "serialpos": 4, "trial_type": "single-stim", "trial_index": 213, "time_elapsed": 906976, "internal_node_id": "0.0-159.0"}}, {"uniqueid": "MTK0507:3JPSL1DZ5T632DB126YVWDSVHONNAN", "current_trial": 214, "dateTime": 1511193531124, "trialdata": {"rt": -1, "stimulus": "<p id=\"stim\">BLACKBOARD</p>", "key_press": -1, "type": "PRES_VIS", "word": "blackboard", "wordID": 132, "conditions": [24, 800, "v", 12000], "trial": 5, "serialpos": 5, "trial_type": "single-stim", "trial_index": 214, "time_elapsed": 908583, "internal_node_id": "0.0-160.0"}}, {"uniqueid": "MTK0507:3JPSL1DZ5T632DB126YVWDSVHONNAN", "current_trial": 215, "dateTime": 1511193532836, "trialdata": {"rt": -1, "stimulus": "<p id=\"stim\">TURTLE</p>", "key_press": -1, "type": "PRES_VIS", "word": "turtle", "wordID": 1521, "conditions": [24, 800, "v", 12000], "trial": 5, "serialpos": 6, "trial_type": "single-stim", "trial_index": 215, "time_elapsed": 910294, "internal_node_id": "0.0-161.0"}}, {"uniqueid": "MTK0507:3JPSL1DZ5T632DB126YVWDSVHONNAN", "current_trial": 216, "dateTime": 1511193534607, "trialdata": {"rt": -1, "stimulus": "<p id=\"stim\">LEG</p>", "key_press": -1, "type": "PRES_VIS", "word": "leg", "wordID": 808, "conditions": [24, 800, "v", 12000], "trial": 5, "serialpos": 7, "trial_type": "single-stim", "trial_index": 216, "time_elapsed": 912065, "internal_node_id": "0.0-162.0"}}, {"uniqueid": "MTK0507:3JPSL1DZ5T632DB126YVWDSVHONNAN", "current_trial": 217, "dateTime": 1511193536606, "trialdata": {"rt": -1, "stimulus": "<p id=\"stim\">ARM</p>", "key_press": -1, "type": "PRES_VIS", "word": "arm", "wordID": 37, "conditions": [24, 800, "v", 12000], "trial": 5, "serialpos": 8, "trial_type": "single-stim", "trial_index": 217, "time_elapsed": 914065, "internal_node_id": "0.0-163.0"}}, {"uniqueid": "MTK0507:3JPSL1DZ5T632DB126YVWDSVHONNAN", "current_trial": 218, "dateTime": 1511193538370, "trialdata": {"rt": -1, "stimulus": "<p id=\"stim\">CHAMPAGNE</p>", "key_press": -1, "type": "PRES_VIS", "word": "champagne", "wordID": 277, "conditions": [24, 800, "v", 12000], "trial": 5, "serialpos": 9, "trial_type": "single-stim", "trial_index": 218, "time_elapsed": 915829, "internal_node_id": "0.0-164.0"}}, {"uniqueid": "MTK0507:3JPSL1DZ5T632DB126YVWDSVHONNAN", "current_trial": 219, "dateTime": 1511193540286, "trialdata": {"rt": -1, "stimulus": "<p id=\"stim\">ORANGE</p>", "key_press": -1, "type": "PRES_VIS", "word": "orange", "wordID": 979, "conditions": [24, 800, "v", 12000], "trial": 5, "serialpos": 10, "trial_type": "single-stim", "trial_index": 219, "time_elapsed": 917744, "internal_node_id": "0.0-165.0"}}, {"uniqueid": "MTK0507:3JPSL1DZ5T632DB126YVWDSVHONNAN", "current_trial": 220, "dateTime": 1511193542094, "trialdata": {"rt": -1, "stimulus": "<p id=\"stim\">ACTOR</p>", "key_press": -1, "type": "PRES_VIS", "word": "actor", "wordID": 4, "conditions": [24, 800, "v", 12000], "trial": 5, "serialpos": 11, "trial_type": "single-stim", "trial_index": 220, "time_elapsed": 919552, "internal_node_id": "0.0-166.0"}}, {"uniqueid": "MTK0507:3JPSL1DZ5T632DB126YVWDSVHONNAN", "current_trial": 221, "dateTime": 1511193543990, "trialdata": {"rt": -1, "stimulus": "<p id=\"stim\">CASKET</p>", "key_press": -1, "type": "PRES_VIS", "word": "casket", "wordID": 254, "conditions": [24, 800, "v", 12000], "trial": 5, "serialpos": 12, "trial_type": "single-stim", "trial_index": 221, "time_elapsed": 921448, "internal_node_id": "0.0-167.0"}}, {"uniqueid": "MTK0507:3JPSL1DZ5T632DB126YVWDSVHONNAN", "current_trial": 222, "dateTime": 1511193545825, "trialdata": {"rt": -1, "stimulus": "<p id=\"stim\">MUMMY</p>", "key_press": -1, "type": "PRES_VIS", "word": "mummy", "wordID": 931, "conditions": [24, 800, "v", 12000], "trial": 5, "serialpos": 13, "trial_type": "single-stim", "trial_index": 222, "time_elapsed": 923283, "internal_node_id": "0.0-168.0"}}, {"uniqueid": "MTK0507:3JPSL1DZ5T632DB126YVWDSVHONNAN", "current_trial": 223, "dateTime": 1511193547714, "trialdata": {"rt": -1, "stimulus": "<p id=\"stim\">ATLAS</p>", "key_press": -1, "type": "PRES_VIS", "word": "atlas", "wordID": 52, "conditions": [24, 800, "v", 12000], "trial": 5, "serialpos": 14, "trial_type": "single-stim", "trial_index": 223, "time_elapsed": 925173, "internal_node_id": "0.0-169.0"}}, {"uniqueid": "MTK0507:3JPSL1DZ5T632DB126YVWDSVHONNAN", "current_trial": 224, "dateTime": 1511193549559, "trialdata": {"rt": -1, "stimulus": "<p id=\"stim\">PARROT</p>", "key_press": -1, "type": "PRES_VIS", "word": "parrot", "wordID": 1014, "conditions": [24, 800, "v", 12000], "trial": 5, "serialpos": 15, "trial_type": "single-stim", "trial_index": 224, "time_elapsed": 927018, "internal_node_id": "0.0-170.0"}}, {"uniqueid": "MTK0507:3JPSL1DZ5T632DB126YVWDSVHONNAN", "current_trial": 225, "dateTime": 1511193551513, "trialdata": {"rt": -1, "stimulus": "<p id=\"stim\">TOMBSTONE</p>", "key_press": -1, "type": "PRES_VIS", "word": "tombstone", "wordID": 1477, "conditions": [24, 800, "v", 12000], "trial": 5, "serialpos": 16, "trial_type": "single-stim", "trial_index": 225, "time_elapsed": 928971, "internal_node_id": "0.0-171.0"}}, {"uniqueid": "MTK0507:3JPSL1DZ5T632DB126YVWDSVHONNAN", "current_trial": 226, "dateTime": 1511193553157, "trialdata": {"rt": -1, "stimulus": "<p id=\"stim\">HAWK</p>", "key_press": -1, "type": "PRES_VIS", "word": "hawk", "wordID": 691, "conditions": [24, 800, "v", 12000], "trial": 5, "serialpos": 17, "trial_type": "single-stim", "trial_index": 226, "time_elapsed": 930616, "internal_node_id": "0.0-172.0"}}, {"uniqueid": "MTK0507:3JPSL1DZ5T632DB126YVWDSVHONNAN", "current_trial": 227, "dateTime": 1511193554802, "trialdata": {"rt": -1, "stimulus": "<p id=\"stim\">CRATER</p>", "key_press": -1, "type": "PRES_VIS", "word": "crater", "wordID": 399, "conditions": [24, 800, "v", 12000], "trial": 5, "serialpos": 18, "trial_type": "single-stim", "trial_index": 227, "time_elapsed": 932260, "internal_node_id": "0.0-173.0"}}, {"uniqueid": "MTK0507:3JPSL1DZ5T632DB126YVWDSVHONNAN", "current_trial": 228, "dateTime": 1511193556743, "trialdata": {"rt": -1, "stimulus": "<p id=\"stim\">SANDWICH</p>", "key_press": -1, "type": "PRES_VIS", "word": "sandwich", "wordID": 1231, "conditions": [24, 800, "v", 12000], "trial": 5, "serialpos": 19, "trial_type": "single-stim", "trial_index": 228, "time_elapsed": 934201, "internal_node_id": "0.0-174.0"}}, {"uniqueid": "MTK0507:3JPSL1DZ5T632DB126YVWDSVHONNAN", "current_trial": 229, "dateTime": 1511193558708, "trialdata": {"rt": -1, "stimulus": "<p id=\"stim\">TWEEZERS</p>", "key_press": -1, "type": "PRES_VIS", "word": "tweezers", "wordID": 1525, "conditions": [24, 800, "v", 12000], "trial": 5, "serialpos": 20, "trial_type": "single-stim", "trial_index": 229, "time_elapsed": 936167, "internal_node_id": "0.0-175.0"}}, {"uniqueid": "MTK0507:3JPSL1DZ5T632DB126YVWDSVHONNAN", "current_trial": 230, "dateTime": 1511193560698, "trialdata": {"rt": -1, "stimulus": "<p id=\"stim\">PLIERS</p>", "key_press": -1, "type": "PRES_VIS", "word": "pliers", "wordID": 1088, "conditions": [24, 800, "v", 12000], "trial": 5, "serialpos": 21, "trial_type": "single-stim", "trial_index": 230, "time_elapsed": 938157, "internal_node_id": "0.0-176.0"}}, {"uniqueid": "MTK0507:3JPSL1DZ5T632DB126YVWDSVHONNAN", "current_trial": 231, "dateTime": 1511193562323, "trialdata": {"rt": -1, "stimulus": "<p id=\"stim\">RABBIT</p>", "key_press": -1, "type": "PRES_VIS", "word": "rabbit", "wordID": 1151, "conditions": [24, 800, "v", 12000], "trial": 5, "serialpos": 22, "trial_type": "single-stim", "trial_index": 231, "time_elapsed": 939781, "internal_node_id": "0.0-177.0"}}, {"uniqueid": "MTK0507:3JPSL1DZ5T632DB126YVWDSVHONNAN", "current_trial": 232, "dateTime": 1511193564032, "trialdata": {"rt": -1, "stimulus": "<p id=\"stim\">GYMNAST</p>", "key_press": -1, "type": "PRES_VIS", "word": "gymnast", "wordID": 674, "conditions": [24, 800, "v", 12000], "trial": 5, "serialpos": 23, "trial_type": "single-stim", "trial_index": 232, "time_elapsed": 941491, "internal_node_id": "0.0-178.0"}}, {"uniqueid": "MTK0507:3JPSL1DZ5T632DB126YVWDSVHONNAN", "current_trial": 233, "dateTime": 1511193566339, "trialdata": {"rt": -1, "stimulus": "", "key_press": -1, "type": "PRE_RECALL_DELAY", "trial_type": "single-stim", "trial_index": 233, "time_elapsed": 943798, "internal_node_id": "0.0-179.0-0.0"}}, {"uniqueid": "MTK0507:3JPSL1DZ5T632DB126YVWDSVHONNAN", "current_trial": 234, "dateTime": 1511193566842, "trialdata": {"rt": -1000, "stimulus": "/static/audio/400Hz.wav", "key_press": -1, "type": "PRE_RECALL_ALERT", "trial_type": "single-audio", "trial_index": 234, "time_elapsed": 944301, "internal_node_id": "0.0-180.0"}}, {"uniqueid": "MTK0507:3JPSL1DZ5T632DB126YVWDSVHONNAN", "current_trial": 235, "dateTime": 1511193626856, "trialdata": {"rt": [1688, 4095, 5549, 6610, 8413, 9379, 17006], "recwords": ["rabbit", "gymnast", "mummy", "atlas", "tombstone", "crater", "garden"], "type": "FREE_RECALL", "conditions": [24, 800, "v", 12000], "trial": 5, "trial_type": "free-recall", "trial_index": 235, "time_elapsed": 1004306, "internal_node_id": "0.0-181.0-0.0"}}, {"uniqueid": "MTK0507:3JPSL1DZ5T632DB126YVWDSVHONNAN", "current_trial": 236, "dateTime": 1511193632533, "trialdata": {"rt": 3674, "key_press": 32, "type": "INSTRUCTIONS", "trial_type": "text", "trial_index": 236, "time_elapsed": 1009992, "internal_node_id": "0.0-182.0"}}, {"uniqueid": "MTK0507:3JPSL1DZ5T632DB126YVWDSVHONNAN", "current_trial": 237, "dateTime": 1511193658555, "trialdata": {"rt": [3140, 5255, 7912, 10193, 13304, 18307, 21201, 23039], "responses": ["12", "8", "20", "23", "16", "22", "10", "14"], "num1": [5, 3, 6, 9, 3, 7, 3, 7, 2], "num2": [4, 1, 8, 8, 8, 8, 1, 5, 5], "num3": [3, 4, 6, 6, 5, 7, 6, 2, 9], "type": "DISTRACTOR", "conditions": [24, 1600, "a", 24000], "trial": 6, "trial_type": "math-distractor", "trial_index": 237, "time_elapsed": 1036013, "internal_node_id": "0.0-183.0"}}, {"uniqueid": "MTK0507:3JPSL1DZ5T632DB126YVWDSVHONNAN", "current_trial": 238, "dateTime": 1511193661558, "trialdata": {"rt": -1, "stimulus": "<p id=\"stim\">10</p>", "key_press": -1, "trial_type": "single-stim", "trial_index": 238, "time_elapsed": 1039016, "internal_node_id": "0.0-184.0-0.0"}}, {"uniqueid": "MTK0507:3JPSL1DZ5T632DB126YVWDSVHONNAN", "current_trial": 239, "dateTime": 1511193662560, "trialdata": {"rt": -1, "stimulus": "<p id=\"stim\">9</p>", "key_press": -1, "trial_type": "single-stim", "trial_index": 239, "time_elapsed": 1040019, "internal_node_id": "0.0-184.0-1.0"}}, {"uniqueid": "MTK0507:3JPSL1DZ5T632DB126YVWDSVHONNAN", "current_trial": 240, "dateTime": 1511193663563, "trialdata": {"rt": -1, "stimulus": "<p id=\"stim\">8</p>", "key_press": -1, "trial_type": "single-stim", "trial_index": 240, "time_elapsed": 1041022, "internal_node_id": "0.0-184.0-2.0"}}, {"uniqueid": "MTK0507:3JPSL1DZ5T632DB126YVWDSVHONNAN", "current_trial": 241, "dateTime": 1511193664566, "trialdata": {"rt": -1, "stimulus": "<p id=\"stim\">7</p>", "key_press": -1, "trial_type": "single-stim", "trial_index": 241, "time_elapsed": 1042025, "internal_node_id": "0.0-184.0-3.0"}}, {"uniqueid": "MTK0507:3JPSL1DZ5T632DB126YVWDSVHONNAN", "current_trial": 242, "dateTime": 1511193665569, "trialdata": {"rt": -1, "stimulus": "<p id=\"stim\">6</p>", "key_press": -1, "trial_type": "single-stim", "trial_index": 242, "time_elapsed": 1043027, "internal_node_id": "0.0-184.0-4.0"}}, {"uniqueid": "MTK0507:3JPSL1DZ5T632DB126YVWDSVHONNAN", "current_trial": 243, "dateTime": 1511193666573, "trialdata": {"rt": -1, "stimulus": "<p id=\"stim\">5</p>", "key_press": -1, "trial_type": "single-stim", "trial_index": 243, "time_elapsed": 1044031, "internal_node_id": "0.0-184.0-5.0"}}, {"uniqueid": "MTK0507:3JPSL1DZ5T632DB126YVWDSVHONNAN", "current_trial": 244, "dateTime": 1511193667576, "trialdata": {"rt": -1, "stimulus": "<p id=\"stim\">4</p>", "key_press": -1, "trial_type": "single-stim", "trial_index": 244, "time_elapsed": 1045034, "internal_node_id": "0.0-184.0-6.0"}}, {"uniqueid": "MTK0507:3JPSL1DZ5T632DB126YVWDSVHONNAN", "current_trial": 245, "dateTime": 1511193668581, "trialdata": {"rt": -1, "stimulus": "<p id=\"stim\">3</p>", "key_press": -1, "trial_type": "single-stim", "trial_index": 245, "time_elapsed": 1046039, "internal_node_id": "0.0-184.0-7.0"}}, {"uniqueid": "MTK0507:3JPSL1DZ5T632DB126YVWDSVHONNAN", "current_trial": 246, "dateTime": 1511193669584, "trialdata": {"rt": -1, "stimulus": "<p id=\"stim\">2</p>", "key_press": -1, "trial_type": "single-stim", "trial_index": 246, "time_elapsed": 1047043, "internal_node_id": "0.0-184.0-8.0"}}, {"uniqueid": "MTK0507:3JPSL1DZ5T632DB126YVWDSVHONNAN", "current_trial": 247, "dateTime": 1511193670587, "trialdata": {"rt": -1, "stimulus": "<p id=\"stim\">1</p>", "key_press": -1, "trial_type": "single-stim", "trial_index": 247, "time_elapsed": 1048045, "internal_node_id": "0.0-184.0-9.0"}}, {"uniqueid": "MTK0507:3JPSL1DZ5T632DB126YVWDSVHONNAN", "current_trial": 248, "dateTime": 1511193672089, "trialdata": {"rt": -1, "stimulus": "<p id=\"stim\">+</p>", "key_press": -1, "type": "FIXATION", "trial_type": "single-stim", "trial_index": 248, "time_elapsed": 1049548, "internal_node_id": "0.0-185.0-0.0"}}, {"uniqueid": "MTK0507:3JPSL1DZ5T632DB126YVWDSVHONNAN", "current_trial": 249, "dateTime": 1511193674843, "trialdata": {"rt": -1000, "stimulus": "/static/audio/wordpool/OYSTER.wav", "key_press": -1, "type": "PRES_AUD", "word": "oyster", "wordID": 994, "conditions": [24, 1600, "a", 24000], "trial": 6, "serialpos": 0, "trial_type": "single-audio", "trial_index": 249, "time_elapsed": 1052302, "internal_node_id": "0.0-186.0"}}, {"uniqueid": "MTK0507:3JPSL1DZ5T632DB126YVWDSVHONNAN", "current_trial": 250, "dateTime": 1511193677557, "trialdata": {"rt": -1000, "stimulus": "/static/audio/wordpool/FRAGRANCE.wav", "key_press": -1, "type": "PRES_AUD", "word": "fragrance", "wordID": 598, "conditions": [24, 1600, "a", 24000], "trial": 6, "serialpos": 1, "trial_type": "single-audio", "trial_index": 250, "time_elapsed": 1055016, "internal_node_id": "0.0-187.0"}}, {"uniqueid": "MTK0507:3JPSL1DZ5T632DB126YVWDSVHONNAN", "current_trial": 251, "dateTime": 1511193680237, "trialdata": {"rt": -1000, "stimulus": "/static/audio/wordpool/LUGGAGE.wav", "key_press": -1, "type": "PRES_AUD", "word": "luggage", "wordID": 846, "conditions": [24, 1600, "a", 24000], "trial": 6, "serialpos": 2, "trial_type": "single-audio", "trial_index": 251, "time_elapsed": 1057695, "internal_node_id": "0.0-188.0"}}, {"uniqueid": "MTK0507:3JPSL1DZ5T632DB126YVWDSVHONNAN", "current_trial": 252, "dateTime": 1511193682878, "trialdata": {"rt": -1000, "stimulus": "/static/audio/wordpool/CRAB.wav", "key_press": -1, "type": "PRES_AUD", "word": "crab", "wordID": 396, "conditions": [24, 1600, "a", 24000], "trial": 6, "serialpos": 3, "trial_type": "single-audio", "trial_index": 252, "time_elapsed": 1060334, "internal_node_id": "0.0-189.0"}}, {"uniqueid": "MTK0507:3JPSL1DZ5T632DB126YVWDSVHONNAN", "current_trial": 253, "dateTime": 1511193685297, "trialdata": {"rt": -1000, "stimulus": "/static/audio/wordpool/ANKLE.wav", "key_press": -1, "type": "PRES_AUD", "word": "ankle", "wordID": 23, "conditions": [24, 1600, "a", 24000], "trial": 6, "serialpos": 4, "trial_type": "single-audio", "trial_index": 253, "time_elapsed": 1062755, "internal_node_id": "0.0-190.0"}}, {"uniqueid": "MTK0507:3JPSL1DZ5T632DB126YVWDSVHONNAN", "current_trial": 254, "dateTime": 1511193687840, "trialdata": {"rt": -1000, "stimulus": "/static/audio/wordpool/SHOULDER.wav", "key_press": -1, "type": "PRES_AUD", "word": "shoulder", "wordID": 1293, "conditions": [24, 1600, "a", 24000], "trial": 6, "serialpos": 5, "trial_type": "single-audio", "trial_index": 254, "time_elapsed": 1065299, "internal_node_id": "0.0-191.0"}}, {"uniqueid": "MTK0507:3JPSL1DZ5T632DB126YVWDSVHONNAN", "current_trial": 255, "dateTime": 1511193690283, "trialdata": {"rt": -1000, "stimulus": "/static/audio/wordpool/PUPPY.wav", "key_press": -1, "type": "PRES_AUD", "word": "puppy", "wordID": 1143, "conditions": [24, 1600, "a", 24000], "trial": 6, "serialpos": 6, "trial_type": "single-audio", "trial_index": 255, "time_elapsed": 1067742, "internal_node_id": "0.0-192.0"}}, {"uniqueid": "MTK0507:3JPSL1DZ5T632DB126YVWDSVHONNAN", "current_trial": 256, "dateTime": 1511193693011, "trialdata": {"rt": -1000, "stimulus": "/static/audio/wordpool/TART.wav", "key_press": -1, "type": "PRES_AUD", "word": "tart", "wordID": 1435, "conditions": [24, 1600, "a", 24000], "trial": 6, "serialpos": 7, "trial_type": "single-audio", "trial_index": 256, "time_elapsed": 1070470, "internal_node_id": "0.0-193.0"}}, {"uniqueid": "MTK0507:3JPSL1DZ5T632DB126YVWDSVHONNAN", "current_trial": 257, "dateTime": 1511193695751, "trialdata": {"rt": -1000, "stimulus": "/static/audio/wordpool/SWITCH.wav", "key_press": -1, "type": "PRES_AUD", "word": "switch", "wordID": 1421, "conditions": [24, 1600, "a", 24000], "trial": 6, "serialpos": 8, "trial_type": "single-audio", "trial_index": 257, "time_elapsed": 1073210, "internal_node_id": "0.0-194.0"}}, {"uniqueid": "MTK0507:3JPSL1DZ5T632DB126YVWDSVHONNAN", "current_trial": 258, "dateTime": 1511193698297, "trialdata": {"rt": -1000, "stimulus": "/static/audio/wordpool/TOASTER.wav", "key_press": -1, "type": "PRES_AUD", "word": "toaster", "wordID": 1471, "conditions": [24, 1600, "a", 24000], "trial": 6, "serialpos": 9, "trial_type": "single-audio", "trial_index": 258, "time_elapsed": 1075755, "internal_node_id": "0.0-195.0"}}, {"uniqueid": "MTK0507:3JPSL1DZ5T632DB126YVWDSVHONNAN", "current_trial": 259, "dateTime": 1511193700869, "trialdata": {"rt": -1000, "stimulus": "/static/audio/wordpool/RACKET.wav", "key_press": -1, "type": "PRES_AUD", "word": "racket", "wordID": 1154, "conditions": [24, 1600, "a", 24000], "trial": 6, "serialpos": 10, "trial_type": "single-audio", "trial_index": 259, "time_elapsed": 1078328, "internal_node_id": "0.0-196.0"}}, {"uniqueid": "MTK0507:3JPSL1DZ5T632DB126YVWDSVHONNAN", "current_trial": 260, "dateTime": 1511193703303, "trialdata": {"rt": -1000, "stimulus": "/static/audio/wordpool/SHORTCAKE.wav", "key_press": -1, "type": "PRES_AUD", "word": "shortcake", "wordID": 1291, "conditions": [24, 1600, "a", 24000], "trial": 6, "serialpos": 11, "trial_type": "single-audio", "trial_index": 260, "time_elapsed": 1080761, "internal_node_id": "0.0-197.0"}}, {"uniqueid": "MTK0507:3JPSL1DZ5T632DB126YVWDSVHONNAN", "current_trial": 261, "dateTime": 1511193705836, "trialdata": {"rt": -1000, "stimulus": "/static/audio/wordpool/GIFT.wav", "key_press": -1, "type": "PRES_AUD", "word": "gift", "wordID": 634, "conditions": [24, 1600, "a", 24000], "trial": 6, "serialpos": 12, "trial_type": "single-audio", "trial_index": 261, "time_elapsed": 1083295, "internal_node_id": "0.0-198.0"}}, {"uniqueid": "MTK0507:3JPSL1DZ5T632DB126YVWDSVHONNAN", "current_trial": 262, "dateTime": 1511193708297, "trialdata": {"rt": -1000, "stimulus": "/static/audio/wordpool/INFANT.wav", "key_press": -1, "type": "PRES_AUD", "word": "infant", "wordID": 736, "conditions": [24, 1600, "a", 24000], "trial": 6, "serialpos": 13, "trial_type": "single-audio", "trial_index": 262, "time_elapsed": 1085756, "internal_node_id": "0.0-199.0"}}, {"uniqueid": "MTK0507:3JPSL1DZ5T632DB126YVWDSVHONNAN", "current_trial": 263, "dateTime": 1511193711093, "trialdata": {"rt": -1000, "stimulus": "/static/audio/wordpool/MILK.wav", "key_press": -1, "type": "PRES_AUD", "word": "milk", "wordID": 894, "conditions": [24, 1600, "a", 24000], "trial": 6, "serialpos": 14, "trial_type": "single-audio", "trial_index": 263, "time_elapsed": 1088551, "internal_node_id": "0.0-200.0"}}, {"uniqueid": "MTK0507:3JPSL1DZ5T632DB126YVWDSVHONNAN", "current_trial": 264, "dateTime": 1511193713747, "trialdata": {"rt": -1000, "stimulus": "/static/audio/wordpool/DONKEY.wav", "key_press": -1, "type": "PRES_AUD", "word": "donkey", "wordID": 483, "conditions": [24, 1600, "a", 24000], "trial": 6, "serialpos": 15, "trial_type": "single-audio", "trial_index": 264, "time_elapsed": 1091205, "internal_node_id": "0.0-201.0"}}, {"uniqueid": "MTK0507:3JPSL1DZ5T632DB126YVWDSVHONNAN", "current_trial": 265, "dateTime": 1511193716485, "trialdata": {"rt": -1000, "stimulus": "/static/audio/wordpool/CHILD.wav", "key_press": -1, "type": "PRES_AUD", "word": "child", "wordID": 298, "conditions": [24, 1600, "a", 24000], "trial": 6, "serialpos": 16, "trial_type": "single-audio", "trial_index": 265, "time_elapsed": 1093944, "internal_node_id": "0.0-202.0"}}, {"uniqueid": "MTK0507:3JPSL1DZ5T632DB126YVWDSVHONNAN", "current_trial": 266, "dateTime": 1511193719211, "trialdata": {"rt": -1000, "stimulus": "/static/audio/wordpool/TRUCK.wav", "key_press": -1, "type": "PRES_AUD", "word": "truck", "wordID": 1511, "conditions": [24, 1600, "a", 24000], "trial": 6, "serialpos": 17, "trial_type": "single-audio", "trial_index": 266, "time_elapsed": 1096670, "internal_node_id": "0.0-203.0"}}, {"uniqueid": "MTK0507:3JPSL1DZ5T632DB126YVWDSVHONNAN", "current_trial": 267, "dateTime": 1511193721687, "trialdata": {"rt": -1000, "stimulus": "/static/audio/wordpool/DRIVER.wav", "key_press": -1, "type": "PRES_AUD", "word": "driver", "wordID": 498, "conditions": [24, 1600, "a", 24000], "trial": 6, "serialpos": 18, "trial_type": "single-audio", "trial_index": 267, "time_elapsed": 1099146, "internal_node_id": "0.0-204.0"}}, {"uniqueid": "MTK05