{"condition": 0, "counterbalance": 994, "assignmentId": "3MRNMEIQW6DBCKBSA39I9MWCVLPDLU", "workerId": "MTK0092", "hitId": "322ZSN9Z5GRK8H2A0Z5E3PG3Z3I4TN", "currenttrial": 625, "bonus": 0, "data": [{"uniqueid": "MTK0092:3MRNMEIQW6DBCKBSA39I9MWCVLPDLU", "current_trial": 0, "dateTime": 1509139759548, "trialdata": {"rt": 597, "key_press": 32, "type": "INSTRUCTIONS", "trial_type": "text", "trial_index": 0, "time_elapsed": 600, "internal_node_id": "0.0-0.0"}}, {"uniqueid": "MTK0092:3MRNMEIQW6DBCKBSA39I9MWCVLPDLU", "current_trial": 1, "dateTime": 1509139760163, "trialdata": {"rt": 614, "key_press": 32, "type": "INSTRUCTIONS", "trial_type": "text", "trial_index": 1, "time_elapsed": 1216, "internal_node_id": "0.0-1.0"}}, {"uniqueid": "MTK0092:3MRNMEIQW6DBCKBSA39I9MWCVLPDLU", "current_trial": 2, "dateTime": 1509139769131, "trialdata": {"rt": [8960], "responses": ["ocean"], "type": "AUDIO_TEST", "trial_type": "audio-test", "trial_index": 2, "time_elapsed": 10184, "internal_node_id": "0.0-2.0"}}, {"uniqueid": "MTK0092:3MRNMEIQW6DBCKBSA39I9MWCVLPDLU", "current_trial": 3, "dateTime": 1509139775373, "trialdata": {"rt": [6236], "responses": ["crystal"], "type": "AUDIO_TEST", "trial_type": "audio-test", "trial_index": 3, "time_elapsed": 16426, "internal_node_id": "0.0-3.0"}}, {"uniqueid": "MTK0092:3MRNMEIQW6DBCKBSA39I9MWCVLPDLU", "current_trial": 4, "dateTime": 1509139780126, "trialdata": {"rt": [4748], "responses": ["spice"], "type": "AUDIO_TEST", "trial_type": "audio-test", "trial_index": 4, "time_elapsed": 21179, "internal_node_id": "0.0-4.0"}}, {"uniqueid": "MTK0092:3MRNMEIQW6DBCKBSA39I9MWCVLPDLU", "current_trial": 5, "dateTime": 1509139784181, "trialdata": {"rt": 3304, "key_press": 86, "type": "INSTRUCTIONS", "trial_type": "text", "trial_index": 5, "time_elapsed": 25234, "internal_node_id": "0.0-5.0"}}, {"uniqueid": "MTK0092:3MRNMEIQW6DBCKBSA39I9MWCVLPDLU", "current_trial": 6, "dateTime": 1509139824222, "trialdata": {"rt": 40039, "key_press": 32, "type": "INSTRUCTIONS", "trial_type": "text", "trial_index": 6, "time_elapsed": 65274, "internal_node_id": "0.0-6.0"}}, {"uniqueid": "MTK0092:3MRNMEIQW6DBCKBSA39I9MWCVLPDLU", "current_trial": 7, "dateTime": 1509139837707, "trialdata": {"rt": 13485, "key_press": 32, "type": "INSTRUCTIONS", "trial_type": "text", "trial_index": 7, "time_elapsed": 78760, "internal_node_id": "0.0-7.0"}}, {"uniqueid": "MTK0092:3MRNMEIQW6DBCKBSA39I9MWCVLPDLU", "current_trial": 8, "dateTime": 1509139851671, "trialdata": {"rt": 13963, "key_press": 32, "type": "INSTRUCTIONS", "trial_type": "text", "trial_index": 8, "time_elapsed": 92724, "internal_node_id": "0.0-8.0"}}, {"uniqueid": "MTK0092:3MRNMEIQW6DBCKBSA39I9MWCVLPDLU", "current_trial": 9, "dateTime": 1509139870678, "trialdata": {"rt": [3515, 6302, 9146, 11736, 14714], "responses": ["19", "20", "17", "10", "15"], "num1": [9, 5, 5, 1, 5, 5], "num2": [7, 6, 9, 4, 2, 7], "num3": [3, 9, 3, 5, 8, 1], "type": "DISTRACTOR", "conditions": [18, 1200, "v", 18000], "trial": 0, "trial_type": "math-distractor", "trial_index": 9, "time_elapsed": 111731, "internal_node_id": "0.0-9.0"}}, {"uniqueid": "MTK0092:3MRNMEIQW6DBCKBSA39I9MWCVLPDLU", "current_trial": 10, "dateTime": 1509139873682, "trialdata": {"rt": -1, "stimulus": "<p id=\"stim\">10</p>", "key_press": -1, "trial_type": "single-stim", "trial_index": 10, "time_elapsed": 114734, "internal_node_id": "0.0-10.0-0.0"}}, {"uniqueid": "MTK0092:3MRNMEIQW6DBCKBSA39I9MWCVLPDLU", "current_trial": 11, "dateTime": 1509139874683, "trialdata": {"rt": -1, "stimulus": "<p id=\"stim\">9</p>", "key_press": -1, "trial_type": "single-stim", "trial_index": 11, "time_elapsed": 115736, "internal_node_id": "0.0-10.0-1.0"}}, {"uniqueid": "MTK0092:3MRNMEIQW6DBCKBSA39I9MWCVLPDLU", "current_trial": 12, "dateTime": 1509139875684, "trialdata": {"rt": -1, "stimulus": "<p id=\"stim\">8</p>", "key_press": -1, "trial_type": "single-stim", "trial_index": 12, "time_elapsed": 116737, "internal_node_id": "0.0-10.0-2.0"}}, {"uniqueid": "MTK0092:3MRNMEIQW6DBCKBSA39I9MWCVLPDLU", "current_trial": 13, "dateTime": 1509139876685, "trialdata": {"rt": -1, "stimulus": "<p id=\"stim\">7</p>", "key_press": -1, "trial_type": "single-stim", "trial_index": 13, "time_elapsed": 117738, "internal_node_id": "0.0-10.0-3.0"}}, {"uniqueid": "MTK0092:3MRNMEIQW6DBCKBSA39I9MWCVLPDLU", "current_trial": 14, "dateTime": 1509139877686, "trialdata": {"rt": -1, "stimulus": "<p id=\"stim\">6</p>", "key_press": -1, "trial_type": "single-stim", "trial_index": 14, "time_elapsed": 118739, "internal_node_id": "0.0-10.0-4.0"}}, {"uniqueid": "MTK0092:3MRNMEIQW6DBCKBSA39I9MWCVLPDLU", "current_trial": 15, "dateTime": 1509139878688, "trialdata": {"rt": -1, "stimulus": "<p id=\"stim\">5</p>", "key_press": -1, "trial_type": "single-stim", "trial_index": 15, "time_elapsed": 119741, "internal_node_id": "0.0-10.0-5.0"}}, {"uniqueid": "MTK0092:3MRNMEIQW6DBCKBSA39I9MWCVLPDLU", "current_trial": 16, "dateTime": 1509139879689, "trialdata": {"rt": -1, "stimulus": "<p id=\"stim\">4</p>", "key_press": -1, "trial_type": "single-stim", "trial_index": 16, "time_elapsed": 120742, "internal_node_id": "0.0-10.0-6.0"}}, {"uniqueid": "MTK0092:3MRNMEIQW6DBCKBSA39I9MWCVLPDLU", "current_trial": 17, "dateTime": 1509139880690, "trialdata": {"rt": -1, "stimulus": "<p id=\"stim\">3</p>", "key_press": -1, "trial_type": "single-stim", "trial_index": 17, "time_elapsed": 121743, "internal_node_id": "0.0-10.0-7.0"}}, {"uniqueid": "MTK0092:3MRNMEIQW6DBCKBSA39I9MWCVLPDLU", "current_trial": 18, "dateTime": 1509139881691, "trialdata": {"rt": -1, "stimulus": "<p id=\"stim\">2</p>", "key_press": -1, "trial_type": "single-stim", "trial_index": 18, "time_elapsed": 122744, "internal_node_id": "0.0-10.0-8.0"}}, {"uniqueid": "MTK0092:3MRNMEIQW6DBCKBSA39I9MWCVLPDLU", "current_trial": 19, "dateTime": 1509139882692, "trialdata": {"rt": -1, "stimulus": "<p id=\"stim\">1</p>", "key_press": -1, "trial_type": "single-stim", "trial_index": 19, "time_elapsed": 123745, "internal_node_id": "0.0-10.0-9.0"}}, {"uniqueid": "MTK0092:3MRNMEIQW6DBCKBSA39I9MWCVLPDLU", "current_trial": 20, "dateTime": 1509139884193, "trialdata": {"rt": -1, "stimulus": "<p id=\"stim\">+</p>", "key_press": -1, "type": "FIXATION", "trial_type": "single-stim", "trial_index": 20, "time_elapsed": 125246, "internal_node_id": "0.0-11.0-0.0"}}, {"uniqueid": "MTK0092:3MRNMEIQW6DBCKBSA39I9MWCVLPDLU", "current_trial": 21, "dateTime": 1509139885394, "trialdata": {"rt": -1, "stimulus": "<p id=\"stim\">ROOSTER</p>", "key_press": -1, "type": "PRES_VIS", "word": "rooster", "wordID": 1208, "conditions": [18, 1200, "v", 18000], "trial": 0, "serialpos": 0, "trial_type": "single-stim", "trial_index": 21, "time_elapsed": 126447, "internal_node_id": "0.0-12.0"}}, {"uniqueid": "MTK0092:3MRNMEIQW6DBCKBSA39I9MWCVLPDLU", "current_trial": 22, "dateTime": 1509139887676, "trialdata": {"rt": -1, "stimulus": "<p id=\"stim\">CHILD</p>", "key_press": -1, "type": "PRES_VIS", "word": "child", "wordID": 298, "conditions": [18, 1200, "v", 18000], "trial": 0, "serialpos": 1, "trial_type": "single-stim", "trial_index": 22, "time_elapsed": 128729, "internal_node_id": "0.0-13.0"}}, {"uniqueid": "MTK0092:3MRNMEIQW6DBCKBSA39I9MWCVLPDLU", "current_trial": 23, "dateTime": 1509139889895, "trialdata": {"rt": -1, "stimulus": "<p id=\"stim\">PLATE</p>", "key_press": -1, "type": "PRES_VIS", "word": "plate", "wordID": 1085, "conditions": [18, 1200, "v", 18000], "trial": 0, "serialpos": 2, "trial_type": "single-stim", "trial_index": 23, "time_elapsed": 130948, "internal_node_id": "0.0-14.0"}}, {"uniqueid": "MTK0092:3MRNMEIQW6DBCKBSA39I9MWCVLPDLU", "current_trial": 24, "dateTime": 1509139892109, "trialdata": {"rt": -1, "stimulus": "<p id=\"stim\">ISLAND</p>", "key_press": -1, "type": "PRES_VIS", "word": "island", "wordID": 744, "conditions": [18, 1200, "v", 18000], "trial": 0, "serialpos": 3, "trial_type": "single-stim", "trial_index": 24, "time_elapsed": 133162, "internal_node_id": "0.0-15.0"}}, {"uniqueid": "MTK0092:3MRNMEIQW6DBCKBSA39I9MWCVLPDLU", "current_trial": 25, "dateTime": 1509139894292, "trialdata": {"rt": -1, "stimulus": "<p id=\"stim\">INMATE</p>", "key_press": -1, "type": "PRES_VIS", "word": "inmate", "wordID": 737, "conditions": [18, 1200, "v", 18000], "trial": 0, "serialpos": 4, "trial_type": "single-stim", "trial_index": 25, "time_elapsed": 135345, "internal_node_id": "0.0-16.0"}}, {"uniqueid": "MTK0092:3MRNMEIQW6DBCKBSA39I9MWCVLPDLU", "current_trial": 26, "dateTime": 1509139896601, "trialdata": {"rt": -1, "stimulus": "<p id=\"stim\">JELLY</p>", "key_press": -1, "type": "PRES_VIS", "word": "jelly", "wordID": 754, "conditions": [18, 1200, "v", 18000], "trial": 0, "serialpos": 5, "trial_type": "single-stim", "trial_index": 26, "time_elapsed": 137654, "internal_node_id": "0.0-17.0"}}, {"uniqueid": "MTK0092:3MRNMEIQW6DBCKBSA39I9MWCVLPDLU", "current_trial": 27, "dateTime": 1509139898743, "trialdata": {"rt": -1, "stimulus": "<p id=\"stim\">SUPPER</p>", "key_press": -1, "type": "PRES_VIS", "word": "supper", "wordID": 1410, "conditions": [18, 1200, "v", 18000], "trial": 0, "serialpos": 6, "trial_type": "single-stim", "trial_index": 27, "time_elapsed": 139796, "internal_node_id": "0.0-18.0"}}, {"uniqueid": "MTK0092:3MRNMEIQW6DBCKBSA39I9MWCVLPDLU", "current_trial": 28, "dateTime": 1509139900791, "trialdata": {"rt": -1, "stimulus": "<p id=\"stim\">OUTLAW</p>", "key_press": -1, "type": "PRES_VIS", "word": "outlaw", "wordID": 988, "conditions": [18, 1200, "v", 18000], "trial": 0, "serialpos": 7, "trial_type": "single-stim", "trial_index": 28, "time_elapsed": 141844, "internal_node_id": "0.0-19.0"}}, {"uniqueid": "MTK0092:3MRNMEIQW6DBCKBSA39I9MWCVLPDLU", "current_trial": 29, "dateTime": 1509139902857, "trialdata": {"rt": -1, "stimulus": "<p id=\"stim\">NEUTRON</p>", "key_press": -1, "type": "PRES_VIS", "word": "neutron", "wordID": 946, "conditions": [18, 1200, "v", 18000], "trial": 0, "serialpos": 8, "trial_type": "single-stim", "trial_index": 29, "time_elapsed": 143910, "internal_node_id": "0.0-20.0"}}, {"uniqueid": "MTK0092:3MRNMEIQW6DBCKBSA39I9MWCVLPDLU", "current_trial": 30, "dateTime": 1509139905156, "trialdata": {"rt": -1, "stimulus": "<p id=\"stim\">KLEENEX</p>", "key_press": -1, "type": "PRES_VIS", "word": "kleenex", "wordID": 781, "conditions": [18, 1200, "v", 18000], "trial": 0, "serialpos": 9, "trial_type": "single-stim", "trial_index": 30, "time_elapsed": 146209, "internal_node_id": "0.0-21.0"}}, {"uniqueid": "MTK0092:3MRNMEIQW6DBCKBSA39I9MWCVLPDLU", "current_trial": 31, "dateTime": 1509139907244, "trialdata": {"rt": -1, "stimulus": "<p id=\"stim\">BLADE</p>", "key_press": -1, "type": "PRES_VIS", "word": "blade", "wordID": 133, "conditions": [18, 1200, "v", 18000], "trial": 0, "serialpos": 10, "trial_type": "single-stim", "trial_index": 31, "time_elapsed": 148297, "internal_node_id": "0.0-22.0"}}, {"uniqueid": "MTK0092:3MRNMEIQW6DBCKBSA39I9MWCVLPDLU", "current_trial": 32, "dateTime": 1509139909586, "trialdata": {"rt": -1, "stimulus": "<p id=\"stim\">POLICE</p>", "key_press": -1, "type": "PRES_VIS", "word": "police", "wordID": 1097, "conditions": [18, 1200, "v", 18000], "trial": 0, "serialpos": 11, "trial_type": "single-stim", "trial_index": 32, "time_elapsed": 150639, "internal_node_id": "0.0-23.0"}}, {"uniqueid": "MTK0092:3MRNMEIQW6DBCKBSA39I9MWCVLPDLU", "current_trial": 33, "dateTime": 1509139911692, "trialdata": {"rt": -1, "stimulus": "<p id=\"stim\">SUNSET</p>", "key_press": -1, "type": "PRES_VIS", "word": "sunset", "wordID": 1407, "conditions": [18, 1200, "v", 18000], "trial": 0, "serialpos": 12, "trial_type": "single-stim", "trial_index": 33, "time_elapsed": 152745, "internal_node_id": "0.0-24.0"}}, {"uniqueid": "MTK0092:3MRNMEIQW6DBCKBSA39I9MWCVLPDLU", "current_trial": 34, "dateTime": 1509139913820, "trialdata": {"rt": -1, "stimulus": "<p id=\"stim\">WASP</p>", "key_press": -1, "type": "PRES_VIS", "word": "wasp", "wordID": 1592, "conditions": [18, 1200, "v", 18000], "trial": 0, "serialpos": 13, "trial_type": "single-stim", "trial_index": 34, "time_elapsed": 154873, "internal_node_id": "0.0-25.0"}}, {"uniqueid": "MTK0092:3MRNMEIQW6DBCKBSA39I9MWCVLPDLU", "current_trial": 35, "dateTime": 1509139915880, "trialdata": {"rt": -1, "stimulus": "<p id=\"stim\">LIPSTICK</p>", "key_press": -1, "type": "PRES_VIS", "word": "lipstick", "wordID": 828, "conditions": [18, 1200, "v", 18000], "trial": 0, "serialpos": 14, "trial_type": "single-stim", "trial_index": 35, "time_elapsed": 156933, "internal_node_id": "0.0-26.0"}}, {"uniqueid": "MTK0092:3MRNMEIQW6DBCKBSA39I9MWCVLPDLU", "current_trial": 36, "dateTime": 1509139918030, "trialdata": {"rt": -1, "stimulus": "<p id=\"stim\">CREVICE</p>", "key_press": -1, "type": "PRES_VIS", "word": "crevice", "wordID": 404, "conditions": [18, 1200, "v", 18000], "trial": 0, "serialpos": 15, "trial_type": "single-stim", "trial_index": 36, "time_elapsed": 159083, "internal_node_id": "0.0-27.0"}}, {"uniqueid": "MTK0092:3MRNMEIQW6DBCKBSA39I9MWCVLPDLU", "current_trial": 37, "dateTime": 1509139920380, "trialdata": {"rt": -1, "stimulus": "<p id=\"stim\">PORK</p>", "key_press": -1, "type": "PRES_VIS", "word": "pork", "wordID": 1107, "conditions": [18, 1200, "v", 18000], "trial": 0, "serialpos": 16, "trial_type": "single-stim", "trial_index": 37, "time_elapsed": 161433, "internal_node_id": "0.0-28.0"}}, {"uniqueid": "MTK0092:3MRNMEIQW6DBCKBSA39I9MWCVLPDLU", "current_trial": 38, "dateTime": 1509139922611, "trialdata": {"rt": -1, "stimulus": "<p id=\"stim\">SCALLOP</p>", "key_press": -1, "type": "PRES_VIS", "word": "scallop", "wordID": 1241, "conditions": [18, 1200, "v", 18000], "trial": 0, "serialpos": 17, "trial_type": "single-stim", "trial_index": 38, "time_elapsed": 163664, "internal_node_id": "0.0-29.0"}}, {"uniqueid": "MTK0092:3MRNMEIQW6DBCKBSA39I9MWCVLPDLU", "current_trial": 39, "dateTime": 1509139924975, "trialdata": {"rt": -1, "stimulus": "", "key_press": -1, "type": "PRE_RECALL_DELAY", "trial_type": "single-stim", "trial_index": 39, "time_elapsed": 166028, "internal_node_id": "0.0-30.0-0.0"}}, {"uniqueid": "MTK0092:3MRNMEIQW6DBCKBSA39I9MWCVLPDLU", "current_trial": 40, "dateTime": 1509139925478, "trialdata": {"rt": -1000, "stimulus": "/static/audio/400Hz.wav", "key_press": -1, "type": "PRE_RECALL_ALERT", "trial_type": "single-audio", "trial_index": 40, "time_elapsed": 166531, "internal_node_id": "0.0-31.0"}}, {"uniqueid": "MTK0092:3MRNMEIQW6DBCKBSA39I9MWCVLPDLU", "current_trial": 41, "dateTime": 1509139985486, "trialdata": {"rt": [2491, 4401, 14988, 26874, 28512, 35861, 37930, 40924, 41982], "recwords": ["pork", "scallop", "scallwag", "lip", "stick", "child", "neutron", "jelly", "supper"], "type": "FREE_RECALL", "conditions": [18, 1200, "v", 18000], "trial": 0, "trial_type": "free-recall", "trial_index": 41, "time_elapsed": 226537, "internal_node_id": "0.0-32.0-0.0"}}, {"uniqueid": "MTK0092:3MRNMEIQW6DBCKBSA39I9MWCVLPDLU", "current_trial": 42, "dateTime": 1509139988781, "trialdata": {"rt": 1294, "key_press": 13, "type": "INSTRUCTIONS", "trial_type": "text", "trial_index": 42, "time_elapsed": 229834, "internal_node_id": "0.0-33.0"}}, {"uniqueid": "MTK0092:3MRNMEIQW6DBCKBSA39I9MWCVLPDLU", "current_trial": 43, "dateTime": 1509140008783, "trialdata": {"rt": [4577, 7108, 9325, 11546, 15387], "responses": ["22", "16", "16", "16", "19"], "num1": [8, 5, 3, 2, 9, 9], "num2": [6, 3, 7, 9, 4, 9], "num3": [8, 8, 6, 5, 6, 6], "type": "DISTRACTOR", "conditions": [18, 1200, "a", 18000], "trial": 1, "trial_type": "math-distractor", "trial_index": 43, "time_elapsed": 249836, "internal_node_id": "0.0-34.0"}}, {"uniqueid": "MTK0092:3MRNMEIQW6DBCKBSA39I9MWCVLPDLU", "current_trial": 44, "dateTime": 1509140011785, "trialdata": {"rt": -1, "stimulus": "<p id=\"stim\">10</p>", "key_press": -1, "trial_type": "single-stim", "trial_index": 44, "time_elapsed": 252838, "internal_node_id": "0.0-35.0-0.0"}}, {"uniqueid": "MTK0092:3MRNMEIQW6DBCKBSA39I9MWCVLPDLU", "current_trial": 45, "dateTime": 1509140012787, "trialdata": {"rt": -1, "stimulus": "<p id=\"stim\">9</p>", "key_press": -1, "trial_type": "single-stim", "trial_index": 45, "time_elapsed": 253840, "internal_node_id": "0.0-35.0-1.0"}}, {"uniqueid": "MTK0092:3MRNMEIQW6DBCKBSA39I9MWCVLPDLU", "current_trial": 46, "dateTime": 1509140013788, "trialdata": {"rt": -1, "stimulus": "<p id=\"stim\">8</p>", "key_press": -1, "trial_type": "single-stim", "trial_index": 46, "time_elapsed": 254841, "internal_node_id": "0.0-35.0-2.0"}}, {"uniqueid": "MTK0092:3MRNMEIQW6DBCKBSA39I9MWCVLPDLU", "current_trial": 47, "dateTime": 1509140014789, "trialdata": {"rt": -1, "stimulus": "<p id=\"stim\">7</p>", "key_press": -1, "trial_type": "single-stim", "trial_index": 47, "time_elapsed": 255842, "internal_node_id": "0.0-35.0-3.0"}}, {"uniqueid": "MTK0092:3MRNMEIQW6DBCKBSA39I9MWCVLPDLU", "current_trial": 48, "dateTime": 1509140015790, "trialdata": {"rt": -1, "stimulus": "<p id=\"stim\">6</p>", "key_press": -1, "trial_type": "single-stim", "trial_index": 48, "time_elapsed": 256843, "internal_node_id": "0.0-35.0-4.0"}}, {"uniqueid": "MTK0092:3MRNMEIQW6DBCKBSA39I9MWCVLPDLU", "current_trial": 49, "dateTime": 1509140016791, "trialdata": {"rt": -1, "stimulus": "<p id=\"stim\">5</p>", "key_press": -1, "trial_type": "single-stim", "trial_index": 49, "time_elapsed": 257844, "internal_node_id": "0.0-35.0-5.0"}}, {"uniqueid": "MTK0092:3MRNMEIQW6DBCKBSA39I9MWCVLPDLU", "current_trial": 50, "dateTime": 1509140017792, "trialdata": {"rt": -1, "stimulus": "<p id=\"stim\">4</p>", "key_press": -1, "trial_type": "single-stim", "trial_index": 50, "time_elapsed": 258845, "internal_node_id": "0.0-35.0-6.0"}}, {"uniqueid": "MTK0092:3MRNMEIQW6DBCKBSA39I9MWCVLPDLU", "current_trial": 51, "dateTime": 1509140018793, "trialdata": {"rt": -1, "stimulus": "<p id=\"stim\">3</p>", "key_press": -1, "trial_type": "single-stim", "trial_index": 51, "time_elapsed": 259846, "internal_node_id": "0.0-35.0-7.0"}}, {"uniqueid": "MTK0092:3MRNMEIQW6DBCKBSA39I9MWCVLPDLU", "current_trial": 52, "dateTime": 1509140019794, "trialdata": {"rt": -1, "stimulus": "<p id=\"stim\">2</p>", "key_press": -1, "trial_type": "single-stim", "trial_index": 52, "time_elapsed": 260847, "internal_node_id": "0.0-35.0-8.0"}}, {"uniqueid": "MTK0092:3MRNMEIQW6DBCKBSA39I9MWCVLPDLU", "current_trial": 53, "dateTime": 1509140020795, "trialdata": {"rt": -1, "stimulus": "<p id=\"stim\">1</p>", "key_press": -1, "trial_type": "single-stim", "trial_index": 53, "time_elapsed": 261848, "internal_node_id": "0.0-35.0-9.0"}}, {"uniqueid": "MTK0092:3MRNMEIQW6DBCKBSA39I9MWCVLPDLU", "current_trial": 54, "dateTime": 1509140022296, "trialdata": {"rt": -1, "stimulus": "<p id=\"stim\">+</p>", "key_press": -1, "type": "FIXATION", "trial_type": "single-stim", "trial_index": 54, "time_elapsed": 263349, "internal_node_id": "0.0-36.0-0.0"}}, {"uniqueid": "MTK0092:3MRNMEIQW6DBCKBSA39I9MWCVLPDLU", "current_trial": 55, "dateTime": 1509140024441, "trialdata": {"rt": -1000, "stimulus": "/static/audio/wordpool/PECAN.wav", "key_press": -1, "type": "PRES_AUD", "word": "pecan", "wordID": 1035, "conditions": [18, 1200, "a", 18000], "trial": 1, "serialpos": 0, "trial_type": "single-audio", "trial_index": 55, "time_elapsed": 265494, "internal_node_id": "0.0-37.0"}}, {"uniqueid": "MTK0092:3MRNMEIQW6DBCKBSA39I9MWCVLPDLU", "current_trial": 56, "dateTime": 1509140026681, "trialdata": {"rt": -1000, "stimulus": "/static/audio/wordpool/BULLET.wav", "key_press": -1, "type": "PRES_AUD", "word": "bullet", "wordID": 193, "conditions": [18, 1200, "a", 18000], "trial": 1, "serialpos": 1, "trial_type": "single-audio", "trial_index": 56, "time_elapsed": 267734, "internal_node_id": "0.0-38.0"}}, {"uniqueid": "MTK0092:3MRNMEIQW6DBCKBSA39I9MWCVLPDLU", "current_trial": 57, "dateTime": 1509140028969, "trialdata": {"rt": -1000, "stimulus": "/static/audio/wordpool/PATIENT.wav", "key_press": -1, "type": "PRES_AUD", "word": "patient", "wordID": 1023, "conditions": [18, 1200, "a", 18000], "trial": 1, "serialpos": 2, "trial_type": "single-audio", "trial_index": 57, "time_elapsed": 270022, "internal_node_id": "0.0-39.0"}}, {"uniqueid": "MTK0092:3MRNMEIQW6DBCKBSA39I9MWCVLPDLU", "current_trial": 58, "dateTime": 1509140031364, "trialdata": {"rt": -1000, "stimulus": "/static/audio/wordpool/JOURNAL.wav", "key_press": -1, "type": "PRES_AUD", "word": "journal", "wordID": 759, "conditions": [18, 1200, "a", 18000], "trial": 1, "serialpos": 3, "trial_type": "single-audio", "trial_index": 58, "time_elapsed": 272417, "internal_node_id": "0.0-40.0"}}, {"uniqueid": "MTK0092:3MRNMEIQW6DBCKBSA39I9MWCVLPDLU", "current_trial": 59, "dateTime": 1509140033558, "trialdata": {"rt": -1000, "stimulus": "/static/audio/wordpool/DAISY.wav", "key_press": -1, "type": "PRES_AUD", "word": "daisy", "wordID": 434, "conditions": [18, 1200, "a", 18000], "trial": 1, "serialpos": 4, "trial_type": "single-audio", "trial_index": 59, "time_elapsed": 274611, "internal_node_id": "0.0-41.0"}}, {"uniqueid": "MTK0092:3MRNMEIQW6DBCKBSA39I9MWCVLPDLU", "current_trial": 60, "dateTime": 1509140035826, "trialdata": {"rt": -1000, "stimulus": "/static/audio/wordpool/VIKING.wav", "key_press": -1, "type": "PRES_AUD", "word": "viking", "wordID": 1564, "conditions": [18, 1200, "a", 18000], "trial": 1, "serialpos": 5, "trial_type": "single-audio", "trial_index": 60, "time_elapsed": 276879, "internal_node_id": "0.0-42.0"}}, {"uniqueid": "MTK0092:3MRNMEIQW6DBCKBSA39I9MWCVLPDLU", "current_trial": 61, "dateTime": 1509140037873, "trialdata": {"rt": -1000, "stimulus": "/static/audio/wordpool/UNCLE.wav", "key_press": -1, "type": "PRES_AUD", "word": "uncle", "wordID": 1535, "conditions": [18, 1200, "a", 18000], "trial": 1, "serialpos": 6, "trial_type": "single-audio", "trial_index": 61, "time_elapsed": 278926, "internal_node_id": "0.0-43.0"}}, {"uniqueid": "MTK0092:3MRNMEIQW6DBCKBSA39I9MWCVLPDLU", "current_trial": 62, "dateTime": 1509140040029, "trialdata": {"rt": -1000, "stimulus": "/static/audio/wordpool/WAITER.wav", "key_press": -1, "type": "PRES_AUD", "word": "waiter", "wordID": 1579, "conditions": [18, 1200, "a", 18000], "trial": 1, "serialpos": 7, "trial_type": "single-audio", "trial_index": 62, "time_elapsed": 281082, "internal_node_id": "0.0-44.0"}}, {"uniqueid": "MTK0092:3MRNMEIQW6DBCKBSA39I9MWCVLPDLU", "current_trial": 63, "dateTime": 1509140042095, "trialdata": {"rt": -1000, "stimulus": "/static/audio/wordpool/TUBA.wav", "key_press": -1, "type": "PRES_AUD", "word": "tuba", "wordID": 1514, "conditions": [18, 1200, "a", 18000], "trial": 1, "serialpos": 8, "trial_type": "single-audio", "trial_index": 63, "time_elapsed": 283148, "internal_node_id": "0.0-45.0"}}, {"uniqueid": "MTK0092:3MRNMEIQW6DBCKBSA39I9MWCVLPDLU", "current_trial": 64, "dateTime": 1509140044366, "trialdata": {"rt": -1000, "stimulus": "/static/audio/wordpool/PADDING.wav", "key_press": -1, "type": "PRES_AUD", "word": "padding", "wordID": 998, "conditions": [18, 1200, "a", 18000], "trial": 1, "serialpos": 9, "trial_type": "single-audio", "trial_index": 64, "time_elapsed": 285419, "internal_node_id": "0.0-46.0"}}, {"uniqueid": "MTK0092:3MRNMEIQW6DBCKBSA39I9MWCVLPDLU", "current_trial": 65, "dateTime": 1509140046673, "trialdata": {"rt": -1000, "stimulus": "/static/audio/wordpool/TAXI.wav", "key_press": -1, "type": "PRES_AUD", "word": "taxi", "wordID": 1437, "conditions": [18, 1200, "a", 18000], "trial": 1, "serialpos": 10, "trial_type": "single-audio", "trial_index": 65, "time_elapsed": 287726, "internal_node_id": "0.0-47.0"}}, {"uniqueid": "MTK0092:3MRNMEIQW6DBCKBSA39I9MWCVLPDLU", "current_trial": 66, "dateTime": 1509140048893, "trialdata": {"rt": -1000, "stimulus": "/static/audio/wordpool/ANKLE.wav", "key_press": -1, "type": "PRES_AUD", "word": "ankle", "wordID": 23, "conditions": [18, 1200, "a", 18000], "trial": 1, "serialpos": 11, "trial_type": "single-audio", "trial_index": 66, "time_elapsed": 289946, "internal_node_id": "0.0-48.0"}}, {"uniqueid": "MTK0092:3MRNMEIQW6DBCKBSA39I9MWCVLPDLU", "current_trial": 67, "dateTime": 1509140051201, "trialdata": {"rt": -1000, "stimulus": "/static/audio/wordpool/HOUND.wav", "key_press": -1, "type": "PRES_AUD", "word": "hound", "wordID": 723, "conditions": [18, 1200, "a", 18000], "trial": 1, "serialpos": 12, "trial_type": "single-audio", "trial_index": 67, "time_elapsed": 292254, "internal_node_id": "0.0-49.0"}}, {"uniqueid": "MTK0092:3MRNMEIQW6DBCKBSA39I9MWCVLPDLU", "current_trial": 68, "dateTime": 1509140053492, "trialdata": {"rt": -1000, "stimulus": "/static/audio/wordpool/STUDENT.wav", "key_press": -1, "type": "PRES_AUD", "word": "student", "wordID": 1394, "conditions": [18, 1200, "a", 18000], "trial": 1, "serialpos": 13, "trial_type": "single-audio", "trial_index": 68, "time_elapsed": 294543, "internal_node_id": "0.0-50.0"}}, {"uniqueid": "MTK0092:3MRNMEIQW6DBCKBSA39I9MWCVLPDLU", "current_trial": 69, "dateTime": 1509140055687, "trialdata": {"rt": -1000, "stimulus": "/static/audio/wordpool/CAFE.wav", "key_press": -1, "type": "PRES_AUD", "word": "cafe", "wordID": 215, "conditions": [18, 1200, "a", 18000], "trial": 1, "serialpos": 14, "trial_type": "single-audio", "trial_index": 69, "time_elapsed": 296740, "internal_node_id": "0.0-51.0"}}, {"uniqueid": "MTK0092:3MRNMEIQW6DBCKBSA39I9MWCVLPDLU", "current_trial": 70, "dateTime": 1509140057712, "trialdata": {"rt": -1000, "stimulus": "/static/audio/wordpool/FRANCE.wav", "key_press": -1, "type": "PRES_AUD", "word": "france", "wordID": 600, "conditions": [18, 1200, "a", 18000], "trial": 1, "serialpos": 15, "trial_type": "single-audio", "trial_index": 70, "time_elapsed": 298765, "internal_node_id": "0.0-52.0"}}, {"uniqueid": "MTK0092:3MRNMEIQW6DBCKBSA39I9MWCVLPDLU", "current_trial": 71, "dateTime": 1509140059787, "trialdata": {"rt": -1000, "stimulus": "/static/audio/wordpool/SCULPTURE.wav", "key_press": -1, "type": "PRES_AUD", "word": "sculpture", "wordID": 1257, "conditions": [18, 1200, "a", 18000], "trial": 1, "serialpos": 16, "trial_type": "single-audio", "trial_index": 71, "time_elapsed": 300840, "internal_node_id": "0.0-53.0"}}, {"uniqueid": "MTK0092:3MRNMEIQW6DBCKBSA39I9MWCVLPDLU", "current_trial": 72, "dateTime": 1509140062084, "trialdata": {"rt": -1000, "stimulus": "/static/audio/wordpool/PUDDING.wav", "key_press": -1, "type": "PRES_AUD", "word": "pudding", "wordID": 1138, "conditions": [18, 1200, "a", 18000], "trial": 1, "serialpos": 17, "trial_type": "single-audio", "trial_index": 72, "time_elapsed": 303137, "internal_node_id": "0.0-54.0"}}, {"uniqueid": "MTK0092:3MRNMEIQW6DBCKBSA39I9MWCVLPDLU", "current_trial": 73, "dateTime": 1509140063352, "trialdata": {"rt": -1, "stimulus": "", "key_press": -1, "type": "PRE_RECALL_DELAY", "trial_type": "single-stim", "trial_index": 73, "time_elapsed": 304405, "internal_node_id": "0.0-55.0-0.0"}}, {"uniqueid": "MTK0092:3MRNMEIQW6DBCKBSA39I9MWCVLPDLU", "current_trial": 74, "dateTime": 1509140063853, "trialdata": {"rt": -1000, "stimulus": "/static/audio/400Hz.wav", "key_press": -1, "type": "PRE_RECALL_ALERT", "trial_type": "single-audio", "trial_index": 74, "time_elapsed": 304906, "internal_node_id": "0.0-56.0"}}, {"uniqueid": "MTK0092:3MRNMEIQW6DBCKBSA39I9MWCVLPDLU", "current_trial": 75, "dateTime": 1509140123859, "trialdata": {"rt": [2769, 3864, 7219, 12287, 20579, 34410, 41913, 54357], "recwords": ["pudding", "france", "sculpture", "taxi", "taxi", "scallop", "pudding", "mixture"], "type": "FREE_RECALL", "conditions": [18, 1200, "a", 18000], "trial": 1, "trial_type": "free-recall", "trial_index": 75, "time_elapsed": 364909, "internal_node_id": "0.0-57.0-0.0"}}, {"uniqueid": "MTK0092:3MRNMEIQW6DBCKBSA39I9MWCVLPDLU", "current_trial": 76, "dateTime": 1509140128103, "trialdata": {"rt": 2242, "key_press": 32, "type": "INSTRUCTIONS", "trial_type": "text", "trial_index": 76, "time_elapsed": 369156, "internal_node_id": "0.0-58.0"}}, {"uniqueid": "MTK0092:3MRNMEIQW6DBCKBSA39I9MWCVLPDLU", "current_trial": 77, "dateTime": 1509140153107, "trialdata": {"rt": [3879, 6139, 9331, 11579, 14552, 18009], "responses": ["18", "14", "23", "14", "22", "20"], "num1": [8, 4, 7, 9, 8, 7, 7], "num2": [9, 2, 7, 3, 7, 4, 8], "num3": [1, 8, 9, 2, 7, 9, 9], "type": "DISTRACTOR", "conditions": [12, 800, "a", 24000], "trial": 2, "trial_type": "math-distractor", "trial_index": 77, "time_elapsed": 394160, "internal_node_id": "0.0-59.0"}}, {"uniqueid": "MTK0092:3MRNMEIQW6DBCKBSA39I9MWCVLPDLU", "current_trial": 78, "dateTime": 1509140156109, "trialdata": {"rt": -1, "stimulus": "<p id=\"stim\">10</p>", "key_press": -1, "trial_type": "single-stim", "trial_index": 78, "time_elapsed": 397162, "internal_node_id": "0.0-60.0-0.0"}}, {"uniqueid": "MTK0092:3MRNMEIQW6DBCKBSA39I9MWCVLPDLU", "current_trial": 79, "dateTime": 1509140157110, "trialdata": {"rt": -1, "stimulus": "<p id=\"stim\">9</p>", "key_press": -1, "trial_type": "single-stim", "trial_index": 79, "time_elapsed": 398163, "internal_node_id": "0.0-60.0-1.0"}}, {"uniqueid": "MTK0092:3MRNMEIQW6DBCKBSA39I9MWCVLPDLU", "current_trial": 80, "dateTime": 1509140158111, "trialdata": {"rt": -1, "stimulus": "<p id=\"stim\">8</p>", "key_press": -1, "trial_type": "single-stim", "trial_index": 80, "time_elapsed": 399164, "internal_node_id": "0.0-60.0-2.0"}}, {"uniqueid": "MTK0092:3MRNMEIQW6DBCKBSA39I9MWCVLPDLU", "current_trial": 81, "dateTime": 1509140159112, "trialdata": {"rt": -1, "stimulus": "<p id=\"stim\">7</p>", "key_press": -1, "trial_type": "single-stim", "trial_index": 81, "time_elapsed": 400165, "internal_node_id": "0.0-60.0-3.0"}}, {"uniqueid": "MTK0092:3MRNMEIQW6DBCKBSA39I9MWCVLPDLU", "current_trial": 82, "dateTime": 1509140160113, "trialdata": {"rt": -1, "stimulus": "<p id=\"stim\">6</p>", "key_press": -1, "trial_type": "single-stim", "trial_index": 82, "time_elapsed": 401166, "internal_node_id": "0.0-60.0-4.0"}}, {"uniqueid": "MTK0092:3MRNMEIQW6DBCKBSA39I9MWCVLPDLU", "current_trial": 83, "dateTime": 1509140161114, "trialdata": {"rt": -1, "stimulus": "<p id=\"stim\">5</p>", "key_press": -1, "trial_type": "single-stim", "trial_index": 83, "time_elapsed": 402167, "internal_node_id": "0.0-60.0-5.0"}}, {"uniqueid": "MTK0092:3MRNMEIQW6DBCKBSA39I9MWCVLPDLU", "current_trial": 84, "dateTime": 1509140162115, "trialdata": {"rt": -1, "stimulus": "<p id=\"stim\">4</p>", "key_press": -1, "trial_type": "single-stim", "trial_index": 84, "time_elapsed": 403168, "internal_node_id": "0.0-60.0-6.0"}}, {"uniqueid": "MTK0092:3MRNMEIQW6DBCKBSA39I9MWCVLPDLU", "current_trial": 85, "dateTime": 1509140163116, "trialdata": {"rt": -1, "stimulus": "<p id=\"stim\">3</p>", "key_press": -1, "trial_type": "single-stim", "trial_index": 85, "time_elapsed": 404169, "internal_node_id": "0.0-60.0-7.0"}}, {"uniqueid": "MTK0092:3MRNMEIQW6DBCKBSA39I9MWCVLPDLU", "current_trial": 86, "dateTime": 1509140164117, "trialdata": {"rt": -1, "stimulus": "<p id=\"stim\">2</p>", "key_press": -1, "trial_type": "single-stim", "trial_index": 86, "time_elapsed": 405170, "internal_node_id": "0.0-60.0-8.0"}}, {"uniqueid": "MTK0092:3MRNMEIQW6DBCKBSA39I9MWCVLPDLU", "current_trial": 87, "dateTime": 1509140165118, "trialdata": {"rt": -1, "stimulus": "<p id=\"stim\">1</p>", "key_press": -1, "trial_type": "single-stim", "trial_index": 87, "time_elapsed": 406171, "internal_node_id": "0.0-60.0-9.0"}}, {"uniqueid": "MTK0092:3MRNMEIQW6DBCKBSA39I9MWCVLPDLU", "current_trial": 88, "dateTime": 1509140166620, "trialdata": {"rt": -1, "stimulus": "<p id=\"stim\">+</p>", "key_press": -1, "type": "FIXATION", "trial_type": "single-stim", "trial_index": 88, "time_elapsed": 407673, "internal_node_id": "0.0-61.0-0.0"}}, {"uniqueid": "MTK0092:3MRNMEIQW6DBCKBSA39I9MWCVLPDLU", "current_trial": 89, "dateTime": 1509140168613, "trialdata": {"rt": -1000, "stimulus": "/static/audio/wordpool/ROBBER.wav", "key_press": -1, "type": "PRES_AUD", "word": "robber", "wordID": 1196, "conditions": [12, 800, "a", 24000], "trial": 2, "serialpos": 0, "trial_type": "single-audio", "trial_index": 89, "time_elapsed": 409666, "internal_node_id": "0.0-62.0"}}, {"uniqueid": "MTK0092:3MRNMEIQW6DBCKBSA39I9MWCVLPDLU", "current_trial": 90, "dateTime": 1509140170246, "trialdata": {"rt": -1000, "stimulus": "/static/audio/wordpool/LETTUCE.wav", "key_press": -1, "type": "PRES_AUD", "word": "lettuce", "wordID": 813, "conditions": [12, 800, "a", 24000], "trial": 2, "serialpos": 1, "trial_type": "single-audio", "trial_index": 90, "time_elapsed": 411299, "internal_node_id": "0.0-63.0"}}, {"uniqueid": "MTK0092:3MRNMEIQW6DBCKBSA39I9MWCVLPDLU", "current_trial": 91, "dateTime": 1509140172095, "trialdata": {"rt": -1000, "stimulus": "/static/audio/wordpool/GHETTO.wav", "key_press": -1, "type": "PRES_AUD", "word": "ghetto", "wordID": 632, "conditions": [12, 800, "a", 24000], "trial": 2, "serialpos": 2, "trial_type": "single-audio", "trial_index": 91, "time_elapsed": 413148, "internal_node_id": "0.0-64.0"}}, {"uniqueid": "MTK0092:3MRNMEIQW6DBCKBSA39I9MWCVLPDLU", "current_trial": 92, "dateTime": 1509140173885, "trialdata": {"rt": -1000, "stimulus": "/static/audio/wordpool/CRICKET.wav", "key_press": -1, "type": "PRES_AUD", "word": "cricket", "wordID": 407, "conditions": [12, 800, "a", 24000], "trial": 2, "serialpos": 3, "trial_type": "single-audio", "trial_index": 92, "time_elapsed": 414938, "internal_node_id": "0.0-65.0"}}, {"uniqueid": "MTK0092:3MRNMEIQW6DBCKBSA39I9MWCVLPDLU", "current_trial": 93, "dateTime": 1509140175752, "trialdata": {"rt": -1000, "stimulus": "/static/audio/wordpool/SIBLING.wav", "key_press": -1, "type": "PRES_AUD", "word": "sibling", "wordID": 1300, "conditions": [12, 800, "a", 24000], "trial": 2, "serialpos": 4, "trial_type": "single-audio", "trial_index": 93, "time_elapsed": 416805, "internal_node_id": "0.0-66.0"}}, {"uniqueid": "MTK0092:3MRNMEIQW6DBCKBSA39I9MWCVLPDLU", "current_trial": 94, "dateTime": 1509140177677, "trialdata": {"rt": -1000, "stimulus": "/static/audio/wordpool/BANJO.wav", "key_press": -1, "type": "PRES_AUD", "word": "banjo", "wordID": 81, "conditions": [12, 800, "a", 24000], "trial": 2, "serialpos": 5, "trial_type": "single-audio", "trial_index": 94, "time_elapsed": 418730, "internal_node_id": "0.0-67.0"}}, {"uniqueid": "MTK0092:3MRNMEIQW6DBCKBSA39I9MWCVLPDLU", "current_trial": 95, "dateTime": 1509140179310, "trialdata": {"rt": -1000, "stimulus": "/static/audio/wordpool/FRECKLE.wav", "key_press": -1, "type": "PRES_AUD", "word": "freckle", "wordID": 601, "conditions": [12, 800, "a", 24000], "trial": 2, "serialpos": 6, "trial_type": "single-audio", "trial_index": 95, "time_elapsed": 420363, "internal_node_id": "0.0-68.0"}}, {"uniqueid": "MTK0092:3MRNMEIQW6DBCKBSA39I9MWCVLPDLU", "current_trial": 96, "dateTime": 1509140181046, "trialdata": {"rt": -1000, "stimulus": "/static/audio/wordpool/DRINK.wav", "key_press": -1, "type": "PRES_AUD", "word": "drink", "wordID": 497, "conditions": [12, 800, "a", 24000], "trial": 2, "serialpos": 7, "trial_type": "single-audio", "trial_index": 96, "time_elapsed": 422099, "internal_node_id": "0.0-69.0"}}, {"uniqueid": "MTK0092:3MRNMEIQW6DBCKBSA39I9MWCVLPDLU", "current_trial": 97, "dateTime": 1509140182827, "trialdata": {"rt": -1000, "stimulus": "/static/audio/wordpool/HEADBAND.wav", "key_press": -1, "type": "PRES_AUD", "word": "headband", "wordID": 695, "conditions": [12, 800, "a", 24000], "trial": 2, "serialpos": 8, "trial_type": "single-audio", "trial_index": 97, "time_elapsed": 423880, "internal_node_id": "0.0-70.0"}}, {"uniqueid": "MTK0092:3MRNMEIQW6DBCKBSA39I9MWCVLPDLU", "current_trial": 98, "dateTime": 1509140184571, "trialdata": {"rt": -1000, "stimulus": "/static/audio/wordpool/SPOUSE.wav", "key_press": -1, "type": "PRES_AUD", "word": "spouse", "wordID": 1357, "conditions": [12, 800, "a", 24000], "trial": 2, "serialpos": 9, "trial_type": "single-audio", "trial_index": 98, "time_elapsed": 425624, "internal_node_id": "0.0-71.0"}}, {"uniqueid": "MTK0092:3MRNMEIQW6DBCKBSA39I9MWCVLPDLU", "current_trial": 99, "dateTime": 1509140186180, "trialdata": {"rt": -1000, "stimulus": "/static/audio/wordpool/HUSBAND.wav", "key_press": -1, "type": "PRES_AUD", "word": "husband", "wordID": 727, "conditions": [12, 800, "a", 24000], "trial": 2, "serialpos": 10, "trial_type": "single-audio", "trial_index": 99, "time_elapsed": 427233, "internal_node_id": "0.0-72.0"}}, {"uniqueid": "MTK0092:3MRNMEIQW6DBCKBSA39I9MWCVLPDLU", "current_trial": 100, "dateTime": 1509140187987, "trialdata": {"rt": -1000, "stimulus": "/static/audio/wordpool/SUSPECT.wav", "key_press": -1, "type": "PRES_AUD", "word": "suspect", "wordID": 1414, "conditions": [12, 800, "a", 24000], "trial": 2, "serialpos": 11, "trial_type": "single-audio", "trial_index": 100, "time_elapsed": 429040, "internal_node_id": "0.0-73.0"}}, {"uniqueid": "MTK0092:3MRNMEIQW6DBCKBSA39I9MWCVLPDLU", "current_trial": 101, "dateTime": 1509140189335, "trialdata": {"rt": -1, "stimulus": "", "key_press": -1, "type": "PRE_RECALL_DELAY", "trial_type": "single-stim", "trial_index": 101, "time_elapsed": 430388, "internal_node_id": "0.0-74.0-0.0"}}, {"uniqueid": "MTK0092:3MRNMEIQW6DBCKBSA39I9MWCVLPDLU", "current_trial": 102, "dateTime": 1509140189836, "trialdata": {"rt": -1000, "stimulus": "/static/audio/400Hz.wav", "key_press": -1, "type": "PRE_RECALL_ALERT", "trial_type": "single-audio", "trial_index": 102, "time_elapsed": 430889, "internal_node_id": "0.0-75.0"}}, {"uniqueid": "MTK0092:3MRNMEIQW6DBCKBSA39I9MWCVLPDLU", "current_trial": 103, "dateTime": 1509140249842, "trialdata": {"rt": [2026, 3499, 4413, 8071, 10432, 16586, 26057], "recwords": ["ghetto", "lettuce", "drink", "spouse", "husband", "drink", "freckle"], "type": "FREE_RECALL", "conditions": [12, 800, "a", 24000], "trial": 2, "trial_type": "free-recall", "trial_index": 103, "time_elapsed": 490892, "internal_node_id": "0.0-76.0-0.0"}}, {"uniqueid": "MTK0092:3MRNMEIQW6DBCKBSA39I9MWCVLPDLU", "current_trial": 104, "dateTime": 1509140253083, "trialdata": {"rt": 1239, "key_press": 32, "type": "INSTRUCTIONS", "trial_type": "text", "trial_index": 104, "time_elapsed": 494136, "internal_node_id": "0.0-77.0"}}, {"uniqueid": "MTK0092:3MRNMEIQW6DBCKBSA39I9MWCVLPDLU", "current_trial": 105, "dateTime": 1509140267087, "trialdata": {"rt": [2773, 6000, 8331, 10148], "responses": ["9", "19", "18", "18"], "num1": [2, 9, 7, 5, 1], "num2": [3, 9, 7, 5, 9], "num3": [4, 1, 4, 8, 7], "type": "DISTRACTOR", "conditions": [12, 800, "v", 12000], "trial": 3, "trial_type": "math-distractor", "trial_index": 105, "time_elapsed": 508140, "internal_node_id": "0.0-78.0"}}, {"uniqueid": "MTK0092:3MRNMEIQW6DBCKBSA39I9MWCVLPDLU", "current_trial": 106, "dateTime": 1509140270089, "trialdata": {"rt": -1, "stimulus": "<p id=\"stim\">10</p>", "key_press": -1, "trial_type": "single-stim", "trial_index": 106, "time_elapsed": 511142, "internal_node_id": "0.0-79.0-0.0"}}, {"uniqueid": "MTK0092:3MRNMEIQW6DBCKBSA39I9MWCVLPDLU", "current_trial": 107, "dateTime": 1509140271090, "trialdata": {"rt": -1, "stimulus": "<p id=\"stim\">9</p>", "key_press": -1, "trial_type": "single-stim", "trial_index": 107, "time_elapsed": 512143, "internal_node_id": "0.0-79.0-1.0"}}, {"uniqueid": "MTK0092:3MRNMEIQW6DBCKBSA39I9MWCVLPDLU", "current_trial": 108, "dateTime": 1509140272091, "trialdata": {"rt": -1, "stimulus": "<p id=\"stim\">8</p>", "key_press": -1, "trial_type": "single-stim", "trial_index": 108, "time_elapsed": 513144, "internal_node_id": "0.0-79.0-2.0"}}, {"uniqueid": "MTK0092:3MRNMEIQW6DBCKBSA39I9MWCVLPDLU", "current_trial": 109, "dateTime": 1509140273092, "trialdata": {"rt": -1, "stimulus": "<p id=\"stim\">7</p>", "key_press": -1, "trial_type": "single-stim", "trial_index": 109, "time_elapsed": 514145, "internal_node_id": "0.0-79.0-3.0"}}, {"uniqueid": "MTK0092:3MRNMEIQW6DBCKBSA39I9MWCVLPDLU", "current_trial": 110, "dateTime": 1509140274093, "trialdata": {"rt": -1, "stimulus": "<p id=\"stim\">6</p>", "key_press": -1, "trial_type": "single-stim", "trial_index": 110, "time_elapsed": 515146, "internal_node_id": "0.0-79.0-4.0"}}, {"uniqueid": "MTK0092:3MRNMEIQW6DBCKBSA39I9MWCVLPDLU", "current_trial": 111, "dateTime": 1509140275095, "trialdata": {"rt": -1, "stimulus": "<p id=\"stim\">5</p>", "key_press": -1, "trial_type": "single-stim", "trial_index": 111, "time_elapsed": 516148, "internal_node_id": "0.0-79.0-5.0"}}, {"uniqueid": "MTK0092:3MRNMEIQW6DBCKBSA39I9MWCVLPDLU", "current_trial": 112, "dateTime": 1509140276096, "trialdata": {"rt": -1, "stimulus": "<p id=\"stim\">4</p>", "key_press": -1, "trial_type": "single-stim", "trial_index": 112, "time_elapsed": 517149, "internal_node_id": "0.0-79.0-6.0"}}, {"uniqueid": "MTK0092:3MRNMEIQW6DBCKBSA39I9MWCVLPDLU", "current_trial": 113, "dateTime": 1509140277097, "trialdata": {"rt": -1, "stimulus": "<p id=\"stim\">3</p>", "key_press": -1, "trial_type": "single-stim", "trial_index": 113, "time_elapsed": 518150, "internal_node_id": "0.0-79.0-7.0"}}, {"uniqueid": "MTK0092:3MRNMEIQW6DBCKBSA39I9MWCVLPDLU", "current_trial": 114, "dateTime": 1509140278098, "trialdata": {"rt": -1, "stimulus": "<p id=\"stim\">2</p>", "key_press": -1, "trial_type": "single-stim", "trial_index": 114, "time_elapsed": 519151, "internal_node_id": "0.0-79.0-8.0"}}, {"uniqueid": "MTK0092:3MRNMEIQW6DBCKBSA39I9MWCVLPDLU", "current_trial": 115, "dateTime": 1509140279099, "trialdata": {"rt": -1, "stimulus": "<p id=\"stim\">1</p>", "key_press": -1, "trial_type": "single-stim", "trial_index": 115, "time_elapsed": 520152, "internal_node_id": "0.0-79.0-9.0"}}, {"uniqueid": "MTK0092:3MRNMEIQW6DBCKBSA39I9MWCVLPDLU", "current_trial": 116, "dateTime": 1509140280600, "trialdata": {"rt": -1, "stimulus": "<p id=\"stim\">+</p>", "key_press": -1, "type": "FIXATION", "trial_type": "single-stim", "trial_index": 116, "time_elapsed": 521653, "internal_node_id": "0.0-80.0-0.0"}}, {"uniqueid": "MTK0092:3MRNMEIQW6DBCKBSA39I9MWCVLPDLU", "current_trial": 117, "dateTime": 1509140281401, "trialdata": {"rt": -1, "stimulus": "<p id=\"stim\">CRAYON</p>", "key_press": -1, "type": "PRES_VIS", "word": "crayon", "wordID": 400, "conditions": [12, 800, "v", 12000], "trial": 3, "serialpos": 0, "trial_type": "single-stim", "trial_index": 117, "time_elapsed": 522454, "internal_node_id": "0.0-81.0"}}, {"uniqueid": "MTK0092:3MRNMEIQW6DBCKBSA39I9MWCVLPDLU", "current_trial": 118, "dateTime": 1509140283306, "trialdata": {"rt": -1, "stimulus": "<p id=\"stim\">CHAUFFEUR</p>", "key_press": -1, "type": "PRES_VIS", "word": "chauffeur", "wordID": 282, "conditions": [12, 800, "v", 12000], "trial": 3, "serialpos": 1, "trial_type": "single-stim", "trial_index": 118, "time_elapsed": 524359, "internal_node_id": "0.0-82.0"}}, {"uniqueid": "MTK0092:3MRNMEIQW6DBCKBSA39I9MWCVLPDLU", "current_trial": 119, "dateTime": 1509140285039, "trialdata": {"rt": -1, "stimulus": "<p id=\"stim\">STREAM</p>", "key_press": -1, "type": "PRES_VIS", "word": "stream", "wordID": 1391, "conditions": [12, 800, "v", 12000], "trial": 3, "serialpos": 2, "trial_type": "single-stim", "trial_index": 119, "time_elapsed": 526092, "internal_node_id": "0.0-83.0"}}, {"uniqueid": "MTK0092:3MRNMEIQW6DBCKBSA39I9MWCVLPDLU", "current_trial": 120, "dateTime": 1509140286670, "trialdata": {"rt": -1, "stimulus": "<p id=\"stim\">BANK</p>", "key_press": -1, "type": "PRES_VIS", "word": "bank", "wordID": 82, "conditions": [12, 800, "v", 12000], "trial": 3, "serialpos": 3, "trial_type": "single-stim", "trial_index": 120, "time_elapsed": 527723, "internal_node_id": "0.0-84.0"}}, {"uniqueid": "MTK0092:3MRNMEIQW6DBCKBSA39I9MWCVLPDLU", "current_trial": 121, "dateTime": 1509140288285, "trialdata": {"rt": -1, "stimulus": "<p id=\"stim\">PIANO</p>", "key_press": -1, "type": "PRES_VIS", "word": "piano", "wordID": 1056, "conditions": [12, 800, "v", 12000], "trial": 3, "serialpos": 4, "trial_type": "single-stim", "trial_index": 121, "time_elapsed": 529338, "internal_node_id": "0.0-85.0"}}, {"uniqueid": "MTK0092:3MRNMEIQW6DBCKBSA39I9MWCVLPDLU", "current_trial": 122, "dateTime": 1509140289999, "trialdata": {"rt": -1, "stimulus": "<p id=\"stim\">FLEET</p>", "key_press": -1, "type": "PRES_VIS", "word": "fleet", "wordID": 577, "conditions": [12, 800, "v", 12000], "trial": 3, "serialpos": 5, "trial_type": "single-stim", "trial_index": 122, "time_elapsed": 531052, "internal_node_id": "0.0-86.0"}}, {"uniqueid": "MTK0092:3MRNMEIQW6DBCKBSA39I9MWCVLPDLU", "current_trial": 123, "dateTime": 1509140291640, "trialdata": {"rt": -1, "stimulus": "<p id=\"stim\">SKILLET</p>", "key_press": -1, "type": "PRES_VIS", "word": "skillet", "wordID": 1316, "conditions": [12, 800, "v", 12000], "trial": 3, "serialpos": 6, "trial_type": "single-stim", "trial_index": 123, "time_elapsed": 532693, "internal_node_id": "0.0-87.0"}}, {"uniqueid": "MTK0092:3MRNMEIQW6DBCKBSA39I9MWCVLPDLU", "current_trial": 124, "dateTime": 1509140293353, "trialdata": {"rt": -1, "stimulus": "<p id=\"stim\">SPOON</p>", "key_press": -1, "type": "PRES_VIS", "word": "spoon", "wordID": 1356, "conditions": [12, 800, "v", 12000], "trial": 3, "serialpos": 7, "trial_type": "single-stim", "trial_index": 124, "time_elapsed": 534406, "internal_node_id": "0.0-88.0"}}, {"uniqueid": "MTK0092:3MRNMEIQW6DBCKBSA39I9MWCVLPDLU", "current_trial": 125, "dateTime": 1509140295211, "trialdata": {"rt": -1, "stimulus": "<p id=\"stim\">HORNET</p>", "key_press": -1, "type": "PRES_VIS", "word": "hornet", "wordID": 717, "conditions": [12, 800, "v", 12000], "trial": 3, "serialpos": 8, "trial_type": "single-stim", "trial_index": 125, "time_elapsed": 536264, "internal_node_id": "0.0-89.0"}}, {"uniqueid": "MTK0092:3MRNMEIQW6DBCKBSA39I9MWCVLPDLU", "current_trial": 126, "dateTime": 1509140296823, "trialdata": {"rt": -1, "stimulus": "<p id=\"stim\">PIMPLE</p>", "key_press": -1, "type": "PRES_VIS", "word": "pimple", "wordID": 1070, "conditions": [12, 800, "v", 12000], "trial": 3, "serialpos": 9, "trial_type": "single-stim", "trial_index": 126, "time_elapsed": 537876, "internal_node_id": "0.0-90.0"}}, {"uniqueid": "MTK0092:3MRNMEIQW6DBCKBSA39I9MWCVLPDLU", "current_trial": 127, "dateTime": 1509140298505, "trialdata": {"rt": -1, "stimulus": "<p id=\"stim\">FLUTE</p>", "key_press": -1, "type": "PRES_VIS", "word": "flute", "wordID": 584, "conditions": [12, 800, "v", 12000], "trial": 3, "serialpos": 10, "trial_type": "single-stim", "trial_index": 127, "time_elapsed": 539558, "internal_node_id": "0.0-91.0"}}, {"uniqueid": "MTK0092:3MRNMEIQW6DBCKBSA39I9MWCVLPDLU", "current_trial": 128, "dateTime": 1509140300200, "trialdata": {"rt": -1, "stimulus": "<p id=\"stim\">BRIEFCASE</p>", "key_press": -1, "type": "PRES_VIS", "word": "briefcase", "wordID": 174, "conditions": [12, 800, "v", 12000], "trial": 3, "serialpos": 11, "trial_type": "single-stim", "trial_index": 128, "time_elapsed": 541253, "internal_node_id": "0.0-92.0"}}, {"uniqueid": "MTK0092:3MRNMEIQW6DBCKBSA39I9MWCVLPDLU", "current_trial": 129, "dateTime": 1509140302402, "trialdata": {"rt": -1, "stimulus": "", "key_press": -1, "type": "PRE_RECALL_DELAY", "trial_type": "single-stim", "trial_index": 129, "time_elapsed": 543455, "internal_node_id": "0.0-93.0-0.0"}}, {"uniqueid": "MTK0092:3MRNMEIQW6DBCKBSA39I9MWCVLPDLU", "current_trial": 130, "dateTime": 1509140302903, "trialdata": {"rt": -1000, "stimulus": "/static/audio/400Hz.wav", "key_press": -1, "type": "PRE_RECALL_ALERT", "trial_type": "single-audio", "trial_index": 130, "time_elapsed": 543956, "internal_node_id": "0.0-94.0"}}, {"uniqueid": "MTK0092:3MRNMEIQW6DBCKBSA39I9MWCVLPDLU", "current_trial": 131, "dateTime": 1509140362911, "trialdata": {"rt": [2016, 3190, 4535, 7466, 12401, 54178], "recwords": ["stream", "hornet", "pimple", "briefcase", "pimple", "banjo"], "type": "FREE_RECALL", "conditions": [12, 800, "v", 12000], "trial": 3, "trial_type": "free-recall", "trial_index": 131, "time_elapsed": 603961, "internal_node_id": "0.0-95.0-0.0"}}, {"uniqueid": "MTK0092:3MRNMEIQW6DBCKBSA39I9MWCVLPDLU", "current_trial": 132, "dateTime": 1509140366322, "trialdata": {"rt": 1410, "key_press": 32, "type": "INSTRUCTIONS", "trial_type": "text", "trial_index": 132, "time_elapsed": 607375, "internal_node_id": "0.0-96.0"}}, {"uniqueid": "MTK0092:3MRNMEIQW6DBCKBSA39I9MWCVLPDLU", "current_trial": 133, "dateTime": 1509140380325, "trialdata": {"rt": [2219, 4245, 6564, 9010, 10568], "responses": ["14", "12", "20", "13", "5"], "num1": [5, 9, 9, 4, 2, 8], "num2": [1, 2, 6, 3, 1, 1], "num3": [8, 1, 5, 5, 2, 7], "type": "DISTRACTOR", "conditions": [12, 1600, "v", 12000], "trial": 4, "trial_type": "math-distractor", "trial_index": 133, "time_elapsed": 621378, "internal_node_id": "0.0-97.0"}}, {"uniqueid": "MTK0092:3MRNMEIQW6DBCKBSA39I9MWCVLPDLU", "current_trial": 134, "dateTime": 1509140383327, "trialdata": {"rt": -1, "stimulus": "<p id=\"stim\">10</p>", "key_press": -1, "trial_type": "single-stim", "trial_index": 134, "time_elapsed": 624380, "internal_node_id": "0.0-98.0-0.0"}}, {"uniqueid": "MTK0092:3MRNMEIQW6DBCKBSA39I9MWCVLPDLU", "current_trial": 135, "dateTime": 1509140384328, "trialdata": {"rt": -1, "stimulus": "<p id=\"stim\">9</p>", "key_press": -1, "trial_type": "single-stim", "trial_index": 135, "time_elapsed": 625381, "internal_node_id": "0.0-98.0-1.0"}}, {"uniqueid": "MTK0092:3MRNMEIQW6DBCKBSA39I9MWCVLPDLU", "current_trial": 136, "dateTime": 1509140385329, "trialdata": {"rt": -1, "stimulus": "<p id=\"stim\">8</p>", "key_press": -1, "trial_type": "single-stim", "trial_index": 136, "time_elapsed": 626382, "internal_node_id": "0.0-98.0-2.0"}}, {"uniqueid": "MTK0092:3MRNMEIQW6DBCKBSA39I9MWCVLPDLU", "current_trial": 137, "dateTime": 1509140386330, "trialdata": {"rt": -1, "stimulus": "<p id=\"stim\">7</p>", "key_press": -1, "trial_type": "single-stim", "trial_index": 137, "time_elapsed": 627383, "internal_node_id": "0.0-98.0-3.0"}}, {"uniqueid": "MTK0092:3MRNMEIQW6DBCKBSA39I9MWCVLPDLU", "current_trial": 138, "dateTime": 1509140387331, "trialdata": {"rt": -1, "stimulus": "<p id=\"stim\">6</p>", "key_press": -1, "trial_type": "single-stim", "trial_index": 138, "time_elapsed": 628384, "internal_node_id": "0.0-98.0-4.0"}}, {"uniqueid": "MTK0092:3MRNMEIQW6DBCKBSA39I9MWCVLPDLU", "current_trial": 139, "dateTime": 1509140388332, "trialdata": {"rt": -1, "stimulus": "<p id=\"stim\">5</p>", "key_press": -1, "trial_type": "single-stim", "trial_index": 139, "time_elapsed": 629385, "internal_node_id": "0.0-98.0-5.0"}}, {"uniqueid": "MTK0092:3MRNMEIQW6DBCKBSA39I9MWCVLPDLU", "current_trial": 140, "dateTime": 1509140389333, "trialdata": {"rt": -1, "stimulus": "<p id=\"stim\">4</p>", "key_press": -1, "trial_type": "single-stim", "trial_index": 140, "time_elapsed": 630386, "internal_node_id": "0.0-98.0-6.0"}}, {"uniqueid": "MTK0092:3MRNMEIQW6DBCKBSA39I9MWCVLPDLU", "current_trial": 141, "dateTime": 1509140390334, "trialdata": {"rt": -1, "stimulus": "<p id=\"stim\">3</p>", "key_press": -1, "trial_type": "single-stim", "trial_index": 141, "time_elapsed": 631387, "internal_node_id": "0.0-98.0-7.0"}}, {"uniqueid": "MTK0092:3MRNMEIQW6DBCKBSA39I9MWCVLPDLU", "current_trial": 142, "dateTime": 1509140391335, "trialdata": {"rt": -1, "stimulus": "<p id=\"stim\">2</p>", "key_press": -1, "trial_type": "single-stim", "trial_index": 142, "time_elapsed": 632388, "internal_node_id": "0.0-98.0-8.0"}}, {"uniqueid": "MTK0092:3MRNMEIQW6DBCKBSA39I9MWCVLPDLU", "current_trial": 143, "dateTime": 1509140392336, "trialdata": {"rt": -1, "stimulus": "<p id=\"stim\">1</p>", "key_press": -1, "trial_type": "single-stim", "trial_index": 143, "time_elapsed": 633389, "internal_node_id": "0.0-98.0-9.0"}}, {"uniqueid": "MTK0092:3MRNMEIQW6DBCKBSA39I9MWCVLPDLU", "current_trial": 144, "dateTime": 1509140393837, "trialdata": {"rt": -1, "stimulus": "<p id=\"stim\">+</p>", "key_press": -1, "type": "FIXATION", "trial_type": "single-stim", "trial_index": 144, "time_elapsed": 634890, "internal_node_id": "0.0-99.0-0.0"}}, {"uniqueid": "MTK0092:3MRNMEIQW6DBCKBSA39I9MWCVLPDLU", "current_trial": 145, "dateTime": 1509140395438, "trialdata": {"rt": -1, "stimulus": "<p id=\"stim\">SPIDER</p>", "key_press": -1, "type": "PRES_VIS", "word": "spider", "wordID": 1350, "conditions": [12, 1600, "v", 12000], "trial": 4, "serialpos": 0, "trial_type": "single-stim", "trial_index": 145, "time_elapsed": 636491, "internal_node_id": "0.0-100.0"}}, {"uniqueid": "MTK0092:3MRNMEIQW6DBCKBSA39I9MWCVLPDLU", "current_trial": 146, "dateTime": 1509140398089, "trialdata": {"rt": -1, "stimulus": "<p id=\"stim\">GOBLIN</p>", "key_press": -1, "type": "PRES_VIS", "word": "goblin", "wordID": 644, "conditions": [12, 1600, "v", 12000], "trial": 4, "serialpos": 1, "trial_type": "single-stim", "trial_index": 146, "time_elapsed": 639142, "internal_node_id": "0.0-101.0"}}, {"uniqueid": "MTK0092:3MRNMEIQW6DBCKBSA39I9MWCVLPDLU", "current_trial": 147, "dateTime": 1509140400492, "trialdata": {"rt": -1, "stimulus": "<p id=\"stim\">DRAGON</p>", "key_press": -1, "type": "PRES_VIS", "word": "dragon", "wordID": 491, "conditions": [12, 1600, "v", 12000], "trial": 4, "serialpos": 2, "trial_type": "single-stim", "trial_index": 147, "time_elapsed": 641545, "internal_node_id": "0.0-102.0"}}, {"uniqueid": "MTK0092:3MRNMEIQW6DBCKBSA39I9MWCVLPDLU", "current_trial": 148, "dateTime": 1509140403135, "trialdata": {"rt": -1, "stimulus": "<p id=\"stim\">LIZARD</p>", "key_press": -1, "type": "PRES_VIS", "word": "lizard", "wordID": 833, "conditions": [12, 1600, "v", 12000], "trial": 4, "serialpos": 3, "trial_type": "single-stim", "trial_index": 148, "time_elapsed": 644188, "internal_node_id": "0.0-103.0"}}, {"uniqueid": "MTK0092:3MRNMEIQW6DBCKBSA39I9MWCVLPDLU", "current_trial": 149, "dateTime": 1509140405543, "trialdata": {"rt": -1, "stimulus": "<p id=\"stim\">DOUGHNUT</p>", "key_press": -1, "type": "PRES_VIS", "word": "doughnut", "wordID": 489, "conditions": [12, 1600, "v", 12000], "trial": 4, "serialpos": 4, "trial_type": "single-stim", "trial_index": 149, "time_elapsed": 646596, "internal_node_id": "0.0-104.0"}}, {"uniqueid": "MTK0092:3MRNMEIQW6DBCKBSA39I9MWCVLPDLU", "current_trial": 150, "dateTime": 1509140408238, "trialdata": {"rt": -1, "stimulus": "<p id=\"stim\">MOTEL</p>", "key_press": -1, "type": "PRES_VIS", "word": "motel", "wordID": 918, "conditions": [12, 1600, "v", 12000], "trial": 4, "serialpos": 5, "trial_type": "single-stim", "trial_index": 150, "time_elapsed": 649291, "internal_node_id": "0.0-105.0"}}, {"uniqueid": "MTK0092:3MRNMEIQW6DBCKBSA39I9MWCVLPDLU", "current_trial": 151, "dateTime": 1509140410769, "trialdata": {"rt": -1, "stimulus": "<p id=\"stim\">GRAPE</p>", "key_press": -1, "type": "PRES_VIS", "word": "grape", "wordID": 653, "conditions": [12, 1600, "v", 12000], "trial": 4, "serialpos": 6, "trial_type": "single-stim", "trial_index": 151, "time_elapsed": 651822, "internal_node_id": "0.0-106.0"}}, {"uniqueid": "MTK0092:3MRNMEIQW6DBCKBSA39I9MWCVLPDLU", "current_trial": 152, "dateTime": 1509140413492, "trialdata": {"rt": -1, "stimulus": "<p id=\"stim\">MAILMAN</p>", "key_press": -1, "type": "PRES_VIS", "word": "mailman", "wordID": 857, "conditions": [12, 1600, "v", 12000], "trial": 4, "serialpos": 7, "trial_type": "single-stim", "trial_index": 152, "time_elapsed": 654545, "internal_node_id": "0.0-107.0"}}, {"uniqueid": "MTK0092:3MRNMEIQW6DBCKBSA39I9MWCVLPDLU", "current_trial": 153, "dateTime": 1509140416189, "trialdata": {"rt": -1, "stimulus": "<p id=\"stim\">ZIPPER</p>", "key_press": -1, "type": "PRES_VIS", "word": "zipper", "wordID": 1635, "conditions": [12, 1600, "v", 12000], "trial": 4, "serialpos": 8, "trial_type": "single-stim", "trial_index": 153, "time_elapsed": 657242, "internal_node_id": "0.0-108.0"}}, {"uniqueid": "MTK0092:3MRNMEIQW6DBCKBSA39I9MWCVLPDLU", "current_trial": 154, "dateTime": 1509140418865, "trialdata": {"rt": -1, "stimulus": "<p id=\"stim\">PISTON</p>", "key_press": -1, "type": "PRES_VIS", "word": "piston", "wordID": 1075, "conditions": [12, 1600, "v", 12000], "trial": 4, "serialpos": 9, "trial_type": "single-stim", "trial_index": 154, "time_elapsed": 659918, "internal_node_id": "0.0-109.0"}}, {"uniqueid": "MTK0092:3MRNMEIQW6DBCKBSA39I9MWCVLPDLU", "current_trial": 155, "dateTime": 1509140421612, "trialdata": {"rt": -1, "stimulus": "<p id=\"stim\">KIDNEY</p>", "key_press": -1, "type": "PRES_VIS", "word": "kidney", "wordID": 775, "conditions": [12, 1600, "v", 12000], "trial": 4, "serialpos": 10, "trial_type": "single-stim", "trial_index": 155, "time_elapsed": 662665, "internal_node_id": "0.0-110.0"}}, {"uniqueid": "MTK0092:3MRNMEIQW6DBCKBSA39I9MWCVLPDLU", "current_trial": 156, "dateTime": 1509140424342, "trialdata": {"rt": -1, "stimulus": "<p id=\"stim\">SALT</p>", "key_press": -1, "type": "PRES_VIS", "word": "salt", "wordID": 1228, "conditions": [12, 1600, "v", 12000], "trial": 4, "serialpos": 11, "trial_type": "single-stim", "trial_index": 156, "time_elapsed": 665395, "internal_node_id": "0.0-111.0"}}, {"uniqueid": "MTK0092:3MRNMEIQW6DBCKBSA39I9MWCVLPDLU", "current_trial": 157, "dateTime": 1509140426808, "trialdata": {"rt": -1, "stimulus": "", "key_press": -1, "type": "PRE_RECALL_DELAY", "trial_type": "single-stim", "trial_index": 157, "time_elapsed": 667861, "internal_node_id": "0.0-112.0-0.0"}}, {"uniqueid": "MTK0092:3MRNMEIQW6DBCKBSA39I9MWCVLPDLU", "current_trial": 158, "dateTime": 1509140427309, "trialdata": {"rt": -1000, "stimulus": "/static/audio/400Hz.wav", "key_press": -1, "type": "PRE_RECALL_ALERT", "trial_type": "single-audio", "trial_index": 158, "time_elapsed": 668362, "internal_node_id": "0.0-113.0"}}, {"uniqueid": "MTK0092:3MRNMEIQW6DBCKBSA39I9MWCVLPDLU", "current_trial": 159, "dateTime": 1509140487317, "trialdata": {"rt": [1913, 3530, 5323, 6604, 8407, 10029, 11624, 13230, 14459, 19106, 25483, 33299], "recwords": ["kidney", "spider", "dragon", "lizard", "salt", "goblin", "motel", "doughnut", "grape", "piston", "buinessman", "salt"], "type": "FREE_RECALL", "conditions": [12, 1600, "v", 12000], "trial": 4, "trial_type": "free-recall", "trial_index": 159, "time_elapsed": 728367, "internal_node_id": "0.0-114.0-0.0"}}, {"uniqueid": "MTK0092:3MRNMEIQW6DBCKBSA39I9MWCVLPDLU", "current_trial": 160, "dateTime": 1509140491004, "trialdata": {"rt": 1685, "key_press": 32, "type": "INSTRUCTIONS", "trial_type": "text", "trial_index": 160, "time_elapsed": 732057, "internal_node_id": "0.0-115.0"}}, {"uniqueid": "MTK0092:3MRNMEIQW6DBCKBSA39I9MWCVLPDLU", "current_trial": 161, "dateTime": 1509140505007, "trialdata": {"rt": [2480, 4580, 6229, 8223, 10335], "responses": ["14", "19", "7", "7", "20"], "num1": [7, 3, 3, 1, 4, 8], "num2": [5, 8, 3, 2, 8, 4], "num3": [2, 8, 1, 4, 8, 6], "type": "DISTRACTOR", "conditions": [24, 1600, "a", 12000], "trial": 5, "trial_type": "math-distractor", "trial_index": 161, "time_elapsed": 746060, "internal_node_id": "0.0-116.0"}}, {"uniqueid": "MTK0092:3MRNMEIQW6DBCKBSA39I9MWCVLPDLU", "current_trial": 162, "dateTime": 1509140508009, "trialdata": {"rt": -1, "stimulus": "<p id=\"stim\">10</p>", "key_press": -1, "trial_type": "single-stim", "trial_index": 162, "time_elapsed": 749062, "internal_node_id": "0.0-117.0-0.0"}}, {"uniqueid": "MTK0092:3MRNMEIQW6DBCKBSA39I9MWCVLPDLU", "current_trial": 163, "dateTime": 1509140509010, "trialdata": {"rt": -1, "stimulus": "<p id=\"stim\">9</p>", "key_press": -1, "trial_type": "single-stim", "trial_index": 163, "time_elapsed": 750063, "internal_node_id": "0.0-117.0-1.0"}}, {"uniqueid": "MTK0092:3MRNMEIQW6DBCKBSA39I9MWCVLPDLU", "current_trial": 164, "dateTime": 1509140510011, "trialdata": {"rt": -1, "stimulus": "<p id=\"stim\">8</p>", "key_press": -1, "trial_type": "single-stim", "trial_index": 164, "time_elapsed": 751064, "internal_node_id": "0.0-117.0-2.0"}}, {"uniqueid": "MTK0092:3MRNMEIQW6DBCKBSA39I9MWCVLPDLU", "current_trial": 165, "dateTime": 1509140511012, "trialdata": {"rt": -1, "stimulus": "<p id=\"stim\">7</p>", "key_press": -1, "trial_type": "single-stim", "trial_index": 165, "time_elapsed": 752065, "internal_node_id": "0.0-117.0-3.0"}}, {"uniqueid": "MTK0092:3MRNMEIQW6DBCKBSA39I9MWCVLPDLU", "current_trial": 166, "dateTime": 1509140512013, "trialdata": {"rt": -1, "stimulus": "<p id=\"stim\">6</p>", "key_press": -1, "trial_type": "single-stim", "trial_index": 166, "time_elapsed": 753066, "internal_node_id": "0.0-117.0-4.0"}}, {"uniqueid": "MTK0092:3MRNMEIQW6DBCKBSA39I9MWCVLPDLU", "current_trial": 167, "dateTime": 1509140513014, "trialdata": {"rt": -1, "stimulus": "<p id=\"stim\">5</p>", "key_press": -1, "trial_type": "single-stim", "trial_index": 167, "time_elapsed": 754067, "internal_node_id": "0.0-117.0-5.0"}}, {"uniqueid": "MTK0092:3MRNMEIQW6DBCKBSA39I9MWCVLPDLU", "current_trial": 168, "dateTime": 1509140514015, "trialdata": {"rt": -1, "stimulus": "<p id=\"stim\">4</p>", "key_press": -1, "trial_type": "single-stim", "trial_index": 168, "time_elapsed": 755068, "internal_node_id": "0.0-117.0-6.0"}}, {"uniqueid": "MTK0092:3MRNMEIQW6DBCKBSA39I9MWCVLPDLU", "current_trial": 169, "dateTime": 1509140515016, "trialdata": {"rt": -1, "stimulus": "<p id=\"stim\">3</p>", "key_press": -1, "trial_type": "single-stim", "trial_index": 169, "time_elapsed": 756069, "internal_node_id": "0.0-117.0-7.0"}}, {"uniqueid": "MTK0092:3MRNMEIQW6DBCKBSA39I9MWCVLPDLU", "current_trial": 170, "dateTime": 1509140516017, "trialdata": {"rt": -1, "stimulus": "<p id=\"stim\">2</p>", "key_press": -1, "trial_type": "single-stim", "trial_index": 170, "time_elapsed": 757070, "internal_node_id": "0.0-117.0-8.0"}}, {"uniqueid": "MTK0092:3MRNMEIQW6DBCKBSA39I9MWCVLPDLU", "current_trial": 171, "dateTime": 1509140517018, "trialdata": {"rt": -1, "stimulus": "<p id=\"stim\">1</p>", "key_press": -1, "trial_type": "single-stim", "trial_index": 171, "time_elapsed": 758071, "internal_node_id": "0.0-117.0-9.0"}}, {"uniqueid": "MTK0092:3MRNMEIQW6DBCKBSA39I9MWCVLPDLU", "current_trial": 172, "dateTime": 1509140518519, "trialdata": {"rt": -1, "stimulus": "<p id=\"stim\">+</p>", "key_press": -1, "type": "FIXATION", "trial_type": "single-stim", "trial_index": 172, "time_elapsed": 759572, "internal_node_id": "0.0-118.0-0.0"}}, {"uniqueid": "MTK0092:3MRNMEIQW6DBCKBSA39I9MWCVLPDLU", "current_trial": 173, "dateTime": 1509140521273, "trialdata": {"rt": -1000, "stimulus": "/static/audio/wordpool/VICTIM.wav", "key_press": -1, "type": "PRES_AUD", "word": "victim", "wordID": 1561, "conditions": [24, 1600, "a", 12000], "trial": 5, "serialpos": 0, "trial_type": "single-audio", "trial_index": 173, "time_elapsed": 762326, "internal_node_id": "0.0-119.0"}}, {"uniqueid": "MTK0092:3MRNMEIQW6DBCKBSA39I9MWCVLPDLU", "current_trial": 174, "dateTime": 1509140524031, "trialdata": {"rt": -1000, "stimulus": "/static/audio/wordpool/TWISTER.wav", "key_press": -1, "type": "PRES_AUD", "word": "twister", "wordID": 1529, "conditions": [24, 1600, "a", 12000], "trial": 5, "serialpos": 1, "trial_type": "single-audio", "trial_index": 174, "time_elapsed": 765084, "internal_node_id": "0.0-120.0"}}, {"uniqueid": "MTK0092:3MRNMEIQW6DBCKBSA39I9MWCVLPDLU", "current_trial": 175, "dateTime": 1509140526649, "trialdata": {"rt": -1000, "stimulus": "/static/audio/wordpool/COCOON.wav", "key_press": -1, "type": "PRES_AUD", "word": "cocoon", "wordID": 338, "conditions": [24, 1600, "a", 12000], "trial": 5, "serialpos": 2, "trial_type": "single-audio", "trial_index": 175, "time_elapsed": 767702, "internal_node_id": "0.0-121.0"}}, {"uniqueid": "MTK0092:3MRNMEIQW6DBCKBSA39I9MWCVLPDLU", "current_trial": 176, "dateTime": 1509140529278, "trialdata": {"rt": -1000, "stimulus": "/static/audio/wordpool/BUG.wav", "key_press": -1, "type": "PRES_AUD", "word": "bug", "wordID": 186, "conditions": [24, 1600, "a", 12000], "trial": 5, "serialpos": 3, "trial_type": "single-audio", "trial_index": 176, "time_elapsed": 770331, "internal_node_id": "0.0-122.0"}}, {"uniqueid": "MTK0092:3MRNMEIQW6DBCKBSA39I9MWCVLPDLU", "current_trial": 177, "dateTime": 1509140531982, "trialdata": {"rt": -1000, "stimulus": "/static/audio/wordpool/ROD.wav", "key_press": -1, "type": "PRES_AUD", "word": "rod", "wordID": 1202, "conditions": [24, 1600, "a", 12000], "trial": 5, "serialpos": 4, "trial_type": "single-audio", "trial_index": 177, "time_elapsed": 773035, "internal_node_id": "0.0-123.0"}}, {"uniqueid": "MTK0092:3MRNMEIQW6DBCKBSA39I9MWCVLPDLU", "current_trial": 178, "dateTime": 1509140534662, "trialdata": {"rt": -1000, "stimulus": "/static/audio/wordpool/SHOULDER.wav", "key_press": -1, "type": "PRES_AUD", "word": "shoulder", "wordID": 1293, "conditions": [24, 1600, "a", 12000], "trial": 5, "serialpos": 5, "trial_type": "single-audio", "trial_index": 178, "time_elapsed": 775715, "internal_node_id": "0.0-124.0"}}, {"uniqueid": "MTK0092:3MRNMEIQW6DBCKBSA39I9MWCVLPDLU", "current_trial": 179, "dateTime": 1509140537248, "trialdata": {"rt": -1000, "stimulus": "/static/audio/wordpool/MARKER.wav", "key_press": -1, "type": "PRES_AUD", "word": "marker", "wordID": 869, "conditions": [24, 1600, "a", 12000], "trial": 5, "serialpos": 6, "trial_type": "single-audio", "trial_index": 179, "time_elapsed": 778301, "internal_node_id": "0.0-125.0"}}, {"uniqueid": "MTK0092:3MRNMEIQW6DBCKBSA39I9MWCVLPDLU", "current_trial": 180, "dateTime": 1509140539800, "trialdata": {"rt": -1000, "stimulus": "/static/audio/wordpool/RIVER.wav", "key_press": -1, "type": "PRES_AUD", "word": "river", "wordID": 1193, "conditions": [24, 1600, "a", 12000], "trial": 5, "serialpos": 7, "trial_type": "single-audio", "trial_index": 180, "time_elapsed": 780853, "internal_node_id": "0.0-126.0"}}, {"uniqueid": "MTK0092:3MRNMEIQW6DBCKBSA39I9MWCVLPDLU", "current_trial": 181, "dateTime": 1509140542278, "trialdata": {"rt": -1000, "stimulus": "/static/audio/wordpool/BROOK.wav", "key_press": -1, "type": "PRES_AUD", "word": "brook", "wordID": 176, "conditions": [24, 1600, "a", 12000], "trial": 5, "serialpos": 8, "trial_type": "single-audio", "trial_index": 181, "time_elapsed": 783331, "internal_node_id": "0.0-127.0"}}, {"uniqueid": "MTK0092:3MRNMEIQW6DBCKBSA39I9MWCVLPDLU", "current_trial": 182, "dateTime": 1509140545033, "trialdata": {"rt": -1000, "stimulus": "/static/audio/wordpool/BINDER.wav", "key_press": -1, "type": "PRES_AUD", "word": "binder", "wordID": 126, "conditions": [24, 1600, "a", 12000], "trial": 5, "serialpos": 9, "trial_type": "single-audio", "trial_index": 182, "time_elapsed": 786086, "internal_node_id": "0.0-128.0"}}, {"uniqueid": "MTK0092:3MRNMEIQW6DBCKBSA39I9MWCVLPDLU", "current_trial": 183, "dateTime": 1509140547611, "trialdata": {"rt": -1000, "stimulus": "/static/audio/wordpool/WOMAN.wav", "key_press": -1, "type": "PRES_AUD", "word": "woman", "wordID": 1619, "conditions": [24, 1600, "a", 12000], "trial": 5, "serialpos": 10, "trial_type": "single-audio", "trial_index": 183, "time_elapsed": 788664, "internal_node_id": "0.0-129.0"}}, {"uniqueid": "MTK0092:3MRNMEIQW6DBCKBSA39I9MWCVLPDLU", "current_trial": 184, "dateTime": 1509140550078, "trialdata": {"rt": -1000, "stimulus": "/static/audio/wordpool/HOOK.wav", "key_press": -1, "type": "PRES_AUD", "word": "hook", "wordID": 714, "conditions": [24, 1600, "a", 12000], "trial": 5, "serialpos": 11, "trial_type": "single-audio", "trial_index": 184, "time_elapsed": 791131, "internal_node_id": "0.0-130.0"}}, {"uniqueid": "MTK0092:3MRNMEIQW6DBCKBSA39I9MWCVLPDLU", "current_trial": 185, "dateTime": 1509140552541, "trialdata": {"rt": -1000, "stimulus": "/static/audio/wordpool/ACTOR.wav", "key_press": -1, "type": "PRES_AUD", "word": "actor", "wordID": 4, "conditions": [24, 1600, "a", 12000], "trial": 5, "serialpos": 12, "trial_type": "single-audio", "trial_index": 185, "time_elapsed": 793594, "internal_node_id": "0.0-131.0"}}, {"uniqueid": "MTK0092:3MRNMEIQW6DBCKBSA39I9MWCVLPDLU", "current_trial": 186, "dateTime": 1509140554991, "trialdata": {"rt": -1000, "stimulus": "/static/audio/wordpool/PLAID.wav", "key_press": -1, "type": "PRES_AUD", "word": "plaid", "wordID": 1079, "conditions": [24, 1600, "a", 12000], "trial": 5, "serialpos": 13, "trial_type": "single-audio", "trial_index": 186, "time_elapsed": 796044, "internal_node_id": "0.0-132.0"}}, {"uniqueid": "MTK0092:3MRNMEIQW6DBCKBSA39I9MWCVLPDLU", "current_trial": 187, "dateTime": 1509140557757, "trialdata": {"rt": -1000, "stimulus": "/static/audio/wordpool/SWITCH.wav", "key_press": -1, "type": "PRES_AUD", "word": "switch", "wordID": 1421, "conditions": [24, 1600, "a", 12000], "trial": 5, "serialpos": 14, "trial_type": "single-audio", "trial_index": 187, "time_elapsed": 798810, "internal_node_id": "0.0-133.0"}}, {"uniqueid": "MTK0092:3MRNMEIQW6DBCKBSA39I9MWCVLPDLU", "current_trial": 188, "dateTime": 1509140560481, "trialdata": {"rt": -1000, "stimulus": "/static/audio/wordpool/CLAMP.wav", "key_press": -1, "type": "PRES_AUD", "word": "clamp", "wordID": 315, "conditions": [24, 1600, "a", 12000], "trial": 5, "serialpos": 15, "trial_type": "single-audio", "trial_index": 188, "time_elapsed": 801534, "internal_node_id": "0.0-134.0"}}, {"uniqueid": "MTK0092:3MRNMEIQW6DBCKBSA39I9MWCVLPDLU", "current_trial": 189, "dateTime": 1509140563209, "trialdata": {"rt": -1000, "stimulus": "/static/audio/wordpool/TRACTOR.wav", "key_press": -1, "type": "PRES_AUD", "word": "tractor", "wordID": 1492, "conditions": [24, 1600, "a", 12000], "trial": 5, "serialpos": 16, "trial_type": "single-audio", "trial_index": 189, "time_elapsed": 804262, "internal_node_id": "0.0-135.0"}}, {"uniqueid": "MTK0092:3MRNMEIQW6DBCKBSA39I9MWCVLPDLU", "current_trial": 190, "dateTime": 1509140565617, "trialdata": {"rt": -1000, "stimulus": "/static/audio/wordpool/DAUGHTER.wav", "key_press": -1, "type": "PRES_AUD", "word": "daughter", "wordID": 441, "conditions": [24, 1600, "a", 12000], "trial": 5, "serialpos": 17, "trial_type": "single-audio", "trial_index": 190, "time_elapsed": 806670, "internal_node_id": "0.0-136.0"}}, {"uniqueid": "MTK0092:3MRNMEIQW6DBCKBSA39I9MWCVLPDLU", "current_trial": 191, "dateTime": 1509140568148, "trialdata": {"rt": -1000, "stimulus": "/static/audio/wordpool/TUTU.wav", "key_press": -1, "type": "PRES_AUD", "word": "tutu", "wordID": 1523, "conditions": [24, 1600, "a", 12000], "trial": 5, "serialpos": 18, "trial_type": "single-audio", "trial_index": 191, "time_elapsed": 809201, "internal_node_id": "0.0-137.0"}}, {"uniqueid": "MTK0092:3MRNMEIQW6DBCKBSA39I9MWCVLPDLU", "current_trial": 192, "dateTime": 1509140570721, "trialdata": {"rt": -1000, "stimulus": "/static/audio/wordpool/CROSS.wav", "key_press": -1, "type": "PRES_AUD", "word": "cross", "wordID": 412, "conditions": [24, 1600, "a", 12000], "trial": 5, "serialpos": 19, "trial_type": "single-audio", "trial_index": 192, "time_elapsed": 811774, "internal_node_id": "0.0-138.0"}}, {"uniqueid": "MTK0092:3MRNMEIQW6DBCKBSA39I9MWCVLPDLU", "current_trial": 193, "dateTime": 1509140573449, "trialdata": {"rt": -1000, "stimulus": "/static/audio/wordpool/FILM.wav", "key_press": -1, "type": "PRES_AUD", "word": "film", "wordID": 564, "conditions": [24, 1600, "a", 12000], "trial": 5, "serialpos": 20, "trial_type": "single-audio", "trial_index": 193, "time_elapsed": 814502, "internal_node_id": "0.0-139.0"}}, {"uniqueid": "MTK0092:3MRNMEIQW6DBCKBSA39I9MWCVLPDLU", "current_trial": 194, "dateTime": 1509140576155, "trialdata": {"rt": -1000, "stimulus": "/static/audio/wordpool/CITRUS.wav", "key_press": -1, "type": "PRES_AUD", "word": "citrus", "wordID": 312, "conditions": [24, 1600, "a", 12000], "trial": 5, "serialpos": 21, "trial_type": "single-audio", "trial_index": 194, "time_elapsed": 817208, "internal_node_id": "0.0-140.0"}}, {"uniqueid": "MTK0092:3MRNMEIQW6DBCKBSA39I9MWCVLPDLU", "current_trial": 195, "dateTime": 1509140578624, "trialdata": {"rt": -1000, "stimulus": "/static/audio/wordpool/PEACH.wav", "key_press": -1, "type": "PRES_AUD", "word": "peach", "wordID": 1030, "conditions": [24, 1600, "a", 12000], "trial": 5, "serialpos": 22, "trial_type": "single-audio", "trial_index": 195, "time_elapsed": 819677, "internal_node_id": "0.0-141.0"}}, {"uniqueid": "MTK0092:3MRNMEIQW6DBCKBSA39I9MWCVLPDLU", "current_trial": 196, "dateTime": 1509140581412, "trialdata": {"rt": -1000, "stimulus": "/static/audio/wordpool/IGLOO.wav", "key_press": -1, "type": "PRES_AUD", "word": "igloo", "wordID": 733, "conditions": [24, 1600, "a", 12000], "trial": 5, "serialpos": 23, "trial_type": "single-audio", "trial_index": 196, "time_elapsed": 822465, "internal_node_id": "0.0-142.0"}}, {"uniqueid": "MTK0092:3MRNMEIQW6DBCKBSA39I9MWCVLPDLU", "current_trial": 197, "dateTime": 1509140582786, "trialdata": {"rt": -1, "stimulus": "", "key_press": -1, "type": "PRE_RECALL_DELAY", "trial_type": "single-stim", "trial_index": 197, "time_elapsed": 823839, "internal_node_id": "0.0-143.0-0.0"}}, {"uniqueid": "MTK0092:3MRNMEIQW6DBCKBSA39I9MWCVLPDLU", "current_trial": 198, "dateTime": 1509140583287, "trialdata": {"rt": -1000, "stimulus": "/static/audio/400Hz.wav", "key_press": -1, "type": "PRE_RECALL_ALERT", "trial_type": "single-audio", "trial_index": 198, "time_elapsed": 824340, "internal_node_id": "0.0-144.0"}}, {"uniqueid": "MTK0092:3MRNMEIQW6DBCKBSA39I9MWCVLPDLU", "current_trial": 199, "dateTime": 1509140643295, "trialdata": {"rt": [1732, 4066, 5300, 6588, 8619, 22987], "recwords": ["igloo", "citrus", "peach", "brooke", "woman", "woman"], "type": "FREE_RECALL", "conditions": [24, 1600, "a", 12000], "trial": 5, "trial_type": "free-recall", "trial_index": 199, "time_elapsed": 884344, "internal_node_id": "0.0-145.0-0.0"}}, {"uniqueid": "MTK0092:3MRNMEIQW6DBCKBSA39I9MWCVLPDLU", "current_trial": 200, "dateTime": 1509140646721, "trialdata": {"rt": 1424, "key_press": 32, "type": "INSTRUCTIONS", "trial_type": "text", "trial_index": 200, "time_elapsed": 887773, "internal_node_id": "0.0-146.0"}}, {"uniqueid": "MTK0092:3MRNMEIQW6DBCKBSA39I9MWCVLPDLU", "current_trial": 201, "dateTime": 1509140672723, "trialdata": {"rt": [2820, 5378, 8840, 11053, 13839, 15960, 18339, 20289, 22182], "responses": ["21", "9", "20", "20", "11", "19", "15", "10", "8"], "num1": [9, 1, 7, 7, 6, 7, 9, 2, 3, 7], "num2": [4, 2, 9, 2, 3, 7, 2, 7, 3, 6], "num3": [8, 6, 4, 9, 2, 5, 4, 1, 2, 1], "type": "DISTRACTOR", "conditions": [12, 1600, "a", 24000], "trial": 6, "trial_type": "math-distractor", "trial_index": 201, "time_elapsed": 913776, "internal_node_id": "0.0-147.0"}}, {"uniqueid": "MTK0092:3MRNMEIQW6DBCKBSA39I9MWCVLPDLU", "current_trial": 202, "dateTime": 1509140675725, "trialdata": {"rt": -1, "stimulus": "<p id=\"stim\">10</p>", "key_press": -1, "trial_type": "single-stim", "trial_index": 202, "time_elapsed": 916778, "internal_node_id": "0.0-148.0-0.0"}}, {"uniqueid": "MTK0092:3MRNMEIQW6DBCKBSA39I9MWCVLPDLU", "current_trial": 203, "dateTime": 1509140676726, "trialdata": {"rt": -1, "stimulus": "<p id=\"stim\">9</p>", "key_press": -1, "trial_type": "single-stim", "trial_index": 203, "time_elapsed": 917779, "internal_node_id": "0.0-148.0-1.0"}}, {"uniqueid": "MTK0092:3MRNMEIQW6DBCKBSA39I9MWCVLPDLU", "current_trial": 204, "dateTime": 1509140677728, "trialdata": {"rt": -1, "stimulus": "<p id=\"stim\">8</p>", "key_press": -1, "trial_type": "single-stim", "trial_index": 204, "time_elapsed": 918781, "internal_node_id": "0.0-148.0-2.0"}}, {"uniqueid": "MTK0092:3MRNMEIQW6DBCKBSA39I9MWCVLPDLU", "current_trial": 205, "dateTime": 1509140678729, "trialdata": {"rt": -1, "stimulus": "<p id=\"stim\">7</p>", "key_press": -1, "trial_type": "single-stim", "trial_index": 205, "time_elapsed": 919782, "internal_node_id": "0.0-148.0-3.0"}}, {"uniqueid": "MTK0092:3MRNMEIQW6DBCKBSA39I9MWCVLPDLU", "current_trial": 206, "dateTime": 1509140679730, "trialdata": {"rt": -1, "stimulus": "<p id=\"stim\">6</p>", "key_press": -1, "trial_type": "single-stim", "trial_index": 206, "time_elapsed": 920783, "internal_node_id": "0.0-148.0-4.0"}}, {"uniqueid": "MTK0092:3MRNMEIQW6DBCKBSA39I9MWCVLPDLU", "current_trial": 207, "dateTime": 1509140680731, "trialdata": {"rt": -1, "stimulus": "<p id=\"stim\">5</p>", "key_press": -1, "trial_type": "single-stim", "trial_index": 207, "time_elapsed": 921784, "internal_node_id": "0.0-148.0-5.0"}}, {"uniqueid": "MTK0092:3MRNMEIQW6DBCKBSA39I9MWCVLPDLU", "current_trial": 208, "dateTime": 1509140681732, "trialdata": {"rt": -1, "stimulus": "<p id=\"stim\">4</p>", "key_press": -1, "trial_type": "single-stim", "trial_index": 208, "time_elapsed": 922785, "internal_node_id": "0.0-148.0-6.0"}}, {"uniqueid": "MTK0092:3MRNMEIQW6DBCKBSA39I9MWCVLPDLU", "current_trial": 209, "dateTime": 1509140682733, "trialdata": {"rt": -1, "stimulus": "<p id=\"stim\">3</p>", "key_press": -1, "trial_type": "single-stim", "trial_index": 209, "time_elapsed": 923786, "internal_node_id": "0.0-148.0-7.0"}}, {"uniqueid": "MTK0092:3MRNMEIQW6DBCKBSA39I9MWCVLPDLU", "current_trial": 210, "dateTime": 1509140683734, "trialdata": {"rt": -1, "stimulus": "<p id=\"stim\">2</p>", "key_press": -1, "trial_type": "single-stim", "trial_index": 210, "time_elapsed": 924787, "internal_node_id": "0.0-148.0-8.0"}}, {"uniqueid": "MTK0092:3MRNMEIQW6DBCKBSA39I9MWCVLPDLU", "current_trial": 211, "dateTime": 1509140684735, "trialdata": {"rt": -1, "stimulus": "<p id=\"stim\">1</p>", "key_press": -1, "trial_type": "single-stim", "trial_index": 211, "time_elapsed": 925788, "internal_node_id": "0.0-148.0-9.0"}}, {"uniqueid": "MTK0092:3MRNMEIQW6DBCKBSA39I9MWCVLPDLU", "current_trial": 212, "dateTime": 1509140686236, "trialdata": {"rt": -1, "stimulus": "<p id=\"stim\">+</p>", "key_press": -1, "type": "FIXATION", "trial_type": "single-stim", "trial_index": 212, "time_elapsed": 927289, "internal_node_id": "0.0-149.0-0.0"}}, {"uniqueid": "MTK0092:3MRNMEIQW6DBCKBSA39I9MWCVLPDLU", "current_trial": 213, "dateTime": 1509140688989, "trialdata": {"rt": -1000, "stimulus": "/static/audio/wordpool/DRESS.wav", "key_press": -1, "type": "PRES_AUD", "word": "dress", "wordID": 494, "conditions": [12, 1600, "a", 24000], "trial": 6, "serialpos": 0, "trial_type": "single-audio", "trial_index": 213, "time_elapsed": 930042, "internal_node_id": "0.0-150.0"}}, {"uniqueid": "MTK0092:3MRNMEIQW6DBCKBSA39I9MWCVLPDLU", "current_trial": 214, "dateTime": 1509140691417, "trialdata": {"rt": -1000, "stimulus": "/static/audio/wordpool/BRICK.wav", "key_press": -1, "type": "PRES_AUD", "word": "brick", "wordID": 171, "conditions": [12, 1600, "a", 24000], "trial": 6, "serialpos": 1, "trial_type": "single-audio", "trial_index": 214, "time_elapsed": 932470, "internal_node_id": "0.0-151.0"}}, {"uniqueid": "MTK0092:3MRNMEIQW6DBCKBSA39I9MWCVLPDLU", "current_trial": 215, "dateTime": 1509140693886, "trialdata": {"rt": -1000, "stimulus": "/static/audio/wordpool/YACHT.wav", "key_press": -1, "type": "PRES_AUD", "word": "yacht", "wordID": 1628, "conditions": [12, 1600, "a", 24000], "trial": 6, "serialpos": 2, "trial_type": "single-audio", "trial_index": 215, "time_elapsed": 934939, "internal_node_id": "0.0-152.0"}}, {"uniqueid": "MTK0092:3MRNMEIQW6DBCKBSA39I9MWCVLPDLU", "current_trial": 216, "dateTime": 1509140696536, "trialdata": {"rt": -1000, "stimulus": "/static/audio/wordpool/CRAB.wav", "key_press": -1, "type": "PRES_AUD", "word": "crab", "wordID": 396, "conditions": [12, 1600, "a", 24000], "trial": 6, "serialpos": 3, "trial_type": "single-audio", "trial_index": 216, "time_elapsed": 937589, "internal_node_id": "0.0-153.0"}}, {"uniqueid": "MTK0092:3MRNMEIQW6DBCKBSA39I9MWCVLPDLU", "current_trial": 217, "dateTime": 1509140699104, "trialdata": {"rt": -1000, "stimulus": "/static/audio/wordpool/PASTA.wav", "key_press": -1, "type": "PRES_AUD", "word": "pasta", "wordID": 1020, "conditions": [12, 1600, "a", 24000], "trial": 6, "serialpos": 4, "trial_type": "single-audio", "trial_index": 217, "time_elapsed": 940157, "internal_node_id": "0.0-154.0"}}, {"uniqueid": "MTK0092:3MRNMEIQW6DBCKBSA39I9MWCVLPDLU", "current_trial": 218, "dateTime": 1509140701605, "trialdata": {"rt": -1000, "stimulus": "/static/audio/wordpool/COCKTAIL.wav", "key_press": -1, "type": "PRES_AUD", "word": "cocktail", "wordID": 337, "conditions": [12, 1600, "a", 24000], "trial": 6, "serialpos": 5, "trial_type": "single-audio", "trial_index": 218, "time_elapsed": 942658, "internal_node_id": "0.0-155.0"}}, {"uniqueid": "MTK0092:3MRNMEIQW6DBCKBSA39I9MWCVLPDLU", "current_trial": 219, "dateTime": 1509140704052, "trialdata": {"rt": -1000, "stimulus": "/static/audio/wordpool/SKIRT.wav", "key_press": -1, "type": "PRES_AUD", "word": "skirt", "wordID": 1318, "conditions": [12, 1600, "a", 24000], "trial": 6, "serialpos": 6, "trial_type": "single-audio", "trial_index": 219, "time_elapsed": 945105, "internal_node_id": "0.0-156.0"}}, {"uniqueid": "MTK0092:3MRNMEIQW6DBCKBSA39I9MWCVLPDLU", "current_trial": 220, "dateTime": 1509140706797, "trialdata": {"rt": -1000, "stimulus": "/static/audio/wordpool/WHISTLE.wav", "key_press": -1, "type": "PRES_AUD", "word": "whistle", "wordID": 1605, "conditions": [12, 1600, "a", 24000], "trial": 6, "serialpos": 7, "trial_type": "single-audio", "trial_index": 220, "time_elapsed": 947850, "internal_node_id": "0.0-157.0"}}, {"uniqueid": "MTK0092:3MRNMEIQW6DBCKBSA39I9MWCVLPDLU", "current_trial": 221, "dateTime": 1509140709396, "trialdata": {"rt": -1000, "stimulus": "/static/audio/wordpool/ELBOW.wav", "key_press": -1, "type": "PRES_AUD", "word": "elbow", "wordID": 519, "conditions": [12, 1600, "a", 24000], "trial": 6, "serialpos": 8, "trial_type": "single-audio", "trial_index": 221, "time_elapsed": 950449, "internal_node_id": "0.0-158.0"}}, {"uniqueid": "MTK0092:3MRNMEIQW6DBCKBSA39I9MWCVLPDLU", "current_trial": 222, "dateTime": 1509140711859, "trialdata": {"rt": -1000, "stimulus": "/static/audio/wordpool/WRIST.wav", "key_press": -1, "type": "PRES_AUD", "word": "wrist", "wordID": 1625, "conditions": [12, 1600, "a", 24000], "trial": 6, "serialpos": 9, "trial_type": "single-audio", "trial_index": 222, "time_elapsed": 952912, "internal_node_id": "0.0-159.0"}}, {"uniqueid": "MTK0092:3MRNMEIQW6DBCKBSA39I9MWCVLPDLU", "current_trial": 223, "dateTime": 1509140714650, "trialdata": {"rt": -1000, "stimulus": "/static/audio/wordpool/POISON.wav", "key_press": -1, "type": "PRES_AUD", "word": "poison", "wordID": 1095, "conditions": [12, 1600, "a", 24000], "trial": 6, "serialpos": 10, "trial_type": "single-audio", "trial_index": 223, "time_elapsed": 955703, "internal_node_id": "0.0-160.0"}}, {"uniqueid": "MTK0092:3MRNMEIQW6DBCKBSA39I9MWCVLPDLU", "current_trial": 224, "dateTime": 1509140717347, "trialdata": {"rt": -1000, "stimulus": "/static/audio/wordpool/COUCH.wav", "key_press": -1, "type": "PRES_AUD", "word": "couch", "wordID": 385, "conditions": [12, 1600, "a", 24000], "trial": 6, "serialpos": 11, "trial_type": "single-audio", "trial_index": 224, "time_elapsed": 958400, "internal_node_id": "0.0-161.0"}}, {"uniqueid": "MTK0092:3MRNMEIQW6DBCKBSA39I9MWCVLPDLU", "current_trial": 225, "dateTime": 1509140718606, "trialdata": {"rt": -1, "stimulus": "", "key_press": -1, "type": "PRE_RECALL_DELAY", "trial_type": "single-stim", "trial_index": 225, "time_elapsed": 959659, "internal_node_id": "0.0-162.0-0.0"}}, {"uniqueid": "MTK0092:3MRNMEIQW6DBCKBSA39I9MWCVLPDLU", "current_trial": 226, "dateTime": 1509140719107, "trialdata": {"rt": -1000, "stimulus": "/static/audio/400Hz.wav", "key_press": -1, "type": "PRE_RECALL_ALERT", "trial_type": "single-audio", "trial_index": 226, "time_elapsed": 960160, "internal_node_id": "0.0-163.0"}}, {"uniqueid": "MTK0092:3MRNMEIQW6DBCKBSA39I9MWCVLPDLU", "current_trial": 227, "dateTime": 1509140779114, "trialdata": {"rt": [1794, 3096, 4602, 5734, 6834, 8276, 11483, 36366], "recwords": ["dress", "skirt", "couch", "elbow", "pasta", "wrist", "poison", "brick"], "type": "FREE_RECALL", "conditions": [12, 1600, "a", 24000], "trial": 6, "trial_type": "free-recall", "trial_index": 227, "time_elapsed": 1020163, "internal_node_id": "0.0-164.0-0.0"}}, {"uniqueid": "MTK0092:3MRNMEIQW6DBCKBSA39I9MWCVLPDLU", "current_trial": 228, "dateTime": 1509140782389, "trialdata": {"rt": 1274, "key_press": 32, "type": "INSTRUCTIONS", "trial_type": "text", "trial_index": 228, "time_elapsed": 1023442, "internal_node_id": "0.0-165.0"}}, {"uniqueid": "MTK0092:3MRNMEIQW6DBCKBSA39I9MWCVLPDLU", "current_trial": 229, "dateTime": 1509140808393, "trialdata": {"rt": [2550, 4566, 7708, 9952, 12451, 14498, 17026, 19008, 21401], "responses": ["21", "24", "19", "13", "16", "15", "19", "7", "20"], "num1": [8, 9, 9, 4, 6, 1, 7, 2, 7, 9], "num2": [8, 9, 6, 2, 4, 8, 6, 3, 9, 6], "num3": [5, 6, 4, 7, 6, 6, 6, 2, 4, 6], "type": "DISTRACTOR", "conditions": [24, 800, "a", 24000], "trial": 7, "trial_type": "math-distractor", "trial_index": 229, "time_elapsed": 1049445, "internal_node_id": "0.0-166.0"}}, {"uniqueid": "MTK0092:3MRNMEIQW6DBCKBSA39I9MWCVLPDLU", "current_trial": 230, "dateTime": 1509140811395, "trialdata": {"rt": -1, "stimulus": "<p id=\"stim\">10</p>", "key_press": -1, "trial_type": "single-stim", "trial_index": 230, "time_elapsed": 1052448, "internal_node_id": "0.0-167.0-0.0"}}, {"uniqueid": "MTK0092:3MRNMEIQW6DBCKBSA39I9MWCVLPDLU", "current_trial": 231, "dateTime": 1509140812398, "trialdata": {"rt": -1, "stimulus": "<p id=\"stim\">9</p>", "key_press": -1, "trial_type": "single-stim", "trial_index": 231, "time_elapsed": 1053449, "internal_node_id": "0.0-167.0-1.0"}}, {"uniqueid": "MTK0092:3MRNMEIQW6DBCKBSA39I9MWCVLPDLU", "current_trial": 232, "dateTime": 1509140813399, "trialdata": {"rt": -1, "stimulus": "<p id=\"stim\">8</p>", "key_press": -1, "trial_type": "single-stim", "trial_index": 232, "time_elapsed": 1054452, "internal_node_id": "0.0-167.0-2.0"}}, {"uniqueid": "MTK0092:3MRNMEIQW6DBCKBSA39I9MWCVLPDLU", "current_trial": 233, "dateTime": 1509140814400, "trialdata": {"rt": -1, "stimulus": "<p id=\"stim\">7</p>", "key_press": -1, "trial_type": "single-stim", "trial_index": 233, "time_elapsed": 1055453, "internal_node_id": "0.0-167.0-3.0"}}, {"uniqueid": "MTK0092:3MRNMEIQW6DBCKBSA39I9MWCVLPDLU", "current_trial": 234, "dateTime": 1509140815401, "trialdata": {"rt": -1, "stimulus": "<p id=\"stim\">6</p>", "key_press": -1, "trial_type": "single-stim", "trial_index": 234, "time_elapsed": 1056454, "internal_node_id": "0.0-167.0-4.0"}}, {"uniqueid": "MTK0092:3MRNMEIQW6DBCKBSA39I9MWCVLPDLU", "current_trial": 235, "dateTime": 1509140816402, "trialdata": {"rt": -1, "stimulus": "<p id=\"stim\">5</p>", "key_press": -1, "trial_type": "single-stim", "trial_index": 235, "time_elapsed": 1057455, "internal_node_id": "0.0-167.0-5.0"}}, {"uniqueid": "MTK0092:3MRNMEIQW6DBCKBSA39I9MWCVLPDLU", "current_trial": 236, "dateTime": 1509140817404, "trialdata": {"rt": -1, "stimulus": "<p id=\"stim\">4</p>", "key_press": -1, "trial_type": "single-stim", "trial_index": 236, "time_elapsed": 1058457, "internal_node_id": "0.0-167.0-6.0"}}, {"uniqueid": "MTK0092:3MRNMEIQW6DBCKBSA39I9MWCVLPDLU", "current_trial": 237, "dateTime": 1509140818405, "trialdata": {"rt": -1, "stimulus": "<p id=\"stim\">3</p>", "key_press": -1, "trial_type": "single-stim", "trial_index": 237, "time_elapsed": 1059458, "internal_node_id": "0.0-167.0-7.0"}}, {"uniqueid": "MTK0092:3MRNMEIQW6DBCKBSA39I9MWCVLPDLU", "current_trial": 238, "dateTime": 1509140819406, "trialdata": {"rt": -1, "stimulus": "<p id=\"stim\">2</p>", "key_press": -1, "trial_type": "single-stim", "trial_index": 238, "time_elapsed": 1060459, "internal_node_id": "0.0-167.0-8.0"}}, {"uniqueid": "MTK0092:3MRNMEIQW6DBCKBSA39I9MWCVLPDLU", "current_trial": 239, "dateTime": 1509140820407, "trialdata": {"rt": -1, "stimulus": "<p id=\"stim\">1</p>", "key_press": -1, "trial_type": "single-stim", "trial_index": 239, "time_elapsed": 1061460, "internal_node_id": "0.0-167.0-9.0"}}, {"uniqueid": "MTK0092:3MRNMEIQW6DBCKBSA39I9MWCVLPDLU", "current_trial": 240, "dateTime": 1509140821908, "trialdata": {"rt": -1, "stimulus": "<p id=\"stim\">+</p>", "key_press": -1, "type": "FIXATION", "trial_type": "single-stim", "trial_index": 240, "time_elapsed": 1062961, "internal_node_id": "0.0-168.0-0.0"}}, {"uniqueid": "MTK0092:3MRNMEIQW6DBCKBSA39I9MWCVLPDLU", "current_trial": 241, "dateTime": 1509140823799, "trialdata": {"rt": -1000, "stimulus": "/static/audio/wordpool/LODGE.wav", "key_press": -1, "type": "PRES_AUD", "word": "lodge", "wordID": 838, "conditions": [24, 800, "a", 24000], "trial": 7, "serialpos": 0, "trial_type": "single-audio", "trial_index": 241, "time_elapsed": 1064852, "internal_node_id": "0.0-169.0"}}, {"uniqueid": "MTK0092:3MRNMEIQW6DBCKBSA39I9MWCVLPDLU", "current_trial": 242, "dateTime": 1509140825442, "trialdata": {"rt": -1000, "stimulus": "/static/audio/wordpool/ATOM.wav", "key_press": -1, "type": "PRES_AUD", "word": "atom", "wordID": 54, "conditions": [24, 800, "a", 24000], "trial": 7, "serialpos": 1, "trial_type": "single-audio", "trial_index": 242, "time_elapsed": 1066495, "internal_node_id": "0.0-170.0"}}, {"uniqueid": "MTK0092:3MRNMEIQW6DBCKBSA39I9MWCVLPDLU", "current_trial": 243, "dateTime": 1509140827420, "trialdata": {"rt": -1000, "stimulus": "/static/audio/wordpool/MACHINE.wav", "key_press": -1, "type": "PRES_AUD", "word": "machine", "wordID": 851, "conditions": [24, 800, "a", 24000], "trial": 7, "serialpos": 2, "trial_type": "single-audio", "trial_index": 243, "time_elapsed": 1068473, "internal_node_id": "0.0-171.0"}}, {"uniqueid": "MTK0092:3MRNMEIQW6DBCKBSA39I9MWCVLPDLU", "current_trial": 244, "dateTime": 1509140829045, "trialdata": {"rt": -1000, "stimulus": "/static/audio/wordpool/SKETCH.wav", "key_press": -1, "type": "PRES_AUD", "word": "sketch", "wordID": 1314, "conditions": [24, 800, "a", 24000], "trial": 7, "serialpos": 3, "trial_type": "single-audio", "trial_index": 244, "time_elapsed": 1070098, "internal_node_id": "0.0-172.0"}}, {"uniqueid": "MTK0092:3MRNMEIQW6DBCKBSA39I9MWCVLPDLU", "current_trial": 245, "dateTime": 1509140830738, "trialdata": {"rt": -1000, "stimulus": "/static/audio/wordpool/REPORT.wav", "key_press": -1, "type": "PRES_AUD", "word": "report", "wordID": 1183, "conditions": [24, 800, "a", 24000], "trial": 7, "serialpos": 4, "trial_type": "single-audio", "trial_index": 245, "time_elapsed": 1071791, "internal_node_id": "0.0-173.0"}}, {"uniqueid": "MTK0092:3MRNMEIQW6DBCKBSA39I9MWCVLPDLU", "current_trial": 246, "dateTime": 1509140832594, "trialdata": {"rt": -1000, "stimulus": "/static/audio/wordpool/BEAKER.wav", "key_press": -1, "type": "PRES_AUD", "word": "beaker", "wordID": 103, "conditions": [24, 800, "a", 24000], "trial": 7, "serialpos": 5, "trial_type": "single-audio", "trial_index": 246, "time_elapsed": 1073647, "internal_node_id": "0.0-174.0"}}, {"uniqueid": "MTK0092:3MRNMEIQW6DBCKBSA39I9MWCVLPDLU", "current_trial": 247, "dateTime": 1509140834579, "trialdata": {"rt": -1000, "stimulus": "/static/audio/wordpool/FLASK.wav", "key_press": -1, "type": "PRES_AUD", "word": "flask", "wordID": 575, "conditions": [24, 800, "a", 24000], "trial": 7, "serialpos": 6, "trial_type": "single-audio", "trial_index": 247, "time_elapsed": 1075632, "internal_node_id": "0.0-175.0"}}, {"uniqueid": "MTK0092:3MRNMEIQW6DBCKBSA39I9MWCVLPDLU", "current_trial": 248, "dateTime": 1509140836288, "trialdata": {"rt": -1000, "stimulus": "/static/audio/wordpool/SURVEY.wav", "key_press": -1, "type": "PRES_AUD", "word": "survey", "wordID": 1413, "conditions": [24, 800, "a", 24000], "trial": 7, "serialpos": 7, "trial_type": "single-audio", "trial_index": 248, "time_elapsed": 1077341, "internal_node_id": "0.0-176.0"}}, {"uniqueid": "MTK0092:3MRNMEIQW6DBCKBSA39I9MWCVLPDLU", "current_trial": 249, "dateTime": 1509140838126, "trialdata": {"rt": -1000, "stimulus": "/static/audio/wordpool/TEMPLE.wav", "key_press": -1, "type": "PRES_AUD", "word": "temple", "wordID": 1447, "conditions": [24, 800, "a", 24000], "trial": 7, "serialpos": 8, "trial_type": "single-audio", "trial_index": 249, "time_elapsed": 1079179, "internal_node_id": "0.0-177.0"}}, {"uniqueid": "MTK0092:3MRNMEIQW6DBCKBSA39I9MWCVLPDLU", "current_trial": 250, "dateTime": 1509140839785, "trialdata": {"rt": -1000, "stimulus": "/static/audio/wordpool/SLIDE.wav", "key_press": -1, "type": "PRES_AUD", "word": "slide", "wordID": 1325, "conditions": [24, 800, "a", 24000], "trial": 7, "serialpos": 9, "trial_type": "single-audio", "trial_index": 250, "time_elapsed": 1080838, "internal_node_id": "0.0-178.0"}}, {"uniqueid": "MTK0092:3MRNMEIQW6DBCKBSA39I9MWCVLPDLU", "current_trial": 251, "dateTime": 1509140841691, "trialdata": {"rt": -1000, "stimulus": "/static/audio/wordpool/MILDEW.wav", "key_press": -1, "type": "PRES_AUD", "word": "mildew", "wordID": 892, "conditions": [24, 800, "a", 24000], "trial": 7, "serialpos": 10, "trial_type": "single-audio", "trial_index": 251, "time_elapsed": 1082744, "internal_node_id": "0.0-179.0"}}, {"uniqueid": "MTK0092:3MRNMEIQW6DBCKBSA39I9MWCVLPDLU", "current_trial": 252, "dateTime": 1509140843382, "trialdata": {"rt": -1000, "stimulus": "/static/audio/wordpool/CLAM.wav", "key_press": -1, "type": "PRES_AUD", "word": "clam", "wordID": 314, "conditions": [24, 800, "a", 24000], "trial": 7, "serialpos": 11, "trial_type": "single-audio", "trial_index": 252, "time_elapsed": 1084435, "internal_node_id": "0.0-180.0"}}, {"uniqueid": "MTK0092:3MRNMEIQW6DBCKBSA39I9MWCVLPDLU", "current_trial": 253, "dateTime": 1509140845026, "trialdata": {"rt": -1000, "stimulus": "/static/audio/wordpool/PERFUME.wav", "key_press": -1, "type": "PRES_AUD", "word": "perfume", "wordID": 1048, "conditions": [24, 800, "a", 24000], "trial": 7, "serialpos": 12, "trial_type": "single-audio", "trial_index": 253, "time_elapsed": 1086079, "internal_node_id": "0.0-181.0"}}, {"uniqueid": "MTK0092:3MRNMEIQW6DBCKBSA39I9MWCVLPDLU", "current_trial": 254, "dateTime": 1509140846810, "trialdata": {"rt": -1000, "stimulus": "/static/audio/wordpool/LAGOON.wav", "key_press": -1, "type": "PRES_AUD", "word": "lagoon", "wordID": 794, "conditions": [24, 800, "a", 24000], "trial": 7, "serialpos": 13, "trial_type": "single-audio", "trial_index": 254, "time_elapsed": 1087863, "internal_node_id": "0.0-182.0"}}, {"uniqueid": "MTK0092:3MRNMEIQW6DBCKBSA39I9MWCVLPDLU", "current_trial": 255, "dateTime": 1509140848735, "trialdata": {"rt": -1000, "stimulus": "/static/audio/wordpool/BODY.wav", "key_press": -1, "type": "PRES_AUD", "word": "body", "wordID": 144, "conditions": [24, 800, "a", 24000], "trial": 7, "serialpos": 14, "trial_type": "single-audio", "trial_index": 255, "time_elapsed": 1089788, "internal_node_id": "0.0-183.0"}}, {"uniqueid": "MTK0092:3MRNMEIQW6DBCKBSA39I9MWCVLPDLU", "current_trial": 256, "dateTime": 1509140850555, "trialdata": {"rt": -1000, "stimulus": "/static/audio/wordpool/OZONE.wav", "key_press": -1, "type": "PRES_AUD", "word": "ozone", "wordID": 995, "conditions": [24, 800, "a", 24000], "trial": 7, "serialpos": 15, "trial_type": "single-audio", "trial_index": 256, "time_elapsed": 1091608, "internal_node_id": "0.0-184.0"}}, {"uniqueid": "MTK0092:3MRNMEIQW6DBCKBSA39I9MWCVLPDLU", "current_trial": 257, "dateTime": 1509140852410, "trialdata": {"rt": -1000, "stimulus": "/static/audio/wordpool/SANDWICH.wav", "key_press": -1, "type": "PRES_AUD", "word": "sandwich", "wordID": 1231, "conditions": [24, 800, "a", 24000], "trial": 7, "serialpos": 16, "trial_type": "single-audio", "trial_index": 257, "time_elapsed": 1093463, "internal_node_id": "0.0-185.0"}}, {"uniqueid": "MTK0092:3MRNMEIQW6DBCKBSA39I9MWCVLPDLU", "current_trial": 258, "dateTime": 1509140854394, "trialdata": {"rt": -1000, "stimulus": "/static/audio/wordpool/SODA.wav", "key_press": -1, "type": "PRES_AUD", "word": "soda", "wordID": 1340, "conditions": [24, 800, "a", 24000], "trial": 7, "serialpos": 17, "trial_type": "single-audio", "trial_index": 258, "time_elapsed": 1095447, "internal_node_id": "0.0-186.0"}}, {"uniqueid": "MTK0092:3MRNMEIQW6DBCKBSA39I9MWCVLPDLU", "current_trial": 259, "dateTime": 1509140856023, "trialdata": {"rt": -1000, "stimulus": "/static/audio/wordpool/PILOT.wav", "key_press": -1, "type": "PRES_AUD", "word": "pilot", "wordID": 1069, "conditions": [24, 800, "a", 24000], "trial": 7, "serialpos": 18, "trial_type": "single-audio", "trial_index": 259, "time_elapsed": 1097076, "internal_node_id": "0.0-187.0"}}, {"uniqueid": "MTK0092:3MRNMEIQW6DBCKBSA39I9MWCVLPDLU", "current_trial": 260, "dateTime": 1509140857847, "trialdata": {"rt": -1000, "stimulus": "/static/audio/wordpool/TURTLE.wav", "key_press": -1, "type": "PRES_AUD", "word": "turtle", "wordID": 1521, "conditions": [24, 800, "a", 24000], "trial": 7, "serialpos": 19, "trial_type": "single-audio", "trial_index": 260, "time_elapsed": 1098900, "internal_node_id": "0.0-188.0"}}, {"uniqueid": "MTK0092:3MRNMEIQW6DBCKBSA39I9MWCVLPDLU", "current_trial": 261, "dateTime": 1509140859819, "trialdata": {"rt": -1000, "stimulus": "/static/audio/wordpool/SNACK.wav", "key_press": -1, "type": "PRES_AUD", "word": "snack", "wordID": 1330, "conditions": [24, 800, "a", 24000], "trial": 7, "serialpos": 20, "trial_type": "single-audio", "trial_index": 261, "time_elapsed": 1100872, "internal_node_id": "0.0-189.0"}}, {"uniqueid": "MTK0092:3MRNMEIQW6DBCKBSA39I9MWCVLPDLU", "current_trial": 262, "dateTime": 1509140861546, "trialdata": {"rt": -1000, "stimulus": "/static/audio/wordpool/BEAVER.wav", "key_press": -1, "type": "PRES_AUD", "word": "beaver", "wordID": 108, "conditions": [24, 800, "a", 24000], "trial": 7, "serialpos": 21, "trial_type": "single-audio", "trial_index": 262, "time_elapsed": 1102599, "internal_node_id": "0.0-190.0"}}, {"uniqueid": "MTK0092:3MRNMEIQW6DBCKBSA39I9MWCVLPDLU", "current_trial": 263, "dateTime": 1509140863301, "trialdata": {"rt": -1000, "stimulus": "/static/audio/wordpool/CHIPMUNK.wav", "key_press": -1, "type": "PRES_AUD", "word": "chipmunk", "wordID": 303, "conditions": [24, 800, "a", 24000], "trial": 7, "serialpos": 22, "trial_type": "single-audio", "trial_index": 263, "time_elapsed": 1104354, "internal_node_id": "0.0-191.0"}}, {"uniqueid": "MTK0092:3MRNMEIQW6DBCKBSA39I9MWCVLPDLU", "current_trial": 264, "dateTime": 1509140865287, "trialdata": {"rt": -1000, "stimulus": "/static/audio/wordpool/SHIRT.wav", "key_press": -1, "type": "PRES_AUD", "word": "shirt", "wordID": 1286, "conditions": [24, 800, "a", 24000], "trial": 7, "serialpos": 23, "trial_type": "single-audio", "trial_index": 264, "time_elapsed": 1106340, "internal_node_id": "0.0-192.0"}}, {"uniqueid": "MTK0092:3MRNMEIQW6DBCKBSA39I9MWCVLPDLU", "current_trial": 265, "dateTime": 1509140866550, "trialdata": {"rt": -1, "stimulus": "", "key_press": -1, "type": "PRE_RECALL_DELAY", "trial_type": "single-stim", "trial_index": 265, "time_elapsed": 1107603, "internal_node_id": "0.0-193.0-0.0"}}, {"uniqueid": "MTK0092:3MRNMEIQW6DBCKBSA39I9MWCVLPDLU", "current_trial": 266, "dateTime": 1509140867051, "trialdata": {"rt": -1000, "stimulus": "/static/audio/400Hz.wav", "key_press": -1, "type": "PRE_RECALL_ALERT", "trial_type": "single-audio", "trial_index": 266, "time_elapsed": 1108104, "internal_node_id": "0.0-194.0"}}, {"uniqueid": "MTK0092:3MRNMEIQW6DBCKBSA39I9MWCVLPDLU", "current_trial": 267, "dateTime": 1509140927060, "trialdata": {"rt": [1073, 2094, 4212, 6142, 7036, 22968, 29465, 31651, 45989], "recwords": ["shirt", "beaver", "chipmunk", "beaker", "flask", "beaver", "sandwich", "snack", "science"], "type": "FREE_RECALL", "conditions": [24, 800, "a", 24000], "trial": 7, "trial_type": "free-recall", "trial_index": 267, "time_elapsed": 1168109, "internal_node_id": "0.0-195.0-0.0"}}, {"uniqueid": "MTK0092:3MRNMEIQW6DBCKBSA39I9MWCVLPDLU", "current_trial": 268, "dateTime": 1509140929885, "trialdata": {"rt": 824, "key_press": 32, "type": "INSTRUCTIONS", "trial_type": "text", "trial_index": 268, "time_elapsed": 1170938, "internal_node_id": "0.0-196.0"}}, {"uniqueid": "MTK0092:3MRNMEIQW6DBCKBSA39I9MWCVLPDLU", "current_trial": 269, "dateTime": 1509140943888, "trialdata": {"rt": [4378, 7202, 9548], "responses": ["15", "10", "21"], "num1": [4, 7, 9, 7], "num2": [7, 1, 6, 4], "num3": [4, 2, 6, 7], "type": "DISTRACTOR", "conditions": [24, 800, "v", 12000], "trial": 8, "trial_type": "math-distractor", "trial_index": 269, "time_elapsed": 1184941, "internal_node_id": "0.0-197.0"}}, {"uniqueid": "MTK0092:3MRNMEIQW6DBCKBSA39I9MWCVLPDLU", "current_trial": 270, "dateTime": 1509140946890, "trialdata": {"rt": -1, "stimulus": "<p id=\"stim\">10</p>", "key_press": -1, "trial_type": "single-stim", "trial_index": 270, "time_elapsed": 1187943, "internal_node_id": "0.0-198.0-0.0"}}, {"uniqueid": "MTK0092:3MRNMEIQW6DBCKBSA39I9MWCVLPDLU", "current_trial": 271, "dateTime": 1509140947891, "trialdata": {"rt": -1, "stimulus": "<p id=\"stim\">9</p>", "key_press": -1, "trial_type": "single-stim", "trial_index": 271, "time_elapsed": 1188944, "internal_node_id": "0.0-198.0-1.0"}}, {"uniqueid": "MTK0092:3MRNMEIQW6DBCKBSA39I9MWCVLPDLU", "current_trial": 272, "dateTime": 1509140948892, "trialdata": {"rt": -1, "stimulus": "<p id=\"stim\">8</p>", "key_press": -1, "trial_type": "single-stim", "trial_index": 272, "time_elapsed": 1189945, "internal_node_id": "0.0-198.0-2.0"}}, {"uniqueid": "MTK0092:3MRNMEIQW6