{"condition": 0, "counterbalance": 48, "assignmentId": "3RU7GD8VPP075U98ZLXEL2RW5PBSPY", "workerId": "MTK0787", "hitId": "3XABXM4AJ1C8Z2XKVY1WFWLLILL8QX", "currenttrial": 626, "bonus": 0, "data": [{"uniqueid": "MTK0787:3RU7GD8VPP075U98ZLXEL2RW5PBSPY", "current_trial": 0, "dateTime": 1512752754532, "trialdata": {"rt": 18667, "key_press": 13, "type": "INSTRUCTIONS", "trial_type": "text", "trial_index": 0, "time_elapsed": 18672, "internal_node_id": "0.0-0.0"}}, {"uniqueid": "MTK0787:3RU7GD8VPP075U98ZLXEL2RW5PBSPY", "current_trial": 1, "dateTime": 1512752770822, "trialdata": {"rt": 16283, "key_press": 175, "type": "INSTRUCTIONS", "trial_type": "text", "trial_index": 1, "time_elapsed": 34962, "internal_node_id": "0.0-1.0"}}, {"uniqueid": "MTK0787:3RU7GD8VPP075U98ZLXEL2RW5PBSPY", "current_trial": 2, "dateTime": 1512752776021, "trialdata": {"rt": [5096], "responses": ["ocean"], "type": "AUDIO_TEST", "trial_type": "audio-test", "trial_index": 2, "time_elapsed": 40162, "internal_node_id": "0.0-2.0"}}, {"uniqueid": "MTK0787:3RU7GD8VPP075U98ZLXEL2RW5PBSPY", "current_trial": 3, "dateTime": 1512752784495, "trialdata": {"rt": [8465], "responses": ["crystal"], "type": "AUDIO_TEST", "trial_type": "audio-test", "trial_index": 3, "time_elapsed": 48636, "internal_node_id": "0.0-3.0"}}, {"uniqueid": "MTK0787:3RU7GD8VPP075U98ZLXEL2RW5PBSPY", "current_trial": 4, "dateTime": 1512752789587, "trialdata": {"rt": [5083], "responses": ["spice"], "type": "AUDIO_TEST", "trial_type": "audio-test", "trial_index": 4, "time_elapsed": 53728, "internal_node_id": "0.0-4.0"}}, {"uniqueid": "MTK0787:3RU7GD8VPP075U98ZLXEL2RW5PBSPY", "current_trial": 5, "dateTime": 1512752813148, "trialdata": {"rt": 22801, "responses": "{\"Q0\":\"1am\",\"Q1\":\"8:30am\",\"Q2\":\"5\"}", "type": "SLEEP_SURVEY", "trial_type": "survey-text", "trial_index": 5, "time_elapsed": 77288, "internal_node_id": "0.0-5.0"}}, {"uniqueid": "MTK0787:3RU7GD8VPP075U98ZLXEL2RW5PBSPY", "current_trial": 6, "dateTime": 1512752847739, "trialdata": {"rt": 33588, "key_press": 13, "type": "INSTRUCTIONS", "trial_type": "text", "trial_index": 6, "time_elapsed": 111880, "internal_node_id": "0.0-6.0"}}, {"uniqueid": "MTK0787:3RU7GD8VPP075U98ZLXEL2RW5PBSPY", "current_trial": 7, "dateTime": 1512752860529, "trialdata": {"rt": 12288, "key_press": 13, "type": "INSTRUCTIONS", "trial_type": "text", "trial_index": 7, "time_elapsed": 124670, "internal_node_id": "0.0-7.0"}}, {"uniqueid": "MTK0787:3RU7GD8VPP075U98ZLXEL2RW5PBSPY", "current_trial": 8, "dateTime": 1512752867078, "trialdata": {"rt": 6047, "key_press": 13, "type": "INSTRUCTIONS", "trial_type": "text", "trial_index": 8, "time_elapsed": 131218, "internal_node_id": "0.0-8.0"}}, {"uniqueid": "MTK0787:3RU7GD8VPP075U98ZLXEL2RW5PBSPY", "current_trial": 9, "dateTime": 1512752886102, "trialdata": {"rt": [3709, 5766, 8443, 12155, 14634, 16644], "responses": ["16", "18", "15", "12", "19", "19"], "num1": [8, 6, 8, 4, 9, 1, 2], "num2": [5, 6, 7, 5, 3, 9, 2], "num3": [3, 6, 8, 3, 7, 9, 1], "type": "DISTRACTOR", "conditions": [18, 1200, "a", 18000], "trial": 0, "trial_type": "math-distractor", "trial_index": 9, "time_elapsed": 150242, "internal_node_id": "0.0-9.0"}}, {"uniqueid": "MTK0787:3RU7GD8VPP075U98ZLXEL2RW5PBSPY", "current_trial": 10, "dateTime": 1512752889111, "trialdata": {"rt": -1, "stimulus": "<p id=\"stim\">10</p>", "key_press": -1, "trial_type": "single-stim", "trial_index": 10, "time_elapsed": 153251, "internal_node_id": "0.0-10.0-0.0"}}, {"uniqueid": "MTK0787:3RU7GD8VPP075U98ZLXEL2RW5PBSPY", "current_trial": 11, "dateTime": 1512752890115, "trialdata": {"rt": -1, "stimulus": "<p id=\"stim\">9</p>", "key_press": -1, "trial_type": "single-stim", "trial_index": 11, "time_elapsed": 154256, "internal_node_id": "0.0-10.0-1.0"}}, {"uniqueid": "MTK0787:3RU7GD8VPP075U98ZLXEL2RW5PBSPY", "current_trial": 12, "dateTime": 1512752891119, "trialdata": {"rt": -1, "stimulus": "<p id=\"stim\">8</p>", "key_press": -1, "trial_type": "single-stim", "trial_index": 12, "time_elapsed": 155260, "internal_node_id": "0.0-10.0-2.0"}}, {"uniqueid": "MTK0787:3RU7GD8VPP075U98ZLXEL2RW5PBSPY", "current_trial": 13, "dateTime": 1512752892123, "trialdata": {"rt": -1, "stimulus": "<p id=\"stim\">7</p>", "key_press": -1, "trial_type": "single-stim", "trial_index": 13, "time_elapsed": 156264, "internal_node_id": "0.0-10.0-3.0"}}, {"uniqueid": "MTK0787:3RU7GD8VPP075U98ZLXEL2RW5PBSPY", "current_trial": 14, "dateTime": 1512752893128, "trialdata": {"rt": -1, "stimulus": "<p id=\"stim\">6</p>", "key_press": -1, "trial_type": "single-stim", "trial_index": 14, "time_elapsed": 157269, "internal_node_id": "0.0-10.0-4.0"}}, {"uniqueid": "MTK0787:3RU7GD8VPP075U98ZLXEL2RW5PBSPY", "current_trial": 15, "dateTime": 1512752894135, "trialdata": {"rt": -1, "stimulus": "<p id=\"stim\">5</p>", "key_press": -1, "trial_type": "single-stim", "trial_index": 15, "time_elapsed": 158275, "internal_node_id": "0.0-10.0-5.0"}}, {"uniqueid": "MTK0787:3RU7GD8VPP075U98ZLXEL2RW5PBSPY", "current_trial": 16, "dateTime": 1512752895139, "trialdata": {"rt": -1, "stimulus": "<p id=\"stim\">4</p>", "key_press": -1, "trial_type": "single-stim", "trial_index": 16, "time_elapsed": 159279, "internal_node_id": "0.0-10.0-6.0"}}, {"uniqueid": "MTK0787:3RU7GD8VPP075U98ZLXEL2RW5PBSPY", "current_trial": 17, "dateTime": 1512752896142, "trialdata": {"rt": -1, "stimulus": "<p id=\"stim\">3</p>", "key_press": -1, "trial_type": "single-stim", "trial_index": 17, "time_elapsed": 160283, "internal_node_id": "0.0-10.0-7.0"}}, {"uniqueid": "MTK0787:3RU7GD8VPP075U98ZLXEL2RW5PBSPY", "current_trial": 18, "dateTime": 1512752897146, "trialdata": {"rt": -1, "stimulus": "<p id=\"stim\">2</p>", "key_press": -1, "trial_type": "single-stim", "trial_index": 18, "time_elapsed": 161287, "internal_node_id": "0.0-10.0-8.0"}}, {"uniqueid": "MTK0787:3RU7GD8VPP075U98ZLXEL2RW5PBSPY", "current_trial": 19, "dateTime": 1512752898151, "trialdata": {"rt": -1, "stimulus": "<p id=\"stim\">1</p>", "key_press": -1, "trial_type": "single-stim", "trial_index": 19, "time_elapsed": 162290, "internal_node_id": "0.0-10.0-9.0"}}, {"uniqueid": "MTK0787:3RU7GD8VPP075U98ZLXEL2RW5PBSPY", "current_trial": 20, "dateTime": 1512752899655, "trialdata": {"rt": -1, "stimulus": "<p id=\"stim\">+</p>", "key_press": -1, "type": "FIXATION", "trial_type": "single-stim", "trial_index": 20, "time_elapsed": 163795, "internal_node_id": "0.0-11.0-0.0"}}, {"uniqueid": "MTK0787:3RU7GD8VPP075U98ZLXEL2RW5PBSPY", "current_trial": 21, "dateTime": 1512752901890, "trialdata": {"rt": -1000, "stimulus": "/static/audio/wordpool/MUSTARD.wav", "key_press": -1, "type": "PRES_AUD", "word": "mustard", "wordID": 934, "conditions": [18, 1200, "a", 18000], "trial": 0, "serialpos": 0, "trial_type": "single-audio", "trial_index": 21, "time_elapsed": 166031, "internal_node_id": "0.0-12.0"}}, {"uniqueid": "MTK0787:3RU7GD8VPP075U98ZLXEL2RW5PBSPY", "current_trial": 22, "dateTime": 1512752904062, "trialdata": {"rt": -1000, "stimulus": "/static/audio/wordpool/LACE.wav", "key_press": -1, "type": "PRES_AUD", "word": "lace", "wordID": 791, "conditions": [18, 1200, "a", 18000], "trial": 0, "serialpos": 1, "trial_type": "single-audio", "trial_index": 22, "time_elapsed": 168202, "internal_node_id": "0.0-13.0"}}, {"uniqueid": "MTK0787:3RU7GD8VPP075U98ZLXEL2RW5PBSPY", "current_trial": 23, "dateTime": 1512752906155, "trialdata": {"rt": -1000, "stimulus": "/static/audio/wordpool/NURSE.wav", "key_press": -1, "type": "PRES_AUD", "word": "nurse", "wordID": 962, "conditions": [18, 1200, "a", 18000], "trial": 0, "serialpos": 2, "trial_type": "single-audio", "trial_index": 23, "time_elapsed": 170296, "internal_node_id": "0.0-14.0"}}, {"uniqueid": "MTK0787:3RU7GD8VPP075U98ZLXEL2RW5PBSPY", "current_trial": 24, "dateTime": 1512752908305, "trialdata": {"rt": -1000, "stimulus": "/static/audio/wordpool/HOUND.wav", "key_press": -1, "type": "PRES_AUD", "word": "hound", "wordID": 723, "conditions": [18, 1200, "a", 18000], "trial": 0, "serialpos": 3, "trial_type": "single-audio", "trial_index": 24, "time_elapsed": 172446, "internal_node_id": "0.0-15.0"}}, {"uniqueid": "MTK0787:3RU7GD8VPP075U98ZLXEL2RW5PBSPY", "current_trial": 25, "dateTime": 1512752910471, "trialdata": {"rt": -1000, "stimulus": "/static/audio/wordpool/BUNNY.wav", "key_press": -1, "type": "PRES_AUD", "word": "bunny", "wordID": 197, "conditions": [18, 1200, "a", 18000], "trial": 0, "serialpos": 4, "trial_type": "single-audio", "trial_index": 25, "time_elapsed": 174612, "internal_node_id": "0.0-16.0"}}, {"uniqueid": "MTK0787:3RU7GD8VPP075U98ZLXEL2RW5PBSPY", "current_trial": 26, "dateTime": 1512752912632, "trialdata": {"rt": -1000, "stimulus": "/static/audio/wordpool/COIN.wav", "key_press": -1, "type": "PRES_AUD", "word": "coin", "wordID": 342, "conditions": [18, 1200, "a", 18000], "trial": 0, "serialpos": 5, "trial_type": "single-audio", "trial_index": 26, "time_elapsed": 176772, "internal_node_id": "0.0-17.0"}}, {"uniqueid": "MTK0787:3RU7GD8VPP075U98ZLXEL2RW5PBSPY", "current_trial": 27, "dateTime": 1512752914955, "trialdata": {"rt": -1000, "stimulus": "/static/audio/wordpool/FRIEND.wav", "key_press": -1, "type": "PRES_AUD", "word": "friend", "wordID": 605, "conditions": [18, 1200, "a", 18000], "trial": 0, "serialpos": 6, "trial_type": "single-audio", "trial_index": 27, "time_elapsed": 179096, "internal_node_id": "0.0-18.0"}}, {"uniqueid": "MTK0787:3RU7GD8VPP075U98ZLXEL2RW5PBSPY", "current_trial": 28, "dateTime": 1512752917207, "trialdata": {"rt": -1000, "stimulus": "/static/audio/wordpool/MISTER.wav", "key_press": -1, "type": "PRES_AUD", "word": "mister", "wordID": 900, "conditions": [18, 1200, "a", 18000], "trial": 0, "serialpos": 7, "trial_type": "single-audio", "trial_index": 28, "time_elapsed": 181348, "internal_node_id": "0.0-19.0"}}, {"uniqueid": "MTK0787:3RU7GD8VPP075U98ZLXEL2RW5PBSPY", "current_trial": 29, "dateTime": 1512752919417, "trialdata": {"rt": -1000, "stimulus": "/static/audio/wordpool/VIKING.wav", "key_press": -1, "type": "PRES_AUD", "word": "viking", "wordID": 1564, "conditions": [18, 1200, "a", 18000], "trial": 0, "serialpos": 8, "trial_type": "single-audio", "trial_index": 29, "time_elapsed": 183558, "internal_node_id": "0.0-20.0"}}, {"uniqueid": "MTK0787:3RU7GD8VPP075U98ZLXEL2RW5PBSPY", "current_trial": 30, "dateTime": 1512752921505, "trialdata": {"rt": -1000, "stimulus": "/static/audio/wordpool/RADISH.wav", "key_press": -1, "type": "PRES_AUD", "word": "radish", "wordID": 1157, "conditions": [18, 1200, "a", 18000], "trial": 0, "serialpos": 9, "trial_type": "single-audio", "trial_index": 30, "time_elapsed": 185646, "internal_node_id": "0.0-21.0"}}, {"uniqueid": "MTK0787:3RU7GD8VPP075U98ZLXEL2RW5PBSPY", "current_trial": 31, "dateTime": 1512752923537, "trialdata": {"rt": -1000, "stimulus": "/static/audio/wordpool/EXPERT.wav", "key_press": -1, "type": "PRES_AUD", "word": "expert", "wordID": 542, "conditions": [18, 1200, "a", 18000], "trial": 0, "serialpos": 10, "trial_type": "single-audio", "trial_index": 31, "time_elapsed": 187678, "internal_node_id": "0.0-22.0"}}, {"uniqueid": "MTK0787:3RU7GD8VPP075U98ZLXEL2RW5PBSPY", "current_trial": 32, "dateTime": 1512752925727, "trialdata": {"rt": -1000, "stimulus": "/static/audio/wordpool/CURTAIN.wav", "key_press": -1, "type": "PRES_AUD", "word": "curtain", "wordID": 426, "conditions": [18, 1200, "a", 18000], "trial": 0, "serialpos": 11, "trial_type": "single-audio", "trial_index": 32, "time_elapsed": 189868, "internal_node_id": "0.0-23.0"}}, {"uniqueid": "MTK0787:3RU7GD8VPP075U98ZLXEL2RW5PBSPY", "current_trial": 33, "dateTime": 1512752928094, "trialdata": {"rt": -1000, "stimulus": "/static/audio/wordpool/SCOTCH.wav", "key_press": -1, "type": "PRES_AUD", "word": "scotch", "wordID": 1250, "conditions": [18, 1200, "a", 18000], "trial": 0, "serialpos": 12, "trial_type": "single-audio", "trial_index": 33, "time_elapsed": 192234, "internal_node_id": "0.0-24.0"}}, {"uniqueid": "MTK0787:3RU7GD8VPP075U98ZLXEL2RW5PBSPY", "current_trial": 34, "dateTime": 1512752930284, "trialdata": {"rt": -1000, "stimulus": "/static/audio/wordpool/NOTEBOOK.wav", "key_press": -1, "type": "PRES_AUD", "word": "notebook", "wordID": 958, "conditions": [18, 1200, "a", 18000], "trial": 0, "serialpos": 13, "trial_type": "single-audio", "trial_index": 34, "time_elapsed": 194425, "internal_node_id": "0.0-25.0"}}, {"uniqueid": "MTK0787:3RU7GD8VPP075U98ZLXEL2RW5PBSPY", "current_trial": 35, "dateTime": 1512752932521, "trialdata": {"rt": -1000, "stimulus": "/static/audio/wordpool/ZIPPER.wav", "key_press": -1, "type": "PRES_AUD", "word": "zipper", "wordID": 1635, "conditions": [18, 1200, "a", 18000], "trial": 0, "serialpos": 14, "trial_type": "single-audio", "trial_index": 35, "time_elapsed": 196662, "internal_node_id": "0.0-26.0"}}, {"uniqueid": "MTK0787:3RU7GD8VPP075U98ZLXEL2RW5PBSPY", "current_trial": 36, "dateTime": 1512752934907, "trialdata": {"rt": -1000, "stimulus": "/static/audio/wordpool/CLIMBER.wav", "key_press": -1, "type": "PRES_AUD", "word": "climber", "wordID": 322, "conditions": [18, 1200, "a", 18000], "trial": 0, "serialpos": 15, "trial_type": "single-audio", "trial_index": 36, "time_elapsed": 199047, "internal_node_id": "0.0-27.0"}}, {"uniqueid": "MTK0787:3RU7GD8VPP075U98ZLXEL2RW5PBSPY", "current_trial": 37, "dateTime": 1512752937130, "trialdata": {"rt": -1000, "stimulus": "/static/audio/wordpool/DRESSER.wav", "key_press": -1, "type": "PRES_AUD", "word": "dresser", "wordID": 495, "conditions": [18, 1200, "a", 18000], "trial": 0, "serialpos": 16, "trial_type": "single-audio", "trial_index": 37, "time_elapsed": 201271, "internal_node_id": "0.0-28.0"}}, {"uniqueid": "MTK0787:3RU7GD8VPP075U98ZLXEL2RW5PBSPY", "current_trial": 38, "dateTime": 1512752939327, "trialdata": {"rt": -1000, "stimulus": "/static/audio/wordpool/CASHEW.wav", "key_press": -1, "type": "PRES_AUD", "word": "cashew", "wordID": 252, "conditions": [18, 1200, "a", 18000], "trial": 0, "serialpos": 17, "trial_type": "single-audio", "trial_index": 38, "time_elapsed": 203467, "internal_node_id": "0.0-29.0"}}, {"uniqueid": "MTK0787:3RU7GD8VPP075U98ZLXEL2RW5PBSPY", "current_trial": 39, "dateTime": 1512752940598, "trialdata": {"rt": -1, "stimulus": "", "key_press": -1, "type": "PRE_RECALL_DELAY", "trial_type": "single-stim", "trial_index": 39, "time_elapsed": 204739, "internal_node_id": "0.0-30.0-0.0"}}, {"uniqueid": "MTK0787:3RU7GD8VPP075U98ZLXEL2RW5PBSPY", "current_trial": 40, "dateTime": 1512752941103, "trialdata": {"rt": -1000, "stimulus": "/static/audio/400Hz.wav", "key_press": -1, "type": "PRE_RECALL_ALERT", "trial_type": "single-audio", "trial_index": 40, "time_elapsed": 205244, "internal_node_id": "0.0-31.0"}}, {"uniqueid": "MTK0787:3RU7GD8VPP075U98ZLXEL2RW5PBSPY", "current_trial": 41, "dateTime": 1512753001135, "trialdata": {"rt": [3000, 9806, 10845, 13197, 16104, 21457, 23219, 24607, 30802, 41881, 42577, 43286, 48781, 49522, 50298], "recwords": ["cashew", "mustard", "nurse", "climber", "scoth", "friend", "viking", "radish", "expert", "curtain", "lace", "house", "bunny", "coin", "friend"], "type": "FREE_RECALL", "conditions": [18, 1200, "a", 18000], "trial": 0, "trial_type": "free-recall", "trial_index": 41, "time_elapsed": 265258, "internal_node_id": "0.0-32.0-0.0"}}, {"uniqueid": "MTK0787:3RU7GD8VPP075U98ZLXEL2RW5PBSPY", "current_trial": 42, "dateTime": 1512753004610, "trialdata": {"rt": 1473, "key_press": 13, "type": "INSTRUCTIONS", "trial_type": "text", "trial_index": 42, "time_elapsed": 268751, "internal_node_id": "0.0-33.0"}}, {"uniqueid": "MTK0787:3RU7GD8VPP075U98ZLXEL2RW5PBSPY", "current_trial": 43, "dateTime": 1512753024623, "trialdata": {"rt": [5849, 7672, 9615, 11321, 13039, 14898, 17243], "responses": ["16", "14", "11", "18", "10", "18", "16"], "num1": [7, 2, 4, 9, 3, 8, 6, 9], "num2": [1, 9, 1, 3, 6, 2, 8, 3], "num3": [8, 3, 6, 6, 1, 8, 2, 5], "type": "DISTRACTOR", "conditions": [18, 1200, "v", 18000], "trial": 1, "trial_type": "math-distractor", "trial_index": 43, "time_elapsed": 288763, "internal_node_id": "0.0-34.0"}}, {"uniqueid": "MTK0787:3RU7GD8VPP075U98ZLXEL2RW5PBSPY", "current_trial": 44, "dateTime": 1512753027627, "trialdata": {"rt": -1, "stimulus": "<p id=\"stim\">10</p>", "key_press": -1, "trial_type": "single-stim", "trial_index": 44, "time_elapsed": 291768, "internal_node_id": "0.0-35.0-0.0"}}, {"uniqueid": "MTK0787:3RU7GD8VPP075U98ZLXEL2RW5PBSPY", "current_trial": 45, "dateTime": 1512753028630, "trialdata": {"rt": -1, "stimulus": "<p id=\"stim\">9</p>", "key_press": -1, "trial_type": "single-stim", "trial_index": 45, "time_elapsed": 292771, "internal_node_id": "0.0-35.0-1.0"}}, {"uniqueid": "MTK0787:3RU7GD8VPP075U98ZLXEL2RW5PBSPY", "current_trial": 46, "dateTime": 1512753029632, "trialdata": {"rt": -1, "stimulus": "<p id=\"stim\">8</p>", "key_press": -1, "trial_type": "single-stim", "trial_index": 46, "time_elapsed": 293773, "internal_node_id": "0.0-35.0-2.0"}}, {"uniqueid": "MTK0787:3RU7GD8VPP075U98ZLXEL2RW5PBSPY", "current_trial": 47, "dateTime": 1512753030635, "trialdata": {"rt": -1, "stimulus": "<p id=\"stim\">7</p>", "key_press": -1, "trial_type": "single-stim", "trial_index": 47, "time_elapsed": 294775, "internal_node_id": "0.0-35.0-3.0"}}, {"uniqueid": "MTK0787:3RU7GD8VPP075U98ZLXEL2RW5PBSPY", "current_trial": 48, "dateTime": 1512753031640, "trialdata": {"rt": -1, "stimulus": "<p id=\"stim\">6</p>", "key_press": -1, "trial_type": "single-stim", "trial_index": 48, "time_elapsed": 295781, "internal_node_id": "0.0-35.0-4.0"}}, {"uniqueid": "MTK0787:3RU7GD8VPP075U98ZLXEL2RW5PBSPY", "current_trial": 49, "dateTime": 1512753032645, "trialdata": {"rt": -1, "stimulus": "<p id=\"stim\">5</p>", "key_press": -1, "trial_type": "single-stim", "trial_index": 49, "time_elapsed": 296785, "internal_node_id": "0.0-35.0-5.0"}}, {"uniqueid": "MTK0787:3RU7GD8VPP075U98ZLXEL2RW5PBSPY", "current_trial": 50, "dateTime": 1512753033649, "trialdata": {"rt": -1, "stimulus": "<p id=\"stim\">4</p>", "key_press": -1, "trial_type": "single-stim", "trial_index": 50, "time_elapsed": 297789, "internal_node_id": "0.0-35.0-6.0"}}, {"uniqueid": "MTK0787:3RU7GD8VPP075U98ZLXEL2RW5PBSPY", "current_trial": 51, "dateTime": 1512753034662, "trialdata": {"rt": -1, "stimulus": "<p id=\"stim\">3</p>", "key_press": -1, "trial_type": "single-stim", "trial_index": 51, "time_elapsed": 298801, "internal_node_id": "0.0-35.0-7.0"}}, {"uniqueid": "MTK0787:3RU7GD8VPP075U98ZLXEL2RW5PBSPY", "current_trial": 52, "dateTime": 1512753035665, "trialdata": {"rt": -1, "stimulus": "<p id=\"stim\">2</p>", "key_press": -1, "trial_type": "single-stim", "trial_index": 52, "time_elapsed": 299805, "internal_node_id": "0.0-35.0-8.0"}}, {"uniqueid": "MTK0787:3RU7GD8VPP075U98ZLXEL2RW5PBSPY", "current_trial": 53, "dateTime": 1512753036671, "trialdata": {"rt": -1, "stimulus": "<p id=\"stim\">1</p>", "key_press": -1, "trial_type": "single-stim", "trial_index": 53, "time_elapsed": 300811, "internal_node_id": "0.0-35.0-9.0"}}, {"uniqueid": "MTK0787:3RU7GD8VPP075U98ZLXEL2RW5PBSPY", "current_trial": 54, "dateTime": 1512753038175, "trialdata": {"rt": -1, "stimulus": "<p id=\"stim\">+</p>", "key_press": -1, "type": "FIXATION", "trial_type": "single-stim", "trial_index": 54, "time_elapsed": 302315, "internal_node_id": "0.0-36.0-0.0"}}, {"uniqueid": "MTK0787:3RU7GD8VPP075U98ZLXEL2RW5PBSPY", "current_trial": 55, "dateTime": 1512753039378, "trialdata": {"rt": -1, "stimulus": "<p id=\"stim\">QUEEN</p>", "key_press": -1, "type": "PRES_VIS", "word": "queen", "wordID": 1148, "conditions": [18, 1200, "v", 18000], "trial": 1, "serialpos": 0, "trial_type": "single-stim", "trial_index": 55, "time_elapsed": 303519, "internal_node_id": "0.0-37.0"}}, {"uniqueid": "MTK0787:3RU7GD8VPP075U98ZLXEL2RW5PBSPY", "current_trial": 56, "dateTime": 1512753041534, "trialdata": {"rt": -1, "stimulus": "<p id=\"stim\">FLESH</p>", "key_press": -1, "type": "PRES_VIS", "word": "flesh", "wordID": 578, "conditions": [18, 1200, "v", 18000], "trial": 1, "serialpos": 1, "trial_type": "single-stim", "trial_index": 56, "time_elapsed": 305674, "internal_node_id": "0.0-38.0"}}, {"uniqueid": "MTK0787:3RU7GD8VPP075U98ZLXEL2RW5PBSPY", "current_trial": 57, "dateTime": 1512753043715, "trialdata": {"rt": -1, "stimulus": "<p id=\"stim\">PADDLE</p>", "key_press": -1, "type": "PRES_VIS", "word": "paddle", "wordID": 999, "conditions": [18, 1200, "v", 18000], "trial": 1, "serialpos": 2, "trial_type": "single-stim", "trial_index": 57, "time_elapsed": 307855, "internal_node_id": "0.0-39.0"}}, {"uniqueid": "MTK0787:3RU7GD8VPP075U98ZLXEL2RW5PBSPY", "current_trial": 58, "dateTime": 1512753046082, "trialdata": {"rt": -1, "stimulus": "<p id=\"stim\">LAKE</p>", "key_press": -1, "type": "PRES_VIS", "word": "lake", "wordID": 795, "conditions": [18, 1200, "v", 18000], "trial": 1, "serialpos": 3, "trial_type": "single-stim", "trial_index": 58, "time_elapsed": 310222, "internal_node_id": "0.0-40.0"}}, {"uniqueid": "MTK0787:3RU7GD8VPP075U98ZLXEL2RW5PBSPY", "current_trial": 59, "dateTime": 1512753048313, "trialdata": {"rt": -1, "stimulus": "<p id=\"stim\">PAPER</p>", "key_press": -1, "type": "PRES_VIS", "word": "paper", "wordID": 1010, "conditions": [18, 1200, "v", 18000], "trial": 1, "serialpos": 4, "trial_type": "single-stim", "trial_index": 59, "time_elapsed": 312454, "internal_node_id": "0.0-41.0"}}, {"uniqueid": "MTK0787:3RU7GD8VPP075U98ZLXEL2RW5PBSPY", "current_trial": 60, "dateTime": 1512753050605, "trialdata": {"rt": -1, "stimulus": "<p id=\"stim\">TUBA</p>", "key_press": -1, "type": "PRES_VIS", "word": "tuba", "wordID": 1514, "conditions": [18, 1200, "v", 18000], "trial": 1, "serialpos": 5, "trial_type": "single-stim", "trial_index": 60, "time_elapsed": 314745, "internal_node_id": "0.0-42.0"}}, {"uniqueid": "MTK0787:3RU7GD8VPP075U98ZLXEL2RW5PBSPY", "current_trial": 61, "dateTime": 1512753052787, "trialdata": {"rt": -1, "stimulus": "<p id=\"stim\">SLIME</p>", "key_press": -1, "type": "PRES_VIS", "word": "slime", "wordID": 1326, "conditions": [18, 1200, "v", 18000], "trial": 1, "serialpos": 6, "trial_type": "single-stim", "trial_index": 61, "time_elapsed": 316927, "internal_node_id": "0.0-43.0"}}, {"uniqueid": "MTK0787:3RU7GD8VPP075U98ZLXEL2RW5PBSPY", "current_trial": 62, "dateTime": 1512753054957, "trialdata": {"rt": -1, "stimulus": "<p id=\"stim\">PLAID</p>", "key_press": -1, "type": "PRES_VIS", "word": "plaid", "wordID": 1079, "conditions": [18, 1200, "v", 18000], "trial": 1, "serialpos": 7, "trial_type": "single-stim", "trial_index": 62, "time_elapsed": 319097, "internal_node_id": "0.0-44.0"}}, {"uniqueid": "MTK0787:3RU7GD8VPP075U98ZLXEL2RW5PBSPY", "current_trial": 63, "dateTime": 1512753057173, "trialdata": {"rt": -1, "stimulus": "<p id=\"stim\">PIMPLE</p>", "key_press": -1, "type": "PRES_VIS", "word": "pimple", "wordID": 1070, "conditions": [18, 1200, "v", 18000], "trial": 1, "serialpos": 8, "trial_type": "single-stim", "trial_index": 63, "time_elapsed": 321313, "internal_node_id": "0.0-45.0"}}, {"uniqueid": "MTK0787:3RU7GD8VPP075U98ZLXEL2RW5PBSPY", "current_trial": 64, "dateTime": 1512753059300, "trialdata": {"rt": -1, "stimulus": "<p id=\"stim\">SHELF</p>", "key_press": -1, "type": "PRES_VIS", "word": "shelf", "wordID": 1279, "conditions": [18, 1200, "v", 18000], "trial": 1, "serialpos": 9, "trial_type": "single-stim", "trial_index": 64, "time_elapsed": 323441, "internal_node_id": "0.0-46.0"}}, {"uniqueid": "MTK0787:3RU7GD8VPP075U98ZLXEL2RW5PBSPY", "current_trial": 65, "dateTime": 1512753061364, "trialdata": {"rt": -1, "stimulus": "<p id=\"stim\">PARTNER</p>", "key_press": -1, "type": "PRES_VIS", "word": "partner", "wordID": 1016, "conditions": [18, 1200, "v", 18000], "trial": 1, "serialpos": 10, "trial_type": "single-stim", "trial_index": 65, "time_elapsed": 325504, "internal_node_id": "0.0-47.0"}}, {"uniqueid": "MTK0787:3RU7GD8VPP075U98ZLXEL2RW5PBSPY", "current_trial": 66, "dateTime": 1512753063660, "trialdata": {"rt": -1, "stimulus": "<p id=\"stim\">GIFT</p>", "key_press": -1, "type": "PRES_VIS", "word": "gift", "wordID": 634, "conditions": [18, 1200, "v", 18000], "trial": 1, "serialpos": 11, "trial_type": "single-stim", "trial_index": 66, "time_elapsed": 327801, "internal_node_id": "0.0-48.0"}}, {"uniqueid": "MTK0787:3RU7GD8VPP075U98ZLXEL2RW5PBSPY", "current_trial": 67, "dateTime": 1512753065910, "trialdata": {"rt": -1, "stimulus": "<p id=\"stim\">DIME</p>", "key_press": -1, "type": "PRES_VIS", "word": "dime", "wordID": 465, "conditions": [18, 1200, "v", 18000], "trial": 1, "serialpos": 12, "trial_type": "single-stim", "trial_index": 67, "time_elapsed": 330050, "internal_node_id": "0.0-49.0"}}, {"uniqueid": "MTK0787:3RU7GD8VPP075U98ZLXEL2RW5PBSPY", "current_trial": 68, "dateTime": 1512753068251, "trialdata": {"rt": -1, "stimulus": "<p id=\"stim\">JUGGLER</p>", "key_press": -1, "type": "PRES_VIS", "word": "juggler", "wordID": 762, "conditions": [18, 1200, "v", 18000], "trial": 1, "serialpos": 13, "trial_type": "single-stim", "trial_index": 68, "time_elapsed": 332376, "internal_node_id": "0.0-50.0"}}, {"uniqueid": "MTK0787:3RU7GD8VPP075U98ZLXEL2RW5PBSPY", "current_trial": 69, "dateTime": 1512753070621, "trialdata": {"rt": -1, "stimulus": "<p id=\"stim\">CANAL</p>", "key_press": -1, "type": "PRES_VIS", "word": "canal", "wordID": 225, "conditions": [18, 1200, "v", 18000], "trial": 1, "serialpos": 14, "trial_type": "single-stim", "trial_index": 69, "time_elapsed": 334760, "internal_node_id": "0.0-51.0"}}, {"uniqueid": "MTK0787:3RU7GD8VPP075U98ZLXEL2RW5PBSPY", "current_trial": 70, "dateTime": 1512753072684, "trialdata": {"rt": -1, "stimulus": "<p id=\"stim\">SOFTBALL</p>", "key_press": -1, "type": "PRES_VIS", "word": "softball", "wordID": 1342, "conditions": [18, 1200, "v", 18000], "trial": 1, "serialpos": 15, "trial_type": "single-stim", "trial_index": 70, "time_elapsed": 336824, "internal_node_id": "0.0-52.0"}}, {"uniqueid": "MTK0787:3RU7GD8VPP075U98ZLXEL2RW5PBSPY", "current_trial": 71, "dateTime": 1512753075058, "trialdata": {"rt": -1, "stimulus": "<p id=\"stim\">BANQUET</p>", "key_press": -1, "type": "PRES_VIS", "word": "banquet", "wordID": 85, "conditions": [18, 1200, "v", 18000], "trial": 1, "serialpos": 16, "trial_type": "single-stim", "trial_index": 71, "time_elapsed": 339198, "internal_node_id": "0.0-53.0"}}, {"uniqueid": "MTK0787:3RU7GD8VPP075U98ZLXEL2RW5PBSPY", "current_trial": 72, "dateTime": 1512753077437, "trialdata": {"rt": -1, "stimulus": "<p id=\"stim\">DUSTPAN</p>", "key_press": -1, "type": "PRES_VIS", "word": "dustpan", "wordID": 508, "conditions": [18, 1200, "v", 18000], "trial": 1, "serialpos": 17, "trial_type": "single-stim", "trial_index": 72, "time_elapsed": 341577, "internal_node_id": "0.0-54.0"}}, {"uniqueid": "MTK0787:3RU7GD8VPP075U98ZLXEL2RW5PBSPY", "current_trial": 73, "dateTime": 1512753079580, "trialdata": {"rt": -1, "stimulus": "", "key_press": -1, "type": "PRE_RECALL_DELAY", "trial_type": "single-stim", "trial_index": 73, "time_elapsed": 343721, "internal_node_id": "0.0-55.0-0.0"}}, {"uniqueid": "MTK0787:3RU7GD8VPP075U98ZLXEL2RW5PBSPY", "current_trial": 74, "dateTime": 1512753080085, "trialdata": {"rt": -1000, "stimulus": "/static/audio/400Hz.wav", "key_press": -1, "type": "PRE_RECALL_ALERT", "trial_type": "single-audio", "trial_index": 74, "time_elapsed": 344226, "internal_node_id": "0.0-56.0"}}, {"uniqueid": "MTK0787:3RU7GD8VPP075U98ZLXEL2RW5PBSPY", "current_trial": 75, "dateTime": 1512753140096, "trialdata": {"rt": [3077, 4402, 9424, 10114, 10747, 17655, 18510, 19295, 25113, 25878, 26871, 33801, 34573, 35698, 42421, 43823, 45355, 46782], "recwords": ["queen", "flesh", "paddle", "lake", "paper", "tuba", "slime", "plaid", "pimple", "shelf", "partner", "gift", "dime", "juggler", "canal", "softball", "dustpan", "banquet"], "type": "FREE_RECALL", "conditions": [18, 1200, "v", 18000], "trial": 1, "trial_type": "free-recall", "trial_index": 75, "time_elapsed": 404231, "internal_node_id": "0.0-57.0-0.0"}}, {"uniqueid": "MTK0787:3RU7GD8VPP075U98ZLXEL2RW5PBSPY", "current_trial": 76, "dateTime": 1512753146679, "trialdata": {"rt": 4573, "key_press": 13, "type": "INSTRUCTIONS", "trial_type": "text", "trial_index": 76, "time_elapsed": 410814, "internal_node_id": "0.0-58.0"}}, {"uniqueid": "MTK0787:3RU7GD8VPP075U98ZLXEL2RW5PBSPY", "current_trial": 77, "dateTime": 1512753159689, "trialdata": {"rt": [1800, 7143, 9957, 11885], "responses": ["10", "13", "13", "15"], "num1": [5, 7, 5, 8, 6], "num2": [3, 1, 4, 4, 3], "num3": [2, 5, 4, 3, 7], "type": "DISTRACTOR", "conditions": [24, 1600, "a", 12000], "trial": 2, "trial_type": "math-distractor", "trial_index": 77, "time_elapsed": 423830, "internal_node_id": "0.0-59.0"}}, {"uniqueid": "MTK0787:3RU7GD8VPP075U98ZLXEL2RW5PBSPY", "current_trial": 78, "dateTime": 1512753162695, "trialdata": {"rt": -1, "stimulus": "<p id=\"stim\">10</p>", "key_press": -1, "trial_type": "single-stim", "trial_index": 78, "time_elapsed": 426836, "internal_node_id": "0.0-60.0-0.0"}}, {"uniqueid": "MTK0787:3RU7GD8VPP075U98ZLXEL2RW5PBSPY", "current_trial": 79, "dateTime": 1512753163698, "trialdata": {"rt": -1, "stimulus": "<p id=\"stim\">9</p>", "key_press": -1, "trial_type": "single-stim", "trial_index": 79, "time_elapsed": 427839, "internal_node_id": "0.0-60.0-1.0"}}, {"uniqueid": "MTK0787:3RU7GD8VPP075U98ZLXEL2RW5PBSPY", "current_trial": 80, "dateTime": 1512753164702, "trialdata": {"rt": -1, "stimulus": "<p id=\"stim\">8</p>", "key_press": -1, "trial_type": "single-stim", "trial_index": 80, "time_elapsed": 428842, "internal_node_id": "0.0-60.0-2.0"}}, {"uniqueid": "MTK0787:3RU7GD8VPP075U98ZLXEL2RW5PBSPY", "current_trial": 81, "dateTime": 1512753165706, "trialdata": {"rt": -1, "stimulus": "<p id=\"stim\">7</p>", "key_press": -1, "trial_type": "single-stim", "trial_index": 81, "time_elapsed": 429847, "internal_node_id": "0.0-60.0-3.0"}}, {"uniqueid": "MTK0787:3RU7GD8VPP075U98ZLXEL2RW5PBSPY", "current_trial": 82, "dateTime": 1512753166709, "trialdata": {"rt": -1, "stimulus": "<p id=\"stim\">6</p>", "key_press": -1, "trial_type": "single-stim", "trial_index": 82, "time_elapsed": 430850, "internal_node_id": "0.0-60.0-4.0"}}, {"uniqueid": "MTK0787:3RU7GD8VPP075U98ZLXEL2RW5PBSPY", "current_trial": 83, "dateTime": 1512753167713, "trialdata": {"rt": -1, "stimulus": "<p id=\"stim\">5</p>", "key_press": -1, "trial_type": "single-stim", "trial_index": 83, "time_elapsed": 431853, "internal_node_id": "0.0-60.0-5.0"}}, {"uniqueid": "MTK0787:3RU7GD8VPP075U98ZLXEL2RW5PBSPY", "current_trial": 84, "dateTime": 1512753168715, "trialdata": {"rt": -1, "stimulus": "<p id=\"stim\">4</p>", "key_press": -1, "trial_type": "single-stim", "trial_index": 84, "time_elapsed": 432856, "internal_node_id": "0.0-60.0-6.0"}}, {"uniqueid": "MTK0787:3RU7GD8VPP075U98ZLXEL2RW5PBSPY", "current_trial": 85, "dateTime": 1512753169719, "trialdata": {"rt": -1, "stimulus": "<p id=\"stim\">3</p>", "key_press": -1, "trial_type": "single-stim", "trial_index": 85, "time_elapsed": 433859, "internal_node_id": "0.0-60.0-7.0"}}, {"uniqueid": "MTK0787:3RU7GD8VPP075U98ZLXEL2RW5PBSPY", "current_trial": 86, "dateTime": 1512753170723, "trialdata": {"rt": -1, "stimulus": "<p id=\"stim\">2</p>", "key_press": -1, "trial_type": "single-stim", "trial_index": 86, "time_elapsed": 434863, "internal_node_id": "0.0-60.0-8.0"}}, {"uniqueid": "MTK0787:3RU7GD8VPP075U98ZLXEL2RW5PBSPY", "current_trial": 87, "dateTime": 1512753171725, "trialdata": {"rt": -1, "stimulus": "<p id=\"stim\">1</p>", "key_press": -1, "trial_type": "single-stim", "trial_index": 87, "time_elapsed": 435866, "internal_node_id": "0.0-60.0-9.0"}}, {"uniqueid": "MTK0787:3RU7GD8VPP075U98ZLXEL2RW5PBSPY", "current_trial": 88, "dateTime": 1512753173229, "trialdata": {"rt": -1, "stimulus": "<p id=\"stim\">+</p>", "key_press": -1, "type": "FIXATION", "trial_type": "single-stim", "trial_index": 88, "time_elapsed": 437370, "internal_node_id": "0.0-61.0-0.0"}}, {"uniqueid": "MTK0787:3RU7GD8VPP075U98ZLXEL2RW5PBSPY", "current_trial": 89, "dateTime": 1512753175929, "trialdata": {"rt": -1000, "stimulus": "/static/audio/wordpool/TOURIST.wav", "key_press": -1, "type": "PRES_AUD", "word": "tourist", "wordID": 1487, "conditions": [24, 1600, "a", 12000], "trial": 2, "serialpos": 0, "trial_type": "single-audio", "trial_index": 89, "time_elapsed": 440069, "internal_node_id": "0.0-62.0"}}, {"uniqueid": "MTK0787:3RU7GD8VPP075U98ZLXEL2RW5PBSPY", "current_trial": 90, "dateTime": 1512753178535, "trialdata": {"rt": -1000, "stimulus": "/static/audio/wordpool/HIKER.wav", "key_press": -1, "type": "PRES_AUD", "word": "hiker", "wordID": 707, "conditions": [24, 1600, "a", 12000], "trial": 2, "serialpos": 1, "trial_type": "single-audio", "trial_index": 90, "time_elapsed": 442676, "internal_node_id": "0.0-63.0"}}, {"uniqueid": "MTK0787:3RU7GD8VPP075U98ZLXEL2RW5PBSPY", "current_trial": 91, "dateTime": 1512753181143, "trialdata": {"rt": -1000, "stimulus": "/static/audio/wordpool/PUPPY.wav", "key_press": -1, "type": "PRES_AUD", "word": "puppy", "wordID": 1143, "conditions": [24, 1600, "a", 12000], "trial": 2, "serialpos": 2, "trial_type": "single-audio", "trial_index": 91, "time_elapsed": 445284, "internal_node_id": "0.0-64.0"}}, {"uniqueid": "MTK0787:3RU7GD8VPP075U98ZLXEL2RW5PBSPY", "current_trial": 92, "dateTime": 1512753183785, "trialdata": {"rt": -1000, "stimulus": "/static/audio/wordpool/VALVE.wav", "key_press": -1, "type": "PRES_AUD", "word": "valve", "wordID": 1545, "conditions": [24, 1600, "a", 12000], "trial": 2, "serialpos": 3, "trial_type": "single-audio", "trial_index": 92, "time_elapsed": 447926, "internal_node_id": "0.0-65.0"}}, {"uniqueid": "MTK0787:3RU7GD8VPP075U98ZLXEL2RW5PBSPY", "current_trial": 93, "dateTime": 1512753186399, "trialdata": {"rt": -1000, "stimulus": "/static/audio/wordpool/PASTRY.wav", "key_press": -1, "type": "PRES_AUD", "word": "pastry", "wordID": 1021, "conditions": [24, 1600, "a", 12000], "trial": 2, "serialpos": 4, "trial_type": "single-audio", "trial_index": 93, "time_elapsed": 450539, "internal_node_id": "0.0-66.0"}}, {"uniqueid": "MTK0787:3RU7GD8VPP075U98ZLXEL2RW5PBSPY", "current_trial": 94, "dateTime": 1512753189180, "trialdata": {"rt": -1000, "stimulus": "/static/audio/wordpool/CUSTARD.wav", "key_press": -1, "type": "PRES_AUD", "word": "custard", "wordID": 428, "conditions": [24, 1600, "a", 12000], "trial": 2, "serialpos": 5, "trial_type": "single-audio", "trial_index": 94, "time_elapsed": 453320, "internal_node_id": "0.0-67.0"}}, {"uniqueid": "MTK0787:3RU7GD8VPP075U98ZLXEL2RW5PBSPY", "current_trial": 95, "dateTime": 1512753191968, "trialdata": {"rt": -1000, "stimulus": "/static/audio/wordpool/STREAM.wav", "key_press": -1, "type": "PRES_AUD", "word": "stream", "wordID": 1391, "conditions": [24, 1600, "a", 12000], "trial": 2, "serialpos": 6, "trial_type": "single-audio", "trial_index": 95, "time_elapsed": 456109, "internal_node_id": "0.0-68.0"}}, {"uniqueid": "MTK0787:3RU7GD8VPP075U98ZLXEL2RW5PBSPY", "current_trial": 96, "dateTime": 1512753194522, "trialdata": {"rt": -1000, "stimulus": "/static/audio/wordpool/PACKAGE.wav", "key_press": -1, "type": "PRES_AUD", "word": "package", "wordID": 996, "conditions": [24, 1600, "a", 12000], "trial": 2, "serialpos": 7, "trial_type": "single-audio", "trial_index": 96, "time_elapsed": 458662, "internal_node_id": "0.0-69.0"}}, {"uniqueid": "MTK0787:3RU7GD8VPP075U98ZLXEL2RW5PBSPY", "current_trial": 97, "dateTime": 1512753196982, "trialdata": {"rt": -1000, "stimulus": "/static/audio/wordpool/KLEENEX.wav", "key_press": -1, "type": "PRES_AUD", "word": "kleenex", "wordID": 781, "conditions": [24, 1600, "a", 12000], "trial": 2, "serialpos": 8, "trial_type": "single-audio", "trial_index": 97, "time_elapsed": 461122, "internal_node_id": "0.0-70.0"}}, {"uniqueid": "MTK0787:3RU7GD8VPP075U98ZLXEL2RW5PBSPY", "current_trial": 98, "dateTime": 1512753199397, "trialdata": {"rt": -1000, "stimulus": "/static/audio/wordpool/DANDRUFF.wav", "key_press": -1, "type": "PRES_AUD", "word": "dandruff", "wordID": 438, "conditions": [24, 1600, "a", 12000], "trial": 2, "serialpos": 9, "trial_type": "single-audio", "trial_index": 98, "time_elapsed": 463537, "internal_node_id": "0.0-71.0"}}, {"uniqueid": "MTK0787:3RU7GD8VPP075U98ZLXEL2RW5PBSPY", "current_trial": 99, "dateTime": 1512753201814, "trialdata": {"rt": -1000, "stimulus": "/static/audio/wordpool/PISTON.wav", "key_press": -1, "type": "PRES_AUD", "word": "piston", "wordID": 1075, "conditions": [24, 1600, "a", 12000], "trial": 2, "serialpos": 10, "trial_type": "single-audio", "trial_index": 99, "time_elapsed": 465954, "internal_node_id": "0.0-72.0"}}, {"uniqueid": "MTK0787:3RU7GD8VPP075U98ZLXEL2RW5PBSPY", "current_trial": 100, "dateTime": 1512753204553, "trialdata": {"rt": -1000, "stimulus": "/static/audio/wordpool/GRAVEL.wav", "key_press": -1, "type": "PRES_AUD", "word": "gravel", "wordID": 658, "conditions": [24, 1600, "a", 12000], "trial": 2, "serialpos": 11, "trial_type": "single-audio", "trial_index": 100, "time_elapsed": 468694, "internal_node_id": "0.0-73.0"}}, {"uniqueid": "MTK0787:3RU7GD8VPP075U98ZLXEL2RW5PBSPY", "current_trial": 101, "dateTime": 1512753207006, "trialdata": {"rt": -1000, "stimulus": "/static/audio/wordpool/CHEST.wav", "key_press": -1, "type": "PRES_AUD", "word": "chest", "wordID": 294, "conditions": [24, 1600, "a", 12000], "trial": 2, "serialpos": 12, "trial_type": "single-audio", "trial_index": 101, "time_elapsed": 471146, "internal_node_id": "0.0-74.0"}}, {"uniqueid": "MTK0787:3RU7GD8VPP075U98ZLXEL2RW5PBSPY", "current_trial": 102, "dateTime": 1512753209418, "trialdata": {"rt": -1000, "stimulus": "/static/audio/wordpool/CYCLONE.wav", "key_press": -1, "type": "PRES_AUD", "word": "cyclone", "wordID": 430, "conditions": [24, 1600, "a", 12000], "trial": 2, "serialpos": 13, "trial_type": "single-audio", "trial_index": 102, "time_elapsed": 473553, "internal_node_id": "0.0-75.0"}}, {"uniqueid": "MTK0787:3RU7GD8VPP075U98ZLXEL2RW5PBSPY", "current_trial": 103, "dateTime": 1512753211903, "trialdata": {"rt": -1000, "stimulus": "/static/audio/wordpool/MOP.wav", "key_press": -1, "type": "PRES_AUD", "word": "mop", "wordID": 915, "conditions": [24, 1600, "a", 12000], "trial": 2, "serialpos": 14, "trial_type": "single-audio", "trial_index": 103, "time_elapsed": 476044, "internal_node_id": "0.0-76.0"}}, {"uniqueid": "MTK0787:3RU7GD8VPP075U98ZLXEL2RW5PBSPY", "current_trial": 104, "dateTime": 1512753214591, "trialdata": {"rt": -1000, "stimulus": "/static/audio/wordpool/STOMACH.wav", "key_press": -1, "type": "PRES_AUD", "word": "stomach", "wordID": 1383, "conditions": [24, 1600, "a", 12000], "trial": 2, "serialpos": 15, "trial_type": "single-audio", "trial_index": 104, "time_elapsed": 478732, "internal_node_id": "0.0-77.0"}}, {"uniqueid": "MTK0787:3RU7GD8VPP075U98ZLXEL2RW5PBSPY", "current_trial": 105, "dateTime": 1512753217271, "trialdata": {"rt": -1000, "stimulus": "/static/audio/wordpool/HEADBAND.wav", "key_press": -1, "type": "PRES_AUD", "word": "headband", "wordID": 695, "conditions": [24, 1600, "a", 12000], "trial": 2, "serialpos": 16, "trial_type": "single-audio", "trial_index": 105, "time_elapsed": 481412, "internal_node_id": "0.0-78.0"}}, {"uniqueid": "MTK0787:3RU7GD8VPP075U98ZLXEL2RW5PBSPY", "current_trial": 106, "dateTime": 1512753219912, "trialdata": {"rt": -1000, "stimulus": "/static/audio/wordpool/SIDEWALK.wav", "key_press": -1, "type": "PRES_AUD", "word": "sidewalk", "wordID": 1302, "conditions": [24, 1600, "a", 12000], "trial": 2, "serialpos": 17, "trial_type": "single-audio", "trial_index": 106, "time_elapsed": 484053, "internal_node_id": "0.0-79.0"}}, {"uniqueid": "MTK0787:3RU7GD8VPP075U98ZLXEL2RW5PBSPY", "current_trial": 107, "dateTime": 1512753222706, "trialdata": {"rt": -1000, "stimulus": "/static/audio/wordpool/RATTLE.wav", "key_press": -1, "type": "PRES_AUD", "word": "rattle", "wordID": 1169, "conditions": [24, 1600, "a", 12000], "trial": 2, "serialpos": 18, "trial_type": "single-audio", "trial_index": 107, "time_elapsed": 486847, "internal_node_id": "0.0-80.0"}}, {"uniqueid": "MTK0787:3RU7GD8VPP075U98ZLXEL2RW5PBSPY", "current_trial": 108, "dateTime": 1512753225471, "trialdata": {"rt": -1000, "stimulus": "/static/audio/wordpool/PIZZA.wav", "key_press": -1, "type": "PRES_AUD", "word": "pizza", "wordID": 1078, "conditions": [24, 1600, "a", 12000], "trial": 2, "serialpos": 19, "trial_type": "single-audio", "trial_index": 108, "time_elapsed": 489612, "internal_node_id": "0.0-81.0"}}, {"uniqueid": "MTK0787:3RU7GD8VPP075U98ZLXEL2RW5PBSPY", "current_trial": 109, "dateTime": 1512753227907, "trialdata": {"rt": -1000, "stimulus": "/static/audio/wordpool/WASP.wav", "key_press": -1, "type": "PRES_AUD", "word": "wasp", "wordID": 1592, "conditions": [24, 1600, "a", 12000], "trial": 2, "serialpos": 20, "trial_type": "single-audio", "trial_index": 109, "time_elapsed": 492048, "internal_node_id": "0.0-82.0"}}, {"uniqueid": "MTK0787:3RU7GD8VPP075U98ZLXEL2RW5PBSPY", "current_trial": 110, "dateTime": 1512753230519, "trialdata": {"rt": -1000, "stimulus": "/static/audio/wordpool/RUST.wav", "key_press": -1, "type": "PRES_AUD", "word": "rust", "wordID": 1218, "conditions": [24, 1600, "a", 12000], "trial": 2, "serialpos": 21, "trial_type": "single-audio", "trial_index": 110, "time_elapsed": 494659, "internal_node_id": "0.0-83.0"}}, {"uniqueid": "MTK0787:3RU7GD8VPP075U98ZLXEL2RW5PBSPY", "current_trial": 111, "dateTime": 1512753233290, "trialdata": {"rt": -1000, "stimulus": "/static/audio/wordpool/MONSTER.wav", "key_press": -1, "type": "PRES_AUD", "word": "monster", "wordID": 911, "conditions": [24, 1600, "a", 12000], "trial": 2, "serialpos": 22, "trial_type": "single-audio", "trial_index": 111, "time_elapsed": 497431, "internal_node_id": "0.0-84.0"}}, {"uniqueid": "MTK0787:3RU7GD8VPP075U98ZLXEL2RW5PBSPY", "current_trial": 112, "dateTime": 1512753236029, "trialdata": {"rt": -1000, "stimulus": "/static/audio/wordpool/CREATURE.wav", "key_press": -1, "type": "PRES_AUD", "word": "creature", "wordID": 402, "conditions": [24, 1600, "a", 12000], "trial": 2, "serialpos": 23, "trial_type": "single-audio", "trial_index": 112, "time_elapsed": 500170, "internal_node_id": "0.0-85.0"}}, {"uniqueid": "MTK0787:3RU7GD8VPP075U98ZLXEL2RW5PBSPY", "current_trial": 113, "dateTime": 1512753237330, "trialdata": {"rt": -1, "stimulus": "", "key_press": -1, "type": "PRE_RECALL_DELAY", "trial_type": "single-stim", "trial_index": 113, "time_elapsed": 501470, "internal_node_id": "0.0-86.0-0.0"}}, {"uniqueid": "MTK0787:3RU7GD8VPP075U98ZLXEL2RW5PBSPY", "current_trial": 114, "dateTime": 1512753237834, "trialdata": {"rt": -1000, "stimulus": "/static/audio/400Hz.wav", "key_press": -1, "type": "PRE_RECALL_ALERT", "trial_type": "single-audio", "trial_index": 114, "time_elapsed": 501975, "internal_node_id": "0.0-87.0"}}, {"uniqueid": "MTK0787:3RU7GD8VPP075U98ZLXEL2RW5PBSPY", "current_trial": 115, "dateTime": 1512753297858, "trialdata": {"rt": [2444, 3279, 9883, 11445, 12631, 18484, 19469, 20572, 27962, 30100, 31452, 36338, 37237, 38512, 45141, 46310, 48272, 56001, 57512, 58459], "recwords": ["tourist", "hiker", "puppy", "mouth", "pastry", "custard", "stream", "package", "klenex", "dandruf", "piston", "gravel", "chest", "cycle", "musk", "stomach", "headband", "sidewalk", "rattle", "pizza"], "type": "FREE_RECALL", "conditions": [24, 1600, "a", 12000], "trial": 2, "trial_type": "free-recall", "trial_index": 115, "time_elapsed": 561985, "internal_node_id": "0.0-88.0-0.0"}}, {"uniqueid": "MTK0787:3RU7GD8VPP075U98ZLXEL2RW5PBSPY", "current_trial": 116, "dateTime": 1512753302685, "trialdata": {"rt": 2825, "key_press": 13, "type": "INSTRUCTIONS", "trial_type": "text", "trial_index": 116, "time_elapsed": 566826, "internal_node_id": "0.0-89.0"}}, {"uniqueid": "MTK0787:3RU7GD8VPP075U98ZLXEL2RW5PBSPY", "current_trial": 117, "dateTime": 1512753316696, "trialdata": {"rt": [1468, 3736, 5152, 6732, 9096, 10629], "responses": ["12", "16", "11", "10", "14", "13"], "num1": [4, 7, 6, 2, 1, 5, 4], "num2": [2, 6, 3, 3, 6, 5, 9], "num3": [6, 3, 2, 4, 7, 3, 9], "type": "DISTRACTOR", "conditions": [12, 800, "a", 12000], "trial": 3, "trial_type": "math-distractor", "trial_index": 117, "time_elapsed": 580836, "internal_node_id": "0.0-90.0"}}, {"uniqueid": "MTK0787:3RU7GD8VPP075U98ZLXEL2RW5PBSPY", "current_trial": 118, "dateTime": 1512753319700, "trialdata": {"rt": -1, "stimulus": "<p id=\"stim\">10</p>", "key_press": -1, "trial_type": "single-stim", "trial_index": 118, "time_elapsed": 583841, "internal_node_id": "0.0-91.0-0.0"}}, {"uniqueid": "MTK0787:3RU7GD8VPP075U98ZLXEL2RW5PBSPY", "current_trial": 119, "dateTime": 1512753320704, "trialdata": {"rt": -1, "stimulus": "<p id=\"stim\">9</p>", "key_press": -1, "trial_type": "single-stim", "trial_index": 119, "time_elapsed": 584845, "internal_node_id": "0.0-91.0-1.0"}}, {"uniqueid": "MTK0787:3RU7GD8VPP075U98ZLXEL2RW5PBSPY", "current_trial": 120, "dateTime": 1512753321707, "trialdata": {"rt": -1, "stimulus": "<p id=\"stim\">8</p>", "key_press": -1, "trial_type": "single-stim", "trial_index": 120, "time_elapsed": 585848, "internal_node_id": "0.0-91.0-2.0"}}, {"uniqueid": "MTK0787:3RU7GD8VPP075U98ZLXEL2RW5PBSPY", "current_trial": 121, "dateTime": 1512753322711, "trialdata": {"rt": -1, "stimulus": "<p id=\"stim\">7</p>", "key_press": -1, "trial_type": "single-stim", "trial_index": 121, "time_elapsed": 586852, "internal_node_id": "0.0-91.0-3.0"}}, {"uniqueid": "MTK0787:3RU7GD8VPP075U98ZLXEL2RW5PBSPY", "current_trial": 122, "dateTime": 1512753323713, "trialdata": {"rt": -1, "stimulus": "<p id=\"stim\">6</p>", "key_press": -1, "trial_type": "single-stim", "trial_index": 122, "time_elapsed": 587854, "internal_node_id": "0.0-91.0-4.0"}}, {"uniqueid": "MTK0787:3RU7GD8VPP075U98ZLXEL2RW5PBSPY", "current_trial": 123, "dateTime": 1512753324717, "trialdata": {"rt": -1, "stimulus": "<p id=\"stim\">5</p>", "key_press": -1, "trial_type": "single-stim", "trial_index": 123, "time_elapsed": 588857, "internal_node_id": "0.0-91.0-5.0"}}, {"uniqueid": "MTK0787:3RU7GD8VPP075U98ZLXEL2RW5PBSPY", "current_trial": 124, "dateTime": 1512753325721, "trialdata": {"rt": -1, "stimulus": "<p id=\"stim\">4</p>", "key_press": -1, "trial_type": "single-stim", "trial_index": 124, "time_elapsed": 589861, "internal_node_id": "0.0-91.0-6.0"}}, {"uniqueid": "MTK0787:3RU7GD8VPP075U98ZLXEL2RW5PBSPY", "current_trial": 125, "dateTime": 1512753326724, "trialdata": {"rt": -1, "stimulus": "<p id=\"stim\">3</p>", "key_press": -1, "trial_type": "single-stim", "trial_index": 125, "time_elapsed": 590865, "internal_node_id": "0.0-91.0-7.0"}}, {"uniqueid": "MTK0787:3RU7GD8VPP075U98ZLXEL2RW5PBSPY", "current_trial": 126, "dateTime": 1512753327727, "trialdata": {"rt": -1, "stimulus": "<p id=\"stim\">2</p>", "key_press": -1, "trial_type": "single-stim", "trial_index": 126, "time_elapsed": 591868, "internal_node_id": "0.0-91.0-8.0"}}, {"uniqueid": "MTK0787:3RU7GD8VPP075U98ZLXEL2RW5PBSPY", "current_trial": 127, "dateTime": 1512753328731, "trialdata": {"rt": -1, "stimulus": "<p id=\"stim\">1</p>", "key_press": -1, "trial_type": "single-stim", "trial_index": 127, "time_elapsed": 592871, "internal_node_id": "0.0-91.0-9.0"}}, {"uniqueid": "MTK0787:3RU7GD8VPP075U98ZLXEL2RW5PBSPY", "current_trial": 128, "dateTime": 1512753330233, "trialdata": {"rt": -1, "stimulus": "<p id=\"stim\">+</p>", "key_press": -1, "type": "FIXATION", "trial_type": "single-stim", "trial_index": 128, "time_elapsed": 594374, "internal_node_id": "0.0-92.0-0.0"}}, {"uniqueid": "MTK0787:3RU7GD8VPP075U98ZLXEL2RW5PBSPY", "current_trial": 129, "dateTime": 1512753332013, "trialdata": {"rt": -1000, "stimulus": "/static/audio/wordpool/WIFE.wav", "key_press": -1, "type": "PRES_AUD", "word": "wife", "wordID": 1608, "conditions": [12, 800, "a", 12000], "trial": 3, "serialpos": 0, "trial_type": "single-audio", "trial_index": 129, "time_elapsed": 596154, "internal_node_id": "0.0-93.0"}}, {"uniqueid": "MTK0787:3RU7GD8VPP075U98ZLXEL2RW5PBSPY", "current_trial": 130, "dateTime": 1512753333900, "trialdata": {"rt": -1000, "stimulus": "/static/audio/wordpool/CITRUS.wav", "key_press": -1, "type": "PRES_AUD", "word": "citrus", "wordID": 312, "conditions": [12, 800, "a", 12000], "trial": 3, "serialpos": 1, "trial_type": "single-audio", "trial_index": 130, "time_elapsed": 598040, "internal_node_id": "0.0-94.0"}}, {"uniqueid": "MTK0787:3RU7GD8VPP075U98ZLXEL2RW5PBSPY", "current_trial": 131, "dateTime": 1512753335632, "trialdata": {"rt": -1000, "stimulus": "/static/audio/wordpool/PECAN.wav", "key_press": -1, "type": "PRES_AUD", "word": "pecan", "wordID": 1035, "conditions": [12, 800, "a", 12000], "trial": 3, "serialpos": 2, "trial_type": "single-audio", "trial_index": 131, "time_elapsed": 599772, "internal_node_id": "0.0-95.0"}}, {"uniqueid": "MTK0787:3RU7GD8VPP075U98ZLXEL2RW5PBSPY", "current_trial": 132, "dateTime": 1512753337598, "trialdata": {"rt": -1000, "stimulus": "/static/audio/wordpool/VELVET.wav", "key_press": -1, "type": "PRES_AUD", "word": "velvet", "wordID": 1554, "conditions": [12, 800, "a", 12000], "trial": 3, "serialpos": 3, "trial_type": "single-audio", "trial_index": 132, "time_elapsed": 601738, "internal_node_id": "0.0-96.0"}}, {"uniqueid": "MTK0787:3RU7GD8VPP075U98ZLXEL2RW5PBSPY", "current_trial": 133, "dateTime": 1512753339501, "trialdata": {"rt": -1000, "stimulus": "/static/audio/wordpool/FLASK.wav", "key_press": -1, "type": "PRES_AUD", "word": "flask", "wordID": 575, "conditions": [12, 800, "a", 12000], "trial": 3, "serialpos": 4, "trial_type": "single-audio", "trial_index": 133, "time_elapsed": 603642, "internal_node_id": "0.0-97.0"}}, {"uniqueid": "MTK0787:3RU7GD8VPP075U98ZLXEL2RW5PBSPY", "current_trial": 134, "dateTime": 1512753341228, "trialdata": {"rt": -1000, "stimulus": "/static/audio/wordpool/JELLY.wav", "key_press": -1, "type": "PRES_AUD", "word": "jelly", "wordID": 754, "conditions": [12, 800, "a", 12000], "trial": 3, "serialpos": 5, "trial_type": "single-audio", "trial_index": 134, "time_elapsed": 605369, "internal_node_id": "0.0-98.0"}}, {"uniqueid": "MTK0787:3RU7GD8VPP075U98ZLXEL2RW5PBSPY", "current_trial": 135, "dateTime": 1512753342983, "trialdata": {"rt": -1000, "stimulus": "/static/audio/wordpool/WIDOW.wav", "key_press": -1, "type": "PRES_AUD", "word": "widow", "wordID": 1607, "conditions": [12, 800, "a", 12000], "trial": 3, "serialpos": 6, "trial_type": "single-audio", "trial_index": 135, "time_elapsed": 607124, "internal_node_id": "0.0-99.0"}}, {"uniqueid": "MTK0787:3RU7GD8VPP075U98ZLXEL2RW5PBSPY", "current_trial": 136, "dateTime": 1512753344794, "trialdata": {"rt": -1000, "stimulus": "/static/audio/wordpool/CHAMPAGNE.wav", "key_press": -1, "type": "PRES_AUD", "word": "champagne", "wordID": 277, "conditions": [12, 800, "a", 12000], "trial": 3, "serialpos": 7, "trial_type": "single-audio", "trial_index": 136, "time_elapsed": 608935, "internal_node_id": "0.0-100.0"}}, {"uniqueid": "MTK0787:3RU7GD8VPP075U98ZLXEL2RW5PBSPY", "current_trial": 137, "dateTime": 1512753346692, "trialdata": {"rt": -1000, "stimulus": "/static/audio/wordpool/MONEY.wav", "key_press": -1, "type": "PRES_AUD", "word": "money", "wordID": 907, "conditions": [12, 800, "a", 12000], "trial": 3, "serialpos": 8, "trial_type": "single-audio", "trial_index": 137, "time_elapsed": 610832, "internal_node_id": "0.0-101.0"}}, {"uniqueid": "MTK0787:3RU7GD8VPP075U98ZLXEL2RW5PBSPY", "current_trial": 138, "dateTime": 1512753348446, "trialdata": {"rt": -1000, "stimulus": "/static/audio/wordpool/DIVER.wav", "key_press": -1, "type": "PRES_AUD", "word": "diver", "wordID": 475, "conditions": [12, 800, "a", 12000], "trial": 3, "serialpos": 9, "trial_type": "single-audio", "trial_index": 138, "time_elapsed": 612586, "internal_node_id": "0.0-102.0"}}, {"uniqueid": "MTK0787:3RU7GD8VPP075U98ZLXEL2RW5PBSPY", "current_trial": 139, "dateTime": 1512753350411, "trialdata": {"rt": -1000, "stimulus": "/static/audio/wordpool/LION.wav", "key_press": -1, "type": "PRES_AUD", "word": "lion", "wordID": 826, "conditions": [12, 800, "a", 12000], "trial": 3, "serialpos": 10, "trial_type": "single-audio", "trial_index": 139, "time_elapsed": 614552, "internal_node_id": "0.0-103.0"}}, {"uniqueid": "MTK0787:3RU7GD8VPP075U98ZLXEL2RW5PBSPY", "current_trial": 140, "dateTime": 1512753352245, "trialdata": {"rt": -1000, "stimulus": "/static/audio/wordpool/YARN.wav", "key_press": -1, "type": "PRES_AUD", "word": "yarn", "wordID": 1630, "conditions": [12, 800, "a", 12000], "trial": 3, "serialpos": 11, "trial_type": "single-audio", "trial_index": 140, "time_elapsed": 616385, "internal_node_id": "0.0-104.0"}}, {"uniqueid": "MTK0787:3RU7GD8VPP075U98ZLXEL2RW5PBSPY", "current_trial": 141, "dateTime": 1512753353490, "trialdata": {"rt": -1, "stimulus": "", "key_press": -1, "type": "PRE_RECALL_DELAY", "trial_type": "single-stim", "trial_index": 141, "time_elapsed": 617631, "internal_node_id": "0.0-105.0-0.0"}}, {"uniqueid": "MTK0787:3RU7GD8VPP075U98ZLXEL2RW5PBSPY", "current_trial": 142, "dateTime": 1512753353993, "trialdata": {"rt": -1000, "stimulus": "/static/audio/400Hz.wav", "key_press": -1, "type": "PRE_RECALL_ALERT", "trial_type": "single-audio", "trial_index": 142, "time_elapsed": 618134, "internal_node_id": "0.0-106.0"}}, {"uniqueid": "MTK0787:3RU7GD8VPP075U98ZLXEL2RW5PBSPY", "current_trial": 143, "dateTime": 1512753414023, "trialdata": {"rt": [2215, 3710, 8218, 9547, 10745, 16182, 17105, 19376, 24072, 25208, 26058, 26757, 27183], "recwords": ["wife", "citrus", "pecan", "velvet", "flask", "jelly", "widow", "champagne", "money", "diver", "lion", "yarn", ""], "type": "FREE_RECALL", "conditions": [12, 800, "a", 12000], "trial": 3, "trial_type": "free-recall", "trial_index": 143, "time_elapsed": 678142, "internal_node_id": "0.0-107.0-0.0"}}, {"uniqueid": "MTK0787:3RU7GD8VPP075U98ZLXEL2RW5PBSPY", "current_trial": 144, "dateTime": 1512753425568, "trialdata": {"rt": 9543, "key_press": 13, "type": "INSTRUCTIONS", "trial_type": "text", "trial_index": 144, "time_elapsed": 689709, "internal_node_id": "0.0-108.0"}}, {"uniqueid": "MTK0787:3RU7GD8VPP075U98ZLXEL2RW5PBSPY", "current_trial": 145, "dateTime": 1512753439579, "trialdata": {"rt": [2250, 4984, 7503, 9286, 10998], "responses": ["14", "14", "13", "13", "16"], "num1": [3, 4, 5, 2, 5, 5], "num2": [7, 1, 3, 7, 4, 5], "num3": [4, 9, 5, 4, 6, 1], "type": "DISTRACTOR", "conditions": [12, 1600, "v", 12000], "trial": 4, "trial_type": "math-distractor", "trial_index": 145, "time_elapsed": 703719, "internal_node_id": "0.0-109.0"}}, {"uniqueid": "MTK0787:3RU7GD8VPP075U98ZLXEL2RW5PBSPY", "current_trial": 146, "dateTime": 1512753442581, "trialdata": {"rt": -1, "stimulus": "<p id=\"stim\">10</p>", "key_press": -1, "trial_type": "single-stim", "trial_index": 146, "time_elapsed": 706722, "internal_node_id": "0.0-110.0-0.0"}}, {"uniqueid": "MTK0787:3RU7GD8VPP075U98ZLXEL2RW5PBSPY", "current_trial": 147, "dateTime": 1512753443585, "trialdata": {"rt": -1, "stimulus": "<p id=\"stim\">9</p>", "key_press": -1, "trial_type": "single-stim", "trial_index": 147, "time_elapsed": 707725, "internal_node_id": "0.0-110.0-1.0"}}, {"uniqueid": "MTK0787:3RU7GD8VPP075U98ZLXEL2RW5PBSPY", "current_trial": 148, "dateTime": 1512753444587, "trialdata": {"rt": -1, "stimulus": "<p id=\"stim\">8</p>", "key_press": -1, "trial_type": "single-stim", "trial_index": 148, "time_elapsed": 708728, "internal_node_id": "0.0-110.0-2.0"}}, {"uniqueid": "MTK0787:3RU7GD8VPP075U98ZLXEL2RW5PBSPY", "current_trial": 149, "dateTime": 1512753445592, "trialdata": {"rt": -1, "stimulus": "<p id=\"stim\">7</p>", "key_press": -1, "trial_type": "single-stim", "trial_index": 149, "time_elapsed": 709732, "internal_node_id": "0.0-110.0-3.0"}}, {"uniqueid": "MTK0787:3RU7GD8VPP075U98ZLXEL2RW5PBSPY", "current_trial": 150, "dateTime": 1512753446596, "trialdata": {"rt": -1, "stimulus": "<p id=\"stim\">6</p>", "key_press": -1, "trial_type": "single-stim", "trial_index": 150, "time_elapsed": 710736, "internal_node_id": "0.0-110.0-4.0"}}, {"uniqueid": "MTK0787:3RU7GD8VPP075U98ZLXEL2RW5PBSPY", "current_trial": 151, "dateTime": 1512753447599, "trialdata": {"rt": -1, "stimulus": "<p id=\"stim\">5</p>", "key_press": -1, "trial_type": "single-stim", "trial_index": 151, "time_elapsed": 711740, "internal_node_id": "0.0-110.0-5.0"}}, {"uniqueid": "MTK0787:3RU7GD8VPP075U98ZLXEL2RW5PBSPY", "current_trial": 152, "dateTime": 1512753448601, "trialdata": {"rt": -1, "stimulus": "<p id=\"stim\">4</p>", "key_press": -1, "trial_type": "single-stim", "trial_index": 152, "time_elapsed": 712742, "internal_node_id": "0.0-110.0-6.0"}}, {"uniqueid": "MTK0787:3RU7GD8VPP075U98ZLXEL2RW5PBSPY", "current_trial": 153, "dateTime": 1512753449606, "trialdata": {"rt": -1, "stimulus": "<p id=\"stim\">3</p>", "key_press": -1, "trial_type": "single-stim", "trial_index": 153, "time_elapsed": 713745, "internal_node_id": "0.0-110.0-7.0"}}, {"uniqueid": "MTK0787:3RU7GD8VPP075U98ZLXEL2RW5PBSPY", "current_trial": 154, "dateTime": 1512753450609, "trialdata": {"rt": -1, "stimulus": "<p id=\"stim\">2</p>", "key_press": -1, "trial_type": "single-stim", "trial_index": 154, "time_elapsed": 714750, "internal_node_id": "0.0-110.0-8.0"}}, {"uniqueid": "MTK0787:3RU7GD8VPP075U98ZLXEL2RW5PBSPY", "current_trial": 155, "dateTime": 1512753451611, "trialdata": {"rt": -1, "stimulus": "<p id=\"stim\">1</p>", "key_press": -1, "trial_type": "single-stim", "trial_index": 155, "time_elapsed": 715752, "internal_node_id": "0.0-110.0-9.0"}}, {"uniqueid": "MTK0787:3RU7GD8VPP075U98ZLXEL2RW5PBSPY", "current_trial": 156, "dateTime": 1512753453116, "trialdata": {"rt": -1, "stimulus": "<p id=\"stim\">+</p>", "key_press": -1, "type": "FIXATION", "trial_type": "single-stim", "trial_index": 156, "time_elapsed": 717256, "internal_node_id": "0.0-111.0-0.0"}}, {"uniqueid": "MTK0787:3RU7GD8VPP075U98ZLXEL2RW5PBSPY", "current_trial": 157, "dateTime": 1512753454719, "trialdata": {"rt": -1, "stimulus": "<p id=\"stim\">LABEL</p>", "key_press": -1, "type": "PRES_VIS", "word": "label", "wordID": 789, "conditions": [12, 1600, "v", 12000], "trial": 4, "serialpos": 0, "trial_type": "single-stim", "trial_index": 157, "time_elapsed": 718859, "internal_node_id": "0.0-112.0"}}, {"uniqueid": "MTK0787:3RU7GD8VPP075U98ZLXEL2RW5PBSPY", "current_trial": 158, "dateTime": 1512753457332, "trialdata": {"rt": -1, "stimulus": "<p id=\"stim\">NOMAD</p>", "key_press": -1, "type": "PRES_VIS", "word": "nomad", "wordID": 954, "conditions": [12, 1600, "v", 12000], "trial": 4, "serialpos": 1, "trial_type": "single-stim", "trial_index": 158, "time_elapsed": 721472, "internal_node_id": "0.0-113.0"}}, {"uniqueid": "MTK0787:3RU7GD8VPP075U98ZLXEL2RW5PBSPY", "current_trial": 159, "dateTime": 1512753460027, "trialdata": {"rt": -1, "stimulus": "<p id=\"stim\">ORCHID</p>", "key_press": -1, "type": "PRES_VIS", "word": "orchid", "wordID": 981, "conditions": [12, 1600, "v", 12000], "trial": 4, "serialpos": 2, "trial_type": "single-stim", "trial_index": 159, "time_elapsed": 724167, "internal_node_id": "0.0-114.0"}}, {"uniqueid": "MTK0787:3RU7GD8VPP075U98ZLXEL2RW5PBSPY", "current_trial": 160, "dateTime": 1512753462745, "trialdata": {"rt": -1, "stimulus": "<p id=\"stim\">DONKEY</p>", "key_press": -1, "type": "PRES_VIS", "word": "donkey", "wordID": 483, "conditions": [12, 1600, "v", 12000], "trial": 4, "serialpos": 3, "trial_type": "single-stim", "trial_index": 160, "time_elapsed": 726885, "internal_node_id": "0.0-115.0"}}, {"uniqueid": "MTK0787:3RU7GD8VPP075U98ZLXEL2RW5PBSPY", "current_trial": 161, "dateTime": 1512753465477, "trialdata": {"rt": -1, "stimulus": "<p id=\"stim\">CAMEL</p>", "key_press": -1, "type": "PRES_VIS", "word": "camel", "wordID": 222, "conditions": [12, 1600, "v", 12000], "trial": 4, "serialpos": 4, "trial_type": "single-stim", "trial_index": 161, "time_elapsed": 729617, "internal_node_id": "0.0-116.0"}}, {"uniqueid": "MTK0787:3RU7GD8VPP075U98ZLXEL2RW5PBSPY", "current_trial": 162, "dateTime": 1512753468167, "trialdata": {"rt": -1, "stimulus": "<p id=\"stim\">LILY</p>", "key_press": -1, "type": "PRES_VIS", "word": "lily", "wordID": 820, "conditions": [12, 1600, "v", 12000], "trial": 4, "serialpos": 5, "trial_type": "single-stim", "trial_index": 162, "time_elapsed": 732307, "internal_node_id": "0.0-117.0"}}, {"uniqueid": "MTK0787:3RU7GD8VPP075U98ZLXEL2RW5PBSPY", "current_trial": 163, "dateTime": 1512753470845, "trialdata": {"rt": -1, "stimulus": "<p id=\"stim\">TROUT</p>", "key_press": -1, "type": "PRES_VIS", "word": "trout", "wordID": 1510, "conditions": [12, 1600, "v", 12000], "trial": 4, "serialpos": 6, "trial_type": "single-stim", "trial_index": 163, "time_elapsed": 734986, "internal_node_id": "0.0-118.0"}}, {"uniqueid": "MTK0787:3RU7GD8VPP075U98ZLXEL2RW5PBSPY", "current_trial": 164, "dateTime": 1512753473551, "trialdata": {"rt": -1, "stimulus": "<p id=\"stim\">DOLPHIN</p>", "key_press": -1, "type": "PRES_VIS", "word": "dolphin", "wordID": 482, "conditions": [12, 1600, "v", 12000], "trial": 4, "serialpos": 7, "trial_type": "single-stim", "trial_index": 164, "time_elapsed": 737691, "internal_node_id": "0.0-119.0"}}, {"uniqueid": "MTK0787:3RU7GD8VPP075U98ZLXEL2RW5PBSPY", "current_trial": 165, "dateTime": 1512753476198, "trialdata": {"rt": -1, "stimulus": "<p id=\"stim\">BASEMENT</p>", "key_press": -1, "type": "PRES_VIS", "word": "basement", "wordID": 93, "conditions": [12, 1600, "v", 12000], "trial": 4, "serialpos": 8, "trial_type": "single-stim", "trial_index": 165, "time_elapsed": 740338, "internal_node_id": "0.0-120.0"}}, {"uniqueid": "MTK0787:3RU7GD8VPP075U98ZLXEL2RW5PBSPY", "current_trial": 166, "dateTime": 1512753478909, "trialdata": {"rt": -1, "stimulus": "<p id=\"stim\">DANCER</p>", "key_press": -1, "type": "PRES_VIS", "word": "dancer", "wordID": 436, "conditions": [12, 1600, "v", 12000], "trial": 4, "serialpos": 9, "trial_type": "single-stim", "trial_index": 166, "time_elapsed": 743050, "internal_node_id": "0.0-121.0"}}, {"uniqueid": "MTK0787:3RU7GD8VPP075U98ZLXEL2RW5PBSPY", "current_trial": 167, "dateTime": 1512753481453, "trialdata": {"rt": -1, "stimulus": "<p id=\"stim\">CRICKET</p>", "key_press": -1, "type": "PRES_VIS", "word": "cricket", "wordID": 407, "conditions": [12, 1600, "v", 12000], "trial": 4, "serialpos": 10, "trial_type": "single-stim", "trial_index": 167, "time_elapsed": 745593, "internal_node_id": "0.0-122.0"}}, {"uniqueid": "MTK0787:3RU7GD8VPP075U98ZLXEL2RW5PBSPY", "current_trial": 168, "dateTime": 1512753484054, "trialdata": {"rt": -1, "stimulus": "<p id=\"stim\">STAMP</p>", "key_press": -1, "type": "PRES_VIS", "word": "stamp", "wordID": 1369, "conditions": [12, 1600, "v", 12000], "trial": 4, "serialpos": 11, "trial_type": "single-stim", "trial_index": 168, "time_elapsed": 748195, "internal_node_id": "0.0-123.0"}}, {"uniqueid": "MTK0787:3RU7GD8VPP075U98ZLXEL2RW5PBSPY", "current_trial": 169, "dateTime": 1512753486525, "trialdata": {"rt": -1, "stimulus": "", "key_press": -1, "type": "PRE_RECALL_DELAY", "trial_type": "single-stim", "trial_index": 169, "time_elapsed": 750665, "internal_node_id": "0.0-124.0-0.0"}}, {"uniqueid": "MTK0787:3RU7GD8VPP075U98ZLXEL2RW5PBSPY", "current_trial": 170, "dateTime": 1512753487028, "trialdata": {"rt": -1000, "stimulus": "/static/audio/400Hz.wav", "key_press": -1, "type": "PRE_RECALL_ALERT", "trial_type": "single-audio", "trial_index": 170, "time_elapsed": 751168, "internal_node_id": "0.0-125.0"}}, {"uniqueid": "MTK0787:3RU7GD8VPP075U98ZLXEL2RW5PBSPY", "current_trial": 171, "dateTime": 1512753547060, "trialdata": {"rt": [3876, 5070, 6750, 12252, 13030, 18310, 19132, 19970, 25956, 27431, 28293, 33261, 34175], "recwords": ["label", "nomad", "orchird", "orchid", "donkey", "camel", "lily", "trout", "dolphin", "basement", "dancer", "cricket", "stamp"], "type": "FREE_RECALL", "conditions": [12, 1600, "v", 12000], "trial": 4, "trial_type": "free-recall", "trial_index": 171, "time_elapsed": 811177, "internal_node_id": "0.0-126.0-0.0"}}, {"uniqueid": "MTK0787:3RU7GD8VPP075U98ZLXEL2RW5PBSPY", "current_trial": 172, "dateTime": 1512753552603, "trialdata": {"rt": 3541, "key_press": 13, "type": "INSTRUCTIONS", "trial_type": "text", "trial_index": 172, "time_elapsed": 816743, "internal_node_id": "0.0-127.0"}}, {"uniqueid": "MTK0787:3RU7GD8VPP075U98ZLXEL2RW5PBSPY", "current_trial": 173, "dateTime": 1512753578613, "trialdata": {"rt": [1647, 4684, 6699, 8464, 11209, 12928, 15719, 18401, 21532, 23308], "responses": ["6", "20", "11", "6", "18", "12", "18", "22", "23", "11"], "num1": [3, 5, 5, 1, 3, 4, 7, 5, 9, 4, 4], "num2": [1, 9, 4, 4, 6, 7, 4, 8, 7, 3, 4], "num3": [2, 6, 2, 1, 9, 1, 7, 9, 7, 4, 6], "type": "DISTRACTOR", "conditions": [12, 800, "a", 24000], "trial": 5, "trial_type": "math-distractor", "trial_index": 173, "time_elapsed": 842754, "internal_node_id": "0.0-128.0"}}, {"uniqueid": "MTK0787:3RU7GD8VPP075U98ZLXEL2RW5PBSPY", "current_trial": 174, "dateTime": 1512753581616, "trialdata": {"rt": -1, "stimulus": "<p id=\"stim\">10</p>", "key_press": -1, "trial_type": "single-stim", "trial_index": 174, "time_elapsed": 845757, "internal_node_id": "0.0-129.0-0.0"}}, {"uniqueid": "MTK0787:3RU7GD8VPP075U98ZLXEL2RW5PBSPY", "current_trial": 175, "dateTime": 1512753582619, "trialdata": {"rt": -1, "stimulus": "<p id=\"stim\">9</p>", "key_press": -1, "trial_type": "single-stim", "trial_index": 175, "time_elapsed": 846760, "internal_node_id": "0.0-129.0-1.0"}}, {"uniqueid": "MTK0787:3RU7GD8VPP075U98ZLXEL2RW5PBSPY", "current_trial": 176, "dateTime": 1512753583622, "trialdata": {"rt": -1, "stimulus": "<p id=\"stim\">8</p>", "key_press": -1, "trial_type": "single-stim", "trial_index": 176, "time_elapsed": 847763, "internal_node_id": "0.0-129.0-2.0"}}, {"uniqueid": "MTK0787:3RU7GD8VPP075U98ZLXEL2RW5PBSPY", "current_trial": 177, "dateTime": 1512753584627, "trialdata": {"rt": -1, "stimulus": "<p id=\"stim\">7</p>", "key_press": -1, "trial_type": "single-stim", "trial_index": 177, "time_elapsed": 848767, "internal_node_id": "0.0-129.0-3.0"}}, {"uniqueid": "MTK0787:3RU7GD8VPP075U98ZLXEL2RW5PBSPY", "current_trial": 178, "dateTime": 1512753585631, "trialdata": {"rt": -1, "stimulus": "<p id=\"stim\">6</p>", "key_press": -1, "trial_type": "single-stim", "trial_index": 178, "time_elapsed": 849771, "internal_node_id": "0.0-129.0-4.0"}}, {"uniqueid": "MTK0787:3RU7GD8VPP075U98ZLXEL2RW5PBSPY", "current_trial": 179, "dateTime": 1512753586635, "trialdata": {"rt": -1, "stimulus": "<p id=\"stim\">5</p>", "key_press": -1, "trial_type": "single-stim", "trial_index": 179, "time_elapsed": 850774, "internal_node_id": "0.0-129.0-5.0"}}, {"uniqueid": "MTK0787:3RU7GD8VPP075U98ZLXEL2RW5PBSPY", "current_trial": 180, "dateTime": 1512753587638, "trialdata": {"rt": -1, "stimulus": "<p id=\"stim\">4</p>", "key_press": -1, "trial_type": "single-stim", "trial_index": 180, "time_elapsed": 851778, "internal_node_id": "0.0-129.0-6.0"}}, {"uniqueid": "MTK0787:3RU7GD8VPP075U98ZLXEL2RW5PBSPY", "current_trial": 181, "dateTime": 1512753588641, "trialdata": {"rt": -1, "stimulus": "<p id=\"stim\">3</p>", "key_press": -1, "trial_type": "single-stim", "trial_index": 181, "time_elapsed": 852781, "internal_node_id": "0.0-129.0-7.0"}}, {"uniqueid": "MTK0787:3RU7GD8VPP075U98ZLXEL2RW5PBSPY", "current_trial": 182, "dateTime": 1512753589646, "trialdata": {"rt": -1, "stimulus": "<p id=\"stim\">2</p>", "key_press": -1, "trial_type": "single-stim", "trial_index": 182, "time_elapsed": 853786, "internal_node_id": "0.0-129.0-8.0"}}, {"uniqueid": "MTK0787:3RU7GD8VPP075U98ZLXEL2RW5PBSPY", "current_trial": 183, "dateTime": 1512753590650, "trialdata": {"rt": -1, "stimulus": "<p id=\"stim\">1</p>", "key_press": -1, "trial_type": "single-stim", "trial_index": 183, "time_elapsed": 854790, "internal_node_id": "0.0-129.0-9.0"}}, {"uniqueid": "MTK0787:3RU7GD8VPP075U98ZLXEL2RW5PBSPY", "current_trial": 184, "dateTime": 1512753592154, "trialdata": {"rt": -1, "stimulus": "<p id=\"stim\">+</p>", "key_press": -1, "type": "FIXATION", "trial_type": "single-stim", "trial_index": 184, "time_elapsed": 856293, "internal_node_id": "0.0-130.0-0.0"}}, {"uniqueid": "MTK0787:3RU7GD8VPP075U98ZLXEL2RW5PBSPY", "current_trial": 185, "dateTime": 1512753593877, "trialdata": {"rt": -1000, "stimulus": "/static/audio/wordpool/TRUCK.wav", "key_press": -1, "type": "PRES_AUD", "word": "truck", "wordID": 1511, "conditions": [12, 800, "a", 24000], "trial": 5, "serialpos": 0, "trial_type": "single-audio", "trial_index": 185, "time_elapsed": 858017, "internal_node_id": "0.0-131.0"}}, {"uniqueid": "MTK0787:3RU7GD8VPP075U98ZLXEL2RW5PBSPY", "current_trial": 186, "dateTime": 1512753595807, "trialdata": {"rt": -1000, "stimulus": "/static/audio/wordpool/STATUE.wav", "key_press": -1, "type": "PRES_AUD", "word": "statue", "wordID": 1373, "conditions": [12, 800, "a", 24000], "trial": 5, "serialpos": 1, "trial_type": "single-audio", "trial_index": 186, "time_elapsed": 859948, "internal_node_id": "0.0-132.0"}}, {"uniqueid": "MTK0787:3RU7GD8VPP075U98ZLXEL2RW5PBSPY", "current_trial": 187, "dateTime": 1512753597633, "trialdata": {"rt": -1000, "stimulus": "/static/audio/wordpool/TABLE.wav", "key_press": -1, "type": "PRES_AUD", "word": "table", "wordID": 1425, "conditions": [12, 800, "a", 24000], "trial": 5, "serialpos": 2, "trial_type": "single-audio", "trial_index": 187, "time_elapsed": 861774, "internal_node_id": "0.0-133.0"}}, {"uniqueid": "MTK0787:3RU7GD8VPP075U98ZLXEL2RW5PBSPY", "current_trial": 188, "dateTime": 1512753599308, "trialdata": {"rt": -1000, "stimulus": "/static/audio/wordpool/SHIRT.wav", "key_press": -1, "type": "PRES_AUD", "word": "shirt", "wordID": 1286, "conditions": [12, 800, "a", 24000], "trial": 5, "serialpos": 3, "trial_type": "single-audio", "trial_index": 188, "time_elapsed": 863448, "internal_node_id": "0.0-134.0"}}, {"uniqueid": "MTK0787:3RU7GD8VPP075U98ZLXEL2RW5PBSPY", "current_trial": 189, "dateTime": 1512753600917, "trialdata": {"rt": -1000, "stimulus": "/static/audio/wordpool/WRIST.wav", "key_press": -1, "type": "PRES_AUD", "word": "wrist", "wordID": 1625, "conditions": [12, 800, "a", 24000], "trial": 5, "serialpos": 4, "trial_type": "single-audio", "trial_index": 189, "time_elapsed": 865057, "internal_node_id": "0.0-135.0"}}, {"uniqueid": "MTK0787:3RU7GD8VPP075U98ZLXEL2RW5PBSPY", "current_trial": 190, "dateTime": 1512753602621, "trialdata": {"rt": -1000, "stimulus": "/static/audio/wordpool/CABBAGE.wav", "key_press": -1, "type": "PRES_AUD", "word": "cabbage", "wordID": 209, "conditions": [12, 800, "a", 24000], "trial": 5, "serialpos": 5, "trial_type": "single-audio", "trial_index": 190, "time_elapsed": 866762, "internal_node_id": "0.0-136.0"}}, {"uniqueid": "MTK0787:3RU7GD8VPP075U98ZLXEL2RW5PBSPY", "current_trial": 191, "dateTime": 1512753604588, "trialdata": {"rt": -1000, "stimulus": "/static/audio/wordpool/OUTDOORS.wav", "key_press": -1, "type": "PRES_AUD", "word": "outdoors", "wordID": 986, "conditions": [12, 800, "a", 24000], "trial": 5, "serialpos": 6, "trial_type": "single-audio", "trial_index": 191, "time_elapsed": 868728, "internal_node_id": "0.0-137.0"}}, {"uniqueid": "MTK0787:3RU7GD8VPP075U98ZLXEL2RW5PBSPY", "current_trial": 192, "dateTime": 1512753606477, "trialdata": {"rt": -1000, "stimulus": "/static/audio/wordpool/SCULPTURE.wav", "key_press": -1, "type": "PRES_AUD", "word": "sculpture", "wordID": 1257, "conditions": [12, 800, "a", 24000], "trial": 5, "serialpos": 7, "trial_type": "single-audio", "trial_index": 192, "time_elapsed": 870613, "internal_node_id": "0.0-138.0"}}, {"uniqueid": "MTK0787:3RU7GD8VPP075U98ZLXEL2RW5PBSPY", "current_trial": 193, "dateTime": 1512753608394, "trialdata": {"rt": -1000, "stimulus": "/static/audio/wordpool/CRIB.wav", "key_press": -1, "type": "PRES_AUD", "word": "crib", "wordID": 406, "conditions": [12, 800, "a", 24000], "trial": 5, "serialpos": 8, "trial_type": "single-audio", "trial_index": 193, "time_elapsed": 872535, "internal_node_id": "0.0-139.0"}}, {"uniqueid": "MTK0787:3RU7GD8VPP075U98ZLXEL2RW5PBSPY", "current_trial": 194, "dateTime": 1512753610114, "trialdata": {"rt": -1000, "stimulus": "/static/audio/wordpool/INFANT.wav", "key_press": -1, "type": "PRES_AUD", "word": "infant", "wordID": 736, "conditions": [12, 800, "a", 24000], "trial": 5, "serialpos": 9, "trial_type": "single-audio", "trial_index": 194, "time_elapsed": 874254, "internal_node_id": "0.0-140.0"}}, {"uniqueid": "MTK0787:3RU7GD8VPP075U98ZLXEL2RW5PBSPY", "current_trial": 195, "dateTime": 1512753612107, "trialdata": {"rt": -1000, "stimulus": "/static/audio/wordpool/PLAZA.wav", "key_press": -1, "type": "PRES_AUD", "word": "plaza", "wordID": 1087, "conditions": [12, 800, "a", 24000], "trial": 5, "serialpos": 10, "trial_type": "single-audio", "trial_index": 195, "time_elapsed": 876248, "internal_node_id": "0.0-141.0"}}, {"uniqueid": "MTK0787:3RU7GD8VPP075U98ZLXEL2RW5PBSPY", "current_trial": 196, "dateTime": 1512753613853, "trialdata": {"rt": -1000, "stimulus": "/static/audio/wordpool/YACHT.wav", "key_press": -1, "type": "PRES_AUD", "word": "yacht", "wordID": 1628, "conditions": [12, 800, "a", 24000], "trial": 5, "serialpos": 11, "trial_type": "single-audio", "trial_index": 196, "time_elapsed": 877994, "internal_node_id": "0.0-142.0"}}, {"uniqueid": "MTK0787:3RU7GD8VPP075U98ZLXEL2RW5PBSPY", "current_trial": 197, "dateTime": 1512753615229, "trialdata": {"rt": -1, "stimulus": "", "key_press": -1, "type": "PRE_RECALL_DELAY", "trial_type": "single-stim", "trial_index": 197, "time_elapsed": 879369, "internal_node_id": "0.0-143.0-0.0"}}, {"uniqueid": "MTK0787:3RU7GD8VPP075U98ZLXEL2RW5PBSPY", "current_trial": 198, "dateTime": 1512753615731, "trialdata": {"rt": -1000, "stimulus": "/static/audio/400Hz.wav", "key_press": -1, "type": "PRE_RECALL_ALERT", "trial_type": "single-audio", "trial_index": 198, "time_elapsed": 879872, "internal_node_id": "0.0-144.0"}}, {"uniqueid": "MTK0787:3RU7GD8VPP075U98ZLXEL2RW5PBSPY", "current_trial": 199, "dateTime": 1512753675763, "trialdata": {"rt": [2224, 3010, 3687, 9205, 10600, 17424, 18126, 19123, 24810, 26034], "recwords": ["statue", "table", "wrist", "cabbage", "outdoors", "sculpture", "crib", "infant", "plaza", "yacht"], "type": "FREE_RECALL", "conditions": [12, 800, "a", 24000], "trial": 5, "trial_type": "free-recall", "trial_index": 199, "time_elapsed": 939879, "internal_node_id": "0.0-145.0-0.0"}}, {"uniqueid": "MTK0787:3RU7GD8VPP075U98ZLXEL2RW5PBSPY", "current_trial": 200, "dateTime": 1512753679233, "trialdata": {"rt": 1467, "key_press": 13, "type": "INSTRUCTIONS", "trial_type": "text", "trial_index": 200, "time_elapsed": 943374, "internal_node_id": "0.0-146.0"}}, {"uniqueid": "MTK0787:3RU7GD8VPP075U98ZLXEL2RW5PBSPY", "current_trial": 201, "dateTime": 1512753705241, "trialdata": {"rt": [3396, 7144, 9256, 12426, 14746, 17103, 18927, 20750, 22679], "responses": ["17", "19", "18", "18", "17", "19", "13", "13", "17"], "num1": [9, 8, 3, 7, 5, 6, 2, 6, 9, 2], "num2": [6, 5, 8, 5, 6, 6, 9, 4, 3, 7], "num3": [2, 6, 7, 6, 6, 7, 2, 3, 5, 4], "type": "DISTRACTOR", "conditions": [24, 1600, "v", 24000], "trial": 6, "trial_type": "math-distractor", "trial_index": 201, "time_elapsed": 969381, "internal_node_id": "0.0-147.0"}}, {"uniqueid": "MTK0787:3RU7GD8VPP075U98ZLXEL2RW5PBSPY", "current_trial": 202, "dateTime": 1512753708245, "trialdata": {"rt": -1, "stimulus": "<p id=\"stim\">10</p>", "key_press": -1, "trial_type": "single-stim", "trial_index": 202, "time_elapsed": 972386, "internal_node_id": "0.0-148.0-0.0"}}, {"uniqueid": "MTK0787:3RU7GD8VPP075U98ZLXEL2RW5PBSPY", "current_trial": 203, "dateTime": 1512753709248, "trialdata": {"rt": -1, "stimulus": "<p id=\"stim\">9</p>", "key_press": -1, "trial_type": "single-stim", "trial_index": 203, "time_elapsed": 973389, "internal_node_id": "0.0-148.0-1.0"}}, {"uniqueid": "MTK0787:3RU7GD8VPP075U98ZLXEL2RW5PBSPY", "current_trial": 204, "dateTime": 1512753710252, "trialdata": {"rt": -1, "stimulus": "<p id=\"stim\">8</p>", "key_press": -1, "trial_type": "single-stim", "trial_index": 204, "time_elapsed": 974392, "internal_node_id": "0.0-148.0-2.0"}}, {"uniqueid": "MTK0787:3RU7GD8VPP075U98ZLXEL2RW5PBSPY", "current_trial": 205, "dateTime": 1512753711256, "trialdata": {"rt": -1, "stimulus": "<p id=\"stim\">7</p>", "key_press": -1, "trial_type": "single-stim", "trial_index": 205, "time_elapsed": 975396, "internal_node_id": "0.0-148.0-3.0"}}, {"uniqueid": "MTK0787:3RU7GD8VPP075U98ZLXEL2RW5PBSPY", "current_trial": 206, "dateTime": 1512753712260, "trialdata": {"rt": -1, "stimulus": "<p id=\"stim\">6</p>", "key_press": -1, "trial_type": "single-stim", "trial_index": 206, "time_elapsed": 976400, "internal_node_id": "0.0-148.0-4.0"}}, {"uniqueid": "MTK0787:3RU7GD8VPP075U98ZLXEL2RW5PBSPY", "current_trial": 207, "dateTime": 1512753713263, "trialdata": {"rt": -1, "stimulus": "<p id=\"stim\">5</p>", "key_press": -1, "trial_type": "single-stim", "trial_index": 207, "time_elapsed": 977403, "internal_node_id": "0.0-148.0-5.0"}}, {"uniqueid": "MTK0787:3RU7GD8VPP075U98ZLXEL2RW5PBSPY", "current_trial": 208, "dateTime": 1512753714267, "trialdata": {"rt": -1, "stimulus": "<p id=\"stim\">4</p>", "key_press": -1, "trial_type": "single-stim", "trial_index": 208, "time_elapsed": 978408, "internal_node_id": "0.0-148.0-6.0"}}, {"uniqueid": "MTK0787:3RU7GD8VPP075U98ZLXEL2RW5PBSPY", "current_trial": 209, "dateTime": 1512753715270, "trialdata": {"rt": -1, "stimulus": "<p id=\"stim\">3</p>", "key_press": -1, "trial_type": "single-stim", "trial_index": 209, "time_elapsed": 979411, "internal_node_id": "0.0-148.0-7.0"}}, {"uniqueid": "MTK0787:3RU7GD8VPP075U98ZLXEL2RW5PBSPY", "current_trial": 210, "dateTime": 1512753716275, "trialdata": {"rt": -1, "stimulus": "<p id=\"stim\">2</p>", "key_press": -1, "trial_type": "single-stim", "trial_index": 210, "time_elapsed": 980415, "internal_node_id": "0.0-148.0-8.0"}}, {"uniqueid": "MTK0787:3RU7GD8VPP075U98ZLXEL2RW5PBSPY", "current_trial": 211, "dateTime": 1512753717278, "trialdata": {"rt": -1, "stimulus": "<p id=\"stim\">1</p>", "key_press": -1, "trial_type": "single-stim", "trial_index": 211, "time_elapsed": 981418, "internal_node_id": "0.0-148.0-9.0"}}, {"uniqueid": "MTK0787:3RU7GD8VPP075U98ZLXEL2RW5PBSPY", "current_trial": 212, "dateTime": 1512753718782, "trialdata": {"rt": -1, "stimulus": "<p id=\"stim\">+</p>", "key_press": -1, "type": "FIXATION", "trial_type": "single-stim", "trial_index": 212, "time_elapsed": 982922, "internal_node_id": "0.0-149.0-0.0"}}, {"uniqueid": "MTK0787:3RU7GD8VPP075U98ZLXEL2RW5PBSPY", "current_trial": 213, "dateTime": 1512753720385, "trialdata": {"rt": -1, "stimulus": "<p id=\"stim\">FRUIT</p>", "key_press": -1, "type": "PRES_VIS", "word": "fruit", "wordID": 609, "conditions": [24, 1600, "v", 24000], "trial": 6, "serialpos": 0, "trial_type": "single-stim", "trial_index": 213, "time_elapsed": 984525, "internal_node_id": "0.0-150.0"}}, {"uniqueid": "MTK0787:3RU7GD8VPP075U98ZLXEL2RW5PBSPY", "current_trial": 214, "dateTime": 1512753722991, "trialdata": {"rt": -1, "stimulus": "<p id=\"stim\">HONEY</p>", "key_press": -1, "type": "PRES_VIS", "word": "honey", "wordID": 712, "conditions": [24, 1600, "v", 24000], "trial": 6, "serialpos": 1, "trial_type": "single-stim", "trial_index": 214, "time_elapsed": 987132, "internal_node_id": "0.0-151.0"}}, {"uniqueid": "MTK0787:3RU7GD8VPP075U98ZLXEL2RW5PBSPY", "current_trial": 215, "dateTime": 1512753725477, "trialdata": {"rt": -1, "stimulus": "<p id=\"stim\">SUNSET</p>", "key_press": -1, "type": "PRES_VIS", "word": "sunset", "wordID": 1407, "conditions": [24, 1600, "v", 24000], "trial": 6, "serialpos": 2, "trial_type": "single-stim", "trial_index": 215, "time_elapsed": 989617, "internal_node_id": "0.0-152.0"}}, {"uniqueid": "MTK0787:3RU7GD8VPP075U98ZLXEL2RW5PBSPY", "current_trial": 216, "dateTime": 1512753728276, "trialdata": {"rt": -1, "stimulus": "<p id=\"stim\">MUMMY</p>", "key_press": -1, "type": "PRES_VIS", "word": "mummy", "wordID": 931, "conditions": [24, 1600, "v", 24000], "trial": 6, "serialpos": 3, "trial_type": "single-stim", "trial_index": 216, "time_elapsed": 992416, "internal_node_id": "0.0-153.0"}}, {"uniqueid": "MTK0787:3RU7GD8VPP075U98ZLXEL2RW5PBSPY", "current_trial": 217, "dateTime": 1512753730939, "trialdata": {"rt": -1, "stimulus": "<p id=\"stim\">EYELASH</p>", "key_press": -1, "type": "PRES_VIS", "word": "eyelash", "wordID": 545, "conditions": [24, 1600, "v", 24000], "trial": 6, "serialpos": 4, "trial_type": "single-stim", "trial_index": 217, "time_elapsed": 995079, "internal_node_id": "0.0-154.0"}}, {"uniqueid": "MTK0787:3RU7GD8VPP075U98ZLXEL2RW5PBSPY", "current_trial": 218, "dateTime": 1512753733363, "trialdata": {"rt": -1, "stimulus": "<p id=\"stim\">COCKTAIL</p>", "key_press": -1, "type": "PRES_VIS", "word": "cocktail", "wordID": 337, "conditions": [24, 1600, "v", 24000], "trial": 6, "serialpos": 5, "trial_type": "single-stim", "trial_index": 218, "time_elapsed": 997503, "internal_node_id": "0.0-155.0"}}, {"uniqueid": "MTK0787:3RU7GD8VPP075U98ZLXEL2RW5PBSPY", "current_trial": 219, "dateTime": 1512753735815, "trialdata": {"rt": -1, "stimulus": "<p id=\"stim\">CANDY</p>", "key_press": -1, "type": "PRES_VIS", "word": "candy", "wordID": 229, "conditions": [24, 1600, "v", 24000], "trial": 6, "serialpos": 6, "trial_type": "single-stim", "trial_index": 219, "time_elapsed": 999951, "internal_node_id": "0.0-156.0"}}, {"uniqueid": "MTK0787:3RU7GD8VPP075U98ZLXEL2RW5PBSPY", "current_trial": 220, "dateTime": 1512753738417, "trialdata": {"rt": -1, "stimulus": "<p id=\"stim\">SCARECROW</p>", "key_press": -1, "type": "PRES_VIS", "word": "scarecrow", "wordID": 1244, "conditions": [24, 1600, "v", 24000], "trial": 6, "serialpos": 7, "trial_type": "single-stim", "trial_index": 220, "time_elapsed": 1002558, "internal_node_id": "0.0-157.0"}}, {"uniqueid": "MTK0787:3RU7GD8VPP075U98ZLXEL2RW5PBSPY", "current_trial": 221, "dateTime": 1512753741082, "trialdata": {"rt": -1, "stimulus": "<p id=\"stim\">PICTURE</p>", "key_press": -1, "type": "PRES_VIS", "word": "picture", "wordID": 1060, "conditions": [24, 1600, "v", 24000], "trial": 6, "serialpos": 8, "trial_type": "single-stim", "trial_index": 221, "time_elapsed": 1005222, "internal_node_id": "0.0-158.0"}}, {"uniqueid": "MTK0787:3RU7GD8VPP075U98ZLXEL2RW5PBSPY", "current_trial": 222, "dateTime": 1512753743578, "trialdata": {"rt": -1, "stimulus": "<p id=\"stim\">SNACK</p>", "key_press": -1, "type": "PRES_VIS", "word": "snack", "wordID": 1330, "conditions": [24, 1600, "v", 24000], "trial": 6, "serialpos": 9, "trial_type": "single-stim", "trial_index": 222, "time_elapsed": 1007718, "internal_node_id": "0.0-159.0"}}, {"uniqueid": "MTK0787:3RU7GD8VPP075U98ZLXEL2RW5PBSPY", "current_trial": 223, "dateTime": 1512753746364, "trialdata": {"rt": -1, "stimulus": "<p id=\"stim\">KNIFE</p>", "key_press": -1, "type": "PRES_VIS", "word": "knife", "wordID": 784, "conditions": [24, 1600, "v", 24000], "trial": 6, "serialpos": 10, "trial_type": "single-stim", "trial_index": 223, "time_elapsed": 1010504, "internal_node_id": "0.0-160.0"}}, {"uniqueid": "MTK0787:3RU7GD8VPP075U98ZLXEL2RW5PBSPY", "current_trial": 224, "dateTime": 1512753748936, "trialdata": {"rt": -1, "stimulus": "<p id=\"stim\">BLADE</p>", "key_press": -1, "type": "PRES_VIS", "word": "blade", "wordID": 133, "conditions": [24, 1600, "v", 24000], "trial": 6, "serialpos": 11, "trial_type": "single-stim", "trial_index": 224, "time_elapsed": 1013076, "internal_node_id": "0.0-161.0"}}, {"uniqueid": "MTK0787:3RU7GD8VPP075U98ZLXEL2RW5PBSPY", "current_trial": 225, "dateTime": 1512753751483, "trialdata": {"rt": -1, "stimulus": "<p id=\"stim\">SPONGE</p>", "key_press": -1, "type": "PRES_VIS", "word": "sponge", "wordID": 1354, "conditions": [24, 1600, "v", 24000], "trial": 6, "serialpos": 12, "trial_type": "single-stim", "trial_index": 225, "time_elapsed": 1015623, "internal_node_id": "0.0-162.0"}}, {"uniqueid": "MTK0787:3RU7GD8VPP075U98ZLXEL2RW5PBSPY", "current_trial": 226, "dateTime": 1512753754019, "trialdata": {"rt": -1, "stimulus": "<p id=\"stim\">PICNIC</p>", "key_press": -1, "type": "PRES_VIS", "word": "picnic", "wordID": 1059, "conditions": [24, 1600, "v", 24000], "trial": 6, "serialpos": 13, "trial_type": "single-stim", "trial_index": 226, "time_elapsed": 1018160, "internal_node_id": "0.0-163.0"}}, {"uniqueid": "MTK0787:3RU7GD8VPP075U98ZLXEL2RW5PBSPY", "current_trial": 227, "dateTime": 1512753756732, "trialdata": {"rt": -1, "stimulus": "<p id=\"stim\">BEAST</p>", "key_press": -1, "type": "PRES_VIS", "word": "beast", "wordID": 107, "conditions": [24, 1600, "v", 24000], "trial": 6, "serialpos": 14, "trial_type": "single-stim", "trial_index": 227, "time_elapsed": 1020872, "internal_node_id": "0.0-164.0"}}, {"uniqueid": "MTK0787:3RU7GD8VPP075U98ZLXEL2RW5PBSPY", "current_trial": 228, "dateTime": 1512753759213, "trialdata": {"rt": -1, "stimulus": "<p id=\"stim\">PLUTO</p>", "key_press": -1, "type": "PRES_VIS", "word": "pluto", "wordID": 1091, "conditions": [24, 1600, "v", 24000], "trial": 6, "serialpos": 15, "trial_type": "single-stim", "trial_index": 228, "time_elapsed": 1023353, "internal_node_id": "0.0-165.0"}}, {"uniqueid": "MTK0787:3RU7GD8VPP075U98ZLXEL2RW5PBSPY", "current_trial": 229, "dateTime": 1512753761796, "trialdata": {"rt": -1, "stimulus": "<p id=\"stim\">RABBIT</p>", "key_press": -1, "type": "PRES_VIS", "word": "rabbit", "wordID": 1151, "conditions": [24, 1600, "v", 24000], "trial": 6, "serialpos": 16, "trial_type": "single-stim", "trial_index": 229, "time_elapsed": 1025936, "internal_node_id": "0.0-166.0"}}, {"uniqueid": "MTK0787:3RU7GD8VPP075U98ZLXEL2RW5PBSPY", "current_trial": 230, "dateTime": 1512753764236, "trialdata": {"rt": -1, "stimulus": "<p id=\"stim\">GRAPE</p>", "key_press": -1, "type": "PRES_VIS", "word": "grape", "wordID": 653, "conditions": [24, 1600, "v", 24000], "trial": 6, "serialpos": 17, "trial_type": "single-stim", "trial_index": 230, "time_elapsed": 1028377, "internal_node_id": "0.0-167.0"}}, {"uniqueid": "MTK0787:3RU7GD8VPP075U98ZLXEL2RW5PBSPY", "current_trial": 231, "dateTime": 1512753766850, "trialdata": {"rt": -1, "stimulus": "<p id=\"stim\">BARLEY</p>", "key_press": -1, "type": "PRES_VIS", "word": "barley", "wordID": 87, "conditions": [24, 1600, "v", 24000], "trial": 6, "serialpos": 18, "trial_type": "single-stim", "trial_index": 231, "time_elapsed": 1030990, "internal_node_id": "0.0-168.0"}}, {"uniqueid": "MTK0787:3RU7GD8VPP075U98ZLXEL2RW5PBSPY", "current_trial": 232, "dateTime": 1512753769481, "trialdata": {"rt": -1, "stimulus": "<p id=\"stim\">SPIDER</p>", "key_press": -1, "type": "PRES_VIS", "word": "spider", "wordID": 1350, "conditions": [24, 1600, "v", 24000], "trial": 6, "serialpos": 19, "trial_type": "single-stim", "trial_index": 232, "time_elapsed": 1033621, "internal_node_id": "0.0-169.0"}}, {"uniqueid": "MTK0787:3RU7GD8VPP075U98ZLXEL2RW5PBSPY", "current_trial": 233, "dateTime": 1512753771944, "trialdata": {"rt": -1, "stimulus": "<p id=\"stim\">ROBOT</p>", "key_press": -1, "type": "PRES_VIS", "word": "robot", "wordID": 1199, "conditions": [24, 1600, "v", 24000], "trial": 6, "serialpos": 20, "trial_type": "single-stim", "trial_index": 233, "time_elapsed": 1036084, "internal_node_id": "0.0-170.0"}}, {"uniqueid": "MTK0787:3RU7GD8VPP075U98ZLXEL2RW5PBSPY", "current_trial": 234, "dateTime": 1512753774494, "trialdata": {"rt": -1, "stimulus": "<p id=\"stim\">FLAG</p>", "key_press": -1, "type": "PRES_VIS", "word": "flag", "wordID": 572, "conditions": [24, 1600, "v", 24000], "trial": 6, "serialpos": 21, "trial_type": "single-stim", "trial_index": 234, "time_elapsed": 1038634, "internal_node_id": "0.0-171.0"}}, {"uniqueid": "MTK0787:3RU7GD8VPP075U98ZLXEL2RW5PBSPY", "current_trial": 235, "dateTime": 1512753777073, "trialdata": {"rt": -1, "stimulus": "<p id=\"stim\">INMATE</p>", "key_press": -1, "type": "PRES_VIS", "word": "inmate", "wordID": 737, "conditions": [24, 1600, "v", 24000], "trial": 6, "serialpos": 22, "trial_type": "single-stim", "trial_index": 235, "time_elapsed": 1041213, "internal_node_id": "0.0-172.0"}}, {"uniqueid": "MTK0787:3RU7GD8VPP075U98ZLXEL2RW5PBSPY", "current_trial": 236, "dateTime": 1512753779493, "trialdata": {"rt": -1, "stimulus": "<p id=\"stim\">WAITRESS</p>", "key_press": -1, "type": "PRES_VIS", "word": "waitress", "wordID": 1580, "conditions": [24, 1600, "v", 24000], "trial": 6, "serialpos": 23, "trial_type": "single-stim", "trial_index": 236, "time_elapsed": 1043633, "internal_node_id": "0.0-173.0"}}, {"uniqueid": "MTK0787:3RU7GD8VPP075U98ZLXEL2RW5PBSPY", "current_trial": 237, "dateTime": 1512753781911, "trialdata": {"rt": -1, "stimulus": "", "key_press": -1, "type": "PRE_RECALL_DELAY", "trial_type": "single-stim", "trial_index": 237, "time_elapsed": 1046050, "internal_node_id": "0.0-174.0-0.0"}}, {"uniqueid": "MTK0787:3RU7GD8VPP075U98ZLXEL2RW5PBSPY", "current_trial": 238, "dateTime": 1512753782415, "trialdata": {"rt": -1000, "stimulus": "/static/audio/400Hz.wav", "key_press": -1, "type": "PRE_RECALL_ALERT", "trial_type": "single-audio", "trial_index": 238, "time_elapsed": 1046556, "internal_node_id": "0.0-175.0"}}, {"uniqueid": "MTK0787:3RU7GD8VPP075U98ZLXEL2RW5PBSPY", "current_trial": 239, "dateTime": 1512753842447, "trialdata": {"rt": [3190, 3922, 4862, 9947, 11662, 14025, 19288, 20754, 21791, 27469, 28422, 29852, 30856, 37533, 38772, 39826, 45855, 46975, 47763, 56443, 57168, 57958], "recwords": ["fruit", "honey", "sunset", "mummy", "eyelash", "cocktail", "candy", "scarecrow", "picture", "snack", "knife", "blade", "barley", "sponge", "picnic", "beast", "pluto", "rabbit", "grape", "spider", "robot", "flag"], "type": "FREE_RECALL", "conditions": [24, 1600, "v", 24000], "trial": 6, "trial_type": "free-recall", "trial_index": 239, "time_elapsed": 1106564, "internal_node_id": "0.0-176.0-0.0"}}, {"uniqueid": "MTK0787:3RU7GD8VPP075U98ZLXEL2RW5PBSPY", "current_trial": 240, "dateTime": 1512753845895, "trialdata": {"rt": 1445, "key_press": 13, "type": "INSTRUCTIONS", "trial_type": "text", "trial_index": 240, "time_elapsed": 1110036, "internal_node_id": "0.0-177.0"}}, {"uniqueid": "MTK0787:3RU7GD8VPP075U98ZLXEL2RW5PBSPY", "current_trial": 241, "dateTime": 1512753859905, "trialdata": {"rt": [2039, 3692, 5436, 8438, 10723], "responses": ["12", "9", "8", "16", "19"], "num1": [2, 4, 1, 9, 7, 9], "num2": [8, 3, 1, 6, 6, 2], "num3": [2, 2, 6, 1, 6, 3], "type": "DISTRACTOR", "conditions": [24, 1600, "v", 12000], "trial": 7, "trial_type": "math-distractor", "trial_index": 241, "time_elapsed": 1124046, "internal_node_id": "0.0-178.0"}}, {"uniqueid": "MTK0787:3RU7GD8VPP075U98ZLXEL2RW5PBSPY", "current_trial": 242, "dateTime": 1512753862909, "trialdata": {"rt": -1, "stimulus": "<p id=\"stim\">10</p>", "key_press": -1, "trial_type": "single-stim", "trial_index": 242, "time_elapsed": 1127049, "internal_node_id": "0.0-179.0-0.0"}}, {"uniqueid": "MTK0787:3RU7GD8VPP075U98ZLXEL2RW5PBSPY", "current_trial": 243, "dateTime": 1512753863911, "trialdata": {"rt": -1, "stimulus": "<p id=\"stim\">9</p>", "key_press": -1, "trial_type": "single-stim", "trial_index": 243, "time_elapsed": 1128052, "internal_node_id": "0.0-179.0-1.0"}}, {"uniqueid": "MTK0787:3RU7GD8VPP075U98ZLXEL2RW5PBSPY", "current_trial": 244, "dateTime": 1512753864915, "trialdata": {"rt": -1, "stimulus": "<p id=\"stim\">8</p>", "key_press": -1, "trial_type": "single-stim", "trial_index": 244, "time_elapsed": 1129055, "internal_node_id": "0.0-179.0-2.0"}}, {"uniqueid": "MTK0787:3RU7GD8VPP075U98ZLXEL2RW5PBSPY", "current_trial": 245, "dateTime": 1512753865918, "trialdata": {"rt": -1, "stimulus": "<p id=\"stim\">7</p>", "key_press": -1, "trial_type": "single-stim", "trial_index": 245, "time_elapsed": 1130059, "internal_node_id": "0.0-179.0-3.0"}}, {"uniqueid": "MTK0787:3RU7GD8VPP075U98ZLXEL2RW5PBSPY", "current_trial": 246, "dateTime": 1512753866923, "trialdata": {"rt": -1, "stimulus": "<p id=\"stim\">6</p>", "key_press": -1, "trial_type": "single-stim", "trial_index": 246, "time_elapsed": 1131064, "internal_node_id": "0.0-179.0-4.0"}}, {"uniqueid": "MTK0787:3RU7GD8VPP075U98ZLXEL2RW5PBSPY", "current_trial": 247, "dateTime": 1512753867926, "trialdata": {"rt": -1, "stimulus": "<p id=\"stim\">5</p>", "key_press": -1, "trial_type": "single-stim", "trial_index": 247, "time_elapsed": 1132066, "internal_node_id": "0.0-179.0-5.0"}}, {"uniqueid": "MTK0787:3RU7GD8VPP075U98ZLXEL2RW5PBSPY", "current_trial": 248, "dateTime": 1512753868930, "trialdata": {"rt": -1, "stimulus": "<p id=\"stim\">4</p>", "key_press": -1, "trial_type": "single-stim", "trial_index": 248, "time_elapsed": 1133071, "internal_node_id": "0.0-179.0-6.0"}}, {"uniqueid": "MTK0787:3RU7GD8VPP075U98ZLXEL2RW5PBSPY", "current_trial": 249, "dateTime": 1512753869934, "trialdata": {"rt": -1, "stimulus": "<p id=\"stim\">3</p>", "key_press": -1, "trial_type": "single-stim", "trial_index": 249, "time_elapsed": 1134074, "internal_node_id": "0.0-179.0-7.0"}}, {"uniqueid": "MTK0787:3RU7GD8VPP075U98ZLXEL2RW5PBSPY", "current_trial": 250, "dateTime": 1512753870938, "trialdata": {"rt": -1, "stimulus": "<p id=\"stim\">2</p>", "key_press": -1, "trial_type": "single-stim", "trial_index": 250, "time_elapsed": 1135078, "internal_node_id": "0.0-179.0-8.0"}}, {"uniqueid": "MTK0787:3RU7GD8VPP075U98ZLXEL2RW5PBSPY", "current_trial": 251, "dateTime": 1512753871943, "trialdata": {"rt": -1, "stimulus": "<p id=\"stim\">1</p>", "key_press": -1, "trial_type": "single-stim", "trial_index": 251, "time_elapsed": 1136083, "internal_node_id": "0.0-179.0-9.0"}}, {"uniqueid": "MTK0787:3RU7GD8VPP075U98ZLXEL2RW5PBSPY", "current_trial": 252, "dateTime": 1512753873447, "trialdata": {"rt": -1, "stimulus": "<p id=\"stim\">+</p>", "key_press": -1, "type": "FIXATION", "trial_type": "single-stim", "trial_index": 252, "time_elapsed": 1137586, "internal_node_id": "0.0-180.0-0.0"}}, {"uniqueid": "MTK0787:3RU7GD8VPP075U98ZLXEL2RW5PBSPY", "current_trial": 253, "dateTime": 1512753875050, "trialdata": {"rt": -1, "stimulus": "<p id=\"stim\">PASSAGE</p>", "key_press": -1, "type": "PRES_VIS", "word": "passage", "wordID": 1018, "conditions": [24, 1600, "v", 12000], "trial": 7, "serialpos": 0, "trial_type": "single-stim", "trial_index": 253, "time_elapsed": 1139190, "internal_node_id": "0.0-181.0"}}, {"uniqueid": "MTK0787:3RU7GD8VPP075U98ZLXEL2RW5PBSPY", "current_trial": 254, "dateTime": 1512753877492, "trialdata": {"rt": -1, "stimulus": "<p id=\"stim\">BANKER</p>", "key_press": -1, "type": "PRES_VIS", "word": "banker", "wordID": 83, "conditions": [24, 1600, "v", 12000], "trial": 7, "serialpos": 1, "trial_type": "single-stim", "trial_index": 254, "time_elapsed": 1141632, "internal_node_id": "0.0-182.0"}}, {"uniqueid": "MTK0787:3RU7GD8VPP075U98ZLXEL2RW5PBSPY", "current_trial": 255, "dateTime": 1512753880086, "trialdata": {"rt": -1, "stimulus": "<p id=\"stim\">KITCHEN</p>", "key_press": -1, "type": "PRES_VIS", "word": "kitchen", "wordID": 777, "conditions": [24, 1600, "v", 12000], "trial": 7, "serialpos": 2, "trial_type": "single-stim", "trial_index": 255, "time_elapsed": 1144226, "internal_node_id": "0.0-183.0"}}, {"uniqueid": "MTK0787:3RU7GD8VPP075U98ZLXEL2RW5PBSPY", "current_trial": 256, "dateTime": 1512753882596, "trialdata": {"rt": -1, "stimulus": "<p id=\"stim\">CUPBOARD</p>", "key_press": -1, "type": "PRES_VIS", "word": "cupboard", "wordID": 424, "conditions": [24, 1600, "v", 12000], "trial": 7, "serialpos": 3, "trial_type": "single-stim", "trial_index": 256, "time_elapsed": 1146737, "internal_node_id": "0.0-184.0"}}, {"uniqueid": "MTK0787:3RU7GD8VPP075U98ZLXEL2RW5PBSPY", "current_trial": 257, "dateTime": 1512753885312, "trialdata": {"rt": -1, "stimulus": "<p id=\"stim\">OUTLAW</p>", "key_press": -1, "type": "PRES_VIS", "word": "outlaw", "wordID": 988, "conditions": [24, 1600, "v", 12000], "trial": 7, "serialpos": 4, "trial_type": "single-stim", "trial_index": 257, "time_elapsed": 1149452, "internal_node_id": "0.0-185.0"}}, {"uniqueid": "MTK0787:3RU7GD8VPP075U98ZLXEL2RW5PBSPY", "current_trial": 258, "dateTime": 1512753887971, "trialdata": {"rt": -1, "stimulus": "<p id=\"stim\">KIDNEY</p>", "key_press": -1, "type": "PRES_VIS", "word": "kidney", "wordID": 775, "conditions": [24, 1600, "v", 12000], "trial": 7, "serialpos": 5, "trial_type": "single-stim", "trial_index": 258, "time_elapsed": 1152111, "internal_node_id": "0.0-186.0"}}, {"uniqueid": "MTK0787:3RU7GD8VPP075U98ZLXEL2RW5PBSPY", "current_trial": 259, "dateTime": 1512753890588, "trialdata": {"rt": -1, "stimulus": "<p id=\"stim\">CRITIC</p>", "key_press": -1, "type": "PRES_VIS", "word": "critic", "wordID": 409, "conditions": [24, 1600, "v", 12000], "trial": 7, "serialpos": 6, "trial_type": "single-stim", "trial_index": 259, "time_elapsed": 1154729, "internal_node_id": "0.0-187.0"}}, {"uniqueid": "MTK0787:3RU7GD8VPP075U98ZLXEL2RW5PBSPY", "current_trial": 260, "dateTime": 1512753893178, "trialdata": {"rt": -1, "stimulus": "<p id=\"stim\">SUPPER</p>", "key_press": -1, "type": "PRES_VIS", "word": "supper", "wordID": 1410, "conditions": [24, 1600, "v", 12000], "trial": 7, "serialpos": 7, "trial_type": "single-stim", "trial_index": 260, "time_elapsed": 1157318, "internal_node_id": "0.0-188.0"}}, {"uniqueid": "MTK0787:3RU7GD8VPP075U98ZLXEL2RW5PBSPY", "current_trial": 261, "dateTime": 1512753895612, "trialdata": {"rt": -1, "stimulus": "<p id=\"stim\">BANK</p>", "key_press": -1, "type": "PRES_VIS", "word": "bank", "wordID": 82, "conditions": [24, 1600, "v", 12000], "trial": 7, "serialpos": 8, "trial_type": "single-stim", "trial_index": 261, "time_elapsed": 1159753, "internal_node_id": "0.0-189.0"}}, {"uniqueid": "MTK0787:3RU7GD8VPP075U98ZLXEL2RW5PBSPY", "current_trial": 262, "dateTime": 1512753898394, "trialdata": {"rt": -1, "stimulus": "<p id=\"stim\">MARKER</p>", "key_press": -1, "type": "PRES_VIS", "word": "marker", "wordID": 869, "conditions": [24, 1600, "v", 12000], "trial": 7, "serialpos": 9, "trial_type": "single-stim", "trial_index": 262, "time_elapsed": 1162531, "internal_node_id": "0.0-190.0"}}, {"uniqueid": "MTK0787:3RU7GD8VPP075U98ZLXEL2RW5PBSPY", "current_trial": 263, "dateTime": 1512753901004, "trialdata": {"rt": -1, "stimulus": "<p id=\"stim\">CROSS</p>", "key_press": -1, "type": "PRES_VIS", "word": "cross", "wordID": 412, "conditions": [24, 1600, "v", 12000], "trial": 7, "serialpos": 10, "trial_type": "single-stim", "trial_index": 263, "time_elapsed": 1165144, "internal_node_id": "0.0-191.0"}}, {"uniqueid": "MTK0787:3RU7GD8VPP075U98ZLXEL2RW5PBSPY", "current_trial": 264, "dateTime": 1512753903673, "trialdata": {"rt": -1, "stimulus": "<p id=\"stim\">ROBIN</p>", "key_press": -1, "type": "PRES_VIS", "word": "robin", "wordID": 1198, "conditions": [24, 1600, "v", 12000], "trial": 7, "serialpos": 11, "trial_type": "single-stim", "trial_index": 264, "time_elapsed": 1167814, "internal_node_id": "0.0-192.0"}}, {"uniqueid": "MTK0787:3RU7GD8VPP075U98ZLXEL2RW5PBSPY", "current_trial": 265, "dateTime": 1512753906465, "trialdata": {"rt": -1, "stimulus": "<p id=\"stim\">SANDWICH</p>", "key_press": -1, "type": "PRES_VIS", "word": "sandwich", "wordID": 1231, "conditions": [24, 1600, "v", 12000], "trial": 7, "serialpos": 12, "trial_type": "single-stim", "trial_index": 265, "time_elapsed": 1170606, "internal_node_id": "0.0-193.0"}}, {"uniqueid": "MTK0787:3RU7GD8VPP075U98ZLXEL2RW5PBSPY", "current_trial": 266, "dateTime": 1512753909146, "trialdata": {"rt": -1, "stimulus": "<p id=\"stim\">FRAME</p>", "key_press": -1, "type": "PRES_VIS", "word": "frame", "wordID": 599, "conditions": [24, 1600, "v", 12000], "trial": 7, "serialpos": 13, "trial_type": "single-stim", "trial_index": 266, "time_elapsed": 1173286, "internal_node_id": "0.0-194.0"}}, {"uniqueid": "MTK0787:3RU7GD8VPP075U98ZLXEL2RW5PBSPY", "current_trial": 267, "dateTime": 1512753911719, "trialdata": {"rt": -1, "stimulus": "<p id=\"stim\">FLUTE</p>", "key_press": -1, "type": "PRES_VIS", "word": "flute", "wordID": 584, "conditions": [24, 1600, "v", 12000], "trial": 7, "serialpos": 14, "trial_type": "single-stim", "trial_index": 267, "time_elapsed": 1175859, "internal_node_id": "0.0-195.0"}}, {"uniqueid": "MTK0787:3RU7GD8VPP075U98ZLXEL2RW5PBSPY", "current_trial": 268, "dateTime": 1512753914409, "trialdata": {"rt": -1, "stimulus": "<p id=\"stim\">MARSH</p>", "key_press": -1, "type": "PRES_VIS", "word": "marsh", "wordID": 873, "conditions": [24, 1600, "v", 12000], "trial": 7, "serialpos": 15, "trial_type": "single-stim", "trial_index": 268, "time_elapsed": 1178549, "internal_node_id": "0.0-196.0"}}, {"uniqueid": "MTK0787:3RU7GD8VPP075U98ZLXEL2RW5PBSPY", "current_trial": 269, "dateTime": 1512753916966, "trialdata": {"rt": -1, "stimulus": "<p id=\"stim\">STONE</p>", "key_press": -1, "type": "PRES_VIS", "word": "stone", "wordID": 13