{"condition": 0, "counterbalance": 71, "assignmentId": "3LEIZ60CDK6JEJFFDOVPV5OKLL29Z2", "workerId": "MTK0549", "hitId": "31YWE12TE0JO8LTD774IV4LJ4RL7XZ", "currenttrial": 626, "bonus": 0, "data": [{"uniqueid": "MTK0549:3LEIZ60CDK6JEJFFDOVPV5OKLL29Z2", "current_trial": 0, "dateTime": 1511209455934, "trialdata": {"rt": 2139, "key_press": 71, "type": "INSTRUCTIONS", "trial_type": "text", "trial_index": 0, "time_elapsed": 2141, "internal_node_id": "0.0-0.0"}}, {"uniqueid": "MTK0549:3LEIZ60CDK6JEJFFDOVPV5OKLL29Z2", "current_trial": 1, "dateTime": 1511209473353, "trialdata": {"rt": 17416, "key_press": 70, "type": "INSTRUCTIONS", "trial_type": "text", "trial_index": 1, "time_elapsed": 19560, "internal_node_id": "0.0-1.0"}}, {"uniqueid": "MTK0549:3LEIZ60CDK6JEJFFDOVPV5OKLL29Z2", "current_trial": 2, "dateTime": 1511209525054, "trialdata": {"rt": [51697], "responses": ["ocean"], "type": "AUDIO_TEST", "trial_type": "audio-test", "trial_index": 2, "time_elapsed": 71261, "internal_node_id": "0.0-2.0"}}, {"uniqueid": "MTK0549:3LEIZ60CDK6JEJFFDOVPV5OKLL29Z2", "current_trial": 3, "dateTime": 1511209529206, "trialdata": {"rt": [4149], "responses": ["crystal"], "type": "AUDIO_TEST", "trial_type": "audio-test", "trial_index": 3, "time_elapsed": 75413, "internal_node_id": "0.0-3.0"}}, {"uniqueid": "MTK0549:3LEIZ60CDK6JEJFFDOVPV5OKLL29Z2", "current_trial": 4, "dateTime": 1511209533062, "trialdata": {"rt": [3854], "responses": ["spice"], "type": "AUDIO_TEST", "trial_type": "audio-test", "trial_index": 4, "time_elapsed": 79269, "internal_node_id": "0.0-4.0"}}, {"uniqueid": "MTK0549:3LEIZ60CDK6JEJFFDOVPV5OKLL29Z2", "current_trial": 5, "dateTime": 1511209562540, "trialdata": {"rt": 28726, "responses": "{\"Q0\":\"12:30 AM\",\"Q1\":\"12:13 PM\",\"Q2\":\"5\"}", "type": "SLEEP_SURVEY", "trial_type": "survey-text", "trial_index": 5, "time_elapsed": 108747, "internal_node_id": "0.0-5.0"}}, {"uniqueid": "MTK0549:3LEIZ60CDK6JEJFFDOVPV5OKLL29Z2", "current_trial": 6, "dateTime": 1511209736542, "trialdata": {"rt": 172999, "key_press": 13, "type": "INSTRUCTIONS", "trial_type": "text", "trial_index": 6, "time_elapsed": 282749, "internal_node_id": "0.0-6.0"}}, {"uniqueid": "MTK0549:3LEIZ60CDK6JEJFFDOVPV5OKLL29Z2", "current_trial": 7, "dateTime": 1511209796510, "trialdata": {"rt": 59467, "key_press": 13, "type": "INSTRUCTIONS", "trial_type": "text", "trial_index": 7, "time_elapsed": 342716, "internal_node_id": "0.0-7.0"}}, {"uniqueid": "MTK0549:3LEIZ60CDK6JEJFFDOVPV5OKLL29Z2", "current_trial": 8, "dateTime": 1511209806838, "trialdata": {"rt": 9828, "key_press": 13, "type": "INSTRUCTIONS", "trial_type": "text", "trial_index": 8, "time_elapsed": 353045, "internal_node_id": "0.0-8.0"}}, {"uniqueid": "MTK0549:3LEIZ60CDK6JEJFFDOVPV5OKLL29Z2", "current_trial": 9, "dateTime": 1511209825841, "trialdata": {"rt": [3374, 12413, 15341], "responses": ["17", "18", "20"], "num1": [9, 9, 7, 5], "num2": [1, 7, 7, 3], "num3": [7, 2, 6, 9], "type": "DISTRACTOR", "conditions": [18, 1200, "a", 18000], "trial": 0, "trial_type": "math-distractor", "trial_index": 9, "time_elapsed": 372048, "internal_node_id": "0.0-9.0"}}, {"uniqueid": "MTK0549:3LEIZ60CDK6JEJFFDOVPV5OKLL29Z2", "current_trial": 10, "dateTime": 1511209828844, "trialdata": {"rt": -1, "stimulus": "<p id=\"stim\">10</p>", "key_press": -1, "trial_type": "single-stim", "trial_index": 10, "time_elapsed": 375051, "internal_node_id": "0.0-10.0-0.0"}}, {"uniqueid": "MTK0549:3LEIZ60CDK6JEJFFDOVPV5OKLL29Z2", "current_trial": 11, "dateTime": 1511209829845, "trialdata": {"rt": -1, "stimulus": "<p id=\"stim\">9</p>", "key_press": -1, "trial_type": "single-stim", "trial_index": 11, "time_elapsed": 376052, "internal_node_id": "0.0-10.0-1.0"}}, {"uniqueid": "MTK0549:3LEIZ60CDK6JEJFFDOVPV5OKLL29Z2", "current_trial": 12, "dateTime": 1511209830845, "trialdata": {"rt": -1, "stimulus": "<p id=\"stim\">8</p>", "key_press": -1, "trial_type": "single-stim", "trial_index": 12, "time_elapsed": 377052, "internal_node_id": "0.0-10.0-2.0"}}, {"uniqueid": "MTK0549:3LEIZ60CDK6JEJFFDOVPV5OKLL29Z2", "current_trial": 13, "dateTime": 1511209831847, "trialdata": {"rt": -1, "stimulus": "<p id=\"stim\">7</p>", "key_press": -1, "trial_type": "single-stim", "trial_index": 13, "time_elapsed": 378054, "internal_node_id": "0.0-10.0-3.0"}}, {"uniqueid": "MTK0549:3LEIZ60CDK6JEJFFDOVPV5OKLL29Z2", "current_trial": 14, "dateTime": 1511209832848, "trialdata": {"rt": -1, "stimulus": "<p id=\"stim\">6</p>", "key_press": -1, "trial_type": "single-stim", "trial_index": 14, "time_elapsed": 379055, "internal_node_id": "0.0-10.0-4.0"}}, {"uniqueid": "MTK0549:3LEIZ60CDK6JEJFFDOVPV5OKLL29Z2", "current_trial": 15, "dateTime": 1511209833850, "trialdata": {"rt": -1, "stimulus": "<p id=\"stim\">5</p>", "key_press": -1, "trial_type": "single-stim", "trial_index": 15, "time_elapsed": 380057, "internal_node_id": "0.0-10.0-5.0"}}, {"uniqueid": "MTK0549:3LEIZ60CDK6JEJFFDOVPV5OKLL29Z2", "current_trial": 16, "dateTime": 1511209834851, "trialdata": {"rt": -1, "stimulus": "<p id=\"stim\">4</p>", "key_press": -1, "trial_type": "single-stim", "trial_index": 16, "time_elapsed": 381058, "internal_node_id": "0.0-10.0-6.0"}}, {"uniqueid": "MTK0549:3LEIZ60CDK6JEJFFDOVPV5OKLL29Z2", "current_trial": 17, "dateTime": 1511209835852, "trialdata": {"rt": -1, "stimulus": "<p id=\"stim\">3</p>", "key_press": -1, "trial_type": "single-stim", "trial_index": 17, "time_elapsed": 382059, "internal_node_id": "0.0-10.0-7.0"}}, {"uniqueid": "MTK0549:3LEIZ60CDK6JEJFFDOVPV5OKLL29Z2", "current_trial": 18, "dateTime": 1511209836854, "trialdata": {"rt": -1, "stimulus": "<p id=\"stim\">2</p>", "key_press": -1, "trial_type": "single-stim", "trial_index": 18, "time_elapsed": 383061, "internal_node_id": "0.0-10.0-8.0"}}, {"uniqueid": "MTK0549:3LEIZ60CDK6JEJFFDOVPV5OKLL29Z2", "current_trial": 19, "dateTime": 1511209837856, "trialdata": {"rt": -1, "stimulus": "<p id=\"stim\">1</p>", "key_press": -1, "trial_type": "single-stim", "trial_index": 19, "time_elapsed": 384063, "internal_node_id": "0.0-10.0-9.0"}}, {"uniqueid": "MTK0549:3LEIZ60CDK6JEJFFDOVPV5OKLL29Z2", "current_trial": 20, "dateTime": 1511209839357, "trialdata": {"rt": -1, "stimulus": "<p id=\"stim\">+</p>", "key_press": -1, "type": "FIXATION", "trial_type": "single-stim", "trial_index": 20, "time_elapsed": 385564, "internal_node_id": "0.0-11.0-0.0"}}, {"uniqueid": "MTK0549:3LEIZ60CDK6JEJFFDOVPV5OKLL29Z2", "current_trial": 21, "dateTime": 1511209841729, "trialdata": {"rt": -1000, "stimulus": "/static/audio/wordpool/CROSS.wav", "key_press": -1, "type": "PRES_AUD", "word": "cross", "wordID": 412, "conditions": [18, 1200, "a", 18000], "trial": 0, "serialpos": 0, "trial_type": "single-audio", "trial_index": 21, "time_elapsed": 387935, "internal_node_id": "0.0-12.0"}}, {"uniqueid": "MTK0549:3LEIZ60CDK6JEJFFDOVPV5OKLL29Z2", "current_trial": 22, "dateTime": 1511209843810, "trialdata": {"rt": -1000, "stimulus": "/static/audio/wordpool/TURNIP.wav", "key_press": -1, "type": "PRES_AUD", "word": "turnip", "wordID": 1520, "conditions": [18, 1200, "a", 18000], "trial": 0, "serialpos": 1, "trial_type": "single-audio", "trial_index": 22, "time_elapsed": 390017, "internal_node_id": "0.0-13.0"}}, {"uniqueid": "MTK0549:3LEIZ60CDK6JEJFFDOVPV5OKLL29Z2", "current_trial": 23, "dateTime": 1511209846154, "trialdata": {"rt": -1000, "stimulus": "/static/audio/wordpool/COUNTRY.wav", "key_press": -1, "type": "PRES_AUD", "word": "country", "wordID": 387, "conditions": [18, 1200, "a", 18000], "trial": 0, "serialpos": 2, "trial_type": "single-audio", "trial_index": 23, "time_elapsed": 392361, "internal_node_id": "0.0-14.0"}}, {"uniqueid": "MTK0549:3LEIZ60CDK6JEJFFDOVPV5OKLL29Z2", "current_trial": 24, "dateTime": 1511209848317, "trialdata": {"rt": -1000, "stimulus": "/static/audio/wordpool/SHERIFF.wav", "key_press": -1, "type": "PRES_AUD", "word": "sheriff", "wordID": 1283, "conditions": [18, 1200, "a", 18000], "trial": 0, "serialpos": 3, "trial_type": "single-audio", "trial_index": 24, "time_elapsed": 394524, "internal_node_id": "0.0-15.0"}}, {"uniqueid": "MTK0549:3LEIZ60CDK6JEJFFDOVPV5OKLL29Z2", "current_trial": 25, "dateTime": 1511209850381, "trialdata": {"rt": -1000, "stimulus": "/static/audio/wordpool/LACE.wav", "key_press": -1, "type": "PRES_AUD", "word": "lace", "wordID": 791, "conditions": [18, 1200, "a", 18000], "trial": 0, "serialpos": 4, "trial_type": "single-audio", "trial_index": 25, "time_elapsed": 396588, "internal_node_id": "0.0-16.0"}}, {"uniqueid": "MTK0549:3LEIZ60CDK6JEJFFDOVPV5OKLL29Z2", "current_trial": 26, "dateTime": 1511209852437, "trialdata": {"rt": -1000, "stimulus": "/static/audio/wordpool/SLIDE.wav", "key_press": -1, "type": "PRES_AUD", "word": "slide", "wordID": 1325, "conditions": [18, 1200, "a", 18000], "trial": 0, "serialpos": 5, "trial_type": "single-audio", "trial_index": 26, "time_elapsed": 398643, "internal_node_id": "0.0-17.0"}}, {"uniqueid": "MTK0549:3LEIZ60CDK6JEJFFDOVPV5OKLL29Z2", "current_trial": 27, "dateTime": 1511209854521, "trialdata": {"rt": -1000, "stimulus": "/static/audio/wordpool/SCULPTURE.wav", "key_press": -1, "type": "PRES_AUD", "word": "sculpture", "wordID": 1257, "conditions": [18, 1200, "a", 18000], "trial": 0, "serialpos": 6, "trial_type": "single-audio", "trial_index": 27, "time_elapsed": 400728, "internal_node_id": "0.0-18.0"}}, {"uniqueid": "MTK0549:3LEIZ60CDK6JEJFFDOVPV5OKLL29Z2", "current_trial": 28, "dateTime": 1511209856917, "trialdata": {"rt": -1000, "stimulus": "/static/audio/wordpool/MATCH.wav", "key_press": -1, "type": "PRES_AUD", "word": "match", "wordID": 877, "conditions": [18, 1200, "a", 18000], "trial": 0, "serialpos": 7, "trial_type": "single-audio", "trial_index": 28, "time_elapsed": 403124, "internal_node_id": "0.0-19.0"}}, {"uniqueid": "MTK0549:3LEIZ60CDK6JEJFFDOVPV5OKLL29Z2", "current_trial": 29, "dateTime": 1511209859270, "trialdata": {"rt": -1000, "stimulus": "/static/audio/wordpool/EYELASH.wav", "key_press": -1, "type": "PRES_AUD", "word": "eyelash", "wordID": 545, "conditions": [18, 1200, "a", 18000], "trial": 0, "serialpos": 8, "trial_type": "single-audio", "trial_index": 29, "time_elapsed": 405477, "internal_node_id": "0.0-20.0"}}, {"uniqueid": "MTK0549:3LEIZ60CDK6JEJFFDOVPV5OKLL29Z2", "current_trial": 30, "dateTime": 1511209861406, "trialdata": {"rt": -1000, "stimulus": "/static/audio/wordpool/PANTHER.wav", "key_press": -1, "type": "PRES_AUD", "word": "panther", "wordID": 1008, "conditions": [18, 1200, "a", 18000], "trial": 0, "serialpos": 9, "trial_type": "single-audio", "trial_index": 30, "time_elapsed": 407613, "internal_node_id": "0.0-21.0"}}, {"uniqueid": "MTK0549:3LEIZ60CDK6JEJFFDOVPV5OKLL29Z2", "current_trial": 31, "dateTime": 1511209863427, "trialdata": {"rt": -1000, "stimulus": "/static/audio/wordpool/MILDEW.wav", "key_press": -1, "type": "PRES_AUD", "word": "mildew", "wordID": 892, "conditions": [18, 1200, "a", 18000], "trial": 0, "serialpos": 10, "trial_type": "single-audio", "trial_index": 31, "time_elapsed": 409634, "internal_node_id": "0.0-22.0"}}, {"uniqueid": "MTK0549:3LEIZ60CDK6JEJFFDOVPV5OKLL29Z2", "current_trial": 32, "dateTime": 1511209865715, "trialdata": {"rt": -1000, "stimulus": "/static/audio/wordpool/SPOON.wav", "key_press": -1, "type": "PRES_AUD", "word": "spoon", "wordID": 1356, "conditions": [18, 1200, "a", 18000], "trial": 0, "serialpos": 11, "trial_type": "single-audio", "trial_index": 32, "time_elapsed": 411922, "internal_node_id": "0.0-23.0"}}, {"uniqueid": "MTK0549:3LEIZ60CDK6JEJFFDOVPV5OKLL29Z2", "current_trial": 33, "dateTime": 1511209868016, "trialdata": {"rt": -1000, "stimulus": "/static/audio/wordpool/NIGHTGOWN.wav", "key_press": -1, "type": "PRES_AUD", "word": "nightgown", "wordID": 952, "conditions": [18, 1200, "a", 18000], "trial": 0, "serialpos": 12, "trial_type": "single-audio", "trial_index": 33, "time_elapsed": 414223, "internal_node_id": "0.0-24.0"}}, {"uniqueid": "MTK0549:3LEIZ60CDK6JEJFFDOVPV5OKLL29Z2", "current_trial": 34, "dateTime": 1511209870209, "trialdata": {"rt": -1000, "stimulus": "/static/audio/wordpool/PAPER.wav", "key_press": -1, "type": "PRES_AUD", "word": "paper", "wordID": 1010, "conditions": [18, 1200, "a", 18000], "trial": 0, "serialpos": 13, "trial_type": "single-audio", "trial_index": 34, "time_elapsed": 416416, "internal_node_id": "0.0-25.0"}}, {"uniqueid": "MTK0549:3LEIZ60CDK6JEJFFDOVPV5OKLL29Z2", "current_trial": 35, "dateTime": 1511209872271, "trialdata": {"rt": -1000, "stimulus": "/static/audio/wordpool/TUNNEL.wav", "key_press": -1, "type": "PRES_AUD", "word": "tunnel", "wordID": 1518, "conditions": [18, 1200, "a", 18000], "trial": 0, "serialpos": 14, "trial_type": "single-audio", "trial_index": 35, "time_elapsed": 418478, "internal_node_id": "0.0-26.0"}}, {"uniqueid": "MTK0549:3LEIZ60CDK6JEJFFDOVPV5OKLL29Z2", "current_trial": 36, "dateTime": 1511209874517, "trialdata": {"rt": -1000, "stimulus": "/static/audio/wordpool/BELLY.wav", "key_press": -1, "type": "PRES_AUD", "word": "belly", "wordID": 118, "conditions": [18, 1200, "a", 18000], "trial": 0, "serialpos": 15, "trial_type": "single-audio", "trial_index": 36, "time_elapsed": 420724, "internal_node_id": "0.0-27.0"}}, {"uniqueid": "MTK0549:3LEIZ60CDK6JEJFFDOVPV5OKLL29Z2", "current_trial": 37, "dateTime": 1511209876759, "trialdata": {"rt": -1000, "stimulus": "/static/audio/wordpool/SALT.wav", "key_press": -1, "type": "PRES_AUD", "word": "salt", "wordID": 1228, "conditions": [18, 1200, "a", 18000], "trial": 0, "serialpos": 16, "trial_type": "single-audio", "trial_index": 37, "time_elapsed": 422966, "internal_node_id": "0.0-28.0"}}, {"uniqueid": "MTK0549:3LEIZ60CDK6JEJFFDOVPV5OKLL29Z2", "current_trial": 38, "dateTime": 1511209878916, "trialdata": {"rt": -1000, "stimulus": "/static/audio/wordpool/MOTEL.wav", "key_press": -1, "type": "PRES_AUD", "word": "motel", "wordID": 918, "conditions": [18, 1200, "a", 18000], "trial": 0, "serialpos": 17, "trial_type": "single-audio", "trial_index": 38, "time_elapsed": 425123, "internal_node_id": "0.0-29.0"}}, {"uniqueid": "MTK0549:3LEIZ60CDK6JEJFFDOVPV5OKLL29Z2", "current_trial": 39, "dateTime": 1511209880139, "trialdata": {"rt": -1, "stimulus": "", "key_press": -1, "type": "PRE_RECALL_DELAY", "trial_type": "single-stim", "trial_index": 39, "time_elapsed": 426346, "internal_node_id": "0.0-30.0-0.0"}}, {"uniqueid": "MTK0549:3LEIZ60CDK6JEJFFDOVPV5OKLL29Z2", "current_trial": 40, "dateTime": 1511209880640, "trialdata": {"rt": -1000, "stimulus": "/static/audio/400Hz.wav", "key_press": -1, "type": "PRE_RECALL_ALERT", "trial_type": "single-audio", "trial_index": 40, "time_elapsed": 426847, "internal_node_id": "0.0-31.0"}}, {"uniqueid": "MTK0549:3LEIZ60CDK6JEJFFDOVPV5OKLL29Z2", "current_trial": 41, "dateTime": 1511209940643, "trialdata": {"rt": [3172, 5077, 6165, 7077, 9693, 13276, 16277, 40805, 41461, 45932, 54222], "recwords": ["cross", "turnip", "sheriff", "culture", "sculpture", "country", "match", "", "", "soda", "crystal"], "type": "FREE_RECALL", "conditions": [18, 1200, "a", 18000], "trial": 0, "trial_type": "free-recall", "trial_index": 41, "time_elapsed": 486849, "internal_node_id": "0.0-32.0-0.0"}}, {"uniqueid": "MTK0549:3LEIZ60CDK6JEJFFDOVPV5OKLL29Z2", "current_trial": 42, "dateTime": 1511209946710, "trialdata": {"rt": 4065, "key_press": 70, "type": "INSTRUCTIONS", "trial_type": "text", "trial_index": 42, "time_elapsed": 492917, "internal_node_id": "0.0-33.0"}}, {"uniqueid": "MTK0549:3LEIZ60CDK6JEJFFDOVPV5OKLL29Z2", "current_trial": 43, "dateTime": 1511209966712, "trialdata": {"rt": [3038, 8479, 11190, 13790, 15942], "responses": ["12", "25", "16", "10", "13"], "num1": [3, 9, 5, 3, 4, 8], "num2": [6, 9, 7, 1, 1, 9], "num3": [3, 7, 4, 6, 8, 3], "type": "DISTRACTOR", "conditions": [18, 1200, "v", 18000], "trial": 1, "trial_type": "math-distractor", "trial_index": 43, "time_elapsed": 512919, "internal_node_id": "0.0-34.0"}}, {"uniqueid": "MTK0549:3LEIZ60CDK6JEJFFDOVPV5OKLL29Z2", "current_trial": 44, "dateTime": 1511209969714, "trialdata": {"rt": -1, "stimulus": "<p id=\"stim\">10</p>", "key_press": -1, "trial_type": "single-stim", "trial_index": 44, "time_elapsed": 515921, "internal_node_id": "0.0-35.0-0.0"}}, {"uniqueid": "MTK0549:3LEIZ60CDK6JEJFFDOVPV5OKLL29Z2", "current_trial": 45, "dateTime": 1511209970715, "trialdata": {"rt": -1, "stimulus": "<p id=\"stim\">9</p>", "key_press": -1, "trial_type": "single-stim", "trial_index": 45, "time_elapsed": 516922, "internal_node_id": "0.0-35.0-1.0"}}, {"uniqueid": "MTK0549:3LEIZ60CDK6JEJFFDOVPV5OKLL29Z2", "current_trial": 46, "dateTime": 1511209971718, "trialdata": {"rt": -1, "stimulus": "<p id=\"stim\">8</p>", "key_press": -1, "trial_type": "single-stim", "trial_index": 46, "time_elapsed": 517925, "internal_node_id": "0.0-35.0-2.0"}}, {"uniqueid": "MTK0549:3LEIZ60CDK6JEJFFDOVPV5OKLL29Z2", "current_trial": 47, "dateTime": 1511209972720, "trialdata": {"rt": -1, "stimulus": "<p id=\"stim\">7</p>", "key_press": -1, "trial_type": "single-stim", "trial_index": 47, "time_elapsed": 518927, "internal_node_id": "0.0-35.0-3.0"}}, {"uniqueid": "MTK0549:3LEIZ60CDK6JEJFFDOVPV5OKLL29Z2", "current_trial": 48, "dateTime": 1511209973721, "trialdata": {"rt": -1, "stimulus": "<p id=\"stim\">6</p>", "key_press": -1, "trial_type": "single-stim", "trial_index": 48, "time_elapsed": 519928, "internal_node_id": "0.0-35.0-4.0"}}, {"uniqueid": "MTK0549:3LEIZ60CDK6JEJFFDOVPV5OKLL29Z2", "current_trial": 49, "dateTime": 1511209974722, "trialdata": {"rt": -1, "stimulus": "<p id=\"stim\">5</p>", "key_press": -1, "trial_type": "single-stim", "trial_index": 49, "time_elapsed": 520929, "internal_node_id": "0.0-35.0-5.0"}}, {"uniqueid": "MTK0549:3LEIZ60CDK6JEJFFDOVPV5OKLL29Z2", "current_trial": 50, "dateTime": 1511209975724, "trialdata": {"rt": -1, "stimulus": "<p id=\"stim\">4</p>", "key_press": -1, "trial_type": "single-stim", "trial_index": 50, "time_elapsed": 521931, "internal_node_id": "0.0-35.0-6.0"}}, {"uniqueid": "MTK0549:3LEIZ60CDK6JEJFFDOVPV5OKLL29Z2", "current_trial": 51, "dateTime": 1511209976725, "trialdata": {"rt": -1, "stimulus": "<p id=\"stim\">3</p>", "key_press": -1, "trial_type": "single-stim", "trial_index": 51, "time_elapsed": 522932, "internal_node_id": "0.0-35.0-7.0"}}, {"uniqueid": "MTK0549:3LEIZ60CDK6JEJFFDOVPV5OKLL29Z2", "current_trial": 52, "dateTime": 1511209977727, "trialdata": {"rt": -1, "stimulus": "<p id=\"stim\">2</p>", "key_press": -1, "trial_type": "single-stim", "trial_index": 52, "time_elapsed": 523934, "internal_node_id": "0.0-35.0-8.0"}}, {"uniqueid": "MTK0549:3LEIZ60CDK6JEJFFDOVPV5OKLL29Z2", "current_trial": 53, "dateTime": 1511209978728, "trialdata": {"rt": -1, "stimulus": "<p id=\"stim\">1</p>", "key_press": -1, "trial_type": "single-stim", "trial_index": 53, "time_elapsed": 524935, "internal_node_id": "0.0-35.0-9.0"}}, {"uniqueid": "MTK0549:3LEIZ60CDK6JEJFFDOVPV5OKLL29Z2", "current_trial": 54, "dateTime": 1511209980229, "trialdata": {"rt": -1, "stimulus": "<p id=\"stim\">+</p>", "key_press": -1, "type": "FIXATION", "trial_type": "single-stim", "trial_index": 54, "time_elapsed": 526436, "internal_node_id": "0.0-36.0-0.0"}}, {"uniqueid": "MTK0549:3LEIZ60CDK6JEJFFDOVPV5OKLL29Z2", "current_trial": 55, "dateTime": 1511209981431, "trialdata": {"rt": -1, "stimulus": "<p id=\"stim\">CARROT</p>", "key_press": -1, "type": "PRES_VIS", "word": "carrot", "wordID": 248, "conditions": [18, 1200, "v", 18000], "trial": 1, "serialpos": 0, "trial_type": "single-stim", "trial_index": 55, "time_elapsed": 527638, "internal_node_id": "0.0-37.0"}}, {"uniqueid": "MTK0549:3LEIZ60CDK6JEJFFDOVPV5OKLL29Z2", "current_trial": 56, "dateTime": 1511209983577, "trialdata": {"rt": -1, "stimulus": "<p id=\"stim\">MILK</p>", "key_press": -1, "type": "PRES_VIS", "word": "milk", "wordID": 894, "conditions": [18, 1200, "v", 18000], "trial": 1, "serialpos": 1, "trial_type": "single-stim", "trial_index": 56, "time_elapsed": 529784, "internal_node_id": "0.0-38.0"}}, {"uniqueid": "MTK0549:3LEIZ60CDK6JEJFFDOVPV5OKLL29Z2", "current_trial": 57, "dateTime": 1511209985780, "trialdata": {"rt": -1, "stimulus": "<p id=\"stim\">SWIMMER</p>", "key_press": -1, "type": "PRES_VIS", "word": "swimmer", "wordID": 1419, "conditions": [18, 1200, "v", 18000], "trial": 1, "serialpos": 2, "trial_type": "single-stim", "trial_index": 57, "time_elapsed": 531987, "internal_node_id": "0.0-39.0"}}, {"uniqueid": "MTK0549:3LEIZ60CDK6JEJFFDOVPV5OKLL29Z2", "current_trial": 58, "dateTime": 1511209988069, "trialdata": {"rt": -1, "stimulus": "<p id=\"stim\">ICEBERG</p>", "key_press": -1, "type": "PRES_VIS", "word": "iceberg", "wordID": 730, "conditions": [18, 1200, "v", 18000], "trial": 1, "serialpos": 3, "trial_type": "single-stim", "trial_index": 58, "time_elapsed": 534276, "internal_node_id": "0.0-40.0"}}, {"uniqueid": "MTK0549:3LEIZ60CDK6JEJFFDOVPV5OKLL29Z2", "current_trial": 59, "dateTime": 1511209990429, "trialdata": {"rt": -1, "stimulus": "<p id=\"stim\">NOMAD</p>", "key_press": -1, "type": "PRES_VIS", "word": "nomad", "wordID": 954, "conditions": [18, 1200, "v", 18000], "trial": 1, "serialpos": 4, "trial_type": "single-stim", "trial_index": 59, "time_elapsed": 536636, "internal_node_id": "0.0-41.0"}}, {"uniqueid": "MTK0549:3LEIZ60CDK6JEJFFDOVPV5OKLL29Z2", "current_trial": 60, "dateTime": 1511209992599, "trialdata": {"rt": -1, "stimulus": "<p id=\"stim\">STICKER</p>", "key_press": -1, "type": "PRES_VIS", "word": "sticker", "wordID": 1381, "conditions": [18, 1200, "v", 18000], "trial": 1, "serialpos": 5, "trial_type": "single-stim", "trial_index": 60, "time_elapsed": 538806, "internal_node_id": "0.0-42.0"}}, {"uniqueid": "MTK0549:3LEIZ60CDK6JEJFFDOVPV5OKLL29Z2", "current_trial": 61, "dateTime": 1511209994724, "trialdata": {"rt": -1, "stimulus": "<p id=\"stim\">BALLOON</p>", "key_press": -1, "type": "PRES_VIS", "word": "balloon", "wordID": 74, "conditions": [18, 1200, "v", 18000], "trial": 1, "serialpos": 6, "trial_type": "single-stim", "trial_index": 61, "time_elapsed": 540931, "internal_node_id": "0.0-43.0"}}, {"uniqueid": "MTK0549:3LEIZ60CDK6JEJFFDOVPV5OKLL29Z2", "current_trial": 62, "dateTime": 1511209996831, "trialdata": {"rt": -1, "stimulus": "<p id=\"stim\">STALLION</p>", "key_press": -1, "type": "PRES_VIS", "word": "stallion", "wordID": 1368, "conditions": [18, 1200, "v", 18000], "trial": 1, "serialpos": 7, "trial_type": "single-stim", "trial_index": 62, "time_elapsed": 543038, "internal_node_id": "0.0-44.0"}}, {"uniqueid": "MTK0549:3LEIZ60CDK6JEJFFDOVPV5OKLL29Z2", "current_trial": 63, "dateTime": 1511209999085, "trialdata": {"rt": -1, "stimulus": "<p id=\"stim\">JUDGE</p>", "key_press": -1, "type": "PRES_VIS", "word": "judge", "wordID": 760, "conditions": [18, 1200, "v", 18000], "trial": 1, "serialpos": 8, "trial_type": "single-stim", "trial_index": 63, "time_elapsed": 545292, "internal_node_id": "0.0-45.0"}}, {"uniqueid": "MTK0549:3LEIZ60CDK6JEJFFDOVPV5OKLL29Z2", "current_trial": 64, "dateTime": 1511210001456, "trialdata": {"rt": -1, "stimulus": "<p id=\"stim\">STATUE</p>", "key_press": -1, "type": "PRES_VIS", "word": "statue", "wordID": 1373, "conditions": [18, 1200, "v", 18000], "trial": 1, "serialpos": 9, "trial_type": "single-stim", "trial_index": 64, "time_elapsed": 547663, "internal_node_id": "0.0-46.0"}}, {"uniqueid": "MTK0549:3LEIZ60CDK6JEJFFDOVPV5OKLL29Z2", "current_trial": 65, "dateTime": 1511210003473, "trialdata": {"rt": -1, "stimulus": "<p id=\"stim\">TOMBSTONE</p>", "key_press": -1, "type": "PRES_VIS", "word": "tombstone", "wordID": 1477, "conditions": [18, 1200, "v", 18000], "trial": 1, "serialpos": 10, "trial_type": "single-stim", "trial_index": 65, "time_elapsed": 549680, "internal_node_id": "0.0-47.0"}}, {"uniqueid": "MTK0549:3LEIZ60CDK6JEJFFDOVPV5OKLL29Z2", "current_trial": 66, "dateTime": 1511210005810, "trialdata": {"rt": -1, "stimulus": "<p id=\"stim\">PALACE</p>", "key_press": -1, "type": "PRES_VIS", "word": "palace", "wordID": 1005, "conditions": [18, 1200, "v", 18000], "trial": 1, "serialpos": 11, "trial_type": "single-stim", "trial_index": 66, "time_elapsed": 552017, "internal_node_id": "0.0-48.0"}}, {"uniqueid": "MTK0549:3LEIZ60CDK6JEJFFDOVPV5OKLL29Z2", "current_trial": 67, "dateTime": 1511210008200, "trialdata": {"rt": -1, "stimulus": "<p id=\"stim\">MOTOR</p>", "key_press": -1, "type": "PRES_VIS", "word": "motor", "wordID": 921, "conditions": [18, 1200, "v", 18000], "trial": 1, "serialpos": 12, "trial_type": "single-stim", "trial_index": 67, "time_elapsed": 554407, "internal_node_id": "0.0-49.0"}}, {"uniqueid": "MTK0549:3LEIZ60CDK6JEJFFDOVPV5OKLL29Z2", "current_trial": 68, "dateTime": 1511210010242, "trialdata": {"rt": -1, "stimulus": "<p id=\"stim\">LEG</p>", "key_press": -1, "type": "PRES_VIS", "word": "leg", "wordID": 808, "conditions": [18, 1200, "v", 18000], "trial": 1, "serialpos": 13, "trial_type": "single-stim", "trial_index": 68, "time_elapsed": 556448, "internal_node_id": "0.0-50.0"}}, {"uniqueid": "MTK0549:3LEIZ60CDK6JEJFFDOVPV5OKLL29Z2", "current_trial": 69, "dateTime": 1511210012356, "trialdata": {"rt": -1, "stimulus": "<p id=\"stim\">PISTOL</p>", "key_press": -1, "type": "PRES_VIS", "word": "pistol", "wordID": 1074, "conditions": [18, 1200, "v", 18000], "trial": 1, "serialpos": 14, "trial_type": "single-stim", "trial_index": 69, "time_elapsed": 558563, "internal_node_id": "0.0-51.0"}}, {"uniqueid": "MTK0549:3LEIZ60CDK6JEJFFDOVPV5OKLL29Z2", "current_trial": 70, "dateTime": 1511210014446, "trialdata": {"rt": -1, "stimulus": "<p id=\"stim\">CHEMIST</p>", "key_press": -1, "type": "PRES_VIS", "word": "chemist", "wordID": 291, "conditions": [18, 1200, "v", 18000], "trial": 1, "serialpos": 15, "trial_type": "single-stim", "trial_index": 70, "time_elapsed": 560653, "internal_node_id": "0.0-52.0"}}, {"uniqueid": "MTK0549:3LEIZ60CDK6JEJFFDOVPV5OKLL29Z2", "current_trial": 71, "dateTime": 1511210016607, "trialdata": {"rt": -1, "stimulus": "<p id=\"stim\">DANCER</p>", "key_press": -1, "type": "PRES_VIS", "word": "dancer", "wordID": 436, "conditions": [18, 1200, "v", 18000], "trial": 1, "serialpos": 16, "trial_type": "single-stim", "trial_index": 71, "time_elapsed": 562814, "internal_node_id": "0.0-53.0"}}, {"uniqueid": "MTK0549:3LEIZ60CDK6JEJFFDOVPV5OKLL29Z2", "current_trial": 72, "dateTime": 1511210018665, "trialdata": {"rt": -1, "stimulus": "<p id=\"stim\">WIDOW</p>", "key_press": -1, "type": "PRES_VIS", "word": "widow", "wordID": 1607, "conditions": [18, 1200, "v", 18000], "trial": 1, "serialpos": 17, "trial_type": "single-stim", "trial_index": 72, "time_elapsed": 564872, "internal_node_id": "0.0-54.0"}}, {"uniqueid": "MTK0549:3LEIZ60CDK6JEJFFDOVPV5OKLL29Z2", "current_trial": 73, "dateTime": 1511210020826, "trialdata": {"rt": -1, "stimulus": "", "key_press": -1, "type": "PRE_RECALL_DELAY", "trial_type": "single-stim", "trial_index": 73, "time_elapsed": 567033, "internal_node_id": "0.0-55.0-0.0"}}, {"uniqueid": "MTK0549:3LEIZ60CDK6JEJFFDOVPV5OKLL29Z2", "current_trial": 74, "dateTime": 1511210021328, "trialdata": {"rt": -1000, "stimulus": "/static/audio/400Hz.wav", "key_press": -1, "type": "PRE_RECALL_ALERT", "trial_type": "single-audio", "trial_index": 74, "time_elapsed": 567535, "internal_node_id": "0.0-56.0"}}, {"uniqueid": "MTK0549:3LEIZ60CDK6JEJFFDOVPV5OKLL29Z2", "current_trial": 75, "dateTime": 1511210081331, "trialdata": {"rt": [2166, 2990, 4982, 7814, 25846], "recwords": ["widow", "nomad", "iceberg", "stallion", "sticker"], "type": "FREE_RECALL", "conditions": [18, 1200, "v", 18000], "trial": 1, "trial_type": "free-recall", "trial_index": 75, "time_elapsed": 627537, "internal_node_id": "0.0-57.0-0.0"}}, {"uniqueid": "MTK0549:3LEIZ60CDK6JEJFFDOVPV5OKLL29Z2", "current_trial": 76, "dateTime": 1511210087568, "trialdata": {"rt": 4234, "key_press": 70, "type": "INSTRUCTIONS", "trial_type": "text", "trial_index": 76, "time_elapsed": 633773, "internal_node_id": "0.0-58.0"}}, {"uniqueid": "MTK0549:3LEIZ60CDK6JEJFFDOVPV5OKLL29Z2", "current_trial": 77, "dateTime": 1511210100570, "trialdata": {"rt": [3798, 9781], "responses": ["12", "16"], "num1": [9, 6, 7], "num2": [2, 1, 1], "num3": [1, 9, 7], "type": "DISTRACTOR", "conditions": [24, 1600, "a", 12000], "trial": 2, "trial_type": "math-distractor", "trial_index": 77, "time_elapsed": 646777, "internal_node_id": "0.0-59.0"}}, {"uniqueid": "MTK0549:3LEIZ60CDK6JEJFFDOVPV5OKLL29Z2", "current_trial": 78, "dateTime": 1511210103572, "trialdata": {"rt": -1, "stimulus": "<p id=\"stim\">10</p>", "key_press": -1, "trial_type": "single-stim", "trial_index": 78, "time_elapsed": 649779, "internal_node_id": "0.0-60.0-0.0"}}, {"uniqueid": "MTK0549:3LEIZ60CDK6JEJFFDOVPV5OKLL29Z2", "current_trial": 79, "dateTime": 1511210104572, "trialdata": {"rt": -1, "stimulus": "<p id=\"stim\">9</p>", "key_press": -1, "trial_type": "single-stim", "trial_index": 79, "time_elapsed": 650779, "internal_node_id": "0.0-60.0-1.0"}}, {"uniqueid": "MTK0549:3LEIZ60CDK6JEJFFDOVPV5OKLL29Z2", "current_trial": 80, "dateTime": 1511210105574, "trialdata": {"rt": -1, "stimulus": "<p id=\"stim\">8</p>", "key_press": -1, "trial_type": "single-stim", "trial_index": 80, "time_elapsed": 651781, "internal_node_id": "0.0-60.0-2.0"}}, {"uniqueid": "MTK0549:3LEIZ60CDK6JEJFFDOVPV5OKLL29Z2", "current_trial": 81, "dateTime": 1511210106575, "trialdata": {"rt": -1, "stimulus": "<p id=\"stim\">7</p>", "key_press": -1, "trial_type": "single-stim", "trial_index": 81, "time_elapsed": 652782, "internal_node_id": "0.0-60.0-3.0"}}, {"uniqueid": "MTK0549:3LEIZ60CDK6JEJFFDOVPV5OKLL29Z2", "current_trial": 82, "dateTime": 1511210107576, "trialdata": {"rt": -1, "stimulus": "<p id=\"stim\">6</p>", "key_press": -1, "trial_type": "single-stim", "trial_index": 82, "time_elapsed": 653783, "internal_node_id": "0.0-60.0-4.0"}}, {"uniqueid": "MTK0549:3LEIZ60CDK6JEJFFDOVPV5OKLL29Z2", "current_trial": 83, "dateTime": 1511210108578, "trialdata": {"rt": -1, "stimulus": "<p id=\"stim\">5</p>", "key_press": -1, "trial_type": "single-stim", "trial_index": 83, "time_elapsed": 654785, "internal_node_id": "0.0-60.0-5.0"}}, {"uniqueid": "MTK0549:3LEIZ60CDK6JEJFFDOVPV5OKLL29Z2", "current_trial": 84, "dateTime": 1511210109580, "trialdata": {"rt": -1, "stimulus": "<p id=\"stim\">4</p>", "key_press": -1, "trial_type": "single-stim", "trial_index": 84, "time_elapsed": 655787, "internal_node_id": "0.0-60.0-6.0"}}, {"uniqueid": "MTK0549:3LEIZ60CDK6JEJFFDOVPV5OKLL29Z2", "current_trial": 85, "dateTime": 1511210110582, "trialdata": {"rt": -1, "stimulus": "<p id=\"stim\">3</p>", "key_press": -1, "trial_type": "single-stim", "trial_index": 85, "time_elapsed": 656789, "internal_node_id": "0.0-60.0-7.0"}}, {"uniqueid": "MTK0549:3LEIZ60CDK6JEJFFDOVPV5OKLL29Z2", "current_trial": 86, "dateTime": 1511210111583, "trialdata": {"rt": -1, "stimulus": "<p id=\"stim\">2</p>", "key_press": -1, "trial_type": "single-stim", "trial_index": 86, "time_elapsed": 657790, "internal_node_id": "0.0-60.0-8.0"}}, {"uniqueid": "MTK0549:3LEIZ60CDK6JEJFFDOVPV5OKLL29Z2", "current_trial": 87, "dateTime": 1511210112584, "trialdata": {"rt": -1, "stimulus": "<p id=\"stim\">1</p>", "key_press": -1, "trial_type": "single-stim", "trial_index": 87, "time_elapsed": 658791, "internal_node_id": "0.0-60.0-9.0"}}, {"uniqueid": "MTK0549:3LEIZ60CDK6JEJFFDOVPV5OKLL29Z2", "current_trial": 88, "dateTime": 1511210114086, "trialdata": {"rt": -1, "stimulus": "<p id=\"stim\">+</p>", "key_press": -1, "type": "FIXATION", "trial_type": "single-stim", "trial_index": 88, "time_elapsed": 660293, "internal_node_id": "0.0-61.0-0.0"}}, {"uniqueid": "MTK0549:3LEIZ60CDK6JEJFFDOVPV5OKLL29Z2", "current_trial": 89, "dateTime": 1511210116690, "trialdata": {"rt": -1000, "stimulus": "/static/audio/wordpool/OZONE.wav", "key_press": -1, "type": "PRES_AUD", "word": "ozone", "wordID": 995, "conditions": [24, 1600, "a", 12000], "trial": 2, "serialpos": 0, "trial_type": "single-audio", "trial_index": 89, "time_elapsed": 662897, "internal_node_id": "0.0-62.0"}}, {"uniqueid": "MTK0549:3LEIZ60CDK6JEJFFDOVPV5OKLL29Z2", "current_trial": 90, "dateTime": 1511210119316, "trialdata": {"rt": -1000, "stimulus": "/static/audio/wordpool/CASHIER.wav", "key_press": -1, "type": "PRES_AUD", "word": "cashier", "wordID": 253, "conditions": [24, 1600, "a", 12000], "trial": 2, "serialpos": 1, "trial_type": "single-audio", "trial_index": 90, "time_elapsed": 665522, "internal_node_id": "0.0-63.0"}}, {"uniqueid": "MTK0549:3LEIZ60CDK6JEJFFDOVPV5OKLL29Z2", "current_trial": 91, "dateTime": 1511210121861, "trialdata": {"rt": -1000, "stimulus": "/static/audio/wordpool/SIDEWALK.wav", "key_press": -1, "type": "PRES_AUD", "word": "sidewalk", "wordID": 1302, "conditions": [24, 1600, "a", 12000], "trial": 2, "serialpos": 2, "trial_type": "single-audio", "trial_index": 91, "time_elapsed": 668068, "internal_node_id": "0.0-64.0"}}, {"uniqueid": "MTK0549:3LEIZ60CDK6JEJFFDOVPV5OKLL29Z2", "current_trial": 92, "dateTime": 1511210124581, "trialdata": {"rt": -1000, "stimulus": "/static/audio/wordpool/PLAZA.wav", "key_press": -1, "type": "PRES_AUD", "word": "plaza", "wordID": 1087, "conditions": [24, 1600, "a", 12000], "trial": 2, "serialpos": 3, "trial_type": "single-audio", "trial_index": 92, "time_elapsed": 670788, "internal_node_id": "0.0-65.0"}}, {"uniqueid": "MTK0549:3LEIZ60CDK6JEJFFDOVPV5OKLL29Z2", "current_trial": 93, "dateTime": 1511210127120, "trialdata": {"rt": -1000, "stimulus": "/static/audio/wordpool/BREAST.wav", "key_press": -1, "type": "PRES_AUD", "word": "breast", "wordID": 170, "conditions": [24, 1600, "a", 12000], "trial": 2, "serialpos": 4, "trial_type": "single-audio", "trial_index": 93, "time_elapsed": 673327, "internal_node_id": "0.0-66.0"}}, {"uniqueid": "MTK0549:3LEIZ60CDK6JEJFFDOVPV5OKLL29Z2", "current_trial": 94, "dateTime": 1511210129741, "trialdata": {"rt": -1000, "stimulus": "/static/audio/wordpool/MARROW.wav", "key_press": -1, "type": "PRES_AUD", "word": "marrow", "wordID": 871, "conditions": [24, 1600, "a", 12000], "trial": 2, "serialpos": 5, "trial_type": "single-audio", "trial_index": 94, "time_elapsed": 675948, "internal_node_id": "0.0-67.0"}}, {"uniqueid": "MTK0549:3LEIZ60CDK6JEJFFDOVPV5OKLL29Z2", "current_trial": 95, "dateTime": 1511210132190, "trialdata": {"rt": -1000, "stimulus": "/static/audio/wordpool/OFFICE.wav", "key_press": -1, "type": "PRES_AUD", "word": "office", "wordID": 971, "conditions": [24, 1600, "a", 12000], "trial": 2, "serialpos": 6, "trial_type": "single-audio", "trial_index": 95, "time_elapsed": 678397, "internal_node_id": "0.0-68.0"}}, {"uniqueid": "MTK0549:3LEIZ60CDK6JEJFFDOVPV5OKLL29Z2", "current_trial": 96, "dateTime": 1511210134766, "trialdata": {"rt": -1000, "stimulus": "/static/audio/wordpool/PARROT.wav", "key_press": -1, "type": "PRES_AUD", "word": "parrot", "wordID": 1014, "conditions": [24, 1600, "a", 12000], "trial": 2, "serialpos": 7, "trial_type": "single-audio", "trial_index": 96, "time_elapsed": 680973, "internal_node_id": "0.0-69.0"}}, {"uniqueid": "MTK0549:3LEIZ60CDK6JEJFFDOVPV5OKLL29Z2", "current_trial": 97, "dateTime": 1511210137260, "trialdata": {"rt": -1000, "stimulus": "/static/audio/wordpool/UNCLE.wav", "key_press": -1, "type": "PRES_AUD", "word": "uncle", "wordID": 1535, "conditions": [24, 1600, "a", 12000], "trial": 2, "serialpos": 8, "trial_type": "single-audio", "trial_index": 97, "time_elapsed": 683467, "internal_node_id": "0.0-70.0"}}, {"uniqueid": "MTK0549:3LEIZ60CDK6JEJFFDOVPV5OKLL29Z2", "current_trial": 98, "dateTime": 1511210139761, "trialdata": {"rt": -1000, "stimulus": "/static/audio/wordpool/LILY.wav", "key_press": -1, "type": "PRES_AUD", "word": "lily", "wordID": 820, "conditions": [24, 1600, "a", 12000], "trial": 2, "serialpos": 9, "trial_type": "single-audio", "trial_index": 98, "time_elapsed": 685968, "internal_node_id": "0.0-71.0"}}, {"uniqueid": "MTK0549:3LEIZ60CDK6JEJFFDOVPV5OKLL29Z2", "current_trial": 99, "dateTime": 1511210142397, "trialdata": {"rt": -1000, "stimulus": "/static/audio/wordpool/XEROX.wav", "key_press": -1, "type": "PRES_AUD", "word": "xerox", "wordID": 1627, "conditions": [24, 1600, "a", 12000], "trial": 2, "serialpos": 10, "trial_type": "single-audio", "trial_index": 99, "time_elapsed": 688604, "internal_node_id": "0.0-72.0"}}, {"uniqueid": "MTK0549:3LEIZ60CDK6JEJFFDOVPV5OKLL29Z2", "current_trial": 100, "dateTime": 1511210144875, "trialdata": {"rt": -1000, "stimulus": "/static/audio/wordpool/FRIEND.wav", "key_press": -1, "type": "PRES_AUD", "word": "friend", "wordID": 605, "conditions": [24, 1600, "a", 12000], "trial": 2, "serialpos": 11, "trial_type": "single-audio", "trial_index": 100, "time_elapsed": 691082, "internal_node_id": "0.0-73.0"}}, {"uniqueid": "MTK0549:3LEIZ60CDK6JEJFFDOVPV5OKLL29Z2", "current_trial": 101, "dateTime": 1511210147599, "trialdata": {"rt": -1000, "stimulus": "/static/audio/wordpool/RABBIT.wav", "key_press": -1, "type": "PRES_AUD", "word": "rabbit", "wordID": 1151, "conditions": [24, 1600, "a", 12000], "trial": 2, "serialpos": 12, "trial_type": "single-audio", "trial_index": 101, "time_elapsed": 693806, "internal_node_id": "0.0-74.0"}}, {"uniqueid": "MTK0549:3LEIZ60CDK6JEJFFDOVPV5OKLL29Z2", "current_trial": 102, "dateTime": 1511210150359, "trialdata": {"rt": -1000, "stimulus": "/static/audio/wordpool/BIKE.wav", "key_press": -1, "type": "PRES_AUD", "word": "bike", "wordID": 124, "conditions": [24, 1600, "a", 12000], "trial": 2, "serialpos": 13, "trial_type": "single-audio", "trial_index": 102, "time_elapsed": 696566, "internal_node_id": "0.0-75.0"}}, {"uniqueid": "MTK0549:3LEIZ60CDK6JEJFFDOVPV5OKLL29Z2", "current_trial": 103, "dateTime": 1511210152875, "trialdata": {"rt": -1000, "stimulus": "/static/audio/wordpool/CELLAR.wav", "key_press": -1, "type": "PRES_AUD", "word": "cellar", "wordID": 266, "conditions": [24, 1600, "a", 12000], "trial": 2, "serialpos": 14, "trial_type": "single-audio", "trial_index": 103, "time_elapsed": 699082, "internal_node_id": "0.0-76.0"}}, {"uniqueid": "MTK0549:3LEIZ60CDK6JEJFFDOVPV5OKLL29Z2", "current_trial": 104, "dateTime": 1511210155409, "trialdata": {"rt": -1000, "stimulus": "/static/audio/wordpool/WAITRESS.wav", "key_press": -1, "type": "PRES_AUD", "word": "waitress", "wordID": 1580, "conditions": [24, 1600, "a", 12000], "trial": 2, "serialpos": 15, "trial_type": "single-audio", "trial_index": 104, "time_elapsed": 701616, "internal_node_id": "0.0-77.0"}}, {"uniqueid": "MTK0549:3LEIZ60CDK6JEJFFDOVPV5OKLL29Z2", "current_trial": 105, "dateTime": 1511210158071, "trialdata": {"rt": -1000, "stimulus": "/static/audio/wordpool/HOSTESS.wav", "key_press": -1, "type": "PRES_AUD", "word": "hostess", "wordID": 722, "conditions": [24, 1600, "a", 12000], "trial": 2, "serialpos": 16, "trial_type": "single-audio", "trial_index": 105, "time_elapsed": 704278, "internal_node_id": "0.0-78.0"}}, {"uniqueid": "MTK0549:3LEIZ60CDK6JEJFFDOVPV5OKLL29Z2", "current_trial": 106, "dateTime": 1511210160607, "trialdata": {"rt": -1000, "stimulus": "/static/audio/wordpool/STONE.wav", "key_press": -1, "type": "PRES_AUD", "word": "stone", "wordID": 1384, "conditions": [24, 1600, "a", 12000], "trial": 2, "serialpos": 17, "trial_type": "single-audio", "trial_index": 106, "time_elapsed": 706814, "internal_node_id": "0.0-79.0"}}, {"uniqueid": "MTK0549:3LEIZ60CDK6JEJFFDOVPV5OKLL29Z2", "current_trial": 107, "dateTime": 1511210163230, "trialdata": {"rt": -1000, "stimulus": "/static/audio/wordpool/TEACHER.wav", "key_press": -1, "type": "PRES_AUD", "word": "teacher", "wordID": 1439, "conditions": [24, 1600, "a", 12000], "trial": 2, "serialpos": 18, "trial_type": "single-audio", "trial_index": 107, "time_elapsed": 709437, "internal_node_id": "0.0-80.0"}}, {"uniqueid": "MTK0549:3LEIZ60CDK6JEJFFDOVPV5OKLL29Z2", "current_trial": 108, "dateTime": 1511210165774, "trialdata": {"rt": -1000, "stimulus": "/static/audio/wordpool/POWDER.wav", "key_press": -1, "type": "PRES_AUD", "word": "powder", "wordID": 1116, "conditions": [24, 1600, "a", 12000], "trial": 2, "serialpos": 19, "trial_type": "single-audio", "trial_index": 108, "time_elapsed": 711981, "internal_node_id": "0.0-81.0"}}, {"uniqueid": "MTK0549:3LEIZ60CDK6JEJFFDOVPV5OKLL29Z2", "current_trial": 109, "dateTime": 1511210168341, "trialdata": {"rt": -1000, "stimulus": "/static/audio/wordpool/SPONGE.wav", "key_press": -1, "type": "PRES_AUD", "word": "sponge", "wordID": 1354, "conditions": [24, 1600, "a", 12000], "trial": 2, "serialpos": 20, "trial_type": "single-audio", "trial_index": 109, "time_elapsed": 714548, "internal_node_id": "0.0-82.0"}}, {"uniqueid": "MTK0549:3LEIZ60CDK6JEJFFDOVPV5OKLL29Z2", "current_trial": 110, "dateTime": 1511210170828, "trialdata": {"rt": -1000, "stimulus": "/static/audio/wordpool/STUDENT.wav", "key_press": -1, "type": "PRES_AUD", "word": "student", "wordID": 1394, "conditions": [24, 1600, "a", 12000], "trial": 2, "serialpos": 21, "trial_type": "single-audio", "trial_index": 110, "time_elapsed": 717035, "internal_node_id": "0.0-83.0"}}, {"uniqueid": "MTK0549:3LEIZ60CDK6JEJFFDOVPV5OKLL29Z2", "current_trial": 111, "dateTime": 1511210173445, "trialdata": {"rt": -1000, "stimulus": "/static/audio/wordpool/SLUG.wav", "key_press": -1, "type": "PRES_AUD", "word": "slug", "wordID": 1328, "conditions": [24, 1600, "a", 12000], "trial": 2, "serialpos": 22, "trial_type": "single-audio", "trial_index": 111, "time_elapsed": 719652, "internal_node_id": "0.0-84.0"}}, {"uniqueid": "MTK0549:3LEIZ60CDK6JEJFFDOVPV5OKLL29Z2", "current_trial": 112, "dateTime": 1511210176184, "trialdata": {"rt": -1000, "stimulus": "/static/audio/wordpool/GHETTO.wav", "key_press": -1, "type": "PRES_AUD", "word": "ghetto", "wordID": 632, "conditions": [24, 1600, "a", 12000], "trial": 2, "serialpos": 23, "trial_type": "single-audio", "trial_index": 112, "time_elapsed": 722391, "internal_node_id": "0.0-85.0"}}, {"uniqueid": "MTK0549:3LEIZ60CDK6JEJFFDOVPV5OKLL29Z2", "current_trial": 113, "dateTime": 1511210177513, "trialdata": {"rt": -1, "stimulus": "", "key_press": -1, "type": "PRE_RECALL_DELAY", "trial_type": "single-stim", "trial_index": 113, "time_elapsed": 723720, "internal_node_id": "0.0-86.0-0.0"}}, {"uniqueid": "MTK0549:3LEIZ60CDK6JEJFFDOVPV5OKLL29Z2", "current_trial": 114, "dateTime": 1511210178016, "trialdata": {"rt": -1000, "stimulus": "/static/audio/400Hz.wav", "key_press": -1, "type": "PRE_RECALL_ALERT", "trial_type": "single-audio", "trial_index": 114, "time_elapsed": 724223, "internal_node_id": "0.0-87.0"}}, {"uniqueid": "MTK0549:3LEIZ60CDK6JEJFFDOVPV5OKLL29Z2", "current_trial": 115, "dateTime": 1511210238019, "trialdata": {"rt": [2885, 3533, 4366, 6142, 6798, 11141, 21501, 33389], "recwords": ["student", "slug", "ghetto", "marrow", "breast", "nomad", "ozone", "friend"], "type": "FREE_RECALL", "conditions": [24, 1600, "a", 12000], "trial": 2, "trial_type": "free-recall", "trial_index": 115, "time_elapsed": 784225, "internal_node_id": "0.0-88.0-0.0"}}, {"uniqueid": "MTK0549:3LEIZ60CDK6JEJFFDOVPV5OKLL29Z2", "current_trial": 116, "dateTime": 1511210243110, "trialdata": {"rt": 3090, "key_press": 75, "type": "INSTRUCTIONS", "trial_type": "text", "trial_index": 116, "time_elapsed": 789317, "internal_node_id": "0.0-89.0"}}, {"uniqueid": "MTK0549:3LEIZ60CDK6JEJFFDOVPV5OKLL29Z2", "current_trial": 117, "dateTime": 1511210269113, "trialdata": {"rt": [5311, 7247, 9287, 11063, 12903, 14840, 16727, 19431, 21119, 23199], "responses": ["26", "16", "10", "12", "11", "13", "9", "22", "12", "16"], "num1": [9, 4, 3, 2, 4, 9, 4, 8, 2, 7, 4], "num2": [8, 8, 2, 9, 5, 2, 1, 7, 3, 5, 9], "num3": [9, 4, 5, 1, 2, 2, 4, 7, 7, 4, 5], "type": "DISTRACTOR", "conditions": [12, 800, "v", 24000], "trial": 3, "trial_type": "math-distractor", "trial_index": 117, "time_elapsed": 815320, "internal_node_id": "0.0-90.0"}}, {"uniqueid": "MTK0549:3LEIZ60CDK6JEJFFDOVPV5OKLL29Z2", "current_trial": 118, "dateTime": 1511210272115, "trialdata": {"rt": -1, "stimulus": "<p id=\"stim\">10</p>", "key_press": -1, "trial_type": "single-stim", "trial_index": 118, "time_elapsed": 818322, "internal_node_id": "0.0-91.0-0.0"}}, {"uniqueid": "MTK0549:3LEIZ60CDK6JEJFFDOVPV5OKLL29Z2", "current_trial": 119, "dateTime": 1511210273117, "trialdata": {"rt": -1, "stimulus": "<p id=\"stim\">9</p>", "key_press": -1, "trial_type": "single-stim", "trial_index": 119, "time_elapsed": 819324, "internal_node_id": "0.0-91.0-1.0"}}, {"uniqueid": "MTK0549:3LEIZ60CDK6JEJFFDOVPV5OKLL29Z2", "current_trial": 120, "dateTime": 1511210274119, "trialdata": {"rt": -1, "stimulus": "<p id=\"stim\">8</p>", "key_press": -1, "trial_type": "single-stim", "trial_index": 120, "time_elapsed": 820326, "internal_node_id": "0.0-91.0-2.0"}}, {"uniqueid": "MTK0549:3LEIZ60CDK6JEJFFDOVPV5OKLL29Z2", "current_trial": 121, "dateTime": 1511210275120, "trialdata": {"rt": -1, "stimulus": "<p id=\"stim\">7</p>", "key_press": -1, "trial_type": "single-stim", "trial_index": 121, "time_elapsed": 821327, "internal_node_id": "0.0-91.0-3.0"}}, {"uniqueid": "MTK0549:3LEIZ60CDK6JEJFFDOVPV5OKLL29Z2", "current_trial": 122, "dateTime": 1511210276122, "trialdata": {"rt": -1, "stimulus": "<p id=\"stim\">6</p>", "key_press": -1, "trial_type": "single-stim", "trial_index": 122, "time_elapsed": 822329, "internal_node_id": "0.0-91.0-4.0"}}, {"uniqueid": "MTK0549:3LEIZ60CDK6JEJFFDOVPV5OKLL29Z2", "current_trial": 123, "dateTime": 1511210277123, "trialdata": {"rt": -1, "stimulus": "<p id=\"stim\">5</p>", "key_press": -1, "trial_type": "single-stim", "trial_index": 123, "time_elapsed": 823330, "internal_node_id": "0.0-91.0-5.0"}}, {"uniqueid": "MTK0549:3LEIZ60CDK6JEJFFDOVPV5OKLL29Z2", "current_trial": 124, "dateTime": 1511210278125, "trialdata": {"rt": -1, "stimulus": "<p id=\"stim\">4</p>", "key_press": -1, "trial_type": "single-stim", "trial_index": 124, "time_elapsed": 824332, "internal_node_id": "0.0-91.0-6.0"}}, {"uniqueid": "MTK0549:3LEIZ60CDK6JEJFFDOVPV5OKLL29Z2", "current_trial": 125, "dateTime": 1511210279127, "trialdata": {"rt": -1, "stimulus": "<p id=\"stim\">3</p>", "key_press": -1, "trial_type": "single-stim", "trial_index": 125, "time_elapsed": 825334, "internal_node_id": "0.0-91.0-7.0"}}, {"uniqueid": "MTK0549:3LEIZ60CDK6JEJFFDOVPV5OKLL29Z2", "current_trial": 126, "dateTime": 1511210280128, "trialdata": {"rt": -1, "stimulus": "<p id=\"stim\">2</p>", "key_press": -1, "trial_type": "single-stim", "trial_index": 126, "time_elapsed": 826335, "internal_node_id": "0.0-91.0-8.0"}}, {"uniqueid": "MTK0549:3LEIZ60CDK6JEJFFDOVPV5OKLL29Z2", "current_trial": 127, "dateTime": 1511210281130, "trialdata": {"rt": -1, "stimulus": "<p id=\"stim\">1</p>", "key_press": -1, "trial_type": "single-stim", "trial_index": 127, "time_elapsed": 827337, "internal_node_id": "0.0-91.0-9.0"}}, {"uniqueid": "MTK0549:3LEIZ60CDK6JEJFFDOVPV5OKLL29Z2", "current_trial": 128, "dateTime": 1511210282631, "trialdata": {"rt": -1, "stimulus": "<p id=\"stim\">+</p>", "key_press": -1, "type": "FIXATION", "trial_type": "single-stim", "trial_index": 128, "time_elapsed": 828838, "internal_node_id": "0.0-92.0-0.0"}}, {"uniqueid": "MTK0549:3LEIZ60CDK6JEJFFDOVPV5OKLL29Z2", "current_trial": 129, "dateTime": 1511210283433, "trialdata": {"rt": -1, "stimulus": "<p id=\"stim\">POISON</p>", "key_press": -1, "type": "PRES_VIS", "word": "poison", "wordID": 1095, "conditions": [12, 800, "v", 24000], "trial": 3, "serialpos": 0, "trial_type": "single-stim", "trial_index": 129, "time_elapsed": 829640, "internal_node_id": "0.0-93.0"}}, {"uniqueid": "MTK0549:3LEIZ60CDK6JEJFFDOVPV5OKLL29Z2", "current_trial": 130, "dateTime": 1511210285144, "trialdata": {"rt": -1, "stimulus": "<p id=\"stim\">PACKAGE</p>", "key_press": -1, "type": "PRES_VIS", "word": "package", "wordID": 996, "conditions": [12, 800, "v", 24000], "trial": 3, "serialpos": 1, "trial_type": "single-stim", "trial_index": 130, "time_elapsed": 831351, "internal_node_id": "0.0-94.0"}}, {"uniqueid": "MTK0549:3LEIZ60CDK6JEJFFDOVPV5OKLL29Z2", "current_trial": 131, "dateTime": 1511210287127, "trialdata": {"rt": -1, "stimulus": "<p id=\"stim\">PICTURE</p>", "key_press": -1, "type": "PRES_VIS", "word": "picture", "wordID": 1060, "conditions": [12, 800, "v", 24000], "trial": 3, "serialpos": 2, "trial_type": "single-stim", "trial_index": 131, "time_elapsed": 833334, "internal_node_id": "0.0-95.0"}}, {"uniqueid": "MTK0549:3LEIZ60CDK6JEJFFDOVPV5OKLL29Z2", "current_trial": 132, "dateTime": 1511210288846, "trialdata": {"rt": -1, "stimulus": "<p id=\"stim\">CROWN</p>", "key_press": -1, "type": "PRES_VIS", "word": "crown", "wordID": 414, "conditions": [12, 800, "v", 24000], "trial": 3, "serialpos": 3, "trial_type": "single-stim", "trial_index": 132, "time_elapsed": 835053, "internal_node_id": "0.0-96.0"}}, {"uniqueid": "MTK0549:3LEIZ60CDK6JEJFFDOVPV5OKLL29Z2", "current_trial": 133, "dateTime": 1511210290723, "trialdata": {"rt": -1, "stimulus": "<p id=\"stim\">SALAD</p>", "key_press": -1, "type": "PRES_VIS", "word": "salad", "wordID": 1223, "conditions": [12, 800, "v", 24000], "trial": 3, "serialpos": 4, "trial_type": "single-stim", "trial_index": 133, "time_elapsed": 836930, "internal_node_id": "0.0-97.0"}}, {"uniqueid": "MTK0549:3LEIZ60CDK6JEJFFDOVPV5OKLL29Z2", "current_trial": 134, "dateTime": 1511210292451, "trialdata": {"rt": -1, "stimulus": "<p id=\"stim\">PORTRAIT</p>", "key_press": -1, "type": "PRES_VIS", "word": "portrait", "wordID": 1110, "conditions": [12, 800, "v", 24000], "trial": 3, "serialpos": 5, "trial_type": "single-stim", "trial_index": 134, "time_elapsed": 838658, "internal_node_id": "0.0-98.0"}}, {"uniqueid": "MTK0549:3LEIZ60CDK6JEJFFDOVPV5OKLL29Z2", "current_trial": 135, "dateTime": 1511210294442, "trialdata": {"rt": -1, "stimulus": "<p id=\"stim\">JURY</p>", "key_press": -1, "type": "PRES_VIS", "word": "jury", "wordID": 765, "conditions": [12, 800, "v", 24000], "trial": 3, "serialpos": 6, "trial_type": "single-stim", "trial_index": 135, "time_elapsed": 840649, "internal_node_id": "0.0-99.0"}}, {"uniqueid": "MTK0549:3LEIZ60CDK6JEJFFDOVPV5OKLL29Z2", "current_trial": 136, "dateTime": 1511210296261, "trialdata": {"rt": -1, "stimulus": "<p id=\"stim\">FRECKLE</p>", "key_press": -1, "type": "PRES_VIS", "word": "freckle", "wordID": 601, "conditions": [12, 800, "v", 24000], "trial": 3, "serialpos": 7, "trial_type": "single-stim", "trial_index": 136, "time_elapsed": 842468, "internal_node_id": "0.0-100.0"}}, {"uniqueid": "MTK0549:3LEIZ60CDK6JEJFFDOVPV5OKLL29Z2", "current_trial": 137, "dateTime": 1511210298209, "trialdata": {"rt": -1, "stimulus": "<p id=\"stim\">PIMPLE</p>", "key_press": -1, "type": "PRES_VIS", "word": "pimple", "wordID": 1070, "conditions": [12, 800, "v", 24000], "trial": 3, "serialpos": 8, "trial_type": "single-stim", "trial_index": 137, "time_elapsed": 844416, "internal_node_id": "0.0-101.0"}}, {"uniqueid": "MTK0549:3LEIZ60CDK6JEJFFDOVPV5OKLL29Z2", "current_trial": 138, "dateTime": 1511210299966, "trialdata": {"rt": -1, "stimulus": "<p id=\"stim\">FUNGUS</p>", "key_press": -1, "type": "PRES_VIS", "word": "fungus", "wordID": 613, "conditions": [12, 800, "v", 24000], "trial": 3, "serialpos": 9, "trial_type": "single-stim", "trial_index": 138, "time_elapsed": 846173, "internal_node_id": "0.0-102.0"}}, {"uniqueid": "MTK0549:3LEIZ60CDK6JEJFFDOVPV5OKLL29Z2", "current_trial": 139, "dateTime": 1511210301743, "trialdata": {"rt": -1, "stimulus": "<p id=\"stim\">TWISTER</p>", "key_press": -1, "type": "PRES_VIS", "word": "twister", "wordID": 1529, "conditions": [12, 800, "v", 24000], "trial": 3, "serialpos": 10, "trial_type": "single-stim", "trial_index": 139, "time_elapsed": 847950, "internal_node_id": "0.0-103.0"}}, {"uniqueid": "MTK0549:3LEIZ60CDK6JEJFFDOVPV5OKLL29Z2", "current_trial": 140, "dateTime": 1511210303606, "trialdata": {"rt": -1, "stimulus": "<p id=\"stim\">LOVER</p>", "key_press": -1, "type": "PRES_VIS", "word": "lover", "wordID": 845, "conditions": [12, 800, "v", 24000], "trial": 3, "serialpos": 11, "trial_type": "single-stim", "trial_index": 140, "time_elapsed": 849813, "internal_node_id": "0.0-104.0"}}, {"uniqueid": "MTK0549:3LEIZ60CDK6JEJFFDOVPV5OKLL29Z2", "current_trial": 141, "dateTime": 1511210306004, "trialdata": {"rt": -1, "stimulus": "", "key_press": -1, "type": "PRE_RECALL_DELAY", "trial_type": "single-stim", "trial_index": 141, "time_elapsed": 852211, "internal_node_id": "0.0-105.0-0.0"}}, {"uniqueid": "MTK0549:3LEIZ60CDK6JEJFFDOVPV5OKLL29Z2", "current_trial": 142, "dateTime": 1511210306508, "trialdata": {"rt": -1000, "stimulus": "/static/audio/400Hz.wav", "key_press": -1, "type": "PRE_RECALL_ALERT", "trial_type": "single-audio", "trial_index": 142, "time_elapsed": 852715, "internal_node_id": "0.0-106.0"}}, {"uniqueid": "MTK0549:3LEIZ60CDK6JEJFFDOVPV5OKLL29Z2", "current_trial": 143, "dateTime": 1511210366510, "trialdata": {"rt": [2363, 2626, 4002, 4938, 7666, 11235, 26242], "recwords": ["lover", "", "pimple", "fungus", "crown", "fungus", "lover"], "type": "FREE_RECALL", "conditions": [12, 800, "v", 24000], "trial": 3, "trial_type": "free-recall", "trial_index": 143, "time_elapsed": 912716, "internal_node_id": "0.0-107.0-0.0"}}, {"uniqueid": "MTK0549:3LEIZ60CDK6JEJFFDOVPV5OKLL29Z2", "current_trial": 144, "dateTime": 1511210418432, "trialdata": {"rt": 49921, "key_press": 68, "type": "INSTRUCTIONS", "trial_type": "text", "trial_index": 144, "time_elapsed": 964639, "internal_node_id": "0.0-108.0"}}, {"uniqueid": "MTK0549:3LEIZ60CDK6JEJFFDOVPV5OKLL29Z2", "current_trial": 145, "dateTime": 1511210432436, "trialdata": {"rt": [3060, 6019, 7948, 10035, 11612], "responses": ["17", "20", "7", "18", "14"], "num1": [5, 8, 2, 4, 6, 4], "num2": [5, 7, 1, 8, 4, 4], "num3": [7, 5, 4, 6, 4, 3], "type": "DISTRACTOR", "conditions": [12, 1600, "a", 12000], "trial": 4, "trial_type": "math-distractor", "trial_index": 145, "time_elapsed": 978643, "internal_node_id": "0.0-109.0"}}, {"uniqueid": "MTK0549:3LEIZ60CDK6JEJFFDOVPV5OKLL29Z2", "current_trial": 146, "dateTime": 1511210435437, "trialdata": {"rt": -1, "stimulus": "<p id=\"stim\">10</p>", "key_press": -1, "trial_type": "single-stim", "trial_index": 146, "time_elapsed": 981644, "internal_node_id": "0.0-110.0-0.0"}}, {"uniqueid": "MTK0549:3LEIZ60CDK6JEJFFDOVPV5OKLL29Z2", "current_trial": 147, "dateTime": 1511210436440, "trialdata": {"rt": -1, "stimulus": "<p id=\"stim\">9</p>", "key_press": -1, "trial_type": "single-stim", "trial_index": 147, "time_elapsed": 982647, "internal_node_id": "0.0-110.0-1.0"}}, {"uniqueid": "MTK0549:3LEIZ60CDK6JEJFFDOVPV5OKLL29Z2", "current_trial": 148, "dateTime": 1511210437440, "trialdata": {"rt": -1, "stimulus": "<p id=\"stim\">8</p>", "key_press": -1, "trial_type": "single-stim", "trial_index": 148, "time_elapsed": 983647, "internal_node_id": "0.0-110.0-2.0"}}, {"uniqueid": "MTK0549:3LEIZ60CDK6JEJFFDOVPV5OKLL29Z2", "current_trial": 149, "dateTime": 1511210438441, "trialdata": {"rt": -1, "stimulus": "<p id=\"stim\">7</p>", "key_press": -1, "trial_type": "single-stim", "trial_index": 149, "time_elapsed": 984648, "internal_node_id": "0.0-110.0-3.0"}}, {"uniqueid": "MTK0549:3LEIZ60CDK6JEJFFDOVPV5OKLL29Z2", "current_trial": 150, "dateTime": 1511210439443, "trialdata": {"rt": -1, "stimulus": "<p id=\"stim\">6</p>", "key_press": -1, "trial_type": "single-stim", "trial_index": 150, "time_elapsed": 985650, "internal_node_id": "0.0-110.0-4.0"}}, {"uniqueid": "MTK0549:3LEIZ60CDK6JEJFFDOVPV5OKLL29Z2", "current_trial": 151, "dateTime": 1511210440445, "trialdata": {"rt": -1, "stimulus": "<p id=\"stim\">5</p>", "key_press": -1, "trial_type": "single-stim", "trial_index": 151, "time_elapsed": 986652, "internal_node_id": "0.0-110.0-5.0"}}, {"uniqueid": "MTK0549:3LEIZ60CDK6JEJFFDOVPV5OKLL29Z2", "current_trial": 152, "dateTime": 1511210441446, "trialdata": {"rt": -1, "stimulus": "<p id=\"stim\">4</p>", "key_press": -1, "trial_type": "single-stim", "trial_index": 152, "time_elapsed": 987653, "internal_node_id": "0.0-110.0-6.0"}}, {"uniqueid": "MTK0549:3LEIZ60CDK6JEJFFDOVPV5OKLL29Z2", "current_trial": 153, "dateTime": 1511210442447, "trialdata": {"rt": -1, "stimulus": "<p id=\"stim\">3</p>", "key_press": -1, "trial_type": "single-stim", "trial_index": 153, "time_elapsed": 988654, "internal_node_id": "0.0-110.0-7.0"}}, {"uniqueid": "MTK0549:3LEIZ60CDK6JEJFFDOVPV5OKLL29Z2", "current_trial": 154, "dateTime": 1511210443448, "trialdata": {"rt": -1, "stimulus": "<p id=\"stim\">2</p>", "key_press": -1, "trial_type": "single-stim", "trial_index": 154, "time_elapsed": 989655, "internal_node_id": "0.0-110.0-8.0"}}, {"uniqueid": "MTK0549:3LEIZ60CDK6JEJFFDOVPV5OKLL29Z2", "current_trial": 155, "dateTime": 1511210444450, "trialdata": {"rt": -1, "stimulus": "<p id=\"stim\">1</p>", "key_press": -1, "trial_type": "single-stim", "trial_index": 155, "time_elapsed": 990657, "internal_node_id": "0.0-110.0-9.0"}}, {"uniqueid": "MTK0549:3LEIZ60CDK6JEJFFDOVPV5OKLL29Z2", "current_trial": 156, "dateTime": 1511210445951, "trialdata": {"rt": -1, "stimulus": "<p id=\"stim\">+</p>", "key_press": -1, "type": "FIXATION", "trial_type": "single-stim", "trial_index": 156, "time_elapsed": 992158, "internal_node_id": "0.0-111.0-0.0"}}, {"uniqueid": "MTK0549:3LEIZ60CDK6JEJFFDOVPV5OKLL29Z2", "current_trial": 157, "dateTime": 1511210448496, "trialdata": {"rt": -1000, "stimulus": "/static/audio/wordpool/PORK.wav", "key_press": -1, "type": "PRES_AUD", "word": "pork", "wordID": 1107, "conditions": [12, 1600, "a", 12000], "trial": 4, "serialpos": 0, "trial_type": "single-audio", "trial_index": 157, "time_elapsed": 994703, "internal_node_id": "0.0-112.0"}}, {"uniqueid": "MTK0549:3LEIZ60CDK6JEJFFDOVPV5OKLL29Z2", "current_trial": 158, "dateTime": 1511210451205, "trialdata": {"rt": -1000, "stimulus": "/static/audio/wordpool/SPIDER.wav", "key_press": -1, "type": "PRES_AUD", "word": "spider", "wordID": 1350, "conditions": [12, 1600, "a", 12000], "trial": 4, "serialpos": 1, "trial_type": "single-audio", "trial_index": 158, "time_elapsed": 997412, "internal_node_id": "0.0-113.0"}}, {"uniqueid": "MTK0549:3LEIZ60CDK6JEJFFDOVPV5OKLL29Z2", "current_trial": 159, "dateTime": 1511210453613, "trialdata": {"rt": -1000, "stimulus": "/static/audio/wordpool/CATCHER.wav", "key_press": -1, "type": "PRES_AUD", "word": "catcher", "wordID": 257, "conditions": [12, 1600, "a", 12000], "trial": 4, "serialpos": 2, "trial_type": "single-audio", "trial_index": 159, "time_elapsed": 999819, "internal_node_id": "0.0-114.0"}}, {"uniqueid": "MTK0549:3LEIZ60CDK6JEJFFDOVPV5OKLL29Z2", "current_trial": 160, "dateTime": 1511210456295, "trialdata": {"rt": -1000, "stimulus": "/static/audio/wordpool/NECKLACE.wav", "key_press": -1, "type": "PRES_AUD", "word": "necklace", "wordID": 939, "conditions": [12, 1600, "a", 12000], "trial": 4, "serialpos": 3, "trial_type": "single-audio", "trial_index": 160, "time_elapsed": 1002502, "internal_node_id": "0.0-115.0"}}, {"uniqueid": "MTK0549:3LEIZ60CDK6JEJFFDOVPV5OKLL29Z2", "current_trial": 161, "dateTime": 1511210458792, "trialdata": {"rt": -1000, "stimulus": "/static/audio/wordpool/JOURNAL.wav", "key_press": -1, "type": "PRES_AUD", "word": "journal", "wordID": 759, "conditions": [12, 1600, "a", 12000], "trial": 4, "serialpos": 4, "trial_type": "single-audio", "trial_index": 161, "time_elapsed": 1004999, "internal_node_id": "0.0-116.0"}}, {"uniqueid": "MTK0549:3LEIZ60CDK6JEJFFDOVPV5OKLL29Z2", "current_trial": 162, "dateTime": 1511210461355, "trialdata": {"rt": -1000, "stimulus": "/static/audio/wordpool/SURVEY.wav", "key_press": -1, "type": "PRES_AUD", "word": "survey", "wordID": 1413, "conditions": [12, 1600, "a", 12000], "trial": 4, "serialpos": 5, "trial_type": "single-audio", "trial_index": 162, "time_elapsed": 1007562, "internal_node_id": "0.0-117.0"}}, {"uniqueid": "MTK0549:3LEIZ60CDK6JEJFFDOVPV5OKLL29Z2", "current_trial": 163, "dateTime": 1511210463832, "trialdata": {"rt": -1000, "stimulus": "/static/audio/wordpool/HANDBAG.wav", "key_press": -1, "type": "PRES_AUD", "word": "handbag", "wordID": 683, "conditions": [12, 1600, "a", 12000], "trial": 4, "serialpos": 6, "trial_type": "single-audio", "trial_index": 163, "time_elapsed": 1010039, "internal_node_id": "0.0-118.0"}}, {"uniqueid": "MTK0549:3LEIZ60CDK6JEJFFDOVPV5OKLL29Z2", "current_trial": 164, "dateTime": 1511210466305, "trialdata": {"rt": -1000, "stimulus": "/static/audio/wordpool/OYSTER.wav", "key_press": -1, "type": "PRES_AUD", "word": "oyster", "wordID": 994, "conditions": [12, 1600, "a", 12000], "trial": 4, "serialpos": 7, "trial_type": "single-audio", "trial_index": 164, "time_elapsed": 1012512, "internal_node_id": "0.0-119.0"}}, {"uniqueid": "MTK0549:3LEIZ60CDK6JEJFFDOVPV5OKLL29Z2", "current_trial": 165, "dateTime": 1511210468801, "trialdata": {"rt": -1000, "stimulus": "/static/audio/wordpool/VALLEY.wav", "key_press": -1, "type": "PRES_AUD", "word": "valley", "wordID": 1544, "conditions": [12, 1600, "a", 12000], "trial": 4, "serialpos": 8, "trial_type": "single-audio", "trial_index": 165, "time_elapsed": 1015008, "internal_node_id": "0.0-120.0"}}, {"uniqueid": "MTK0549:3LEIZ60CDK6JEJFFDOVPV5OKLL29Z2", "current_trial": 166, "dateTime": 1511210471530, "trialdata": {"rt": -1000, "stimulus": "/static/audio/wordpool/CANYON.wav", "key_press": -1, "type": "PRES_AUD", "word": "canyon", "wordID": 234, "conditions": [12, 1600, "a", 12000], "trial": 4, "serialpos": 9, "trial_type": "single-audio", "trial_index": 166, "time_elapsed": 1017737, "internal_node_id": "0.0-121.0"}}, {"uniqueid": "MTK0549:3LEIZ60CDK6JEJFFDOVPV5OKLL29Z2", "current_trial": 167, "dateTime": 1511210473971, "trialdata": {"rt": -1000, "stimulus": "/static/audio/wordpool/DENIM.wav", "key_press": -1, "type": "PRES_AUD", "word": "denim", "wordID": 445, "conditions": [12, 1600, "a", 12000], "trial": 4, "serialpos": 10, "trial_type": "single-audio", "trial_index": 167, "time_elapsed": 1020178, "internal_node_id": "0.0-122.0"}}, {"uniqueid": "MTK0549:3LEIZ60CDK6JEJFFDOVPV5OKLL29Z2", "current_trial": 168, "dateTime": 1511210476712, "trialdata": {"rt": -1000, "stimulus": "/static/audio/wordpool/GUARD.wav", "key_press": -1, "type": "PRES_AUD", "word": "guard", "wordID": 666, "conditions": [12, 1600, "a", 12000], "trial": 4, "serialpos": 11, "trial_type": "single-audio", "trial_index": 168, "time_elapsed": 1022919, "internal_node_id": "0.0-123.0"}}, {"uniqueid": "MTK0549:3LEIZ60CDK6JEJFFDOVPV5OKLL29Z2", "current_trial": 169, "dateTime": 1511210478002, "trialdata": {"rt": -1, "stimulus": "", "key_press": -1, "type": "PRE_RECALL_DELAY", "trial_type": "single-stim", "trial_index": 169, "time_elapsed": 1024209, "internal_node_id": "0.0-124.0-0.0"}}, {"uniqueid": "MTK0549:3LEIZ60CDK6JEJFFDOVPV5OKLL29Z2", "current_trial": 170, "dateTime": 1511210478511, "trialdata": {"rt": -1000, "stimulus": "/static/audio/400Hz.wav", "key_press": -1, "type": "PRE_RECALL_ALERT", "trial_type": "single-audio", "trial_index": 170, "time_elapsed": 1024718, "internal_node_id": "0.0-125.0"}}, {"uniqueid": "MTK0549:3LEIZ60CDK6JEJFFDOVPV5OKLL29Z2", "current_trial": 171, "dateTime": 1511210538515, "trialdata": {"rt": [2647, 3462, 4790, 12014], "recwords": ["denim", "valley", "oyster", "journal"], "type": "FREE_RECALL", "conditions": [12, 1600, "a", 12000], "trial": 4, "trial_type": "free-recall", "trial_index": 171, "time_elapsed": 1084720, "internal_node_id": "0.0-126.0-0.0"}}, {"uniqueid": "MTK0549:3LEIZ60CDK6JEJFFDOVPV5OKLL29Z2", "current_trial": 172, "dateTime": 1511210541935, "trialdata": {"rt": 1420, "key_press": 71, "type": "INSTRUCTIONS", "trial_type": "text", "trial_index": 172, "time_elapsed": 1088142, "internal_node_id": "0.0-127.0"}}, {"uniqueid": "MTK0549:3LEIZ60CDK6JEJFFDOVPV5OKLL29Z2", "current_trial": 173, "dateTime": 1511210555938, "trialdata": {"rt": [3183, 4814, 7810, 11280], "responses": ["9", "18", "19", "16"], "num1": [5, 7, 4, 9, 1], "num2": [3, 8, 9, 2, 9], "num3": [1, 3, 6, 5, 8], "type": "DISTRACTOR", "conditions": [12, 800, "v", 12000], "trial": 5, "trial_type": "math-distractor", "trial_index": 173, "time_elapsed": 1102145, "internal_node_id": "0.0-128.0"}}, {"uniqueid": "MTK0549:3LEIZ60CDK6JEJFFDOVPV5OKLL29Z2", "current_trial": 174, "dateTime": 1511210558941, "trialdata": {"rt": -1, "stimulus": "<p id=\"stim\">10</p>", "key_press": -1, "trial_type": "single-stim", "trial_index": 174, "time_elapsed": 1105148, "internal_node_id": "0.0-129.0-0.0"}}, {"uniqueid": "MTK0549:3LEIZ60CDK6JEJFFDOVPV5OKLL29Z2", "current_trial": 175, "dateTime": 1511210559943, "trialdata": {"rt": -1, "stimulus": "<p id=\"stim\">9</p>", "key_press": -1, "trial_type": "single-stim", "trial_index": 175, "time_elapsed": 1106150, "internal_node_id": "0.0-129.0-1.0"}}, {"uniqueid": "MTK0549:3LEIZ60CDK6JEJFFDOVPV5OKLL29Z2", "current_trial": 176, "dateTime": 1511210560943, "trialdata": {"rt": -1, "stimulus": "<p id=\"stim\">8</p>", "key_press": -1, "trial_type": "single-stim", "trial_index": 176, "time_elapsed": 1107150, "internal_node_id": "0.0-129.0-2.0"}}, {"uniqueid": "MTK0549:3LEIZ60CDK6JEJFFDOVPV5OKLL29Z2", "current_trial": 177, "dateTime": 1511210561945, "trialdata": {"rt": -1, "stimulus": "<p id=\"stim\">7</p>", "key_press": -1, "trial_type": "single-stim", "trial_index": 177, "time_elapsed": 1108152, "internal_node_id": "0.0-129.0-3.0"}}, {"uniqueid": "MTK0549:3LEIZ60CDK6JEJFFDOVPV5OKLL29Z2", "current_trial": 178, "dateTime": 1511210562946, "trialdata": {"rt": -1, "stimulus": "<p id=\"stim\">6</p>", "key_press": -1, "trial_type": "single-stim", "trial_index": 178, "time_elapsed": 1109153, "internal_node_id": "0.0-129.0-4.0"}}, {"uniqueid": "MTK0549:3LEIZ60CDK6JEJFFDOVPV5OKLL29Z2", "current_trial": 179, "dateTime": 1511210563947, "trialdata": {"rt": -1, "stimulus": "<p id=\"stim\">5</p>", "key_press": -1, "trial_type": "single-stim", "trial_index": 179, "time_elapsed": 1110154, "internal_node_id": "0.0-129.0-5.0"}}, {"uniqueid": "MTK0549:3LEIZ60CDK6JEJFFDOVPV5OKLL29Z2", "current_trial": 180, "dateTime": 1511210564949, "trialdata": {"rt": -1, "stimulus": "<p id=\"stim\">4</p>", "key_press": -1, "trial_type": "single-stim", "trial_index": 180, "time_elapsed": 1111156, "internal_node_id": "0.0-129.0-6.0"}}, {"uniqueid": "MTK0549:3LEIZ60CDK6JEJFFDOVPV5OKLL29Z2", "current_trial": 181, "dateTime": 1511210565951, "trialdata": {"rt": -1, "stimulus": "<p id=\"stim\">3</p>", "key_press": -1, "trial_type": "single-stim", "trial_index": 181, "time_elapsed": 1112158, "internal_node_id": "0.0-129.0-7.0"}}, {"uniqueid": "MTK0549:3LEIZ60CDK6JEJFFDOVPV5OKLL29Z2", "current_trial": 182, "dateTime": 1511210566952, "trialdata": {"rt": -1, "stimulus": "<p id=\"stim\">2</p>", "key_press": -1, "trial_type": "single-stim", "trial_index": 182, "time_elapsed": 1113159, "internal_node_id": "0.0-129.0-8.0"}}, {"uniqueid": "MTK0549:3LEIZ60CDK6JEJFFDOVPV5OKLL29Z2", "current_trial": 183, "dateTime": 1511210567954, "trialdata": {"rt": -1, "stimulus": "<p id=\"stim\">1</p>", "key_press": -1, "trial_type": "single-stim", "trial_index": 183, "time_elapsed": 1114161, "internal_node_id": "0.0-129.0-9.0"}}, {"uniqueid": "MTK0549:3LEIZ60CDK6JEJFFDOVPV5OKLL29Z2", "current_trial": 184, "dateTime": 1511210569457, "trialdata": {"rt": -1, "stimulus": "<p id=\"stim\">+</p>", "key_press": -1, "type": "FIXATION", "trial_type": "single-stim", "trial_index": 184, "time_elapsed": 1115664, "internal_node_id": "0.0-130.0-0.0"}}, {"uniqueid": "MTK0549:3LEIZ60CDK6JEJFFDOVPV5OKLL29Z2", "current_trial": 185, "dateTime": 1511210570258, "trialdata": {"rt": -1, "stimulus": "<p id=\"stim\">BARREL</p>", "key_press": -1, "type": "PRES_VIS", "word": "barrel", "wordID": 90, "conditions": [12, 800, "v", 12000], "trial": 5, "serialpos": 0, "trial_type": "single-stim", "trial_index": 185, "time_elapsed": 1116465, "internal_node_id": "0.0-131.0"}}, {"uniqueid": "MTK0549:3LEIZ60CDK6JEJFFDOVPV5OKLL29Z2", "current_trial": 186, "dateTime": 1511210571972, "trialdata": {"rt": -1, "stimulus": "<p id=\"stim\">TRACTOR</p>", "key_press": -1, "type": "PRES_VIS", "word": "tractor", "wordID": 1492, "conditions": [12, 800, "v", 12000], "trial": 5, "serialpos": 1, "trial_type": "single-stim", "trial_index": 186, "time_elapsed": 1118179, "internal_node_id": "0.0-132.0"}}, {"uniqueid": "MTK0549:3LEIZ60CDK6JEJFFDOVPV5OKLL29Z2", "current_trial": 187, "dateTime": 1511210573693, "trialdata": {"rt": -1, "stimulus": "<p id=\"stim\">WAGON</p>", "key_press": -1, "type": "PRES_VIS", "word": "wagon", "wordID": 1577, "conditions": [12, 800, "v", 12000], "trial": 5, "serialpos": 2, "trial_type": "single-stim", "trial_index": 187, "time_elapsed": 1119900, "internal_node_id": "0.0-133.0"}}, {"uniqueid": "MTK0549:3LEIZ60CDK6JEJFFDOVPV5OKLL29Z2", "current_trial": 188, "dateTime": 1511210575678, "trialdata": {"rt": -1, "stimulus": "<p id=\"stim\">FRUIT</p>", "key_press": -1, "type": "PRES_VIS", "word": "fruit", "wordID": 609, "conditions": [12, 800, "v", 12000], "trial": 5, "serialpos": 3, "trial_type": "single-stim", "trial_index": 188, "time_elapsed": 1121885, "internal_node_id": "0.0-134.0"}}, {"uniqueid": "MTK0549:3LEIZ60CDK6JEJFFDOVPV5OKLL29Z2", "current_trial": 189, "dateTime": 1511210577552, "trialdata": {"rt": -1, "stimulus": "<p id=\"stim\">PADDING</p>", "key_press": -1, "type": "PRES_VIS", "word": "padding", "wordID": 998, "conditions": [12, 800, "v", 12000], "trial": 5, "serialpos": 4, "trial_type": "single-stim", "trial_index": 189, "time_elapsed": 1123759, "internal_node_id": "0.0-135.0"}}, {"uniqueid": "MTK0549:3LEIZ60CDK6JEJFFDOVPV5OKLL29Z2", "current_trial": 190, "dateTime": 1511210579299, "trialdata": {"rt": -1, "stimulus": "<p id=\"stim\">ICING</p>", "key_press": -1, "type": "PRES_VIS", "word": "icing", "wordID": 731, "conditions": [12, 800, "v", 12000], "trial": 5, "serialpos": 5, "trial_type": "single-stim", "trial_index": 190, "time_elapsed": 1125505, "internal_node_id": "0.0-136.0"}}, {"uniqueid": "MTK0549:3LEIZ60CDK6JEJFFDOVPV5OKLL29Z2", "current_trial": 191, "dateTime": 1511210580928, "trialdata": {"rt": -1, "stimulus": "<p id=\"stim\">GRAPE</p>", "key_press": -1, "type": "PRES_VIS", "word": "grape", "wordID": 653, "conditions": [12, 800, "v", 12000], "trial": 5, "serialpos": 6, "trial_type": "single-stim", "trial_index": 191, "time_elapsed": 1127135, "internal_node_id": "0.0-137.0"}}, {"uniqueid": "MTK0549:3LEIZ60CDK6JEJFFDOVPV5OKLL29Z2", "current_trial": 192, "dateTime": 1511210582661, "trialdata": {"rt": -1, "stimulus": "<p id=\"stim\">FLEET</p>", "key_press": -1, "type": "PRES_VIS", "word": "fleet", "wordID": 577, "conditions": [12, 800, "v", 12000], "trial": 5, "serialpos": 7, "trial_type": "single-stim", "trial_index": 192, "time_elapsed": 1128868, "internal_node_id": "0.0-138.0"}}, {"uniqueid": "MTK0549:3LEIZ60CDK6JEJFFDOVPV5OKLL29Z2", "current_trial": 193, "dateTime": 1511210584313, "trialdata": {"rt": -1, "stimulus": "<p id=\"stim\">TUBA</p>", "key_press": -1, "type": "PRES_VIS", "word": "tuba", "wordID": 1514, "conditions": [12, 800, "v", 12000], "trial": 5, "serialpos": 8, "trial_type": "single-stim", "trial_index": 193, "time_elapsed": 1130520, "internal_node_id": "0.0-139.0"}}, {"uniqueid": "MTK0549:3LEIZ60CDK6JEJFFDOVPV5OKLL29Z2", "current_trial": 194, "dateTime": 1511210586220, "trialdata": {"rt": -1, "stimulus": "<p id=\"stim\">SALMON</p>", "key_press": -1, "type": "PRES_VIS", "word": "salmon", "wordID": 1226, "conditions": [12, 800, "v", 12000], "trial": 5, "serialpos": 9, "trial_type": "single-stim", "trial_index": 194, "time_elapsed": 1132427, "internal_node_id": "0.0-140.0"}}, {"uniqueid": "MTK0549:3LEIZ60CDK6JEJFFDOVPV5OKLL29Z2", "current_trial": 195, "dateTime": 1511210587827, "trialdata": {"rt": -1, "stimulus": "<p id=\"stim\">RATTLE</p>", "key_press": -1, "type": "PRES_VIS", "word": "rattle", "wordID": 1169, "conditions": [12, 800, "v", 12000], "trial": 5, "serialpos": 10, "trial_type": "single-stim", "trial_index": 195, "time_elapsed": 1134034, "internal_node_id": "0.0-141.0"}}, {"uniqueid": "MTK0549:3LEIZ60CDK6JEJFFDOVPV5OKLL29Z2", "current_trial": 196, "dateTime": 1511210589633, "trialdata": {"rt": -1, "stimulus": "<p id=\"stim\">AIRPORT</p>", "key_press": -1, "type": "PRES_VIS", "word": "airport", "wordID": 12, "conditions": [12, 800, "v", 12000], "trial": 5, "serialpos": 11, "trial_type": "single-stim", "trial_index": 196, "time_elapsed": 1135840, "internal_node_id": "0.0-142.0"}}, {"uniqueid": "MTK0549:3LEIZ60CDK6JEJFFDOVPV5OKLL29Z2", "current_trial": 197, "dateTime": 1511210591977, "trialdata": {"rt": -1, "stimulus": "", "key_press": -1, "type": "PRE_RECALL_DELAY", "trial_type": "single-stim", "trial_index": 197, "time_elapsed": 1138184, "internal_node_id": "0.0-143.0-0.0"}}, {"uniqueid": "MTK0549:3LEIZ60CDK6JEJFFDOVPV5OKLL29Z2", "current_trial": 198, "dateTime": 1511210592483, "trialdata": {"rt": -1000, "stimulus": "/static/audio/400Hz.wav", "key_press": -1, "type": "PRE_RECALL_ALERT", "trial_type": "single-audio", "trial_index": 198, "time_elapsed": 1138690, "internal_node_id": "0.0-144.0"}}, {"uniqueid": "MTK0549:3LEIZ60CDK6JEJFFDOVPV5OKLL29Z2", "current_trial": 199, "dateTime": 1511210652487, "trialdata": {"rt": [2364, 3131, 4107, 5458, 6274, 7386, 10587, 14186], "recwords": ["salmon", "rattle", "airport", "barrel", "wagon", "tracter", "fruit", "icing"], "type": "FREE_RECALL", "conditions": [12, 800, "v", 12000], "trial": 5, "trial_type": "free-recall", "trial_index": 199, "time_elapsed": 1198693, "internal_node_id": "0.0-145.0-0.0"}}, {"uniqueid": "MTK0549:3LEIZ60CDK6JEJFFDOVPV5OKLL29Z2", "current_trial": 200, "dateTime": 1511210818119, "trialdata": {"rt": 163630, "key_press": 74, "type": "INSTRUCTIONS", "trial_type": "text", "trial_index": 200, "time_elapsed": 1364326, "internal_node_id": "0.0-146.0"}}, {"uniqueid": "MTK0549:3LEIZ60CDK6JEJFFDOVPV5OKLL29Z2", "current_trial": 201, "dateTime": 1511210844123, "trialdata": {"rt": [2774, 5582, 8645, 10486, 12527, 14206, 19166, 21551, 23093], "responses": ["8", "19", "15", "13", "14", "11", "19", "14", "11"], "num1": [4, 5, 4, 5, 4, 2, 9, 6, 4, 5], "num2": [2, 8, 7, 7, 5, 3, 6, 4, 1, 9], "num3": [2, 6, 4, 1, 5, 6, 4, 4, 6, 3], "type": "DISTRACTOR", "conditions": [24, 800, "a", 24000], "trial": 6, "trial_type": "math-distractor", "trial_index": 201, "time_elapsed": 1390330, "internal_node_id": "0.0-147.0"}}, {"uniqueid": "MTK0549:3LEIZ60CDK6JEJFFDOVPV5OKLL29Z2", "current_trial": 202, "dateTime": 1511210847124, "trialdata": {"rt": -1, "stimulus": "<p id=\"stim\">10</p>", "key_press": -1, "trial_type": "single-stim", "trial_index": 202, "time_elapsed": 1393331, "internal_node_id": "0.0-148.0-0.0"}}, {"uniqueid": "MTK0549:3LEIZ60CDK6JEJFFDOVPV5OKLL29Z2", "current_trial": 203, "dateTime": 1511210848125, "trialdata": {"rt": -1, "stimulus": "<p id=\"stim\">9</p>", "key_press": -1, "trial_type": "single-stim", "trial_index": 203, "time_elapsed": 1394332, "internal_node_id": "0.0-148.0-1.0"}}, {"uniqueid": "MTK0549:3LEIZ60CDK6JEJFFDOVPV5OKLL29Z2", "current_trial": 204, "dateTime": 1511210849127, "trialdata": {"rt": -1, "stimulus": "<p id=\"stim\">8</p>", "key_press": -1, "trial_type": "single-stim", "trial_index": 204, "time_elapsed": 1395334, "internal_node_id": "0.0-148.0-2.0"}}, {"uniqueid": "MTK0549:3LEIZ60CDK6JEJFFDOVPV5OKLL29Z2", "current_trial": 205, "dateTime": 1511210850128, "trialdata": {"rt": -1, "stimulus": "<p id=\"stim\">7</p>", "key_press": -1, "trial_type": "single-stim", "trial_index": 205, "time_elapsed": 1396335, "internal_node_id": "0.0-148.0-3.0"}}, {"uniqueid": "MTK0549:3LEIZ60CDK6JEJFFDOVPV5OKLL29Z2", "current_trial": 206, "dateTime": 1511210851131, "trialdata": {"rt": -1, "stimulus": "<p id=\"stim\">6</p>", "key_press": -1, "trial_type": "single-stim", "trial_index": 206, "time_elapsed": 1397338, "internal_node_id": "0.0-148.0-4.0"}}, {"uniqueid": "MTK0549:3LEIZ60CDK6JEJFFDOVPV5OKLL29Z2", "current_trial": 207, "dateTime": 1511210852132, "trialdata": {"rt": -1, "stimulus": "<p id=\"stim\">5</p>", "key_press": -1, "trial_type": "single-stim", "trial_index": 207, "time_elapsed": 1398339, "internal_node_id": "0.0-148.0-5.0"}}, {"uniqueid": "MTK0549:3LEIZ60CDK6JEJFFDOVPV5OKLL29Z2", "current_trial": 208, "dateTime": 1511210853133, "trialdata": {"rt": -1, "stimulus": "<p id=\"stim\">4</p>", "key_press": -1, "trial_type": "single-stim", "trial_index": 208, "time_elapsed": 1399340, "internal_node_id": "0.0-148.0-6.0"}}, {"uniqueid": "MTK0549:3LEIZ60CDK6JEJFFDOVPV5OKLL29Z2", "current_trial": 209, "dateTime": 1511210854135, "trialdata": {"rt": -1, "stimulus": "<p id=\"stim\">3</p>", "key_press": -1, "trial_type": "single-stim", "trial_index": 209, "time_elapsed": 1400342, "internal_node_id": "0.0-148.0-7.0"}}, {"uniqueid": "MTK0549:3LEIZ60CDK6JEJFFDOVPV5OKLL29Z2", "current_trial": 210, "dateTime": 1511210855136, "trialdata": {"rt": -1, "stimulus": "<p id=\"stim\">2</p>", "key_press": -1, "trial_type": "single-stim", "trial_index": 210, "time_elapsed": 1401343, "internal_node_id": "0.0-148.0-8.0"}}, {"uniqueid": "MTK0549:3LEIZ60CDK6JEJFFDOVPV5OKLL29Z2", "current_trial": 211, "dateTime": 1511210856137, "trialdata": {"rt": -1, "stimulus": "<p id=\"stim\">1</p>", "key_press": -1, "trial_type": "single-stim", "trial_index": 211, "time_elapsed": 1402344, "internal_node_id": "0.0-148.0-9.0"}}, {"uniqueid": "MTK0549:3LEIZ60CDK6JEJFFDOVPV5OKLL29Z2", "current_trial": 212, "dateTime": 1511210857639, "trialdata": {"rt": -1, "stimulus": "<p id=\"stim\">+</p>", "key_press": -1, "type": "FIXATION", "trial_type": "single-stim", "trial_index": 212, "time_elapsed": 1403846, "internal_node_id": "0.0-149.0-0.0"}}, {"uniqueid": "MTK0549:3LEIZ60CDK6JEJFFDOVPV5OKLL29Z2", "current_trial": 213, "dateTime": 1511210859466, "trialdata": {"rt": -1000, "stimulus": "/static/audio/wordpool/LIVER.wav", "key_press": -1, "type": "PRES_AUD", "word": "liver", "wordID": 832, "conditions": [24, 800, "a", 24000], "trial": 6, "serialpos": 0, "trial_type": "single-audio", "trial_index": 213, "time_elapsed": 1405673, "internal_node_id": "0.0-150.0"}}, {"uniqueid": "MTK0549:3LEIZ60CDK6JEJFFDOVPV5OKLL29Z2", "current_trial": 214, "dateTime": 1511210861077, "trialdata": {"rt": -1000, "stimulus": "/static/audio/wordpool/KIDNEY.wav", "key_press": -1, "type": "PRES_AUD", "word": "kidney", "wordID": 775, "conditions": [24, 800, "a", 24000], "trial": 6, "serialpos": 1, "trial_type": "single-audio", "trial_index": 214, "time_elapsed": 1407284, "internal_node_id": "0.0-151.0"}}, {"uniqueid": "MTK0549:3LEIZ60CDK6JEJFFDOVPV5OKLL29Z2", "current_trial": 215, "dateTime": 1511210863017, "trialdata": {"rt": -1000, "stimulus": "/static/audio/wordpool/PREACHER.wav", "key_press": -1, "type": "PRES_AUD", "word": "preacher", "wordID": 1118, "conditions": [24, 800, "a", 24000], "trial": 6, "serialpos": 2, "trial_type": "single-audio", "trial_index": 215, "time_elapsed": 1409224, "internal_node_id": "0.0-152.0"}}, {"uniqueid": "MTK0549:3LEIZ60CDK6JEJFFDOVPV5OKLL29Z2", "current_trial": 216, "dateTime": 1511210865001, "trialdata": {"rt": -1000, "stimulus": "/static/audio/wordpool/WITNESS.wav", "key_press": -1, "type": "PRES_AUD", "word": "witness", "wordID": 1617, "conditions": [24, 800, "a", 24000], "trial": 6, "serialpos": 3, "trial_type": "single-audio", "trial_index": 216, "time_elapsed": 1411208, "internal_node_id": "0.0-153.0"}}, {"uniqueid": "MTK0549:3LEIZ60CDK6JEJFFDOVPV5OKLL29Z2", "current_trial": 217, "dateTime": 1511210866771, "trialdata": {"rt": -1000, "stimulus": "/static/audio/wordpool/GARDEN.wav", "key_press": -1, "type": "PRES_AUD", "word": "garden", "wordID": 622, "conditions": [24, 800, "a", 24000], "trial": 6, "serialpos": 4, "trial_type": "single-audio", "trial_index": 217, "time_elapsed": 1412977, "internal_node_id": "0.0-154.0"}}, {"uniqueid": "MTK0549:3LEIZ60CDK6JEJFFDOVPV5OKLL29Z2", "current_trial": 218, "dateTime": 1511210868675, "trialdata": {"rt": -1000, "stimulus": "/static/audio/wordpool/LETTUCE.wav", "key_press": -1, "type": "PRES_AUD", "word": "lettuce", "wordID": 813, "conditions": [24, 800, "a", 24000], "trial": 6, "serialpos": 5, "trial_type": "single-audio", "trial_index": 218, "time_elapsed": 1414882, "internal_node_id": "0.0-155.0"}}, {"uniqueid": "MTK0549:3LEIZ60CDK6JEJFFDOVPV5OKLL29Z2", "current_trial": 219, "dateTime": 1511210870635, "trialdata": {"rt": -1000, "stimulus": "/static/audio/wordpool/WOMAN.wav", "key_press": -1, "type": "PRES_AUD", "word": "woman", "wordID": 1619, "conditions": [24, 800, "a", 24000], "trial": 6, "serialpos": 6, "trial_type": "single-audio", "trial_index": 219, "time_elapsed": 1416842, "internal_node_id": "0.0-156.0"}}, {"uniqueid": "MTK0549:3LEIZ60CDK6JEJFFDOVPV5OKLL29Z2", "current_trial": 220, "dateTime": 1511210872621, "trialdata": {"rt": -1000, "stimulus": "/static/audio/wordpool/TRIBE.wav", "key_press": -1, "type": "PRES_AUD", "word": "tribe", "wordID": 1504, "conditions": [24, 800, "a", 24000], "trial": 6, "serialpos": 7, "trial_type": "single-audio", "trial_index": 220, "time_elapsed": 1418828, "internal_node_id": "0.0-157.0"}}, {"uniqueid": "MTK0549:3LEIZ60CDK6JEJFFDOVPV5OKLL29Z2", "current_trial": 221, "dateTime": 1511210874586, "trialdata": {"rt": -1000, "stimulus": "/static/audio/wordpool/SCALLOP.wav", "key_press": -1, "type": "PRES_AUD", "word": "scallop", "wordID": 1241, "conditions": [24, 800, "a", 24000], "trial": 6, "serialpos": 8, "trial_type": "single-audio", "trial_index": 221, "time_elapsed": 1420793, "internal_node_id": "0.0-158.0"}}, {"uniqueid": "MTK0549:3LEIZ60CDK6JEJFFDOVPV5OKLL29Z2", "current_trial": 222, "dateTime": 1511210876209, "trialdata": {"rt": -1000, "stimulus": "/static/audio/wordpool/GOBLIN.wav", "key_press": -1, "type": "PRES_AUD", "word": "goblin", "wordID": 644, "conditions": [24, 800, "a", 24000], "trial": 6, "serialpos": 9, "trial_type": "single-audio", "trial_index": 222, "time_elapsed": 1422416, "internal_node_id": "0.0-159.0"}}, {"uniqueid": "MTK0549:3LEIZ60CDK6JEJFFDOVPV5OKLL29Z2", "current_trial": 223, "dateTime": 1511210878100, "trialdata": {"rt": -1000, "stimulus": "/static/audio/wordpool/MISSILE.wav", "key_press": -1, "type": "PRES_AUD", "word": "missile", "wordID": 899, "conditions": [24, 800, "a", 24000], "trial": 6, "serialpos": 10, "trial_type": "single-audio", "trial_index": 223, "time_elapsed": 1424307, "internal_node_id": "0.0-160.0"}}, {"uniqueid": "MTK0549:3LEIZ60CDK6JEJFFDOVPV5OKLL29Z2", "current_trial": 224, "dateTime": 1511210879803, "trialdata": {"rt": -1000, "stimulus": "/static/audio/wordpool/LADY.wav", "key_press": -1, "type": "PRES_AUD", "word": "lady", "wordID": 793, "conditions": [24, 800, "a", 24000], "trial": 6, "serialpos": 11, "trial_type": "single-audio", "trial_index": 224, "time_elapsed": 1426010, "internal_node_id": "0.0-161.0"}}, {"uniqueid": "MTK0549:3LEIZ60CDK6JEJFFDOVPV5OKLL29Z2", "current_trial": 225, "dateTime": 1511210881609, "trialdata": {"rt": -1000, "stimulus": "/static/audio/wordpool/SCISSORS.wav", "key_press": -1, "type": "PRES_AUD", "word": "scissors", "wordID": 1249, "conditions": [24, 800, "a", 24000], "trial": 6, "serialpos": 12, "trial_type": "single-audio", "trial_index": 225, "time_elapsed": 1427816, "internal_node_id": "0.0-162.0"}}, {"uniqueid": "MTK0549:3LEIZ60CDK6JEJFFDOVPV5OKLL29Z2", "current_trial": 226, "dateTime": 1511210883461, "trialdata": {"rt": -1000, "stimulus": "/static/audio/wordpool/GRAVEL.wav", "key_press": -1, "type": "PRES_AUD", "word": "gravel", "wordID": 658, "conditions": [24, 800, "a", 24000], "trial": 6, "serialpos": 13, "trial_type": "single-audio", "trial_index": 226, "time_elapsed": 1429668, "internal_node_id": "0.0-163.0"}}, {"uniqueid": "MTK0549:3LEIZ60CDK6JEJFFDOVPV5OKLL29Z2", "current_trial": 227, "dateTime": 1511210885187, "trialdata": {"rt": -1000, "stimulus": "/static/audio/wordpool/COFFEE.wav", "key_press": -1, "type": "PRES_AUD", "word": "coffee", "wordID": 340, "conditions": [24, 800, "a", 24000], "trial": 6, "serialpos": 14, "trial_type": "single-audio", "trial_index": 227, "time_elapsed": 1431394, "internal_node_id": "0.0-164.0"}}, {"uniqueid": "MTK0549:3LEIZ60CDK6JEJFFDOVPV5OKLL29Z2", "current_trial": 228, "dateTime": 1511210887095, "trialdata": {"rt": -1000, "stimulus": "/static/audio/wordpool/SODA.wav", "key_press": -1, "type": "PRES_AUD", "word": "soda", "wordID": 1340, "conditions": [24, 800, "a", 24000], "trial": 6, "serialpos": 15, "trial_type": "single-audio", "trial_index": 228, "time_elapsed": 1433302, "internal_node_id": "0.0-165.0"}}, {"uniqueid": "MTK0549:3LEIZ60CDK6JEJFFDOVPV5OKLL29Z2", "current_trial": 229, "dateTime": 1511210888878, "trialdata": {"rt": -1000, "stimulus": "/static/audio/wordpool/SCALPEL.wav", "key_press": -1, "type": "PRES_AUD", "word": "scalpel", "wordID": 1242, "conditions": [24, 800, "a", 24000], "trial": 6, "serialpos": 16, "trial_type": "single-audio", "trial_index": 229, "time_elapsed": 1435084, "internal_node_id": "0.0-166.0"}}, {"uniqueid": "MTK0549:3LEIZ60CDK6JEJFFDOVPV5OKLL29Z2", "current_trial": 230, "dateTime": 1511210890706, "trialdata": {"rt": -1000, "stimulus": "/static/audio/wordpool/DENTIST.wav", "key_press": -1, "type": "PRES_AUD", "word": "dentist", "wordID": 446, "conditions": [24, 800, "a", 24000], "trial": 6, "serialpos": 17, "trial_type": "single-audio", "trial_index": 230, "time_elapsed": 1436913, "internal_node_id": "0.0-167.0"}}, {"uniqueid": "MTK0549:3LEIZ60CDK6JEJFFDOVPV5OKLL29Z2", "current_trial": 231, "dateTime": 1511210892549, "trialdata": {"rt": -1000, "stimulus": "/static/audio/wordpool/CONCERT.wav", "key_press": -1, "type": "PRES_AUD", "word": "concert", "wordID": 359, "conditions": [24, 800, "a", 24000], "trial": 6, "serialpos": 18, "trial_type": "single-audio", "trial_index": 231, "time_elapsed": 1438756, "internal_node_id": "0.0-168.0"}}, {"uniqueid": "MTK0549:3LEIZ60CDK6JEJFFDOVPV5OKLL29Z2", "current_trial": 232, "dateTime": 1511210894418, "trialdata": {"rt": -1000, "stimulus": "/static/audio/wordpool/ASIA.wav", "key_press": -1, "type": "PRES_AUD", "word": "asia", "wordID": 45, "conditions": [24, 800, "a", 24000], "trial": 6, "serialpos": 19, "trial_type": "single-audio", "trial_index": 232, "time_elapsed": 1440625, "internal_node_id": "0.0-169.0"}}, {"uniqueid": "MTK0549:3LEIZ60CDK6JEJFFDOVPV5OKLL29Z2", "current_trial": 233, "dateTime": 1511210896361, "trialdata": {"rt": -1000, "stimulus": "/static/audio/wordpool/TERMITE.wav", "key_press": -1, "type": "PRES_AUD", "word": "termite", "wordID": 1450, "conditions": [24, 800, "a", 24000], "trial": 6, "serialpos": 20, "trial_type": "single-audio", "trial_index": 233, "time_elapsed": 1442568, "internal_node_id": "0.0-170.0"}}, {"uniqueid": "MTK0549:3LEIZ60CDK6JEJFFDOVPV5OKLL29Z2", "current_trial": 234, "dateTime": 1511210898093, "trialdata": {"rt": -1000, "stimulus": "/static/audio/wordpool/CAFE.wav", "key_press": -1, "type": "PRES_AUD", "word": "cafe", "wordID": 215, "conditions": [24, 800, "a", 24000], "trial": 6, "serialpos": 21, "trial_type": "single-audio", "trial_index": 234, "time_elapsed": 1444300, "internal_node_id": "0.0-171.0"}}, {"uniqueid": "MTK0549:3LEIZ60CDK6JEJFFDOVPV5OKLL29Z2", "current_trial": 235, "dateTime": 1511210900063, "trialdata": {"rt": -1000, "stimulus": "/static/audio/wordpool/DONOR.wav", "key_press": -1, "type": "PRES_AUD", "word": "donor", "wordID": 484, "conditions": [24, 800, "a", 24000], "trial": 6, "serialpos": 22, "trial_type": "single-audio", "trial_index": 235, "time_elapsed": 1446270, "internal_node_id": "0.0-172.0"}}, {"uniqueid": "MTK0549:3LEIZ60CDK6JEJFFDOVPV5OKLL29Z2", "current_trial": 236, "dateTime": 1511210901893, "trialdata": {"rt": -1000, "stimulus": "/static/audio/wordpool/SPOUSE.wav", "key_press": -1, "type": "PRES_AUD", "word": "spouse", "wordID": 1357, "conditions": [24, 800, "a", 24000], "trial": 6, "serialpos": 23, "trial_type": "single-audio", "trial_index": 236, "time_elapsed": 1448099, "internal_node_id": "0.0-173.0"}}, {"uniqueid": "MTK0549:3LEIZ60CDK6JEJFFDOVPV5OKLL29Z2", "current_trial": 237, "dateTime": 1511210903188, "trialdata": {"rt": -1, "stimulus": "", "key_press": -1, "type": "PRE_RECALL_DELAY", "trial_type": "single-stim", "trial_index": 237, "time_elapsed": 1449394, "internal_node_id": "0.0-174.0-0.0"}}, {"uniqueid": "MTK0549:3LEIZ60CDK6JEJFFDOVPV5OKLL29Z2", "current_trial": 238, "dateTime": 1511210903695, "trialdata": {"rt": -1000, "stimulus": "/static/audio/400Hz.wav", "key_press": -1, "type": "PRE_RECALL_ALERT", "trial_type": "single-audio", "trial_index": 238, "time_elapsed": 1449902, "internal_node_id": "0.0-175.0"}}, {"uniqueid": "MTK0549:3LEIZ60CDK6JEJFFDOVPV5OKLL29Z2", "current_trial": 239, "dateTime": 1511210963699, "trialdata": {"rt": [2121, 3127, 3751, 4584, 6463, 8297], "recwords": ["donor", "spouse", "cafe", "spider", "donut", "liver"], "type": "FREE_RECALL", "conditions": [24, 800, "a", 24000], "trial": 6, "trial_type": "free-recall", "trial_index": 239, "time_elapsed": 1509904, "internal_node_id": "0.0-176.0-0.0"}}, {"uniqueid": "MTK0549:3LEIZ60CDK6JEJFFDOVPV5OKLL29Z2", "current_trial": 240, "dateTime": 1511210967751, "trialdata": {"rt": 2051, "key_press": 71, "type": "INSTRUCTIONS", "trial_type": "text", "trial_index": 240, "time_elapsed": 1513958, "internal_node_id": "0.0-177.0"}}, {"uniqueid": "MTK0549:3LEIZ60CDK6JEJFFDOVPV5OKLL29Z2", "current_trial": 241, "dateTime": 1511210993755, "trialdata": {"rt": [5694, 9533, 12750, 14718, 16294, 18453, 21398, 22918], "responses": ["17", "6", "21", "18", "10", "16", "19", "19"], "num1": [4, 1, 5, 4, 8, 5, 4, 8, 7], "num2": [8, 2, 7, 7, 1, 6, 9, 8, 5], "num3": [5, 3, 9, 7, 1, 5, 6, 3, 1], "type": "DISTRACTOR", "conditions": [12, 1600, "a", 24000], "trial": 7, "trial_type": "math-distractor", "trial_index": 241, "time_elapsed": 1539962, "internal_node_id": "0.0-178.0"}}, {"uniqueid": "MTK0549:3LEIZ60CDK6JEJFFDOVPV5OKLL29Z2", "current_trial": 242, "dateTime": 1511210996758, "trialdata": {"rt": -1, "stimulus": "<p id=\"stim\">10</p>", "key_press": -1, "trial_type": "single-stim", "trial_index": 242, "time_elapsed": 1542965, "internal_node_id": "0.0-179.0-0.0"}}, {"uniqueid": "MTK0549:3LEIZ60CDK6JEJFFDOVPV5OKLL29Z2", "current_trial": 243, "dateTime": 1511210997758, "trialdata": {"rt": -1, "stimulus": "<p id=\"stim\">9</p>", "key_press": -1, "trial_type": "single-stim", "trial_index": 243, "time_elapsed": 1543965, "internal_node_id": "0.0-179.0-1.0"}}, {"uniqueid": "MTK0549:3LEIZ60CDK6JEJFFDOVPV5OKLL29Z2", "current_trial": 244, "dateTime": 1511210998761, "trialdata": {"rt": -1, "stimulus": "<p id=\"stim\">8</p>", "key_press": -1, "trial_type": "single-stim", "trial_index": 244, "time_elapsed": 1544968, "internal_node_id": "0.0-179.0-2.0"}}, {"uniqueid": "MTK0549:3LEIZ60CDK6JEJFFDOVPV5OKLL29Z2", "current_trial": 245, "dateTime": 1511210999762, "trialdata": {"rt": -1, "stimulus": "<p id=\"stim\">7</p>", "key_press": -1, "trial_type": "single-stim", "trial_index": 245, "time_elapsed": 1545969, "internal_node_id": "0.0-179.0-3.0"}}, {"uniqueid": "MTK0549:3LEIZ60CDK6JEJFFDOVPV5OKLL29Z2", "current_trial": 246, "dateTime": 1511211000763, "trialdata": {"rt": -1, "stimulus": "<p id=\"stim\">6</p>", "key_press": -1, "trial_type": "single-stim", "trial_index": 246, "time_elapsed": 1546970, "internal_node_id": "0.0-179.0-4.0"}}, {"uniqueid": "MTK0549:3LEIZ60CDK6JEJFFDOVPV5OKLL29Z2", "current_trial": 247, "dateTime": 1511211001764, "trialdata": {"rt": -1, "stimulus": "<p id=\"stim\">5</p>", "key_press": -1, "trial_type": "single-stim", "trial_index": 247, "time_elapsed": 1547971, "internal_node_id": "0.0-179.0-5.0"}}, {"uniqueid": "MTK0549:3LEIZ60CDK6JEJFFDOVPV5OKLL29Z2", "current_trial": 248, "dateTime": 1511211002765, "trialdata": {"rt": -1, "stimulus": "<p id=\"stim\">4</p>", "key_press": -1, "trial_type": "single-stim", "trial_index": 248, "time_elapsed": 1548972, "internal_node_id": "0.0-179.0-6.0"}}, {"uniqueid": "MTK0549:3LEIZ60CDK6JEJFFDOVPV5OKLL29Z2", "current_trial": 249, "dateTime": 1511211003766, "trialdata": {"rt": -1, "stimulus": "<p id=\"stim\">3</p>", "key_press": -1, "trial_type": "single-stim", "trial_index": 249, "time_elapsed": 1549972, "internal_node_id": "0.0-179.0-7.0"}}, {"uniqueid": "MTK0549:3LEIZ60CDK6JEJFFDOVPV5OKLL29Z2", "current_trial": 250, "dateTime": 1511211004767, "trialdata": {"rt": -1, "stimulus": "<p id=\"stim\">2</p>", "key_press": -1, "trial_type": "single-stim", "trial_index": 250, "time_elapsed": 1550974, "internal_node_id": "0.0-179.0-8.0"}}, {"uniqueid": "MTK0549:3LEIZ60CDK6JEJFFDOVPV5OKLL29Z2", "current_trial": 251, "dateTime": 1511211005768, "trialdata": {"rt": -1, "stimulus": "<p id=\"stim\">1</p>", "key_press": -1, "trial_type": "single-stim", "trial_index": 251, "time_elapsed": 1551975, "internal_node_id": "0.0-179.0-9.0"}}, {"uniqueid": "MTK0549:3LEIZ60CDK6JEJFFDOVPV5OKLL29Z2", "current_trial": 252, "dateTime": 1511211007270, "trialdata": {"rt": -1, "stimulus": "<p id=\"stim\">+</p>", "key_press": -1, "type": "FIXATION", "trial_type": "single-stim", "trial_index": 252, "time_elapsed": 1553477, "internal_node_id": "0.0-180.0-0.0"}}, {"uniqueid": "MTK0549:3LEIZ60CDK6JEJFFDOVPV5OKLL29Z2", "current_trial": 253, "dateTime": 1511211010012, "trialdata": {"rt": -1000, "stimulus": "/static/audio/wordpool/RAFT.wav", "key_press": -1, "type": "PRES_AUD", "word": "raft", "wordID": 1158, "conditions": [12, 1600, "a", 24000], "trial": 7, "serialpos": 0, "trial_type": "single-audio", "trial_index": 253, "time_elapsed": 1556219, "internal_node_id": "0.0-181.0"}}, {"uniqueid": "MTK0549:3LEIZ60CDK6JEJFFDOVPV5OKLL29Z2", "current_trial": 254, "dateTime": 1511211012525, "trialdata": {"rt": -1000, "stimulus": "/static/audio/wordpool/STAPLE.wav", "key_press": -1, "type": "PRES_AUD", "word": "staple", "wordID": 1370, "conditions": [12, 1600, "a", 24000], "trial": 7, "serialpos": 1, "trial_type": "single-audio", "trial_index": 254, "time_elapsed": 1558732, "internal_node_id": "0.0-182.0"}}, {"uniqueid": "MTK0549:3LEIZ60CDK6JEJFFDOVPV5OKLL29Z2", "current_trial": 255, "dateTime": 1511211015250, "trialdata": {"rt": -1000, "stimulus": "/static/audio/wordpool/BACKBONE.wav", "key_press": -1, "type": "PRES_AUD", "word": "backbone", "wordID": 65, "conditions": [12, 1600, "a", 24000], "trial": 7, "serialpos": 2, "trial_type": "single-audio", "trial_index": 255, "time_elapsed": 1561457, "internal_node_id": "0.0-183.0"}}, {"uniqueid": "MTK0549:3LEIZ60CDK6JEJFFDOVPV5OKLL29Z2", "current_trial": 256, "dateTime": 1511211017920, "trialdata": {"rt": -1000, "stimulus": "/static/audio/wordpool/CHILD.wav", "key_press": -1, "type": "PRES_AUD", "word": "child", "wordID": 298, "conditions": [12, 1600, "a", 24000], "trial": 7, "serialpos": 3, "trial_type": "single-audio", "trial_index": 256, "time_elapsed": 1564127, "internal_node_id": "0.0-184.0"}}, {"uniqueid": "MTK0549:3LEIZ60CDK6JEJFFDOVPV5OKLL29Z2", "current_trial": 257, "dateTime": 1511211020327, "trialdata": {"rt": -1000, "stimulus": "/static/audio/wordpool/BOYFRIEND.wav", "key_press": -1, "type": "PRES_AUD", "word": "boyfriend", "wordID": 161, "conditions": [12, 1600, "a", 24000], "trial": 7, "serialpos": 4, "trial_type": "single-audio", "trial_index": 257, "time_elapsed": 1566534, "internal_node_id": "0.0-185.0"}}, {"uniqueid": "MTK0549:3LEIZ60CDK6JEJFFDOVPV5OKLL29Z2", "current_trial": 258, "dateTime": 1511211022858, "trialdata": {"rt": -1000, "stimulus": "/static/audio/wordpool/COUSIN.wav", "key_press": -1, "type": "PRES_AUD", "word": "cousin", "wordID": 391, "conditions": [12, 1600, "a", 24000], "trial": 7, "serialpos": 5, "trial_type": "single-audio", "trial_index": 258, "time_elapsed": 1569064, "internal_node_id": "0.0-186.0"}}, {"uniqueid": "MTK0549:3LEIZ60CDK6JEJFFDOVPV5OKLL29Z2", "current_trial": 259, "dateTime": 1511211025576, "trialdata": {"rt": -1000, "stimulus": "/static/audio/wordpool/INFANT.wav", "key_press": -1, "type": "PRES_AUD", "word": "infant", "wordID": 736, "conditions": [12, 1600, "a", 24000], "trial": 7, "serialpos": 6, "trial_type": "single-audio", "trial_index": 259, "time_elapsed": 1571783, "internal_node_id": "0.0-187.0"}}, {"uniqueid": "MTK0549:3LEIZ60CDK6JEJFFDOVPV5OKLL29Z2", "current_trial": 260, "dateTime": 1511211028011, "trialdata": {"rt": -1000, "stimulus": "/static/audio/wordpool/FIREPLACE.wav", "key_press": -1, "type": "PRES_AUD", "word": "fireplace", "wordID": 569, "conditions": [12, 1600, "a", 24000], "trial": 7, "serialpos": 7, "trial_type": "single-audio", "trial_index": 260, "time_elapsed": 1574218, "internal_node_id": "0.0-188.0"}}, {"uniqueid": "MTK0549:3LEIZ60CDK6JEJFFDOVPV5OKLL29Z2", "current_trial": 261, "dateTime": 1511211030620, "trialdata": {"rt": -1000, "stimulus": "/static/audio/wordpool/SPHINX.wav", "key_press": -1, "type": "PRES_AUD", "word": "sphinx", "wordID": 1348, "conditions": [12, 1600, "a", 24000], "trial": 7, "serialpos": 8, "trial_type": "single-audio", "trial_index": 261, "time_elapsed": 1576827, "internal_node_id": "0.0-189.0"}}, {"uniqueid": "MTK0549:3LEIZ60CDK6JEJFFDOVPV5OKLL29Z2", "current_trial": 262, "dateTime": 1511211033105, "trialdata": {"rt": -1000, "stimulus": "/static/audio/wordpool/ULCER.wav", "key_press": -1, "type": "PRES_AUD", "word": "ulcer", "wordID": 1532, "conditions": [12, 1600, "a", 24000], "trial": 7, "serialpos": 9, "trial_type": "single-audio", "trial_index": 262, "time_elapsed": 1579312, "internal_node_id": "0.0-190.0"}}, {"uniqueid": "MTK0549:3LEIZ60CDK6JEJFFDOVPV5OKLL29Z2", "current_trial": 263, "dateTime": 1511211035748, "trialdata": {"rt": -1000, "stimulus": "/static/audio/wordpool/CLAMP.wav", "key_press": -1, "type": "PRES_AUD", "word": "clamp", "wordID": 315, "conditions": [12, 1600, "a", 24000], "trial": 7, "serialpos": 10, "trial_type": "single-audio", "trial_index": 263, "time_elapsed": 1581955, "internal_node_id": "0.0-191.0"}}, {"uniqueid": "MTK0549:3LEIZ60CDK6JEJFFDOVPV5OKLL29Z2", "current_trial": 264, "dateTime": 1511211038287, "trialdata": {"rt": -1000, "stimulus": "/static/audio/wordpool/BEAVER.wav", "key_press": -1, "type": "PRES_AUD", "word": "beaver", "wordID": 108, "conditions": [12, 1600, "a", 24000], "trial": 7, "serialpos": 11, "trial_type": "single-audio", "trial_index": 264, "time_elapsed": 1584494, "internal_node_id": "0.0-192.0"}}, {"uniqueid": "MTK0549:3LEIZ60CDK6JEJFFDOVPV5OKLL29Z2", "current_trial": 265, "dateTime": 1511211039649, "trialdata": {"rt": -1, "stimulus": "", "key_press": -1, "type": "PRE_RECALL_DELAY", "trial_type": "single-stim", "trial_index": 265, "time_elapsed": 1585856, "internal_node_id": "0.0-193.0-0.0"}}, {"uniqueid": "MTK0549:3LEIZ60CDK6JEJFFDOVPV5OKLL29Z2", "current_trial": 266, "dateTime": 1511211040158, "trialdata": {"rt": -1000, "stimulus": "/static/audio/400Hz.wav", "key_press": -1, "type": "PRE_RECALL_ALERT", "trial_type": "single-audio", "trial_index": 266, "time_elapsed": 1586365, "internal_node_id": "0.0-194.0"}}, {"uniqueid": "MTK0549:3LEIZ60CDK6JEJFFDOVPV5OKLL29Z2", "current_trial": 267, "dateTime": 1511211100161, "trialdata": {"rt": [1944, 2920, 3792, 5136, 6569, 13080, 13697, 18368], "recwords": ["beaver", "clamp", "ulcer", "cousin", "infant", "backbone", "raft", "trial"], "type": "FREE_RECALL", "conditions": [12, 1600, "a", 24000], "trial": 7, "trial_type": "free-recall", "trial_index": 267, "time_elapsed": 1646366, "internal_node_id": "0.0-195.0-0.0"}}, {"uniqueid": "MTK0549:3LEIZ60CDK6JEJFFDOVPV5OKLL29Z2", "current_trial": 268, "dateTime": 1511211124169, "trialdata": {"rt": 22007, "key_press": 67, "type": "INSTRUCTIONS", "trial_type": "text", "trial_index": 268, "time_elapsed": 1670376, "internal_node_id": "0.0-196.0"}}, {"uniqueid": "MTK0549:3LEIZ60CDK6JEJFFDOVPV5OKLL29Z2", "current_trial": 269, "dateTime": 1511211138172, "trialdata": {"rt": [5214, 7822, 9327], "responses": ["20", "11", "10"], "num1": [3, 2, 1, 9], "num2": [8, 7, 3, 2], "num3": [9, 2, 6, 6], "type": "DISTRACTOR", "conditions": [12, 1600, "v", 12000], "trial": 8, "trial_type": "math-distractor", "trial_index": 269, "time_elapsed": 1684379, "internal_node_id": "0.0-197.0"}}, {"uniqueid": "MTK0549:3LEIZ60CDK6JEJFFDOVPV5OKLL29Z2", "current_trial": 270, "dateTime": 1511211141175, "trialdata": {"rt": -1, "stimulus": "<p id=\"stim\">10</p>", "key_press": -1, "trial_type": "single-stim", "trial_index": 270, "time_elapsed": 1687382, "internal_node_id": "0.0-198.0-0.0"}}, {"uniqueid": "MTK0549:3LEIZ60CDK6JEJFFDOVPV5OKLL29Z2", "current_trial": 271, "dateTime": 1511211142176, "trialdata": {"rt": -1, "stimulus": "<p id=\"stim\">9</p>", "key_press": -1, "trial_type": "single-stim", "trial_index": 271, "time_elapsed": 1688383, "internal_node_id": "0.0-198.0-1.0"}}, {"uniqueid": "MTK0549:3LEIZ60CDK6JEJFFDOVPV5OKLL29Z2", "current_trial": 272, "dateTime": 1511211143178, "trialdata": {"rt": -1, "stimulus": "<p id=\"stim\">8</p>", "key_press": -1, "trial_type": "single-stim", "trial_index": 272, "time_elapsed": 1689385, "internal_node_id": "0.0-198.0-2.0"}}, {"uniqueid": "MTK0549