{"condition": 0, "counterbalance": 2409, "assignmentId": "3TMSXRD2X77XVJ7FYOWPHVCJ8OP1WA", "workerId": "MTK0920", "hitId": "3K3IX1W4S6Y1IEPKSJ6LBI163DMPAE", "currenttrial": 626, "bonus": 0, "data": [{"uniqueid": "MTK0920:3TMSXRD2X77XVJ7FYOWPHVCJ8OP1WA", "current_trial": 0, "dateTime": 1512883381802, "trialdata": {"rt": 1719, "key_press": 32, "type": "INSTRUCTIONS", "trial_type": "text", "trial_index": 0, "time_elapsed": 1724, "internal_node_id": "0.0-0.0"}}, {"uniqueid": "MTK0920:3TMSXRD2X77XVJ7FYOWPHVCJ8OP1WA", "current_trial": 1, "dateTime": 1512883408749, "trialdata": {"rt": 26944, "key_press": 74, "type": "INSTRUCTIONS", "trial_type": "text", "trial_index": 1, "time_elapsed": 28672, "internal_node_id": "0.0-1.0"}}, {"uniqueid": "MTK0920:3TMSXRD2X77XVJ7FYOWPHVCJ8OP1WA", "current_trial": 2, "dateTime": 1512883413026, "trialdata": {"rt": [4266], "responses": ["ocean"], "type": "AUDIO_TEST", "trial_type": "audio-test", "trial_index": 2, "time_elapsed": 32949, "internal_node_id": "0.0-2.0"}}, {"uniqueid": "MTK0920:3TMSXRD2X77XVJ7FYOWPHVCJ8OP1WA", "current_trial": 3, "dateTime": 1512883424795, "trialdata": {"rt": [6773, 11765], "responses": ["crystalz", "crystal"], "type": "AUDIO_TEST", "trial_type": "audio-test", "trial_index": 3, "time_elapsed": 44718, "internal_node_id": "0.0-3.0"}}, {"uniqueid": "MTK0920:3TMSXRD2X77XVJ7FYOWPHVCJ8OP1WA", "current_trial": 4, "dateTime": 1512883430952, "trialdata": {"rt": [6154], "responses": ["spice"], "type": "AUDIO_TEST", "trial_type": "audio-test", "trial_index": 4, "time_elapsed": 50875, "internal_node_id": "0.0-4.0"}}, {"uniqueid": "MTK0920:3TMSXRD2X77XVJ7FYOWPHVCJ8OP1WA", "current_trial": 5, "dateTime": 1512883447184, "trialdata": {"rt": 15478, "responses": "{\"Q0\":\"3am\",\"Q1\":\"7am\",\"Q2\":\"5\"}", "type": "SLEEP_SURVEY", "trial_type": "survey-text", "trial_index": 5, "time_elapsed": 67107, "internal_node_id": "0.0-5.0"}}, {"uniqueid": "MTK0920:3TMSXRD2X77XVJ7FYOWPHVCJ8OP1WA", "current_trial": 6, "dateTime": 1512883485858, "trialdata": {"rt": 37672, "key_press": 71, "type": "INSTRUCTIONS", "trial_type": "text", "trial_index": 6, "time_elapsed": 105781, "internal_node_id": "0.0-6.0"}}, {"uniqueid": "MTK0920:3TMSXRD2X77XVJ7FYOWPHVCJ8OP1WA", "current_trial": 7, "dateTime": 1512883500230, "trialdata": {"rt": 13867, "key_press": 70, "type": "INSTRUCTIONS", "trial_type": "text", "trial_index": 7, "time_elapsed": 120153, "internal_node_id": "0.0-7.0"}}, {"uniqueid": "MTK0920:3TMSXRD2X77XVJ7FYOWPHVCJ8OP1WA", "current_trial": 8, "dateTime": 1512883505474, "trialdata": {"rt": 4741, "key_press": 70, "type": "INSTRUCTIONS", "trial_type": "text", "trial_index": 8, "time_elapsed": 125396, "internal_node_id": "0.0-8.0"}}, {"uniqueid": "MTK0920:3TMSXRD2X77XVJ7FYOWPHVCJ8OP1WA", "current_trial": 9, "dateTime": 1512883524482, "trialdata": {"rt": [2606, 3979, 5639, 7203, 8780, 10171, 12594, 14025, 16762], "responses": ["12", "11", "19", "15", "15", "12", "25", "21", "16"], "num1": [2, 3, 7, 7, 8, 2, 9, 5, 4, 2], "num2": [3, 3, 5, 3, 6, 4, 9, 7, 3, 6], "num3": [7, 5, 7, 5, 1, 6, 7, 9, 9, 7], "type": "DISTRACTOR", "conditions": [18, 1200, "a", 18000], "trial": 0, "trial_type": "math-distractor", "trial_index": 9, "time_elapsed": 144405, "internal_node_id": "0.0-9.0"}}, {"uniqueid": "MTK0920:3TMSXRD2X77XVJ7FYOWPHVCJ8OP1WA", "current_trial": 10, "dateTime": 1512883527487, "trialdata": {"rt": -1, "stimulus": "<p id=\"stim\">10</p>", "key_press": -1, "trial_type": "single-stim", "trial_index": 10, "time_elapsed": 147410, "internal_node_id": "0.0-10.0-0.0"}}, {"uniqueid": "MTK0920:3TMSXRD2X77XVJ7FYOWPHVCJ8OP1WA", "current_trial": 11, "dateTime": 1512883528491, "trialdata": {"rt": -1, "stimulus": "<p id=\"stim\">9</p>", "key_press": -1, "trial_type": "single-stim", "trial_index": 11, "time_elapsed": 148413, "internal_node_id": "0.0-10.0-1.0"}}, {"uniqueid": "MTK0920:3TMSXRD2X77XVJ7FYOWPHVCJ8OP1WA", "current_trial": 12, "dateTime": 1512883529495, "trialdata": {"rt": -1, "stimulus": "<p id=\"stim\">8</p>", "key_press": -1, "trial_type": "single-stim", "trial_index": 12, "time_elapsed": 149417, "internal_node_id": "0.0-10.0-2.0"}}, {"uniqueid": "MTK0920:3TMSXRD2X77XVJ7FYOWPHVCJ8OP1WA", "current_trial": 13, "dateTime": 1512883530497, "trialdata": {"rt": 590, "stimulus": "<p id=\"stim\">7</p>", "key_press": 175, "trial_type": "single-stim", "trial_index": 13, "time_elapsed": 150420, "internal_node_id": "0.0-10.0-3.0"}}, {"uniqueid": "MTK0920:3TMSXRD2X77XVJ7FYOWPHVCJ8OP1WA", "current_trial": 14, "dateTime": 1512883531500, "trialdata": {"rt": 70, "stimulus": "<p id=\"stim\">6</p>", "key_press": 175, "trial_type": "single-stim", "trial_index": 14, "time_elapsed": 151422, "internal_node_id": "0.0-10.0-4.0"}}, {"uniqueid": "MTK0920:3TMSXRD2X77XVJ7FYOWPHVCJ8OP1WA", "current_trial": 15, "dateTime": 1512883532505, "trialdata": {"rt": 96, "stimulus": "<p id=\"stim\">5</p>", "key_press": 175, "trial_type": "single-stim", "trial_index": 15, "time_elapsed": 152428, "internal_node_id": "0.0-10.0-5.0"}}, {"uniqueid": "MTK0920:3TMSXRD2X77XVJ7FYOWPHVCJ8OP1WA", "current_trial": 16, "dateTime": 1512883533509, "trialdata": {"rt": -1, "stimulus": "<p id=\"stim\">4</p>", "key_press": -1, "trial_type": "single-stim", "trial_index": 16, "time_elapsed": 153431, "internal_node_id": "0.0-10.0-6.0"}}, {"uniqueid": "MTK0920:3TMSXRD2X77XVJ7FYOWPHVCJ8OP1WA", "current_trial": 17, "dateTime": 1512883534511, "trialdata": {"rt": -1, "stimulus": "<p id=\"stim\">3</p>", "key_press": -1, "trial_type": "single-stim", "trial_index": 17, "time_elapsed": 154434, "internal_node_id": "0.0-10.0-7.0"}}, {"uniqueid": "MTK0920:3TMSXRD2X77XVJ7FYOWPHVCJ8OP1WA", "current_trial": 18, "dateTime": 1512883535514, "trialdata": {"rt": -1, "stimulus": "<p id=\"stim\">2</p>", "key_press": -1, "trial_type": "single-stim", "trial_index": 18, "time_elapsed": 155437, "internal_node_id": "0.0-10.0-8.0"}}, {"uniqueid": "MTK0920:3TMSXRD2X77XVJ7FYOWPHVCJ8OP1WA", "current_trial": 19, "dateTime": 1512883536516, "trialdata": {"rt": -1, "stimulus": "<p id=\"stim\">1</p>", "key_press": -1, "trial_type": "single-stim", "trial_index": 19, "time_elapsed": 156439, "internal_node_id": "0.0-10.0-9.0"}}, {"uniqueid": "MTK0920:3TMSXRD2X77XVJ7FYOWPHVCJ8OP1WA", "current_trial": 20, "dateTime": 1512883538019, "trialdata": {"rt": -1, "stimulus": "<p id=\"stim\">+</p>", "key_press": -1, "type": "FIXATION", "trial_type": "single-stim", "trial_index": 20, "time_elapsed": 157941, "internal_node_id": "0.0-11.0-0.0"}}, {"uniqueid": "MTK0920:3TMSXRD2X77XVJ7FYOWPHVCJ8OP1WA", "current_trial": 21, "dateTime": 1512883540036, "trialdata": {"rt": -1000, "stimulus": "/static/audio/wordpool/MUMMY.wav", "key_press": -1, "type": "PRES_AUD", "word": "mummy", "wordID": 931, "conditions": [18, 1200, "a", 18000], "trial": 0, "serialpos": 0, "trial_type": "single-audio", "trial_index": 21, "time_elapsed": 159958, "internal_node_id": "0.0-12.0"}}, {"uniqueid": "MTK0920:3TMSXRD2X77XVJ7FYOWPHVCJ8OP1WA", "current_trial": 22, "dateTime": 1512883542151, "trialdata": {"rt": -1000, "stimulus": "/static/audio/wordpool/SURVEY.wav", "key_press": -1, "type": "PRES_AUD", "word": "survey", "wordID": 1413, "conditions": [18, 1200, "a", 18000], "trial": 0, "serialpos": 1, "trial_type": "single-audio", "trial_index": 22, "time_elapsed": 162074, "internal_node_id": "0.0-13.0"}}, {"uniqueid": "MTK0920:3TMSXRD2X77XVJ7FYOWPHVCJ8OP1WA", "current_trial": 23, "dateTime": 1512883544484, "trialdata": {"rt": -1000, "stimulus": "/static/audio/wordpool/MAMMAL.wav", "key_press": -1, "type": "PRES_AUD", "word": "mammal", "wordID": 860, "conditions": [18, 1200, "a", 18000], "trial": 0, "serialpos": 2, "trial_type": "single-audio", "trial_index": 23, "time_elapsed": 164406, "internal_node_id": "0.0-14.0"}}, {"uniqueid": "MTK0920:3TMSXRD2X77XVJ7FYOWPHVCJ8OP1WA", "current_trial": 24, "dateTime": 1512883546613, "trialdata": {"rt": -1000, "stimulus": "/static/audio/wordpool/MESSAGE.wav", "key_press": -1, "type": "PRES_AUD", "word": "message", "wordID": 887, "conditions": [18, 1200, "a", 18000], "trial": 0, "serialpos": 3, "trial_type": "single-audio", "trial_index": 24, "time_elapsed": 166536, "internal_node_id": "0.0-15.0"}}, {"uniqueid": "MTK0920:3TMSXRD2X77XVJ7FYOWPHVCJ8OP1WA", "current_trial": 25, "dateTime": 1512883548785, "trialdata": {"rt": -1000, "stimulus": "/static/audio/wordpool/FRAGRANCE.wav", "key_press": -1, "type": "PRES_AUD", "word": "fragrance", "wordID": 598, "conditions": [18, 1200, "a", 18000], "trial": 0, "serialpos": 4, "trial_type": "single-audio", "trial_index": 25, "time_elapsed": 168708, "internal_node_id": "0.0-16.0"}}, {"uniqueid": "MTK0920:3TMSXRD2X77XVJ7FYOWPHVCJ8OP1WA", "current_trial": 26, "dateTime": 1512883551171, "trialdata": {"rt": -1000, "stimulus": "/static/audio/wordpool/FARMER.wav", "key_press": -1, "type": "PRES_AUD", "word": "farmer", "wordID": 552, "conditions": [18, 1200, "a", 18000], "trial": 0, "serialpos": 5, "trial_type": "single-audio", "trial_index": 26, "time_elapsed": 171094, "internal_node_id": "0.0-17.0"}}, {"uniqueid": "MTK0920:3TMSXRD2X77XVJ7FYOWPHVCJ8OP1WA", "current_trial": 27, "dateTime": 1512883553513, "trialdata": {"rt": -1000, "stimulus": "/static/audio/wordpool/BEEF.wav", "key_press": -1, "type": "PRES_AUD", "word": "beef", "wordID": 112, "conditions": [18, 1200, "a", 18000], "trial": 0, "serialpos": 6, "trial_type": "single-audio", "trial_index": 27, "time_elapsed": 173435, "internal_node_id": "0.0-18.0"}}, {"uniqueid": "MTK0920:3TMSXRD2X77XVJ7FYOWPHVCJ8OP1WA", "current_trial": 28, "dateTime": 1512883555598, "trialdata": {"rt": -1000, "stimulus": "/static/audio/wordpool/CHEMIST.wav", "key_press": -1, "type": "PRES_AUD", "word": "chemist", "wordID": 291, "conditions": [18, 1200, "a", 18000], "trial": 0, "serialpos": 7, "trial_type": "single-audio", "trial_index": 28, "time_elapsed": 175520, "internal_node_id": "0.0-19.0"}}, {"uniqueid": "MTK0920:3TMSXRD2X77XVJ7FYOWPHVCJ8OP1WA", "current_trial": 29, "dateTime": 1512883557834, "trialdata": {"rt": -1000, "stimulus": "/static/audio/wordpool/COD.wav", "key_press": -1, "type": "PRES_AUD", "word": "cod", "wordID": 339, "conditions": [18, 1200, "a", 18000], "trial": 0, "serialpos": 8, "trial_type": "single-audio", "trial_index": 29, "time_elapsed": 177757, "internal_node_id": "0.0-20.0"}}, {"uniqueid": "MTK0920:3TMSXRD2X77XVJ7FYOWPHVCJ8OP1WA", "current_trial": 30, "dateTime": 1512883559915, "trialdata": {"rt": -1000, "stimulus": "/static/audio/wordpool/HAWK.wav", "key_press": -1, "type": "PRES_AUD", "word": "hawk", "wordID": 691, "conditions": [18, 1200, "a", 18000], "trial": 0, "serialpos": 9, "trial_type": "single-audio", "trial_index": 30, "time_elapsed": 179838, "internal_node_id": "0.0-21.0"}}, {"uniqueid": "MTK0920:3TMSXRD2X77XVJ7FYOWPHVCJ8OP1WA", "current_trial": 31, "dateTime": 1512883562002, "trialdata": {"rt": -1000, "stimulus": "/static/audio/wordpool/COUNTRY.wav", "key_press": -1, "type": "PRES_AUD", "word": "country", "wordID": 387, "conditions": [18, 1200, "a", 18000], "trial": 0, "serialpos": 10, "trial_type": "single-audio", "trial_index": 31, "time_elapsed": 181925, "internal_node_id": "0.0-22.0"}}, {"uniqueid": "MTK0920:3TMSXRD2X77XVJ7FYOWPHVCJ8OP1WA", "current_trial": 32, "dateTime": 1512883564370, "trialdata": {"rt": -1000, "stimulus": "/static/audio/wordpool/JAPAN.wav", "key_press": -1, "type": "PRES_AUD", "word": "japan", "wordID": 748, "conditions": [18, 1200, "a", 18000], "trial": 0, "serialpos": 11, "trial_type": "single-audio", "trial_index": 32, "time_elapsed": 184293, "internal_node_id": "0.0-23.0"}}, {"uniqueid": "MTK0920:3TMSXRD2X77XVJ7FYOWPHVCJ8OP1WA", "current_trial": 33, "dateTime": 1512883566742, "trialdata": {"rt": -1000, "stimulus": "/static/audio/wordpool/RIVER.wav", "key_press": -1, "type": "PRES_AUD", "word": "river", "wordID": 1193, "conditions": [18, 1200, "a", 18000], "trial": 0, "serialpos": 12, "trial_type": "single-audio", "trial_index": 33, "time_elapsed": 186665, "internal_node_id": "0.0-24.0"}}, {"uniqueid": "MTK0920:3TMSXRD2X77XVJ7FYOWPHVCJ8OP1WA", "current_trial": 34, "dateTime": 1512883568993, "trialdata": {"rt": -1000, "stimulus": "/static/audio/wordpool/YARN.wav", "key_press": -1, "type": "PRES_AUD", "word": "yarn", "wordID": 1630, "conditions": [18, 1200, "a", 18000], "trial": 0, "serialpos": 13, "trial_type": "single-audio", "trial_index": 34, "time_elapsed": 188915, "internal_node_id": "0.0-25.0"}}, {"uniqueid": "MTK0920:3TMSXRD2X77XVJ7FYOWPHVCJ8OP1WA", "current_trial": 35, "dateTime": 1512883571275, "trialdata": {"rt": -1000, "stimulus": "/static/audio/wordpool/DRILL.wav", "key_press": -1, "type": "PRES_AUD", "word": "drill", "wordID": 496, "conditions": [18, 1200, "a", 18000], "trial": 0, "serialpos": 14, "trial_type": "single-audio", "trial_index": 35, "time_elapsed": 191198, "internal_node_id": "0.0-26.0"}}, {"uniqueid": "MTK0920:3TMSXRD2X77XVJ7FYOWPHVCJ8OP1WA", "current_trial": 36, "dateTime": 1512883573657, "trialdata": {"rt": -1000, "stimulus": "/static/audio/wordpool/GRAVE.wav", "key_press": -1, "type": "PRES_AUD", "word": "grave", "wordID": 657, "conditions": [18, 1200, "a", 18000], "trial": 0, "serialpos": 15, "trial_type": "single-audio", "trial_index": 36, "time_elapsed": 193580, "internal_node_id": "0.0-27.0"}}, {"uniqueid": "MTK0920:3TMSXRD2X77XVJ7FYOWPHVCJ8OP1WA", "current_trial": 37, "dateTime": 1512883575898, "trialdata": {"rt": -1000, "stimulus": "/static/audio/wordpool/KITCHEN.wav", "key_press": -1, "type": "PRES_AUD", "word": "kitchen", "wordID": 777, "conditions": [18, 1200, "a", 18000], "trial": 0, "serialpos": 16, "trial_type": "single-audio", "trial_index": 37, "time_elapsed": 195821, "internal_node_id": "0.0-28.0"}}, {"uniqueid": "MTK0920:3TMSXRD2X77XVJ7FYOWPHVCJ8OP1WA", "current_trial": 38, "dateTime": 1512883578088, "trialdata": {"rt": -1000, "stimulus": "/static/audio/wordpool/HARP.wav", "key_press": -1, "type": "PRES_AUD", "word": "harp", "wordID": 688, "conditions": [18, 1200, "a", 18000], "trial": 0, "serialpos": 17, "trial_type": "single-audio", "trial_index": 38, "time_elapsed": 198011, "internal_node_id": "0.0-29.0"}}, {"uniqueid": "MTK0920:3TMSXRD2X77XVJ7FYOWPHVCJ8OP1WA", "current_trial": 39, "dateTime": 1512883579295, "trialdata": {"rt": -1, "stimulus": "", "key_press": -1, "type": "PRE_RECALL_DELAY", "trial_type": "single-stim", "trial_index": 39, "time_elapsed": 199218, "internal_node_id": "0.0-30.0-0.0"}}, {"uniqueid": "MTK0920:3TMSXRD2X77XVJ7FYOWPHVCJ8OP1WA", "current_trial": 40, "dateTime": 1512883579800, "trialdata": {"rt": -1000, "stimulus": "/static/audio/400Hz.wav", "key_press": -1, "type": "PRE_RECALL_ALERT", "trial_type": "single-audio", "trial_index": 40, "time_elapsed": 199723, "internal_node_id": "0.0-31.0"}}, {"uniqueid": "MTK0920:3TMSXRD2X77XVJ7FYOWPHVCJ8OP1WA", "current_trial": 41, "dateTime": 1512883639814, "trialdata": {"rt": [1585, 4306, 6263, 7939, 10623, 20419, 23684, 26427, 32670], "recwords": ["harp", "mummy", "survey", "beef", "japan", "mammal", "cod", "harp", "hawk"], "type": "FREE_RECALL", "conditions": [18, 1200, "a", 18000], "trial": 0, "trial_type": "free-recall", "trial_index": 41, "time_elapsed": 259730, "internal_node_id": "0.0-32.0-0.0"}}, {"uniqueid": "MTK0920:3TMSXRD2X77XVJ7FYOWPHVCJ8OP1WA", "current_trial": 42, "dateTime": 1512883647963, "trialdata": {"rt": 6146, "key_press": 32, "type": "INSTRUCTIONS", "trial_type": "text", "trial_index": 42, "time_elapsed": 267886, "internal_node_id": "0.0-33.0"}}, {"uniqueid": "MTK0920:3TMSXRD2X77XVJ7FYOWPHVCJ8OP1WA", "current_trial": 43, "dateTime": 1512883667972, "trialdata": {"rt": [1761, 3228, 5212, 6660, 8814, 10226, 11394, 13016, 14829, 16719], "responses": ["10", "8", "7", "10", "11", "19", "15", "21", "13", "13"], "num1": [8, 2, 4, 4, 5, 4, 1, 8, 8, 8, 5], "num2": [1, 3, 2, 5, 2, 7, 7, 9, 2, 1, 3], "num3": [1, 3, 1, 1, 4, 8, 7, 4, 3, 4, 7], "type": "DISTRACTOR", "conditions": [18, 1200, "v", 18000], "trial": 1, "trial_type": "math-distractor", "trial_index": 43, "time_elapsed": 287895, "internal_node_id": "0.0-34.0"}}, {"uniqueid": "MTK0920:3TMSXRD2X77XVJ7FYOWPHVCJ8OP1WA", "current_trial": 44, "dateTime": 1512883670976, "trialdata": {"rt": -1, "stimulus": "<p id=\"stim\">10</p>", "key_press": -1, "trial_type": "single-stim", "trial_index": 44, "time_elapsed": 290898, "internal_node_id": "0.0-35.0-0.0"}}, {"uniqueid": "MTK0920:3TMSXRD2X77XVJ7FYOWPHVCJ8OP1WA", "current_trial": 45, "dateTime": 1512883671978, "trialdata": {"rt": -1, "stimulus": "<p id=\"stim\">9</p>", "key_press": -1, "trial_type": "single-stim", "trial_index": 45, "time_elapsed": 291901, "internal_node_id": "0.0-35.0-1.0"}}, {"uniqueid": "MTK0920:3TMSXRD2X77XVJ7FYOWPHVCJ8OP1WA", "current_trial": 46, "dateTime": 1512883672982, "trialdata": {"rt": -1, "stimulus": "<p id=\"stim\">8</p>", "key_press": -1, "trial_type": "single-stim", "trial_index": 46, "time_elapsed": 292904, "internal_node_id": "0.0-35.0-2.0"}}, {"uniqueid": "MTK0920:3TMSXRD2X77XVJ7FYOWPHVCJ8OP1WA", "current_trial": 47, "dateTime": 1512883673985, "trialdata": {"rt": -1, "stimulus": "<p id=\"stim\">7</p>", "key_press": -1, "trial_type": "single-stim", "trial_index": 47, "time_elapsed": 293907, "internal_node_id": "0.0-35.0-3.0"}}, {"uniqueid": "MTK0920:3TMSXRD2X77XVJ7FYOWPHVCJ8OP1WA", "current_trial": 48, "dateTime": 1512883674987, "trialdata": {"rt": -1, "stimulus": "<p id=\"stim\">6</p>", "key_press": -1, "trial_type": "single-stim", "trial_index": 48, "time_elapsed": 294910, "internal_node_id": "0.0-35.0-4.0"}}, {"uniqueid": "MTK0920:3TMSXRD2X77XVJ7FYOWPHVCJ8OP1WA", "current_trial": 49, "dateTime": 1512883675992, "trialdata": {"rt": -1, "stimulus": "<p id=\"stim\">5</p>", "key_press": -1, "trial_type": "single-stim", "trial_index": 49, "time_elapsed": 295914, "internal_node_id": "0.0-35.0-5.0"}}, {"uniqueid": "MTK0920:3TMSXRD2X77XVJ7FYOWPHVCJ8OP1WA", "current_trial": 50, "dateTime": 1512883676995, "trialdata": {"rt": -1, "stimulus": "<p id=\"stim\">4</p>", "key_press": -1, "trial_type": "single-stim", "trial_index": 50, "time_elapsed": 296917, "internal_node_id": "0.0-35.0-6.0"}}, {"uniqueid": "MTK0920:3TMSXRD2X77XVJ7FYOWPHVCJ8OP1WA", "current_trial": 51, "dateTime": 1512883677997, "trialdata": {"rt": -1, "stimulus": "<p id=\"stim\">3</p>", "key_press": -1, "trial_type": "single-stim", "trial_index": 51, "time_elapsed": 297920, "internal_node_id": "0.0-35.0-7.0"}}, {"uniqueid": "MTK0920:3TMSXRD2X77XVJ7FYOWPHVCJ8OP1WA", "current_trial": 52, "dateTime": 1512883679011, "trialdata": {"rt": -1, "stimulus": "<p id=\"stim\">2</p>", "key_press": -1, "trial_type": "single-stim", "trial_index": 52, "time_elapsed": 298934, "internal_node_id": "0.0-35.0-8.0"}}, {"uniqueid": "MTK0920:3TMSXRD2X77XVJ7FYOWPHVCJ8OP1WA", "current_trial": 53, "dateTime": 1512883680051, "trialdata": {"rt": -1, "stimulus": "<p id=\"stim\">1</p>", "key_press": -1, "trial_type": "single-stim", "trial_index": 53, "time_elapsed": 299974, "internal_node_id": "0.0-35.0-9.0"}}, {"uniqueid": "MTK0920:3TMSXRD2X77XVJ7FYOWPHVCJ8OP1WA", "current_trial": 54, "dateTime": 1512883681555, "trialdata": {"rt": -1, "stimulus": "<p id=\"stim\">+</p>", "key_press": -1, "type": "FIXATION", "trial_type": "single-stim", "trial_index": 54, "time_elapsed": 301477, "internal_node_id": "0.0-36.0-0.0"}}, {"uniqueid": "MTK0920:3TMSXRD2X77XVJ7FYOWPHVCJ8OP1WA", "current_trial": 55, "dateTime": 1512883682757, "trialdata": {"rt": -1, "stimulus": "<p id=\"stim\">RAFT</p>", "key_press": -1, "type": "PRES_VIS", "word": "raft", "wordID": 1158, "conditions": [18, 1200, "v", 18000], "trial": 1, "serialpos": 0, "trial_type": "single-stim", "trial_index": 55, "time_elapsed": 302680, "internal_node_id": "0.0-37.0"}}, {"uniqueid": "MTK0920:3TMSXRD2X77XVJ7FYOWPHVCJ8OP1WA", "current_trial": 56, "dateTime": 1512883684824, "trialdata": {"rt": -1, "stimulus": "<p id=\"stim\">CASHEW</p>", "key_press": -1, "type": "PRES_VIS", "word": "cashew", "wordID": 252, "conditions": [18, 1200, "v", 18000], "trial": 1, "serialpos": 1, "trial_type": "single-stim", "trial_index": 56, "time_elapsed": 304746, "internal_node_id": "0.0-38.0"}}, {"uniqueid": "MTK0920:3TMSXRD2X77XVJ7FYOWPHVCJ8OP1WA", "current_trial": 57, "dateTime": 1512883687068, "trialdata": {"rt": -1, "stimulus": "<p id=\"stim\">LAMP</p>", "key_press": -1, "type": "PRES_VIS", "word": "lamp", "wordID": 797, "conditions": [18, 1200, "v", 18000], "trial": 1, "serialpos": 2, "trial_type": "single-stim", "trial_index": 57, "time_elapsed": 306991, "internal_node_id": "0.0-39.0"}}, {"uniqueid": "MTK0920:3TMSXRD2X77XVJ7FYOWPHVCJ8OP1WA", "current_trial": 58, "dateTime": 1512883689395, "trialdata": {"rt": -1, "stimulus": "<p id=\"stim\">COBRA</p>", "key_press": -1, "type": "PRES_VIS", "word": "cobra", "wordID": 335, "conditions": [18, 1200, "v", 18000], "trial": 1, "serialpos": 3, "trial_type": "single-stim", "trial_index": 58, "time_elapsed": 309318, "internal_node_id": "0.0-40.0"}}, {"uniqueid": "MTK0920:3TMSXRD2X77XVJ7FYOWPHVCJ8OP1WA", "current_trial": 59, "dateTime": 1512883691453, "trialdata": {"rt": -1, "stimulus": "<p id=\"stim\">TURKEY</p>", "key_press": -1, "type": "PRES_VIS", "word": "turkey", "wordID": 1519, "conditions": [18, 1200, "v", 18000], "trial": 1, "serialpos": 4, "trial_type": "single-stim", "trial_index": 59, "time_elapsed": 311375, "internal_node_id": "0.0-41.0"}}, {"uniqueid": "MTK0920:3TMSXRD2X77XVJ7FYOWPHVCJ8OP1WA", "current_trial": 60, "dateTime": 1512883693765, "trialdata": {"rt": -1, "stimulus": "<p id=\"stim\">CROSS</p>", "key_press": -1, "type": "PRES_VIS", "word": "cross", "wordID": 412, "conditions": [18, 1200, "v", 18000], "trial": 1, "serialpos": 5, "trial_type": "single-stim", "trial_index": 60, "time_elapsed": 313687, "internal_node_id": "0.0-42.0"}}, {"uniqueid": "MTK0920:3TMSXRD2X77XVJ7FYOWPHVCJ8OP1WA", "current_trial": 61, "dateTime": 1512883696136, "trialdata": {"rt": -1, "stimulus": "<p id=\"stim\">CLAMP</p>", "key_press": -1, "type": "PRES_VIS", "word": "clamp", "wordID": 315, "conditions": [18, 1200, "v", 18000], "trial": 1, "serialpos": 6, "trial_type": "single-stim", "trial_index": 61, "time_elapsed": 316059, "internal_node_id": "0.0-43.0"}}, {"uniqueid": "MTK0920:3TMSXRD2X77XVJ7FYOWPHVCJ8OP1WA", "current_trial": 62, "dateTime": 1512883698397, "trialdata": {"rt": -1, "stimulus": "<p id=\"stim\">SEAL</p>", "key_press": -1, "type": "PRES_VIS", "word": "seal", "wordID": 1261, "conditions": [18, 1200, "v", 18000], "trial": 1, "serialpos": 7, "trial_type": "single-stim", "trial_index": 62, "time_elapsed": 318319, "internal_node_id": "0.0-44.0"}}, {"uniqueid": "MTK0920:3TMSXRD2X77XVJ7FYOWPHVCJ8OP1WA", "current_trial": 63, "dateTime": 1512883700799, "trialdata": {"rt": -1, "stimulus": "<p id=\"stim\">BALLOON</p>", "key_press": -1, "type": "PRES_VIS", "word": "balloon", "wordID": 74, "conditions": [18, 1200, "v", 18000], "trial": 1, "serialpos": 8, "trial_type": "single-stim", "trial_index": 63, "time_elapsed": 320721, "internal_node_id": "0.0-45.0"}}, {"uniqueid": "MTK0920:3TMSXRD2X77XVJ7FYOWPHVCJ8OP1WA", "current_trial": 64, "dateTime": 1512883703199, "trialdata": {"rt": -1, "stimulus": "<p id=\"stim\">KLEENEX</p>", "key_press": -1, "type": "PRES_VIS", "word": "kleenex", "wordID": 781, "conditions": [18, 1200, "v", 18000], "trial": 1, "serialpos": 9, "trial_type": "single-stim", "trial_index": 64, "time_elapsed": 323121, "internal_node_id": "0.0-46.0"}}, {"uniqueid": "MTK0920:3TMSXRD2X77XVJ7FYOWPHVCJ8OP1WA", "current_trial": 65, "dateTime": 1512883705223, "trialdata": {"rt": -1, "stimulus": "<p id=\"stim\">TURTLE</p>", "key_press": -1, "type": "PRES_VIS", "word": "turtle", "wordID": 1521, "conditions": [18, 1200, "v", 18000], "trial": 1, "serialpos": 10, "trial_type": "single-stim", "trial_index": 65, "time_elapsed": 325145, "internal_node_id": "0.0-47.0"}}, {"uniqueid": "MTK0920:3TMSXRD2X77XVJ7FYOWPHVCJ8OP1WA", "current_trial": 66, "dateTime": 1512883707251, "trialdata": {"rt": -1, "stimulus": "<p id=\"stim\">VAGRANT</p>", "key_press": -1, "type": "PRES_VIS", "word": "vagrant", "wordID": 1543, "conditions": [18, 1200, "v", 18000], "trial": 1, "serialpos": 11, "trial_type": "single-stim", "trial_index": 66, "time_elapsed": 327174, "internal_node_id": "0.0-48.0"}}, {"uniqueid": "MTK0920:3TMSXRD2X77XVJ7FYOWPHVCJ8OP1WA", "current_trial": 67, "dateTime": 1512883709408, "trialdata": {"rt": -1, "stimulus": "<p id=\"stim\">ELBOW</p>", "key_press": -1, "type": "PRES_VIS", "word": "elbow", "wordID": 519, "conditions": [18, 1200, "v", 18000], "trial": 1, "serialpos": 12, "trial_type": "single-stim", "trial_index": 67, "time_elapsed": 329331, "internal_node_id": "0.0-49.0"}}, {"uniqueid": "MTK0920:3TMSXRD2X77XVJ7FYOWPHVCJ8OP1WA", "current_trial": 68, "dateTime": 1512883711777, "trialdata": {"rt": -1, "stimulus": "<p id=\"stim\">AWARD</p>", "key_press": -1, "type": "PRES_VIS", "word": "award", "wordID": 62, "conditions": [18, 1200, "v", 18000], "trial": 1, "serialpos": 13, "trial_type": "single-stim", "trial_index": 68, "time_elapsed": 331694, "internal_node_id": "0.0-50.0"}}, {"uniqueid": "MTK0920:3TMSXRD2X77XVJ7FYOWPHVCJ8OP1WA", "current_trial": 69, "dateTime": 1512883713982, "trialdata": {"rt": -1, "stimulus": "<p id=\"stim\">TRANSPLANT</p>", "key_press": -1, "type": "PRES_VIS", "word": "transplant", "wordID": 1495, "conditions": [18, 1200, "v", 18000], "trial": 1, "serialpos": 14, "trial_type": "single-stim", "trial_index": 69, "time_elapsed": 333905, "internal_node_id": "0.0-51.0"}}, {"uniqueid": "MTK0920:3TMSXRD2X77XVJ7FYOWPHVCJ8OP1WA", "current_trial": 70, "dateTime": 1512883715991, "trialdata": {"rt": -1, "stimulus": "<p id=\"stim\">LAVA</p>", "key_press": -1, "type": "PRES_VIS", "word": "lava", "wordID": 803, "conditions": [18, 1200, "v", 18000], "trial": 1, "serialpos": 15, "trial_type": "single-stim", "trial_index": 70, "time_elapsed": 335913, "internal_node_id": "0.0-52.0"}}, {"uniqueid": "MTK0920:3TMSXRD2X77XVJ7FYOWPHVCJ8OP1WA", "current_trial": 71, "dateTime": 1512883718156, "trialdata": {"rt": -1, "stimulus": "<p id=\"stim\">NOTEBOOK</p>", "key_press": -1, "type": "PRES_VIS", "word": "notebook", "wordID": 958, "conditions": [18, 1200, "v", 18000], "trial": 1, "serialpos": 16, "trial_type": "single-stim", "trial_index": 71, "time_elapsed": 338079, "internal_node_id": "0.0-53.0"}}, {"uniqueid": "MTK0920:3TMSXRD2X77XVJ7FYOWPHVCJ8OP1WA", "current_trial": 72, "dateTime": 1512883720335, "trialdata": {"rt": -1, "stimulus": "<p id=\"stim\">WITNESS</p>", "key_press": -1, "type": "PRES_VIS", "word": "witness", "wordID": 1617, "conditions": [18, 1200, "v", 18000], "trial": 1, "serialpos": 17, "trial_type": "single-stim", "trial_index": 72, "time_elapsed": 340258, "internal_node_id": "0.0-54.0"}}, {"uniqueid": "MTK0920:3TMSXRD2X77XVJ7FYOWPHVCJ8OP1WA", "current_trial": 73, "dateTime": 1512883722658, "trialdata": {"rt": -1, "stimulus": "", "key_press": -1, "type": "PRE_RECALL_DELAY", "trial_type": "single-stim", "trial_index": 73, "time_elapsed": 342581, "internal_node_id": "0.0-55.0-0.0"}}, {"uniqueid": "MTK0920:3TMSXRD2X77XVJ7FYOWPHVCJ8OP1WA", "current_trial": 74, "dateTime": 1512883723161, "trialdata": {"rt": -1000, "stimulus": "/static/audio/400Hz.wav", "key_press": -1, "type": "PRE_RECALL_ALERT", "trial_type": "single-audio", "trial_index": 74, "time_elapsed": 343084, "internal_node_id": "0.0-56.0"}}, {"uniqueid": "MTK0920:3TMSXRD2X77XVJ7FYOWPHVCJ8OP1WA", "current_trial": 75, "dateTime": 1512883783174, "trialdata": {"rt": [3732, 6496, 54148, 56693], "recwords": ["notebook", "cashew", "seal", "charge"], "type": "FREE_RECALL", "conditions": [18, 1200, "v", 18000], "trial": 1, "trial_type": "free-recall", "trial_index": 75, "time_elapsed": 403090, "internal_node_id": "0.0-57.0-0.0"}}, {"uniqueid": "MTK0920:3TMSXRD2X77XVJ7FYOWPHVCJ8OP1WA", "current_trial": 76, "dateTime": 1512883786611, "trialdata": {"rt": 1420, "key_press": 32, "type": "INSTRUCTIONS", "trial_type": "text", "trial_index": 76, "time_elapsed": 406520, "internal_node_id": "0.0-58.0"}}, {"uniqueid": "MTK0920:3TMSXRD2X77XVJ7FYOWPHVCJ8OP1WA", "current_trial": 77, "dateTime": 1512883811632, "trialdata": {"rt": [2232, 3743, 5250, 6857, 7971, 9571, 10829, 11878, 13326, 14483, 16296, 18132, 19450, 20930, 22785], "responses": ["16", "17", "9", "17", "13", "10", "13", "11", "10", "10", "15", "18", "10", "19", "24"], "num1": [5, 1, 3, 8, 3, 6, 2, 1, 2, 7, 2, 9, 6, 2, 9, 1], "num2": [5, 8, 4, 8, 7, 3, 2, 2, 1, 2, 4, 4, 2, 8, 6, 6], "num3": [6, 8, 2, 1, 3, 1, 9, 8, 7, 1, 9, 5, 2, 9, 9, 8], "type": "DISTRACTOR", "conditions": [24, 1600, "a", 24000], "trial": 2, "trial_type": "math-distractor", "trial_index": 77, "time_elapsed": 431554, "internal_node_id": "0.0-59.0"}}, {"uniqueid": "MTK0920:3TMSXRD2X77XVJ7FYOWPHVCJ8OP1WA", "current_trial": 78, "dateTime": 1512883814636, "trialdata": {"rt": -1, "stimulus": "<p id=\"stim\">10</p>", "key_press": -1, "trial_type": "single-stim", "trial_index": 78, "time_elapsed": 434559, "internal_node_id": "0.0-60.0-0.0"}}, {"uniqueid": "MTK0920:3TMSXRD2X77XVJ7FYOWPHVCJ8OP1WA", "current_trial": 79, "dateTime": 1512883815637, "trialdata": {"rt": -1, "stimulus": "<p id=\"stim\">9</p>", "key_press": -1, "trial_type": "single-stim", "trial_index": 79, "time_elapsed": 435560, "internal_node_id": "0.0-60.0-1.0"}}, {"uniqueid": "MTK0920:3TMSXRD2X77XVJ7FYOWPHVCJ8OP1WA", "current_trial": 80, "dateTime": 1512883816641, "trialdata": {"rt": -1, "stimulus": "<p id=\"stim\">8</p>", "key_press": -1, "trial_type": "single-stim", "trial_index": 80, "time_elapsed": 436563, "internal_node_id": "0.0-60.0-2.0"}}, {"uniqueid": "MTK0920:3TMSXRD2X77XVJ7FYOWPHVCJ8OP1WA", "current_trial": 81, "dateTime": 1512883817642, "trialdata": {"rt": -1, "stimulus": "<p id=\"stim\">7</p>", "key_press": -1, "trial_type": "single-stim", "trial_index": 81, "time_elapsed": 437565, "internal_node_id": "0.0-60.0-3.0"}}, {"uniqueid": "MTK0920:3TMSXRD2X77XVJ7FYOWPHVCJ8OP1WA", "current_trial": 82, "dateTime": 1512883818645, "trialdata": {"rt": -1, "stimulus": "<p id=\"stim\">6</p>", "key_press": -1, "trial_type": "single-stim", "trial_index": 82, "time_elapsed": 438567, "internal_node_id": "0.0-60.0-4.0"}}, {"uniqueid": "MTK0920:3TMSXRD2X77XVJ7FYOWPHVCJ8OP1WA", "current_trial": 83, "dateTime": 1512883819648, "trialdata": {"rt": -1, "stimulus": "<p id=\"stim\">5</p>", "key_press": -1, "trial_type": "single-stim", "trial_index": 83, "time_elapsed": 439570, "internal_node_id": "0.0-60.0-5.0"}}, {"uniqueid": "MTK0920:3TMSXRD2X77XVJ7FYOWPHVCJ8OP1WA", "current_trial": 84, "dateTime": 1512883820651, "trialdata": {"rt": -1, "stimulus": "<p id=\"stim\">4</p>", "key_press": -1, "trial_type": "single-stim", "trial_index": 84, "time_elapsed": 440573, "internal_node_id": "0.0-60.0-6.0"}}, {"uniqueid": "MTK0920:3TMSXRD2X77XVJ7FYOWPHVCJ8OP1WA", "current_trial": 85, "dateTime": 1512883821653, "trialdata": {"rt": -1, "stimulus": "<p id=\"stim\">3</p>", "key_press": -1, "trial_type": "single-stim", "trial_index": 85, "time_elapsed": 441576, "internal_node_id": "0.0-60.0-7.0"}}, {"uniqueid": "MTK0920:3TMSXRD2X77XVJ7FYOWPHVCJ8OP1WA", "current_trial": 86, "dateTime": 1512883822657, "trialdata": {"rt": -1, "stimulus": "<p id=\"stim\">2</p>", "key_press": -1, "trial_type": "single-stim", "trial_index": 86, "time_elapsed": 442579, "internal_node_id": "0.0-60.0-8.0"}}, {"uniqueid": "MTK0920:3TMSXRD2X77XVJ7FYOWPHVCJ8OP1WA", "current_trial": 87, "dateTime": 1512883823659, "trialdata": {"rt": -1, "stimulus": "<p id=\"stim\">1</p>", "key_press": -1, "trial_type": "single-stim", "trial_index": 87, "time_elapsed": 443582, "internal_node_id": "0.0-60.0-9.0"}}, {"uniqueid": "MTK0920:3TMSXRD2X77XVJ7FYOWPHVCJ8OP1WA", "current_trial": 88, "dateTime": 1512883825161, "trialdata": {"rt": -1, "stimulus": "<p id=\"stim\">+</p>", "key_press": -1, "type": "FIXATION", "trial_type": "single-stim", "trial_index": 88, "time_elapsed": 445084, "internal_node_id": "0.0-61.0-0.0"}}, {"uniqueid": "MTK0920:3TMSXRD2X77XVJ7FYOWPHVCJ8OP1WA", "current_trial": 89, "dateTime": 1512883827906, "trialdata": {"rt": -1000, "stimulus": "/static/audio/wordpool/PASTRY.wav", "key_press": -1, "type": "PRES_AUD", "word": "pastry", "wordID": 1021, "conditions": [24, 1600, "a", 24000], "trial": 2, "serialpos": 0, "trial_type": "single-audio", "trial_index": 89, "time_elapsed": 447828, "internal_node_id": "0.0-62.0"}}, {"uniqueid": "MTK0920:3TMSXRD2X77XVJ7FYOWPHVCJ8OP1WA", "current_trial": 90, "dateTime": 1512883830433, "trialdata": {"rt": -1000, "stimulus": "/static/audio/wordpool/GRAPE.wav", "key_press": -1, "type": "PRES_AUD", "word": "grape", "wordID": 653, "conditions": [24, 1600, "a", 24000], "trial": 2, "serialpos": 1, "trial_type": "single-audio", "trial_index": 90, "time_elapsed": 450356, "internal_node_id": "0.0-63.0"}}, {"uniqueid": "MTK0920:3TMSXRD2X77XVJ7FYOWPHVCJ8OP1WA", "current_trial": 91, "dateTime": 1512883832876, "trialdata": {"rt": -1000, "stimulus": "/static/audio/wordpool/MUFFIN.wav", "key_press": -1, "type": "PRES_AUD", "word": "muffin", "wordID": 928, "conditions": [24, 1600, "a", 24000], "trial": 2, "serialpos": 2, "trial_type": "single-audio", "trial_index": 91, "time_elapsed": 452799, "internal_node_id": "0.0-64.0"}}, {"uniqueid": "MTK0920:3TMSXRD2X77XVJ7FYOWPHVCJ8OP1WA", "current_trial": 92, "dateTime": 1512883835599, "trialdata": {"rt": -1000, "stimulus": "/static/audio/wordpool/DOUGHNUT.wav", "key_press": -1, "type": "PRES_AUD", "word": "doughnut", "wordID": 489, "conditions": [24, 1600, "a", 24000], "trial": 2, "serialpos": 3, "trial_type": "single-audio", "trial_index": 92, "time_elapsed": 455522, "internal_node_id": "0.0-65.0"}}, {"uniqueid": "MTK0920:3TMSXRD2X77XVJ7FYOWPHVCJ8OP1WA", "current_trial": 93, "dateTime": 1512883838028, "trialdata": {"rt": -1000, "stimulus": "/static/audio/wordpool/MAILBOX.wav", "key_press": -1, "type": "PRES_AUD", "word": "mailbox", "wordID": 856, "conditions": [24, 1600, "a", 24000], "trial": 2, "serialpos": 4, "trial_type": "single-audio", "trial_index": 93, "time_elapsed": 457951, "internal_node_id": "0.0-66.0"}}, {"uniqueid": "MTK0920:3TMSXRD2X77XVJ7FYOWPHVCJ8OP1WA", "current_trial": 94, "dateTime": 1512883840811, "trialdata": {"rt": -1000, "stimulus": "/static/audio/wordpool/CRIB.wav", "key_press": -1, "type": "PRES_AUD", "word": "crib", "wordID": 406, "conditions": [24, 1600, "a", 24000], "trial": 2, "serialpos": 5, "trial_type": "single-audio", "trial_index": 94, "time_elapsed": 460734, "internal_node_id": "0.0-67.0"}}, {"uniqueid": "MTK0920:3TMSXRD2X77XVJ7FYOWPHVCJ8OP1WA", "current_trial": 95, "dateTime": 1512883843244, "trialdata": {"rt": -1000, "stimulus": "/static/audio/wordpool/XEROX.wav", "key_press": -1, "type": "PRES_AUD", "word": "xerox", "wordID": 1627, "conditions": [24, 1600, "a", 24000], "trial": 2, "serialpos": 6, "trial_type": "single-audio", "trial_index": 95, "time_elapsed": 463167, "internal_node_id": "0.0-68.0"}}, {"uniqueid": "MTK0920:3TMSXRD2X77XVJ7FYOWPHVCJ8OP1WA", "current_trial": 96, "dateTime": 1512883845896, "trialdata": {"rt": -1000, "stimulus": "/static/audio/wordpool/RAZOR.wav", "key_press": -1, "type": "PRES_AUD", "word": "razor", "wordID": 1170, "conditions": [24, 1600, "a", 24000], "trial": 2, "serialpos": 7, "trial_type": "single-audio", "trial_index": 96, "time_elapsed": 465819, "internal_node_id": "0.0-69.0"}}, {"uniqueid": "MTK0920:3TMSXRD2X77XVJ7FYOWPHVCJ8OP1WA", "current_trial": 97, "dateTime": 1512883848331, "trialdata": {"rt": -1000, "stimulus": "/static/audio/wordpool/PLIERS.wav", "key_press": -1, "type": "PRES_AUD", "word": "pliers", "wordID": 1088, "conditions": [24, 1600, "a", 24000], "trial": 2, "serialpos": 8, "trial_type": "single-audio", "trial_index": 97, "time_elapsed": 468254, "internal_node_id": "0.0-70.0"}}, {"uniqueid": "MTK0920:3TMSXRD2X77XVJ7FYOWPHVCJ8OP1WA", "current_trial": 98, "dateTime": 1512883851089, "trialdata": {"rt": -1000, "stimulus": "/static/audio/wordpool/HONEY.wav", "key_press": -1, "type": "PRES_AUD", "word": "honey", "wordID": 712, "conditions": [24, 1600, "a", 24000], "trial": 2, "serialpos": 9, "trial_type": "single-audio", "trial_index": 98, "time_elapsed": 471012, "internal_node_id": "0.0-71.0"}}, {"uniqueid": "MTK0920:3TMSXRD2X77XVJ7FYOWPHVCJ8OP1WA", "current_trial": 99, "dateTime": 1512883853853, "trialdata": {"rt": -1000, "stimulus": "/static/audio/wordpool/SUMMIT.wav", "key_press": -1, "type": "PRES_AUD", "word": "summit", "wordID": 1404, "conditions": [24, 1600, "a", 24000], "trial": 2, "serialpos": 10, "trial_type": "single-audio", "trial_index": 99, "time_elapsed": 473775, "internal_node_id": "0.0-72.0"}}, {"uniqueid": "MTK0920:3TMSXRD2X77XVJ7FYOWPHVCJ8OP1WA", "current_trial": 100, "dateTime": 1512883856590, "trialdata": {"rt": -1000, "stimulus": "/static/audio/wordpool/WINDOW.wav", "key_press": -1, "type": "PRES_AUD", "word": "window", "wordID": 1610, "conditions": [24, 1600, "a", 24000], "trial": 2, "serialpos": 11, "trial_type": "single-audio", "trial_index": 100, "time_elapsed": 476512, "internal_node_id": "0.0-73.0"}}, {"uniqueid": "MTK0920:3TMSXRD2X77XVJ7FYOWPHVCJ8OP1WA", "current_trial": 101, "dateTime": 1512883859156, "trialdata": {"rt": -1000, "stimulus": "/static/audio/wordpool/GOBLIN.wav", "key_press": -1, "type": "PRES_AUD", "word": "goblin", "wordID": 644, "conditions": [24, 1600, "a", 24000], "trial": 2, "serialpos": 12, "trial_type": "single-audio", "trial_index": 101, "time_elapsed": 479079, "internal_node_id": "0.0-74.0"}}, {"uniqueid": "MTK0920:3TMSXRD2X77XVJ7FYOWPHVCJ8OP1WA", "current_trial": 102, "dateTime": 1512883861938, "trialdata": {"rt": -1000, "stimulus": "/static/audio/wordpool/DIME.wav", "key_press": -1, "type": "PRES_AUD", "word": "dime", "wordID": 465, "conditions": [24, 1600, "a", 24000], "trial": 2, "serialpos": 13, "trial_type": "single-audio", "trial_index": 102, "time_elapsed": 481861, "internal_node_id": "0.0-75.0"}}, {"uniqueid": "MTK0920:3TMSXRD2X77XVJ7FYOWPHVCJ8OP1WA", "current_trial": 103, "dateTime": 1512883864614, "trialdata": {"rt": -1000, "stimulus": "/static/audio/wordpool/ACTOR.wav", "key_press": -1, "type": "PRES_AUD", "word": "actor", "wordID": 4, "conditions": [24, 1600, "a", 24000], "trial": 2, "serialpos": 14, "trial_type": "single-audio", "trial_index": 103, "time_elapsed": 484536, "internal_node_id": "0.0-76.0"}}, {"uniqueid": "MTK0920:3TMSXRD2X77XVJ7FYOWPHVCJ8OP1WA", "current_trial": 104, "dateTime": 1512883867194, "trialdata": {"rt": -1000, "stimulus": "/static/audio/wordpool/SUPPER.wav", "key_press": -1, "type": "PRES_AUD", "word": "supper", "wordID": 1410, "conditions": [24, 1600, "a", 24000], "trial": 2, "serialpos": 15, "trial_type": "single-audio", "trial_index": 104, "time_elapsed": 487117, "internal_node_id": "0.0-77.0"}}, {"uniqueid": "MTK0920:3TMSXRD2X77XVJ7FYOWPHVCJ8OP1WA", "current_trial": 105, "dateTime": 1512883869622, "trialdata": {"rt": -1000, "stimulus": "/static/audio/wordpool/OUTDOORS.wav", "key_press": -1, "type": "PRES_AUD", "word": "outdoors", "wordID": 986, "conditions": [24, 1600, "a", 24000], "trial": 2, "serialpos": 16, "trial_type": "single-audio", "trial_index": 105, "time_elapsed": 489544, "internal_node_id": "0.0-78.0"}}, {"uniqueid": "MTK0920:3TMSXRD2X77XVJ7FYOWPHVCJ8OP1WA", "current_trial": 106, "dateTime": 1512883872324, "trialdata": {"rt": -1000, "stimulus": "/static/audio/wordpool/SHORTS.wav", "key_press": -1, "type": "PRES_AUD", "word": "shorts", "wordID": 1292, "conditions": [24, 1600, "a", 24000], "trial": 2, "serialpos": 17, "trial_type": "single-audio", "trial_index": 106, "time_elapsed": 492247, "internal_node_id": "0.0-79.0"}}, {"uniqueid": "MTK0920:3TMSXRD2X77XVJ7FYOWPHVCJ8OP1WA", "current_trial": 107, "dateTime": 1512883874772, "trialdata": {"rt": -1000, "stimulus": "/static/audio/wordpool/THIEF.wav", "key_press": -1, "type": "PRES_AUD", "word": "thief", "wordID": 1455, "conditions": [24, 1600, "a", 24000], "trial": 2, "serialpos": 18, "trial_type": "single-audio", "trial_index": 107, "time_elapsed": 494695, "internal_node_id": "0.0-80.0"}}, {"uniqueid": "MTK0920:3TMSXRD2X77XVJ7FYOWPHVCJ8OP1WA", "current_trial": 108, "dateTime": 1512883877238, "trialdata": {"rt": -1000, "stimulus": "/static/audio/wordpool/PADDLE.wav", "key_press": -1, "type": "PRES_AUD", "word": "paddle", "wordID": 999, "conditions": [24, 1600, "a", 24000], "trial": 2, "serialpos": 19, "trial_type": "single-audio", "trial_index": 108, "time_elapsed": 497161, "internal_node_id": "0.0-81.0"}}, {"uniqueid": "MTK0920:3TMSXRD2X77XVJ7FYOWPHVCJ8OP1WA", "current_trial": 109, "dateTime": 1512883879722, "trialdata": {"rt": -1000, "stimulus": "/static/audio/wordpool/STICKER.wav", "key_press": -1, "type": "PRES_AUD", "word": "sticker", "wordID": 1381, "conditions": [24, 1600, "a", 24000], "trial": 2, "serialpos": 20, "trial_type": "single-audio", "trial_index": 109, "time_elapsed": 499645, "internal_node_id": "0.0-82.0"}}, {"uniqueid": "MTK0920:3TMSXRD2X77XVJ7FYOWPHVCJ8OP1WA", "current_trial": 110, "dateTime": 1512883882248, "trialdata": {"rt": -1000, "stimulus": "/static/audio/wordpool/BADGE.wav", "key_press": -1, "type": "PRES_AUD", "word": "badge", "wordID": 67, "conditions": [24, 1600, "a", 24000], "trial": 2, "serialpos": 21, "trial_type": "single-audio", "trial_index": 110, "time_elapsed": 502171, "internal_node_id": "0.0-83.0"}}, {"uniqueid": "MTK0920:3TMSXRD2X77XVJ7FYOWPHVCJ8OP1WA", "current_trial": 111, "dateTime": 1512883884703, "trialdata": {"rt": -1000, "stimulus": "/static/audio/wordpool/BURGLAR.wav", "key_press": -1, "type": "PRES_AUD", "word": "burglar", "wordID": 199, "conditions": [24, 1600, "a", 24000], "trial": 2, "serialpos": 22, "trial_type": "single-audio", "trial_index": 111, "time_elapsed": 504626, "internal_node_id": "0.0-84.0"}}, {"uniqueid": "MTK0920:3TMSXRD2X77XVJ7FYOWPHVCJ8OP1WA", "current_trial": 112, "dateTime": 1512883887418, "trialdata": {"rt": -1000, "stimulus": "/static/audio/wordpool/BODY.wav", "key_press": -1, "type": "PRES_AUD", "word": "body", "wordID": 144, "conditions": [24, 1600, "a", 24000], "trial": 2, "serialpos": 23, "trial_type": "single-audio", "trial_index": 112, "time_elapsed": 507341, "internal_node_id": "0.0-85.0"}}, {"uniqueid": "MTK0920:3TMSXRD2X77XVJ7FYOWPHVCJ8OP1WA", "current_trial": 113, "dateTime": 1512883888642, "trialdata": {"rt": -1, "stimulus": "", "key_press": -1, "type": "PRE_RECALL_DELAY", "trial_type": "single-stim", "trial_index": 113, "time_elapsed": 508564, "internal_node_id": "0.0-86.0-0.0"}}, {"uniqueid": "MTK0920:3TMSXRD2X77XVJ7FYOWPHVCJ8OP1WA", "current_trial": 114, "dateTime": 1512883889144, "trialdata": {"rt": -1000, "stimulus": "/static/audio/400Hz.wav", "key_press": -1, "type": "PRE_RECALL_ALERT", "trial_type": "single-audio", "trial_index": 114, "time_elapsed": 509066, "internal_node_id": "0.0-87.0"}}, {"uniqueid": "MTK0920:3TMSXRD2X77XVJ7FYOWPHVCJ8OP1WA", "current_trial": 115, "dateTime": 1512883949153, "trialdata": {"rt": [2007, 3582, 4819, 6226, 9745, 11922, 13152, 16476, 19142, 30471], "recwords": ["pastry", "grape", "donut", "xerom", "xerox", "paddle", "store", "honey", "pliers", "razor"], "type": "FREE_RECALL", "conditions": [24, 1600, "a", 24000], "trial": 2, "trial_type": "free-recall", "trial_index": 115, "time_elapsed": 569072, "internal_node_id": "0.0-88.0-0.0"}}, {"uniqueid": "MTK0920:3TMSXRD2X77XVJ7FYOWPHVCJ8OP1WA", "current_trial": 116, "dateTime": 1512883959739, "trialdata": {"rt": 8584, "key_press": 71, "type": "INSTRUCTIONS", "trial_type": "text", "trial_index": 116, "time_elapsed": 579662, "internal_node_id": "0.0-89.0"}}, {"uniqueid": "MTK0920:3TMSXRD2X77XVJ7FYOWPHVCJ8OP1WA", "current_trial": 117, "dateTime": 1512883985749, "trialdata": {"rt": [2755, 4113, 5391, 7102, 9590, 11143, 12517, 13579, 15619, 17678, 19111, 20834, 22170], "responses": ["14", "10", "22", "9", "21", "13", "12", "11", "13", "17", "12", "18", "11"], "num1": [4, 6, 4, 6, 6, 6, 4, 9, 4, 5, 2, 7, 2, 6], "num2": [3, 1, 9, 2, 8, 3, 4, 1, 7, 8, 9, 4, 2, 5], "num3": [7, 3, 9, 1, 7, 4, 4, 1, 2, 4, 1, 7, 9, 7], "type": "DISTRACTOR", "conditions": [12, 1600, "a", 24000], "trial": 3, "trial_type": "math-distractor", "trial_index": 117, "time_elapsed": 605672, "internal_node_id": "0.0-90.0"}}, {"uniqueid": "MTK0920:3TMSXRD2X77XVJ7FYOWPHVCJ8OP1WA", "current_trial": 118, "dateTime": 1512883988773, "trialdata": {"rt": -1, "stimulus": "<p id=\"stim\">10</p>", "key_press": -1, "trial_type": "single-stim", "trial_index": 118, "time_elapsed": 608696, "internal_node_id": "0.0-91.0-0.0"}}, {"uniqueid": "MTK0920:3TMSXRD2X77XVJ7FYOWPHVCJ8OP1WA", "current_trial": 119, "dateTime": 1512883989775, "trialdata": {"rt": -1, "stimulus": "<p id=\"stim\">9</p>", "key_press": -1, "trial_type": "single-stim", "trial_index": 119, "time_elapsed": 609697, "internal_node_id": "0.0-91.0-1.0"}}, {"uniqueid": "MTK0920:3TMSXRD2X77XVJ7FYOWPHVCJ8OP1WA", "current_trial": 120, "dateTime": 1512883990777, "trialdata": {"rt": -1, "stimulus": "<p id=\"stim\">8</p>", "key_press": -1, "trial_type": "single-stim", "trial_index": 120, "time_elapsed": 610699, "internal_node_id": "0.0-91.0-2.0"}}, {"uniqueid": "MTK0920:3TMSXRD2X77XVJ7FYOWPHVCJ8OP1WA", "current_trial": 121, "dateTime": 1512883991779, "trialdata": {"rt": -1, "stimulus": "<p id=\"stim\">7</p>", "key_press": -1, "trial_type": "single-stim", "trial_index": 121, "time_elapsed": 611702, "internal_node_id": "0.0-91.0-3.0"}}, {"uniqueid": "MTK0920:3TMSXRD2X77XVJ7FYOWPHVCJ8OP1WA", "current_trial": 122, "dateTime": 1512883992781, "trialdata": {"rt": -1, "stimulus": "<p id=\"stim\">6</p>", "key_press": -1, "trial_type": "single-stim", "trial_index": 122, "time_elapsed": 612704, "internal_node_id": "0.0-91.0-4.0"}}, {"uniqueid": "MTK0920:3TMSXRD2X77XVJ7FYOWPHVCJ8OP1WA", "current_trial": 123, "dateTime": 1512883993784, "trialdata": {"rt": -1, "stimulus": "<p id=\"stim\">5</p>", "key_press": -1, "trial_type": "single-stim", "trial_index": 123, "time_elapsed": 613706, "internal_node_id": "0.0-91.0-5.0"}}, {"uniqueid": "MTK0920:3TMSXRD2X77XVJ7FYOWPHVCJ8OP1WA", "current_trial": 124, "dateTime": 1512883994787, "trialdata": {"rt": -1, "stimulus": "<p id=\"stim\">4</p>", "key_press": -1, "trial_type": "single-stim", "trial_index": 124, "time_elapsed": 614709, "internal_node_id": "0.0-91.0-6.0"}}, {"uniqueid": "MTK0920:3TMSXRD2X77XVJ7FYOWPHVCJ8OP1WA", "current_trial": 125, "dateTime": 1512883995791, "trialdata": {"rt": -1, "stimulus": "<p id=\"stim\">3</p>", "key_press": -1, "trial_type": "single-stim", "trial_index": 125, "time_elapsed": 615713, "internal_node_id": "0.0-91.0-7.0"}}, {"uniqueid": "MTK0920:3TMSXRD2X77XVJ7FYOWPHVCJ8OP1WA", "current_trial": 126, "dateTime": 1512883996793, "trialdata": {"rt": -1, "stimulus": "<p id=\"stim\">2</p>", "key_press": -1, "trial_type": "single-stim", "trial_index": 126, "time_elapsed": 616716, "internal_node_id": "0.0-91.0-8.0"}}, {"uniqueid": "MTK0920:3TMSXRD2X77XVJ7FYOWPHVCJ8OP1WA", "current_trial": 127, "dateTime": 1512883997796, "trialdata": {"rt": -1, "stimulus": "<p id=\"stim\">1</p>", "key_press": -1, "trial_type": "single-stim", "trial_index": 127, "time_elapsed": 617719, "internal_node_id": "0.0-91.0-9.0"}}, {"uniqueid": "MTK0920:3TMSXRD2X77XVJ7FYOWPHVCJ8OP1WA", "current_trial": 128, "dateTime": 1512883999300, "trialdata": {"rt": -1, "stimulus": "<p id=\"stim\">+</p>", "key_press": -1, "type": "FIXATION", "trial_type": "single-stim", "trial_index": 128, "time_elapsed": 619223, "internal_node_id": "0.0-92.0-0.0"}}, {"uniqueid": "MTK0920:3TMSXRD2X77XVJ7FYOWPHVCJ8OP1WA", "current_trial": 129, "dateTime": 1512884001971, "trialdata": {"rt": -1000, "stimulus": "/static/audio/wordpool/SCARECROW.wav", "key_press": -1, "type": "PRES_AUD", "word": "scarecrow", "wordID": 1244, "conditions": [12, 1600, "a", 24000], "trial": 3, "serialpos": 0, "trial_type": "single-audio", "trial_index": 129, "time_elapsed": 621894, "internal_node_id": "0.0-93.0"}}, {"uniqueid": "MTK0920:3TMSXRD2X77XVJ7FYOWPHVCJ8OP1WA", "current_trial": 130, "dateTime": 1512884004737, "trialdata": {"rt": -1000, "stimulus": "/static/audio/wordpool/MATCH.wav", "key_press": -1, "type": "PRES_AUD", "word": "match", "wordID": 877, "conditions": [12, 1600, "a", 24000], "trial": 3, "serialpos": 1, "trial_type": "single-audio", "trial_index": 130, "time_elapsed": 624660, "internal_node_id": "0.0-94.0"}}, {"uniqueid": "MTK0920:3TMSXRD2X77XVJ7FYOWPHVCJ8OP1WA", "current_trial": 131, "dateTime": 1512884007252, "trialdata": {"rt": -1000, "stimulus": "/static/audio/wordpool/PANTHER.wav", "key_press": -1, "type": "PRES_AUD", "word": "panther", "wordID": 1008, "conditions": [12, 1600, "a", 24000], "trial": 3, "serialpos": 2, "trial_type": "single-audio", "trial_index": 131, "time_elapsed": 627175, "internal_node_id": "0.0-95.0"}}, {"uniqueid": "MTK0920:3TMSXRD2X77XVJ7FYOWPHVCJ8OP1WA", "current_trial": 132, "dateTime": 1512884009700, "trialdata": {"rt": -1000, "stimulus": "/static/audio/wordpool/CHIPMUNK.wav", "key_press": -1, "type": "PRES_AUD", "word": "chipmunk", "wordID": 303, "conditions": [12, 1600, "a", 24000], "trial": 3, "serialpos": 3, "trial_type": "single-audio", "trial_index": 132, "time_elapsed": 629623, "internal_node_id": "0.0-96.0"}}, {"uniqueid": "MTK0920:3TMSXRD2X77XVJ7FYOWPHVCJ8OP1WA", "current_trial": 133, "dateTime": 1512884012497, "trialdata": {"rt": -1000, "stimulus": "/static/audio/wordpool/DASHBOARD.wav", "key_press": -1, "type": "PRES_AUD", "word": "dashboard", "wordID": 440, "conditions": [12, 1600, "a", 24000], "trial": 3, "serialpos": 4, "trial_type": "single-audio", "trial_index": 133, "time_elapsed": 632420, "internal_node_id": "0.0-97.0"}}, {"uniqueid": "MTK0920:3TMSXRD2X77XVJ7FYOWPHVCJ8OP1WA", "current_trial": 134, "dateTime": 1512884015020, "trialdata": {"rt": -1000, "stimulus": "/static/audio/wordpool/COSTUME.wav", "key_press": -1, "type": "PRES_AUD", "word": "costume", "wordID": 382, "conditions": [12, 1600, "a", 24000], "trial": 3, "serialpos": 5, "trial_type": "single-audio", "trial_index": 134, "time_elapsed": 634943, "internal_node_id": "0.0-98.0"}}, {"uniqueid": "MTK0920:3TMSXRD2X77XVJ7FYOWPHVCJ8OP1WA", "current_trial": 135, "dateTime": 1512884017555, "trialdata": {"rt": -1000, "stimulus": "/static/audio/wordpool/CRICKET.wav", "key_press": -1, "type": "PRES_AUD", "word": "cricket", "wordID": 407, "conditions": [12, 1600, "a", 24000], "trial": 3, "serialpos": 6, "trial_type": "single-audio", "trial_index": 135, "time_elapsed": 637478, "internal_node_id": "0.0-99.0"}}, {"uniqueid": "MTK0920:3TMSXRD2X77XVJ7FYOWPHVCJ8OP1WA", "current_trial": 136, "dateTime": 1512884020349, "trialdata": {"rt": -1000, "stimulus": "/static/audio/wordpool/FLAG.wav", "key_press": -1, "type": "PRES_AUD", "word": "flag", "wordID": 572, "conditions": [12, 1600, "a", 24000], "trial": 3, "serialpos": 7, "trial_type": "single-audio", "trial_index": 136, "time_elapsed": 640272, "internal_node_id": "0.0-100.0"}}, {"uniqueid": "MTK0920:3TMSXRD2X77XVJ7FYOWPHVCJ8OP1WA", "current_trial": 137, "dateTime": 1512884022766, "trialdata": {"rt": -1000, "stimulus": "/static/audio/wordpool/ULCER.wav", "key_press": -1, "type": "PRES_AUD", "word": "ulcer", "wordID": 1532, "conditions": [12, 1600, "a", 24000], "trial": 3, "serialpos": 8, "trial_type": "single-audio", "trial_index": 137, "time_elapsed": 642689, "internal_node_id": "0.0-101.0"}}, {"uniqueid": "MTK0920:3TMSXRD2X77XVJ7FYOWPHVCJ8OP1WA", "current_trial": 138, "dateTime": 1512884025402, "trialdata": {"rt": -1000, "stimulus": "/static/audio/wordpool/KNIFE.wav", "key_press": -1, "type": "PRES_AUD", "word": "knife", "wordID": 784, "conditions": [12, 1600, "a", 24000], "trial": 3, "serialpos": 9, "trial_type": "single-audio", "trial_index": 138, "time_elapsed": 645325, "internal_node_id": "0.0-102.0"}}, {"uniqueid": "MTK0920:3TMSXRD2X77XVJ7FYOWPHVCJ8OP1WA", "current_trial": 139, "dateTime": 1512884027966, "trialdata": {"rt": -1000, "stimulus": "/static/audio/wordpool/BLADE.wav", "key_press": -1, "type": "PRES_AUD", "word": "blade", "wordID": 133, "conditions": [12, 1600, "a", 24000], "trial": 3, "serialpos": 10, "trial_type": "single-audio", "trial_index": 139, "time_elapsed": 647889, "internal_node_id": "0.0-103.0"}}, {"uniqueid": "MTK0920:3TMSXRD2X77XVJ7FYOWPHVCJ8OP1WA", "current_trial": 140, "dateTime": 1512884030396, "trialdata": {"rt": -1000, "stimulus": "/static/audio/wordpool/WHISKERS.wav", "key_press": -1, "type": "PRES_AUD", "word": "whiskers", "wordID": 1604, "conditions": [12, 1600, "a", 24000], "trial": 3, "serialpos": 11, "trial_type": "single-audio", "trial_index": 140, "time_elapsed": 650319, "internal_node_id": "0.0-104.0"}}, {"uniqueid": "MTK0920:3TMSXRD2X77XVJ7FYOWPHVCJ8OP1WA", "current_trial": 141, "dateTime": 1512884031690, "trialdata": {"rt": -1, "stimulus": "", "key_press": -1, "type": "PRE_RECALL_DELAY", "trial_type": "single-stim", "trial_index": 141, "time_elapsed": 651613, "internal_node_id": "0.0-105.0-0.0"}}, {"uniqueid": "MTK0920:3TMSXRD2X77XVJ7FYOWPHVCJ8OP1WA", "current_trial": 142, "dateTime": 1512884032192, "trialdata": {"rt": -1000, "stimulus": "/static/audio/400Hz.wav", "key_press": -1, "type": "PRE_RECALL_ALERT", "trial_type": "single-audio", "trial_index": 142, "time_elapsed": 652114, "internal_node_id": "0.0-106.0"}}, {"uniqueid": "MTK0920:3TMSXRD2X77XVJ7FYOWPHVCJ8OP1WA", "current_trial": 143, "dateTime": 1512884092204, "trialdata": {"rt": [2548, 4281, 5764, 11037], "recwords": ["panther", "whiskers", "blade", "blade"], "type": "FREE_RECALL", "conditions": [12, 1600, "a", 24000], "trial": 3, "trial_type": "free-recall", "trial_index": 143, "time_elapsed": 712117, "internal_node_id": "0.0-107.0-0.0"}}, {"uniqueid": "MTK0920:3TMSXRD2X77XVJ7FYOWPHVCJ8OP1WA", "current_trial": 144, "dateTime": 1512884096629, "trialdata": {"rt": 2422, "key_press": 77, "type": "INSTRUCTIONS", "trial_type": "text", "trial_index": 144, "time_elapsed": 716552, "internal_node_id": "0.0-108.0"}}, {"uniqueid": "MTK0920:3TMSXRD2X77XVJ7FYOWPHVCJ8OP1WA", "current_trial": 145, "dateTime": 1512884110639, "trialdata": {"rt": [2425, 4765, 5930, 7412, 8748, 10202, 11748], "responses": ["13", "20", "9", "12", "20", "20", "15"], "num1": [1, 6, 4, 2, 9, 5, 1, 1], "num2": [5, 8, 4, 8, 2, 7, 9, 3], "num3": [7, 6, 1, 2, 9, 8, 5, 4], "type": "DISTRACTOR", "conditions": [24, 800, "v", 12000], "trial": 4, "trial_type": "math-distractor", "trial_index": 145, "time_elapsed": 730561, "internal_node_id": "0.0-109.0"}}, {"uniqueid": "MTK0920:3TMSXRD2X77XVJ7FYOWPHVCJ8OP1WA", "current_trial": 146, "dateTime": 1512884113641, "trialdata": {"rt": -1, "stimulus": "<p id=\"stim\">10</p>", "key_press": -1, "trial_type": "single-stim", "trial_index": 146, "time_elapsed": 733564, "internal_node_id": "0.0-110.0-0.0"}}, {"uniqueid": "MTK0920:3TMSXRD2X77XVJ7FYOWPHVCJ8OP1WA", "current_trial": 147, "dateTime": 1512884114644, "trialdata": {"rt": -1, "stimulus": "<p id=\"stim\">9</p>", "key_press": -1, "trial_type": "single-stim", "trial_index": 147, "time_elapsed": 734567, "internal_node_id": "0.0-110.0-1.0"}}, {"uniqueid": "MTK0920:3TMSXRD2X77XVJ7FYOWPHVCJ8OP1WA", "current_trial": 148, "dateTime": 1512884115646, "trialdata": {"rt": -1, "stimulus": "<p id=\"stim\">8</p>", "key_press": -1, "trial_type": "single-stim", "trial_index": 148, "time_elapsed": 735568, "internal_node_id": "0.0-110.0-2.0"}}, {"uniqueid": "MTK0920:3TMSXRD2X77XVJ7FYOWPHVCJ8OP1WA", "current_trial": 149, "dateTime": 1512884116649, "trialdata": {"rt": -1, "stimulus": "<p id=\"stim\">7</p>", "key_press": -1, "trial_type": "single-stim", "trial_index": 149, "time_elapsed": 736572, "internal_node_id": "0.0-110.0-3.0"}}, {"uniqueid": "MTK0920:3TMSXRD2X77XVJ7FYOWPHVCJ8OP1WA", "current_trial": 150, "dateTime": 1512884117651, "trialdata": {"rt": -1, "stimulus": "<p id=\"stim\">6</p>", "key_press": -1, "trial_type": "single-stim", "trial_index": 150, "time_elapsed": 737574, "internal_node_id": "0.0-110.0-4.0"}}, {"uniqueid": "MTK0920:3TMSXRD2X77XVJ7FYOWPHVCJ8OP1WA", "current_trial": 151, "dateTime": 1512884118654, "trialdata": {"rt": -1, "stimulus": "<p id=\"stim\">5</p>", "key_press": -1, "trial_type": "single-stim", "trial_index": 151, "time_elapsed": 738576, "internal_node_id": "0.0-110.0-5.0"}}, {"uniqueid": "MTK0920:3TMSXRD2X77XVJ7FYOWPHVCJ8OP1WA", "current_trial": 152, "dateTime": 1512884119656, "trialdata": {"rt": -1, "stimulus": "<p id=\"stim\">4</p>", "key_press": -1, "trial_type": "single-stim", "trial_index": 152, "time_elapsed": 739578, "internal_node_id": "0.0-110.0-6.0"}}, {"uniqueid": "MTK0920:3TMSXRD2X77XVJ7FYOWPHVCJ8OP1WA", "current_trial": 153, "dateTime": 1512884120659, "trialdata": {"rt": -1, "stimulus": "<p id=\"stim\">3</p>", "key_press": -1, "trial_type": "single-stim", "trial_index": 153, "time_elapsed": 740581, "internal_node_id": "0.0-110.0-7.0"}}, {"uniqueid": "MTK0920:3TMSXRD2X77XVJ7FYOWPHVCJ8OP1WA", "current_trial": 154, "dateTime": 1512884121661, "trialdata": {"rt": -1, "stimulus": "<p id=\"stim\">2</p>", "key_press": -1, "trial_type": "single-stim", "trial_index": 154, "time_elapsed": 741584, "internal_node_id": "0.0-110.0-8.0"}}, {"uniqueid": "MTK0920:3TMSXRD2X77XVJ7FYOWPHVCJ8OP1WA", "current_trial": 155, "dateTime": 1512884122664, "trialdata": {"rt": -1, "stimulus": "<p id=\"stim\">1</p>", "key_press": -1, "trial_type": "single-stim", "trial_index": 155, "time_elapsed": 742587, "internal_node_id": "0.0-110.0-9.0"}}, {"uniqueid": "MTK0920:3TMSXRD2X77XVJ7FYOWPHVCJ8OP1WA", "current_trial": 156, "dateTime": 1512884124168, "trialdata": {"rt": -1, "stimulus": "<p id=\"stim\">+</p>", "key_press": -1, "type": "FIXATION", "trial_type": "single-stim", "trial_index": 156, "time_elapsed": 744091, "internal_node_id": "0.0-111.0-0.0"}}, {"uniqueid": "MTK0920:3TMSXRD2X77XVJ7FYOWPHVCJ8OP1WA", "current_trial": 157, "dateTime": 1512884124971, "trialdata": {"rt": -1, "stimulus": "<p id=\"stim\">SISTER</p>", "key_press": -1, "type": "PRES_VIS", "word": "sister", "wordID": 1311, "conditions": [24, 800, "v", 12000], "trial": 4, "serialpos": 0, "trial_type": "single-stim", "trial_index": 157, "time_elapsed": 744893, "internal_node_id": "0.0-112.0"}}, {"uniqueid": "MTK0920:3TMSXRD2X77XVJ7FYOWPHVCJ8OP1WA", "current_trial": 158, "dateTime": 1512884126608, "trialdata": {"rt": -1, "stimulus": "<p id=\"stim\">MOTOR</p>", "key_press": -1, "type": "PRES_VIS", "word": "motor", "wordID": 921, "conditions": [24, 800, "v", 12000], "trial": 4, "serialpos": 1, "trial_type": "single-stim", "trial_index": 158, "time_elapsed": 746531, "internal_node_id": "0.0-113.0"}}, {"uniqueid": "MTK0920:3TMSXRD2X77XVJ7FYOWPHVCJ8OP1WA", "current_trial": 159, "dateTime": 1512884128228, "trialdata": {"rt": -1, "stimulus": "<p id=\"stim\">BUGGY</p>", "key_press": -1, "type": "PRES_VIS", "word": "buggy", "wordID": 187, "conditions": [24, 800, "v", 12000], "trial": 4, "serialpos": 2, "trial_type": "single-stim", "trial_index": 159, "time_elapsed": 748150, "internal_node_id": "0.0-114.0"}}, {"uniqueid": "MTK0920:3TMSXRD2X77XVJ7FYOWPHVCJ8OP1WA", "current_trial": 160, "dateTime": 1512884129841, "trialdata": {"rt": -1, "stimulus": "<p id=\"stim\">PADDING</p>", "key_press": -1, "type": "PRES_VIS", "word": "padding", "wordID": 998, "conditions": [24, 800, "v", 12000], "trial": 4, "serialpos": 3, "trial_type": "single-stim", "trial_index": 160, "time_elapsed": 749763, "internal_node_id": "0.0-115.0"}}, {"uniqueid": "MTK0920:3TMSXRD2X77XVJ7FYOWPHVCJ8OP1WA", "current_trial": 161, "dateTime": 1512884131535, "trialdata": {"rt": -1, "stimulus": "<p id=\"stim\">DRAWING</p>", "key_press": -1, "type": "PRES_VIS", "word": "drawing", "wordID": 493, "conditions": [24, 800, "v", 12000], "trial": 4, "serialpos": 4, "trial_type": "single-stim", "trial_index": 161, "time_elapsed": 751457, "internal_node_id": "0.0-116.0"}}, {"uniqueid": "MTK0920:3TMSXRD2X77XVJ7FYOWPHVCJ8OP1WA", "current_trial": 162, "dateTime": 1512884133514, "trialdata": {"rt": -1, "stimulus": "<p id=\"stim\">PRINCESS</p>", "key_press": -1, "type": "PRES_VIS", "word": "princess", "wordID": 1124, "conditions": [24, 800, "v", 12000], "trial": 4, "serialpos": 5, "trial_type": "single-stim", "trial_index": 162, "time_elapsed": 753437, "internal_node_id": "0.0-117.0"}}, {"uniqueid": "MTK0920:3TMSXRD2X77XVJ7FYOWPHVCJ8OP1WA", "current_trial": 163, "dateTime": 1512884135504, "trialdata": {"rt": -1, "stimulus": "<p id=\"stim\">RUG</p>", "key_press": -1, "type": "PRES_VIS", "word": "rug", "wordID": 1214, "conditions": [24, 800, "v", 12000], "trial": 4, "serialpos": 6, "trial_type": "single-stim", "trial_index": 163, "time_elapsed": 755426, "internal_node_id": "0.0-118.0"}}, {"uniqueid": "MTK0920:3TMSXRD2X77XVJ7FYOWPHVCJ8OP1WA", "current_trial": 164, "dateTime": 1512884137360, "trialdata": {"rt": -1, "stimulus": "<p id=\"stim\">BUBBLE</p>", "key_press": -1, "type": "PRES_VIS", "word": "bubble", "wordID": 182, "conditions": [24, 800, "v", 12000], "trial": 4, "serialpos": 7, "trial_type": "single-stim", "trial_index": 164, "time_elapsed": 757282, "internal_node_id": "0.0-119.0"}}, {"uniqueid": "MTK0920:3TMSXRD2X77XVJ7FYOWPHVCJ8OP1WA", "current_trial": 165, "dateTime": 1512884139329, "trialdata": {"rt": -1, "stimulus": "<p id=\"stim\">HUSBAND</p>", "key_press": -1, "type": "PRES_VIS", "word": "husband", "wordID": 727, "conditions": [24, 800, "v", 12000], "trial": 4, "serialpos": 8, "trial_type": "single-stim", "trial_index": 165, "time_elapsed": 759251, "internal_node_id": "0.0-120.0"}}, {"uniqueid": "MTK0920:3TMSXRD2X77XVJ7FYOWPHVCJ8OP1WA", "current_trial": 166, "dateTime": 1512884141008, "trialdata": {"rt": -1, "stimulus": "<p id=\"stim\">PEANUT</p>", "key_press": -1, "type": "PRES_VIS", "word": "peanut", "wordID": 1031, "conditions": [24, 800, "v", 12000], "trial": 4, "serialpos": 9, "trial_type": "single-stim", "trial_index": 166, "time_elapsed": 760931, "internal_node_id": "0.0-121.0"}}, {"uniqueid": "MTK0920:3TMSXRD2X77XVJ7FYOWPHVCJ8OP1WA", "current_trial": 167, "dateTime": 1512884142617, "trialdata": {"rt": -1, "stimulus": "<p id=\"stim\">PECAN</p>", "key_press": -1, "type": "PRES_VIS", "word": "pecan", "wordID": 1035, "conditions": [24, 800, "v", 12000], "trial": 4, "serialpos": 10, "trial_type": "single-stim", "trial_index": 167, "time_elapsed": 762539, "internal_node_id": "0.0-122.0"}}, {"uniqueid": "MTK0920:3TMSXRD2X77XVJ7FYOWPHVCJ8OP1WA", "current_trial": 168, "dateTime": 1512884144395, "trialdata": {"rt": -1, "stimulus": "<p id=\"stim\">ARMY</p>", "key_press": -1, "type": "PRES_VIS", "word": "army", "wordID": 38, "conditions": [24, 800, "v", 12000], "trial": 4, "serialpos": 11, "trial_type": "single-stim", "trial_index": 168, "time_elapsed": 764317, "internal_node_id": "0.0-123.0"}}, {"uniqueid": "MTK0920:3TMSXRD2X77XVJ7FYOWPHVCJ8OP1WA", "current_trial": 169, "dateTime": 1512884146334, "trialdata": {"rt": -1, "stimulus": "<p id=\"stim\">COUNTY</p>", "key_press": -1, "type": "PRES_VIS", "word": "county", "wordID": 388, "conditions": [24, 800, "v", 12000], "trial": 4, "serialpos": 12, "trial_type": "single-stim", "trial_index": 169, "time_elapsed": 766256, "internal_node_id": "0.0-124.0"}}, {"uniqueid": "MTK0920:3TMSXRD2X77XVJ7FYOWPHVCJ8OP1WA", "current_trial": 170, "dateTime": 1512884148217, "trialdata": {"rt": -1, "stimulus": "<p id=\"stim\">TRUCK</p>", "key_press": -1, "type": "PRES_VIS", "word": "truck", "wordID": 1511, "conditions": [24, 800, "v", 12000], "trial": 4, "serialpos": 13, "trial_type": "single-stim", "trial_index": 170, "time_elapsed": 768140, "internal_node_id": "0.0-125.0"}}, {"uniqueid": "MTK0920:3TMSXRD2X77XVJ7FYOWPHVCJ8OP1WA", "current_trial": 171, "dateTime": 1512884150087, "trialdata": {"rt": -1, "stimulus": "<p id=\"stim\">OMELET</p>", "key_press": -1, "type": "PRES_VIS", "word": "omelet", "wordID": 975, "conditions": [24, 800, "v", 12000], "trial": 4, "serialpos": 14, "trial_type": "single-stim", "trial_index": 171, "time_elapsed": 770009, "internal_node_id": "0.0-126.0"}}, {"uniqueid": "MTK0920:3TMSXRD2X77XVJ7FYOWPHVCJ8OP1WA", "current_trial": 172, "dateTime": 1512884151935, "trialdata": {"rt": -1, "stimulus": "<p id=\"stim\">GARDEN</p>", "key_press": -1, "type": "PRES_VIS", "word": "garden", "wordID": 622, "conditions": [24, 800, "v", 12000], "trial": 4, "serialpos": 15, "trial_type": "single-stim", "trial_index": 172, "time_elapsed": 771857, "internal_node_id": "0.0-127.0"}}, {"uniqueid": "MTK0920:3TMSXRD2X77XVJ7FYOWPHVCJ8OP1WA", "current_trial": 173, "dateTime": 1512884153641, "trialdata": {"rt": -1, "stimulus": "<p id=\"stim\">ROBBER</p>", "key_press": -1, "type": "PRES_VIS", "word": "robber", "wordID": 1196, "conditions": [24, 800, "v", 12000], "trial": 4, "serialpos": 16, "trial_type": "single-stim", "trial_index": 173, "time_elapsed": 773564, "internal_node_id": "0.0-128.0"}}, {"uniqueid": "MTK0920:3TMSXRD2X77XVJ7FYOWPHVCJ8OP1WA", "current_trial": 174, "dateTime": 1512884155533, "trialdata": {"rt": -1, "stimulus": "<p id=\"stim\">DORM</p>", "key_press": -1, "type": "PRES_VIS", "word": "dorm", "wordID": 487, "conditions": [24, 800, "v", 12000], "trial": 4, "serialpos": 17, "trial_type": "single-stim", "trial_index": 174, "time_elapsed": 775456, "internal_node_id": "0.0-129.0"}}, {"uniqueid": "MTK0920:3TMSXRD2X77XVJ7FYOWPHVCJ8OP1WA", "current_trial": 175, "dateTime": 1512884157355, "trialdata": {"rt": -1, "stimulus": "<p id=\"stim\">STUDENT</p>", "key_press": -1, "type": "PRES_VIS", "word": "student", "wordID": 1394, "conditions": [24, 800, "v", 12000], "trial": 4, "serialpos": 18, "trial_type": "single-stim", "trial_index": 175, "time_elapsed": 777278, "internal_node_id": "0.0-130.0"}}, {"uniqueid": "MTK0920:3TMSXRD2X77XVJ7FYOWPHVCJ8OP1WA", "current_trial": 176, "dateTime": 1512884159050, "trialdata": {"rt": -1, "stimulus": "<p id=\"stim\">HOSTESS</p>", "key_press": -1, "type": "PRES_VIS", "word": "hostess", "wordID": 722, "conditions": [24, 800, "v", 12000], "trial": 4, "serialpos": 19, "trial_type": "single-stim", "trial_index": 176, "time_elapsed": 778972, "internal_node_id": "0.0-131.0"}}, {"uniqueid": "MTK0920:3TMSXRD2X77XVJ7FYOWPHVCJ8OP1WA", "current_trial": 177, "dateTime": 1512884160921, "trialdata": {"rt": -1, "stimulus": "<p id=\"stim\">VALLEY</p>", "key_press": -1, "type": "PRES_VIS", "word": "valley", "wordID": 1544, "conditions": [24, 800, "v", 12000], "trial": 4, "serialpos": 20, "trial_type": "single-stim", "trial_index": 177, "time_elapsed": 780843, "internal_node_id": "0.0-132.0"}}, {"uniqueid": "MTK0920:3TMSXRD2X77XVJ7FYOWPHVCJ8OP1WA", "current_trial": 178, "dateTime": 1512884162540, "trialdata": {"rt": -1, "stimulus": "<p id=\"stim\">FOOTBALL</p>", "key_press": -1, "type": "PRES_VIS", "word": "football", "wordID": 590, "conditions": [24, 800, "v", 12000], "trial": 4, "serialpos": 21, "trial_type": "single-stim", "trial_index": 178, "time_elapsed": 782463, "internal_node_id": "0.0-133.0"}}, {"uniqueid": "MTK0920:3TMSXRD2X77XVJ7FYOWPHVCJ8OP1WA", "current_trial": 179, "dateTime": 1512884164386, "trialdata": {"rt": -1, "stimulus": "<p id=\"stim\">LAGOON</p>", "key_press": -1, "type": "PRES_VIS", "word": "lagoon", "wordID": 794, "conditions": [24, 800, "v", 12000], "trial": 4, "serialpos": 22, "trial_type": "single-stim", "trial_index": 179, "time_elapsed": 784308, "internal_node_id": "0.0-134.0"}}, {"uniqueid": "MTK0920:3TMSXRD2X77XVJ7FYOWPHVCJ8OP1WA", "current_trial": 180, "dateTime": 1512884166291, "trialdata": {"rt": -1, "stimulus": "<p id=\"stim\">SHERIFF</p>", "key_press": -1, "type": "PRES_VIS", "word": "sheriff", "wordID": 1283, "conditions": [24, 800, "v", 12000], "trial": 4, "serialpos": 23, "trial_type": "single-stim", "trial_index": 180, "time_elapsed": 786214, "internal_node_id": "0.0-135.0"}}, {"uniqueid": "MTK0920:3TMSXRD2X77XVJ7FYOWPHVCJ8OP1WA", "current_trial": 181, "dateTime": 1512884168533, "trialdata": {"rt": -1, "stimulus": "", "key_press": -1, "type": "PRE_RECALL_DELAY", "trial_type": "single-stim", "trial_index": 181, "time_elapsed": 788455, "internal_node_id": "0.0-136.0-0.0"}}, {"uniqueid": "MTK0920:3TMSXRD2X77XVJ7FYOWPHVCJ8OP1WA", "current_trial": 182, "dateTime": 1512884169036, "trialdata": {"rt": -1000, "stimulus": "/static/audio/400Hz.wav", "key_press": -1, "type": "PRE_RECALL_ALERT", "trial_type": "single-audio", "trial_index": 182, "time_elapsed": 788959, "internal_node_id": "0.0-137.0"}}, {"uniqueid": "MTK0920:3TMSXRD2X77XVJ7FYOWPHVCJ8OP1WA", "current_trial": 183, "dateTime": 1512884229056, "trialdata": {"rt": [3911, 5626, 7824, 10116, 12191, 14630, 17328, 27820, 28902, 34533], "recwords": ["sheriff", "dorm", "sister", "waiter", "valley", "robber", "army", "bedroom", "rug", "rubbing"], "type": "FREE_RECALL", "conditions": [24, 800, "v", 12000], "trial": 4, "trial_type": "free-recall", "trial_index": 183, "time_elapsed": 848965, "internal_node_id": "0.0-138.0-0.0"}}, {"uniqueid": "MTK0920:3TMSXRD2X77XVJ7FYOWPHVCJ8OP1WA", "current_trial": 184, "dateTime": 1512884232804, "trialdata": {"rt": 1746, "key_press": 32, "type": "INSTRUCTIONS", "trial_type": "text", "trial_index": 184, "time_elapsed": 852726, "internal_node_id": "0.0-139.0"}}, {"uniqueid": "MTK0920:3TMSXRD2X77XVJ7FYOWPHVCJ8OP1WA", "current_trial": 185, "dateTime": 1512884258812, "trialdata": {"rt": [2487, 3739, 4964, 6163, 8085, 10203, 11638, 13195, 14712, 15788, 17545, 18727, 20065, 21812, 23461], "responses": ["15", "13", "10", "10", "18", "20", "8", "11", "19", "12", "16", "16", "13", "12", "19"], "num1": [4, 9, 1, 8, 7, 8, 2, 7, 3, 4, 4, 1, 1, 1, 9, 6], "num2": [3, 3, 2, 1, 2, 4, 5, 2, 7, 4, 7, 7, 7, 9, 2, 5], "num3": [8, 1, 7, 1, 9, 8, 1, 2, 9, 4, 5, 8, 5, 2, 8, 7], "type": "DISTRACTOR", "conditions": [12, 800, "a", 24000], "trial": 5, "trial_type": "math-distractor", "trial_index": 185, "time_elapsed": 878734, "internal_node_id": "0.0-140.0"}}, {"uniqueid": "MTK0920:3TMSXRD2X77XVJ7FYOWPHVCJ8OP1WA", "current_trial": 186, "dateTime": 1512884261817, "trialdata": {"rt": -1, "stimulus": "<p id=\"stim\">10</p>", "key_press": -1, "trial_type": "single-stim", "trial_index": 186, "time_elapsed": 881739, "internal_node_id": "0.0-141.0-0.0"}}, {"uniqueid": "MTK0920:3TMSXRD2X77XVJ7FYOWPHVCJ8OP1WA", "current_trial": 187, "dateTime": 1512884262821, "trialdata": {"rt": -1, "stimulus": "<p id=\"stim\">9</p>", "key_press": -1, "trial_type": "single-stim", "trial_index": 187, "time_elapsed": 882743, "internal_node_id": "0.0-141.0-1.0"}}, {"uniqueid": "MTK0920:3TMSXRD2X77XVJ7FYOWPHVCJ8OP1WA", "current_trial": 188, "dateTime": 1512884263823, "trialdata": {"rt": -1, "stimulus": "<p id=\"stim\">8</p>", "key_press": -1, "trial_type": "single-stim", "trial_index": 188, "time_elapsed": 883745, "internal_node_id": "0.0-141.0-2.0"}}, {"uniqueid": "MTK0920:3TMSXRD2X77XVJ7FYOWPHVCJ8OP1WA", "current_trial": 189, "dateTime": 1512884264826, "trialdata": {"rt": -1, "stimulus": "<p id=\"stim\">7</p>", "key_press": -1, "trial_type": "single-stim", "trial_index": 189, "time_elapsed": 884749, "internal_node_id": "0.0-141.0-3.0"}}, {"uniqueid": "MTK0920:3TMSXRD2X77XVJ7FYOWPHVCJ8OP1WA", "current_trial": 190, "dateTime": 1512884265829, "trialdata": {"rt": -1, "stimulus": "<p id=\"stim\">6</p>", "key_press": -1, "trial_type": "single-stim", "trial_index": 190, "time_elapsed": 885751, "internal_node_id": "0.0-141.0-4.0"}}, {"uniqueid": "MTK0920:3TMSXRD2X77XVJ7FYOWPHVCJ8OP1WA", "current_trial": 191, "dateTime": 1512884266832, "trialdata": {"rt": -1, "stimulus": "<p id=\"stim\">5</p>", "key_press": -1, "trial_type": "single-stim", "trial_index": 191, "time_elapsed": 886755, "internal_node_id": "0.0-141.0-5.0"}}, {"uniqueid": "MTK0920:3TMSXRD2X77XVJ7FYOWPHVCJ8OP1WA", "current_trial": 192, "dateTime": 1512884267837, "trialdata": {"rt": -1, "stimulus": "<p id=\"stim\">4</p>", "key_press": -1, "trial_type": "single-stim", "trial_index": 192, "time_elapsed": 887759, "internal_node_id": "0.0-141.0-6.0"}}, {"uniqueid": "MTK0920:3TMSXRD2X77XVJ7FYOWPHVCJ8OP1WA", "current_trial": 193, "dateTime": 1512884268839, "trialdata": {"rt": -1, "stimulus": "<p id=\"stim\">3</p>", "key_press": -1, "trial_type": "single-stim", "trial_index": 193, "time_elapsed": 888762, "internal_node_id": "0.0-141.0-7.0"}}, {"uniqueid": "MTK0920:3TMSXRD2X77XVJ7FYOWPHVCJ8OP1WA", "current_trial": 194, "dateTime": 1512884269841, "trialdata": {"rt": -1, "stimulus": "<p id=\"stim\">2</p>", "key_press": -1, "trial_type": "single-stim", "trial_index": 194, "time_elapsed": 889764, "internal_node_id": "0.0-141.0-8.0"}}, {"uniqueid": "MTK0920:3TMSXRD2X77XVJ7FYOWPHVCJ8OP1WA", "current_trial": 195, "dateTime": 1512884270844, "trialdata": {"rt": -1, "stimulus": "<p id=\"stim\">1</p>", "key_press": -1, "trial_type": "single-stim", "trial_index": 195, "time_elapsed": 890767, "internal_node_id": "0.0-141.0-9.0"}}, {"uniqueid": "MTK0920:3TMSXRD2X77XVJ7FYOWPHVCJ8OP1WA", "current_trial": 196, "dateTime": 1512884272349, "trialdata": {"rt": -1, "stimulus": "<p id=\"stim\">+</p>", "key_press": -1, "type": "FIXATION", "trial_type": "single-stim", "trial_index": 196, "time_elapsed": 892271, "internal_node_id": "0.0-142.0-0.0"}}, {"uniqueid": "MTK0920:3TMSXRD2X77XVJ7FYOWPHVCJ8OP1WA", "current_trial": 197, "dateTime": 1512884274237, "trialdata": {"rt": -1000, "stimulus": "/static/audio/wordpool/COUCH.wav", "key_press": -1, "type": "PRES_AUD", "word": "couch", "wordID": 385, "conditions": [12, 800, "a", 24000], "trial": 5, "serialpos": 0, "trial_type": "single-audio", "trial_index": 197, "time_elapsed": 894160, "internal_node_id": "0.0-143.0"}}, {"uniqueid": "MTK0920:3TMSXRD2X77XVJ7FYOWPHVCJ8OP1WA", "current_trial": 198, "dateTime": 1512884276234, "trialdata": {"rt": -1000, "stimulus": "/static/audio/wordpool/EUROPE.wav", "key_press": -1, "type": "PRES_AUD", "word": "europe", "wordID": 540, "conditions": [12, 800, "a", 24000], "trial": 5, "serialpos": 1, "trial_type": "single-audio", "trial_index": 198, "time_elapsed": 896156, "internal_node_id": "0.0-144.0"}}, {"uniqueid": "MTK0920:3TMSXRD2X77XVJ7FYOWPHVCJ8OP1WA", "current_trial": 199, "dateTime": 1512884277849, "trialdata": {"rt": -1000, "stimulus": "/static/audio/wordpool/PISTON.wav", "key_press": -1, "type": "PRES_AUD", "word": "piston", "wordID": 1075, "conditions": [12, 800, "a", 24000], "trial": 5, "serialpos": 2, "trial_type": "single-audio", "trial_index": 199, "time_elapsed": 897771, "internal_node_id": "0.0-145.0"}}, {"uniqueid": "MTK0920:3TMSXRD2X77XVJ7FYOWPHVCJ8OP1WA", "current_trial": 200, "dateTime": 1512884279654, "trialdata": {"rt": -1000, "stimulus": "/static/audio/wordpool/POET.wav", "key_press": -1, "type": "PRES_AUD", "word": "poet", "wordID": 1094, "conditions": [12, 800, "a", 24000], "trial": 5, "serialpos": 3, "trial_type": "single-audio", "trial_index": 200, "time_elapsed": 899577, "internal_node_id": "0.0-146.0"}}, {"uniqueid": "MTK0920:3TMSXRD2X77XVJ7FYOWPHVCJ8OP1WA", "current_trial": 201, "dateTime": 1512884281336, "trialdata": {"rt": -1000, "stimulus": "/static/audio/wordpool/DAUGHTER.wav", "key_press": -1, "type": "PRES_AUD", "word": "daughter", "wordID": 441, "conditions": [12, 800, "a", 24000], "trial": 5, "serialpos": 4, "trial_type": "single-audio", "trial_index": 201, "time_elapsed": 901259, "internal_node_id": "0.0-147.0"}}, {"uniqueid": "MTK0920:3TMSXRD2X77XVJ7FYOWPHVCJ8OP1WA", "current_trial": 202, "dateTime": 1512884283184, "trialdata": {"rt": -1000, "stimulus": "/static/audio/wordpool/PICNIC.wav", "key_press": -1, "type": "PRES_AUD", "word": "picnic", "wordID": 1059, "conditions": [12, 800, "a", 24000], "trial": 5, "serialpos": 5, "trial_type": "single-audio", "trial_index": 202, "time_elapsed": 903107, "internal_node_id": "0.0-148.0"}}, {"uniqueid": "MTK0920:3TMSXRD2X77XVJ7FYOWPHVCJ8OP1WA", "current_trial": 203, "dateTime": 1512884285076, "trialdata": {"rt": -1000, "stimulus": "/static/audio/wordpool/MATTRESS.wav", "key_press": -1, "type": "PRES_AUD", "word": "mattress", "wordID": 878, "conditions": [12, 800, "a", 24000], "trial": 5, "serialpos": 6, "trial_type": "single-audio", "trial_index": 203, "time_elapsed": 904999, "internal_node_id": "0.0-149.0"}}, {"uniqueid": "MTK0920:3TMSXRD2X77XVJ7FYOWPHVCJ8OP1WA", "current_trial": 204, "dateTime": 1512884286765, "trialdata": {"rt": -1000, "stimulus": "/static/audio/wordpool/WRIST.wav", "key_press": -1, "type": "PRES_AUD", "word": "wrist", "wordID": 1625, "conditions": [12, 800, "a", 24000], "trial": 5, "serialpos": 7, "trial_type": "single-audio", "trial_index": 204, "time_elapsed": 906688, "internal_node_id": "0.0-150.0"}}, {"uniqueid": "MTK0920:3TMSXRD2X77XVJ7FYOWPHVCJ8OP1WA", "current_trial": 205, "dateTime": 1512884288444, "trialdata": {"rt": -1000, "stimulus": "/static/audio/wordpool/VICTIM.wav", "key_press": -1, "type": "PRES_AUD", "word": "victim", "wordID": 1561, "conditions": [12, 800, "a", 24000], "trial": 5, "serialpos": 8, "trial_type": "single-audio", "trial_index": 205, "time_elapsed": 908366, "internal_node_id": "0.0-151.0"}}, {"uniqueid": "MTK0920:3TMSXRD2X77XVJ7FYOWPHVCJ8OP1WA", "current_trial": 206, "dateTime": 1512884290118, "trialdata": {"rt": -1000, "stimulus": "/static/audio/wordpool/WASP.wav", "key_press": -1, "type": "PRES_AUD", "word": "wasp", "wordID": 1592, "conditions": [12, 800, "a", 24000], "trial": 5, "serialpos": 9, "trial_type": "single-audio", "trial_index": 206, "time_elapsed": 910041, "internal_node_id": "0.0-152.0"}}, {"uniqueid": "MTK0920:3TMSXRD2X77XVJ7FYOWPHVCJ8OP1WA", "current_trial": 207, "dateTime": 1512884291976, "trialdata": {"rt": -1000, "stimulus": "/static/audio/wordpool/HORNET.wav", "key_press": -1, "type": "PRES_AUD", "word": "hornet", "wordID": 717, "conditions": [12, 800, "a", 24000], "trial": 5, "serialpos": 10, "trial_type": "single-audio", "trial_index": 207, "time_elapsed": 911899, "internal_node_id": "0.0-153.0"}}, {"uniqueid": "MTK0920:3TMSXRD2X77XVJ7FYOWPHVCJ8OP1WA", "current_trial": 208, "dateTime": 1512884293841, "trialdata": {"rt": -1000, "stimulus": "/static/audio/wordpool/BELLY.wav", "key_press": -1, "type": "PRES_AUD", "word": "belly", "wordID": 118, "conditions": [12, 800, "a", 24000], "trial": 5, "serialpos": 11, "trial_type": "single-audio", "trial_index": 208, "time_elapsed": 913764, "internal_node_id": "0.0-154.0"}}, {"uniqueid": "MTK0920:3TMSXRD2X77XVJ7FYOWPHVCJ8OP1WA", "current_trial": 209, "dateTime": 1512884295151, "trialdata": {"rt": -1, "stimulus": "", "key_press": -1, "type": "PRE_RECALL_DELAY", "trial_type": "single-stim", "trial_index": 209, "time_elapsed": 915074, "internal_node_id": "0.0-155.0-0.0"}}, {"uniqueid": "MTK0920:3TMSXRD2X77XVJ7FYOWPHVCJ8OP1WA", "current_trial": 210, "dateTime": 1512884295653, "trialdata": {"rt": -1000, "stimulus": "/static/audio/400Hz.wav", "key_press": -1, "type": "PRE_RECALL_ALERT", "trial_type": "single-audio", "trial_index": 210, "time_elapsed": 915576, "internal_node_id": "0.0-156.0"}}, {"uniqueid": "MTK0920:3TMSXRD2X77XVJ7FYOWPHVCJ8OP1WA", "current_trial": 211, "dateTime": 1512884355669, "trialdata": {"rt": [5466, 7777, 9919, 24330, 30964], "recwords": ["wasp", "hornet", "belly", "hornet", "belly"], "type": "FREE_RECALL", "conditions": [12, 800, "a", 24000], "trial": 5, "trial_type": "free-recall", "trial_index": 211, "time_elapsed": 975581, "internal_node_id": "0.0-157.0-0.0"}}, {"uniqueid": "MTK0920:3TMSXRD2X77XVJ7FYOWPHVCJ8OP1WA", "current_trial": 212, "dateTime": 1512884359431, "trialdata": {"rt": 1734, "key_press": 70, "type": "INSTRUCTIONS", "trial_type": "text", "trial_index": 212, "time_elapsed": 979353, "internal_node_id": "0.0-158.0"}}, {"uniqueid": "MTK0920:3TMSXRD2X77XVJ7FYOWPHVCJ8OP1WA", "current_trial": 213, "dateTime": 1512884373435, "trialdata": {"rt": [3314, 5413, 6926, 8598, 9981, 11478], "responses": ["22", "11", "9", "6", "11", "24"], "num1": [7, 2, 2, 3, 2, 6, 3], "num2": [8, 3, 3, 1, 7, 9, 2], "num3": [7, 6, 4, 2, 2, 9, 2], "type": "DISTRACTOR", "conditions": [12, 1600, "v", 12000], "trial": 6, "trial_type": "math-distractor", "trial_index": 213, "time_elapsed": 993358, "internal_node_id": "0.0-159.0"}}, {"uniqueid": "MTK0920:3TMSXRD2X77XVJ7FYOWPHVCJ8OP1WA", "current_trial": 214, "dateTime": 1512884376440, "trialdata": {"rt": -1, "stimulus": "<p id=\"stim\">10</p>", "key_press": -1, "trial_type": "single-stim", "trial_index": 214, "time_elapsed": 996363, "internal_node_id": "0.0-160.0-0.0"}}, {"uniqueid": "MTK0920:3TMSXRD2X77XVJ7FYOWPHVCJ8OP1WA", "current_trial": 215, "dateTime": 1512884377444, "trialdata": {"rt": -1, "stimulus": "<p id=\"stim\">9</p>", "key_press": -1, "trial_type": "single-stim", "trial_index": 215, "time_elapsed": 997366, "internal_node_id": "0.0-160.0-1.0"}}, {"uniqueid": "MTK0920:3TMSXRD2X77XVJ7FYOWPHVCJ8OP1WA", "current_trial": 216, "dateTime": 1512884378447, "trialdata": {"rt": -1, "stimulus": "<p id=\"stim\">8</p>", "key_press": -1, "trial_type": "single-stim", "trial_index": 216, "time_elapsed": 998370, "internal_node_id": "0.0-160.0-2.0"}}, {"uniqueid": "MTK0920:3TMSXRD2X77XVJ7FYOWPHVCJ8OP1WA", "current_trial": 217, "dateTime": 1512884379450, "trialdata": {"rt": -1, "stimulus": "<p id=\"stim\">7</p>", "key_press": -1, "trial_type": "single-stim", "trial_index": 217, "time_elapsed": 999372, "internal_node_id": "0.0-160.0-3.0"}}, {"uniqueid": "MTK0920:3TMSXRD2X77XVJ7FYOWPHVCJ8OP1WA", "current_trial": 218, "dateTime": 1512884380453, "trialdata": {"rt": -1, "stimulus": "<p id=\"stim\">6</p>", "key_press": -1, "trial_type": "single-stim", "trial_index": 218, "time_elapsed": 1000375, "internal_node_id": "0.0-160.0-4.0"}}, {"uniqueid": "MTK0920:3TMSXRD2X77XVJ7FYOWPHVCJ8OP1WA", "current_trial": 219, "dateTime": 1512884381455, "trialdata": {"rt": -1, "stimulus": "<p id=\"stim\">5</p>", "key_press": -1, "trial_type": "single-stim", "trial_index": 219, "time_elapsed": 1001377, "internal_node_id": "0.0-160.0-5.0"}}, {"uniqueid": "MTK0920:3TMSXRD2X77XVJ7FYOWPHVCJ8OP1WA", "current_trial": 220, "dateTime": 1512884382457, "trialdata": {"rt": -1, "stimulus": "<p id=\"stim\">4</p>", "key_press": -1, "trial_type": "single-stim", "trial_index": 220, "time_elapsed": 1002380, "internal_node_id": "0.0-160.0-6.0"}}, {"uniqueid": "MTK0920:3TMSXRD2X77XVJ7FYOWPHVCJ8OP1WA", "current_trial": 221, "dateTime": 1512884383460, "trialdata": {"rt": -1, "stimulus": "<p id=\"stim\">3</p>", "key_press": -1, "trial_type": "single-stim", "trial_index": 221, "time_elapsed": 1003383, "internal_node_id": "0.0-160.0-7.0"}}, {"uniqueid": "MTK0920:3TMSXRD2X77XVJ7FYOWPHVCJ8OP1WA", "current_trial": 222, "dateTime": 1512884384464, "trialdata": {"rt": -1, "stimulus": "<p id=\"stim\">2</p>", "key_press": -1, "trial_type": "single-stim", "trial_index": 222, "time_elapsed": 1004386, "internal_node_id": "0.0-160.0-8.0"}}, {"uniqueid": "MTK0920:3TMSXRD2X77XVJ7FYOWPHVCJ8OP1WA", "current_trial": 223, "dateTime": 1512884385466, "trialdata": {"rt": -1, "stimulus": "<p id=\"stim\">1</p>", "key_press": -1, "trial_type": "single-stim", "trial_index": 223, "time_elapsed": 1005389, "internal_node_id": "0.0-160.0-9.0"}}, {"uniqueid": "MTK0920:3TMSXRD2X77XVJ7FYOWPHVCJ8OP1WA", "current_trial": 224, "dateTime": 1512884386969, "trialdata": {"rt": -1, "stimulus": "<p id=\"stim\">+</p>", "key_press": -1, "type": "FIXATION", "trial_type": "single-stim", "trial_index": 224, "time_elapsed": 1006891, "internal_node_id": "0.0-161.0-0.0"}}, {"uniqueid": "MTK0920:3TMSXRD2X77XVJ7FYOWPHVCJ8OP1WA", "current_trial": 225, "dateTime": 1512884388574, "trialdata": {"rt": -1, "stimulus": "<p id=\"stim\">WAGON</p>", "key_press": -1, "type": "PRES_VIS", "word": "wagon", "wordID": 1577, "conditions": [12, 1600, "v", 12000], "trial": 6, "serialpos": 0, "trial_type": "single-stim", "trial_index": 225, "time_elapsed": 1008496, "internal_node_id": "0.0-162.0"}}, {"uniqueid": "MTK0920:3TMSXRD2X77XVJ7FYOWPHVCJ8OP1WA", "current_trial": 226, "dateTime": 1512884391227, "trialdata": {"rt": -1, "stimulus": "<p id=\"stim\">PATROL</p>", "key_press": -1, "type": "PRES_VIS", "word": "patrol", "wordID": 1026, "conditions": [12, 1600, "v", 12000], "trial": 6, "serialpos": 1, "trial_type": "single-stim", "trial_index": 226, "time_elapsed": 1011150, "internal_node_id": "0.0-163.0"}}, {"uniqueid": "MTK0920:3TMSXRD2X77XVJ7FYOWPHVCJ8OP1WA", "current_trial": 227, "dateTime": 1512884393832, "trialdata": {"rt": -1, "stimulus": "<p id=\"stim\">BIKE</p>", "key_press": -1, "type": "PRES_VIS", "word": "bike", "wordID": 124, "conditions": [12, 1600, "v", 12000], "trial": 6, "serialpos": 2, "trial_type": "single-stim", "trial_index": 227, "time_elapsed": 1013754, "internal_node_id": "0.0-164.0"}}, {"uniqueid": "MTK0920:3TMSXRD2X77XVJ7FYOWPHVCJ8OP1WA", "current_trial": 228, "dateTime": 1512884396483, "trialdata": {"rt": -1, "stimulus": "<p id=\"stim\">MONEY</p>", "key_press": -1, "type": "PRES_VIS", "word": "money", "wordID": 907, "conditions": [12, 1600, "v", 12000], "trial": 6, "serialpos": 3, "trial_type": "single-stim", "trial_index": 228, "time_elapsed": 1016405, "internal_node_id": "0.0-165.0"}}, {"uniqueid": "MTK0920:3TMSXRD2X77XVJ7FYOWPHVCJ8OP1WA", "current_trial": 229, "dateTime": 1512884399147, "trialdata": {"rt": -1, "stimulus": "<p id=\"stim\">SUITCASE</p>", "key_press": -1, "type": "PRES_VIS", "word": "suitcase", "wordID": 1402, "conditions": [12, 1600, "v", 12000], "trial": 6, "serialpos": 4, "trial_type": "single-stim", "trial_index": 229, "time_elapsed": 1019070, "internal_node_id": "0.0-166.0"}}, {"uniqueid": "MTK0920:3TMSXRD2X77XVJ7FYOWPHVCJ8OP1WA", "current_trial": 230, "dateTime": 1512884401782, "trialdata": {"rt": -1, "stimulus": "<p id=\"stim\">SPIDER</p>", "key_press": -1, "type": "PRES_VIS", "word": "spider", "wordID": 1350, "conditions": [12, 1600, "v", 12000], "trial": 6, "serialpos": 5, "trial_type": "single-stim", "trial_index": 230, "time_elapsed": 1021705, "internal_node_id": "0.0-167.0"}}, {"uniqueid": "MTK0920:3TMSXRD2X77XVJ7FYOWPHVCJ8OP1WA", "current_trial": 231, "dateTime": 1512884404418, "trialdata": {"rt": -1, "stimulus": "<p id=\"stim\">WORLD</p>", "key_press": -1, "type": "PRES_VIS", "word": "world", "wordID": 1621, "conditions": [12, 1600, "v", 12000], "trial": 6, "serialpos": 6, "trial_type": "single-stim", "trial_index": 231, "time_elapsed": 1024340, "internal_node_id": "0.0-168.0"}}, {"uniqueid": "MTK0920:3TMSXRD2X77XVJ7FYOWPHVCJ8OP1WA", "current_trial": 232, "dateTime": 1512884407042, "trialdata": {"rt": -1, "stimulus": "<p id=\"stim\">GLOBE</p>", "key_press": -1, "type": "PRES_VIS", "word": "globe", "wordID": 640, "conditions": [12, 1600, "v", 12000], "trial": 6, "serialpos": 7, "trial_type": "single-stim", "trial_index": 232, "time_elapsed": 1026965, "internal_node_id": "0.0-169.0"}}, {"uniqueid": "MTK0920:3TMSXRD2X77XVJ7FYOWPHVCJ8OP1WA", "current_trial": 233, "dateTime": 1512884409616, "trialdata": {"rt": -1, "stimulus": "<p id=\"stim\">SWITCH</p>", "key_press": -1, "type": "PRES_VIS", "word": "switch", "wordID": 1421, "conditions": [12, 1600, "v", 12000], "trial": 6, "serialpos": 8, "trial_type": "single-stim", "trial_index": 233, "time_elapsed": 1029538, "internal_node_id": "0.0-170.0"}}, {"uniqueid": "MTK0920:3TMSXRD2X77XVJ7FYOWPHVCJ8OP1WA", "current_trial": 234, "dateTime": 1512884412033, "trialdata": {"rt": -1, "stimulus": "<p id=\"stim\">ZEBRA</p>", "key_press": -1, "type": "PRES_VIS", "word": "zebra", "wordID": 1634, "conditions": [12, 1600, "v", 12000], "trial": 6, "serialpos": 9, "trial_type": "single-stim", "trial_index": 234, "time_elapsed": 1031956, "internal_node_id": "0.0-171.0"}}, {"uniqueid": "MTK0920:3TMSXRD2X77XVJ7FYOWPHVCJ8OP1WA", "current_trial": 235, "dateTime": 1512884414495, "trialdata": {"rt": -1, "stimulus": "<p id=\"stim\">CREATURE</p>", "key_press": -1, "type": "PRES_VIS", "word": "creature", "wordID": 402, "conditions": [12, 1600, "v", 12000], "trial": 6, "serialpos": 10, "trial_type": "single-stim", "trial_index": 235, "time_elapsed": 1034417, "internal_node_id": "0.0-172.0"}}, {"uniqueid": "MTK0920:3TMSXRD2X77XVJ7FYOWPHVCJ8OP1WA", "current_trial": 236, "dateTime": 1512884417119, "trialdata": {"rt": -1, "stimulus": "<p id=\"stim\">AIRPLANE</p>", "key_press": -1, "type": "PRES_VIS", "word": "airplane", "wordID": 11, "conditions": [12, 1600, "v", 12000], "trial": 6, "serialpos": 11, "trial_type": "single-stim", "trial_index": 236, "time_elapsed": 1037042, "internal_node_id": "0.0-173.0"}}, {"uniqueid": "MTK0920:3TMSXRD2X77XVJ7FYOWPHVCJ8OP1WA", "current_trial": 237, "dateTime": 1512884419385, "trialdata": {"rt": -1, "stimulus": "", "key_press": -1, "type": "PRE_RECALL_DELAY", "trial_type": "single-stim", "trial_index": 237, "time_elapsed": 1039307, "internal_node_id": "0.0-174.0-0.0"}}, {"uniqueid": "MTK0920:3TMSXRD2X77XVJ7FYOWPHVCJ8OP1WA", "current_trial": 238, "dateTime": 1512884419887, "trialdata": {"rt": -1000, "stimulus": "/static/audio/400Hz.wav", "key_press": -1, "type": "PRE_RECALL_ALERT", "trial_type": "single-audio", "trial_index": 238, "time_elapsed": 1039810, "internal_node_id": "0.0-175.0"}}, {"uniqueid": "MTK0920:3TMSXRD2X77XVJ7FYOWPHVCJ8OP1WA", "current_trial": 239, "dateTime": 1512884479895, "trialdata": {"rt": [3954, 6146, 7711, 9573, 12908, 42928, 44615], "recwords": ["airplane", "spider", "patrol", "zebra", "suitcase", "world", "globe"], "type": "FREE_RECALL", "conditions": [12, 1600, "v", 12000], "trial": 6, "trial_type": "free-recall", "trial_index": 239, "time_elapsed": 1099816, "internal_node_id": "0.0-176.0-0.0"}}, {"uniqueid": "MTK0920:3TMSXRD2X77XVJ7FYOWPHVCJ8OP1WA", "current_trial": 240, "dateTime": 1512884494948, "trialdata": {"rt": 13052, "key_press": 72, "type": "INSTRUCTIONS", "trial_type": "text", "trial_index": 240, "time_elapsed": 1114871, "internal_node_id": "0.0-177.0"}}, {"uniqueid": "MTK0920:3TMSXRD2X77XVJ7FYOWPHVCJ8OP1WA", "current_trial": 241, "dateTime": 1512884508952, "trialdata": {"rt": [3025, 4613, 5734, 7183, 9605, 11138], "responses": ["16", "10", "9", "12", "24", "12"], "num1": [5, 3, 4, 5, 9, 8, 5], "num2": [9, 3, 1, 4, 8, 3, 8], "num3": [2, 4, 4, 3, 7, 1, 5], "type": "DISTRACTOR", "conditions": [24, 1600, "v", 12000], "trial": 7, "trial_type": "math-distractor", "trial_index": 241, "time_elapsed": 1128875, "internal_node_id": "0.0-178.0"}}, {"uniqueid": "MTK0920:3TMSXRD2X77XVJ7FYOWPHVCJ8OP1WA", "current_trial": 242, "dateTime": 1512884511957, "trialdata": {"rt": -1, "stimulus": "<p id=\"stim\">10</p>", "key_press": -1, "trial_type": "single-stim", "trial_index": 242, "time_elapsed": 1131879, "internal_node_id": "0.0-179.0-0.0"}}, {"uniqueid": "MTK0920:3TMSXRD2X77XVJ7FYOWPHVCJ8OP1WA", "current_trial": 243, "dateTime": 1512884512960, "trialdata": {"rt": -1, "stimulus": "<p id=\"stim\">9</p>", "key_press": -1, "trial_type": "single-stim", "trial_index": 243, "time_elapsed": 1132882, "internal_node_id": "0.0-179.0-1.0"}}, {"uniqueid": "MTK0920:3TMSXRD2X77XVJ7FYOWPHVCJ8OP1WA", "current_trial": 244, "dateTime": 1512884513964, "trialdata": {"rt": -1, "stimulus": "<p id=\"stim\">8</p>", "key_press": -1, "trial_type": "single-stim", "trial_index": 244, "time_elapsed": 1133886, "internal_node_id": "0.0-179.0-2.0"}}, {"uniqueid": "MTK0920:3TMSXRD2X77XVJ7FYOWPHVCJ8OP1WA", "current_trial": 245, "dateTime": 1512884514968, "trialdata": {"rt": -1, "stimulus": "<p id=\"stim\">7</p>", "key_press": -1, "trial_type": "single-stim", "trial_index": 245, "time_elapsed": 1134890, "internal_node_id": "0.0-179.0-3.0"}}, {"uniqueid": "MTK0920:3TMSXRD2X77XVJ7FYOWPHVCJ8OP1WA", "current_trial": 246, "dateTime": 1512884515971, "trialdata": {"rt": -1, "stimulus": "<p id=\"stim\">6</p>", "key_press": -1, "trial_type": "single-stim", "trial_index": 246, "time_elapsed": 1135894, "internal_node_id": "0.0-179.0-4.0"}}, {"uniqueid": "MTK0920:3TMSXRD2X77XVJ7FYOWPHVCJ8OP1WA", "current_trial": 247, "dateTime": 1512884516972, "trialdata": {"rt": -1, "stimulus": "<p id=\"stim\">5</p>", "key_press": -1, "trial_type": "single-stim", "trial_index": 247, "time_elapsed": 1136895, "internal_node_id": "0.0-179.0-5.0"}}, {"uniqueid": "MTK0920:3TMSXRD2X77XVJ7FYOWPHVCJ8OP1WA", "current_trial": 248, "dateTime": 1512884517975, "trialdata": {"rt": -1, "stimulus": "<p id=\"stim\">4</p>", "key_press": -1, "trial_type": "single-stim", "trial_index": 248, "time_elapsed": 1137898, "internal_node_id": "0.0-179.0-6.0"}}, {"uniqueid": "MTK0920:3TMSXRD2X77XVJ7FYOWPHVCJ8OP1WA", "current_trial": 249, "dateTime": 1512884518987, "trialdata": {"rt": -1, "stimulus": "<p id=\"stim\">3</p>", "key_press": -1, "trial_type": "single-stim", "trial_index": 249, "time_elapsed": 1138910, "internal_node_id": "0.0-179.0-7.0"}}, {"uniqueid": "MTK0920:3TMSXRD2X77XVJ7FYOWPHVCJ8OP1WA", "current_trial": 250, "dateTime": 1512884520008, "trialdata": {"rt": -1, "stimulus": "<p id=\"stim\">2</p>", "key_press": -1, "trial_type": "single-stim", "trial_index": 250, "time_elapsed": 1139931, "internal_node_id": "0.0-179.0-8.0"}}, {"uniqueid": "MTK0920:3TMSXRD2X77XVJ7FYOWPHVCJ8OP1WA", "current_trial": 251, "dateTime": 1512884521012, "trialdata": {"rt": -1, "stimulus": "<p id=\"stim\">1</p>", "key_press": -1, "trial_type": "single-stim", "trial_index": 251, "time_elapsed": 1140934, "internal_node_id": "0.0-179.0-9.0"}}, {"uniqueid": "MTK0920:3TMSXRD2X77XVJ7FYOWPHVCJ8OP1WA", "current_trial": 252, "dateTime": 1512884522515, "trialdata": {"rt": -1, "stimulus": "<p id=\"stim\">+</p>", "key_press": -1, "type": "FIXATION", "trial_type": "single-stim", "trial_index": 252, "time_elapsed": 1142437, "internal_node_id": "0.0-180.0-0.0"}}, {"uniqueid": "MTK0920:3TMSXRD2X77XVJ7FYOWPHVCJ8OP1WA", "current_trial": 253, "dateTime": 1512884524118, "trialdata": {"rt": -1, "stimulus": "<p id=\"stim\">BASEMENT</p>", "key_press": -1, "type": "PRES_VIS", "word": "basement", "wordID": 93, "conditions": [24, 1600, "v", 12000], "trial": 7, "serialpos": 0, "trial_type": "single-stim", "trial_index": 253, "time_elapsed": 1144040, "internal_node_id": "0.0-181.0"}}, {"uniqueid": "MTK0920:3TMSXRD2X77XVJ7FYOWPHVCJ8OP1WA", "current_trial": 254, "dateTime": 1512884526585, "trialdata": {"rt": -1, "stimulus": "<p id=\"stim\">CLOTHES</p>", "key_press": -1, "type": "PRES_VIS", "word": "clothes", "wordID": 326, "conditions": [24, 1600, "v", 12000], "trial": 7, "serialpos": 1, "trial_type": "single-stim", "trial_index": 254, "time_elapsed": 1146507, "internal_node_id": "0.0-182.0"}}, {"uniqueid": "MTK0920:3TMSXRD2X77XVJ7FYOWPHVCJ8OP1WA", "current_trial": 255, "dateTime": 1512884529387, "trialdata": {"rt": -1, "stimulus": "<p id=\"stim\">LIGHTNING</p>", "key_press": -1, "type": "PRES_VIS", "word": "lightning", "wordID": 819, "conditions": [24, 1600, "v", 12000], "trial": 7, "serialpos": 2, "trial_type": "single-stim", "trial_index": 255, "time_elapsed": 1149309, "internal_node_id": "0.0-183.0"}}, {"uniqueid": "MTK0920:3TMSXRD2X77XVJ7FYOWPHVCJ8OP1WA", "current_trial": 256, "dateTime": 1512884531896, "trialdata": {"rt": -1, "stimulus": "<p id=\"stim\">WOMAN</p>", "key_press": -1, "type": "PRES_VIS", "word": "woman", "wordID": 1619, "conditions": [24, 1600, "v", 12000], "trial": 7, "serialpos": 3, "trial_type": "single-stim", "trial_index": 256, "time_elapsed": 1151818, "internal_node_id": "0.0-184.0"}}, {"uniqueid": "MTK0920:3TMSXRD2X77XVJ7FYOWPHVCJ8OP1WA", "current_trial": 257, "dateTime": 1512884534469, "trialdata": {"rt": -1, "stimulus": "<p id=\"stim\">PROTON</p>", "key_press": -1, "type": "PRES_VIS", "word": "proton", "wordID": 1131, "conditions": [24, 1600, "v", 12000], "trial": 7, "serialpos": 4, "trial_type": "single-stim", "trial_index": 257, "time_elapsed": 1154392, "internal_node_id": "0.0-185.0"}}, {"uniqueid": "MTK0920:3TMSXRD2X77XVJ7FYOWPHVCJ8OP1WA", "current_trial": 258, "dateTime": 1512884537183, "trialdata": {"rt": -1, "stimulus": "<p id=\"stim\">CAFE</p>", "key_press": -1, "type": "PRES_VIS", "word": "cafe", "wordID": 215, "conditions": [24, 1600, "v", 12000], "trial": 7, "serialpos": 5, "trial_type": "single-stim", "trial_index": 258, "time_elapsed": 1157105, "internal_node_id": "0.0-186.0"}}, {"uniqueid": "MTK0920:3TMSXRD2X77XVJ7FYOWPHVCJ8OP1WA", "current_trial": 259, "dateTime": 1512884539943, "trialdata": {"rt": -1, "stimulus": "<p id=\"stim\">DINER</p>", "key_press": -1, "type": "PRES_VIS", "word": "diner", "wordID": 466, "conditions": [24, 1600, "v", 12000], "trial": 7, "serialpos": 6, "trial_type": "single-stim", "trial_index": 259, "time_elapsed": 1159865, "internal_node_id": "0.0-187.0"}}, {"uniqueid": "MTK0920:3TMSXRD2X77XVJ7FYOWPHVCJ8OP1WA", "current_trial": 260, "dateTime": 1512884542375, "trialdata": {"rt": -1, "stimulus": "<p id=\"stim\">DENIM</p>", "key_press": -1, "type": "PRES_VIS", "word": "denim", "wordID": 445, "conditions": [24, 1600, "v", 12000], "trial": 7, "serialpos": 7, "trial_type": "single-stim", "trial_index": 260, "time_elapsed": 1162298, "internal_node_id": "0.0-188.0"}}, {"uniqueid": "MTK0920:3TMSXRD2X77XVJ7FYOWPHVCJ8OP1WA", "current_trial": 261, "dateTime": 1512884544945, "trialdata": {"rt": -1, "stimulus": "<p id=\"stim\">DONKEY</p>", "key_press": -1, "type": "PRES_VIS", "word": "donkey", "wordID": 483, "conditions": [24, 1600, "v", 12000], "trial": 7, "serialpos": 8, "trial_type": "single-stim", "trial_index": 261, "time_elapsed": 1164868, "internal_node_id": "0.0-189.0"}}, {"uniqueid": "MTK0920:3TMSXRD2X77XVJ7FYOWPHVCJ8OP1WA", "current_trial": 262, "dateTime": 1512884547510, "trialdata": {"rt": -1, "stimulus": "<p id=\"stim\">BOUQUET</p>", "key_press": -1, "type": "PRES_VIS", "word": "bouquet", "wordID": 156, "conditions": [24, 1600, "v", 12000], "trial": 7, "serialpos": 9, "trial_type": "single-stim", "trial_index": 262, "time_elapsed": 1167432, "internal_node_id": "0.0-190.0"}}, {"uniqueid": "MTK0920:3TMSXRD2X77XVJ7FYOWPHVCJ8OP1WA", "current_trial": 263, "dateTime": 1512884550168, "trialdata": {"rt": -1, "stimulus": "<p id=\"stim\">FOREHEAD</p>", "key_press": -1, "type": "PRES_VIS", "word": "forehead", "wordID": 591, "conditions": [24, 1600, "v", 12000], "trial": 7, "serialpos": 10, "trial_type": "single-stim", "trial_index": 263, "time_elapsed": 1170088, "internal_node_id": "0.0-191.0"}}, {"uniqueid": "MTK0920:3TMSXRD2X77XVJ7FYOWPHVCJ8OP1WA", "current_trial": 264, "dateTime": 1512884552918, "trialdata": {"rt": -1, "stimulus": "<p id=\"stim\">BANJO</p>", "key_press": -1, "type": "PRES_VIS", "word": "banjo", "wordID": 81, "conditions": [24, 1600, "v", 12000], "trial": 7, "serialpos": 11, "trial_type": "single-stim", "trial_index": 264, "time_elapsed": 1172841, "internal_node_id": "0.0-192.0"}}, {"uniqueid": "MTK0920:3TMSXRD2X77XVJ7FYOWPHVCJ8OP1WA", "current_trial": 265, "dateTime": 1512884555714, "trialdata": {"rt": -1, "stimulus": "<p id=\"stim\">PENGUIN</p>", "key_press": -1, "type": "PRES_VIS", "word": "penguin", "wordID": 1043, "conditions": [24, 1600, "v", 12000], "trial": 7, "serialpos": 12, "trial_type": "single-stim", "trial_index": 265, "time_elapsed": 1175636, "internal_node_id": "0.0-193.0"}}, {"uniqueid": "MTK0920:3TMSXRD2X77XVJ7FYOWPHVCJ8OP1WA", "current_trial": 266, "dateTime": 1512884558207, "trialdata": {"rt": -1, "stimulus": "<p id=\"stim\">OUTFIT</p>", "key_press": -1, "type": "PRES_VIS", "word": "outfit", "wordID": 987, "conditions": [24, 1600, "v", 12000], "trial": 7, "serialpos": 13, "trial_type": "single-stim", "trial_index": 266, "time_elapsed": 1178129, "internal_node_id": "0.0-194.0"}}, {"uniqueid": "MTK0920:3TMSXRD2X77XVJ7FYOWPHVCJ8OP1WA", "current_trial": 267, "dateTime": 1512884560806, "trialdata": {"rt": -1, "stimulus": "<p id=\"stim\">BANKER</p>", "key_press": -1, "type": "PRES_VIS", "word": "banker", "wordID": 83, "conditions": [24, 1600, "v", 12000], "trial": 7, "serialpos": 14, "trial_type": "single-stim", "trial_index": 267, "time_elapsed": 1180728, "internal_node_id": "0.0-195.0"}}, {"uniqueid": "MTK0920:3TMSXRD2X77XVJ7FYOWPHVCJ8OP1WA", "current_trial": 268, "dateTime": 1512884563470, "trialdata": {"rt": -1, "stimulus": "<p id=\"stim\">WARDROBE</p>", "key_press": -1, "type": "PRES_VIS", "word": "wardrobe", "wordID": 1586, "conditions": [24, 1600, "v", 12000], "trial": 7, "serialpos": 15, "trial_type": "single-stim", "trial_index": 268, "time_elapsed": 1183392, "internal_node_id": "0.0-196.0"}}, {"uniqueid": "MTK0920:3TMSXRD2X77XVJ7FYOWPHVCJ8OP1WA", "current_trial": 269, "dateTime": 1512884566238, "trialdata": {"rt": -1, "stimulus": "<p id=\"stim\">JOURNAL</p>", "key_press": -1, "type": "PRES_VIS", "word": "journal", "wordID": 759, "conditions": [24, 1600, "v", 12000], "trial": 7, "serialpos": 16, "trial_type": "single-stim", "trial_index": 269, "time_elapsed": 1186161, "internal_node_id": "0.0-197.0"}}, {"uniqueid": "MTK0920:3TMSXRD2X77XVJ7FYOWPHVCJ8OP1WA", "current_trial": 270, "dateTime": 1512884568907, "trialdata": {"rt": -1, "stimulus": "<p id=\"stim\">COOKBOOK</p>", "key_press": -1, "type": "PRES_VIS", 