{"condition": 0, "counterbalance": 2720, "assignmentId": "3I0BTBYZAYS1DZHXH6ADONEPE4HY01", "workerId": "MTK0916", "hitId": "360ZO6N6J1QHSSI28X0TYJWRSQV9MP", "currenttrial": 626, "bonus": 0, "data": [{"uniqueid": "MTK0916:3I0BTBYZAYS1DZHXH6ADONEPE4HY01", "current_trial": 0, "dateTime": 1512882381791, "trialdata": {"rt": 1226540, "key_press": 72, "type": "INSTRUCTIONS", "trial_type": "text", "trial_index": 0, "time_elapsed": 1226542, "internal_node_id": "0.0-0.0"}}, {"uniqueid": "MTK0916:3I0BTBYZAYS1DZHXH6ADONEPE4HY01", "current_trial": 1, "dateTime": 1512882417309, "trialdata": {"rt": 35517, "key_press": 74, "type": "INSTRUCTIONS", "trial_type": "text", "trial_index": 1, "time_elapsed": 1262061, "internal_node_id": "0.0-1.0"}}, {"uniqueid": "MTK0916:3I0BTBYZAYS1DZHXH6ADONEPE4HY01", "current_trial": 2, "dateTime": 1512882430070, "trialdata": {"rt": [12704], "responses": ["ocean"], "type": "AUDIO_TEST", "trial_type": "audio-test", "trial_index": 2, "time_elapsed": 1274822, "internal_node_id": "0.0-2.0"}}, {"uniqueid": "MTK0916:3I0BTBYZAYS1DZHXH6ADONEPE4HY01", "current_trial": 3, "dateTime": 1512882436463, "trialdata": {"rt": [6389], "responses": ["crystal"], "type": "AUDIO_TEST", "trial_type": "audio-test", "trial_index": 3, "time_elapsed": 1281215, "internal_node_id": "0.0-3.0"}}, {"uniqueid": "MTK0916:3I0BTBYZAYS1DZHXH6ADONEPE4HY01", "current_trial": 4, "dateTime": 1512882441574, "trialdata": {"rt": [5107], "responses": ["spice"], "type": "AUDIO_TEST", "trial_type": "audio-test", "trial_index": 4, "time_elapsed": 1286325, "internal_node_id": "0.0-4.0"}}, {"uniqueid": "MTK0916:3I0BTBYZAYS1DZHXH6ADONEPE4HY01", "current_trial": 5, "dateTime": 1512882480189, "trialdata": {"rt": 37862, "responses": "{\"Q0\":\"8pm\",\"Q1\":\"330am\",\"Q2\":\"4\"}", "type": "SLEEP_SURVEY", "trial_type": "survey-text", "trial_index": 5, "time_elapsed": 1324941, "internal_node_id": "0.0-5.0"}}, {"uniqueid": "MTK0916:3I0BTBYZAYS1DZHXH6ADONEPE4HY01", "current_trial": 6, "dateTime": 1512882512920, "trialdata": {"rt": 31728, "key_press": 72, "type": "INSTRUCTIONS", "trial_type": "text", "trial_index": 6, "time_elapsed": 1357672, "internal_node_id": "0.0-6.0"}}, {"uniqueid": "MTK0916:3I0BTBYZAYS1DZHXH6ADONEPE4HY01", "current_trial": 7, "dateTime": 1512882524861, "trialdata": {"rt": 11440, "key_press": 71, "type": "INSTRUCTIONS", "trial_type": "text", "trial_index": 7, "time_elapsed": 1369613, "internal_node_id": "0.0-7.0"}}, {"uniqueid": "MTK0916:3I0BTBYZAYS1DZHXH6ADONEPE4HY01", "current_trial": 8, "dateTime": 1512882537494, "trialdata": {"rt": 12131, "key_press": 74, "type": "INSTRUCTIONS", "trial_type": "text", "trial_index": 8, "time_elapsed": 1382246, "internal_node_id": "0.0-8.0"}}, {"uniqueid": "MTK0916:3I0BTBYZAYS1DZHXH6ADONEPE4HY01", "current_trial": 9, "dateTime": 1512882556510, "trialdata": {"rt": [7985, 10676, 13800, 16750], "responses": ["17", "16", "21", "21"], "num1": [5, 5, 8, 8, 9], "num2": [3, 6, 8, 9, 5], "num3": [9, 5, 5, 4, 2], "type": "DISTRACTOR", "conditions": [18, 1200, "v", 18000], "trial": 0, "trial_type": "math-distractor", "trial_index": 9, "time_elapsed": 1401262, "internal_node_id": "0.0-9.0"}}, {"uniqueid": "MTK0916:3I0BTBYZAYS1DZHXH6ADONEPE4HY01", "current_trial": 10, "dateTime": 1512882559515, "trialdata": {"rt": -1, "stimulus": "<p id=\"stim\">10</p>", "key_press": -1, "trial_type": "single-stim", "trial_index": 10, "time_elapsed": 1404264, "internal_node_id": "0.0-10.0-0.0"}}, {"uniqueid": "MTK0916:3I0BTBYZAYS1DZHXH6ADONEPE4HY01", "current_trial": 11, "dateTime": 1512882560519, "trialdata": {"rt": -1, "stimulus": "<p id=\"stim\">9</p>", "key_press": -1, "trial_type": "single-stim", "trial_index": 11, "time_elapsed": 1405271, "internal_node_id": "0.0-10.0-1.0"}}, {"uniqueid": "MTK0916:3I0BTBYZAYS1DZHXH6ADONEPE4HY01", "current_trial": 12, "dateTime": 1512882561520, "trialdata": {"rt": -1, "stimulus": "<p id=\"stim\">8</p>", "key_press": -1, "trial_type": "single-stim", "trial_index": 12, "time_elapsed": 1406272, "internal_node_id": "0.0-10.0-2.0"}}, {"uniqueid": "MTK0916:3I0BTBYZAYS1DZHXH6ADONEPE4HY01", "current_trial": 13, "dateTime": 1512882562523, "trialdata": {"rt": -1, "stimulus": "<p id=\"stim\">7</p>", "key_press": -1, "trial_type": "single-stim", "trial_index": 13, "time_elapsed": 1407274, "internal_node_id": "0.0-10.0-3.0"}}, {"uniqueid": "MTK0916:3I0BTBYZAYS1DZHXH6ADONEPE4HY01", "current_trial": 14, "dateTime": 1512882563531, "trialdata": {"rt": -1, "stimulus": "<p id=\"stim\">6</p>", "key_press": -1, "trial_type": "single-stim", "trial_index": 14, "time_elapsed": 1408283, "internal_node_id": "0.0-10.0-4.0"}}, {"uniqueid": "MTK0916:3I0BTBYZAYS1DZHXH6ADONEPE4HY01", "current_trial": 15, "dateTime": 1512882564533, "trialdata": {"rt": -1, "stimulus": "<p id=\"stim\">5</p>", "key_press": -1, "trial_type": "single-stim", "trial_index": 15, "time_elapsed": 1409285, "internal_node_id": "0.0-10.0-5.0"}}, {"uniqueid": "MTK0916:3I0BTBYZAYS1DZHXH6ADONEPE4HY01", "current_trial": 16, "dateTime": 1512882565534, "trialdata": {"rt": -1, "stimulus": "<p id=\"stim\">4</p>", "key_press": -1, "trial_type": "single-stim", "trial_index": 16, "time_elapsed": 1410285, "internal_node_id": "0.0-10.0-6.0"}}, {"uniqueid": "MTK0916:3I0BTBYZAYS1DZHXH6ADONEPE4HY01", "current_trial": 17, "dateTime": 1512882566536, "trialdata": {"rt": -1, "stimulus": "<p id=\"stim\">3</p>", "key_press": -1, "trial_type": "single-stim", "trial_index": 17, "time_elapsed": 1411288, "internal_node_id": "0.0-10.0-7.0"}}, {"uniqueid": "MTK0916:3I0BTBYZAYS1DZHXH6ADONEPE4HY01", "current_trial": 18, "dateTime": 1512882567540, "trialdata": {"rt": -1, "stimulus": "<p id=\"stim\">2</p>", "key_press": -1, "trial_type": "single-stim", "trial_index": 18, "time_elapsed": 1412292, "internal_node_id": "0.0-10.0-8.0"}}, {"uniqueid": "MTK0916:3I0BTBYZAYS1DZHXH6ADONEPE4HY01", "current_trial": 19, "dateTime": 1512882568538, "trialdata": {"rt": -1, "stimulus": "<p id=\"stim\">1</p>", "key_press": -1, "trial_type": "single-stim", "trial_index": 19, "time_elapsed": 1413290, "internal_node_id": "0.0-10.0-9.0"}}, {"uniqueid": "MTK0916:3I0BTBYZAYS1DZHXH6ADONEPE4HY01", "current_trial": 20, "dateTime": 1512882570039, "trialdata": {"rt": -1, "stimulus": "<p id=\"stim\">+</p>", "key_press": -1, "type": "FIXATION", "trial_type": "single-stim", "trial_index": 20, "time_elapsed": 1414791, "internal_node_id": "0.0-11.0-0.0"}}, {"uniqueid": "MTK0916:3I0BTBYZAYS1DZHXH6ADONEPE4HY01", "current_trial": 21, "dateTime": 1512882571240, "trialdata": {"rt": -1, "stimulus": "<p id=\"stim\">CUSTARD</p>", "key_press": -1, "type": "PRES_VIS", "word": "custard", "wordID": 428, "conditions": [18, 1200, "v", 18000], "trial": 0, "serialpos": 0, "trial_type": "single-stim", "trial_index": 21, "time_elapsed": 1415992, "internal_node_id": "0.0-12.0"}}, {"uniqueid": "MTK0916:3I0BTBYZAYS1DZHXH6ADONEPE4HY01", "current_trial": 22, "dateTime": 1512882573373, "trialdata": {"rt": -1, "stimulus": "<p id=\"stim\">WAITRESS</p>", "key_press": -1, "type": "PRES_VIS", "word": "waitress", "wordID": 1580, "conditions": [18, 1200, "v", 18000], "trial": 0, "serialpos": 1, "trial_type": "single-stim", "trial_index": 22, "time_elapsed": 1418124, "internal_node_id": "0.0-13.0"}}, {"uniqueid": "MTK0916:3I0BTBYZAYS1DZHXH6ADONEPE4HY01", "current_trial": 23, "dateTime": 1512882575523, "trialdata": {"rt": -1, "stimulus": "<p id=\"stim\">HAWK</p>", "key_press": -1, "type": "PRES_VIS", "word": "hawk", "wordID": 691, "conditions": [18, 1200, "v", 18000], "trial": 0, "serialpos": 2, "trial_type": "single-stim", "trial_index": 23, "time_elapsed": 1420275, "internal_node_id": "0.0-14.0"}}, {"uniqueid": "MTK0916:3I0BTBYZAYS1DZHXH6ADONEPE4HY01", "current_trial": 24, "dateTime": 1512882577783, "trialdata": {"rt": -1, "stimulus": "<p id=\"stim\">FRAGRANCE</p>", "key_press": -1, "type": "PRES_VIS", "word": "fragrance", "wordID": 598, "conditions": [18, 1200, "v", 18000], "trial": 0, "serialpos": 3, "trial_type": "single-stim", "trial_index": 24, "time_elapsed": 1422535, "internal_node_id": "0.0-15.0"}}, {"uniqueid": "MTK0916:3I0BTBYZAYS1DZHXH6ADONEPE4HY01", "current_trial": 25, "dateTime": 1512882580118, "trialdata": {"rt": -1, "stimulus": "<p id=\"stim\">PREACHER</p>", "key_press": -1, "type": "PRES_VIS", "word": "preacher", "wordID": 1118, "conditions": [18, 1200, "v", 18000], "trial": 0, "serialpos": 4, "trial_type": "single-stim", "trial_index": 25, "time_elapsed": 1424869, "internal_node_id": "0.0-16.0"}}, {"uniqueid": "MTK0916:3I0BTBYZAYS1DZHXH6ADONEPE4HY01", "current_trial": 26, "dateTime": 1512882582368, "trialdata": {"rt": -1, "stimulus": "<p id=\"stim\">TYPIST</p>", "key_press": -1, "type": "PRES_VIS", "word": "typist", "wordID": 1531, "conditions": [18, 1200, "v", 18000], "trial": 0, "serialpos": 5, "trial_type": "single-stim", "trial_index": 26, "time_elapsed": 1427120, "internal_node_id": "0.0-17.0"}}, {"uniqueid": "MTK0916:3I0BTBYZAYS1DZHXH6ADONEPE4HY01", "current_trial": 27, "dateTime": 1512882584400, "trialdata": {"rt": -1, "stimulus": "<p id=\"stim\">APRON</p>", "key_press": -1, "type": "PRES_VIS", "word": "apron", "wordID": 34, "conditions": [18, 1200, "v", 18000], "trial": 0, "serialpos": 6, "trial_type": "single-stim", "trial_index": 27, "time_elapsed": 1429152, "internal_node_id": "0.0-18.0"}}, {"uniqueid": "MTK0916:3I0BTBYZAYS1DZHXH6ADONEPE4HY01", "current_trial": 28, "dateTime": 1512882586597, "trialdata": {"rt": -1, "stimulus": "<p id=\"stim\">BROOK</p>", "key_press": -1, "type": "PRES_VIS", "word": "brook", "wordID": 176, "conditions": [18, 1200, "v", 18000], "trial": 0, "serialpos": 7, "trial_type": "single-stim", "trial_index": 28, "time_elapsed": 1431349, "internal_node_id": "0.0-19.0"}}, {"uniqueid": "MTK0916:3I0BTBYZAYS1DZHXH6ADONEPE4HY01", "current_trial": 29, "dateTime": 1512882588806, "trialdata": {"rt": -1, "stimulus": "<p id=\"stim\">TURNIP</p>", "key_press": -1, "type": "PRES_VIS", "word": "turnip", "wordID": 1520, "conditions": [18, 1200, "v", 18000], "trial": 0, "serialpos": 8, "trial_type": "single-stim", "trial_index": 29, "time_elapsed": 1433558, "internal_node_id": "0.0-20.0"}}, {"uniqueid": "MTK0916:3I0BTBYZAYS1DZHXH6ADONEPE4HY01", "current_trial": 30, "dateTime": 1512882591091, "trialdata": {"rt": -1, "stimulus": "<p id=\"stim\">CREVICE</p>", "key_press": -1, "type": "PRES_VIS", "word": "crevice", "wordID": 404, "conditions": [18, 1200, "v", 18000], "trial": 0, "serialpos": 9, "trial_type": "single-stim", "trial_index": 30, "time_elapsed": 1435843, "internal_node_id": "0.0-21.0"}}, {"uniqueid": "MTK0916:3I0BTBYZAYS1DZHXH6ADONEPE4HY01", "current_trial": 31, "dateTime": 1512882593359, "trialdata": {"rt": -1, "stimulus": "<p id=\"stim\">RELISH</p>", "key_press": -1, "type": "PRES_VIS", "word": "relish", "wordID": 1182, "conditions": [18, 1200, "v", 18000], "trial": 0, "serialpos": 10, "trial_type": "single-stim", "trial_index": 31, "time_elapsed": 1438111, "internal_node_id": "0.0-22.0"}}, {"uniqueid": "MTK0916:3I0BTBYZAYS1DZHXH6ADONEPE4HY01", "current_trial": 32, "dateTime": 1512882595536, "trialdata": {"rt": -1, "stimulus": "<p id=\"stim\">QUEEN</p>", "key_press": -1, "type": "PRES_VIS", "word": "queen", "wordID": 1148, "conditions": [18, 1200, "v", 18000], "trial": 0, "serialpos": 11, "trial_type": "single-stim", "trial_index": 32, "time_elapsed": 1440288, "internal_node_id": "0.0-23.0"}}, {"uniqueid": "MTK0916:3I0BTBYZAYS1DZHXH6ADONEPE4HY01", "current_trial": 33, "dateTime": 1512882597714, "trialdata": {"rt": -1, "stimulus": "<p id=\"stim\">BINDER</p>", "key_press": -1, "type": "PRES_VIS", "word": "binder", "wordID": 126, "conditions": [18, 1200, "v", 18000], "trial": 0, "serialpos": 12, "trial_type": "single-stim", "trial_index": 33, "time_elapsed": 1442466, "internal_node_id": "0.0-24.0"}}, {"uniqueid": "MTK0916:3I0BTBYZAYS1DZHXH6ADONEPE4HY01", "current_trial": 34, "dateTime": 1512882600031, "trialdata": {"rt": -1, "stimulus": "<p id=\"stim\">SWAMP</p>", "key_press": -1, "type": "PRES_VIS", "word": "swamp", "wordID": 1415, "conditions": [18, 1200, "v", 18000], "trial": 0, "serialpos": 13, "trial_type": "single-stim", "trial_index": 34, "time_elapsed": 1444783, "internal_node_id": "0.0-25.0"}}, {"uniqueid": "MTK0916:3I0BTBYZAYS1DZHXH6ADONEPE4HY01", "current_trial": 35, "dateTime": 1512882602419, "trialdata": {"rt": -1, "stimulus": "<p id=\"stim\">EGYPT</p>", "key_press": -1, "type": "PRES_VIS", "word": "egypt", "wordID": 518, "conditions": [18, 1200, "v", 18000], "trial": 0, "serialpos": 14, "trial_type": "single-stim", "trial_index": 35, "time_elapsed": 1447170, "internal_node_id": "0.0-26.0"}}, {"uniqueid": "MTK0916:3I0BTBYZAYS1DZHXH6ADONEPE4HY01", "current_trial": 36, "dateTime": 1512882604765, "trialdata": {"rt": -1, "stimulus": "<p id=\"stim\">PERFUME</p>", "key_press": -1, "type": "PRES_VIS", "word": "perfume", "wordID": 1048, "conditions": [18, 1200, "v", 18000], "trial": 0, "serialpos": 15, "trial_type": "single-stim", "trial_index": 36, "time_elapsed": 1449517, "internal_node_id": "0.0-27.0"}}, {"uniqueid": "MTK0916:3I0BTBYZAYS1DZHXH6ADONEPE4HY01", "current_trial": 37, "dateTime": 1512882607033, "trialdata": {"rt": -1, "stimulus": "<p id=\"stim\">COUSIN</p>", "key_press": -1, "type": "PRES_VIS", "word": "cousin", "wordID": 391, "conditions": [18, 1200, "v", 18000], "trial": 0, "serialpos": 16, "trial_type": "single-stim", "trial_index": 37, "time_elapsed": 1451785, "internal_node_id": "0.0-28.0"}}, {"uniqueid": "MTK0916:3I0BTBYZAYS1DZHXH6ADONEPE4HY01", "current_trial": 38, "dateTime": 1512882609336, "trialdata": {"rt": -1, "stimulus": "<p id=\"stim\">DRAWING</p>", "key_press": -1, "type": "PRES_VIS", "word": "drawing", "wordID": 493, "conditions": [18, 1200, "v", 18000], "trial": 0, "serialpos": 17, "trial_type": "single-stim", "trial_index": 38, "time_elapsed": 1454088, "internal_node_id": "0.0-29.0"}}, {"uniqueid": "MTK0916:3I0BTBYZAYS1DZHXH6ADONEPE4HY01", "current_trial": 39, "dateTime": 1512882611795, "trialdata": {"rt": -1, "stimulus": "", "key_press": -1, "type": "PRE_RECALL_DELAY", "trial_type": "single-stim", "trial_index": 39, "time_elapsed": 1456547, "internal_node_id": "0.0-30.0-0.0"}}, {"uniqueid": "MTK0916:3I0BTBYZAYS1DZHXH6ADONEPE4HY01", "current_trial": 40, "dateTime": 1512882612317, "trialdata": {"rt": -1000, "stimulus": "/static/audio/400Hz.wav", "key_press": -1, "type": "PRE_RECALL_ALERT", "trial_type": "single-audio", "trial_index": 40, "time_elapsed": 1457069, "internal_node_id": "0.0-31.0"}}, {"uniqueid": "MTK0916:3I0BTBYZAYS1DZHXH6ADONEPE4HY01", "current_trial": 41, "dateTime": 1512882672317, "trialdata": {"rt": [4738, 7455, 10103, 24080, 30163, 37716, 57088], "recwords": ["custard", "waitress", "swamp", "hawk", "turnip", "crevase", "cousin"], "type": "FREE_RECALL", "conditions": [18, 1200, "v", 18000], "trial": 0, "trial_type": "free-recall", "trial_index": 41, "time_elapsed": 1517067, "internal_node_id": "0.0-32.0-0.0"}}, {"uniqueid": "MTK0916:3I0BTBYZAYS1DZHXH6ADONEPE4HY01", "current_trial": 42, "dateTime": 1512882675766, "trialdata": {"rt": 1447, "key_press": 75, "type": "INSTRUCTIONS", "trial_type": "text", "trial_index": 42, "time_elapsed": 1520517, "internal_node_id": "0.0-33.0"}}, {"uniqueid": "MTK0916:3I0BTBYZAYS1DZHXH6ADONEPE4HY01", "current_trial": 43, "dateTime": 1512882695769, "trialdata": {"rt": [2450, 4882, 7882, 10822, 13306, 15171], "responses": ["11", "17", "20", "15", "15", "10"], "num1": [3, 1, 4, 2, 2, 4, 7], "num2": [3, 9, 8, 7, 5, 4, 8], "num3": [5, 7, 8, 6, 8, 2, 6], "type": "DISTRACTOR", "conditions": [18, 1200, "a", 18000], "trial": 1, "trial_type": "math-distractor", "trial_index": 43, "time_elapsed": 1540520, "internal_node_id": "0.0-34.0"}}, {"uniqueid": "MTK0916:3I0BTBYZAYS1DZHXH6ADONEPE4HY01", "current_trial": 44, "dateTime": 1512882698771, "trialdata": {"rt": -1, "stimulus": "<p id=\"stim\">10</p>", "key_press": -1, "trial_type": "single-stim", "trial_index": 44, "time_elapsed": 1543523, "internal_node_id": "0.0-35.0-0.0"}}, {"uniqueid": "MTK0916:3I0BTBYZAYS1DZHXH6ADONEPE4HY01", "current_trial": 45, "dateTime": 1512882699772, "trialdata": {"rt": -1, "stimulus": "<p id=\"stim\">9</p>", "key_press": -1, "trial_type": "single-stim", "trial_index": 45, "time_elapsed": 1544524, "internal_node_id": "0.0-35.0-1.0"}}, {"uniqueid": "MTK0916:3I0BTBYZAYS1DZHXH6ADONEPE4HY01", "current_trial": 46, "dateTime": 1512882700773, "trialdata": {"rt": -1, "stimulus": "<p id=\"stim\">8</p>", "key_press": -1, "trial_type": "single-stim", "trial_index": 46, "time_elapsed": 1545525, "internal_node_id": "0.0-35.0-2.0"}}, {"uniqueid": "MTK0916:3I0BTBYZAYS1DZHXH6ADONEPE4HY01", "current_trial": 47, "dateTime": 1512882701775, "trialdata": {"rt": -1, "stimulus": "<p id=\"stim\">7</p>", "key_press": -1, "trial_type": "single-stim", "trial_index": 47, "time_elapsed": 1546527, "internal_node_id": "0.0-35.0-3.0"}}, {"uniqueid": "MTK0916:3I0BTBYZAYS1DZHXH6ADONEPE4HY01", "current_trial": 48, "dateTime": 1512882702776, "trialdata": {"rt": -1, "stimulus": "<p id=\"stim\">6</p>", "key_press": -1, "trial_type": "single-stim", "trial_index": 48, "time_elapsed": 1547528, "internal_node_id": "0.0-35.0-4.0"}}, {"uniqueid": "MTK0916:3I0BTBYZAYS1DZHXH6ADONEPE4HY01", "current_trial": 49, "dateTime": 1512882703777, "trialdata": {"rt": -1, "stimulus": "<p id=\"stim\">5</p>", "key_press": -1, "trial_type": "single-stim", "trial_index": 49, "time_elapsed": 1548529, "internal_node_id": "0.0-35.0-5.0"}}, {"uniqueid": "MTK0916:3I0BTBYZAYS1DZHXH6ADONEPE4HY01", "current_trial": 50, "dateTime": 1512882704779, "trialdata": {"rt": -1, "stimulus": "<p id=\"stim\">4</p>", "key_press": -1, "trial_type": "single-stim", "trial_index": 50, "time_elapsed": 1549531, "internal_node_id": "0.0-35.0-6.0"}}, {"uniqueid": "MTK0916:3I0BTBYZAYS1DZHXH6ADONEPE4HY01", "current_trial": 51, "dateTime": 1512882705784, "trialdata": {"rt": -1, "stimulus": "<p id=\"stim\">3</p>", "key_press": -1, "trial_type": "single-stim", "trial_index": 51, "time_elapsed": 1550536, "internal_node_id": "0.0-35.0-7.0"}}, {"uniqueid": "MTK0916:3I0BTBYZAYS1DZHXH6ADONEPE4HY01", "current_trial": 52, "dateTime": 1512882706786, "trialdata": {"rt": -1, "stimulus": "<p id=\"stim\">2</p>", "key_press": -1, "trial_type": "single-stim", "trial_index": 52, "time_elapsed": 1551538, "internal_node_id": "0.0-35.0-8.0"}}, {"uniqueid": "MTK0916:3I0BTBYZAYS1DZHXH6ADONEPE4HY01", "current_trial": 53, "dateTime": 1512882707791, "trialdata": {"rt": -1, "stimulus": "<p id=\"stim\">1</p>", "key_press": -1, "trial_type": "single-stim", "trial_index": 53, "time_elapsed": 1552543, "internal_node_id": "0.0-35.0-9.0"}}, {"uniqueid": "MTK0916:3I0BTBYZAYS1DZHXH6ADONEPE4HY01", "current_trial": 54, "dateTime": 1512882709293, "trialdata": {"rt": -1, "stimulus": "<p id=\"stim\">+</p>", "key_press": -1, "type": "FIXATION", "trial_type": "single-stim", "trial_index": 54, "time_elapsed": 1554045, "internal_node_id": "0.0-36.0-0.0"}}, {"uniqueid": "MTK0916:3I0BTBYZAYS1DZHXH6ADONEPE4HY01", "current_trial": 55, "dateTime": 1512882711525, "trialdata": {"rt": -1000, "stimulus": "/static/audio/wordpool/BLOCKADE.wav", "key_press": -1, "type": "PRES_AUD", "word": "blockade", "wordID": 136, "conditions": [18, 1200, "a", 18000], "trial": 1, "serialpos": 0, "trial_type": "single-audio", "trial_index": 55, "time_elapsed": 1556277, "internal_node_id": "0.0-37.0"}}, {"uniqueid": "MTK0916:3I0BTBYZAYS1DZHXH6ADONEPE4HY01", "current_trial": 56, "dateTime": 1512882713843, "trialdata": {"rt": -1000, "stimulus": "/static/audio/wordpool/SEAFOOD.wav", "key_press": -1, "type": "PRES_AUD", "word": "seafood", "wordID": 1259, "conditions": [18, 1200, "a", 18000], "trial": 1, "serialpos": 1, "trial_type": "single-audio", "trial_index": 56, "time_elapsed": 1558594, "internal_node_id": "0.0-38.0"}}, {"uniqueid": "MTK0916:3I0BTBYZAYS1DZHXH6ADONEPE4HY01", "current_trial": 57, "dateTime": 1512882715901, "trialdata": {"rt": -1000, "stimulus": "/static/audio/wordpool/SLIDE.wav", "key_press": -1, "type": "PRES_AUD", "word": "slide", "wordID": 1325, "conditions": [18, 1200, "a", 18000], "trial": 1, "serialpos": 2, "trial_type": "single-audio", "trial_index": 57, "time_elapsed": 1560652, "internal_node_id": "0.0-39.0"}}, {"uniqueid": "MTK0916:3I0BTBYZAYS1DZHXH6ADONEPE4HY01", "current_trial": 58, "dateTime": 1512882717986, "trialdata": {"rt": -1000, "stimulus": "/static/audio/wordpool/WARDROBE.wav", "key_press": -1, "type": "PRES_AUD", "word": "wardrobe", "wordID": 1586, "conditions": [18, 1200, "a", 18000], "trial": 1, "serialpos": 3, "trial_type": "single-audio", "trial_index": 58, "time_elapsed": 1562738, "internal_node_id": "0.0-40.0"}}, {"uniqueid": "MTK0916:3I0BTBYZAYS1DZHXH6ADONEPE4HY01", "current_trial": 59, "dateTime": 1512882720072, "trialdata": {"rt": -1000, "stimulus": "/static/audio/wordpool/HOOK.wav", "key_press": -1, "type": "PRES_AUD", "word": "hook", "wordID": 714, "conditions": [18, 1200, "a", 18000], "trial": 1, "serialpos": 4, "trial_type": "single-audio", "trial_index": 59, "time_elapsed": 1564824, "internal_node_id": "0.0-41.0"}}, {"uniqueid": "MTK0916:3I0BTBYZAYS1DZHXH6ADONEPE4HY01", "current_trial": 60, "dateTime": 1512882722345, "trialdata": {"rt": -1000, "stimulus": "/static/audio/wordpool/DAISY.wav", "key_press": -1, "type": "PRES_AUD", "word": "daisy", "wordID": 434, "conditions": [18, 1200, "a", 18000], "trial": 1, "serialpos": 5, "trial_type": "single-audio", "trial_index": 60, "time_elapsed": 1567097, "internal_node_id": "0.0-42.0"}}, {"uniqueid": "MTK0916:3I0BTBYZAYS1DZHXH6ADONEPE4HY01", "current_trial": 61, "dateTime": 1512882724655, "trialdata": {"rt": -1000, "stimulus": "/static/audio/wordpool/NIGHTGOWN.wav", "key_press": -1, "type": "PRES_AUD", "word": "nightgown", "wordID": 952, "conditions": [18, 1200, "a", 18000], "trial": 1, "serialpos": 6, "trial_type": "single-audio", "trial_index": 61, "time_elapsed": 1569406, "internal_node_id": "0.0-43.0"}}, {"uniqueid": "MTK0916:3I0BTBYZAYS1DZHXH6ADONEPE4HY01", "current_trial": 62, "dateTime": 1512882726936, "trialdata": {"rt": -1000, "stimulus": "/static/audio/wordpool/PADDLE.wav", "key_press": -1, "type": "PRES_AUD", "word": "paddle", "wordID": 999, "conditions": [18, 1200, "a", 18000], "trial": 1, "serialpos": 7, "trial_type": "single-audio", "trial_index": 62, "time_elapsed": 1571688, "internal_node_id": "0.0-44.0"}}, {"uniqueid": "MTK0916:3I0BTBYZAYS1DZHXH6ADONEPE4HY01", "current_trial": 63, "dateTime": 1512882729239, "trialdata": {"rt": -1000, "stimulus": "/static/audio/wordpool/BUREAU.wav", "key_press": -1, "type": "PRES_AUD", "word": "bureau", "wordID": 198, "conditions": [18, 1200, "a", 18000], "trial": 1, "serialpos": 8, "trial_type": "single-audio", "trial_index": 63, "time_elapsed": 1573991, "internal_node_id": "0.0-45.0"}}, {"uniqueid": "MTK0916:3I0BTBYZAYS1DZHXH6ADONEPE4HY01", "current_trial": 64, "dateTime": 1512882731327, "trialdata": {"rt": -1000, "stimulus": "/static/audio/wordpool/HOOD.wav", "key_press": -1, "type": "PRES_AUD", "word": "hood", "wordID": 713, "conditions": [18, 1200, "a", 18000], "trial": 1, "serialpos": 9, "trial_type": "single-audio", "trial_index": 64, "time_elapsed": 1576079, "internal_node_id": "0.0-46.0"}}, {"uniqueid": "MTK0916:3I0BTBYZAYS1DZHXH6ADONEPE4HY01", "current_trial": 65, "dateTime": 1512882733592, "trialdata": {"rt": -1000, "stimulus": "/static/audio/wordpool/HEADBAND.wav", "key_press": -1, "type": "PRES_AUD", "word": "headband", "wordID": 695, "conditions": [18, 1200, "a", 18000], "trial": 1, "serialpos": 10, "trial_type": "single-audio", "trial_index": 65, "time_elapsed": 1578344, "internal_node_id": "0.0-47.0"}}, {"uniqueid": "MTK0916:3I0BTBYZAYS1DZHXH6ADONEPE4HY01", "current_trial": 66, "dateTime": 1512882735702, "trialdata": {"rt": -1000, "stimulus": "/static/audio/wordpool/TEACHER.wav", "key_press": -1, "type": "PRES_AUD", "word": "teacher", "wordID": 1439, "conditions": [18, 1200, "a", 18000], "trial": 1, "serialpos": 11, "trial_type": "single-audio", "trial_index": 66, "time_elapsed": 1580454, "internal_node_id": "0.0-48.0"}}, {"uniqueid": "MTK0916:3I0BTBYZAYS1DZHXH6ADONEPE4HY01", "current_trial": 67, "dateTime": 1512882737817, "trialdata": {"rt": -1000, "stimulus": "/static/audio/wordpool/SLUG.wav", "key_press": -1, "type": "PRES_AUD", "word": "slug", "wordID": 1328, "conditions": [18, 1200, "a", 18000], "trial": 1, "serialpos": 12, "trial_type": "single-audio", "trial_index": 67, "time_elapsed": 1582569, "internal_node_id": "0.0-49.0"}}, {"uniqueid": "MTK0916:3I0BTBYZAYS1DZHXH6ADONEPE4HY01", "current_trial": 68, "dateTime": 1512882739932, "trialdata": {"rt": -1000, "stimulus": "/static/audio/wordpool/COD.wav", "key_press": -1, "type": "PRES_AUD", "word": "cod", "wordID": 339, "conditions": [18, 1200, "a", 18000], "trial": 1, "serialpos": 13, "trial_type": "single-audio", "trial_index": 68, "time_elapsed": 1584682, "internal_node_id": "0.0-50.0"}}, {"uniqueid": "MTK0916:3I0BTBYZAYS1DZHXH6ADONEPE4HY01", "current_trial": 69, "dateTime": 1512882742099, "trialdata": {"rt": -1000, "stimulus": "/static/audio/wordpool/BURGLAR.wav", "key_press": -1, "type": "PRES_AUD", "word": "burglar", "wordID": 199, "conditions": [18, 1200, "a", 18000], "trial": 1, "serialpos": 14, "trial_type": "single-audio", "trial_index": 69, "time_elapsed": 1586851, "internal_node_id": "0.0-51.0"}}, {"uniqueid": "MTK0916:3I0BTBYZAYS1DZHXH6ADONEPE4HY01", "current_trial": 70, "dateTime": 1512882744215, "trialdata": {"rt": -1000, "stimulus": "/static/audio/wordpool/ZEBRA.wav", "key_press": -1, "type": "PRES_AUD", "word": "zebra", "wordID": 1634, "conditions": [18, 1200, "a", 18000], "trial": 1, "serialpos": 15, "trial_type": "single-audio", "trial_index": 70, "time_elapsed": 1588967, "internal_node_id": "0.0-52.0"}}, {"uniqueid": "MTK0916:3I0BTBYZAYS1DZHXH6ADONEPE4HY01", "current_trial": 71, "dateTime": 1512882746437, "trialdata": {"rt": -1000, "stimulus": "/static/audio/wordpool/COBRA.wav", "key_press": -1, "type": "PRES_AUD", "word": "cobra", "wordID": 335, "conditions": [18, 1200, "a", 18000], "trial": 1, "serialpos": 16, "trial_type": "single-audio", "trial_index": 71, "time_elapsed": 1591189, "internal_node_id": "0.0-53.0"}}, {"uniqueid": "MTK0916:3I0BTBYZAYS1DZHXH6ADONEPE4HY01", "current_trial": 72, "dateTime": 1512882748656, "trialdata": {"rt": -1000, "stimulus": "/static/audio/wordpool/DANDRUFF.wav", "key_press": -1, "type": "PRES_AUD", "word": "dandruff", "wordID": 438, "conditions": [18, 1200, "a", 18000], "trial": 1, "serialpos": 17, "trial_type": "single-audio", "trial_index": 72, "time_elapsed": 1593408, "internal_node_id": "0.0-54.0"}}, {"uniqueid": "MTK0916:3I0BTBYZAYS1DZHXH6ADONEPE4HY01", "current_trial": 73, "dateTime": 1512882750011, "trialdata": {"rt": -1, "stimulus": "", "key_press": -1, "type": "PRE_RECALL_DELAY", "trial_type": "single-stim", "trial_index": 73, "time_elapsed": 1594763, "internal_node_id": "0.0-55.0-0.0"}}, {"uniqueid": "MTK0916:3I0BTBYZAYS1DZHXH6ADONEPE4HY01", "current_trial": 74, "dateTime": 1512882750516, "trialdata": {"rt": -1000, "stimulus": "/static/audio/400Hz.wav", "key_press": -1, "type": "PRE_RECALL_ALERT", "trial_type": "single-audio", "trial_index": 74, "time_elapsed": 1595268, "internal_node_id": "0.0-56.0"}}, {"uniqueid": "MTK0916:3I0BTBYZAYS1DZHXH6ADONEPE4HY01", "current_trial": 75, "dateTime": 1512882810514, "trialdata": {"rt": [3809, 6057, 8195, 12440, 14358, 42698, 50305], "recwords": ["dandruff", "cobra", "hood", "headband", "zebra", "bureau", "cod"], "type": "FREE_RECALL", "conditions": [18, 1200, "a", 18000], "trial": 1, "trial_type": "free-recall", "trial_index": 75, "time_elapsed": 1655264, "internal_node_id": "0.0-57.0-0.0"}}, {"uniqueid": "MTK0916:3I0BTBYZAYS1DZHXH6ADONEPE4HY01", "current_trial": 76, "dateTime": 1512882814037, "trialdata": {"rt": 1511, "key_press": 76, "type": "INSTRUCTIONS", "trial_type": "text", "trial_index": 76, "time_elapsed": 1658786, "internal_node_id": "0.0-58.0"}}, {"uniqueid": "MTK0916:3I0BTBYZAYS1DZHXH6ADONEPE4HY01", "current_trial": 77, "dateTime": 1512882839053, "trialdata": {"rt": [3042, 5151, 7664, 10308, 13664, 17156, 19154, 21856], "responses": ["8", "16", "15", "8", "20", "19", "16", "16"], "num1": [3, 3, 7, 4, 7, 9, 9, 8, 6], "num2": [1, 7, 7, 2, 8, 4, 3, 3, 8], "num3": [4, 6, 1, 2, 5, 6, 4, 5, 9], "type": "DISTRACTOR", "conditions": [12, 1600, "v", 24000], "trial": 2, "trial_type": "math-distractor", "trial_index": 77, "time_elapsed": 1683805, "internal_node_id": "0.0-59.0"}}, {"uniqueid": "MTK0916:3I0BTBYZAYS1DZHXH6ADONEPE4HY01", "current_trial": 78, "dateTime": 1512882842056, "trialdata": {"rt": -1, "stimulus": "<p id=\"stim\">10</p>", "key_press": -1, "trial_type": "single-stim", "trial_index": 78, "time_elapsed": 1686808, "internal_node_id": "0.0-60.0-0.0"}}, {"uniqueid": "MTK0916:3I0BTBYZAYS1DZHXH6ADONEPE4HY01", "current_trial": 79, "dateTime": 1512882843061, "trialdata": {"rt": -1, "stimulus": "<p id=\"stim\">9</p>", "key_press": -1, "trial_type": "single-stim", "trial_index": 79, "time_elapsed": 1687813, "internal_node_id": "0.0-60.0-1.0"}}, {"uniqueid": "MTK0916:3I0BTBYZAYS1DZHXH6ADONEPE4HY01", "current_trial": 80, "dateTime": 1512882844066, "trialdata": {"rt": -1, "stimulus": "<p id=\"stim\">8</p>", "key_press": -1, "trial_type": "single-stim", "trial_index": 80, "time_elapsed": 1688818, "internal_node_id": "0.0-60.0-2.0"}}, {"uniqueid": "MTK0916:3I0BTBYZAYS1DZHXH6ADONEPE4HY01", "current_trial": 81, "dateTime": 1512882845067, "trialdata": {"rt": -1, "stimulus": "<p id=\"stim\">7</p>", "key_press": -1, "trial_type": "single-stim", "trial_index": 81, "time_elapsed": 1689818, "internal_node_id": "0.0-60.0-3.0"}}, {"uniqueid": "MTK0916:3I0BTBYZAYS1DZHXH6ADONEPE4HY01", "current_trial": 82, "dateTime": 1512882846068, "trialdata": {"rt": -1, "stimulus": "<p id=\"stim\">6</p>", "key_press": -1, "trial_type": "single-stim", "trial_index": 82, "time_elapsed": 1690820, "internal_node_id": "0.0-60.0-4.0"}}, {"uniqueid": "MTK0916:3I0BTBYZAYS1DZHXH6ADONEPE4HY01", "current_trial": 83, "dateTime": 1512882847069, "trialdata": {"rt": -1, "stimulus": "<p id=\"stim\">5</p>", "key_press": -1, "trial_type": "single-stim", "trial_index": 83, "time_elapsed": 1691821, "internal_node_id": "0.0-60.0-5.0"}}, {"uniqueid": "MTK0916:3I0BTBYZAYS1DZHXH6ADONEPE4HY01", "current_trial": 84, "dateTime": 1512882848072, "trialdata": {"rt": -1, "stimulus": "<p id=\"stim\">4</p>", "key_press": -1, "trial_type": "single-stim", "trial_index": 84, "time_elapsed": 1692822, "internal_node_id": "0.0-60.0-6.0"}}, {"uniqueid": "MTK0916:3I0BTBYZAYS1DZHXH6ADONEPE4HY01", "current_trial": 85, "dateTime": 1512882849075, "trialdata": {"rt": -1, "stimulus": "<p id=\"stim\">3</p>", "key_press": -1, "trial_type": "single-stim", "trial_index": 85, "time_elapsed": 1693827, "internal_node_id": "0.0-60.0-7.0"}}, {"uniqueid": "MTK0916:3I0BTBYZAYS1DZHXH6ADONEPE4HY01", "current_trial": 86, "dateTime": 1512882850077, "trialdata": {"rt": -1, "stimulus": "<p id=\"stim\">2</p>", "key_press": -1, "trial_type": "single-stim", "trial_index": 86, "time_elapsed": 1694829, "internal_node_id": "0.0-60.0-8.0"}}, {"uniqueid": "MTK0916:3I0BTBYZAYS1DZHXH6ADONEPE4HY01", "current_trial": 87, "dateTime": 1512882851079, "trialdata": {"rt": -1, "stimulus": "<p id=\"stim\">1</p>", "key_press": -1, "trial_type": "single-stim", "trial_index": 87, "time_elapsed": 1695831, "internal_node_id": "0.0-60.0-9.0"}}, {"uniqueid": "MTK0916:3I0BTBYZAYS1DZHXH6ADONEPE4HY01", "current_trial": 88, "dateTime": 1512882852580, "trialdata": {"rt": -1, "stimulus": "<p id=\"stim\">+</p>", "key_press": -1, "type": "FIXATION", "trial_type": "single-stim", "trial_index": 88, "time_elapsed": 1697332, "internal_node_id": "0.0-61.0-0.0"}}, {"uniqueid": "MTK0916:3I0BTBYZAYS1DZHXH6ADONEPE4HY01", "current_trial": 89, "dateTime": 1512882854182, "trialdata": {"rt": -1, "stimulus": "<p id=\"stim\">BUBBLE</p>", "key_press": -1, "type": "PRES_VIS", "word": "bubble", "wordID": 182, "conditions": [12, 1600, "v", 24000], "trial": 2, "serialpos": 0, "trial_type": "single-stim", "trial_index": 89, "time_elapsed": 1698934, "internal_node_id": "0.0-62.0"}}, {"uniqueid": "MTK0916:3I0BTBYZAYS1DZHXH6ADONEPE4HY01", "current_trial": 90, "dateTime": 1512882856832, "trialdata": {"rt": -1, "stimulus": "<p id=\"stim\">COCOON</p>", "key_press": -1, "type": "PRES_VIS", "word": "cocoon", "wordID": 338, "conditions": [12, 1600, "v", 24000], "trial": 2, "serialpos": 1, "trial_type": "single-stim", "trial_index": 90, "time_elapsed": 1701584, "internal_node_id": "0.0-63.0"}}, {"uniqueid": "MTK0916:3I0BTBYZAYS1DZHXH6ADONEPE4HY01", "current_trial": 91, "dateTime": 1512882859331, "trialdata": {"rt": -1, "stimulus": "<p id=\"stim\">KIDNEY</p>", "key_press": -1, "type": "PRES_VIS", "word": "kidney", "wordID": 775, "conditions": [12, 1600, "v", 24000], "trial": 2, "serialpos": 2, "trial_type": "single-stim", "trial_index": 91, "time_elapsed": 1704082, "internal_node_id": "0.0-64.0"}}, {"uniqueid": "MTK0916:3I0BTBYZAYS1DZHXH6ADONEPE4HY01", "current_trial": 92, "dateTime": 1512882862021, "trialdata": {"rt": -1, "stimulus": "<p id=\"stim\">FRANCE</p>", "key_press": -1, "type": "PRES_VIS", "word": "france", "wordID": 600, "conditions": [12, 1600, "v", 24000], "trial": 2, "serialpos": 3, "trial_type": "single-stim", "trial_index": 92, "time_elapsed": 1706773, "internal_node_id": "0.0-65.0"}}, {"uniqueid": "MTK0916:3I0BTBYZAYS1DZHXH6ADONEPE4HY01", "current_trial": 93, "dateTime": 1512882864519, "trialdata": {"rt": -1, "stimulus": "<p id=\"stim\">LONDON</p>", "key_press": -1, "type": "PRES_VIS", "word": "london", "wordID": 842, "conditions": [12, 1600, "v", 24000], "trial": 2, "serialpos": 4, "trial_type": "single-stim", "trial_index": 93, "time_elapsed": 1709271, "internal_node_id": "0.0-66.0"}}, {"uniqueid": "MTK0916:3I0BTBYZAYS1DZHXH6ADONEPE4HY01", "current_trial": 94, "dateTime": 1512882866984, "trialdata": {"rt": -1, "stimulus": "<p id=\"stim\">ROBIN</p>", "key_press": -1, "type": "PRES_VIS", "word": "robin", "wordID": 1198, "conditions": [12, 1600, "v", 24000], "trial": 2, "serialpos": 5, "trial_type": "single-stim", "trial_index": 94, "time_elapsed": 1711736, "internal_node_id": "0.0-67.0"}}, {"uniqueid": "MTK0916:3I0BTBYZAYS1DZHXH6ADONEPE4HY01", "current_trial": 95, "dateTime": 1512882869444, "trialdata": {"rt": -1, "stimulus": "<p id=\"stim\">KNIFE</p>", "key_press": -1, "type": "PRES_VIS", "word": "knife", "wordID": 784, "conditions": [12, 1600, "v", 24000], "trial": 2, "serialpos": 6, "trial_type": "single-stim", "trial_index": 95, "time_elapsed": 1714196, "internal_node_id": "0.0-68.0"}}, {"uniqueid": "MTK0916:3I0BTBYZAYS1DZHXH6ADONEPE4HY01", "current_trial": 96, "dateTime": 1512882872229, "trialdata": {"rt": -1, "stimulus": "<p id=\"stim\">CATTLE</p>", "key_press": -1, "type": "PRES_VIS", "word": "cattle", "wordID": 260, "conditions": [12, 1600, "v", 24000], "trial": 2, "serialpos": 7, "trial_type": "single-stim", "trial_index": 96, "time_elapsed": 1716981, "internal_node_id": "0.0-69.0"}}, {"uniqueid": "MTK0916:3I0BTBYZAYS1DZHXH6ADONEPE4HY01", "current_trial": 97, "dateTime": 1512882874972, "trialdata": {"rt": -1, "stimulus": "<p id=\"stim\">SEAGULL</p>", "key_press": -1, "type": "PRES_VIS", "word": "seagull", "wordID": 1260, "conditions": [12, 1600, "v", 24000], "trial": 2, "serialpos": 8, "trial_type": "single-stim", "trial_index": 97, "time_elapsed": 1719724, "internal_node_id": "0.0-70.0"}}, {"uniqueid": "MTK0916:3I0BTBYZAYS1DZHXH6ADONEPE4HY01", "current_trial": 98, "dateTime": 1512882877637, "trialdata": {"rt": -1, "stimulus": "<p id=\"stim\">JELLY</p>", "key_press": -1, "type": "PRES_VIS", "word": "jelly", "wordID": 754, "conditions": [12, 1600, "v", 24000], "trial": 2, "serialpos": 9, "trial_type": "single-stim", "trial_index": 98, "time_elapsed": 1722389, "internal_node_id": "0.0-71.0"}}, {"uniqueid": "MTK0916:3I0BTBYZAYS1DZHXH6ADONEPE4HY01", "current_trial": 99, "dateTime": 1512882880150, "trialdata": {"rt": -1, "stimulus": "<p id=\"stim\">PISTOL</p>", "key_press": -1, "type": "PRES_VIS", "word": "pistol", "wordID": 1074, "conditions": [12, 1600, "v", 24000], "trial": 2, "serialpos": 10, "trial_type": "single-stim", "trial_index": 99, "time_elapsed": 1724902, "internal_node_id": "0.0-72.0"}}, {"uniqueid": "MTK0916:3I0BTBYZAYS1DZHXH6ADONEPE4HY01", "current_trial": 100, "dateTime": 1512882882573, "trialdata": {"rt": -1, "stimulus": "<p id=\"stim\">PLAID</p>", "key_press": -1, "type": "PRES_VIS", "word": "plaid", "wordID": 1079, "conditions": [12, 1600, "v", 24000], "trial": 2, "serialpos": 11, "trial_type": "single-stim", "trial_index": 100, "time_elapsed": 1727325, "internal_node_id": "0.0-73.0"}}, {"uniqueid": "MTK0916:3I0BTBYZAYS1DZHXH6ADONEPE4HY01", "current_trial": 101, "dateTime": 1512882884724, "trialdata": {"rt": -1, "stimulus": "", "key_press": -1, "type": "PRE_RECALL_DELAY", "trial_type": "single-stim", "trial_index": 101, "time_elapsed": 1729476, "internal_node_id": "0.0-74.0-0.0"}}, {"uniqueid": "MTK0916:3I0BTBYZAYS1DZHXH6ADONEPE4HY01", "current_trial": 102, "dateTime": 1512882885230, "trialdata": {"rt": -1000, "stimulus": "/static/audio/400Hz.wav", "key_press": -1, "type": "PRE_RECALL_ALERT", "trial_type": "single-audio", "trial_index": 102, "time_elapsed": 1729982, "internal_node_id": "0.0-75.0"}}, {"uniqueid": "MTK0916:3I0BTBYZAYS1DZHXH6ADONEPE4HY01", "current_trial": 103, "dateTime": 1512882945233, "trialdata": {"rt": [2942, 5096, 7429, 11250, 14062, 16438], "recwords": ["knife", "london", "buuble", "cocoon", "kidney", "france"], "type": "FREE_RECALL", "conditions": [12, 1600, "v", 24000], "trial": 2, "trial_type": "free-recall", "trial_index": 103, "time_elapsed": 1789982, "internal_node_id": "0.0-76.0-0.0"}}, {"uniqueid": "MTK0916:3I0BTBYZAYS1DZHXH6ADONEPE4HY01", "current_trial": 104, "dateTime": 1512882949185, "trialdata": {"rt": 1950, "key_press": 76, "type": "INSTRUCTIONS", "trial_type": "text", "trial_index": 104, "time_elapsed": 1793937, "internal_node_id": "0.0-77.0"}}, {"uniqueid": "MTK0916:3I0BTBYZAYS1DZHXH6ADONEPE4HY01", "current_trial": 105, "dateTime": 1512882975199, "trialdata": {"rt": [3215, 5703, 8552, 11459, 13915, 15836, 17641, 20819], "responses": ["14", "18", "17", "24", "22", "7", "14", "14"], "num1": [9, 7, 9, 8, 3, 2, 2, 3, 2], "num2": [1, 4, 4, 9, 9, 4, 6, 2, 2], "num3": [4, 7, 4, 7, 9, 1, 6, 9, 3], "type": "DISTRACTOR", "conditions": [24, 1600, "v", 24000], "trial": 3, "trial_type": "math-distractor", "trial_index": 105, "time_elapsed": 1819950, "internal_node_id": "0.0-78.0"}}, {"uniqueid": "MTK0916:3I0BTBYZAYS1DZHXH6ADONEPE4HY01", "current_trial": 106, "dateTime": 1512882978201, "trialdata": {"rt": -1, "stimulus": "<p id=\"stim\">10</p>", "key_press": -1, "trial_type": "single-stim", "trial_index": 106, "time_elapsed": 1822953, "internal_node_id": "0.0-79.0-0.0"}}, {"uniqueid": "MTK0916:3I0BTBYZAYS1DZHXH6ADONEPE4HY01", "current_trial": 107, "dateTime": 1512882979206, "trialdata": {"rt": -1, "stimulus": "<p id=\"stim\">9</p>", "key_press": -1, "trial_type": "single-stim", "trial_index": 107, "time_elapsed": 1823958, "internal_node_id": "0.0-79.0-1.0"}}, {"uniqueid": "MTK0916:3I0BTBYZAYS1DZHXH6ADONEPE4HY01", "current_trial": 108, "dateTime": 1512882980210, "trialdata": {"rt": -1, "stimulus": "<p id=\"stim\">8</p>", "key_press": -1, "trial_type": "single-stim", "trial_index": 108, "time_elapsed": 1824962, "internal_node_id": "0.0-79.0-2.0"}}, {"uniqueid": "MTK0916:3I0BTBYZAYS1DZHXH6ADONEPE4HY01", "current_trial": 109, "dateTime": 1512882981211, "trialdata": {"rt": -1, "stimulus": "<p id=\"stim\">7</p>", "key_press": -1, "trial_type": "single-stim", "trial_index": 109, "time_elapsed": 1825963, "internal_node_id": "0.0-79.0-3.0"}}, {"uniqueid": "MTK0916:3I0BTBYZAYS1DZHXH6ADONEPE4HY01", "current_trial": 110, "dateTime": 1512882982212, "trialdata": {"rt": -1, "stimulus": "<p id=\"stim\">6</p>", "key_press": -1, "trial_type": "single-stim", "trial_index": 110, "time_elapsed": 1826964, "internal_node_id": "0.0-79.0-4.0"}}, {"uniqueid": "MTK0916:3I0BTBYZAYS1DZHXH6ADONEPE4HY01", "current_trial": 111, "dateTime": 1512882983215, "trialdata": {"rt": -1, "stimulus": "<p id=\"stim\">5</p>", "key_press": -1, "trial_type": "single-stim", "trial_index": 111, "time_elapsed": 1827967, "internal_node_id": "0.0-79.0-5.0"}}, {"uniqueid": "MTK0916:3I0BTBYZAYS1DZHXH6ADONEPE4HY01", "current_trial": 112, "dateTime": 1512882984219, "trialdata": {"rt": -1, "stimulus": "<p id=\"stim\">4</p>", "key_press": -1, "trial_type": "single-stim", "trial_index": 112, "time_elapsed": 1828971, "internal_node_id": "0.0-79.0-6.0"}}, {"uniqueid": "MTK0916:3I0BTBYZAYS1DZHXH6ADONEPE4HY01", "current_trial": 113, "dateTime": 1512882985220, "trialdata": {"rt": -1, "stimulus": "<p id=\"stim\">3</p>", "key_press": -1, "trial_type": "single-stim", "trial_index": 113, "time_elapsed": 1829972, "internal_node_id": "0.0-79.0-7.0"}}, {"uniqueid": "MTK0916:3I0BTBYZAYS1DZHXH6ADONEPE4HY01", "current_trial": 114, "dateTime": 1512882986226, "trialdata": {"rt": -1, "stimulus": "<p id=\"stim\">2</p>", "key_press": -1, "trial_type": "single-stim", "trial_index": 114, "time_elapsed": 1830978, "internal_node_id": "0.0-79.0-8.0"}}, {"uniqueid": "MTK0916:3I0BTBYZAYS1DZHXH6ADONEPE4HY01", "current_trial": 115, "dateTime": 1512882987232, "trialdata": {"rt": -1, "stimulus": "<p id=\"stim\">1</p>", "key_press": -1, "trial_type": "single-stim", "trial_index": 115, "time_elapsed": 1831984, "internal_node_id": "0.0-79.0-9.0"}}, {"uniqueid": "MTK0916:3I0BTBYZAYS1DZHXH6ADONEPE4HY01", "current_trial": 116, "dateTime": 1512882988763, "trialdata": {"rt": -1, "stimulus": "<p id=\"stim\">+</p>", "key_press": -1, "type": "FIXATION", "trial_type": "single-stim", "trial_index": 116, "time_elapsed": 1833515, "internal_node_id": "0.0-80.0-0.0"}}, {"uniqueid": "MTK0916:3I0BTBYZAYS1DZHXH6ADONEPE4HY01", "current_trial": 117, "dateTime": 1512882990359, "trialdata": {"rt": -1, "stimulus": "<p id=\"stim\">BANJO</p>", "key_press": -1, "type": "PRES_VIS", "word": "banjo", "wordID": 81, "conditions": [24, 1600, "v", 24000], "trial": 3, "serialpos": 0, "trial_type": "single-stim", "trial_index": 117, "time_elapsed": 1835111, "internal_node_id": "0.0-81.0"}}, {"uniqueid": "MTK0916:3I0BTBYZAYS1DZHXH6ADONEPE4HY01", "current_trial": 118, "dateTime": 1512882992818, "trialdata": {"rt": -1, "stimulus": "<p id=\"stim\">JAPAN</p>", "key_press": -1, "type": "PRES_VIS", "word": "japan", "wordID": 748, "conditions": [24, 1600, "v", 24000], "trial": 3, "serialpos": 1, "trial_type": "single-stim", "trial_index": 118, "time_elapsed": 1837570, "internal_node_id": "0.0-82.0"}}, {"uniqueid": "MTK0916:3I0BTBYZAYS1DZHXH6ADONEPE4HY01", "current_trial": 119, "dateTime": 1512882995471, "trialdata": {"rt": -1, "stimulus": "<p id=\"stim\">SALMON</p>", "key_press": -1, "type": "PRES_VIS", "word": "salmon", "wordID": 1226, "conditions": [24, 1600, "v", 24000], "trial": 3, "serialpos": 2, "trial_type": "single-stim", "trial_index": 119, "time_elapsed": 1840223, "internal_node_id": "0.0-83.0"}}, {"uniqueid": "MTK0916:3I0BTBYZAYS1DZHXH6ADONEPE4HY01", "current_trial": 120, "dateTime": 1512882997887, "trialdata": {"rt": -1, "stimulus": "<p id=\"stim\">SCALLOP</p>", "key_press": -1, "type": "PRES_VIS", "word": "scallop", "wordID": 1241, "conditions": [24, 1600, "v", 24000], "trial": 3, "serialpos": 3, "trial_type": "single-stim", "trial_index": 120, "time_elapsed": 1842639, "internal_node_id": "0.0-84.0"}}, {"uniqueid": "MTK0916:3I0BTBYZAYS1DZHXH6ADONEPE4HY01", "current_trial": 121, "dateTime": 1512883000426, "trialdata": {"rt": -1, "stimulus": "<p id=\"stim\">BRANDY</p>", "key_press": -1, "type": "PRES_VIS", "word": "brandy", "wordID": 168, "conditions": [24, 1600, "v", 24000], "trial": 3, "serialpos": 4, "trial_type": "single-stim", "trial_index": 121, "time_elapsed": 1845178, "internal_node_id": "0.0-85.0"}}, {"uniqueid": "MTK0916:3I0BTBYZAYS1DZHXH6ADONEPE4HY01", "current_trial": 122, "dateTime": 1512883002963, "trialdata": {"rt": -1, "stimulus": "<p id=\"stim\">KLEENEX</p>", "key_press": -1, "type": "PRES_VIS", "word": "kleenex", "wordID": 781, "conditions": [24, 1600, "v", 24000], "trial": 3, "serialpos": 5, "trial_type": "single-stim", "trial_index": 122, "time_elapsed": 1847715, "internal_node_id": "0.0-86.0"}}, {"uniqueid": "MTK0916:3I0BTBYZAYS1DZHXH6ADONEPE4HY01", "current_trial": 123, "dateTime": 1512883005434, "trialdata": {"rt": -1, "stimulus": "<p id=\"stim\">SHORTS</p>", "key_press": -1, "type": "PRES_VIS", "word": "shorts", "wordID": 1292, "conditions": [24, 1600, "v", 24000], "trial": 3, "serialpos": 6, "trial_type": "single-stim", "trial_index": 123, "time_elapsed": 1850186, "internal_node_id": "0.0-87.0"}}, {"uniqueid": "MTK0916:3I0BTBYZAYS1DZHXH6ADONEPE4HY01", "current_trial": 124, "dateTime": 1512883008221, "trialdata": {"rt": -1, "stimulus": "<p id=\"stim\">SILK</p>", "key_press": -1, "type": "PRES_VIS", "word": "silk", "wordID": 1306, "conditions": [24, 1600, "v", 24000], "trial": 3, "serialpos": 7, "trial_type": "single-stim", "trial_index": 124, "time_elapsed": 1852973, "internal_node_id": "0.0-88.0"}}, {"uniqueid": "MTK0916:3I0BTBYZAYS1DZHXH6ADONEPE4HY01", "current_trial": 125, "dateTime": 1512883010789, "trialdata": {"rt": -1, "stimulus": "<p id=\"stim\">EUROPE</p>", "key_press": -1, "type": "PRES_VIS", "word": "europe", "wordID": 540, "conditions": [24, 1600, "v", 24000], "trial": 3, "serialpos": 8, "trial_type": "single-stim", "trial_index": 125, "time_elapsed": 1855540, "internal_node_id": "0.0-89.0"}}, {"uniqueid": "MTK0916:3I0BTBYZAYS1DZHXH6ADONEPE4HY01", "current_trial": 126, "dateTime": 1512883013252, "trialdata": {"rt": -1, "stimulus": "<p id=\"stim\">PLASTER</p>", "key_press": -1, "type": "PRES_VIS", "word": "plaster", "wordID": 1084, "conditions": [24, 1600, "v", 24000], "trial": 3, "serialpos": 9, "trial_type": "single-stim", "trial_index": 126, "time_elapsed": 1858004, "internal_node_id": "0.0-90.0"}}, {"uniqueid": "MTK0916:3I0BTBYZAYS1DZHXH6ADONEPE4HY01", "current_trial": 127, "dateTime": 1512883015898, "trialdata": {"rt": -1, "stimulus": "<p id=\"stim\">MARKER</p>", "key_press": -1, "type": "PRES_VIS", "word": "marker", "wordID": 869, "conditions": [24, 1600, "v", 24000], "trial": 3, "serialpos": 10, "trial_type": "single-stim", "trial_index": 127, "time_elapsed": 1860650, "internal_node_id": "0.0-91.0"}}, {"uniqueid": "MTK0916:3I0BTBYZAYS1DZHXH6ADONEPE4HY01", "current_trial": 128, "dateTime": 1512883018668, "trialdata": {"rt": -1, "stimulus": "<p id=\"stim\">RADISH</p>", "key_press": -1, "type": "PRES_VIS", "word": "radish", "wordID": 1157, "conditions": [24, 1600, "v", 24000], "trial": 3, "serialpos": 11, "trial_type": "single-stim", "trial_index": 128, "time_elapsed": 1863419, "internal_node_id": "0.0-92.0"}}, {"uniqueid": "MTK0916:3I0BTBYZAYS1DZHXH6ADONEPE4HY01", "current_trial": 129, "dateTime": 1512883021372, "trialdata": {"rt": -1, "stimulus": "<p id=\"stim\">TORTOISE</p>", "key_press": -1, "type": "PRES_VIS", "word": "tortoise", "wordID": 1485, "conditions": [24, 1600, "v", 24000], "trial": 3, "serialpos": 12, "trial_type": "single-stim", "trial_index": 129, "time_elapsed": 1866124, "internal_node_id": "0.0-93.0"}}, {"uniqueid": "MTK0916:3I0BTBYZAYS1DZHXH6ADONEPE4HY01", "current_trial": 130, "dateTime": 1512883023875, "trialdata": {"rt": -1, "stimulus": "<p id=\"stim\">SNAIL</p>", "key_press": -1, "type": "PRES_VIS", "word": "snail", "wordID": 1331, "conditions": [24, 1600, "v", 24000], "trial": 3, "serialpos": 13, "trial_type": "single-stim", "trial_index": 130, "time_elapsed": 1868626, "internal_node_id": "0.0-94.0"}}, {"uniqueid": "MTK0916:3I0BTBYZAYS1DZHXH6ADONEPE4HY01", "current_trial": 131, "dateTime": 1512883026592, "trialdata": {"rt": -1, "stimulus": "<p id=\"stim\">UNCLE</p>", "key_press": -1, "type": "PRES_VIS", "word": "uncle", "wordID": 1535, "conditions": [24, 1600, "v", 24000], "trial": 3, "serialpos": 14, "trial_type": "single-stim", "trial_index": 131, "time_elapsed": 1871343, "internal_node_id": "0.0-95.0"}}, {"uniqueid": "MTK0916:3I0BTBYZAYS1DZHXH6ADONEPE4HY01", "current_trial": 132, "dateTime": 1512883029093, "trialdata": {"rt": -1, "stimulus": "<p id=\"stim\">TROMBONE</p>", "key_press": -1, "type": "PRES_VIS", "word": "trombone", "wordID": 1507, "conditions": [24, 1600, "v", 24000], "trial": 3, "serialpos": 15, "trial_type": "single-stim", "trial_index": 132, "time_elapsed": 1873845, "internal_node_id": "0.0-96.0"}}, {"uniqueid": "MTK0916:3I0BTBYZAYS1DZHXH6ADONEPE4HY01", "current_trial": 133, "dateTime": 1512883031602, "trialdata": {"rt": -1, "stimulus": "<p id=\"stim\">BASEMENT</p>", "key_press": -1, "type": "PRES_VIS", "word": "basement", "wordID": 93, "conditions": [24, 1600, "v", 24000], "trial": 3, "serialpos": 16, "trial_type": "single-stim", "trial_index": 133, "time_elapsed": 1876354, "internal_node_id": "0.0-97.0"}}, {"uniqueid": "MTK0916:3I0BTBYZAYS1DZHXH6ADONEPE4HY01", "current_trial": 134, "dateTime": 1512883034098, "trialdata": {"rt": -1, "stimulus": "<p id=\"stim\">EXPERT</p>", "key_press": -1, "type": "PRES_VIS", "word": "expert", "wordID": 542, "conditions": [24, 1600, "v", 24000], "trial": 3, "serialpos": 17, "trial_type": "single-stim", "trial_index": 134, "time_elapsed": 1878848, "internal_node_id": "0.0-98.0"}}, {"uniqueid": "MTK0916:3I0BTBYZAYS1DZHXH6ADONEPE4HY01", "current_trial": 135, "dateTime": 1512883036775, "trialdata": {"rt": -1, "stimulus": "<p id=\"stim\">TURTLE</p>", "key_press": -1, "type": "PRES_VIS", "word": "turtle", "wordID": 1521, "conditions": [24, 1600, "v", 24000], "trial": 3, "serialpos": 18, "trial_type": "single-stim", "trial_index": 135, "time_elapsed": 1881526, "internal_node_id": "0.0-99.0"}}, {"uniqueid": "MTK0916:3I0BTBYZAYS1DZHXH6ADONEPE4HY01", "current_trial": 136, "dateTime": 1512883039572, "trialdata": {"rt": -1, "stimulus": "<p id=\"stim\">DONKEY</p>", "key_press": -1, "type": "PRES_VIS", "word": "donkey", "wordID": 483, "conditions": [24, 1600, "v", 24000], "trial": 3, "serialpos": 19, "trial_type": "single-stim", "trial_index": 136, "time_elapsed": 1884324, "internal_node_id": "0.0-100.0"}}, {"uniqueid": "MTK0916:3I0BTBYZAYS1DZHXH6ADONEPE4HY01", "current_trial": 137, "dateTime": 1512883042271, "trialdata": {"rt": -1, "stimulus": "<p id=\"stim\">KITCHEN</p>", "key_press": -1, "type": "PRES_VIS", "word": "kitchen", "wordID": 777, "conditions": [24, 1600, "v", 24000], "trial": 3, "serialpos": 20, "trial_type": "single-stim", "trial_index": 137, "time_elapsed": 1887023, "internal_node_id": "0.0-101.0"}}, {"uniqueid": "MTK0916:3I0BTBYZAYS1DZHXH6ADONEPE4HY01", "current_trial": 138, "dateTime": 1512883044962, "trialdata": {"rt": -1, "stimulus": "<p id=\"stim\">CATCHER</p>", "key_press": -1, "type": "PRES_VIS", "word": "catcher", "wordID": 257, "conditions": [24, 1600, "v", 24000], "trial": 3, "serialpos": 21, "trial_type": "single-stim", "trial_index": 138, "time_elapsed": 1889713, "internal_node_id": "0.0-102.0"}}, {"uniqueid": "MTK0916:3I0BTBYZAYS1DZHXH6ADONEPE4HY01", "current_trial": 139, "dateTime": 1512883047741, "trialdata": {"rt": -1, "stimulus": "<p id=\"stim\">PASTRY</p>", "key_press": -1, "type": "PRES_VIS", "word": "pastry", "wordID": 1021, "conditions": [24, 1600, "v", 24000], "trial": 3, "serialpos": 22, "trial_type": "single-stim", "trial_index": 139, "time_elapsed": 1892493, "internal_node_id": "0.0-103.0"}}, {"uniqueid": "MTK0916:3I0BTBYZAYS1DZHXH6ADONEPE4HY01", "current_trial": 140, "dateTime": 1512883050313, "trialdata": {"rt": -1, "stimulus": "<p id=\"stim\">ATOM</p>", "key_press": -1, "type": "PRES_VIS", "word": "atom", "wordID": 54, "conditions": [24, 1600, "v", 24000], "trial": 3, "serialpos": 23, "trial_type": "single-stim", "trial_index": 140, "time_elapsed": 1895065, "internal_node_id": "0.0-104.0"}}, {"uniqueid": "MTK0916:3I0BTBYZAYS1DZHXH6ADONEPE4HY01", "current_trial": 141, "dateTime": 1512883052627, "trialdata": {"rt": -1, "stimulus": "", "key_press": -1, "type": "PRE_RECALL_DELAY", "trial_type": "single-stim", "trial_index": 141, "time_elapsed": 1897379, "internal_node_id": "0.0-105.0-0.0"}}, {"uniqueid": "MTK0916:3I0BTBYZAYS1DZHXH6ADONEPE4HY01", "current_trial": 142, "dateTime": 1512883053129, "trialdata": {"rt": -1000, "stimulus": "/static/audio/400Hz.wav", "key_press": -1, "type": "PRE_RECALL_ALERT", "trial_type": "single-audio", "trial_index": 142, "time_elapsed": 1897881, "internal_node_id": "0.0-106.0"}}, {"uniqueid": "MTK0916:3I0BTBYZAYS1DZHXH6ADONEPE4HY01", "current_trial": 143, "dateTime": 1512883113141, "trialdata": {"rt": [2190, 4362, 7410, 11942, 14249, 16759, 25345, 30641, 49785], "recwords": ["atom", "pastry", "trombone", "banjo", "japan", "europe", "scallop", "kitchen", "knife"], "type": "FREE_RECALL", "conditions": [24, 1600, "v", 24000], "trial": 3, "trial_type": "free-recall", "trial_index": 143, "time_elapsed": 1957888, "internal_node_id": "0.0-107.0-0.0"}}, {"uniqueid": "MTK0916:3I0BTBYZAYS1DZHXH6ADONEPE4HY01", "current_trial": 144, "dateTime": 1512883116520, "trialdata": {"rt": 1377, "key_press": 72, "type": "INSTRUCTIONS", "trial_type": "text", "trial_index": 144, "time_elapsed": 1961272, "internal_node_id": "0.0-108.0"}}, {"uniqueid": "MTK0916:3I0BTBYZAYS1DZHXH6ADONEPE4HY01", "current_trial": 145, "dateTime": 1512883130527, "trialdata": {"rt": [3875, 7218, 10030], "responses": ["13", "17", "17"], "num1": [2, 2, 7, 6], "num2": [3, 6, 4, 5], "num3": [8, 9, 6, 3], "type": "DISTRACTOR", "conditions": [12, 1600, "a", 12000], "trial": 4, "trial_type": "math-distractor", "trial_index": 145, "time_elapsed": 1975279, "internal_node_id": "0.0-109.0"}}, {"uniqueid": "MTK0916:3I0BTBYZAYS1DZHXH6ADONEPE4HY01", "current_trial": 146, "dateTime": 1512883133529, "trialdata": {"rt": -1, "stimulus": "<p id=\"stim\">10</p>", "key_press": -1, "trial_type": "single-stim", "trial_index": 146, "time_elapsed": 1978280, "internal_node_id": "0.0-110.0-0.0"}}, {"uniqueid": "MTK0916:3I0BTBYZAYS1DZHXH6ADONEPE4HY01", "current_trial": 147, "dateTime": 1512883134530, "trialdata": {"rt": -1, "stimulus": "<p id=\"stim\">9</p>", "key_press": -1, "trial_type": "single-stim", "trial_index": 147, "time_elapsed": 1979282, "internal_node_id": "0.0-110.0-1.0"}}, {"uniqueid": "MTK0916:3I0BTBYZAYS1DZHXH6ADONEPE4HY01", "current_trial": 148, "dateTime": 1512883135534, "trialdata": {"rt": -1, "stimulus": "<p id=\"stim\">8</p>", "key_press": -1, "trial_type": "single-stim", "trial_index": 148, "time_elapsed": 1980285, "internal_node_id": "0.0-110.0-2.0"}}, {"uniqueid": "MTK0916:3I0BTBYZAYS1DZHXH6ADONEPE4HY01", "current_trial": 149, "dateTime": 1512883136536, "trialdata": {"rt": -1, "stimulus": "<p id=\"stim\">7</p>", "key_press": -1, "trial_type": "single-stim", "trial_index": 149, "time_elapsed": 1981288, "internal_node_id": "0.0-110.0-3.0"}}, {"uniqueid": "MTK0916:3I0BTBYZAYS1DZHXH6ADONEPE4HY01", "current_trial": 150, "dateTime": 1512883137546, "trialdata": {"rt": -1, "stimulus": "<p id=\"stim\">6</p>", "key_press": -1, "trial_type": "single-stim", "trial_index": 150, "time_elapsed": 1982298, "internal_node_id": "0.0-110.0-4.0"}}, {"uniqueid": "MTK0916:3I0BTBYZAYS1DZHXH6ADONEPE4HY01", "current_trial": 151, "dateTime": 1512883138555, "trialdata": {"rt": -1, "stimulus": "<p id=\"stim\">5</p>", "key_press": -1, "trial_type": "single-stim", "trial_index": 151, "time_elapsed": 1983307, "internal_node_id": "0.0-110.0-5.0"}}, {"uniqueid": "MTK0916:3I0BTBYZAYS1DZHXH6ADONEPE4HY01", "current_trial": 152, "dateTime": 1512883139557, "trialdata": {"rt": -1, "stimulus": "<p id=\"stim\">4</p>", "key_press": -1, "trial_type": "single-stim", "trial_index": 152, "time_elapsed": 1984308, "internal_node_id": "0.0-110.0-6.0"}}, {"uniqueid": "MTK0916:3I0BTBYZAYS1DZHXH6ADONEPE4HY01", "current_trial": 153, "dateTime": 1512883140558, "trialdata": {"rt": -1, "stimulus": "<p id=\"stim\">3</p>", "key_press": -1, "trial_type": "single-stim", "trial_index": 153, "time_elapsed": 1985310, "internal_node_id": "0.0-110.0-7.0"}}, {"uniqueid": "MTK0916:3I0BTBYZAYS1DZHXH6ADONEPE4HY01", "current_trial": 154, "dateTime": 1512883141560, "trialdata": {"rt": -1, "stimulus": "<p id=\"stim\">2</p>", "key_press": -1, "trial_type": "single-stim", "trial_index": 154, "time_elapsed": 1986312, "internal_node_id": "0.0-110.0-8.0"}}, {"uniqueid": "MTK0916:3I0BTBYZAYS1DZHXH6ADONEPE4HY01", "current_trial": 155, "dateTime": 1512883142570, "trialdata": {"rt": -1, "stimulus": "<p id=\"stim\">1</p>", "key_press": -1, "trial_type": "single-stim", "trial_index": 155, "time_elapsed": 1987321, "internal_node_id": "0.0-110.0-9.0"}}, {"uniqueid": "MTK0916:3I0BTBYZAYS1DZHXH6ADONEPE4HY01", "current_trial": 156, "dateTime": 1512883144071, "trialdata": {"rt": -1, "stimulus": "<p id=\"stim\">+</p>", "key_press": -1, "type": "FIXATION", "trial_type": "single-stim", "trial_index": 156, "time_elapsed": 1988823, "internal_node_id": "0.0-111.0-0.0"}}, {"uniqueid": "MTK0916:3I0BTBYZAYS1DZHXH6ADONEPE4HY01", "current_trial": 157, "dateTime": 1512883146702, "trialdata": {"rt": -1000, "stimulus": "/static/audio/wordpool/DUST.wav", "key_press": -1, "type": "PRES_AUD", "word": "dust", "wordID": 507, "conditions": [12, 1600, "a", 12000], "trial": 4, "serialpos": 0, "trial_type": "single-audio", "trial_index": 157, "time_elapsed": 1991454, "internal_node_id": "0.0-112.0"}}, {"uniqueid": "MTK0916:3I0BTBYZAYS1DZHXH6ADONEPE4HY01", "current_trial": 158, "dateTime": 1512883149343, "trialdata": {"rt": -1000, "stimulus": "/static/audio/wordpool/FLASHLIGHT.wav", "key_press": -1, "type": "PRES_AUD", "word": "flashlight", "wordID": 574, "conditions": [12, 1600, "a", 12000], "trial": 4, "serialpos": 1, "trial_type": "single-audio", "trial_index": 158, "time_elapsed": 1994094, "internal_node_id": "0.0-113.0"}}, {"uniqueid": "MTK0916:3I0BTBYZAYS1DZHXH6ADONEPE4HY01", "current_trial": 159, "dateTime": 1512883151996, "trialdata": {"rt": -1000, "stimulus": "/static/audio/wordpool/FRECKLE.wav", "key_press": -1, "type": "PRES_AUD", "word": "freckle", "wordID": 601, "conditions": [12, 1600, "a", 12000], "trial": 4, "serialpos": 2, "trial_type": "single-audio", "trial_index": 159, "time_elapsed": 1996748, "internal_node_id": "0.0-114.0"}}, {"uniqueid": "MTK0916:3I0BTBYZAYS1DZHXH6ADONEPE4HY01", "current_trial": 160, "dateTime": 1512883154588, "trialdata": {"rt": -1000, "stimulus": "/static/audio/wordpool/RECEIPT.wav", "key_press": -1, "type": "PRES_AUD", "word": "receipt", "wordID": 1172, "conditions": [12, 1600, "a", 12000], "trial": 4, "serialpos": 3, "trial_type": "single-audio", "trial_index": 160, "time_elapsed": 1999339, "internal_node_id": "0.0-115.0"}}, {"uniqueid": "MTK0916:3I0BTBYZAYS1DZHXH6ADONEPE4HY01", "current_trial": 161, "dateTime": 1512883157291, "trialdata": {"rt": -1000, "stimulus": "/static/audio/wordpool/EAGLE.wav", "key_press": -1, "type": "PRES_AUD", "word": "eagle", "wordID": 511, "conditions": [12, 1600, "a", 12000], "trial": 4, "serialpos": 4, "trial_type": "single-audio", "trial_index": 161, "time_elapsed": 2002043, "internal_node_id": "0.0-116.0"}}, {"uniqueid": "MTK0916:3I0BTBYZAYS1DZHXH6ADONEPE4HY01", "current_trial": 162, "dateTime": 1512883159877, "trialdata": {"rt": -1000, "stimulus": "/static/audio/wordpool/FOOT.wav", "key_press": -1, "type": "PRES_AUD", "word": "foot", "wordID": 589, "conditions": [12, 1600, "a", 12000], "trial": 4, "serialpos": 5, "trial_type": "single-audio", "trial_index": 162, "time_elapsed": 2004629, "internal_node_id": "0.0-117.0"}}, {"uniqueid": "MTK0916:3I0BTBYZAYS1DZHXH6ADONEPE4HY01", "current_trial": 163, "dateTime": 1512883162673, "trialdata": {"rt": -1000, "stimulus": "/static/audio/wordpool/BANK.wav", "key_press": -1, "type": "PRES_AUD", "word": "bank", "wordID": 82, "conditions": [12, 1600, "a", 12000], "trial": 4, "serialpos": 6, "trial_type": "single-audio", "trial_index": 163, "time_elapsed": 2007424, "internal_node_id": "0.0-118.0"}}, {"uniqueid": "MTK0916:3I0BTBYZAYS1DZHXH6ADONEPE4HY01", "current_trial": 164, "dateTime": 1512883165288, "trialdata": {"rt": -1000, "stimulus": "/static/audio/wordpool/HONEY.wav", "key_press": -1, "type": "PRES_AUD", "word": "honey", "wordID": 712, "conditions": [12, 1600, "a", 12000], "trial": 4, "serialpos": 7, "trial_type": "single-audio", "trial_index": 164, "time_elapsed": 2010039, "internal_node_id": "0.0-119.0"}}, {"uniqueid": "MTK0916:3I0BTBYZAYS1DZHXH6ADONEPE4HY01", "current_trial": 165, "dateTime": 1512883167840, "trialdata": {"rt": -1000, "stimulus": "/static/audio/wordpool/GRAPE.wav", "key_press": -1, "type": "PRES_AUD", "word": "grape", "wordID": 653, "conditions": [12, 1600, "a", 12000], "trial": 4, "serialpos": 8, "trial_type": "single-audio", "trial_index": 165, "time_elapsed": 2012591, "internal_node_id": "0.0-120.0"}}, {"uniqueid": "MTK0916:3I0BTBYZAYS1DZHXH6ADONEPE4HY01", "current_trial": 166, "dateTime": 1512883170601, "trialdata": {"rt": -1000, "stimulus": "/static/audio/wordpool/SPONGE.wav", "key_press": -1, "type": "PRES_AUD", "word": "sponge", "wordID": 1354, "conditions": [12, 1600, "a", 12000], "trial": 4, "serialpos": 9, "trial_type": "single-audio", "trial_index": 166, "time_elapsed": 2015353, "internal_node_id": "0.0-121.0"}}, {"uniqueid": "MTK0916:3I0BTBYZAYS1DZHXH6ADONEPE4HY01", "current_trial": 167, "dateTime": 1512883173043, "trialdata": {"rt": -1000, "stimulus": "/static/audio/wordpool/PRINCESS.wav", "key_press": -1, "type": "PRES_AUD", "word": "princess", "wordID": 1124, "conditions": [12, 1600, "a", 12000], "trial": 4, "serialpos": 10, "trial_type": "single-audio", "trial_index": 167, "time_elapsed": 2017795, "internal_node_id": "0.0-122.0"}}, {"uniqueid": "MTK0916:3I0BTBYZAYS1DZHXH6ADONEPE4HY01", "current_trial": 168, "dateTime": 1512883175633, "trialdata": {"rt": -1000, "stimulus": "/static/audio/wordpool/BANKER.wav", "key_press": -1, "type": "PRES_AUD", "word": "banker", "wordID": 83, "conditions": [12, 1600, "a", 12000], "trial": 4, "serialpos": 11, "trial_type": "single-audio", "trial_index": 168, "time_elapsed": 2020385, "internal_node_id": "0.0-123.0"}}, {"uniqueid": "MTK0916:3I0BTBYZAYS1DZHXH6ADONEPE4HY01", "current_trial": 169, "dateTime": 1512883176915, "trialdata": {"rt": -1, "stimulus": "", "key_press": -1, "type": "PRE_RECALL_DELAY", "trial_type": "single-stim", "trial_index": 169, "time_elapsed": 2021667, "internal_node_id": "0.0-124.0-0.0"}}, {"uniqueid": "MTK0916:3I0BTBYZAYS1DZHXH6ADONEPE4HY01", "current_trial": 170, "dateTime": 1512883177418, "trialdata": {"rt": -1000, "stimulus": "/static/audio/400Hz.wav", "key_press": -1, "type": "PRE_RECALL_ALERT", "trial_type": "single-audio", "trial_index": 170, "time_elapsed": 2022170, "internal_node_id": "0.0-125.0"}}, {"uniqueid": "MTK0916:3I0BTBYZAYS1DZHXH6ADONEPE4HY01", "current_trial": 171, "dateTime": 1512883237431, "trialdata": {"rt": [2899, 5984, 8874, 23168, 41811], "recwords": ["banker", "dust", "flashlight", "receipt", "honey"], "type": "FREE_RECALL", "conditions": [12, 1600, "a", 12000], "trial": 4, "trial_type": "free-recall", "trial_index": 171, "time_elapsed": 2082178, "internal_node_id": "0.0-126.0-0.0"}}, {"uniqueid": "MTK0916:3I0BTBYZAYS1DZHXH6ADONEPE4HY01", "current_trial": 172, "dateTime": 1512883568833, "trialdata": {"rt": 329397, "key_press": 72, "type": "INSTRUCTIONS", "trial_type": "text", "trial_index": 172, "time_elapsed": 2413584, "internal_node_id": "0.0-127.0"}}, {"uniqueid": "MTK0916:3I0BTBYZAYS1DZHXH6ADONEPE4HY01", "current_trial": 173, "dateTime": 1512883594843, "trialdata": {"rt": [4379, 7333, 10659, 12891, 15811, 18471, 21721], "responses": ["22", "16", "19", "8", "14", "13", "14"], "num1": [7, 2, 7, 4, 1, 1, 3, 7], "num2": [9, 5, 8, 3, 7, 8, 9, 4], "num3": [6, 9, 4, 1, 6, 4, 2, 9], "type": "DISTRACTOR", "conditions": [24, 800, "v", 24000], "trial": 5, "trial_type": "math-distractor", "trial_index": 173, "time_elapsed": 2439595, "internal_node_id": "0.0-128.0"}}, {"uniqueid": "MTK0916:3I0BTBYZAYS1DZHXH6ADONEPE4HY01", "current_trial": 174, "dateTime": 1512883597846, "trialdata": {"rt": -1, "stimulus": "<p id=\"stim\">10</p>", "key_press": -1, "trial_type": "single-stim", "trial_index": 174, "time_elapsed": 2442598, "internal_node_id": "0.0-129.0-0.0"}}, {"uniqueid": "MTK0916:3I0BTBYZAYS1DZHXH6ADONEPE4HY01", "current_trial": 175, "dateTime": 1512883598847, "trialdata": {"rt": -1, "stimulus": "<p id=\"stim\">9</p>", "key_press": -1, "trial_type": "single-stim", "trial_index": 175, "time_elapsed": 2443599, "internal_node_id": "0.0-129.0-1.0"}}, {"uniqueid": "MTK0916:3I0BTBYZAYS1DZHXH6ADONEPE4HY01", "current_trial": 176, "dateTime": 1512883599849, "trialdata": {"rt": -1, "stimulus": "<p id=\"stim\">8</p>", "key_press": -1, "trial_type": "single-stim", "trial_index": 176, "time_elapsed": 2444601, "internal_node_id": "0.0-129.0-2.0"}}, {"uniqueid": "MTK0916:3I0BTBYZAYS1DZHXH6ADONEPE4HY01", "current_trial": 177, "dateTime": 1512883600850, "trialdata": {"rt": -1, "stimulus": "<p id=\"stim\">7</p>", "key_press": -1, "trial_type": "single-stim", "trial_index": 177, "time_elapsed": 2445602, "internal_node_id": "0.0-129.0-3.0"}}, {"uniqueid": "MTK0916:3I0BTBYZAYS1DZHXH6ADONEPE4HY01", "current_trial": 178, "dateTime": 1512883601853, "trialdata": {"rt": -1, "stimulus": "<p id=\"stim\">6</p>", "key_press": -1, "trial_type": "single-stim", "trial_index": 178, "time_elapsed": 2446605, "internal_node_id": "0.0-129.0-4.0"}}, {"uniqueid": "MTK0916:3I0BTBYZAYS1DZHXH6ADONEPE4HY01", "current_trial": 179, "dateTime": 1512883602855, "trialdata": {"rt": -1, "stimulus": "<p id=\"stim\">5</p>", "key_press": -1, "trial_type": "single-stim", "trial_index": 179, "time_elapsed": 2447607, "internal_node_id": "0.0-129.0-5.0"}}, {"uniqueid": "MTK0916:3I0BTBYZAYS1DZHXH6ADONEPE4HY01", "current_trial": 180, "dateTime": 1512883603856, "trialdata": {"rt": -1, "stimulus": "<p id=\"stim\">4</p>", "key_press": -1, "trial_type": "single-stim", "trial_index": 180, "time_elapsed": 2448608, "internal_node_id": "0.0-129.0-6.0"}}, {"uniqueid": "MTK0916:3I0BTBYZAYS1DZHXH6ADONEPE4HY01", "current_trial": 181, "dateTime": 1512883604859, "trialdata": {"rt": -1, "stimulus": "<p id=\"stim\">3</p>", "key_press": -1, "trial_type": "single-stim", "trial_index": 181, "time_elapsed": 2449610, "internal_node_id": "0.0-129.0-7.0"}}, {"uniqueid": "MTK0916:3I0BTBYZAYS1DZHXH6ADONEPE4HY01", "current_trial": 182, "dateTime": 1512883605861, "trialdata": {"rt": -1, "stimulus": "<p id=\"stim\">2</p>", "key_press": -1, "trial_type": "single-stim", "trial_index": 182, "time_elapsed": 2450612, "internal_node_id": "0.0-129.0-8.0"}}, {"uniqueid": "MTK0916:3I0BTBYZAYS1DZHXH6ADONEPE4HY01", "current_trial": 183, "dateTime": 1512883606864, "trialdata": {"rt": -1, "stimulus": "<p id=\"stim\">1</p>", "key_press": -1, "trial_type": "single-stim", "trial_index": 183, "time_elapsed": 2451615, "internal_node_id": "0.0-129.0-9.0"}}, {"uniqueid": "MTK0916:3I0BTBYZAYS1DZHXH6ADONEPE4HY01", "current_trial": 184, "dateTime": 1512883608364, "trialdata": {"rt": -1, "stimulus": "<p id=\"stim\">+</p>", "key_press": -1, "type": "FIXATION", "trial_type": "single-stim", "trial_index": 184, "time_elapsed": 2453116, "internal_node_id": "0.0-130.0-0.0"}}, {"uniqueid": "MTK0916:3I0BTBYZAYS1DZHXH6ADONEPE4HY01", "current_trial": 185, "dateTime": 1512883609169, "trialdata": {"rt": -1, "stimulus": "<p id=\"stim\">BOYFRIEND</p>", "key_press": -1, "type": "PRES_VIS", "word": "boyfriend", "wordID": 161, "conditions": [24, 800, "v", 24000], "trial": 5, "serialpos": 0, "trial_type": "single-stim", "trial_index": 185, "time_elapsed": 2453921, "internal_node_id": "0.0-131.0"}}, {"uniqueid": "MTK0916:3I0BTBYZAYS1DZHXH6ADONEPE4HY01", "current_trial": 186, "dateTime": 1512883610828, "trialdata": {"rt": -1, "stimulus": "<p id=\"stim\">SUNRISE</p>", "key_press": -1, "type": "PRES_VIS", "word": "sunrise", "wordID": 1406, "conditions": [24, 800, "v", 24000], "trial": 5, "serialpos": 1, "trial_type": "single-stim", "trial_index": 186, "time_elapsed": 2455580, "internal_node_id": "0.0-132.0"}}, {"uniqueid": "MTK0916:3I0BTBYZAYS1DZHXH6ADONEPE4HY01", "current_trial": 187, "dateTime": 1512883612719, "trialdata": {"rt": -1, "stimulus": "<p id=\"stim\">SUNSET</p>", "key_press": -1, "type": "PRES_VIS", "word": "sunset", "wordID": 1407, "conditions": [24, 800, "v", 24000], "trial": 5, "serialpos": 2, "trial_type": "single-stim", "trial_index": 187, "time_elapsed": 2457471, "internal_node_id": "0.0-133.0"}}, {"uniqueid": "MTK0916:3I0BTBYZAYS1DZHXH6ADONEPE4HY01", "current_trial": 188, "dateTime": 1512883614511, "trialdata": {"rt": -1, "stimulus": "<p id=\"stim\">SPIDER</p>", "key_press": -1, "type": "PRES_VIS", "word": "spider", "wordID": 1350, "conditions": [24, 800, "v", 24000], "trial": 5, "serialpos": 3, "trial_type": "single-stim", "trial_index": 188, "time_elapsed": 2459263, "internal_node_id": "0.0-134.0"}}, {"uniqueid": "MTK0916:3I0BTBYZAYS1DZHXH6ADONEPE4HY01", "current_trial": 189, "dateTime": 1512883616162, "trialdata": {"rt": -1, "stimulus": "<p id=\"stim\">STICKER</p>", "key_press": -1, "type": "PRES_VIS", "word": "sticker", "wordID": 1381, "conditions": [24, 800, "v", 24000], "trial": 5, "serialpos": 4, "trial_type": "single-stim", "trial_index": 189, "time_elapsed": 2460914, "internal_node_id": "0.0-135.0"}}, {"uniqueid": "MTK0916:3I0BTBYZAYS1DZHXH6ADONEPE4HY01", "current_trial": 190, "dateTime": 1512883617930, "trialdata": {"rt": -1, "stimulus": "<p id=\"stim\">GANGSTER</p>", "key_press": -1, "type": "PRES_VIS", "word": "gangster", "wordID": 619, "conditions": [24, 800, "v", 24000], "trial": 5, "serialpos": 5, "trial_type": "single-stim", "trial_index": 190, "time_elapsed": 2462682, "internal_node_id": "0.0-136.0"}}, {"uniqueid": "MTK0916:3I0BTBYZAYS1DZHXH6ADONEPE4HY01", "current_trial": 191, "dateTime": 1512883619713, "trialdata": {"rt": -1, "stimulus": "<p id=\"stim\">LOVER</p>", "key_press": -1, "type": "PRES_VIS", "word": "lover", "wordID": 845, "conditions": [24, 800, "v", 24000], "trial": 5, "serialpos": 6, "trial_type": "single-stim", "trial_index": 191, "time_elapsed": 2464465, "internal_node_id": "0.0-137.0"}}, {"uniqueid": "MTK0916:3I0BTBYZAYS1DZHXH6ADONEPE4HY01", "current_trial": 192, "dateTime": 1512883621689, "trialdata": {"rt": -1, "stimulus": "<p id=\"stim\">FIREMAN</p>", "key_press": -1, "type": "PRES_VIS", "word": "fireman", "wordID": 568, "conditions": [24, 800, "v", 24000], "trial": 5, "serialpos": 7, "trial_type": "single-stim", "trial_index": 192, "time_elapsed": 2466441, "internal_node_id": "0.0-138.0"}}, {"uniqueid": "MTK0916:3I0BTBYZAYS1DZHXH6ADONEPE4HY01", "current_trial": 193, "dateTime": 1512883623541, "trialdata": {"rt": -1, "stimulus": "<p id=\"stim\">ATLAS</p>", "key_press": -1, "type": "PRES_VIS", "word": "atlas", "wordID": 52, "conditions": [24, 800, "v", 24000], "trial": 5, "serialpos": 8, "trial_type": "single-stim", "trial_index": 193, "time_elapsed": 2468293, "internal_node_id": "0.0-139.0"}}, {"uniqueid": "MTK0916:3I0BTBYZAYS1DZHXH6ADONEPE4HY01", "current_trial": 194, "dateTime": 1512883625231, "trialdata": {"rt": -1, "stimulus": "<p id=\"stim\">CHEMIST</p>", "key_press": -1, "type": "PRES_VIS", "word": "chemist", "wordID": 291, "conditions": [24, 800, "v", 24000], "trial": 5, "serialpos": 9, "trial_type": "single-stim", "trial_index": 194, "time_elapsed": 2469983, "internal_node_id": "0.0-140.0"}}, {"uniqueid": "MTK0916:3I0BTBYZAYS1DZHXH6ADONEPE4HY01", "current_trial": 195, "dateTime": 1512883627043, "trialdata": {"rt": -1, "stimulus": "<p id=\"stim\">BUNNY</p>", "key_press": -1, "type": "PRES_VIS", "word": "bunny", "wordID": 197, "conditions": [24, 800, "v", 24000], "trial": 5, "serialpos": 10, "trial_type": "single-stim", "trial_index": 195, "time_elapsed": 2471795, "internal_node_id": "0.0-141.0"}}, {"uniqueid": "MTK0916:3I0BTBYZAYS1DZHXH6ADONEPE4HY01", "current_trial": 196, "dateTime": 1512883628659, "trialdata": {"rt": -1, "stimulus": "<p id=\"stim\">AIRPORT</p>", "key_press": -1, "type": "PRES_VIS", "word": "airport", "wordID": 12, "conditions": [24, 800, "v", 24000], "trial": 5, "serialpos": 11, "trial_type": "single-stim", "trial_index": 196, "time_elapsed": 2473411, "internal_node_id": "0.0-142.0"}}, {"uniqueid": "MTK0916:3I0BTBYZAYS1DZHXH6ADONEPE4HY01", "current_trial": 197, "dateTime": 1512883630302, "trialdata": {"rt": -1, "stimulus": "<p id=\"stim\">BANQUET</p>", "key_press": -1, "type": "PRES_VIS", "word": "banquet", "wordID": 85, "conditions": [24, 800, "v", 24000], "trial": 5, "serialpos": 12, "trial_type": "single-stim", "trial_index": 197, "time_elapsed": 2475054, "internal_node_id": "0.0-143.0"}}, {"uniqueid": "MTK0916:3I0BTBYZAYS1DZHXH6ADONEPE4HY01", "current_trial": 198, "dateTime": 1512883632148, "trialdata": {"rt": -1, "stimulus": "<p id=\"stim\">MARSH</p>", "key_press": -1, "type": "PRES_VIS", "word": "marsh", "wordID": 873, "conditions": [24, 800, "v", 24000], "trial": 5, "serialpos": 13, "trial_type": "single-stim", "trial_index": 198, "time_elapsed": 2476900, "internal_node_id": "0.0-144.0"}}, {"uniqueid": "MTK0916:3I0BTBYZAYS1DZHXH6ADONEPE4HY01", "current_trial": 199, "dateTime": 1512883633873, "trialdata": {"rt": -1, "stimulus": "<p id=\"stim\">ORCHID</p>", "key_press": -1, "type": "PRES_VIS", "word": "orchid", "wordID": 981, "conditions": [24, 800, "v", 24000], "trial": 5, "serialpos": 14, "trial_type": "single-stim", "trial_index": 199, "time_elapsed": 2478625, "internal_node_id": "0.0-145.0"}}, {"uniqueid": "MTK0916:3I0BTBYZAYS1DZHXH6ADONEPE4HY01", "current_trial": 200, "dateTime": 1512883635741, "trialdata": {"rt": -1, "stimulus": "<p id=\"stim\">HATCHET</p>", "key_press": -1, "type": "PRES_VIS", "word": "hatchet", "wordID": 690, "conditions": [24, 800, "v", 24000], "trial": 5, "serialpos": 15, "trial_type": "single-stim", "trial_index": 200, "time_elapsed": 2480493, "internal_node_id": "0.0-146.0"}}, {"uniqueid": "MTK0916:3I0BTBYZAYS1DZHXH6ADONEPE4HY01", "current_trial": 201, "dateTime": 1512883637489, "trialdata": {"rt": -1, "stimulus": "<p id=\"stim\">PUDDING</p>", "key_press": -1, "type": "PRES_VIS", "word": "pudding", "wordID": 1138, "conditions": [24, 800, "v", 24000], "trial": 5, "serialpos": 16, "trial_type": "single-stim", "trial_index": 201, "time_elapsed": 2482241, "internal_node_id": "0.0-147.0"}}, {"uniqueid": "MTK0916:3I0BTBYZAYS1DZHXH6ADONEPE4HY01", "current_trial": 202, "dateTime": 1512883639161, "trialdata": {"rt": -1, "stimulus": "<p id=\"stim\">SLIME</p>", "key_press": -1, "type": "PRES_VIS", "word": "slime", "wordID": 1326, "conditions": [24, 800, "v", 24000], "trial": 5, "serialpos": 17, "trial_type": "single-stim", "trial_index": 202, "time_elapsed": 2483913, "internal_node_id": "0.0-148.0"}}, {"uniqueid": "MTK0916:3I0BTBYZAYS1DZHXH6ADONEPE4HY01", "current_trial": 203, "dateTime": 1512883640951, "trialdata": {"rt": -1, "stimulus": "<p id=\"stim\">BUG</p>", "key_press": -1, "type": "PRES_VIS", "word": "bug", "wordID": 186, "conditions": [24, 800, "v", 24000], "trial": 5, "serialpos": 18, "trial_type": "single-stim", "trial_index": 203, "time_elapsed": 2485703, "internal_node_id": "0.0-149.0"}}, {"uniqueid": "MTK0916:3I0BTBYZAYS1DZHXH6ADONEPE4HY01", "current_trial": 204, "dateTime": 1512883642612, "trialdata": {"rt": -1, "stimulus": "<p id=\"stim\">RUST</p>", "key_press": -1, "type": "PRES_VIS", "word": "rust", "wordID": 1218, "conditions": [24, 800, "v", 24000], "trial": 5, "serialpos": 19, "trial_type": "single-stim", "trial_index": 204, "time_elapsed": 2487364, "internal_node_id": "0.0-150.0"}}, {"uniqueid": "MTK0916:3I0BTBYZAYS1DZHXH6ADONEPE4HY01", "current_trial": 205, "dateTime": 1512883644345, "trialdata": {"rt": -1, "stimulus": "<p id=\"stim\">SPHINX</p>", "key_press": -1, "type": "PRES_VIS", "word": "sphinx", "wordID": 1348, "conditions": [24, 800, "v", 24000], "trial": 5, "serialpos": 20, "trial_type": "single-stim", "trial_index": 205, "time_elapsed": 2489097, "internal_node_id": "0.0-151.0"}}, {"uniqueid": "MTK0916:3I0BTBYZAYS1DZHXH6ADONEPE4HY01", "current_trial": 206, "dateTime": 1512883646008, "trialdata": {"rt": -1, "stimulus": "<p id=\"stim\">SUPPER</p>", "key_press": -1, "type": "PRES_VIS", "word": "supper", "wordID": 1410, "conditions": [24, 800, "v", 24000], "trial": 5, "serialpos": 21, "trial_type": "single-stim", "trial_index": 206, "time_elapsed": 2490756, "internal_node_id": "0.0-152.0"}}, {"uniqueid": "MTK0916:3I0BTBYZAYS1DZHXH6ADONEPE4HY01", "current_trial": 207, "dateTime": 1512883647631, "trialdata": {"rt": -1, "stimulus": "<p id=\"stim\">BABY</p>", "key_press": -1, "type": "PRES_VIS", "word": "baby", "wordID": 63, "conditions": [24, 800, "v", 24000], "trial": 5, "serialpos": 22, "trial_type": "single-stim", "trial_index": 207, "time_elapsed": 2492383, "internal_node_id": "0.0-153.0"}}, {"uniqueid": "MTK0916:3I0BTBYZAYS1DZHXH6ADONEPE4HY01", "current_trial": 208, "dateTime": 1512883649627, "trialdata": {"rt": -1, "stimulus": "<p id=\"stim\">PUPPY</p>", "key_press": -1, "type": "PRES_VIS", "word": "puppy", "wordID": 1143, "conditions": [24, 800, "v", 24000], "trial": 5, "serialpos": 23, "trial_type": "single-stim", "trial_index": 208, "time_elapsed": 2494379, "internal_node_id": "0.0-154.0"}}, {"uniqueid": "MTK0916:3I0BTBYZAYS1DZHXH6ADONEPE4HY01", "current_trial": 209, "dateTime": 1512883651925, "trialdata": {"rt": -1, "stimulus": "", "key_press": -1, "type": "PRE_RECALL_DELAY", "trial_type": "single-stim", "trial_index": 209, "time_elapsed": 2496677, "internal_node_id": "0.0-155.0-0.0"}}, {"uniqueid": "MTK0916:3I0BTBYZAYS1DZHXH6ADONEPE4HY01", "current_trial": 210, "dateTime": 1512883652430, "trialdata": {"rt": -1000, "stimulus": "/static/audio/400Hz.wav", "key_press": -1, "type": "PRE_RECALL_ALERT", "trial_type": "single-audio", "trial_index": 210, "time_elapsed": 2497182, "internal_node_id": "0.0-156.0"}}, {"uniqueid": "MTK0916:3I0BTBYZAYS1DZHXH6ADONEPE4HY01", "current_trial": 211, "dateTime": 1512883712443, "trialdata": {"rt": [6009, 11632, 15159, 17992, 19743], "recwords": ["bug", "sphinx", "boyfriend", "sticker", "lover"], "type": "FREE_RECALL", "conditions": [24, 800, "v", 24000], "trial": 5, "trial_type": "free-recall", "trial_index": 211, "time_elapsed": 2557192, "internal_node_id": "0.0-157.0-0.0"}}, {"uniqueid": "MTK0916:3I0BTBYZAYS1DZHXH6ADONEPE4HY01", "current_trial": 212, "dateTime": 1512883781508, "trialdata": {"rt": 67063, "key_press": 72, "type": "INSTRUCTIONS", "trial_type": "text", "trial_index": 212, "time_elapsed": 2626259, "internal_node_id": "0.0-158.0"}}, {"uniqueid": "MTK0916:3I0BTBYZAYS1DZHXH6ADONEPE4HY01", "current_trial": 213, "dateTime": 1512883795513, "trialdata": {"rt": [8843, 11329], "responses": ["13", "12"], "num1": [5, 7, 9], "num2": [7, 2, 4], "num3": [1, 3, 7], "type": "DISTRACTOR", "conditions": [12, 800, "v", 12000], "trial": 6, "trial_type": "math-distractor", "trial_index": 213, "time_elapsed": 2640265, "internal_node_id": "0.0-159.0"}}, {"uniqueid": "MTK0916:3I0BTBYZAYS1DZHXH6ADONEPE4HY01", "current_trial": 214, "dateTime": 1512883798527, "trialdata": {"rt": -1, "stimulus": "<p id=\"stim\">10</p>", "key_press": -1, "trial_type": "single-stim", "trial_index": 214, "time_elapsed": 2643279, "internal_node_id": "0.0-160.0-0.0"}}, {"uniqueid": "MTK0916:3I0BTBYZAYS1DZHXH6ADONEPE4HY01", "current_trial": 215, "dateTime": 1512883799529, "trialdata": {"rt": -1, "stimulus": "<p id=\"stim\">9</p>", "key_press": -1, "trial_type": "single-stim", "trial_index": 215, "time_elapsed": 2644281, "internal_node_id": "0.0-160.0-1.0"}}, {"uniqueid": "MTK0916:3I0BTBYZAYS1DZHXH6ADONEPE4HY01", "current_trial": 216, "dateTime": 1512883800532, "trialdata": {"rt": -1, "stimulus": "<p id=\"stim\">8</p>", "key_press": -1, "trial_type": "single-stim", "trial_index": 216, "time_elapsed": 2645283, "internal_node_id": "0.0-160.0-2.0"}}, {"uniqueid": "MTK0916:3I0BTBYZAYS1DZHXH6ADONEPE4HY01", "current_trial": 217, "dateTime": 1512883801534, "trialdata": {"rt": -1, "stimulus": "<p id=\"stim\">7</p>", "key_press": -1, "trial_type": "single-stim", "trial_index": 217, "time_elapsed": 2646285, "internal_node_id": "0.0-160.0-3.0"}}, {"uniqueid": "MTK0916:3I0BTBYZAYS1DZHXH6ADONEPE4HY01", "current_trial": 218, "dateTime": 1512883802537, "trialdata": {"rt": -1, "stimulus": "<p id=\"stim\">6</p>", "key_press": -1, "trial_type": "single-stim", "trial_index": 218, "time_elapsed": 2647288, "internal_node_id": "0.0-160.0-4.0"}}, {"uniqueid": "MTK0916:3I0BTBYZAYS1DZHXH6ADONEPE4HY01", "current_trial": 219, "dateTime": 1512883803542, "trialdata": {"rt": -1, "stimulus": "<p id=\"stim\">5</p>", "key_press": -1, "trial_type": "single-stim", "trial_index": 219, "time_elapsed": 2648294, "internal_node_id": "0.0-160.0-5.0"}}, {"uniqueid": "MTK0916:3I0BTBYZAYS1DZHXH6ADONEPE4HY01", "current_trial": 220, "dateTime": 1512883804543, "trialdata": {"rt": -1, "stimulus": "<p id=\"stim\">4</p>", "key_press": -1, "trial_type": "single-stim", "trial_index": 220, "time_elapsed": 2649295, "internal_node_id": "0.0-160.0-6.0"}}, {"uniqueid": "MTK0916:3I0BTBYZAYS1DZHXH6ADONEPE4HY01", "current_trial": 221, "dateTime": 1512883805544, "trialdata": {"rt": -1, "stimulus": "<p id=\"stim\">3</p>", "key_press": -1, "trial_type": "single-stim", "trial_index": 221, "time_elapsed": 2650296, "internal_node_id": "0.0-160.0-7.0"}}, {"uniqueid": "MTK0916:3I0BTBYZAYS1DZHXH6ADONEPE4HY01", "current_trial": 222, "dateTime": 1512883806546, "trialdata": {"rt": -1, "stimulus": "<p id=\"stim\">2</p>", "key_press": -1, "trial_type": "single-stim", "trial_index": 222, "time_elapsed": 2651298, "internal_node_id": "0.0-160.0-8.0"}}, {"uniqueid": "MTK0916:3I0BTBYZAYS1DZHXH6ADONEPE4HY01", "current_trial": 223, "dateTime": 1512883807547, "trialdata": {"rt": -1, "stimulus": "<p id=\"stim\">1</p>", "key_press": -1, "trial_type": "single-stim", "trial_index": 223, "time_elapsed": 2652299, "internal_node_id": "0.0-160.0-9.0"}}, {"uniqueid": "MTK0916:3I0BTBYZAYS1DZHXH6ADONEPE4HY01", "current_trial": 224, "dateTime": 1512883809049, "trialdata": {"rt": -1, "stimulus": "<p id=\"stim\">+</p>", "key_press": -1, "type": "FIXATION", "trial_type": "single-stim", "trial_index": 224, "time_elapsed": 2653801, "internal_node_id": "0.0-161.0-0.0"}}, {"uniqueid": "MTK0916:3I0BTBYZAYS1DZHXH6ADONEPE4HY01", "current_trial": 225, "dateTime": 1512883809851, "trialdata": {"rt": -1, "stimulus": "<p id=\"stim\">RIVER</p>", "key_press": -1, "type": "PRES_VIS", "word": "river", "wordID": 1193, "conditions": [12, 800, "v", 12000], "trial": 6, "serialpos": 0, "trial_type": "single-stim", "trial_index": 225, "time_elapsed": 2654603, "internal_node_id": "0.0-162.0"}}, {"uniqueid": "MTK0916:3I0BTBYZAYS1DZHXH6ADONEPE4HY01", "current_trial": 226, "dateTime": 1512883811545, "trialdata": {"rt": -1, "stimulus": "<p id=\"stim\">WASP</p>", "key_press": -1, "type": "PRES_VIS", "word": "wasp", "wordID": 1592, "conditions": [12, 800, "v", 12000], "trial": 6, "serialpos": 1, "trial_type": "single-stim", "trial_index": 226, "time_elapsed": 2656297, "internal_node_id": "0.0-163.0"}}, {"uniqueid": "MTK0916:3I0BTBYZAYS1DZHXH6ADONEPE4HY01", "current_trial": 227, "dateTime": 1512883813284, "trialdata": {"rt": -1, "stimulus": "<p id=\"stim\">SHARK</p>", "key_press": -1, "type": "PRES_VIS", "word": "shark", "wordID": 1274, "conditions": [12, 800, "v", 12000], "trial": 6, "serialpos": 2, "trial_type": "single-stim", "trial_index": 227, "time_elapsed": 2658036, "internal_node_id": "0.0-164.0"}}, {"uniqueid": "MTK0916:3I0BTBYZAYS1DZHXH6ADONEPE4HY01", "current_trial": 228, "dateTime": 1512883815141, "trialdata": {"rt": -1, "stimulus": "<p id=\"stim\">CHILD</p>", "key_press": -1, "type": "PRES_VIS", "word": "child", "wordID": 298, "conditions": [12, 800, "v", 12000], "trial": 6, "serialpos": 3, "trial_type": "single-stim", "trial_index": 228, "time_elapsed": 2659893, "internal_node_id": "0.0-165.0"}}, {"uniqueid": "MTK0916:3I0BTBYZAYS1DZHXH6ADONEPE4HY01", "current_trial": 229, "dateTime": 1512883816976, "trialdata": {"rt": -1, "stimulus": "<p id=\"stim\">FREEZER</p>", "key_press": -1, "type": "PRES_VIS", "word": "freezer", "wordID": 603, "conditions": [12, 800, "v", 12000], "trial": 6, "serialpos": 4, "trial_type": "single-stim", "trial_index": 229, "time_elapsed": 2661727, "internal_node_id": "0.0-166.0"}}, {"uniqueid": "MTK0916:3I0BTBYZAYS1DZHXH6ADONEPE4HY01", "current_trial": 230, "dateTime": 1512883818823, "trialdata": {"rt": -1, "stimulus": "<p id=\"stim\">BLENDER</p>", "key_press": -1, "type": "PRES_VIS", "word": "blender", "wordID": 135, "conditions": [12, 800, "v", 12000], "trial": 6, "serialpos": 5, "trial_type": "single-stim", "trial_index": 230, "time_elapsed": 2663575, "internal_node_id": "0.0-167.0"}}, {"uniqueid": "MTK0916:3I0BTBYZAYS1DZHXH6ADONEPE4HY01", "current_trial": 231, "dateTime": 1512883820742, "trialdata": {"rt": -1, "stimulus": "<p id=\"stim\">STOVE</p>", "key_press": -1, "type": "PRES_VIS", "word": "stove", "wordID": 1387, "conditions": [12, 800, "v", 12000], "trial": 6, "serialpos": 6, "trial_type": "single-stim", "trial_index": 231, "time_elapsed": 2665494, "internal_node_id": "0.0-168.0"}}, {"uniqueid": "MTK0916:3I0BTBYZAYS1DZHXH6ADONEPE4HY01", "current_trial": 232, "dateTime": 1512883822463, "trialdata": {"rt": -1, "stimulus": "<p id=\"stim\">FUNGUS</p>", "key_press": -1, "type": "PRES_VIS", "word": "fungus", "wordID": 613, "conditions": [12, 800, "v", 12000], "trial": 6, "serialpos": 7, "trial_type": "single-stim", "trial_index": 232, "time_elapsed": 2667215, "internal_node_id": "0.0-169.0"}}, {"uniqueid": "MTK0916:3I0BTBYZAYS1DZHXH6ADONEPE4HY01", "current_trial": 233, "dateTime": 1512883824320, "trialdata": {"rt": -1, "stimulus": "<p id=\"stim\">PASTA</p>", "key_press": -1, "type": "PRES_VIS", "word": "pasta", "wordID": 1020, "conditions": [12, 800, "v", 12000], "trial": 6, "serialpos": 8, "trial_type": "single-stim", "trial_index": 233, "time_elapsed": 2669072, "internal_node_id": "0.0-170.0"}}, {"uniqueid": "MTK0916:3I0BTBYZAYS1DZHXH6ADONEPE4HY01", "current_trial": 234, "dateTime": 1512883826230, "trialdata": {"rt": -1, "stimulus": "<p id=\"stim\">OMELET</p>", "key_press": -1, "type": "PRES_VIS", "word": "omelet", "wordID": 975, "conditions": [12, 800, "v", 12000], "trial": 6, "serialpos": 9, "trial_type": "single-stim", "trial_index": 234, "time_elapsed": 2670981, "internal_node_id": "0.0-171.0"}}, {"uniqueid": "MTK0916:3I0BTBYZAYS1DZHXH6ADONEPE4HY01", "current_trial": 235, "dateTime": 1512883827866, "trialdata": {"rt": -1, "stimulus": "<p id=\"stim\">COSTUME</p>", "key_press": -1, "type": "PRES_VIS", "word": "costume", "wordID": 382, "conditions": [12, 800, "v", 12000], "trial": 6, "serialpos": 10, "trial_type": "single-stim", "trial_index": 235, "time_elapsed": 2672618, "internal_node_id": "0.0-172.0"}}, {"uniqueid": "MTK0916:3I0BTBYZAYS1DZHXH6ADONEPE4HY01", "current_trial": 236, "dateTime": 1512883829641, "trialdata": {"rt": -1, "stimulus": "<p id=\"stim\">SCISSORS</p>", "key_press": -1, "type": "PRES_VIS", "word": "scissors", "wordID": 1249, "conditions": [12, 800, "v", 12000], "trial": 6, "serialpos": 11, "trial_type": "single-stim", "trial_index": 236, "time_elapsed": 2674393, "internal_node_id": "0.0-173.0"}}, {"uniqueid": "MTK0916:3I0BTBYZAYS1DZHXH6ADONEPE4HY01", "current_trial": 237, "dateTime": 1512883831731, "trialdata": {"rt": -1, "stimulus": "", "key_press": -1, "type": "PRE_RECALL_DELAY", "trial_type": "single-stim", "trial_index": 237, "time_elapsed": 2676482, "internal_node_id": "0.0-174.0-0.0"}}, {"uniqueid": "MTK0916:3I0BTBYZAYS1DZHXH6ADONEPE4HY01", "current_trial": 238, "dateTime": 1512883832234, "trialdata": {"rt": -1000, "stimulus": "/static/audio/400Hz.wav", "key_press": -1, "type": "PRE_RECALL_ALERT", "trial_type": "single-audio", "trial_index": 238, "time_elapsed": 2676985, "internal_node_id": "0.0-175.0"}}, {"uniqueid": "MTK0916:3I0BTBYZAYS1DZHXH6ADONEPE4HY01", "current_trial": 239, "dateTime": 1512883892246, "trialdata": {"rt": [5697, 7117], "recwords": ["river", "wasp"], "type": "FREE_RECALL", "conditions": [12, 800, "v", 12000], "trial": 6, "trial_type": "free-recall", "trial_index": 239, "time_elapsed": 2736994, "internal_node_id": "0.0-176.0-0.0"}}, {"uniqueid": "MTK0916:3I0BTBYZAYS1DZHXH6ADONEPE4HY01", "current_trial": 240, "dateTime": 1512884796637, "trialdata": {"rt": 902385, "key_press": 72, "type": "INSTRUCTIONS", "trial_type": "text", "trial_index": 240, "time_elapsed": 3641389, "internal_node_id": "0.0-177.0"}}, {"uniqueid": "MTK0916:3I0BTBYZAYS1DZHXH6ADONEPE4HY01", "current_trial": 241, "dateTime": 1512884810641, "trialdata": {"rt": [3783, 6429, 9109, 11059], "responses": ["21", "7", "20", "6"], "num1": [6, 4, 4, 2, 4], "num2": [6, 1, 9, 1, 5], "num3": [9, 2, 7, 3, 9], "type": "DISTRACTOR", "conditions": [24, 1600, "a", 12000], "trial": 7, "trial_type": "math-distractor", "trial_index": 241, "time_elapsed": 3655393, "internal_node_id": "0.0-178.0"}}, {"uniqueid": "MTK0916:3I0BTBYZAYS1DZHXH6ADONEPE4HY01", "current_trial": 242, "dateTime": 1512884813662, "trialdata": {"rt": -1, "stimulus": "<p id=\"stim\">10</p>", "key_press": -1, "trial_type": "single-stim", "trial_index": 242, "time_elapsed": 3658413, "internal_node_id": "0.0-179.0-0.0"}}, {"uniqueid": "MTK0916:3I0BTBYZAYS1DZHXH6ADONEPE4HY01", "current_trial": 243, "dateTime": 1512884814663, "trialdata": {"rt": -1, "stimulus": "<p id=\"stim\">9</p>", "key_press": -1, "trial_type": "single-stim", "trial_index": 243, "time_elapsed": 3659415, "internal_node_id": "0.0-179.0-1.0"}}, {"uniqueid": "MTK0916:3I0BTBYZAYS1DZHXH6ADONEPE4HY01", "current_trial": 244, "dateTime": 1512884815666, "trialdata": {"rt": -1, "stimulus": "<p id=\"stim\">8</p>", "key_press": -1, "trial_type": "single-stim", "trial_index": 244, "time_elapsed": 3660418, "internal_node_id": "0.0-179.0-2.0"}}, {"uniqueid": "MTK0916:3I0BTBYZAYS1DZHXH6ADONEPE4HY01", "current_trial": 245, "dateTime": 1512884816669, "trialdata": {"rt": -1, "stimulus": "<p id=\"stim\">7</p>", "key_press": -1, "trial_type": "single-stim", "trial_index": 245, "time_elapsed": 3661421, "internal_node_id": "0.0-179.0-3.0"}}, {"uniqueid": "MTK0916:3I0BTBYZAYS1DZHXH6ADONEPE4HY01", "current_trial": 246, "dateTime": 1512884817674, "trialdata": {"rt": -1, "stimulus": "<p id=\"stim\">6</p>", "key_press": -1, "trial_type": "single-stim", "trial_index": 246, "time_elapsed": 3662426, "internal_node_id": "0.0-179.0-4.0"}}, {"uniqueid": "MTK0916:3I0BTBYZAYS1DZHXH6ADONEPE4HY01", "current_trial": 247, "dateTime": 1512884818676, "trialdata": {"rt": -1, "stimulus": "<p id=\"stim\">5</p>", "key_press": -1, "trial_type": "single-stim", "trial_index": 247, "time_elapsed": 3663428, "internal_node_id": "0.0-179.0-5.0"}}, {"uniqueid": "MTK0916:3I0BTBYZAYS1DZHXH6ADONEPE4HY01", "current_trial": 248, "dateTime": 1512884819686, "trialdata": {"rt": -1, "stimulus": "<p id=\"stim\">4</p>", "key_press": -1, "trial_type": "single-stim", "trial_index": 248, "time_elapsed": 3664437, "internal_node_id": "0.0-179.0-6.0"}}, {"uniqueid": "MTK0916:3I0BTBYZAYS1DZHXH6ADONEPE4HY01", "current_trial": 249, "dateTime": 1512884820687, "trialdata": {"rt": -1, "stimulus": "<p id=\"stim\">3</p>", "key_press": -1, "trial_type": "single-stim", "trial_index": 249, "time_elapsed": 3665439, "internal_node_id": "0.0-179.0-7.0"}}, {"uniqueid": "MTK0916:3I0BTBYZAYS1DZHXH6ADONEPE4HY01", "current_trial": 250, "dateTime": 1512884821689, "trialdata": {"rt": -1, "stimulus": "<p id=\"stim\">2</p>", "key_press": -1, "trial_type": "single-stim", "trial_index": 250, "time_elapsed": 3666441, "internal_node_id": "0.0-179.0-8.0"}}, {"uniqueid": "MTK0916:3I0BTBYZAYS1DZHXH6ADONEPE4HY01", "current_trial": 251, "dateTime": 1512884822691, "trialdata": {"rt": -1, "stimulus": "<p id=\"stim\">1</p>", "key_press": -1, "trial_type": "single-stim", "trial_index": 251, "time_elapsed": 3667443, "internal_node_id": "0.0-179.0-9.0"}}, {"uniqueid": "MTK0916:3I0BTBYZAYS1DZHXH6ADONEPE4HY01", "current_trial": 252, "dateTime": 1512884824193, "trialdata": {"rt": -1, "stimulus": "<p id=\"stim\">+</p>", "key_press": -1, "type": "FIXATION", "trial_type": "single-stim", "trial_index": 252, "time_elapsed": 3668945, "internal_node_id": "0.0-180.0-0.0"}}, {"uniqueid": "MTK0916:3I0BTBYZAYS1DZHXH6ADONEPE4HY01", "current_trial": 253, "dateTime": 1512884826984, "trialdata": {"rt": -1000, "stimulus": "/static/audio/wordpool/QUARTER.wav", "key_press": -1, "type": "PRES_AUD", "word": "quarter", "wordID": 1147, "conditions": [24, 1600, "a", 12000], "trial": 7, "serialpos": 0, "trial_type": "single-audio", "trial_index": 253, "time_elapsed": 3671736, "internal_node_id": "0.0-181.0"}}, {"uniqueid": "MTK0916:3I0BTBYZAYS1DZHXH6ADONEPE4HY01", "current_trial": 254, "dateTime": 1512884829475, "trialdata": {"rt": -1000, "stimulus": "/static/audio/wordpool/CELLAR.wav", "key_press": -1, "type": "PRES_AUD", "word": "cellar", "wordID": 266, "conditions": [24, 1600, "a", 12000], "trial": 7, "serialpos": 1, "trial_type": "single-audio", "trial_index": 254, "time_elapsed": 3674227, "internal_node_id": "0.0-182.0"}}, {"uniqueid": "MTK0916:3I0BTBYZAYS1DZHXH6ADONEPE4HY01", "current_trial": 255, "dateTime": 1512884832070, "trialdata": {"rt": -1000, "stimulus": "/static/audio/wordpool/LIPSTICK.wav", "key_press": -1, "type": "PRES_AUD", "word": "lipstick", "wordID": 828, "conditions": [24, 1600, "a", 12000], "trial": 7, "serialpos": 2, "trial_type": "single-audio", "trial_index": 255, "time_elapsed": 3676822, "internal_node_id": "0.0-183.0"}}, {"uniqueid": "MTK0916:3I0BTBYZAYS1DZHXH6ADONEPE4HY01", "current_trial": 256, "dateTime": 1512884834857, "trialdata": {"rt": -1000, "stimulus": "/static/audio/wordpool/POPCORN.wav", "key_press": -1, "type": "PRES_AUD", "word": "popcorn", "wordID": 1103, "conditions": [24, 1600, "a", 12000], "trial": 7, "serialpos": 3, "trial_type": "single-audio", "trial_index": 256, "time_elapsed": 3679609, "internal_node_id": "0.0-184.0"}}, {"uniqueid": "MTK0916:3I0BTBYZAYS1DZHXH6ADONEPE4HY01", "current_trial": 257, "dateTime": 1512884837356, "trialdata": {"rt": -1000, "stimulus": "/static/audio/wordpool/DORM.wav", "key_press": -1, "type": "PRES_AUD", "word": "dorm", "wordID": 487, "conditions": [24, 1600, "a", 12000], "trial": 7, "serialpos": 4, "trial_type": "single-audio", "trial_index": 257, "time_elapsed": 3682108, "internal_node_id": "0.0-185.0"}}, {"uniqueid": "MTK0916:3I0BTBYZAYS1DZHXH6ADONEPE4HY01", "current_trial": 258, "dateTime": 1512884839861, "trialdata": {"rt": -1000, "stimulus": "/static/audio/wordpool/COFFEE.wav", "key_press": -1, "type": "PRES_AUD", "word": "coffee", "wordID": 340, "conditions": [24, 1600, "a", 12000], "trial": 7, "serialpos": 5, "trial_type": "single-audio", "trial_index": 258, "time_elapsed": 3684613, "internal_node_id": "0.0-186.0"}}, {"uniqueid": "MTK0916:3I0BTBYZAYS1DZHXH6ADONEPE4HY01", "current_trial": 259, "dateTime": 1512884842297, "trialdata": {"rt": -1000, "stimulus": "/static/audio/wordpool/SODA.wav", "key_press": -1, "type": "PRES_AUD", "word": "soda", "wordID": 1340, "conditions": [24, 1600, "a", 12000], "trial": 7, "serialpos": 6, "trial_type": "single-audio", "trial_index": 259, "time_elapsed": 3687049, "internal_node_id": "0.0-187.0"}}, {"uniqueid": "MTK0916:3I0BTBYZAYS1DZHXH6ADONEPE4HY01", "current_trial": 260, "dateTime": 1512884844721, "trialdata": {"rt": -1000, "stimulus": "/static/audio/wordpool/CHURCH.wav", "key_press": -1, "type": "PRES_AUD", "word": "church", "wordID": 306, "conditions": [24, 1600, "a", 12000], "trial": 7, "serialpos": 7, "trial_type": "single-audio", "trial_index": 260, "time_elapsed": 3689473, "internal_node_id": "0.0-188.0"}}, {"uniqueid": "MTK0916:3I0BTBYZAYS1DZHXH6ADONEPE4HY01", "current_trial": 261, "dateTime": 1512884847437, "trialdata": {"rt": -1000, "stimulus": "/static/audio/wordpool/OFFICE.wav", "key_press": -1, "type": "PRES_AUD", "word": "office", "wordID": 971, "conditions": [24, 1600, "a", 12000], "trial": 7, "serialpos": 8, "trial_type": "single-audio", "trial_index": 261, "time_elapsed": 3692188, "internal_node_id": "0.0-189.0"}}, {"uniqueid": "MTK0916:3I0BTBYZAYS1DZHXH6ADONEPE4HY01", "current_trial": 262, "dateTime": 1512884850231, "trialdata": {"rt": -1000, "stimulus": "/static/audio/wordpool/CANDY.wav", "key_press": -1, "type": "PRES_AUD", "word": "candy", "wordID": 229, "conditions": [24, 1600, "a", 12000], "trial": 7, "serialpos": 9, "trial_type": "single-audio", "trial_index": 262, "time_elapsed": 3694983, "internal_node_id": "0.0-190.0"}}, {"uniqueid": "MTK0916:3I0BTBYZAYS1DZHXH6ADONEPE4HY01", "current_trial": 263, "dateTime": 1512884852743, "trialdata": {"rt": -1000, "stimulus": "/static/audio/wordpool/DRESS.wav", "key_press": -1, "type": "PRES_AUD", "word": "dress", "wordID": 494, "conditions": [24, 1600, "a", 12000], "trial": 7, "serialpos": 10, "trial_type": "single-audio", "trial_index": 263, "time_elapsed": 3697495, "internal_node_id": "0.0-191.0"}}, {"uniqueid": "MTK0916:3I0BTBYZAYS1DZHXH6ADONEPE4HY01", "current_trial": 264, "dateTime": 1512884855542, "trialdata": {"rt": -1000, "stimulus": "/static/audio/wordpool/INMATE.wav", "key_press": -1, "type": "PRES_AUD", "word": "inmate", "wordID": 737, "conditions": [24, 1600, "a", 12000], "trial": 7, "serialpos": 11, "trial_type": "single-audio", "trial_index": 264, "time_elapsed": 3700294, "internal_node_id": "0.0-192.0"}}, {"uniqueid": "MTK0916:3I0BTBYZAYS1DZHXH6ADONEPE4HY01", "current_trial": 265, "dateTime": 1512884858126, "trialdata": {"rt": -1000, "stimulus": "/static/audio/wordpool/EMPIRE.wav", "key_press": -1, "type": "PRES_AUD", "word": "empire", "wordID": 529, "conditions": [24, 1600, "a", 12000], "trial": 7, "serialpos": 12, "trial_type": "single-audio", "trial_index": 265, "time_elapsed": 3702878, "internal_node_id": "0.0-193.0"}}, {"uniqueid": "MTK0916:3I0BTBYZAYS1DZHXH6ADONEPE4HY01", "current_trial": 266, "dateTime": 1512884860881, "trialdata": {"rt": -1000, "stimulus": "/static/audio/wordpool/CLAM.wav", "key_press": -1, "type": "PRES_AUD", "word": "clam", "wordID": 314, "conditions": [24, 1600, "a", 12000], "trial": 7, "serialpos": 13, "trial_type": "single-audio", "trial_index": 266, "time_elapsed": 3705633, "internal_node_id": "0.0-194.0"}}, {"uniqueid": "MTK0916:3I0BTBYZAYS1DZHXH6ADONEPE4HY01", "current_trial": 267, "dateTime": 1512884863465, "trialdata": {"rt": -1000, "stimulus": "/static/audio/wordpool/SURVEY.wav", "key_press": -1, "type": "PRES_AUD", "word": "survey", "wordID": 1413, "conditions": [24, 1600, "a", 12000], "trial": 7, "serialpos": 14, "trial_type": "single-audio", "trial_index": 267, "time_elapsed": 3708217, "internal_node_id": "0.0-195.0"}}, {"uniqueid": "MTK0916:3I0BTBYZAYS1DZHXH6ADONEPE4HY01", "current_trial": 268, "dateTime": 1512884866046, "trialdata": {"rt": -1000, "stimulus": "/static/audio/wordpool/HOUND.wav", "key_press": -1, "type": "PRES_AUD", "word": "hound", "wordID": 723, "conditions": [24, 1600, "a", 12000], "trial": 7, "serialpos": 15, "trial_type": "single-audio", "trial_index": 268, "time_elapsed": 3710798, "internal_node_id": "0.0-196.0"}}, {"uniqueid": "MTK0916:3I0BTBYZAYS1DZHXH6ADONEPE4HY01", "current_trial": 269, "dateTime": 1512884868501, "trialdata": {"rt": -1000, "stimulus": "/static/audio/wordpool/LUNCH.wav", "key_press": -1, "type": "PRES_AUD", "word": "lunch", "wordID": 848, "conditions": [24, 1600, "a", 12000], "trial": 7, "serialpos": 16, "trial_type": "single-audio", "trial_index": 269, "time_elapsed": 3713253, "internal_node_id": "0.0-197.0"}}, {"uniqueid": "MTK0916:3I0BTBYZAYS1DZHXH6ADONEPE4HY01", "current_trial": 270, "dateTime": 1512884870909, "trialdata": {"rt": -1000, "stimulus": "/static/audio/wordpool/MUFFIN.wav", "key_press": -1, "type": "PRES_AUD", "word": "muffin", "wordID": 928, "conditions": [24, 1600, "a", 12000], "trial": 7, "serialpos": 17, "trial_type": "single-audio", "trial_index": 270, "time_elapsed": 3715661, "internal_node_id": "0.0-198.0"}}, {"uniqueid": "MTK0916:3I0BTBYZAYS1DZHXH6ADONEPE4HY01", "current_trial": 271, "dateTime": 1512884873686, "trialdata": {"rt": -1000, "stimulus": "/static/audio/wordpool/SANDWICH.wav", "key_press": -1, "type": "PRES_AUD", "word": "sandwich", "wordID": 1231, "conditions": [24, 1600, "a", 12000], "trial": 7, "serialpos": 18, "trial_type": "single-audio", "trial_index": 271, "time_elapsed": 3718438, "internal_node_id": "0.0-199.0"}}, {"uniqueid": "MTK0916:3I0BTBYZAYS1DZHXH6ADONEPE4HY01", "current_trial": 272, "dateTime": 1512884876240, "trialdata": {"rt": -1000, "stimulus": "/static/audio/wordpool/SNACK.wav", "key_press": -1, "type": "PRES_AUD", "word": "snack", "wordID": 1330, "conditions": [24, 1600, "a", 12000], "tria