{"condition": 0, "counterbalance": 1639, "assignmentId": "37XITHEISXGCAQ0RFRB3BSNTK4DRCV", "workerId": "MTK0802", "hitId": "3XABXM4AJ1C8Z2XKVY1WFWLLILL8QX", "currenttrial": 627, "bonus": 0, "data": [{"uniqueid": "MTK0802:37XITHEISXGCAQ0RFRB3BSNTK4DRCV", "current_trial": 0, "dateTime": 1512757737173, "trialdata": {"rt": 110534, "key_press": 32, "type": "INSTRUCTIONS", "trial_type": "text", "trial_index": 0, "time_elapsed": 110541, "internal_node_id": "0.0-0.0"}}, {"uniqueid": "MTK0802:37XITHEISXGCAQ0RFRB3BSNTK4DRCV", "current_trial": 1, "dateTime": 1512757749479, "trialdata": {"rt": 12296, "key_press": 32, "type": "INSTRUCTIONS", "trial_type": "text", "trial_index": 1, "time_elapsed": 122850, "internal_node_id": "0.0-1.0"}}, {"uniqueid": "MTK0802:37XITHEISXGCAQ0RFRB3BSNTK4DRCV", "current_trial": 2, "dateTime": 1512757757192, "trialdata": {"rt": [7595], "responses": ["ocean"], "type": "AUDIO_TEST", "trial_type": "audio-test", "trial_index": 2, "time_elapsed": 130564, "internal_node_id": "0.0-2.0"}}, {"uniqueid": "MTK0802:37XITHEISXGCAQ0RFRB3BSNTK4DRCV", "current_trial": 3, "dateTime": 1512757764209, "trialdata": {"rt": [7006], "responses": ["crystal"], "type": "AUDIO_TEST", "trial_type": "audio-test", "trial_index": 3, "time_elapsed": 137582, "internal_node_id": "0.0-3.0"}}, {"uniqueid": "MTK0802:37XITHEISXGCAQ0RFRB3BSNTK4DRCV", "current_trial": 4, "dateTime": 1512757833036, "trialdata": {"rt": [68603], "responses": ["spice"], "type": "AUDIO_TEST", "trial_type": "audio-test", "trial_index": 4, "time_elapsed": 206218, "internal_node_id": "0.0-4.0"}}, {"uniqueid": "MTK0802:37XITHEISXGCAQ0RFRB3BSNTK4DRCV", "current_trial": 5, "dateTime": 1512757858143, "trialdata": {"rt": 24343, "responses": "{\"Q0\":\"9:00\",\"Q1\":\"4:36\",\"Q2\":\"3\"}", "type": "SLEEP_SURVEY", "trial_type": "survey-text", "trial_index": 5, "time_elapsed": 231516, "internal_node_id": "0.0-5.0"}}, {"uniqueid": "MTK0802:37XITHEISXGCAQ0RFRB3BSNTK4DRCV", "current_trial": 6, "dateTime": 1512757876968, "trialdata": {"rt": 17821, "key_press": 32, "type": "INSTRUCTIONS", "trial_type": "text", "trial_index": 6, "time_elapsed": 250341, "internal_node_id": "0.0-6.0"}}, {"uniqueid": "MTK0802:37XITHEISXGCAQ0RFRB3BSNTK4DRCV", "current_trial": 7, "dateTime": 1512757884143, "trialdata": {"rt": 6670, "key_press": 32, "type": "INSTRUCTIONS", "trial_type": "text", "trial_index": 7, "time_elapsed": 257516, "internal_node_id": "0.0-7.0"}}, {"uniqueid": "MTK0802:37XITHEISXGCAQ0RFRB3BSNTK4DRCV", "current_trial": 8, "dateTime": 1512757887315, "trialdata": {"rt": 2669, "key_press": 32, "type": "INSTRUCTIONS", "trial_type": "text", "trial_index": 8, "time_elapsed": 260687, "internal_node_id": "0.0-8.0"}}, {"uniqueid": "MTK0802:37XITHEISXGCAQ0RFRB3BSNTK4DRCV", "current_trial": 9, "dateTime": 1512757906331, "trialdata": {"rt": [4571, 9525, 13796], "responses": ["16", "24", "19"], "num1": [2, 6, 9, 6], "num2": [9, 9, 8, 8], "num3": [5, 9, 2, 4], "type": "DISTRACTOR", "conditions": [18, 1200, "a", 18000], "trial": 0, "trial_type": "math-distractor", "trial_index": 9, "time_elapsed": 279704, "internal_node_id": "0.0-9.0"}}, {"uniqueid": "MTK0802:37XITHEISXGCAQ0RFRB3BSNTK4DRCV", "current_trial": 10, "dateTime": 1512757909337, "trialdata": {"rt": -1, "stimulus": "<p id=\"stim\">10</p>", "key_press": -1, "trial_type": "single-stim", "trial_index": 10, "time_elapsed": 282710, "internal_node_id": "0.0-10.0-0.0"}}, {"uniqueid": "MTK0802:37XITHEISXGCAQ0RFRB3BSNTK4DRCV", "current_trial": 11, "dateTime": 1512757910340, "trialdata": {"rt": 385, "stimulus": "<p id=\"stim\">9</p>", "key_press": 13, "trial_type": "single-stim", "trial_index": 11, "time_elapsed": 283713, "internal_node_id": "0.0-10.0-1.0"}}, {"uniqueid": "MTK0802:37XITHEISXGCAQ0RFRB3BSNTK4DRCV", "current_trial": 12, "dateTime": 1512757911343, "trialdata": {"rt": -1, "stimulus": "<p id=\"stim\">8</p>", "key_press": -1, "trial_type": "single-stim", "trial_index": 12, "time_elapsed": 284715, "internal_node_id": "0.0-10.0-2.0"}}, {"uniqueid": "MTK0802:37XITHEISXGCAQ0RFRB3BSNTK4DRCV", "current_trial": 13, "dateTime": 1512757912346, "trialdata": {"rt": -1, "stimulus": "<p id=\"stim\">7</p>", "key_press": -1, "trial_type": "single-stim", "trial_index": 13, "time_elapsed": 285719, "internal_node_id": "0.0-10.0-3.0"}}, {"uniqueid": "MTK0802:37XITHEISXGCAQ0RFRB3BSNTK4DRCV", "current_trial": 14, "dateTime": 1512757913348, "trialdata": {"rt": -1, "stimulus": "<p id=\"stim\">6</p>", "key_press": -1, "trial_type": "single-stim", "trial_index": 14, "time_elapsed": 286721, "internal_node_id": "0.0-10.0-4.0"}}, {"uniqueid": "MTK0802:37XITHEISXGCAQ0RFRB3BSNTK4DRCV", "current_trial": 15, "dateTime": 1512757914351, "trialdata": {"rt": -1, "stimulus": "<p id=\"stim\">5</p>", "key_press": -1, "trial_type": "single-stim", "trial_index": 15, "time_elapsed": 287724, "internal_node_id": "0.0-10.0-5.0"}}, {"uniqueid": "MTK0802:37XITHEISXGCAQ0RFRB3BSNTK4DRCV", "current_trial": 16, "dateTime": 1512757915353, "trialdata": {"rt": -1, "stimulus": "<p id=\"stim\">4</p>", "key_press": -1, "trial_type": "single-stim", "trial_index": 16, "time_elapsed": 288726, "internal_node_id": "0.0-10.0-6.0"}}, {"uniqueid": "MTK0802:37XITHEISXGCAQ0RFRB3BSNTK4DRCV", "current_trial": 17, "dateTime": 1512757916355, "trialdata": {"rt": -1, "stimulus": "<p id=\"stim\">3</p>", "key_press": -1, "trial_type": "single-stim", "trial_index": 17, "time_elapsed": 289728, "internal_node_id": "0.0-10.0-7.0"}}, {"uniqueid": "MTK0802:37XITHEISXGCAQ0RFRB3BSNTK4DRCV", "current_trial": 18, "dateTime": 1512757917358, "trialdata": {"rt": -1, "stimulus": "<p id=\"stim\">2</p>", "key_press": -1, "trial_type": "single-stim", "trial_index": 18, "time_elapsed": 290731, "internal_node_id": "0.0-10.0-8.0"}}, {"uniqueid": "MTK0802:37XITHEISXGCAQ0RFRB3BSNTK4DRCV", "current_trial": 19, "dateTime": 1512757918362, "trialdata": {"rt": -1, "stimulus": "<p id=\"stim\">1</p>", "key_press": -1, "trial_type": "single-stim", "trial_index": 19, "time_elapsed": 291735, "internal_node_id": "0.0-10.0-9.0"}}, {"uniqueid": "MTK0802:37XITHEISXGCAQ0RFRB3BSNTK4DRCV", "current_trial": 20, "dateTime": 1512757919864, "trialdata": {"rt": -1, "stimulus": "<p id=\"stim\">+</p>", "key_press": -1, "type": "FIXATION", "trial_type": "single-stim", "trial_index": 20, "time_elapsed": 293237, "internal_node_id": "0.0-11.0-0.0"}}, {"uniqueid": "MTK0802:37XITHEISXGCAQ0RFRB3BSNTK4DRCV", "current_trial": 21, "dateTime": 1512757922241, "trialdata": {"rt": -1000, "stimulus": "/static/audio/wordpool/CHILD.wav", "key_press": -1, "type": "PRES_AUD", "word": "child", "wordID": 298, "conditions": [18, 1200, "a", 18000], "trial": 0, "serialpos": 0, "trial_type": "single-audio", "trial_index": 21, "time_elapsed": 295613, "internal_node_id": "0.0-12.0"}}, {"uniqueid": "MTK0802:37XITHEISXGCAQ0RFRB3BSNTK4DRCV", "current_trial": 22, "dateTime": 1512757924469, "trialdata": {"rt": -1000, "stimulus": "/static/audio/wordpool/GARBAGE.wav", "key_press": -1, "type": "PRES_AUD", "word": "garbage", "wordID": 621, "conditions": [18, 1200, "a", 18000], "trial": 0, "serialpos": 1, "trial_type": "single-audio", "trial_index": 22, "time_elapsed": 297841, "internal_node_id": "0.0-13.0"}}, {"uniqueid": "MTK0802:37XITHEISXGCAQ0RFRB3BSNTK4DRCV", "current_trial": 23, "dateTime": 1512757926580, "trialdata": {"rt": -1000, "stimulus": "/static/audio/wordpool/TROMBONE.wav", "key_press": -1, "type": "PRES_AUD", "word": "trombone", "wordID": 1507, "conditions": [18, 1200, "a", 18000], "trial": 0, "serialpos": 2, "trial_type": "single-audio", "trial_index": 23, "time_elapsed": 299952, "internal_node_id": "0.0-14.0"}}, {"uniqueid": "MTK0802:37XITHEISXGCAQ0RFRB3BSNTK4DRCV", "current_trial": 24, "dateTime": 1512757928840, "trialdata": {"rt": -1000, "stimulus": "/static/audio/wordpool/ACTOR.wav", "key_press": -1, "type": "PRES_AUD", "word": "actor", "wordID": 4, "conditions": [18, 1200, "a", 18000], "trial": 0, "serialpos": 3, "trial_type": "single-audio", "trial_index": 24, "time_elapsed": 302213, "internal_node_id": "0.0-15.0"}}, {"uniqueid": "MTK0802:37XITHEISXGCAQ0RFRB3BSNTK4DRCV", "current_trial": 25, "dateTime": 1512757931072, "trialdata": {"rt": -1000, "stimulus": "/static/audio/wordpool/RIFLE.wav", "key_press": -1, "type": "PRES_AUD", "word": "rifle", "wordID": 1191, "conditions": [18, 1200, "a", 18000], "trial": 0, "serialpos": 4, "trial_type": "single-audio", "trial_index": 25, "time_elapsed": 304445, "internal_node_id": "0.0-16.0"}}, {"uniqueid": "MTK0802:37XITHEISXGCAQ0RFRB3BSNTK4DRCV", "current_trial": 26, "dateTime": 1512757933164, "trialdata": {"rt": -1000, "stimulus": "/static/audio/wordpool/YARN.wav", "key_press": -1, "type": "PRES_AUD", "word": "yarn", "wordID": 1630, "conditions": [18, 1200, "a", 18000], "trial": 0, "serialpos": 5, "trial_type": "single-audio", "trial_index": 26, "time_elapsed": 306536, "internal_node_id": "0.0-17.0"}}, {"uniqueid": "MTK0802:37XITHEISXGCAQ0RFRB3BSNTK4DRCV", "current_trial": 27, "dateTime": 1512757935425, "trialdata": {"rt": -1000, "stimulus": "/static/audio/wordpool/BARLEY.wav", "key_press": -1, "type": "PRES_AUD", "word": "barley", "wordID": 87, "conditions": [18, 1200, "a", 18000], "trial": 0, "serialpos": 6, "trial_type": "single-audio", "trial_index": 27, "time_elapsed": 308798, "internal_node_id": "0.0-18.0"}}, {"uniqueid": "MTK0802:37XITHEISXGCAQ0RFRB3BSNTK4DRCV", "current_trial": 28, "dateTime": 1512757937682, "trialdata": {"rt": -1000, "stimulus": "/static/audio/wordpool/TREAT.wav", "key_press": -1, "type": "PRES_AUD", "word": "treat", "wordID": 1500, "conditions": [18, 1200, "a", 18000], "trial": 0, "serialpos": 7, "trial_type": "single-audio", "trial_index": 28, "time_elapsed": 311054, "internal_node_id": "0.0-19.0"}}, {"uniqueid": "MTK0802:37XITHEISXGCAQ0RFRB3BSNTK4DRCV", "current_trial": 29, "dateTime": 1512757939831, "trialdata": {"rt": -1000, "stimulus": "/static/audio/wordpool/PARENT.wav", "key_press": -1, "type": "PRES_AUD", "word": "parent", "wordID": 1012, "conditions": [18, 1200, "a", 18000], "trial": 0, "serialpos": 8, "trial_type": "single-audio", "trial_index": 29, "time_elapsed": 313204, "internal_node_id": "0.0-20.0"}}, {"uniqueid": "MTK0802:37XITHEISXGCAQ0RFRB3BSNTK4DRCV", "current_trial": 30, "dateTime": 1512757941963, "trialdata": {"rt": -1000, "stimulus": "/static/audio/wordpool/WIDOW.wav", "key_press": -1, "type": "PRES_AUD", "word": "widow", "wordID": 1607, "conditions": [18, 1200, "a", 18000], "trial": 0, "serialpos": 9, "trial_type": "single-audio", "trial_index": 30, "time_elapsed": 315335, "internal_node_id": "0.0-21.0"}}, {"uniqueid": "MTK0802:37XITHEISXGCAQ0RFRB3BSNTK4DRCV", "current_trial": 31, "dateTime": 1512757944226, "trialdata": {"rt": -1000, "stimulus": "/static/audio/wordpool/SCALPEL.wav", "key_press": -1, "type": "PRES_AUD", "word": "scalpel", "wordID": 1242, "conditions": [18, 1200, "a", 18000], "trial": 0, "serialpos": 10, "trial_type": "single-audio", "trial_index": 31, "time_elapsed": 317599, "internal_node_id": "0.0-22.0"}}, {"uniqueid": "MTK0802:37XITHEISXGCAQ0RFRB3BSNTK4DRCV", "current_trial": 32, "dateTime": 1512757946578, "trialdata": {"rt": -1000, "stimulus": "/static/audio/wordpool/LAPEL.wav", "key_press": -1, "type": "PRES_AUD", "word": "lapel", "wordID": 799, "conditions": [18, 1200, "a", 18000], "trial": 0, "serialpos": 11, "trial_type": "single-audio", "trial_index": 32, "time_elapsed": 319951, "internal_node_id": "0.0-23.0"}}, {"uniqueid": "MTK0802:37XITHEISXGCAQ0RFRB3BSNTK4DRCV", "current_trial": 33, "dateTime": 1512757948882, "trialdata": {"rt": -1000, "stimulus": "/static/audio/wordpool/BADGE.wav", "key_press": -1, "type": "PRES_AUD", "word": "badge", "wordID": 67, "conditions": [18, 1200, "a", 18000], "trial": 0, "serialpos": 12, "trial_type": "single-audio", "trial_index": 33, "time_elapsed": 322255, "internal_node_id": "0.0-24.0"}}, {"uniqueid": "MTK0802:37XITHEISXGCAQ0RFRB3BSNTK4DRCV", "current_trial": 34, "dateTime": 1512757951114, "trialdata": {"rt": -1000, "stimulus": "/static/audio/wordpool/YACHT.wav", "key_press": -1, "type": "PRES_AUD", "word": "yacht", "wordID": 1628, "conditions": [18, 1200, "a", 18000], "trial": 0, "serialpos": 13, "trial_type": "single-audio", "trial_index": 34, "time_elapsed": 324487, "internal_node_id": "0.0-25.0"}}, {"uniqueid": "MTK0802:37XITHEISXGCAQ0RFRB3BSNTK4DRCV", "current_trial": 35, "dateTime": 1512757953476, "trialdata": {"rt": -1000, "stimulus": "/static/audio/wordpool/TURNIP.wav", "key_press": -1, "type": "PRES_AUD", "word": "turnip", "wordID": 1520, "conditions": [18, 1200, "a", 18000], "trial": 0, "serialpos": 14, "trial_type": "single-audio", "trial_index": 35, "time_elapsed": 326848, "internal_node_id": "0.0-26.0"}}, {"uniqueid": "MTK0802:37XITHEISXGCAQ0RFRB3BSNTK4DRCV", "current_trial": 36, "dateTime": 1512757955574, "trialdata": {"rt": -1000, "stimulus": "/static/audio/wordpool/TOASTER.wav", "key_press": -1, "type": "PRES_AUD", "word": "toaster", "wordID": 1471, "conditions": [18, 1200, "a", 18000], "trial": 0, "serialpos": 15, "trial_type": "single-audio", "trial_index": 36, "time_elapsed": 328946, "internal_node_id": "0.0-27.0"}}, {"uniqueid": "MTK0802:37XITHEISXGCAQ0RFRB3BSNTK4DRCV", "current_trial": 37, "dateTime": 1512757957660, "trialdata": {"rt": -1000, "stimulus": "/static/audio/wordpool/HAWK.wav", "key_press": -1, "type": "PRES_AUD", "word": "hawk", "wordID": 691, "conditions": [18, 1200, "a", 18000], "trial": 0, "serialpos": 16, "trial_type": "single-audio", "trial_index": 37, "time_elapsed": 331033, "internal_node_id": "0.0-28.0"}}, {"uniqueid": "MTK0802:37XITHEISXGCAQ0RFRB3BSNTK4DRCV", "current_trial": 38, "dateTime": 1512757959913, "trialdata": {"rt": -1000, "stimulus": "/static/audio/wordpool/SUSPECT.wav", "key_press": -1, "type": "PRES_AUD", "word": "suspect", "wordID": 1414, "conditions": [18, 1200, "a", 18000], "trial": 0, "serialpos": 17, "trial_type": "single-audio", "trial_index": 38, "time_elapsed": 333285, "internal_node_id": "0.0-29.0"}}, {"uniqueid": "MTK0802:37XITHEISXGCAQ0RFRB3BSNTK4DRCV", "current_trial": 39, "dateTime": 1512757961124, "trialdata": {"rt": -1, "stimulus": "", "key_press": -1, "type": "PRE_RECALL_DELAY", "trial_type": "single-stim", "trial_index": 39, "time_elapsed": 334496, "internal_node_id": "0.0-30.0-0.0"}}, {"uniqueid": "MTK0802:37XITHEISXGCAQ0RFRB3BSNTK4DRCV", "current_trial": 40, "dateTime": 1512757961626, "trialdata": {"rt": -1000, "stimulus": "/static/audio/400Hz.wav", "key_press": -1, "type": "PRE_RECALL_ALERT", "trial_type": "single-audio", "trial_index": 40, "time_elapsed": 334999, "internal_node_id": "0.0-31.0"}}, {"uniqueid": "MTK0802:37XITHEISXGCAQ0RFRB3BSNTK4DRCV", "current_trial": 41, "dateTime": 1512758021653, "trialdata": {"rt": [4324, 7157, 8824, 11140, 13074, 15684, 18384, 19714, 28714], "recwords": ["hawk", "suspect", "lapel", "garbage", "toaster", "trombone", "turnip", "", "badge"], "type": "FREE_RECALL", "conditions": [18, 1200, "a", 18000], "trial": 0, "trial_type": "free-recall", "trial_index": 41, "time_elapsed": 395006, "internal_node_id": "0.0-32.0-0.0"}}, {"uniqueid": "MTK0802:37XITHEISXGCAQ0RFRB3BSNTK4DRCV", "current_trial": 42, "dateTime": 1512758042534, "trialdata": {"rt": 18875, "key_press": 32, "type": "INSTRUCTIONS", "trial_type": "text", "trial_index": 42, "time_elapsed": 415907, "internal_node_id": "0.0-33.0"}}, {"uniqueid": "MTK0802:37XITHEISXGCAQ0RFRB3BSNTK4DRCV", "current_trial": 43, "dateTime": 1512758062542, "trialdata": {"rt": [4951, 9023, 11586, 15095], "responses": ["22", "18", "14", "21"], "num1": [9, 2, 5, 5, 6], "num2": [4, 7, 1, 9, 9], "num3": [9, 9, 8, 7, 7], "type": "DISTRACTOR", "conditions": [18, 1200, "v", 18000], "trial": 1, "trial_type": "math-distractor", "trial_index": 43, "time_elapsed": 435915, "internal_node_id": "0.0-34.0"}}, {"uniqueid": "MTK0802:37XITHEISXGCAQ0RFRB3BSNTK4DRCV", "current_trial": 44, "dateTime": 1512758065545, "trialdata": {"rt": -1, "stimulus": "<p id=\"stim\">10</p>", "key_press": -1, "trial_type": "single-stim", "trial_index": 44, "time_elapsed": 438918, "internal_node_id": "0.0-35.0-0.0"}}, {"uniqueid": "MTK0802:37XITHEISXGCAQ0RFRB3BSNTK4DRCV", "current_trial": 45, "dateTime": 1512758066547, "trialdata": {"rt": -1, "stimulus": "<p id=\"stim\">9</p>", "key_press": -1, "trial_type": "single-stim", "trial_index": 45, "time_elapsed": 439920, "internal_node_id": "0.0-35.0-1.0"}}, {"uniqueid": "MTK0802:37XITHEISXGCAQ0RFRB3BSNTK4DRCV", "current_trial": 46, "dateTime": 1512758067550, "trialdata": {"rt": -1, "stimulus": "<p id=\"stim\">8</p>", "key_press": -1, "trial_type": "single-stim", "trial_index": 46, "time_elapsed": 440923, "internal_node_id": "0.0-35.0-2.0"}}, {"uniqueid": "MTK0802:37XITHEISXGCAQ0RFRB3BSNTK4DRCV", "current_trial": 47, "dateTime": 1512758068552, "trialdata": {"rt": -1, "stimulus": "<p id=\"stim\">7</p>", "key_press": -1, "trial_type": "single-stim", "trial_index": 47, "time_elapsed": 441925, "internal_node_id": "0.0-35.0-3.0"}}, {"uniqueid": "MTK0802:37XITHEISXGCAQ0RFRB3BSNTK4DRCV", "current_trial": 48, "dateTime": 1512758069555, "trialdata": {"rt": -1, "stimulus": "<p id=\"stim\">6</p>", "key_press": -1, "trial_type": "single-stim", "trial_index": 48, "time_elapsed": 442928, "internal_node_id": "0.0-35.0-4.0"}}, {"uniqueid": "MTK0802:37XITHEISXGCAQ0RFRB3BSNTK4DRCV", "current_trial": 49, "dateTime": 1512758070557, "trialdata": {"rt": -1, "stimulus": "<p id=\"stim\">5</p>", "key_press": -1, "trial_type": "single-stim", "trial_index": 49, "time_elapsed": 443930, "internal_node_id": "0.0-35.0-5.0"}}, {"uniqueid": "MTK0802:37XITHEISXGCAQ0RFRB3BSNTK4DRCV", "current_trial": 50, "dateTime": 1512758071567, "trialdata": {"rt": -1, "stimulus": "<p id=\"stim\">4</p>", "key_press": -1, "trial_type": "single-stim", "trial_index": 50, "time_elapsed": 444940, "internal_node_id": "0.0-35.0-6.0"}}, {"uniqueid": "MTK0802:37XITHEISXGCAQ0RFRB3BSNTK4DRCV", "current_trial": 51, "dateTime": 1512758072577, "trialdata": {"rt": -1, "stimulus": "<p id=\"stim\">3</p>", "key_press": -1, "trial_type": "single-stim", "trial_index": 51, "time_elapsed": 445949, "internal_node_id": "0.0-35.0-7.0"}}, {"uniqueid": "MTK0802:37XITHEISXGCAQ0RFRB3BSNTK4DRCV", "current_trial": 52, "dateTime": 1512758073580, "trialdata": {"rt": -1, "stimulus": "<p id=\"stim\">2</p>", "key_press": -1, "trial_type": "single-stim", "trial_index": 52, "time_elapsed": 446952, "internal_node_id": "0.0-35.0-8.0"}}, {"uniqueid": "MTK0802:37XITHEISXGCAQ0RFRB3BSNTK4DRCV", "current_trial": 53, "dateTime": 1512758074582, "trialdata": {"rt": -1, "stimulus": "<p id=\"stim\">1</p>", "key_press": -1, "trial_type": "single-stim", "trial_index": 53, "time_elapsed": 447955, "internal_node_id": "0.0-35.0-9.0"}}, {"uniqueid": "MTK0802:37XITHEISXGCAQ0RFRB3BSNTK4DRCV", "current_trial": 54, "dateTime": 1512758076085, "trialdata": {"rt": -1, "stimulus": "<p id=\"stim\">+</p>", "key_press": -1, "type": "FIXATION", "trial_type": "single-stim", "trial_index": 54, "time_elapsed": 449458, "internal_node_id": "0.0-36.0-0.0"}}, {"uniqueid": "MTK0802:37XITHEISXGCAQ0RFRB3BSNTK4DRCV", "current_trial": 55, "dateTime": 1512758077289, "trialdata": {"rt": -1, "stimulus": "<p id=\"stim\">OZONE</p>", "key_press": -1, "type": "PRES_VIS", "word": "ozone", "wordID": 995, "conditions": [18, 1200, "v", 18000], "trial": 1, "serialpos": 0, "trial_type": "single-stim", "trial_index": 55, "time_elapsed": 450662, "internal_node_id": "0.0-37.0"}}, {"uniqueid": "MTK0802:37XITHEISXGCAQ0RFRB3BSNTK4DRCV", "current_trial": 56, "dateTime": 1512758079457, "trialdata": {"rt": -1, "stimulus": "<p id=\"stim\">CAPTIVE</p>", "key_press": -1, "type": "PRES_VIS", "word": "captive", "wordID": 239, "conditions": [18, 1200, "v", 18000], "trial": 1, "serialpos": 1, "trial_type": "single-stim", "trial_index": 56, "time_elapsed": 452830, "internal_node_id": "0.0-38.0"}}, {"uniqueid": "MTK0802:37XITHEISXGCAQ0RFRB3BSNTK4DRCV", "current_trial": 57, "dateTime": 1512758081520, "trialdata": {"rt": -1, "stimulus": "<p id=\"stim\">CLOCK</p>", "key_press": -1, "type": "PRES_VIS", "word": "clock", "wordID": 324, "conditions": [18, 1200, "v", 18000], "trial": 1, "serialpos": 2, "trial_type": "single-stim", "trial_index": 57, "time_elapsed": 454893, "internal_node_id": "0.0-39.0"}}, {"uniqueid": "MTK0802:37XITHEISXGCAQ0RFRB3BSNTK4DRCV", "current_trial": 58, "dateTime": 1512758083694, "trialdata": {"rt": -1, "stimulus": "<p id=\"stim\">TUNNEL</p>", "key_press": -1, "type": "PRES_VIS", "word": "tunnel", "wordID": 1518, "conditions": [18, 1200, "v", 18000], "trial": 1, "serialpos": 3, "trial_type": "single-stim", "trial_index": 58, "time_elapsed": 457067, "internal_node_id": "0.0-40.0"}}, {"uniqueid": "MTK0802:37XITHEISXGCAQ0RFRB3BSNTK4DRCV", "current_trial": 59, "dateTime": 1512758085805, "trialdata": {"rt": -1, "stimulus": "<p id=\"stim\">SEAFOOD</p>", "key_press": -1, "type": "PRES_VIS", "word": "seafood", "wordID": 1259, "conditions": [18, 1200, "v", 18000], "trial": 1, "serialpos": 4, "trial_type": "single-stim", "trial_index": 59, "time_elapsed": 459178, "internal_node_id": "0.0-41.0"}}, {"uniqueid": "MTK0802:37XITHEISXGCAQ0RFRB3BSNTK4DRCV", "current_trial": 60, "dateTime": 1512758087878, "trialdata": {"rt": -1, "stimulus": "<p id=\"stim\">COCKTAIL</p>", "key_press": -1, "type": "PRES_VIS", "word": "cocktail", "wordID": 337, "conditions": [18, 1200, "v", 18000], "trial": 1, "serialpos": 5, "trial_type": "single-stim", "trial_index": 60, "time_elapsed": 461251, "internal_node_id": "0.0-42.0"}}, {"uniqueid": "MTK0802:37XITHEISXGCAQ0RFRB3BSNTK4DRCV", "current_trial": 61, "dateTime": 1512758089937, "trialdata": {"rt": -1, "stimulus": "<p id=\"stim\">PUDDLE</p>", "key_press": -1, "type": "PRES_VIS", "word": "puddle", "wordID": 1139, "conditions": [18, 1200, "v", 18000], "trial": 1, "serialpos": 6, "trial_type": "single-stim", "trial_index": 61, "time_elapsed": 463310, "internal_node_id": "0.0-43.0"}}, {"uniqueid": "MTK0802:37XITHEISXGCAQ0RFRB3BSNTK4DRCV", "current_trial": 62, "dateTime": 1512758092104, "trialdata": {"rt": -1, "stimulus": "<p id=\"stim\">PERCH</p>", "key_press": -1, "type": "PRES_VIS", "word": "perch", "wordID": 1047, "conditions": [18, 1200, "v", 18000], "trial": 1, "serialpos": 7, "trial_type": "single-stim", "trial_index": 62, "time_elapsed": 465476, "internal_node_id": "0.0-44.0"}}, {"uniqueid": "MTK0802:37XITHEISXGCAQ0RFRB3BSNTK4DRCV", "current_trial": 63, "dateTime": 1512758094407, "trialdata": {"rt": -1, "stimulus": "<p id=\"stim\">LETTUCE</p>", "key_press": -1, "type": "PRES_VIS", "word": "lettuce", "wordID": 813, "conditions": [18, 1200, "v", 18000], "trial": 1, "serialpos": 8, "trial_type": "single-stim", "trial_index": 63, "time_elapsed": 467780, "internal_node_id": "0.0-45.0"}}, {"uniqueid": "MTK0802:37XITHEISXGCAQ0RFRB3BSNTK4DRCV", "current_trial": 64, "dateTime": 1512758096764, "trialdata": {"rt": -1, "stimulus": "<p id=\"stim\">PADDING</p>", "key_press": -1, "type": "PRES_VIS", "word": "padding", "wordID": 998, "conditions": [18, 1200, "v", 18000], "trial": 1, "serialpos": 9, "trial_type": "single-stim", "trial_index": 64, "time_elapsed": 470132, "internal_node_id": "0.0-46.0"}}, {"uniqueid": "MTK0802:37XITHEISXGCAQ0RFRB3BSNTK4DRCV", "current_trial": 65, "dateTime": 1512758098965, "trialdata": {"rt": -1, "stimulus": "<p id=\"stim\">CUSTARD</p>", "key_press": -1, "type": "PRES_VIS", "word": "custard", "wordID": 428, "conditions": [18, 1200, "v", 18000], "trial": 1, "serialpos": 10, "trial_type": "single-stim", "trial_index": 65, "time_elapsed": 472337, "internal_node_id": "0.0-47.0"}}, {"uniqueid": "MTK0802:37XITHEISXGCAQ0RFRB3BSNTK4DRCV", "current_trial": 66, "dateTime": 1512758101319, "trialdata": {"rt": -1, "stimulus": "<p id=\"stim\">SCARECROW</p>", "key_press": -1, "type": "PRES_VIS", "word": "scarecrow", "wordID": 1244, "conditions": [18, 1200, "v", 18000], "trial": 1, "serialpos": 11, "trial_type": "single-stim", "trial_index": 66, "time_elapsed": 474692, "internal_node_id": "0.0-48.0"}}, {"uniqueid": "MTK0802:37XITHEISXGCAQ0RFRB3BSNTK4DRCV", "current_trial": 67, "dateTime": 1512758103432, "trialdata": {"rt": -1, "stimulus": "<p id=\"stim\">WASHER</p>", "key_press": -1, "type": "PRES_VIS", "word": "washer", "wordID": 1591, "conditions": [18, 1200, "v", 18000], "trial": 1, "serialpos": 12, "trial_type": "single-stim", "trial_index": 67, "time_elapsed": 476802, "internal_node_id": "0.0-49.0"}}, {"uniqueid": "MTK0802:37XITHEISXGCAQ0RFRB3BSNTK4DRCV", "current_trial": 68, "dateTime": 1512758105587, "trialdata": {"rt": -1, "stimulus": "<p id=\"stim\">GRILL</p>", "key_press": -1, "type": "PRES_VIS", "word": "grill", "wordID": 660, "conditions": [18, 1200, "v", 18000], "trial": 1, "serialpos": 13, "trial_type": "single-stim", "trial_index": 68, "time_elapsed": 478956, "internal_node_id": "0.0-50.0"}}, {"uniqueid": "MTK0802:37XITHEISXGCAQ0RFRB3BSNTK4DRCV", "current_trial": 69, "dateTime": 1512758107656, "trialdata": {"rt": -1, "stimulus": "<p id=\"stim\">PEACH</p>", "key_press": -1, "type": "PRES_VIS", "word": "peach", "wordID": 1030, "conditions": [18, 1200, "v", 18000], "trial": 1, "serialpos": 14, "trial_type": "single-stim", "trial_index": 69, "time_elapsed": 481029, "internal_node_id": "0.0-51.0"}}, {"uniqueid": "MTK0802:37XITHEISXGCAQ0RFRB3BSNTK4DRCV", "current_trial": 70, "dateTime": 1512758109902, "trialdata": {"rt": -1, "stimulus": "<p id=\"stim\">PUDDING</p>", "key_press": -1, "type": "PRES_VIS", "word": "pudding", "wordID": 1138, "conditions": [18, 1200, "v", 18000], "trial": 1, "serialpos": 15, "trial_type": "single-stim", "trial_index": 70, "time_elapsed": 483275, "internal_node_id": "0.0-52.0"}}, {"uniqueid": "MTK0802:37XITHEISXGCAQ0RFRB3BSNTK4DRCV", "current_trial": 71, "dateTime": 1512758111945, "trialdata": {"rt": -1, "stimulus": "<p id=\"stim\">SUITCASE</p>", "key_press": -1, "type": "PRES_VIS", "word": "suitcase", "wordID": 1402, "conditions": [18, 1200, "v", 18000], "trial": 1, "serialpos": 16, "trial_type": "single-stim", "trial_index": 71, "time_elapsed": 485318, "internal_node_id": "0.0-53.0"}}, {"uniqueid": "MTK0802:37XITHEISXGCAQ0RFRB3BSNTK4DRCV", "current_trial": 72, "dateTime": 1512758114150, "trialdata": {"rt": -1, "stimulus": "<p id=\"stim\">DRILL</p>", "key_press": -1, "type": "PRES_VIS", "word": "drill", "wordID": 496, "conditions": [18, 1200, "v", 18000], "trial": 1, "serialpos": 17, "trial_type": "single-stim", "trial_index": 72, "time_elapsed": 487523, "internal_node_id": "0.0-54.0"}}, {"uniqueid": "MTK0802:37XITHEISXGCAQ0RFRB3BSNTK4DRCV", "current_trial": 73, "dateTime": 1512758116547, "trialdata": {"rt": -1, "stimulus": "", "key_press": -1, "type": "PRE_RECALL_DELAY", "trial_type": "single-stim", "trial_index": 73, "time_elapsed": 489920, "internal_node_id": "0.0-55.0-0.0"}}, {"uniqueid": "MTK0802:37XITHEISXGCAQ0RFRB3BSNTK4DRCV", "current_trial": 74, "dateTime": 1512758117049, "trialdata": {"rt": -1000, "stimulus": "/static/audio/400Hz.wav", "key_press": -1, "type": "PRE_RECALL_ALERT", "trial_type": "single-audio", "trial_index": 74, "time_elapsed": 490422, "internal_node_id": "0.0-56.0"}}, {"uniqueid": "MTK0802:37XITHEISXGCAQ0RFRB3BSNTK4DRCV", "current_trial": 75, "dateTime": 1512758177065, "trialdata": {"rt": [3242, 5490, 8235, 9922, 12150], "recwords": ["padding", "suitcase", "pudding", "drill", "ozone"], "type": "FREE_RECALL", "conditions": [18, 1200, "v", 18000], "trial": 1, "trial_type": "free-recall", "trial_index": 75, "time_elapsed": 550430, "internal_node_id": "0.0-57.0-0.0"}}, {"uniqueid": "MTK0802:37XITHEISXGCAQ0RFRB3BSNTK4DRCV", "current_trial": 76, "dateTime": 1512758250323, "trialdata": {"rt": 71241, "key_press": 32, "type": "INSTRUCTIONS", "trial_type": "text", "trial_index": 76, "time_elapsed": 623682, "internal_node_id": "0.0-58.0"}}, {"uniqueid": "MTK0802:37XITHEISXGCAQ0RFRB3BSNTK4DRCV", "current_trial": 77, "dateTime": 1512758263331, "trialdata": {"rt": [3712, 7739], "responses": ["14", "12"], "num1": [1, 4, 9], "num2": [5, 7, 3], "num3": [8, 1, 7], "type": "DISTRACTOR", "conditions": [12, 1600, "v", 12000], "trial": 2, "trial_type": "math-distractor", "trial_index": 77, "time_elapsed": 636704, "internal_node_id": "0.0-59.0"}}, {"uniqueid": "MTK0802:37XITHEISXGCAQ0RFRB3BSNTK4DRCV", "current_trial": 78, "dateTime": 1512758266335, "trialdata": {"rt": -1, "stimulus": "<p id=\"stim\">10</p>", "key_press": -1, "trial_type": "single-stim", "trial_index": 78, "time_elapsed": 639708, "internal_node_id": "0.0-60.0-0.0"}}, {"uniqueid": "MTK0802:37XITHEISXGCAQ0RFRB3BSNTK4DRCV", "current_trial": 79, "dateTime": 1512758267338, "trialdata": {"rt": -1, "stimulus": "<p id=\"stim\">9</p>", "key_press": -1, "trial_type": "single-stim", "trial_index": 79, "time_elapsed": 640711, "internal_node_id": "0.0-60.0-1.0"}}, {"uniqueid": "MTK0802:37XITHEISXGCAQ0RFRB3BSNTK4DRCV", "current_trial": 80, "dateTime": 1512758268341, "trialdata": {"rt": -1, "stimulus": "<p id=\"stim\">8</p>", "key_press": -1, "trial_type": "single-stim", "trial_index": 80, "time_elapsed": 641714, "internal_node_id": "0.0-60.0-2.0"}}, {"uniqueid": "MTK0802:37XITHEISXGCAQ0RFRB3BSNTK4DRCV", "current_trial": 81, "dateTime": 1512758269343, "trialdata": {"rt": -1, "stimulus": "<p id=\"stim\">7</p>", "key_press": -1, "trial_type": "single-stim", "trial_index": 81, "time_elapsed": 642716, "internal_node_id": "0.0-60.0-3.0"}}, {"uniqueid": "MTK0802:37XITHEISXGCAQ0RFRB3BSNTK4DRCV", "current_trial": 82, "dateTime": 1512758270346, "trialdata": {"rt": -1, "stimulus": "<p id=\"stim\">6</p>", "key_press": -1, "trial_type": "single-stim", "trial_index": 82, "time_elapsed": 643719, "internal_node_id": "0.0-60.0-4.0"}}, {"uniqueid": "MTK0802:37XITHEISXGCAQ0RFRB3BSNTK4DRCV", "current_trial": 83, "dateTime": 1512758271347, "trialdata": {"rt": -1, "stimulus": "<p id=\"stim\">5</p>", "key_press": -1, "trial_type": "single-stim", "trial_index": 83, "time_elapsed": 644720, "internal_node_id": "0.0-60.0-5.0"}}, {"uniqueid": "MTK0802:37XITHEISXGCAQ0RFRB3BSNTK4DRCV", "current_trial": 84, "dateTime": 1512758272349, "trialdata": {"rt": -1, "stimulus": "<p id=\"stim\">4</p>", "key_press": -1, "trial_type": "single-stim", "trial_index": 84, "time_elapsed": 645722, "internal_node_id": "0.0-60.0-6.0"}}, {"uniqueid": "MTK0802:37XITHEISXGCAQ0RFRB3BSNTK4DRCV", "current_trial": 85, "dateTime": 1512758273352, "trialdata": {"rt": -1, "stimulus": "<p id=\"stim\">3</p>", "key_press": -1, "trial_type": "single-stim", "trial_index": 85, "time_elapsed": 646725, "internal_node_id": "0.0-60.0-7.0"}}, {"uniqueid": "MTK0802:37XITHEISXGCAQ0RFRB3BSNTK4DRCV", "current_trial": 86, "dateTime": 1512758274355, "trialdata": {"rt": -1, "stimulus": "<p id=\"stim\">2</p>", "key_press": -1, "trial_type": "single-stim", "trial_index": 86, "time_elapsed": 647728, "internal_node_id": "0.0-60.0-8.0"}}, {"uniqueid": "MTK0802:37XITHEISXGCAQ0RFRB3BSNTK4DRCV", "current_trial": 87, "dateTime": 1512758275357, "trialdata": {"rt": -1, "stimulus": "<p id=\"stim\">1</p>", "key_press": -1, "trial_type": "single-stim", "trial_index": 87, "time_elapsed": 648730, "internal_node_id": "0.0-60.0-9.0"}}, {"uniqueid": "MTK0802:37XITHEISXGCAQ0RFRB3BSNTK4DRCV", "current_trial": 88, "dateTime": 1512758276860, "trialdata": {"rt": -1, "stimulus": "<p id=\"stim\">+</p>", "key_press": -1, "type": "FIXATION", "trial_type": "single-stim", "trial_index": 88, "time_elapsed": 650233, "internal_node_id": "0.0-61.0-0.0"}}, {"uniqueid": "MTK0802:37XITHEISXGCAQ0RFRB3BSNTK4DRCV", "current_trial": 89, "dateTime": 1512758278462, "trialdata": {"rt": -1, "stimulus": "<p id=\"stim\">FINGER</p>", "key_press": -1, "type": "PRES_VIS", "word": "finger", "wordID": 566, "conditions": [12, 1600, "v", 12000], "trial": 2, "serialpos": 0, "trial_type": "single-stim", "trial_index": 89, "time_elapsed": 651835, "internal_node_id": "0.0-62.0"}}, {"uniqueid": "MTK0802:37XITHEISXGCAQ0RFRB3BSNTK4DRCV", "current_trial": 90, "dateTime": 1512758281164, "trialdata": {"rt": -1, "stimulus": "<p id=\"stim\">UNCLE</p>", "key_press": -1, "type": "PRES_VIS", "word": "uncle", "wordID": 1535, "conditions": [12, 1600, "v", 12000], "trial": 2, "serialpos": 1, "trial_type": "single-stim", "trial_index": 90, "time_elapsed": 654537, "internal_node_id": "0.0-63.0"}}, {"uniqueid": "MTK0802:37XITHEISXGCAQ0RFRB3BSNTK4DRCV", "current_trial": 91, "dateTime": 1512758283598, "trialdata": {"rt": -1, "stimulus": "<p id=\"stim\">HUSBAND</p>", "key_press": -1, "type": "PRES_VIS", "word": "husband", "wordID": 727, "conditions": [12, 1600, "v", 12000], "trial": 2, "serialpos": 2, "trial_type": "single-stim", "trial_index": 91, "time_elapsed": 656971, "internal_node_id": "0.0-64.0"}}, {"uniqueid": "MTK0802:37XITHEISXGCAQ0RFRB3BSNTK4DRCV", "current_trial": 92, "dateTime": 1512758286194, "trialdata": {"rt": -1, "stimulus": "<p id=\"stim\">COUNTY</p>", "key_press": -1, "type": "PRES_VIS", "word": "county", "wordID": 388, "conditions": [12, 1600, "v", 12000], "trial": 2, "serialpos": 3, "trial_type": "single-stim", "trial_index": 92, "time_elapsed": 659567, "internal_node_id": "0.0-65.0"}}, {"uniqueid": "MTK0802:37XITHEISXGCAQ0RFRB3BSNTK4DRCV", "current_trial": 93, "dateTime": 1512758288791, "trialdata": {"rt": -1, "stimulus": "<p id=\"stim\">QUARTER</p>", "key_press": -1, "type": "PRES_VIS", "word": "quarter", "wordID": 1147, "conditions": [12, 1600, "v", 12000], "trial": 2, "serialpos": 4, "trial_type": "single-stim", "trial_index": 93, "time_elapsed": 662163, "internal_node_id": "0.0-66.0"}}, {"uniqueid": "MTK0802:37XITHEISXGCAQ0RFRB3BSNTK4DRCV", "current_trial": 94, "dateTime": 1512758291272, "trialdata": {"rt": -1, "stimulus": "<p id=\"stim\">GAZELLE</p>", "key_press": -1, "type": "PRES_VIS", "word": "gazelle", "wordID": 627, "conditions": [12, 1600, "v", 12000], "trial": 2, "serialpos": 5, "trial_type": "single-stim", "trial_index": 94, "time_elapsed": 664645, "internal_node_id": "0.0-67.0"}}, {"uniqueid": "MTK0802:37XITHEISXGCAQ0RFRB3BSNTK4DRCV", "current_trial": 95, "dateTime": 1512758293748, "trialdata": {"rt": -1, "stimulus": "<p id=\"stim\">BANQUET</p>", "key_press": -1, "type": "PRES_VIS", "word": "banquet", "wordID": 85, "conditions": [12, 1600, "v", 12000], "trial": 2, "serialpos": 6, "trial_type": "single-stim", "trial_index": 95, "time_elapsed": 667121, "internal_node_id": "0.0-68.0"}}, {"uniqueid": "MTK0802:37XITHEISXGCAQ0RFRB3BSNTK4DRCV", "current_trial": 96, "dateTime": 1512758296346, "trialdata": {"rt": -1, "stimulus": "<p id=\"stim\">DASHBOARD</p>", "key_press": -1, "type": "PRES_VIS", "word": "dashboard", "wordID": 440, "conditions": [12, 1600, "v", 12000], "trial": 2, "serialpos": 7, "trial_type": "single-stim", "trial_index": 96, "time_elapsed": 669719, "internal_node_id": "0.0-69.0"}}, {"uniqueid": "MTK0802:37XITHEISXGCAQ0RFRB3BSNTK4DRCV", "current_trial": 97, "dateTime": 1512758299029, "trialdata": {"rt": -1, "stimulus": "<p id=\"stim\">COCOON</p>", "key_press": -1, "type": "PRES_VIS", "word": "cocoon", "wordID": 338, "conditions": [12, 1600, "v", 12000], "trial": 2, "serialpos": 8, "trial_type": "single-stim", "trial_index": 97, "time_elapsed": 672399, "internal_node_id": "0.0-70.0"}}, {"uniqueid": "MTK0802:37XITHEISXGCAQ0RFRB3BSNTK4DRCV", "current_trial": 98, "dateTime": 1512758301559, "trialdata": {"rt": -1, "stimulus": "<p id=\"stim\">BUBBLE</p>", "key_press": -1, "type": "PRES_VIS", "word": "bubble", "wordID": 182, "conditions": [12, 1600, "v", 12000], "trial": 2, "serialpos": 9, "trial_type": "single-stim", "trial_index": 98, "time_elapsed": 674932, "internal_node_id": "0.0-71.0"}}, {"uniqueid": "MTK0802:37XITHEISXGCAQ0RFRB3BSNTK4DRCV", "current_trial": 99, "dateTime": 1512758304231, "trialdata": {"rt": -1, "stimulus": "<p id=\"stim\">SNAKE</p>", "key_press": -1, "type": "PRES_VIS", "word": "snake", "wordID": 1332, "conditions": [12, 1600, "v", 12000], "trial": 2, "serialpos": 10, "trial_type": "single-stim", "trial_index": 99, "time_elapsed": 677603, "internal_node_id": "0.0-72.0"}}, {"uniqueid": "MTK0802:37XITHEISXGCAQ0RFRB3BSNTK4DRCV", "current_trial": 100, "dateTime": 1512758306969, "trialdata": {"rt": -1, "stimulus": "<p id=\"stim\">SHERIFF</p>", "key_press": -1, "type": "PRES_VIS", "word": "sheriff", "wordID": 1283, "conditions": [12, 1600, "v", 12000], "trial": 2, "serialpos": 11, "trial_type": "single-stim", "trial_index": 100, "time_elapsed": 680339, "internal_node_id": "0.0-73.0"}}, {"uniqueid": "MTK0802:37XITHEISXGCAQ0RFRB3BSNTK4DRCV", "current_trial": 101, "dateTime": 1512758309099, "trialdata": {"rt": -1, "stimulus": "", "key_press": -1, "type": "PRE_RECALL_DELAY", "trial_type": "single-stim", "trial_index": 101, "time_elapsed": 682472, "internal_node_id": "0.0-74.0-0.0"}}, {"uniqueid": "MTK0802:37XITHEISXGCAQ0RFRB3BSNTK4DRCV", "current_trial": 102, "dateTime": 1512758309602, "trialdata": {"rt": -1000, "stimulus": "/static/audio/400Hz.wav", "key_press": -1, "type": "PRE_RECALL_ALERT", "trial_type": "single-audio", "trial_index": 102, "time_elapsed": 682975, "internal_node_id": "0.0-75.0"}}, {"uniqueid": "MTK0802:37XITHEISXGCAQ0RFRB3BSNTK4DRCV", "current_trial": 103, "dateTime": 1512758369614, "trialdata": {"rt": [3412, 5438, 7980, 10004, 12953, 16035, 21662], "recwords": ["finger", "uncle", "husband", "county", "quarter", "sherriff", "cocoon"], "type": "FREE_RECALL", "conditions": [12, 1600, "v", 12000], "trial": 2, "trial_type": "free-recall", "trial_index": 103, "time_elapsed": 742980, "internal_node_id": "0.0-76.0-0.0"}}, {"uniqueid": "MTK0802:37XITHEISXGCAQ0RFRB3BSNTK4DRCV", "current_trial": 104, "dateTime": 1512759396872, "trialdata": {"rt": 1025253, "key_press": 32, "type": "INSTRUCTIONS", "trial_type": "text", "trial_index": 104, "time_elapsed": 1770244, "internal_node_id": "0.0-77.0"}}, {"uniqueid": "MTK0802:37XITHEISXGCAQ0RFRB3BSNTK4DRCV", "current_trial": 105, "dateTime": 1512759422880, "trialdata": {"rt": [3307, 6188, 8505, 10889, 13676, 17122, 19576, 22543], "responses": ["11", "18", "13", "14", "17", "10", "11", "12"], "num1": [6, 3, 5, 5, 4, 2, 2, 6, 2], "num2": [2, 6, 5, 3, 6, 5, 6, 2, 3], "num3": [3, 9, 3, 6, 7, 3, 3, 4, 9], "type": "DISTRACTOR", "conditions": [12, 800, "v", 24000], "trial": 3, "trial_type": "math-distractor", "trial_index": 105, "time_elapsed": 1796252, "internal_node_id": "0.0-78.0"}}, {"uniqueid": "MTK0802:37XITHEISXGCAQ0RFRB3BSNTK4DRCV", "current_trial": 106, "dateTime": 1512759425883, "trialdata": {"rt": -1, "stimulus": "<p id=\"stim\">10</p>", "key_press": -1, "trial_type": "single-stim", "trial_index": 106, "time_elapsed": 1799256, "internal_node_id": "0.0-79.0-0.0"}}, {"uniqueid": "MTK0802:37XITHEISXGCAQ0RFRB3BSNTK4DRCV", "current_trial": 107, "dateTime": 1512759426885, "trialdata": {"rt": -1, "stimulus": "<p id=\"stim\">9</p>", "key_press": -1, "trial_type": "single-stim", "trial_index": 107, "time_elapsed": 1800258, "internal_node_id": "0.0-79.0-1.0"}}, {"uniqueid": "MTK0802:37XITHEISXGCAQ0RFRB3BSNTK4DRCV", "current_trial": 108, "dateTime": 1512759427887, "trialdata": {"rt": -1, "stimulus": "<p id=\"stim\">8</p>", "key_press": -1, "trial_type": "single-stim", "trial_index": 108, "time_elapsed": 1801260, "internal_node_id": "0.0-79.0-2.0"}}, {"uniqueid": "MTK0802:37XITHEISXGCAQ0RFRB3BSNTK4DRCV", "current_trial": 109, "dateTime": 1512759428892, "trialdata": {"rt": -1, "stimulus": "<p id=\"stim\">7</p>", "key_press": -1, "trial_type": "single-stim", "trial_index": 109, "time_elapsed": 1802265, "internal_node_id": "0.0-79.0-3.0"}}, {"uniqueid": "MTK0802:37XITHEISXGCAQ0RFRB3BSNTK4DRCV", "current_trial": 110, "dateTime": 1512759429895, "trialdata": {"rt": -1, "stimulus": "<p id=\"stim\">6</p>", "key_press": -1, "trial_type": "single-stim", "trial_index": 110, "time_elapsed": 1803268, "internal_node_id": "0.0-79.0-4.0"}}, {"uniqueid": "MTK0802:37XITHEISXGCAQ0RFRB3BSNTK4DRCV", "current_trial": 111, "dateTime": 1512759430898, "trialdata": {"rt": -1, "stimulus": "<p id=\"stim\">5</p>", "key_press": -1, "trial_type": "single-stim", "trial_index": 111, "time_elapsed": 1804271, "internal_node_id": "0.0-79.0-5.0"}}, {"uniqueid": "MTK0802:37XITHEISXGCAQ0RFRB3BSNTK4DRCV", "current_trial": 112, "dateTime": 1512759431900, "trialdata": {"rt": -1, "stimulus": "<p id=\"stim\">4</p>", "key_press": -1, "trial_type": "single-stim", "trial_index": 112, "time_elapsed": 1805272, "internal_node_id": "0.0-79.0-6.0"}}, {"uniqueid": "MTK0802:37XITHEISXGCAQ0RFRB3BSNTK4DRCV", "current_trial": 113, "dateTime": 1512759432902, "trialdata": {"rt": -1, "stimulus": "<p id=\"stim\">3</p>", "key_press": -1, "trial_type": "single-stim", "trial_index": 113, "time_elapsed": 1806275, "internal_node_id": "0.0-79.0-7.0"}}, {"uniqueid": "MTK0802:37XITHEISXGCAQ0RFRB3BSNTK4DRCV", "current_trial": 114, "dateTime": 1512759433905, "trialdata": {"rt": -1, "stimulus": "<p id=\"stim\">2</p>", "key_press": -1, "trial_type": "single-stim", "trial_index": 114, "time_elapsed": 1807278, "internal_node_id": "0.0-79.0-8.0"}}, {"uniqueid": "MTK0802:37XITHEISXGCAQ0RFRB3BSNTK4DRCV", "current_trial": 115, "dateTime": 1512759434908, "trialdata": {"rt": -1, "stimulus": "<p id=\"stim\">1</p>", "key_press": -1, "trial_type": "single-stim", "trial_index": 115, "time_elapsed": 1808281, "internal_node_id": "0.0-79.0-9.0"}}, {"uniqueid": "MTK0802:37XITHEISXGCAQ0RFRB3BSNTK4DRCV", "current_trial": 116, "dateTime": 1512759436410, "trialdata": {"rt": -1, "stimulus": "<p id=\"stim\">+</p>", "key_press": -1, "type": "FIXATION", "trial_type": "single-stim", "trial_index": 116, "time_elapsed": 1809783, "internal_node_id": "0.0-80.0-0.0"}}, {"uniqueid": "MTK0802:37XITHEISXGCAQ0RFRB3BSNTK4DRCV", "current_trial": 117, "dateTime": 1512759437213, "trialdata": {"rt": -1, "stimulus": "<p id=\"stim\">ROBBER</p>", "key_press": -1, "type": "PRES_VIS", "word": "robber", "wordID": 1196, "conditions": [12, 800, "v", 24000], "trial": 3, "serialpos": 0, "trial_type": "single-stim", "trial_index": 117, "time_elapsed": 1810586, "internal_node_id": "0.0-81.0"}}, {"uniqueid": "MTK0802:37XITHEISXGCAQ0RFRB3BSNTK4DRCV", "current_trial": 118, "dateTime": 1512759438999, "trialdata": {"rt": -1, "stimulus": "<p id=\"stim\">NURSE</p>", "key_press": -1, "type": "PRES_VIS", "word": "nurse", "wordID": 962, "conditions": [12, 800, "v", 24000], "trial": 3, "serialpos": 1, "trial_type": "single-stim", "trial_index": 118, "time_elapsed": 1812372, "internal_node_id": "0.0-82.0"}}, {"uniqueid": "MTK0802:37XITHEISXGCAQ0RFRB3BSNTK4DRCV", "current_trial": 119, "dateTime": 1512759440824, "trialdata": {"rt": -1, "stimulus": "<p id=\"stim\">RIVER</p>", "key_press": -1, "type": "PRES_VIS", "word": "river", "wordID": 1193, "conditions": [12, 800, "v", 24000], "trial": 3, "serialpos": 2, "trial_type": "single-stim", "trial_index": 119, "time_elapsed": 1814197, "internal_node_id": "0.0-83.0"}}, {"uniqueid": "MTK0802:37XITHEISXGCAQ0RFRB3BSNTK4DRCV", "current_trial": 120, "dateTime": 1512759442511, "trialdata": {"rt": -1, "stimulus": "<p id=\"stim\">LAKE</p>", "key_press": -1, "type": "PRES_VIS", "word": "lake", "wordID": 795, "conditions": [12, 800, "v", 24000], "trial": 3, "serialpos": 3, "trial_type": "single-stim", "trial_index": 120, "time_elapsed": 1815882, "internal_node_id": "0.0-84.0"}}, {"uniqueid": "MTK0802:37XITHEISXGCAQ0RFRB3BSNTK4DRCV", "current_trial": 121, "dateTime": 1512759444249, "trialdata": {"rt": -1, "stimulus": "<p id=\"stim\">ELBOW</p>", "key_press": -1, "type": "PRES_VIS", "word": "elbow", "wordID": 519, "conditions": [12, 800, "v", 24000], "trial": 3, "serialpos": 4, "trial_type": "single-stim", "trial_index": 121, "time_elapsed": 1817622, "internal_node_id": "0.0-85.0"}}, {"uniqueid": "MTK0802:37XITHEISXGCAQ0RFRB3BSNTK4DRCV", "current_trial": 122, "dateTime": 1512759445880, "trialdata": {"rt": -1, "stimulus": "<p id=\"stim\">TUTU</p>", "key_press": -1, "type": "PRES_VIS", "word": "tutu", "wordID": 1523, "conditions": [12, 800, "v", 24000], "trial": 3, "serialpos": 5, "trial_type": "single-stim", "trial_index": 122, "time_elapsed": 1819253, "internal_node_id": "0.0-86.0"}}, {"uniqueid": "MTK0802:37XITHEISXGCAQ0RFRB3BSNTK4DRCV", "current_trial": 123, "dateTime": 1512759447626, "trialdata": {"rt": -1, "stimulus": "<p id=\"stim\">KIDNEY</p>", "key_press": -1, "type": "PRES_VIS", "word": "kidney", "wordID": 775, "conditions": [12, 800, "v", 24000], "trial": 3, "serialpos": 6, "trial_type": "single-stim", "trial_index": 123, "time_elapsed": 1820999, "internal_node_id": "0.0-87.0"}}, {"uniqueid": "MTK0802:37XITHEISXGCAQ0RFRB3BSNTK4DRCV", "current_trial": 124, "dateTime": 1512759449620, "trialdata": {"rt": -1, "stimulus": "<p id=\"stim\">SIDEWALK</p>", "key_press": -1, "type": "PRES_VIS", "word": "sidewalk", "wordID": 1302, "conditions": [12, 800, "v", 24000], "trial": 3, "serialpos": 7, "trial_type": "single-stim", "trial_index": 124, "time_elapsed": 1822992, "internal_node_id": "0.0-88.0"}}, {"uniqueid": "MTK0802:37XITHEISXGCAQ0RFRB3BSNTK4DRCV", "current_trial": 125, "dateTime": 1512759451397, "trialdata": {"rt": -1, "stimulus": "<p id=\"stim\">BEAVER</p>", "key_press": -1, "type": "PRES_VIS", "word": "beaver", "wordID": 108, "conditions": [12, 800, "v", 24000], "trial": 3, "serialpos": 8, "trial_type": "single-stim", "trial_index": 125, "time_elapsed": 1824770, "internal_node_id": "0.0-89.0"}}, {"uniqueid": "MTK0802:37XITHEISXGCAQ0RFRB3BSNTK4DRCV", "current_trial": 126, "dateTime": 1512759453132, "trialdata": {"rt": -1, "stimulus": "<p id=\"stim\">TART</p>", "key_press": -1, "type": "PRES_VIS", "word": "tart", "wordID": 1435, "conditions": [12, 800, "v", 24000], "trial": 3, "serialpos": 9, "trial_type": "single-stim", "trial_index": 126, "time_elapsed": 1826505, "internal_node_id": "0.0-90.0"}}, {"uniqueid": "MTK0802:37XITHEISXGCAQ0RFRB3BSNTK4DRCV", "current_trial": 127, "dateTime": 1512759454860, "trialdata": {"rt": -1, "stimulus": "<p id=\"stim\">MARROW</p>", "key_press": -1, "type": "PRES_VIS", "word": "marrow", "wordID": 871, "conditions": [12, 800, "v", 24000], "trial": 3, "serialpos": 10, "trial_type": "single-stim", "trial_index": 127, "time_elapsed": 1828233, "internal_node_id": "0.0-91.0"}}, {"uniqueid": "MTK0802:37XITHEISXGCAQ0RFRB3BSNTK4DRCV", "current_trial": 128, "dateTime": 1512759456502, "trialdata": {"rt": -1, "stimulus": "<p id=\"stim\">BURGLAR</p>", "key_press": -1, "type": "PRES_VIS", "word": "burglar", "wordID": 199, "conditions": [12, 800, "v", 24000], "trial": 3, "serialpos": 11, "trial_type": "single-stim", "trial_index": 128, "time_elapsed": 1829875, "internal_node_id": "0.0-92.0"}}, {"uniqueid": "MTK0802:37XITHEISXGCAQ0RFRB3BSNTK4DRCV", "current_trial": 129, "dateTime": 1512759458905, "trialdata": {"rt": -1, "stimulus": "", "key_press": -1, "type": "PRE_RECALL_DELAY", "trial_type": "single-stim", "trial_index": 129, "time_elapsed": 1832278, "internal_node_id": "0.0-93.0-0.0"}}, {"uniqueid": "MTK0802:37XITHEISXGCAQ0RFRB3BSNTK4DRCV", "current_trial": 130, "dateTime": 1512759459407, "trialdata": {"rt": -1000, "stimulus": "/static/audio/400Hz.wav", "key_press": -1, "type": "PRE_RECALL_ALERT", "trial_type": "single-audio", "trial_index": 130, "time_elapsed": 1832780, "internal_node_id": "0.0-94.0"}}, {"uniqueid": "MTK0802:37XITHEISXGCAQ0RFRB3BSNTK4DRCV", "current_trial": 131, "dateTime": 1512759519420, "trialdata": {"rt": [4511, 5952, 7457, 8920, 10204, 11330, 13443, 15399], "recwords": ["burgular", "robber", "nurse", "river", "lake", "tutu", "elbow", "kidney"], "type": "FREE_RECALL", "conditions": [12, 800, "v", 24000], "trial": 3, "trial_type": "free-recall", "trial_index": 131, "time_elapsed": 1892785, "internal_node_id": "0.0-95.0-0.0"}}, {"uniqueid": "MTK0802:37XITHEISXGCAQ0RFRB3BSNTK4DRCV", "current_trial": 132, "dateTime": 1512760233845, "trialdata": {"rt": 712423, "key_press": 32, "type": "INSTRUCTIONS", "trial_type": "text", "trial_index": 132, "time_elapsed": 2607218, "internal_node_id": "0.0-96.0"}}, {"uniqueid": "MTK0802:37XITHEISXGCAQ0RFRB3BSNTK4DRCV", "current_trial": 133, "dateTime": 1512760259856, "trialdata": {"rt": [2410, 4950, 7964, 13522, 16021, 18877], "responses": ["13", "13", "19", "14", "10", "11"], "num1": [5, 6, 8, 8, 1, 5, 8], "num2": [6, 4, 8, 5, 7, 2, 7], "num3": [2, 3, 3, 1, 2, 4, 6], "type": "DISTRACTOR", "conditions": [12, 1600, "a", 24000], "trial": 4, "trial_type": "math-distractor", "trial_index": 133, "time_elapsed": 2633228, "internal_node_id": "0.0-97.0"}}, {"uniqueid": "MTK0802:37XITHEISXGCAQ0RFRB3BSNTK4DRCV", "current_trial": 134, "dateTime": 1512760262858, "trialdata": {"rt": -1, "stimulus": "<p id=\"stim\">10</p>", "key_press": -1, "trial_type": "single-stim", "trial_index": 134, "time_elapsed": 2636231, "internal_node_id": "0.0-98.0-0.0"}}, {"uniqueid": "MTK0802:37XITHEISXGCAQ0RFRB3BSNTK4DRCV", "current_trial": 135, "dateTime": 1512760263859, "trialdata": {"rt": -1, "stimulus": "<p id=\"stim\">9</p>", "key_press": -1, "trial_type": "single-stim", "trial_index": 135, "time_elapsed": 2637232, "internal_node_id": "0.0-98.0-1.0"}}, {"uniqueid": "MTK0802:37XITHEISXGCAQ0RFRB3BSNTK4DRCV", "current_trial": 136, "dateTime": 1512760264863, "trialdata": {"rt": -1, "stimulus": "<p id=\"stim\">8</p>", "key_press": -1, "trial_type": "single-stim", "trial_index": 136, "time_elapsed": 2638236, "internal_node_id": "0.0-98.0-2.0"}}, {"uniqueid": "MTK0802:37XITHEISXGCAQ0RFRB3BSNTK4DRCV", "current_trial": 137, "dateTime": 1512760265865, "trialdata": {"rt": -1, "stimulus": "<p id=\"stim\">7</p>", "key_press": -1, "trial_type": "single-stim", "trial_index": 137, "time_elapsed": 2639238, "internal_node_id": "0.0-98.0-3.0"}}, {"uniqueid": "MTK0802:37XITHEISXGCAQ0RFRB3BSNTK4DRCV", "current_trial": 138, "dateTime": 1512760266867, "trialdata": {"rt": -1, "stimulus": "<p id=\"stim\">6</p>", "key_press": -1, "trial_type": "single-stim", "trial_index": 138, "time_elapsed": 2640240, "internal_node_id": "0.0-98.0-4.0"}}, {"uniqueid": "MTK0802:37XITHEISXGCAQ0RFRB3BSNTK4DRCV", "current_trial": 139, "dateTime": 1512760267869, "trialdata": {"rt": -1, "stimulus": "<p id=\"stim\">5</p>", "key_press": -1, "trial_type": "single-stim", "trial_index": 139, "time_elapsed": 2641242, "internal_node_id": "0.0-98.0-5.0"}}, {"uniqueid": "MTK0802:37XITHEISXGCAQ0RFRB3BSNTK4DRCV", "current_trial": 140, "dateTime": 1512760268872, "trialdata": {"rt": -1, "stimulus": "<p id=\"stim\">4</p>", "key_press": -1, "trial_type": "single-stim", "trial_index": 140, "time_elapsed": 2642245, "internal_node_id": "0.0-98.0-6.0"}}, {"uniqueid": "MTK0802:37XITHEISXGCAQ0RFRB3BSNTK4DRCV", "current_trial": 141, "dateTime": 1512760269873, "trialdata": {"rt": -1, "stimulus": "<p id=\"stim\">3</p>", "key_press": -1, "trial_type": "single-stim", "trial_index": 141, "time_elapsed": 2643246, "internal_node_id": "0.0-98.0-7.0"}}, {"uniqueid": "MTK0802:37XITHEISXGCAQ0RFRB3BSNTK4DRCV", "current_trial": 142, "dateTime": 1512760270875, "trialdata": {"rt": -1, "stimulus": "<p id=\"stim\">2</p>", "key_press": -1, "trial_type": "single-stim", "trial_index": 142, "time_elapsed": 2644248, "internal_node_id": "0.0-98.0-8.0"}}, {"uniqueid": "MTK0802:37XITHEISXGCAQ0RFRB3BSNTK4DRCV", "current_trial": 143, "dateTime": 1512760271878, "trialdata": {"rt": -1, "stimulus": "<p id=\"stim\">1</p>", "key_press": -1, "trial_type": "single-stim", "trial_index": 143, "time_elapsed": 2645251, "internal_node_id": "0.0-98.0-9.0"}}, {"uniqueid": "MTK0802:37XITHEISXGCAQ0RFRB3BSNTK4DRCV", "current_trial": 144, "dateTime": 1512760273380, "trialdata": {"rt": -1, "stimulus": "<p id=\"stim\">+</p>", "key_press": -1, "type": "FIXATION", "trial_type": "single-stim", "trial_index": 144, "time_elapsed": 2646753, "internal_node_id": "0.0-99.0-0.0"}}, {"uniqueid": "MTK0802:37XITHEISXGCAQ0RFRB3BSNTK4DRCV", "current_trial": 145, "dateTime": 1512760275794, "trialdata": {"rt": -1000, "stimulus": "/static/audio/wordpool/JUDGE.wav", "key_press": -1, "type": "PRES_AUD", "word": "judge", "wordID": 760, "conditions": [12, 1600, "a", 24000], "trial": 4, "serialpos": 0, "trial_type": "single-audio", "trial_index": 145, "time_elapsed": 2649166, "internal_node_id": "0.0-100.0"}}, {"uniqueid": "MTK0802:37XITHEISXGCAQ0RFRB3BSNTK4DRCV", "current_trial": 146, "dateTime": 1512760278423, "trialdata": {"rt": -1000, "stimulus": "/static/audio/wordpool/WAGON.wav", "key_press": -1, "type": "PRES_AUD", "word": "wagon", "wordID": 1577, "conditions": [12, 1600, "a", 24000], "trial": 4, "serialpos": 1, "trial_type": "single-audio", "trial_index": 146, "time_elapsed": 2651796, "internal_node_id": "0.0-101.0"}}, {"uniqueid": "MTK0802:37XITHEISXGCAQ0RFRB3BSNTK4DRCV", "current_trial": 147, "dateTime": 1512760281079, "trialdata": {"rt": -1000, "stimulus": "/static/audio/wordpool/PICTURE.wav", "key_press": -1, "type": "PRES_AUD", "word": "picture", "wordID": 1060, "conditions": [12, 1600, "a", 24000], "trial": 4, "serialpos": 2, "trial_type": "single-audio", "trial_index": 147, "time_elapsed": 2654448, "internal_node_id": "0.0-102.0"}}, {"uniqueid": "MTK0802:37XITHEISXGCAQ0RFRB3BSNTK4DRCV", "current_trial": 148, "dateTime": 1512760283801, "trialdata": {"rt": -1000, "stimulus": "/static/audio/wordpool/INMATE.wav", "key_press": -1, "type": "PRES_AUD", "word": "inmate", "wordID": 737, "conditions": [12, 1600, "a", 24000], "trial": 4, "serialpos": 3, "trial_type": "single-audio", "trial_index": 148, "time_elapsed": 2657173, "internal_node_id": "0.0-103.0"}}, {"uniqueid": "MTK0802:37XITHEISXGCAQ0RFRB3BSNTK4DRCV", "current_trial": 149, "dateTime": 1512760286473, "trialdata": {"rt": -1000, "stimulus": "/static/audio/wordpool/GYMNAST.wav", "key_press": -1, "type": "PRES_AUD", "word": "gymnast", "wordID": 674, "conditions": [12, 1600, "a", 24000], "trial": 4, "serialpos": 4, "trial_type": "single-audio", "trial_index": 149, "time_elapsed": 2659846, "internal_node_id": "0.0-104.0"}}, {"uniqueid": "MTK0802:37XITHEISXGCAQ0RFRB3BSNTK4DRCV", "current_trial": 150, "dateTime": 1512760288903, "trialdata": {"rt": -1000, "stimulus": "/static/audio/wordpool/MOTEL.wav", "key_press": -1, "type": "PRES_AUD", "word": "motel", "wordID": 918, "conditions": [12, 1600, "a", 24000], "trial": 4, "serialpos": 5, "trial_type": "single-audio", "trial_index": 150, "time_elapsed": 2662276, "internal_node_id": "0.0-105.0"}}, {"uniqueid": "MTK0802:37XITHEISXGCAQ0RFRB3BSNTK4DRCV", "current_trial": 151, "dateTime": 1512760291492, "trialdata": {"rt": -1000, "stimulus": "/static/audio/wordpool/MARINE.wav", "key_press": -1, "type": "PRES_AUD", "word": "marine", "wordID": 868, "conditions": [12, 1600, "a", 24000], "trial": 4, "serialpos": 6, "trial_type": "single-audio", "trial_index": 151, "time_elapsed": 2664865, "internal_node_id": "0.0-106.0"}}, {"uniqueid": "MTK0802:37XITHEISXGCAQ0RFRB3BSNTK4DRCV", "current_trial": 152, "dateTime": 1512760294189, "trialdata": {"rt": -1000, "stimulus": "/static/audio/wordpool/PORTRAIT.wav", "key_press": -1, "type": "PRES_AUD", "word": "portrait", "wordID": 1110, "conditions": [12, 1600, "a", 24000], "trial": 4, "serialpos": 7, "trial_type": "single-audio", "trial_index": 152, "time_elapsed": 2667562, "internal_node_id": "0.0-107.0"}}, {"uniqueid": "MTK0802:37XITHEISXGCAQ0RFRB3BSNTK4DRCV", "current_trial": 153, "dateTime": 1512760296751, "trialdata": {"rt": -1000, "stimulus": "/static/audio/wordpool/SURVEY.wav", "key_press": -1, "type": "PRES_AUD", "word": "survey", "wordID": 1413, "conditions": [12, 1600, "a", 24000], "trial": 4, "serialpos": 8, "trial_type": "single-audio", "trial_index": 153, "time_elapsed": 2670124, "internal_node_id": "0.0-108.0"}}, {"uniqueid": "MTK0802:37XITHEISXGCAQ0RFRB3BSNTK4DRCV", "current_trial": 154, "dateTime": 1512760299252, "trialdata": {"rt": -1000, "stimulus": "/static/audio/wordpool/REPORT.wav", "key_press": -1, "type": "PRES_AUD", "word": "report", "wordID": 1183, "conditions": [12, 1600, "a", 24000], "trial": 4, "serialpos": 9, "trial_type": "single-audio", "trial_index": 154, "time_elapsed": 2672625, "internal_node_id": "0.0-109.0"}}, {"uniqueid": "MTK0802:37XITHEISXGCAQ0RFRB3BSNTK4DRCV", "current_trial": 155, "dateTime": 1512760301906, "trialdata": {"rt": -1000, "stimulus": "/static/audio/wordpool/PASTA.wav", "key_press": -1, "type": "PRES_AUD", "word": "pasta", "wordID": 1020, "conditions": [12, 1600, "a", 24000], "trial": 4, "serialpos": 10, "trial_type": "single-audio", "trial_index": 155, "time_elapsed": 2675279, "internal_node_id": "0.0-110.0"}}, {"uniqueid": "MTK0802:37XITHEISXGCAQ0RFRB3BSNTK4DRCV", "current_trial": 156, "dateTime": 1512760304455, "trialdata": {"rt": -1000, "stimulus": "/static/audio/wordpool/SNACK.wav", "key_press": -1, "type": "PRES_AUD", "word": "snack", "wordID": 1330, "conditions": [12, 1600, "a", 24000], "trial": 4, "serialpos": 11, "trial_type": "single-audio", "trial_index": 156, "time_elapsed": 2677828, "internal_node_id": "0.0-111.0"}}, {"uniqueid": "MTK0802:37XITHEISXGCAQ0RFRB3BSNTK4DRCV", "current_trial": 157, "dateTime": 1512760305748, "trialdata": {"rt": -1, "stimulus": "", "key_press": -1, "type": "PRE_RECALL_DELAY", "trial_type": "single-stim", "trial_index": 157, "time_elapsed": 2679120, "internal_node_id": "0.0-112.0-0.0"}}, {"uniqueid": "MTK0802:37XITHEISXGCAQ0RFRB3BSNTK4DRCV", "current_trial": 158, "dateTime": 1512760306251, "trialdata": {"rt": -1000, "stimulus": "/static/audio/400Hz.wav", "key_press": -1, "type": "PRE_RECALL_ALERT", "trial_type": "single-audio", "trial_index": 158, "time_elapsed": 2679623, "internal_node_id": "0.0-113.0"}}, {"uniqueid": "MTK0802:37XITHEISXGCAQ0RFRB3BSNTK4DRCV", "current_trial": 159, "dateTime": 1512760366268, "trialdata": {"rt": [6929, 8436, 9946, 11834, 14869, 16335, 18154, 19729, 21124], "recwords": ["report", "pasta", "snack", "survey", "judge", "marine", "inmate", "wagon", "motel"], "type": "FREE_RECALL", "conditions": [12, 1600, "a", 24000], "trial": 4, "trial_type": "free-recall", "trial_index": 159, "time_elapsed": 2739629, "internal_node_id": "0.0-114.0-0.0"}}, {"uniqueid": "MTK0802:37XITHEISXGCAQ0RFRB3BSNTK4DRCV", "current_trial": 160, "dateTime": 1512760976647, "trialdata": {"rt": 608377, "key_press": 32, "type": "INSTRUCTIONS", "trial_type": "text", "trial_index": 160, "time_elapsed": 3350020, "internal_node_id": "0.0-115.0"}}, {"uniqueid": "MTK0802:37XITHEISXGCAQ0RFRB3BSNTK4DRCV", "current_trial": 161, "dateTime": 1512760990659, "trialdata": {"rt": [2333, 7149, 10543], "responses": ["12", "14", "15"], "num1": [2, 2, 6, 7], "num2": [5, 5, 2, 2], "num3": [5, 7, 7, 8], "type": "DISTRACTOR", "conditions": [24, 1600, "a", 12000], "trial": 5, "trial_type": "math-distractor", "trial_index": 161, "time_elapsed": 3364032, "internal_node_id": "0.0-116.0"}}, {"uniqueid": "MTK0802:37XITHEISXGCAQ0RFRB3BSNTK4DRCV", "current_trial": 162, "dateTime": 1512760993721, "trialdata": {"rt": -1, "stimulus": "<p id=\"stim\">10</p>", "key_press": -1, "trial_type": "single-stim", "trial_index": 162, "time_elapsed": 3367094, "internal_node_id": "0.0-117.0-0.0"}}, {"uniqueid": "MTK0802:37XITHEISXGCAQ0RFRB3BSNTK4DRCV", "current_trial": 163, "dateTime": 1512760994723, "trialdata": {"rt": -1, "stimulus": "<p id=\"stim\">9</p>", "key_press": -1, "trial_type": "single-stim", "trial_index": 163, "time_elapsed": 3368096, "internal_node_id": "0.0-117.0-1.0"}}, {"uniqueid": "MTK0802:37XITHEISXGCAQ0RFRB3BSNTK4DRCV", "current_trial": 164, "dateTime": 1512760995727, "trialdata": {"rt": -1, "stimulus": "<p id=\"stim\">8</p>", "key_press": -1, "trial_type": "single-stim", "trial_index": 164, "time_elapsed": 3369100, "internal_node_id": "0.0-117.0-2.0"}}, {"uniqueid": "MTK0802:37XITHEISXGCAQ0RFRB3BSNTK4DRCV", "current_trial": 165, "dateTime": 1512760996732, "trialdata": {"rt": -1, "stimulus": "<p id=\"stim\">7</p>", "key_press": -1, "trial_type": "single-stim", "trial_index": 165, "time_elapsed": 3370105, "internal_node_id": "0.0-117.0-3.0"}}, {"uniqueid": "MTK0802:37XITHEISXGCAQ0RFRB3BSNTK4DRCV", "current_trial": 166, "dateTime": 1512760997735, "trialdata": {"rt": -1, "stimulus": "<p id=\"stim\">6</p>", "key_press": -1, "trial_type": "single-stim", "trial_index": 166, "time_elapsed": 3371108, "internal_node_id": "0.0-117.0-4.0"}}, {"uniqueid": "MTK0802:37XITHEISXGCAQ0RFRB3BSNTK4DRCV", "current_trial": 167, "dateTime": 1512760998738, "trialdata": {"rt": -1, "stimulus": "<p id=\"stim\">5</p>", "key_press": -1, "trial_type": "single-stim", "trial_index": 167, "time_elapsed": 3372111, "internal_node_id": "0.0-117.0-5.0"}}, {"uniqueid": "MTK0802:37XITHEISXGCAQ0RFRB3BSNTK4DRCV", "current_trial": 168, "dateTime": 1512760999741, "trialdata": {"rt": -1, "stimulus": "<p id=\"stim\">4</p>", "key_press": -1, "trial_type": "single-stim", "trial_index": 168, "time_elapsed": 3373114, "internal_node_id": "0.0-117.0-6.0"}}, {"uniqueid": "MTK0802:37XITHEISXGCAQ0RFRB3BSNTK4DRCV", "current_trial": 169, "dateTime": 1512761000742, "trialdata": {"rt": -1, "stimulus": "<p id=\"stim\">3</p>", "key_press": -1, "trial_type": "single-stim", "trial_index": 169, "time_elapsed": 3374115, "internal_node_id": "0.0-117.0-7.0"}}, {"uniqueid": "MTK0802:37XITHEISXGCAQ0RFRB3BSNTK4DRCV", "current_trial": 170, "dateTime": 1512761001745, "trialdata": {"rt": -1, "stimulus": "<p id=\"stim\">2</p>", "key_press": -1, "trial_type": "single-stim", "trial_index": 170, "time_elapsed": 3375118, "internal_node_id": "0.0-117.0-8.0"}}, {"uniqueid": "MTK0802:37XITHEISXGCAQ0RFRB3BSNTK4DRCV", "current_trial": 171, "dateTime": 1512761002748, "trialdata": {"rt": -1, "stimulus": "<p id=\"stim\">1</p>", "key_press": -1, "trial_type": "single-stim", "trial_index": 171, "time_elapsed": 3376121, "internal_node_id": "0.0-117.0-9.0"}}, {"uniqueid": "MTK0802:37XITHEISXGCAQ0RFRB3BSNTK4DRCV", "current_trial": 172, "dateTime": 1512761004259, "trialdata": {"rt": -1, "stimulus": "<p id=\"stim\">+</p>", "key_press": -1, "type": "FIXATION", "trial_type": "single-stim", "trial_index": 172, "time_elapsed": 3377632, "internal_node_id": "0.0-118.0-0.0"}}, {"uniqueid": "MTK0802:37XITHEISXGCAQ0RFRB3BSNTK4DRCV", "current_trial": 173, "dateTime": 1512761006863, "trialdata": {"rt": -1000, "stimulus": "/static/audio/wordpool/DRIVER.wav", "key_press": -1, "type": "PRES_AUD", "word": "driver", "wordID": 498, "conditions": [24, 1600, "a", 12000], "trial": 5, "serialpos": 0, "trial_type": "single-audio", "trial_index": 173, "time_elapsed": 3380235, "internal_node_id": "0.0-119.0"}}, {"uniqueid": "MTK0802:37XITHEISXGCAQ0RFRB3BSNTK4DRCV", "current_trial": 174, "dateTime": 1512761009336, "trialdata": {"rt": -1000, "stimulus": "/static/audio/wordpool/FRANCE.wav", "key_press": -1, "type": "PRES_AUD", "word": "france", "wordID": 600, "conditions": [24, 1600, "a", 12000], "trial": 5, "serialpos": 1, "trial_type": "single-audio", "trial_index": 174, "time_elapsed": 3382709, "internal_node_id": "0.0-120.0"}}, {"uniqueid": "MTK0802:37XITHEISXGCAQ0RFRB3BSNTK4DRCV", "current_trial": 175, "dateTime": 1512761012009, "trialdata": {"rt": -1000, "stimulus": "/static/audio/wordpool/LONDON.wav", "key_press": -1, "type": "PRES_AUD", "word": "london", "wordID": 842, "conditions": [24, 1600, "a", 12000], "trial": 5, "serialpos": 2, "trial_type": "single-audio", "trial_index": 175, "time_elapsed": 3385381, "internal_node_id": "0.0-121.0"}}, {"uniqueid": "MTK0802:37XITHEISXGCAQ0RFRB3BSNTK4DRCV", "current_trial": 176, "dateTime": 1512761014662, "trialdata": {"rt": -1000, "stimulus": "/static/audio/wordpool/KETCHUP.wav", "key_press": -1, "type": "PRES_AUD", "word": "ketchup", "wordID": 770, "conditions": [24, 1600, "a", 12000], "trial": 5, "serialpos": 3, "trial_type": "single-audio", "trial_index": 176, "time_elapsed": 3388035, "internal_node_id": "0.0-122.0"}}, {"uniqueid": "MTK0802:37XITHEISXGCAQ0RFRB3BSNTK4DRCV", "current_trial": 177, "dateTime": 1512761017405, "trialdata": {"rt": -1000, "stimulus": "/static/audio/wordpool/POISON.wav", "key_press": -1, "type": "PRES_AUD", "word": "poison", "wordID": 1095, "conditions": [24, 1600, "a", 12000], "trial": 5, "serialpos": 4, "trial_type": "single-audio", "trial_index": 177, "time_elapsed": 3390777, "internal_node_id": "0.0-123.0"}}, {"uniqueid": "MTK0802:37XITHEISXGCAQ0RFRB3BSNTK4DRCV", "current_trial": 178, "dateTime": 1512761019973, "trialdata": {"rt": -1000, "stimulus": "/static/audio/wordpool/CAMEL.wav", "key_press": -1, "type": "PRES_AUD", "word": "camel", "wordID": 222, "conditions": [24, 1600, "a", 12000], "trial": 5, "serialpos": 5, "trial_type": "single-audio", "trial_index": 178, "time_elapsed": 3393346, "internal_node_id": "0.0-124.0"}}, {"uniqueid": "MTK0802:37XITHEISXGCAQ0RFRB3BSNTK4DRCV", "current_trial": 179, "dateTime": 1512761022616, "trialdata": {"rt": -1000, "stimulus": "/static/audio/wordpool/APRON.wav", "key_press": -1, "type": "PRES_AUD", "word": "apron", "wordID": 34, "conditions": [24, 1600, "a", 12000], "trial": 5, "serialpos": 6, "trial_type": "single-audio", "trial_index": 179, "time_elapsed": 3395989, "internal_node_id": "0.0-125.0"}}, {"uniqueid": "MTK0802:37XITHEISXGCAQ0RFRB3BSNTK4DRCV", "current_trial": 180, "dateTime": 1512761025328, "trialdata": {"rt": -1000, "stimulus": "/static/audio/wordpool/GIFT.wav", "key_press": -1, "type": "PRES_AUD", "word": "gift", "wordID": 634, "conditions": [24, 1600, "a", 12000], "trial": 5, "serialpos": 7, "trial_type": "single-audio", "trial_index": 180, "time_elapsed": 3398700, "internal_node_id": "0.0-126.0"}}, {"uniqueid": "MTK0802:37XITHEISXGCAQ0RFRB3BSNTK4DRCV", "current_trial": 181, "dateTime": 1512761028000, "trialdata": {"rt": -1000, "stimulus": "/static/audio/wordpool/RATTLE.wav", "key_press": -1, "type": "PRES_AUD", "word": "rattle", "wordID": 1169, "conditions": [24, 1600, "a", 12000], "trial": 5, "serialpos": 8, "trial_type": "single-audio", "trial_index": 181, "time_elapsed": 3401373, "internal_node_id": "0.0-127.0"}}, {"uniqueid": "MTK0802:37XITHEISXGCAQ0RFRB3BSNTK4DRCV", "current_trial": 182, "dateTime": 1512761030454, "trialdata": {"rt": -1000, "stimulus": "/static/audio/wordpool/SHELF.wav", "key_press": -1, "type": "PRES_AUD", "word": "shelf", "wordID": 1279, "conditions": [24, 1600, "a", 12000], "trial": 5, "serialpos": 9, "trial_type": "single-audio", "trial_index": 182, "time_elapsed": 3403827, "internal_node_id": "0.0-128.0"}}, {"uniqueid": "MTK0802:37XITHEISXGCAQ0RFRB3BSNTK4DRCV", "current_trial": 183, "dateTime": 1512761032958, "trialdata": {"rt": -1000, "stimulus": "/static/audio/wordpool/KNAPSACK.wav", "key_press": -1, "type": "PRES_AUD", "word": "knapsack", "wordID": 782, "conditions": [24, 1600, "a", 12000], "trial": 5, "serialpos": 10, "trial_type": "single-audio", "trial_index": 183, "time_elapsed": 3406328, "internal_node_id": "0.0-129.0"}}, {"uniqueid": "MTK0802:37XITHEISXGCAQ0RFRB3BSNTK4DRCV", "current_trial": 184, "dateTime": 1512761035520, "trialdata": {"rt": -1000, "stimulus": "/static/audio/wordpool/DONKEY.wav", "key_press": -1, "type": "PRES_AUD", "word": "donkey", "wordID": 483, "conditions": [24, 1600, "a", 12000], "trial": 5, "serialpos": 11, "trial_type": "single-audio", "trial_index": 184, "time_elapsed": 3408893, "internal_node_id": "0.0-130.0"}}, {"uniqueid": "MTK0802:37XITHEISXGCAQ0RFRB3BSNTK4DRCV", "current_trial": 185, "dateTime": 1512761038171, "trialdata": {"rt": -1000, "stimulus": "/static/audio/wordpool/ZEBRA.wav", "key_press": -1, "type": "PRES_AUD", "word": "zebra", "wordID": 1634, "conditions": [24, 1600, "a", 12000], "trial": 5, "serialpos": 12, "trial_type": "single-audio", "trial_index": 185, "time_elapsed": 3411544, "internal_node_id": "0.0-131.0"}}, {"uniqueid": "MTK0802:37XITHEISXGCAQ0RFRB3BSNTK4DRCV", "current_trial": 186, "dateTime": 1512761040907, "trialdata": {"rt": -1000, "stimulus": "/static/audio/wordpool/SCOTCH.wav", "key_press": -1, "type": "PRES_AUD", "word": "scotch", "wordID": 1250, "conditions": [24, 1600, "a", 12000], "trial": 5, "serialpos": 13, "trial_type": "single-audio", "trial_index": 186, "time_elapsed": 3414280, "internal_node_id": "0.0-132.0"}}, {"uniqueid": "MTK0802:37XITHEISXGCAQ0RFRB3BSNTK4DRCV", "current_trial": 187, "dateTime": 1512761043485, "trialdata": {"rt": -1000, "stimulus": "/static/audio/wordpool/GARDEN.wav", "key_press": -1, "type": "PRES_AUD", "word": "garden", "wordID": 622, "conditions": [24, 1600, "a", 12000], "trial": 5, "serialpos": 14, "trial_type": "single-audio", "trial_index": 187, "time_elapsed": 3416858, "internal_node_id": "0.0-133.0"}}, {"uniqueid": "MTK0802:37XITHEISXGCAQ0RFRB3BSNTK4DRCV", "current_trial": 188, "dateTime": 1512761046207, "trialdata": {"rt": -1000, "stimulus": "/static/audio/wordpool/BASEMENT.wav", "key_press": -1, "type": "PRES_AUD", "word": "basement", "wordID": 93, "conditions": [24, 1600, "a", 12000], "trial": 5, "serialpos": 15, "trial_type": "single-audio", "trial_index": 188, "time_elapsed": 3419580, "internal_node_id": "0.0-134.0"}}, {"uniqueid": "MTK0802:37XITHEISXGCAQ0RFRB3BSNTK4DRCV", "current_trial": 189, "dateTime": 1512761048801, "trialdata": {"rt": -1000, "stimulus": "/static/audio/wordpool/BRANDY.wav", "key_press": -1, "type": "PRES_AUD", "word": "brandy", "wordID": 168, "conditions": [24, 1600, "a", 12000], "trial": 5, "serialpos": 16, "trial_type": "single-audio", "trial_index": 189, "time_elapsed": 3422174, "internal_node_id": "0.0-135.0"}}, {"uniqueid": "MTK0802:37XITHEISXGCAQ0RFRB3BSNTK4DRCV", "current_trial": 190, "dateTime": 1512761051286, "trialdata": {"rt": -1000, "stimulus": "/static/audio/wordpool/COSTUME.wav", "key_press": -1, "type": "PRES_AUD", "word": "costume", "wordID": 382, "conditions": [24, 1600, "a", 12000], "trial": 5, "serialpos": 17, "trial_type": "single-audio", "trial_index": 190, "time_elapsed": 3424659, "internal_node_id": "0.0-136.0"}}, {"uniqueid": "MTK0802:37XITHEISXGCAQ0RFRB3BSNTK4DRCV", "current_trial": 191, "dateTime": 1512761054073, "trialdata": {"rt": -1000, "stimulus": "/static/audio/wordpool/DRESS.wav", "key_press": -1, "type": "PRES_AUD", "word": "dress", "wordID": 494, "conditions": [24, 1600, "a", 12000], "trial": 5, "serialpos": 18, "trial_type": "single-audio", "trial_index": 191, "time_elapsed": 3427446, "internal_node_id": "0.0-137.0"}}, {"uniqueid": "MTK0802:37XITHEISXGCAQ0RFRB3BSNTK4DRCV", "current_trial": 192, "dateTime": 1512761056716, "trialdata": {"rt": -1000, "stimulus": "/static/audio/wordpool/MAPLE.wav", "key_press": -1, "type": "PRES_AUD", "word": "maple", "wordID": 865, "conditions": [24, 1600, "a", 12000], "trial": 5, "serialpos": 19, "trial_type": "single-audio", "trial_index": 192, "time_elapsed": 3430088, "internal_node_id": "0.0-138.0"}}, {"uniqueid": "MTK0802:37XITHEISXGCAQ0RFRB3BSNTK4DRCV", "current_trial": 193, "dateTime": 1512761059472, "trialdata": {"rt": -1000, "stimulus": "/static/audio/wordpool/CELLAR.wav", "key_press": -1, "type": "PRES_AUD", "word": "cellar", "wordID": 266, "conditions": [24, 1600, "a", 12000], "trial": 5, "serialpos": 20, "trial_type": "single-audio", "trial_index": 193, "time_elapsed": 3432845, "internal_node_id": "0.0-139.0"}}, {"uniqueid": "MTK0802:37XITHEISXGCAQ0RFRB3BSNTK4DRCV", "current_trial": 194, "dateTime": 1512761062038, "trialdata": {"rt": -1000, "stimulus": "/static/audio/wordpool/SCALLOP.wav", "key_press": -1, "type": "PRES_AUD", "word": "scallop", "wordID": 1241, "conditions": [24, 1600, "a", 12000], "trial": 5, "serialpos": 21, "trial_type": "single-audio", "trial_index": 194, "time_elapsed": 3435411, "internal_node_id": "0.0-140.0"}}, {"uniqueid": "MTK0802:37XITHEISXGCAQ0RFRB3BSNTK4DRCV", "current_trial": 195, "dateTime": 1512761064742, "trialdata": {"rt": -1000, "stimulus": "/static/audio/wordpool/DINER.wav", "key_press": -1, "type": "PRES_AUD", "word": "diner", "wordID": 466, "conditions": [24, 1600, "a", 12000], "trial": 5, "serialpos": 22, "trial_type": "single-audio", "trial_index": 195, "time_elapsed": 3438115, "internal_node_id": "0.0-141.0"}}, {"uniqueid": "MTK0802:37XITHEISXGCAQ0RFRB3BSNTK4DRCV", "current_trial": 196, "dateTime": 1512761067176, "trialdata": {"rt": -1000, "stimulus": "/static/audio/wordpool/BRANCH.wav", "key_press": -1, "type": "PRES_AUD", "word": "branch", "wordID": 167, "conditions": [24, 1600, "a", 12000], "trial": 5, "serialpos": 23, "trial_type": "single-audio", "trial_index": 196, "time_elapsed": 3440549, "internal_node_id": "0.0-142.0"}}, {"uniqueid": "MTK0802:37XITHEISXGCAQ0RFRB3BSNTK4DRCV", "current_trial": 197, "dateTime": 1512761068560, "trialdata": {"rt": -1, "stimulus": "", "key_press": -1, "type": "PRE_RECALL_DELAY", "trial_type": "single-stim", "trial_index": 197, "time_elapsed": 3441933, "internal_node_id": "0.0-143.0-0.0"}}, {"uniqueid": "MTK0802:37XITHEISXGCAQ0RFRB3BSNTK4DRCV", "current_trial": 198, "dateTime": 1512761069065, "trialdata": {"rt": -1000, "stimulus": "/static/audio/400Hz.wav", "key_press": -1, "type": "PRE_RECALL_ALERT", "trial_type": "single-audio", "trial_index": 198, "time_elapsed": 3442437, "internal_node_id": "0.0-144.0"}}, {"uniqueid": "MTK0802:37XITHEISXGCAQ0RFRB3BSNTK4DRCV", "current_trial": 199, "dateTime": 1512761129080, "trialdata": {"rt": [6033, 7721, 9747, 10827, 12446, 14787, 20186, 21539, 23404, 26396, 28557, 31750, 36722, 39581, 40930], "recwords": ["branch", "maple", "costume", "diner", "dress", "cellar", "london", "france", "driver", "camel", "zebra", "donkey", "ketchup", "poison", "apron"], "type": "FREE_RECALL", "conditions": [24, 1600, "a", 12000], "trial": 5, "trial_type": "free-recall", "trial_index": 199, "time_elapsed": 3502445, "internal_node_id": "0.0-145.0-0.0"}}, {"uniqueid": "MTK0802:37XITHEISXGCAQ0RFRB3BSNTK4DRCV", "current_trial": 200, "dateTime": 1512761205702, "trialdata": {"rt": 74620, "key_press": 32, "type": "INSTRUCTIONS", "trial_type": "text", "trial_index": 200, "time_elapsed": 3579075, "internal_node_id": "0.0-146.0"}}, {"uniqueid": "MTK0802:37XITHEISXGCAQ0RFRB3BSNTK4DRCV", "current_trial": 201, "dateTime": 1512761219708, "trialdata": {"rt": [3671, 5851, 8958], "responses": ["16", "9", "12"], "num1": [9, 7, 1, 8], "num2": [3, 1, 4, 1], "num3": [4, 1, 7, 6], "type": "DISTRACTOR", "conditions": [12, 800, "v", 12000], "trial": 6, "trial_type": "math-distractor", "trial_index": 201, "time_elapsed": 3593080, "internal_node_id": "0.0-147.0"}}, {"uniqueid": "MTK0802:37XITHEISXGCAQ0RFRB3BSNTK4DRCV", "current_trial": 202, "dateTime": 1512761222713, "trialdata": {"rt": -1, "stimulus": "<p id=\"stim\">10</p>", "key_press": -1, "trial_type": "single-stim", "trial_index": 202, "time_elapsed": 3596086, "internal_node_id": "0.0-148.0-0.0"}}, {"uniqueid": "MTK0802:37XITHEISXGCAQ0RFRB3BSNTK4DRCV", "current_trial": 203, "dateTime": 1512761223715, "trialdata": {"rt": -1, "stimulus": "<p id=\"stim\">9</p>", "key_press": -1, "trial_type": "single-stim", "trial_index": 203, "time_elapsed": 3597088, "internal_node_id": "0.0-148.0-1.0"}}, {"uniqueid": "MTK0802:37XITHEISXGCAQ0RFRB3BSNTK4DRCV", "current_trial": 204, "dateTime": 1512761224719, "trialdata": {"rt": -1, "stimulus": "<p id=\"stim\">8</p>", "key_press": -1, "trial_type": "single-stim", "trial_index": 204, "time_elapsed": 3598092, "internal_node_id": "0.0-148.0-2.0"}}, {"uniqueid": "MTK0802:37XITHEISXGCAQ0RFRB3BSNTK4DRCV", "current_trial": 205, "dateTime": 1512761225721, "trialdata": {"rt": -1, "stimulus": "<p id=\"stim\">7</p>", "key_press": -1, "trial_type": "single-stim", "trial_index": 205, "time_elapsed": 3599094, "internal_node_id": "0.0-148.0-3.0"}}, {"uniqueid": "MTK0802:37XITHEISXGCAQ0RFRB3BSNTK4DRCV", "current_trial": 206, "dateTime": 1512761226723, "trialdata": {"rt": -1, "stimulus": "<p id=\"stim\">6</p>", "key_press": -1, "trial_type": "single-stim", "trial_index": 206, "time_elapsed": 3600096, "internal_node_id": "0.0-148.0-4.0"}}, {"uniqueid": "MTK0802:37XITHEISXGCAQ0RFRB3BSNTK4DRCV", "current_trial": 207, "dateTime": 1512761227725, "trialdata": {"rt": -1, "stimulus": "<p id=\"stim\">5</p>", "key_press": -1, "trial_type": "single-stim", "trial_index": 207, "time_elapsed": 3601098, "internal_node_id": "0.0-148.0-5.0"}}, {"uniqueid": "MTK0802:37XITHEISXGCAQ0RFRB3BSNTK4DRCV", "current_trial": 208, "dateTime": 1512761228727, "trialdata": {"rt": -1, "stimulus": "<p id=\"stim\">4</p>", "key_press": -1, "trial_type": "single-stim", "trial_index": 208, "time_elapsed": 3602100, "internal_node_id": "0.0-148.0-6.0"}}, {"uniqueid": "MTK0802:37XITHEISXGCAQ0RFRB3BSNTK4DRCV", "current_trial": 209, "dateTime": 1512761229729, "trialdata": {"rt": -1, "stimulus": "<p id=\"stim\">3</p>", "key_press": -1, "trial_type": "single-stim", "trial_index": 209, "time_elapsed": 3603102, "internal_node_id": "0.0-148.0-7.0"}}, {"uniqueid": "MTK0802:37XITHEISXGCAQ0RFRB3BSNTK4DRCV", "current_trial": 210, "dateTime": 1512761230732, "trialdata": {"rt": -1, "stimulus": "<p id=\"stim\">2</p>", "key_press": -1, "trial_type": "single-stim", "trial_index": 210, "time_elapsed": 3604105, "internal_node_id": "0.0-148.0-8.0"}}, {"uniqueid": "MTK0802:37XITHEISXGCAQ0RFRB3BSNTK4DRCV", "current_trial": 211, "dateTime": 1512761231733, "trialdata": {"rt": -1, "stimulus": "<p id=\"stim\">1</p>", "key_press": -1, "trial_type": "single-stim", "trial_index": 211, "time_elapsed": 3605106, "internal_node_id": "0.0-148.0-9.0"}}, {"uniqueid": "MTK0802:37XITHEISXGCAQ0RFRB3BSNTK4DRCV", "current_trial": 212, "dateTime": 1512761233236, "trialdata": {"rt": -1, "stimulus": "<p id=\"stim\">+</p>", "key_press": -1, "type": "FIXATION", "trial_type": "single-stim", "trial_index": 212, "time_elapsed": 3606609, "internal_node_id": "0.0-149.0-0.0"}}, {"uniqueid": "MTK0802:37XITHEISXGCAQ0RFRB3BSNTK4DRCV", "current_trial": 213, "dateTime": 1512761234039, "trialdata": {"rt": -1, "stimulus": "<p id=\"stim\">VICTIM</p>", "key_press": -1, "type": "PRES_VIS", "word": "victim", "wordID": 1561, "conditions": [12, 800, "v", 12000], "trial": 6, "serialpos": 0, "trial_type": "single-stim", "trial_index": 213, "time_elapsed": 3607412, "internal_node_id": "0.0-150.0"}}, {"uniqueid": "MTK0802:37XITHEISXGCAQ0RFRB3BSNTK4DRCV", "current_trial": 214, "dateTime": 1512761235723, "trialdata": {"rt": -1, "stimulus": "<p id=\"stim\">HONEY</p>", "key_press": -1, "type": "PRES_VIS", "word": "honey", "wordID": 712, "conditions": [12, 800, "v", 12000], "trial": 6, "serialpos": 1, "trial_type": "single-stim", "trial_index": 214, "time_elapsed": 3609096, "internal_node_id": "0.0-151.0"}}, {"uniqueid": "MTK0802:37XITHEISXGCAQ0RFRB3BSNTK4DRCV", "current_trial": 215, "dateTime": 1512761237455, "trialdata": {"rt": -1, "stimulus": "<p id=\"stim\">LIVER</p>", "key_press": -1, "type": "PRES_VIS", "word": "liver", "wordID": 832, "conditions": [12, 800, "v", 12000], "trial": 6, "serialpos": 2, "trial_type": "single-stim", "trial_index": 215, "time_elapsed": 3610828, "internal_node_id": "0.0-152.0"}}, {"uniqueid": "MTK0802:37XITHEISXGCAQ0RFRB3BSNTK4DRCV", "current_trial": 216, "dateTime": 1512761239089, "trialdata": {"rt": -1, "stimulus": "<p id=\"stim\">ARM</p>", "key_press": -1, "type": "PRES_VIS", "word": "arm", "wordID": 37, "conditions": [12, 800, "v", 12000], "trial": 6, "serialpos": 3, "trial_type": "single-stim", "trial_index": 216, "time_elapsed": 3612462, "internal_node_id": "0.0-153.0"}}, {"uniqueid": "MTK0802:37XITHEISXGCAQ0RFRB3BSNTK4DRCV", "current_trial": 217, "dateTime": 1512761240790, "trialdata": {"rt": -1, "stimulus": "<p id=\"stim\">SLUG</p>", "key_press": -1, "type": "PRES_VIS", "word": "slug", "wordID": 1328, "conditions": [12, 800, "v", 12000], "trial": 6, "serialpos": 4, "trial_type": "single-stim", "trial_index": 217, "time_elapsed": 3614163, "internal_node_id": "0.0-154.0"}}, {"uniqueid": "MTK0802:37XITHEISXGCAQ0RFRB3BSNTK4DRCV", "current_trial": 218, "dateTime": 1512761242413, "trialdata": {"rt": -1, "stimulus": "<p id=\"stim\">WITNESS</p>", "key_press": -1, "type": "PRES_VIS", "word": "witness", "wordID": 1617, "conditions": [12, 800, "v", 12000], "trial": 6, "serialpos": 5, "trial_type": "single-stim", "trial_index": 218, "time_elapsed": 3615786, "internal_node_id": "0.0-155.0"}}, {"uniqueid": "MTK0802:37XITHEISXGCAQ0RFRB3BSNTK4DRCV", "current_trial": 219, "dateTime": 1512761244209, "trialdata": {"rt": -1, "stimulus": "<p id=\"stim\">FIDDLE</p>", "key_press": -1, "type": "PRES_VIS", "word": "fiddle", "wordID": 560, "conditions": [12, 800, "v", 12000], "trial": 6, "serialpos": 6, "trial_type": "single-stim", "trial_index": 219, "time_elapsed": 3617582, "internal_node_id": "0.0-156.0"}}, {"uniqueid": "MTK0802:37XITHEISXGCAQ0RFRB3BSNTK4DRCV", "current_trial": 220, "dateTime": 1512761246118, "trialdata": {"rt": -1, "stimulus": "<p id=\"stim\">FLUTE</p>", "key_press": -1, "type": "PRES_VIS", "word": "flute", "wordID": 584, "conditions": [12, 800, "v", 12000], "trial": 6, "serialpos": 7, "trial_type": "single-stim", "trial_index": 220, "time_elapsed": 3619490, "internal_node_id": "0.0-157.0"}}, {"uniqueid": "MTK0802:37XITHEISXGCAQ0RFRB3BSNTK4DRCV", "current_trial": 221, "dateTime": 1512761248021, "trialdata": {"rt": -1, "stimulus": "<p id=\"stim\">LEG</p>", "key_press": -1, "type": "PRES_VIS", "word": "leg", "wordID": 808, "conditions": [12, 800, "v", 12000], "trial": 6, "serialpos": 8, "trial_type": "single-stim", "trial_index": 221, "time_elapsed": 3621393, "internal_node_id": "0.0-158.0"}}, {"uniqueid": "MTK0802:37XITHEISXGCAQ0RFRB3BSNTK4DRCV", "current_trial": 222, "dateTime": 1512761249672, "trialdata": {"rt": -1, "stimulus": "<p id=\"stim\">MUMMY</p>", "key_press": -1, "type": "PRES_VIS", "word": "mummy", "wordID": 931, "conditions": [12, 800, "v", 12000], "trial": 6, "serialpos": 9, "trial_type": "single-stim", "trial_index": 222, "time_elapsed": 3623044, "internal_node_id": "0.0-159.0"}}, {"uniqueid": "MTK0802:37XITHEISXGCAQ0RFRB3BSNTK4DRCV", "current_trial": 223, "dateTime": 1512761251602, "trialdata": {"rt": -1, "stimulus": "<p id=\"stim\">BANJO</p>", "key_press": -1, "type": "PRES_VIS", "word": "banjo", "wordID": 81, "conditions": [12, 800, "v", 12000], "trial": 6, "serialpos": 10, "trial_type": "single-stim", "trial_index": 223, "time_elapsed": 3624975, "internal_node_id": "0.0-160.0"}}, {"uniqueid": "MTK0802:37XITHEISXGCAQ0RFRB3BSNTK4DRCV", "current_trial": 224, "dateTime": 1512761253370, "trialdata": {"rt": -1, "stimulus": "<p id=\"stim\">SKIRT</p>", "key_press": -1, "type": "PRES_VIS", "word": "skirt", "wordID": 1318, "conditions": [12, 800, "v", 12000], "trial": 6, "serialpos": 11, "trial_type": "single-stim", "trial_index": 224, "time_elapsed": 3626743, "internal_node_id": "0.0-161.0"}}, {"uniqueid": "MTK0802:37XITHEISXGCAQ0RFRB3BSNTK4DRCV", "current_trial": 225, "dateTime": 1512761255806, "trialdata": {"rt": -1, "stimulus": "", "key_press": -1, "type": "PRE_RECALL_DELAY", "trial_type": "single-stim", "trial_index": 225, "time_elapsed": 3629179, "internal_node_id": "0.0-162.0-0.0"}}, {"uniqueid": "MTK0802:37XITHEISXGCAQ0RFRB3BSNTK4DRCV", "current_trial": 226, "dateTime": 1512761256308, "trialdata": {"rt": -1000, "stimulus": "/static/audio/400Hz.wav", "key_press": -1, "type": "PRE_RECALL_ALERT", "trial_type": "single-audio", "trial_index": 226, "time_elapsed": 3629681, "internal_node_id": "0.0-163.0"}}, {"uniqueid": "MTK0802:37XITHEISXGCAQ0RFRB3BSNTK4DRCV", "current_trial": 227, "dateTime": 1512761316320, "trialdata": {"rt": [2693, 4673, 6610, 8611, 10455, 12032, 13673, 14662, 15654], "recwords": ["fiddle", "flute", "banjo", "witness", "victim", "honey", "liver", "arm", "leg"], "type": "FREE_RECALL", "conditions": [12, 800, "v", 12000], "trial": 6, "trial_type": "free-recall", "trial_index": 227, "time_elapsed": 3689688, "internal_node_id": "0.0-164.0-0.0"}}, {"uniqueid": "MTK0802:37XITHEISXGCAQ0RFRB3BSNTK4DRCV", "current_trial": 228, "dateTime": 1512761344568, "trialdata": {"rt": 26245, "key_press": 32, "type": "INSTRUCTIONS", "trial_type": "text", "trial_index": 228, "time_elapsed": 3717941, "internal_node_id": "0.0-165.0"}}, {"uniqueid": "MTK0802:37XITHEISXGCAQ0RFRB3BSNTK4DRCV", "current_trial": 229, "dateTime": 1512761370580, "trialdata": {"rt": [4515, 8160, 10904, 14684, 17610, 20285, 23065], "responses": ["25", "18", "12", "15", "9", "14", "12"], "num1": [9, 7, 1, 8, 5, 1, 3, 5], "num2": [9, 2, 3, 1, 1, 7, 4, 7], "num3": [7, 9, 8, 6, 2, 6, 6, 3], "type": "DISTRACTOR", "conditions": [12, 1600, "v", 24000], "trial": 7, "trial_type": "math-distractor", "trial_index": 229, "time_elapsed": 3743953, "internal_node_id": "0.0-166.0"}}, {"uniqueid": "MTK0802:37XITHEISXGCAQ0RFRB3BSNTK4DRCV", "current_trial": 230, "dateTime": 1512761373586, "trialdata": {"rt": -1, "stimulus": "<p id=\"stim\">10</p>", "key_press": -1, "trial_type": "single-stim", "trial_index": 230, "time_elapsed": 3746959, "internal_node_id": "0.0-167.0-0.0"}}, {"uniqueid": "MTK0802:37XITHEISXGCAQ0RFRB3BSNTK4DRCV", "current_trial": 231, "dateTime": 1512761374588, "trialdata": {"rt": -1, "stimulus": "<p id=\"stim\">9</p>", "key_press": -1, "trial_type": "single-stim", "trial_index": 231, "time_elapsed": 3747960, "internal_node_id": "0.0-167.0-1.0"}}, {"uniqueid": "MTK0802:37XITHEISXGCAQ0RFRB3BSNTK4DRCV", "current_trial": 232, "dateTime": 1512761375590, "trialdata": {"rt": -1, "stimulus": "<p id=\"stim\">8</p>", "key_press": -1, "trial_type": "single-stim", "trial_index": 232, "time_elapsed": 3748963, "internal_node_id": "0.0-167.0-2.0"}}, {"uniqueid": "MTK0802:37XITHEISXGCAQ0RFRB3BSNTK4DRCV", "current_trial": 233, "dateTime": 1512761376593, "trialdata": {"rt": -1, "stimulus": "<p id=\"stim\">7</p>", "key_press": -1, "trial_type": "single-stim", "trial_index": 233, "time_elapsed": 3749965, "internal_node_id": "0.0-167.0-3.0"}}, {"uniqueid": "MTK0802:37XITHEISXGCAQ0RFRB3BSNTK4DRCV", "current_trial": 234, "dateTime": 1512761377596, "trialdata": {"rt": -1, "stimulus": "<p id=\"stim\">6</p>", "key_press": -1, "trial_type": "single-stim", "trial_index": 234, "time_elapsed": 3750969, "internal_node_id": "0.0-167.0-4.0"}}, {"uniqueid": "MTK0802:37XITHEISXGCAQ0RFRB3BSNTK4DRCV", "current_trial": 235, "dateTime": 1512761378598, "trialdata": {"rt": -1, "stimulus": "<p id=\"stim\">5</p>", "key_press": -1, "trial_type": "single-stim", "trial_index": 235, "time_elapsed": 3751971, "internal_node_id": "0.0-167.0-5.0"}}, {"uniqueid": "MTK0802:37XITHEISXGCAQ0RFRB3BSNTK4DRCV", "current_trial": 236, "dateTime": 1512761379601, "trialdata": {"rt": -1, "stimulus": "<p id=\"stim\">4</p>", "key_press": -1, "trial_type": "single-stim", "trial_index": 236, "time_elapsed": 3752974, "internal_node_id": "0.0-167.0-6.0"}}, {"uniqueid": "MTK0802:37XITHEISXGCAQ0RFRB3BSNTK4DRCV", "current_trial": 237, "dateTime": 1512761380602, "trialdata": {"rt": -1, "stimulus": "<p id=\"stim\">3</p>", "key_press": -1, "trial_type": "single-stim", "trial_index": 237, "time_elapsed": 3753975, "internal_node_id": "0.0-167.0-7.0"}}, {"uniqueid": "MTK0802:37XITHEISXGCAQ0RFRB3BSNTK4DRCV", "current_trial": 238, "dateTime": 1512761381605, "trialdata": {"rt": -1, "stimulus": "<p id=\"stim\">2</p>", "key_press": -1, "trial_type": "single-stim", "trial_index": 238, "time_elapsed": 3754978, "internal_node_id": "0.0-167.0-8.0"}}, {"uniqueid": "MTK0802:37XITHEISXGCAQ0RFRB3BSNTK4DRCV", "current_trial": 239, "dateTime": 1512761382607, "trialdata": {"rt": -1, "stimulus": "<p id=\"stim\">1</p>", "key_press": -1, "trial_type": "single-stim", "trial_index": 239, "time_elapsed": 3755980, "internal_node_id": "0.0-167.0-9.0"}}, {"uniqueid": "MTK0802:37XITHEISXGCAQ0RFRB3BSNTK4DRCV", "current_trial": 240, "dateTime": 1512761384110, "trialdata": {"rt": -1, "stimulus": "<p id=\"stim\">+</p>", "key_press": -1, "type": "FIXATION", "trial_type": "single-stim", "trial_index": 240, "time_elapsed": 3757483, "internal_node_id": "0.0-168.0-0.0"}}, {"uniqueid": "MTK0802:37XITHEISXGCAQ0RFRB3BSNTK4DRCV", "current_trial": 241, "dateTime": 1512761385713, "trialdata": {"rt": -1, "stimulus": "<p id=\"stim\">GANGSTER</p>", "key_press": -1, "type": "PRES_VIS", "word": "gangster", "wordID": 619, "conditions": [12, 1600, "v", 24000], "trial": 7, "serialpos": 0, "trial_type": "single-stim", "trial_index": 241, "time_elapsed": 3759086, "internal_node_id": "0.0-169.0"}}, {"uniqueid": "MTK0802:37XITHEISXGCAQ0RFRB3BSNTK4DRCV", "current_trial": 242, "dateTime": 1512761388248, "trialdata": {"rt": -1, "stimulus": "<p id=\"stim\">DAUGHTER</p>", "key_press": -1, "type": "PRES_VIS", "word": "daughter", "wordID": 441, "conditions": [12, 1600, "v", 24000], "trial": 7, "serialpos": 1, "trial_type": "single-stim", "trial_index": 242, "time_elapsed": 3761617, "internal_node_id": "0.0-170.0"}}, {"uniqueid": "MTK0802:37XITHEISXGCAQ0RFRB3BSNTK4DRCV", "current_trial": 243, "dateTime": 1512761390973, "trialdata": {"rt": -1, "stimulus": "<p id=\"stim\">PUPPY</p>", "key_press": -1, "type": "PRES_VIS", "word": "puppy", "wordID": 1143, "conditions": [12, 1600, "v", 24000], "trial": 7, "serialpos": 2, "trial_type": "single-stim", "trial_index": 243, "time_elapsed": 3764346, "internal_node_id": "0.0-171.0"}}, {"uniqueid": "MTK0802:37XITHEISXGCAQ0RFRB3BSNTK4DRCV", "current_trial": 244, "dateTime": 1512761393509, "trialdata": {"rt": -1, "stimulus": "<p id=\"stim\">RADISH</p>", "key_press": -1, "type": "PRES_VIS", "word": "radish", "wordID": 1157, "conditions": [12, 1600, "v", 24000], "trial": 7, "serialpos": 3, "trial_type": "single-stim", "trial_index": 244, "time_elapsed": 3766881, "internal_node_id": "0.0-172.0"}}, {"uniqueid": "MTK0802:37XITHEISXGCAQ0RFRB3BSNTK4DRCV", "current_trial": 245, "dateTime": 1512761396285, "trialdata": {"rt": -1, "stimulus": "<p id=\"stim\">KNIFE</p>", "key_press": -1, "type": "PRES_VIS", "word": "knife", "wordID": 784, "conditions": [12, 1600, "v", 24000], "trial": 7, "serialpos": 4, "trial_type": "single-stim", "trial_index": 245, "time_elapsed": 3769658, "internal_node_id": "0.0-173.0"}}, {"uniqueid": "MTK0802:37XITHEISXGCAQ0RFRB3BSNTK4DRCV", "current_trial": 246, "dateTime": 1512761398708, "trialdata": {"rt": -1, "stimulus": "<p id=\"stim\">FRIEND</p>", "key_press": -1, "type": "PRES_VIS", "word": "friend", "wordID": 605, "conditions": [12, 1600, "v", 24000], "trial": 7, "serialpos": 5, "trial_type": "single-stim", "trial_index": 246, "time_elapsed": 3772081, "internal_node_id": "0.0-174.0"}}, {"uniqueid": "MTK0802:37XITHEISXGCAQ0RFRB3BSNTK4DRCV", "current_trial": 247, "dateTime": 1512761401209, "trialdata": {"rt": -1, "stimulus": "<p id=\"stim\">GOBLIN</p>", "key_press": -1, "type": "PRES_VIS", "word": "goblin", "wordID": 644, "conditions": [12, 1600, "v", 24000], "trial": 7, "serialpos": 6, "trial_type": "single-stim", "trial_index": 247, "time_elapsed": 3774582, "internal_node_id": "0.0-175.0"}}, {"uniqueid": "MTK0802:37XITHEISXGCAQ0RFRB3BSNTK4DRCV", "current_trial": 248, "dateTime": 1512761403996, "trialdata": {"rt": -1, "stimulus": "<p id=\"stim\">STOVE</p>", "key_press": -1, "type": "PRES_VIS", "word": "stove", "wordID": 1387, "conditions": [12, 1600, "v", 24000], "trial": 7, "serialpos": 7, "trial_type": "single-stim", "trial_index": 248, "time_elapsed": 3777369, "internal_node_id": "0.0-176.0"}}, {"uniqueid": "MTK0802:37XITHEISXGCAQ0RFRB3BSNTK4DRCV", "current_trial": 249, "dateTime": 1512761406718, "trialdata": {"rt": -1, "stimulus": "<p id=\"stim\">COOK</p>", "key_press": -1, "type": "PRES_VIS", "word": "cook", "wordID": 371, "conditions": [12, 1600, "v", 24000], "trial": 7, "serialpos": 8, "trial_type": "single-stim", "trial_index": 249, "time_elapsed": 3780091, "internal_node_id": "0.0-177.0"}}, {"uniqueid": "MTK0802:37XITHEISXGCAQ0RFRB3BSNTK4DRCV", "current_trial": 250, "dateTime": 1512761409274, "trialdata": {"rt": -1, "stimulus": "<p id=\"stim\">MATCH</p>", "key_press": -1, "type": "PRES_VIS", "word": "match", "wordID": 877, "conditions": [12, 1600, "v", 24000], "trial": 7, "serialpos": 9, "trial_type": "single-stim", "trial_index": 250, "time_elapsed": 3782647, "internal_node_id": "0.0-178.0"}}, {"uniqueid": "MTK0802:37XITHEISXGCAQ0RFRB3BSNTK4DRCV", "current_trial": 251, "dateTime": 1512761411954, "trialdata": {"rt": -1, "stimulus": "<p id=\"stim\">SCARF</p>", "key_press": -1, "type": "PRES_VIS", "word": "scarf", "wordID": 1245, "conditions": [12, 1600, "v", 24000], "trial": 7, "serialpos": 10, "trial_type": "single-stim", "trial_index": 251, "time_elapsed": 3785327, "internal_node_id": "0.0-179.0"}}, {"uniqueid": "MTK0802:37XITHEISXGCAQ0RFRB3BSNTK4DRCV", "current_trial": 252, "dateTime": 1512761414581, "trialdata": {"rt": -1, "stimulus": "<p id=\"stim\">DRUG</p>", "key_press": -1, "type": "PRES_VIS", "word": "drug", "wordID": 500, "conditions": [12, 1600, "v", 24000], "trial": 7, "serialpos": 11, "trial_type": "single-stim", "trial_index": 252, "time_elapsed": 3787954, "internal_node_id": "0.0-180.0"}}, {"uniqueid": "MTK0802:37XITHEISXGCAQ0RFRB3BSNTK4DRCV", "current_trial": 253, "dateTime": 1512761417042, "trialdata": {"rt": -1, "stimulus": "", "key_press": -1, "type": "PRE_RECALL_DELAY", "trial_type": "single-stim", "trial_index": 253, "time_elapsed": 3790415, "internal_node_id": "0.0-181.0-0.0"}}, {"uniqueid": "MTK0802:37XITHEISXGCAQ0RFRB3BSNTK4DRCV", "current_trial": 254, "dateTime": 1512761417544, "trialdata": {"rt": -1000, "stimulus": "/static/audio/400Hz.wav", "key_press": -1, "type": "PRE_RECALL_ALERT", "trial_type": "single-audio", "trial_index": 254, "time_elapsed": 3790917, "internal_node_id": "0.0-182.0"}}, {"uniqueid": "MTK0802:37XITHEISXGCAQ0RFRB3BSNTK4DRCV", "current_trial": 255, "dateTime": 1512761477582, "trialdata": {"rt": [5474, 7813, 9905, 12360, 13937, 15531, 17419, 18523, 19670, 21809], "recwords": ["gangster", "daughter", "drug", "puppy", "radish", "knife", "friend", "stove", "cook", "goblin"], "type": "FREE_RECALL", "conditions": [12, 1600, "v", 24000], "trial": 7, "trial_type": "free-recall", "trial_index": 255, "time_elapsed": 3850946, "internal_node_id": "0.0-183.0-0.0"}}, {"uniqueid": "MTK0802:37XITHEISXGCAQ0RFRB3BSNTK4DRCV", "current_trial": 256, "dateTime": 1512762481828, "trialdata": {"rt": 1002244, "key_press": 32, "type": "INSTRUCTIONS", "trial_type": "text", "trial_index": 256, "time_elapsed": 4855201, "internal_node_id": "0.0-184.0"}}, {"uniqueid": "MTK0802:37XITHEISXGCAQ0RFRB3BSNTK4DRCV", "current_trial": 257, "dateTime": 1512762507841, "trialdata": {"rt": [4949, 8906, 11224, 16623, 18784, 20587], "responses": ["17", "16", "10", "18", "18", "19"], "num1": [6, 7, 2, 9, 8, 1, 1], "num2": [3, 4, 7, 3, 6, 9, 4], "num3": [7, 5, 1, 6, 4, 9, 9], "type": "DISTRACTOR", "conditions": [24, 1600, "a", 24000], "trial": 8, "trial_type": "math-distractor", "trial_index": 257, "time_elapsed": 4881214, "internal_node_id": "0.0-185.0"}}, {"uniqueid": "MTK0802:37XITHEISXGCAQ0RFRB3BSNTK4DRCV", "current_trial": 258, "dateTime": 1512762510846, "trialdata": {"rt": -1, "stimulus": "<p id=\"stim\">10</p>", "key_press": -1, "trial_type": "single-stim", "trial_index": 258, "time_elapsed": 4884219, "internal_node_id": "0.0-186.0-0.0"}}, {"uniqueid": "MTK0802:37XITHEISXGCAQ0RFRB3BSNTK4DRCV", "current_trial": 259, "dateTime": 1512762511849, "trialdata": {"rt": -1, "stimulus": "<p id=\"stim\">9</p>", "key_press": -1, "trial_type": "single-stim", "trial_index": 259, "time_elapsed": 4885222, "internal_node_id": "0.0-186.0-1.0"}}, {"uniqueid": "MTK0802:37XITHEISXGCAQ0RFRB3BSNTK4DRCV", "current_trial": 260, "dateTime": 1512762512852, "trialdata": {"rt": -1, "stimulus": "<p id=\"stim\">8</p>", "key_press": -1, "trial_type": "single-stim", "trial_index": 260, "time_elapsed": 4886225, "internal_node_id": "0.0-186.0-2.0"}}, {"uniqueid": "MTK0802:37XITHEISXGCAQ0RFRB3BSNTK4DRCV", "current_trial": 261, "dateTime": 1512762513855, "trialdata": {"rt": -1, "stimulus": "<p id=\"stim\">7</p>", "key_press": -1, "trial_type": "single-stim", "trial_index": 261, "time_elapsed": 4887228, "internal_node_id": "0.0-186.0-3.0"}}, {"uniqueid": "MTK0802:37XITHEISXGCAQ0RFRB3BSNTK4DRCV", "current_trial": 262, "dateTime": 1512762514858, "trialdata": {"rt": -1, "stimulus": "<p id=\"stim\">6</p>", "key_press": -1, "trial_type": "single-stim", "trial_index": 262, "time_elapsed": 4888231, "internal_node_id": "0.0-186.0-4.0"}}, {"uniqueid": "MTK0802:37XITHEISXGCAQ0RFRB3BSNTK4DRCV", "current_trial": 263, "dateTime": 1512762515860, "trialdata": {"rt": -1, "stimulus": "<p id=\"stim\">5</p>", "key_press": -1, "trial_type": "single-stim", "trial_index": 263, "time_elapsed": 4889233, "internal_node_id": "0.0-186.0-5.0"}}, {"uniqueid": "MTK0802:37XITHEISXGCAQ0RFRB3BSNTK4DRCV", "current_trial": 264, "dateTime": 1512762516863, "trialdata": {"rt": -1, "stimulus": "<p id=\"stim\">4</p>", "key_press": -1, "trial_type": "single-stim", "trial_index": 264, "time_elapsed": 4890236, "internal_node_id": "0.0-186.0-6.0"}}, {"uniqueid": "MTK0802:37XITHEISXGCAQ0RFRB3BSNTK4DRCV", "current_trial": 265, "dateTime": 1512762517864, "trialdata": {"rt": -1, "stimulus": "<p id=\"stim\">3</p>", "key_press": -1, "trial_type": "single-stim", "trial_index": 265, "time_elapsed": 4891237, "internal_node_id": "0.0-186.0-7.0"}}, {"uniqueid": "MTK0802:37XITHEISXGCAQ0RFRB3BSNTK4DRCV", "current_trial": 266, "dateTime": 1512762518867, "trialdata": {"rt": -1, "stimulus": "<p id=\"stim\">2</p>", "key_press": -1, "trial_type": "single-stim", "trial_index": 266, "time_elapsed": 4892240, "internal_node_id": "0.0-186.0-8.0"}}, {"uniqueid": "MTK0802:37XITHEISXGCAQ0RFRB3BSNTK4DRCV", "current_trial": 267, "dateTime": 1512762519870, "trialdata": {"rt": -1, "stimulus": "<p id=\"stim\">1</p>", "key_press": -1, "trial_type": "single-stim", "trial_index": 267, "time_elapsed": 4893242, "internal_node_id": "0.0-186.0-9.0"}}, {"uniqueid": "MTK0802:37XITHEISXGCAQ0RFRB3BSNTK4DRCV", "current_trial": 268, "dateTime": 1512762521372, "trialdata": {"rt": -1, "stimulus": "<p id=\"stim\">+</p>", "key_press": -1, "type": "FIXATION", "trial_type": "single-stim", "trial_index": 268, "time_elapsed": 4894745, "internal_node_id": "0.0-187.0-0.0"}}, {"uniqueid": "MTK0802:37XITHEISXGCAQ0RFRB3BSNTK4DRCV", "current_trial": 269, "dateTime": 1512762524038, "trialdata": {"rt": -1000, "stimulus": "/static/audio/wordpool/PARTNER.wav", "key_press": -1, "type": "PRES_AUD", "word": "partner", "wordID": 1016, "conditions": [24, 1600, "a", 24000], "trial": 8, "serialpos": 0, "trial_type": "single-audio", "trial_index": 269, "time_elapsed": 4897411, "internal_node_id": "0.0-188.0"}}, {"uniqueid": "MTK0802:37XITHEISXGCAQ0RFRB3BSNTK4DRCV", "current_trial": 270, "dateTime": 1512762526759, "trialdata": {"rt": -1000, "stimulus": "/static/audio/wordpool/TILE.wav", "key_press": -1, "type": "PRES_AUD", "word": "tile", "wordID": 1467, "conditions": [24, 1600, "a", 24000], "trial": 8, "serialpos": 1, "trial_type": "single-audio", "trial_index": 270, "time_elapsed": 4900132, "internal_node_id": "0.0-189.0"}}, {"uniqueid": "MTK0802:37XITHEISXGCAQ0RFRB3BSNTK4DRCV", "current_trial": 271, "dateTime": 1512762529487, "trialdata": {"rt": -1000, "stimulus": "/static/audio/wordpool/MARKET.wav", "key_press": -1, "type": "PRES_AUD", "word": "market", "wordID": 870, "conditions": [24, 1600, "a", 24000], "trial": 8, "serialpos": 2, "trial_type": "single-audio", "trial_index": 271, "time_elapsed": 4902859, "internal_node_id": "0.0-190.0"}}, {"uniqueid": "MTK0802:37XITHEISXGCAQ0RFRB3BSNTK4DRCV", "current_trial": 272, "dateTime": 1512762532083, "trialdata": {"rt": -1000, "stimulus": "/static/audio/wordpool/COUNTRY.wav", "key_press": -1, "type": "PRES_AUD", "word": "country", "wordID": 387, "conditions": [24, 1600, "a", 24000], "trial": 8, "serialpos": 3, "trial_type": "single-audio", "trial_index": 272, "time_elapsed": 4905455, "internal_node_id": "0.0-191.0"}}, {"uniqueid": "MTK0802:37XITHEISXGCAQ0RFRB3BSNTK4DRCV", "current_trial": 273, "dateTime": 1512762534879, "trialdata": {"rt": -1000, "stimulus": "/static/audio/wordpool/SAUSAGE.wav", "key_press": -1, "type": "PRES_AUD", "word": "sausage", "wordID": 1237, "conditions": [24, 1600, "a", 24000], "trial": 8, "serialpos": 4, "trial_type": "single-audio", "trial_index": 273, "time_elapsed": 4908252, "internal_node_id": "0.0-192.0"}}, {"uniqueid": "MTK0802:37XITHEISXGCAQ0RFRB3BSNTK4DRCV", "current_trial": 274, "dateTime": 1512762537374, "trialdata": {"rt": -1000, "stimulus": "/static/audio/wordpool/SPOUSE.wav", "key_press": -1, "type": "PRES_AUD", "word": "spouse", "wordID": 1357, "conditions": [24, 1600, "a", 24000], "trial": 8, "serialpos": 5, "trial_type": "single-audio", "trial_index": 274, "time_elapsed": 4910747, "internal_node_id": "0.0-193.0"}}, {"uniqueid": "MTK0802:37XITHEISXGCAQ0RFRB3BSNTK4DRCV", "current_trial": 275, "dateTime": 1512762540109, "trialdata": {"rt": -1000, "stimulus": "/static/audio/wordpool/SCULPTURE.wav", "key_press": -1, "type": "PRES_AUD", "word": "sculpture", "wordID": 1257, "conditions": [24, 1600, "a", 24000], "trial": 8, "serialpos": 6, "trial_type": "single-