{"condition": 0, "counterbalance": 242, "assignmentId": "3MX2NQ3YCA1B81DO9GUNM437QYTX5R", "workerId": "MTK0289", "hitId": "3W9XHF7WGK25MJRDLRSUA65ZX8ZTKW", "currenttrial": 626, "bonus": 0, "data": [{"uniqueid": "MTK0289:3MX2NQ3YCA1B81DO9GUNM437QYTX5R", "current_trial": 0, "dateTime": 1510699680263, "trialdata": {"rt": 4082, "key_press": 32, "type": "INSTRUCTIONS", "trial_type": "text", "trial_index": 0, "time_elapsed": 4089, "internal_node_id": "0.0-0.0"}}, {"uniqueid": "MTK0289:3MX2NQ3YCA1B81DO9GUNM437QYTX5R", "current_trial": 1, "dateTime": 1510699718216, "trialdata": {"rt": 37948, "key_press": 32, "type": "INSTRUCTIONS", "trial_type": "text", "trial_index": 1, "time_elapsed": 42046, "internal_node_id": "0.0-1.0"}}, {"uniqueid": "MTK0289:3MX2NQ3YCA1B81DO9GUNM437QYTX5R", "current_trial": 2, "dateTime": 1510699747260, "trialdata": {"rt": [29002], "responses": ["ocean"], "type": "AUDIO_TEST", "trial_type": "audio-test", "trial_index": 2, "time_elapsed": 71090, "internal_node_id": "0.0-2.0"}}, {"uniqueid": "MTK0289:3MX2NQ3YCA1B81DO9GUNM437QYTX5R", "current_trial": 3, "dateTime": 1510699773063, "trialdata": {"rt": [25777], "responses": ["crystal"], "type": "AUDIO_TEST", "trial_type": "audio-test", "trial_index": 3, "time_elapsed": 96893, "internal_node_id": "0.0-3.0"}}, {"uniqueid": "MTK0289:3MX2NQ3YCA1B81DO9GUNM437QYTX5R", "current_trial": 4, "dateTime": 1510699785487, "trialdata": {"rt": [12405], "responses": ["spice"], "type": "AUDIO_TEST", "trial_type": "audio-test", "trial_index": 4, "time_elapsed": 109316, "internal_node_id": "0.0-4.0"}}, {"uniqueid": "MTK0289:3MX2NQ3YCA1B81DO9GUNM437QYTX5R", "current_trial": 5, "dateTime": 1510699819860, "trialdata": {"rt": 33614, "responses": "{\"Q0\":\"12\",\"Q1\":\"5\",\"Q2\":\"3\"}", "type": "SLEEP_SURVEY", "trial_type": "survey-text", "trial_index": 5, "time_elapsed": 143690, "internal_node_id": "0.0-5.0"}}, {"uniqueid": "MTK0289:3MX2NQ3YCA1B81DO9GUNM437QYTX5R", "current_trial": 6, "dateTime": 1510699928154, "trialdata": {"rt": 107291, "key_press": 32, "type": "INSTRUCTIONS", "trial_type": "text", "trial_index": 6, "time_elapsed": 251984, "internal_node_id": "0.0-6.0"}}, {"uniqueid": "MTK0289:3MX2NQ3YCA1B81DO9GUNM437QYTX5R", "current_trial": 7, "dateTime": 1510699963309, "trialdata": {"rt": 34654, "key_press": 32, "type": "INSTRUCTIONS", "trial_type": "text", "trial_index": 7, "time_elapsed": 287139, "internal_node_id": "0.0-7.0"}}, {"uniqueid": "MTK0289:3MX2NQ3YCA1B81DO9GUNM437QYTX5R", "current_trial": 8, "dateTime": 1510699998735, "trialdata": {"rt": 34925, "key_press": 32, "type": "INSTRUCTIONS", "trial_type": "text", "trial_index": 8, "time_elapsed": 322565, "internal_node_id": "0.0-8.0"}}, {"uniqueid": "MTK0289:3MX2NQ3YCA1B81DO9GUNM437QYTX5R", "current_trial": 9, "dateTime": 1510700018794, "trialdata": {"rt": [3905, 7031, 10344, 13355, 16339], "responses": ["6", "13", "15", "15", "15"], "num1": [1, 8, 2, 6, 9, 9], "num2": [3, 2, 7, 4, 3, 4], "num3": [2, 3, 6, 5, 3, 5], "type": "DISTRACTOR", "conditions": [18, 1200, "v", 18000], "trial": 0, "trial_type": "math-distractor", "trial_index": 9, "time_elapsed": 342624, "internal_node_id": "0.0-9.0"}}, {"uniqueid": "MTK0289:3MX2NQ3YCA1B81DO9GUNM437QYTX5R", "current_trial": 10, "dateTime": 1510700021800, "trialdata": {"rt": -1, "stimulus": "<p id=\"stim\">10</p>", "key_press": -1, "trial_type": "single-stim", "trial_index": 10, "time_elapsed": 345630, "internal_node_id": "0.0-10.0-0.0"}}, {"uniqueid": "MTK0289:3MX2NQ3YCA1B81DO9GUNM437QYTX5R", "current_trial": 11, "dateTime": 1510700022803, "trialdata": {"rt": -1, "stimulus": "<p id=\"stim\">9</p>", "key_press": -1, "trial_type": "single-stim", "trial_index": 11, "time_elapsed": 346633, "internal_node_id": "0.0-10.0-1.0"}}, {"uniqueid": "MTK0289:3MX2NQ3YCA1B81DO9GUNM437QYTX5R", "current_trial": 12, "dateTime": 1510700023804, "trialdata": {"rt": -1, "stimulus": "<p id=\"stim\">8</p>", "key_press": -1, "trial_type": "single-stim", "trial_index": 12, "time_elapsed": 347634, "internal_node_id": "0.0-10.0-2.0"}}, {"uniqueid": "MTK0289:3MX2NQ3YCA1B81DO9GUNM437QYTX5R", "current_trial": 13, "dateTime": 1510700024807, "trialdata": {"rt": -1, "stimulus": "<p id=\"stim\">7</p>", "key_press": -1, "trial_type": "single-stim", "trial_index": 13, "time_elapsed": 348636, "internal_node_id": "0.0-10.0-3.0"}}, {"uniqueid": "MTK0289:3MX2NQ3YCA1B81DO9GUNM437QYTX5R", "current_trial": 14, "dateTime": 1510700025810, "trialdata": {"rt": -1, "stimulus": "<p id=\"stim\">6</p>", "key_press": -1, "trial_type": "single-stim", "trial_index": 14, "time_elapsed": 349639, "internal_node_id": "0.0-10.0-4.0"}}, {"uniqueid": "MTK0289:3MX2NQ3YCA1B81DO9GUNM437QYTX5R", "current_trial": 15, "dateTime": 1510700026818, "trialdata": {"rt": -1, "stimulus": "<p id=\"stim\">5</p>", "key_press": -1, "trial_type": "single-stim", "trial_index": 15, "time_elapsed": 350648, "internal_node_id": "0.0-10.0-5.0"}}, {"uniqueid": "MTK0289:3MX2NQ3YCA1B81DO9GUNM437QYTX5R", "current_trial": 16, "dateTime": 1510700027821, "trialdata": {"rt": -1, "stimulus": "<p id=\"stim\">4</p>", "key_press": -1, "trial_type": "single-stim", "trial_index": 16, "time_elapsed": 351650, "internal_node_id": "0.0-10.0-6.0"}}, {"uniqueid": "MTK0289:3MX2NQ3YCA1B81DO9GUNM437QYTX5R", "current_trial": 17, "dateTime": 1510700028829, "trialdata": {"rt": -1, "stimulus": "<p id=\"stim\">3</p>", "key_press": -1, "trial_type": "single-stim", "trial_index": 17, "time_elapsed": 352657, "internal_node_id": "0.0-10.0-7.0"}}, {"uniqueid": "MTK0289:3MX2NQ3YCA1B81DO9GUNM437QYTX5R", "current_trial": 18, "dateTime": 1510700029833, "trialdata": {"rt": -1, "stimulus": "<p id=\"stim\">2</p>", "key_press": -1, "trial_type": "single-stim", "trial_index": 18, "time_elapsed": 353663, "internal_node_id": "0.0-10.0-8.0"}}, {"uniqueid": "MTK0289:3MX2NQ3YCA1B81DO9GUNM437QYTX5R", "current_trial": 19, "dateTime": 1510700030838, "trialdata": {"rt": -1, "stimulus": "<p id=\"stim\">1</p>", "key_press": -1, "trial_type": "single-stim", "trial_index": 19, "time_elapsed": 354667, "internal_node_id": "0.0-10.0-9.0"}}, {"uniqueid": "MTK0289:3MX2NQ3YCA1B81DO9GUNM437QYTX5R", "current_trial": 20, "dateTime": 1510700032340, "trialdata": {"rt": -1, "stimulus": "<p id=\"stim\">+</p>", "key_press": -1, "type": "FIXATION", "trial_type": "single-stim", "trial_index": 20, "time_elapsed": 356170, "internal_node_id": "0.0-11.0-0.0"}}, {"uniqueid": "MTK0289:3MX2NQ3YCA1B81DO9GUNM437QYTX5R", "current_trial": 21, "dateTime": 1510700033543, "trialdata": {"rt": -1, "stimulus": "<p id=\"stim\">RABBIT</p>", "key_press": -1, "type": "PRES_VIS", "word": "rabbit", "wordID": 1151, "conditions": [18, 1200, "v", 18000], "trial": 0, "serialpos": 0, "trial_type": "single-stim", "trial_index": 21, "time_elapsed": 357372, "internal_node_id": "0.0-12.0"}}, {"uniqueid": "MTK0289:3MX2NQ3YCA1B81DO9GUNM437QYTX5R", "current_trial": 22, "dateTime": 1510700035846, "trialdata": {"rt": -1, "stimulus": "<p id=\"stim\">FLUTE</p>", "key_press": -1, "type": "PRES_VIS", "word": "flute", "wordID": 584, "conditions": [18, 1200, "v", 18000], "trial": 0, "serialpos": 1, "trial_type": "single-stim", "trial_index": 22, "time_elapsed": 359675, "internal_node_id": "0.0-13.0"}}, {"uniqueid": "MTK0289:3MX2NQ3YCA1B81DO9GUNM437QYTX5R", "current_trial": 23, "dateTime": 1510700038173, "trialdata": {"rt": -1, "stimulus": "<p id=\"stim\">LIZARD</p>", "key_press": -1, "type": "PRES_VIS", "word": "lizard", "wordID": 833, "conditions": [18, 1200, "v", 18000], "trial": 0, "serialpos": 2, "trial_type": "single-stim", "trial_index": 23, "time_elapsed": 362002, "internal_node_id": "0.0-14.0"}}, {"uniqueid": "MTK0289:3MX2NQ3YCA1B81DO9GUNM437QYTX5R", "current_trial": 24, "dateTime": 1510700040308, "trialdata": {"rt": -1, "stimulus": "<p id=\"stim\">BISON</p>", "key_press": -1, "type": "PRES_VIS", "word": "bison", "wordID": 130, "conditions": [18, 1200, "v", 18000], "trial": 0, "serialpos": 3, "trial_type": "single-stim", "trial_index": 24, "time_elapsed": 364138, "internal_node_id": "0.0-15.0"}}, {"uniqueid": "MTK0289:3MX2NQ3YCA1B81DO9GUNM437QYTX5R", "current_trial": 25, "dateTime": 1510700042390, "trialdata": {"rt": -1, "stimulus": "<p id=\"stim\">FRAME</p>", "key_press": -1, "type": "PRES_VIS", "word": "frame", "wordID": 599, "conditions": [18, 1200, "v", 18000], "trial": 0, "serialpos": 4, "trial_type": "single-stim", "trial_index": 25, "time_elapsed": 366220, "internal_node_id": "0.0-16.0"}}, {"uniqueid": "MTK0289:3MX2NQ3YCA1B81DO9GUNM437QYTX5R", "current_trial": 26, "dateTime": 1510700044646, "trialdata": {"rt": -1, "stimulus": "<p id=\"stim\">HEADBAND</p>", "key_press": -1, "type": "PRES_VIS", "word": "headband", "wordID": 695, "conditions": [18, 1200, "v", 18000], "trial": 0, "serialpos": 5, "trial_type": "single-stim", "trial_index": 26, "time_elapsed": 368476, "internal_node_id": "0.0-17.0"}}, {"uniqueid": "MTK0289:3MX2NQ3YCA1B81DO9GUNM437QYTX5R", "current_trial": 27, "dateTime": 1510700046656, "trialdata": {"rt": -1, "stimulus": "<p id=\"stim\">LAKE</p>", "key_press": -1, "type": "PRES_VIS", "word": "lake", "wordID": 795, "conditions": [18, 1200, "v", 18000], "trial": 0, "serialpos": 6, "trial_type": "single-stim", "trial_index": 27, "time_elapsed": 370486, "internal_node_id": "0.0-18.0"}}, {"uniqueid": "MTK0289:3MX2NQ3YCA1B81DO9GUNM437QYTX5R", "current_trial": 28, "dateTime": 1510700048836, "trialdata": {"rt": -1, "stimulus": "<p id=\"stim\">MAILMAN</p>", "key_press": -1, "type": "PRES_VIS", "word": "mailman", "wordID": 857, "conditions": [18, 1200, "v", 18000], "trial": 0, "serialpos": 7, "trial_type": "single-stim", "trial_index": 28, "time_elapsed": 372666, "internal_node_id": "0.0-19.0"}}, {"uniqueid": "MTK0289:3MX2NQ3YCA1B81DO9GUNM437QYTX5R", "current_trial": 29, "dateTime": 1510700051167, "trialdata": {"rt": -1, "stimulus": "<p id=\"stim\">WITNESS</p>", "key_press": -1, "type": "PRES_VIS", "word": "witness", "wordID": 1617, "conditions": [18, 1200, "v", 18000], "trial": 0, "serialpos": 8, "trial_type": "single-stim", "trial_index": 29, "time_elapsed": 374997, "internal_node_id": "0.0-20.0"}}, {"uniqueid": "MTK0289:3MX2NQ3YCA1B81DO9GUNM437QYTX5R", "current_trial": 30, "dateTime": 1510700053209, "trialdata": {"rt": -1, "stimulus": "<p id=\"stim\">BASEMENT</p>", "key_press": -1, "type": "PRES_VIS", "word": "basement", "wordID": 93, "conditions": [18, 1200, "v", 18000], "trial": 0, "serialpos": 9, "trial_type": "single-stim", "trial_index": 30, "time_elapsed": 377038, "internal_node_id": "0.0-21.0"}}, {"uniqueid": "MTK0289:3MX2NQ3YCA1B81DO9GUNM437QYTX5R", "current_trial": 31, "dateTime": 1510700055595, "trialdata": {"rt": -1, "stimulus": "<p id=\"stim\">CONVICT</p>", "key_press": -1, "type": "PRES_VIS", "word": "convict", "wordID": 370, "conditions": [18, 1200, "v", 18000], "trial": 0, "serialpos": 10, "trial_type": "single-stim", "trial_index": 31, "time_elapsed": 379424, "internal_node_id": "0.0-22.0"}}, {"uniqueid": "MTK0289:3MX2NQ3YCA1B81DO9GUNM437QYTX5R", "current_trial": 32, "dateTime": 1510700057610, "trialdata": {"rt": -1, "stimulus": "<p id=\"stim\">SHORTS</p>", "key_press": -1, "type": "PRES_VIS", "word": "shorts", "wordID": 1292, "conditions": [18, 1200, "v", 18000], "trial": 0, "serialpos": 11, "trial_type": "single-stim", "trial_index": 32, "time_elapsed": 381440, "internal_node_id": "0.0-23.0"}}, {"uniqueid": "MTK0289:3MX2NQ3YCA1B81DO9GUNM437QYTX5R", "current_trial": 33, "dateTime": 1510700059999, "trialdata": {"rt": -1, "stimulus": "<p id=\"stim\">MILK</p>", "key_press": -1, "type": "PRES_VIS", "word": "milk", "wordID": 894, "conditions": [18, 1200, "v", 18000], "trial": 0, "serialpos": 12, "trial_type": "single-stim", "trial_index": 33, "time_elapsed": 383828, "internal_node_id": "0.0-24.0"}}, {"uniqueid": "MTK0289:3MX2NQ3YCA1B81DO9GUNM437QYTX5R", "current_trial": 34, "dateTime": 1510700062023, "trialdata": {"rt": -1, "stimulus": "<p id=\"stim\">TILE</p>", "key_press": -1, "type": "PRES_VIS", "word": "tile", "wordID": 1467, "conditions": [18, 1200, "v", 18000], "trial": 0, "serialpos": 13, "trial_type": "single-stim", "trial_index": 34, "time_elapsed": 385853, "internal_node_id": "0.0-25.0"}}, {"uniqueid": "MTK0289:3MX2NQ3YCA1B81DO9GUNM437QYTX5R", "current_trial": 35, "dateTime": 1510700064297, "trialdata": {"rt": -1, "stimulus": "<p id=\"stim\">BREAST</p>", "key_press": -1, "type": "PRES_VIS", "word": "breast", "wordID": 170, "conditions": [18, 1200, "v", 18000], "trial": 0, "serialpos": 14, "trial_type": "single-stim", "trial_index": 35, "time_elapsed": 388127, "internal_node_id": "0.0-26.0"}}, {"uniqueid": "MTK0289:3MX2NQ3YCA1B81DO9GUNM437QYTX5R", "current_trial": 36, "dateTime": 1510700066477, "trialdata": {"rt": -1, "stimulus": "<p id=\"stim\">MISTER</p>", "key_press": -1, "type": "PRES_VIS", "word": "mister", "wordID": 900, "conditions": [18, 1200, "v", 18000], "trial": 0, "serialpos": 15, "trial_type": "single-stim", "trial_index": 36, "time_elapsed": 390307, "internal_node_id": "0.0-27.0"}}, {"uniqueid": "MTK0289:3MX2NQ3YCA1B81DO9GUNM437QYTX5R", "current_trial": 37, "dateTime": 1510700068600, "trialdata": {"rt": -1, "stimulus": "<p id=\"stim\">CELLAR</p>", "key_press": -1, "type": "PRES_VIS", "word": "cellar", "wordID": 266, "conditions": [18, 1200, "v", 18000], "trial": 0, "serialpos": 16, "trial_type": "single-stim", "trial_index": 37, "time_elapsed": 392430, "internal_node_id": "0.0-28.0"}}, {"uniqueid": "MTK0289:3MX2NQ3YCA1B81DO9GUNM437QYTX5R", "current_trial": 38, "dateTime": 1510700070992, "trialdata": {"rt": -1, "stimulus": "<p id=\"stim\">MASK</p>", "key_press": -1, "type": "PRES_VIS", "word": "mask", "wordID": 875, "conditions": [18, 1200, "v", 18000], "trial": 0, "serialpos": 17, "trial_type": "single-stim", "trial_index": 38, "time_elapsed": 394821, "internal_node_id": "0.0-29.0"}}, {"uniqueid": "MTK0289:3MX2NQ3YCA1B81DO9GUNM437QYTX5R", "current_trial": 39, "dateTime": 1510700073537, "trialdata": {"rt": -1, "stimulus": "", "key_press": -1, "type": "PRE_RECALL_DELAY", "trial_type": "single-stim", "trial_index": 39, "time_elapsed": 397366, "internal_node_id": "0.0-30.0-0.0"}}, {"uniqueid": "MTK0289:3MX2NQ3YCA1B81DO9GUNM437QYTX5R", "current_trial": 40, "dateTime": 1510700074042, "trialdata": {"rt": -1000, "stimulus": "/static/audio/400Hz.wav", "key_press": -1, "type": "PRE_RECALL_ALERT", "trial_type": "single-audio", "trial_index": 40, "time_elapsed": 397872, "internal_node_id": "0.0-31.0"}}, {"uniqueid": "MTK0289:3MX2NQ3YCA1B81DO9GUNM437QYTX5R", "current_trial": 41, "dateTime": 1510700134062, "trialdata": {"rt": [7241, 13317, 18921, 24855, 30289, 33738, 46032, 50525, 55630], "recwords": ["mask", "cellar", "mister", "breast", "tile", "milk", "short", "convict", "basement"], "type": "FREE_RECALL", "conditions": [18, 1200, "v", 18000], "trial": 0, "trial_type": "free-recall", "trial_index": 41, "time_elapsed": 457882, "internal_node_id": "0.0-32.0-0.0"}}, {"uniqueid": "MTK0289:3MX2NQ3YCA1B81DO9GUNM437QYTX5R", "current_trial": 42, "dateTime": 1510700140362, "trialdata": {"rt": 4296, "key_press": 32, "type": "INSTRUCTIONS", "trial_type": "text", "trial_index": 42, "time_elapsed": 464192, "internal_node_id": "0.0-33.0"}}, {"uniqueid": "MTK0289:3MX2NQ3YCA1B81DO9GUNM437QYTX5R", "current_trial": 43, "dateTime": 1510700160369, "trialdata": {"rt": [5868, 8425, 10657, 13386, 16765], "responses": ["9", "20", "20", "12", "18"], "num1": [2, 7, 6, 5, 8, 3], "num2": [1, 6, 6, 1, 8, 7], "num3": [6, 7, 8, 6, 2, 5], "type": "DISTRACTOR", "conditions": [18, 1200, "a", 18000], "trial": 1, "trial_type": "math-distractor", "trial_index": 43, "time_elapsed": 484199, "internal_node_id": "0.0-34.0"}}, {"uniqueid": "MTK0289:3MX2NQ3YCA1B81DO9GUNM437QYTX5R", "current_trial": 44, "dateTime": 1510700163371, "trialdata": {"rt": -1, "stimulus": "<p id=\"stim\">10</p>", "key_press": -1, "trial_type": "single-stim", "trial_index": 44, "time_elapsed": 487201, "internal_node_id": "0.0-35.0-0.0"}}, {"uniqueid": "MTK0289:3MX2NQ3YCA1B81DO9GUNM437QYTX5R", "current_trial": 45, "dateTime": 1510700164374, "trialdata": {"rt": -1, "stimulus": "<p id=\"stim\">9</p>", "key_press": -1, "trial_type": "single-stim", "trial_index": 45, "time_elapsed": 488203, "internal_node_id": "0.0-35.0-1.0"}}, {"uniqueid": "MTK0289:3MX2NQ3YCA1B81DO9GUNM437QYTX5R", "current_trial": 46, "dateTime": 1510700165376, "trialdata": {"rt": -1, "stimulus": "<p id=\"stim\">8</p>", "key_press": -1, "trial_type": "single-stim", "trial_index": 46, "time_elapsed": 489205, "internal_node_id": "0.0-35.0-2.0"}}, {"uniqueid": "MTK0289:3MX2NQ3YCA1B81DO9GUNM437QYTX5R", "current_trial": 47, "dateTime": 1510700166379, "trialdata": {"rt": -1, "stimulus": "<p id=\"stim\">7</p>", "key_press": -1, "trial_type": "single-stim", "trial_index": 47, "time_elapsed": 490208, "internal_node_id": "0.0-35.0-3.0"}}, {"uniqueid": "MTK0289:3MX2NQ3YCA1B81DO9GUNM437QYTX5R", "current_trial": 48, "dateTime": 1510700167380, "trialdata": {"rt": -1, "stimulus": "<p id=\"stim\">6</p>", "key_press": -1, "trial_type": "single-stim", "trial_index": 48, "time_elapsed": 491210, "internal_node_id": "0.0-35.0-4.0"}}, {"uniqueid": "MTK0289:3MX2NQ3YCA1B81DO9GUNM437QYTX5R", "current_trial": 49, "dateTime": 1510700168382, "trialdata": {"rt": -1, "stimulus": "<p id=\"stim\">5</p>", "key_press": -1, "trial_type": "single-stim", "trial_index": 49, "time_elapsed": 492212, "internal_node_id": "0.0-35.0-5.0"}}, {"uniqueid": "MTK0289:3MX2NQ3YCA1B81DO9GUNM437QYTX5R", "current_trial": 50, "dateTime": 1510700169384, "trialdata": {"rt": -1, "stimulus": "<p id=\"stim\">4</p>", "key_press": -1, "trial_type": "single-stim", "trial_index": 50, "time_elapsed": 493214, "internal_node_id": "0.0-35.0-6.0"}}, {"uniqueid": "MTK0289:3MX2NQ3YCA1B81DO9GUNM437QYTX5R", "current_trial": 51, "dateTime": 1510700170387, "trialdata": {"rt": -1, "stimulus": "<p id=\"stim\">3</p>", "key_press": -1, "trial_type": "single-stim", "trial_index": 51, "time_elapsed": 494216, "internal_node_id": "0.0-35.0-7.0"}}, {"uniqueid": "MTK0289:3MX2NQ3YCA1B81DO9GUNM437QYTX5R", "current_trial": 52, "dateTime": 1510700171388, "trialdata": {"rt": -1, "stimulus": "<p id=\"stim\">2</p>", "key_press": -1, "trial_type": "single-stim", "trial_index": 52, "time_elapsed": 495218, "internal_node_id": "0.0-35.0-8.0"}}, {"uniqueid": "MTK0289:3MX2NQ3YCA1B81DO9GUNM437QYTX5R", "current_trial": 53, "dateTime": 1510700172391, "trialdata": {"rt": -1, "stimulus": "<p id=\"stim\">1</p>", "key_press": -1, "trial_type": "single-stim", "trial_index": 53, "time_elapsed": 496220, "internal_node_id": "0.0-35.0-9.0"}}, {"uniqueid": "MTK0289:3MX2NQ3YCA1B81DO9GUNM437QYTX5R", "current_trial": 54, "dateTime": 1510700173893, "trialdata": {"rt": -1, "stimulus": "<p id=\"stim\">+</p>", "key_press": -1, "type": "FIXATION", "trial_type": "single-stim", "trial_index": 54, "time_elapsed": 497722, "internal_node_id": "0.0-36.0-0.0"}}, {"uniqueid": "MTK0289:3MX2NQ3YCA1B81DO9GUNM437QYTX5R", "current_trial": 55, "dateTime": 1510700176025, "trialdata": {"rt": -1000, "stimulus": "/static/audio/wordpool/GANGSTER.wav", "key_press": -1, "type": "PRES_AUD", "word": "gangster", "wordID": 619, "conditions": [18, 1200, "a", 18000], "trial": 1, "serialpos": 0, "trial_type": "single-audio", "trial_index": 55, "time_elapsed": 499855, "internal_node_id": "0.0-37.0"}}, {"uniqueid": "MTK0289:3MX2NQ3YCA1B81DO9GUNM437QYTX5R", "current_trial": 56, "dateTime": 1510700178081, "trialdata": {"rt": -1000, "stimulus": "/static/audio/wordpool/ICEBERG.wav", "key_press": -1, "type": "PRES_AUD", "word": "iceberg", "wordID": 730, "conditions": [18, 1200, "a", 18000], "trial": 1, "serialpos": 1, "trial_type": "single-audio", "trial_index": 56, "time_elapsed": 501910, "internal_node_id": "0.0-38.0"}}, {"uniqueid": "MTK0289:3MX2NQ3YCA1B81DO9GUNM437QYTX5R", "current_trial": 57, "dateTime": 1510700180272, "trialdata": {"rt": -1000, "stimulus": "/static/audio/wordpool/SOFTBALL.wav", "key_press": -1, "type": "PRES_AUD", "word": "softball", "wordID": 1342, "conditions": [18, 1200, "a", 18000], "trial": 1, "serialpos": 2, "trial_type": "single-audio", "trial_index": 57, "time_elapsed": 504101, "internal_node_id": "0.0-39.0"}}, {"uniqueid": "MTK0289:3MX2NQ3YCA1B81DO9GUNM437QYTX5R", "current_trial": 58, "dateTime": 1510700182388, "trialdata": {"rt": -1000, "stimulus": "/static/audio/wordpool/BLADE.wav", "key_press": -1, "type": "PRES_AUD", "word": "blade", "wordID": 133, "conditions": [18, 1200, "a", 18000], "trial": 1, "serialpos": 3, "trial_type": "single-audio", "trial_index": 58, "time_elapsed": 506218, "internal_node_id": "0.0-40.0"}}, {"uniqueid": "MTK0289:3MX2NQ3YCA1B81DO9GUNM437QYTX5R", "current_trial": 59, "dateTime": 1510700184606, "trialdata": {"rt": -1000, "stimulus": "/static/audio/wordpool/BROTHER.wav", "key_press": -1, "type": "PRES_AUD", "word": "brother", "wordID": 178, "conditions": [18, 1200, "a", 18000], "trial": 1, "serialpos": 4, "trial_type": "single-audio", "trial_index": 59, "time_elapsed": 508436, "internal_node_id": "0.0-41.0"}}, {"uniqueid": "MTK0289:3MX2NQ3YCA1B81DO9GUNM437QYTX5R", "current_trial": 60, "dateTime": 1510700186891, "trialdata": {"rt": -1000, "stimulus": "/static/audio/wordpool/SIBLING.wav", "key_press": -1, "type": "PRES_AUD", "word": "sibling", "wordID": 1300, "conditions": [18, 1200, "a", 18000], "trial": 1, "serialpos": 5, "trial_type": "single-audio", "trial_index": 60, "time_elapsed": 510720, "internal_node_id": "0.0-42.0"}}, {"uniqueid": "MTK0289:3MX2NQ3YCA1B81DO9GUNM437QYTX5R", "current_trial": 61, "dateTime": 1510700188981, "trialdata": {"rt": -1000, "stimulus": "/static/audio/wordpool/TRANSPLANT.wav", "key_press": -1, "type": "PRES_AUD", "word": "transplant", "wordID": 1495, "conditions": [18, 1200, "a", 18000], "trial": 1, "serialpos": 6, "trial_type": "single-audio", "trial_index": 61, "time_elapsed": 512810, "internal_node_id": "0.0-43.0"}}, {"uniqueid": "MTK0289:3MX2NQ3YCA1B81DO9GUNM437QYTX5R", "current_trial": 62, "dateTime": 1510700191156, "trialdata": {"rt": -1000, "stimulus": "/static/audio/wordpool/BUGGY.wav", "key_press": -1, "type": "PRES_AUD", "word": "buggy", "wordID": 187, "conditions": [18, 1200, "a", 18000], "trial": 1, "serialpos": 7, "trial_type": "single-audio", "trial_index": 62, "time_elapsed": 514986, "internal_node_id": "0.0-44.0"}}, {"uniqueid": "MTK0289:3MX2NQ3YCA1B81DO9GUNM437QYTX5R", "current_trial": 63, "dateTime": 1510700193265, "trialdata": {"rt": -1000, "stimulus": "/static/audio/wordpool/SALAD.wav", "key_press": -1, "type": "PRES_AUD", "word": "salad", "wordID": 1223, "conditions": [18, 1200, "a", 18000], "trial": 1, "serialpos": 8, "trial_type": "single-audio", "trial_index": 63, "time_elapsed": 517095, "internal_node_id": "0.0-45.0"}}, {"uniqueid": "MTK0289:3MX2NQ3YCA1B81DO9GUNM437QYTX5R", "current_trial": 64, "dateTime": 1510700195321, "trialdata": {"rt": -1000, "stimulus": "/static/audio/wordpool/POLICE.wav", "key_press": -1, "type": "PRES_AUD", "word": "police", "wordID": 1097, "conditions": [18, 1200, "a", 18000], "trial": 1, "serialpos": 9, "trial_type": "single-audio", "trial_index": 64, "time_elapsed": 519150, "internal_node_id": "0.0-46.0"}}, {"uniqueid": "MTK0289:3MX2NQ3YCA1B81DO9GUNM437QYTX5R", "current_trial": 65, "dateTime": 1510700197698, "trialdata": {"rt": -1000, "stimulus": "/static/audio/wordpool/SPHINX.wav", "key_press": -1, "type": "PRES_AUD", "word": "sphinx", "wordID": 1348, "conditions": [18, 1200, "a", 18000], "trial": 1, "serialpos": 10, "trial_type": "single-audio", "trial_index": 65, "time_elapsed": 521527, "internal_node_id": "0.0-47.0"}}, {"uniqueid": "MTK0289:3MX2NQ3YCA1B81DO9GUNM437QYTX5R", "current_trial": 66, "dateTime": 1510700200037, "trialdata": {"rt": -1000, "stimulus": "/static/audio/wordpool/CIGAR.wav", "key_press": -1, "type": "PRES_AUD", "word": "cigar", "wordID": 307, "conditions": [18, 1200, "a", 18000], "trial": 1, "serialpos": 11, "trial_type": "single-audio", "trial_index": 66, "time_elapsed": 523867, "internal_node_id": "0.0-48.0"}}, {"uniqueid": "MTK0289:3MX2NQ3YCA1B81DO9GUNM437QYTX5R", "current_trial": 67, "dateTime": 1510700202275, "trialdata": {"rt": -1000, "stimulus": "/static/audio/wordpool/BRANDY.wav", "key_press": -1, "type": "PRES_AUD", "word": "brandy", "wordID": 168, "conditions": [18, 1200, "a", 18000], "trial": 1, "serialpos": 12, "trial_type": "single-audio", "trial_index": 67, "time_elapsed": 526105, "internal_node_id": "0.0-49.0"}}, {"uniqueid": "MTK0289:3MX2NQ3YCA1B81DO9GUNM437QYTX5R", "current_trial": 68, "dateTime": 1510700204625, "trialdata": {"rt": -1000, "stimulus": "/static/audio/wordpool/APRON.wav", "key_press": -1, "type": "PRES_AUD", "word": "apron", "wordID": 34, "conditions": [18, 1200, "a", 18000], "trial": 1, "serialpos": 13, "trial_type": "single-audio", "trial_index": 68, "time_elapsed": 528414, "internal_node_id": "0.0-50.0"}}, {"uniqueid": "MTK0289:3MX2NQ3YCA1B81DO9GUNM437QYTX5R", "current_trial": 69, "dateTime": 1510700206971, "trialdata": {"rt": -1000, "stimulus": "/static/audio/wordpool/BARREL.wav", "key_press": -1, "type": "PRES_AUD", "word": "barrel", "wordID": 90, "conditions": [18, 1200, "a", 18000], "trial": 1, "serialpos": 14, "trial_type": "single-audio", "trial_index": 69, "time_elapsed": 530801, "internal_node_id": "0.0-51.0"}}, {"uniqueid": "MTK0289:3MX2NQ3YCA1B81DO9GUNM437QYTX5R", "current_trial": 70, "dateTime": 1510700209048, "trialdata": {"rt": -1000, "stimulus": "/static/audio/wordpool/GALLON.wav", "key_press": -1, "type": "PRES_AUD", "word": "gallon", "wordID": 617, "conditions": [18, 1200, "a", 18000], "trial": 1, "serialpos": 15, "trial_type": "single-audio", "trial_index": 70, "time_elapsed": 532878, "internal_node_id": "0.0-52.0"}}, {"uniqueid": "MTK0289:3MX2NQ3YCA1B81DO9GUNM437QYTX5R", "current_trial": 71, "dateTime": 1510700211176, "trialdata": {"rt": -1000, "stimulus": "/static/audio/wordpool/CASHIER.wav", "key_press": -1, "type": "PRES_AUD", "word": "cashier", "wordID": 253, "conditions": [18, 1200, "a", 18000], "trial": 1, "serialpos": 16, "trial_type": "single-audio", "trial_index": 71, "time_elapsed": 535006, "internal_node_id": "0.0-53.0"}}, {"uniqueid": "MTK0289:3MX2NQ3YCA1B81DO9GUNM437QYTX5R", "current_trial": 72, "dateTime": 1510700213525, "trialdata": {"rt": -1000, "stimulus": "/static/audio/wordpool/TOASTER.wav", "key_press": -1, "type": "PRES_AUD", "word": "toaster", "wordID": 1471, "conditions": [18, 1200, "a", 18000], "trial": 1, "serialpos": 17, "trial_type": "single-audio", "trial_index": 72, "time_elapsed": 537354, "internal_node_id": "0.0-54.0"}}, {"uniqueid": "MTK0289:3MX2NQ3YCA1B81DO9GUNM437QYTX5R", "current_trial": 73, "dateTime": 1510700214849, "trialdata": {"rt": -1, "stimulus": "", "key_press": -1, "type": "PRE_RECALL_DELAY", "trial_type": "single-stim", "trial_index": 73, "time_elapsed": 538679, "internal_node_id": "0.0-55.0-0.0"}}, {"uniqueid": "MTK0289:3MX2NQ3YCA1B81DO9GUNM437QYTX5R", "current_trial": 74, "dateTime": 1510700215351, "trialdata": {"rt": -1000, "stimulus": "/static/audio/400Hz.wav", "key_press": -1, "type": "PRE_RECALL_ALERT", "trial_type": "single-audio", "trial_index": 74, "time_elapsed": 539181, "internal_node_id": "0.0-56.0"}}, {"uniqueid": "MTK0289:3MX2NQ3YCA1B81DO9GUNM437QYTX5R", "current_trial": 75, "dateTime": 1510700275377, "trialdata": {"rt": [10481, 14145, 23309, 28161, 32290, 35487, 44148, 47992, 53745], "recwords": ["poster", "cashier", "gallon", "barrel", "apron", "red", "police", "dollar", "sibling"], "type": "FREE_RECALL", "conditions": [18, 1200, "a", 18000], "trial": 1, "trial_type": "free-recall", "trial_index": 75, "time_elapsed": 599198, "internal_node_id": "0.0-57.0-0.0"}}, {"uniqueid": "MTK0289:3MX2NQ3YCA1B81DO9GUNM437QYTX5R", "current_trial": 76, "dateTime": 1510700293950, "trialdata": {"rt": 16551, "key_press": 32, "type": "INSTRUCTIONS", "trial_type": "text", "trial_index": 76, "time_elapsed": 617759, "internal_node_id": "0.0-58.0"}}, {"uniqueid": "MTK0289:3MX2NQ3YCA1B81DO9GUNM437QYTX5R", "current_trial": 77, "dateTime": 1510700306958, "trialdata": {"rt": [2567, 4619, 6742, 9617], "responses": ["5", "12", "19", "9"], "num1": [1, 6, 9, 2, 8], "num2": [1, 4, 9, 3, 9], "num3": [3, 2, 1, 4, 1], "type": "DISTRACTOR", "conditions": [12, 800, "v", 12000], "trial": 2, "trial_type": "math-distractor", "trial_index": 77, "time_elapsed": 630788, "internal_node_id": "0.0-59.0"}}, {"uniqueid": "MTK0289:3MX2NQ3YCA1B81DO9GUNM437QYTX5R", "current_trial": 78, "dateTime": 1510700309959, "trialdata": {"rt": -1, "stimulus": "<p id=\"stim\">10</p>", "key_press": -1, "trial_type": "single-stim", "trial_index": 78, "time_elapsed": 633789, "internal_node_id": "0.0-60.0-0.0"}}, {"uniqueid": "MTK0289:3MX2NQ3YCA1B81DO9GUNM437QYTX5R", "current_trial": 79, "dateTime": 1510700310962, "trialdata": {"rt": -1, "stimulus": "<p id=\"stim\">9</p>", "key_press": -1, "trial_type": "single-stim", "trial_index": 79, "time_elapsed": 634792, "internal_node_id": "0.0-60.0-1.0"}}, {"uniqueid": "MTK0289:3MX2NQ3YCA1B81DO9GUNM437QYTX5R", "current_trial": 80, "dateTime": 1510700311964, "trialdata": {"rt": -1, "stimulus": "<p id=\"stim\">8</p>", "key_press": -1, "trial_type": "single-stim", "trial_index": 80, "time_elapsed": 635794, "internal_node_id": "0.0-60.0-2.0"}}, {"uniqueid": "MTK0289:3MX2NQ3YCA1B81DO9GUNM437QYTX5R", "current_trial": 81, "dateTime": 1510700312967, "trialdata": {"rt": -1, "stimulus": "<p id=\"stim\">7</p>", "key_press": -1, "trial_type": "single-stim", "trial_index": 81, "time_elapsed": 636796, "internal_node_id": "0.0-60.0-3.0"}}, {"uniqueid": "MTK0289:3MX2NQ3YCA1B81DO9GUNM437QYTX5R", "current_trial": 82, "dateTime": 1510700313968, "trialdata": {"rt": -1, "stimulus": "<p id=\"stim\">6</p>", "key_press": -1, "trial_type": "single-stim", "trial_index": 82, "time_elapsed": 637798, "internal_node_id": "0.0-60.0-4.0"}}, {"uniqueid": "MTK0289:3MX2NQ3YCA1B81DO9GUNM437QYTX5R", "current_trial": 83, "dateTime": 1510700314971, "trialdata": {"rt": -1, "stimulus": "<p id=\"stim\">5</p>", "key_press": -1, "trial_type": "single-stim", "trial_index": 83, "time_elapsed": 638800, "internal_node_id": "0.0-60.0-5.0"}}, {"uniqueid": "MTK0289:3MX2NQ3YCA1B81DO9GUNM437QYTX5R", "current_trial": 84, "dateTime": 1510700315972, "trialdata": {"rt": -1, "stimulus": "<p id=\"stim\">4</p>", "key_press": -1, "trial_type": "single-stim", "trial_index": 84, "time_elapsed": 639802, "internal_node_id": "0.0-60.0-6.0"}}, {"uniqueid": "MTK0289:3MX2NQ3YCA1B81DO9GUNM437QYTX5R", "current_trial": 85, "dateTime": 1510700316974, "trialdata": {"rt": -1, "stimulus": "<p id=\"stim\">3</p>", "key_press": -1, "trial_type": "single-stim", "trial_index": 85, "time_elapsed": 640804, "internal_node_id": "0.0-60.0-7.0"}}, {"uniqueid": "MTK0289:3MX2NQ3YCA1B81DO9GUNM437QYTX5R", "current_trial": 86, "dateTime": 1510700317978, "trialdata": {"rt": -1, "stimulus": "<p id=\"stim\">2</p>", "key_press": -1, "trial_type": "single-stim", "trial_index": 86, "time_elapsed": 641807, "internal_node_id": "0.0-60.0-8.0"}}, {"uniqueid": "MTK0289:3MX2NQ3YCA1B81DO9GUNM437QYTX5R", "current_trial": 87, "dateTime": 1510700318979, "trialdata": {"rt": -1, "stimulus": "<p id=\"stim\">1</p>", "key_press": -1, "trial_type": "single-stim", "trial_index": 87, "time_elapsed": 642809, "internal_node_id": "0.0-60.0-9.0"}}, {"uniqueid": "MTK0289:3MX2NQ3YCA1B81DO9GUNM437QYTX5R", "current_trial": 88, "dateTime": 1510700320481, "trialdata": {"rt": -1, "stimulus": "<p id=\"stim\">+</p>", "key_press": -1, "type": "FIXATION", "trial_type": "single-stim", "trial_index": 88, "time_elapsed": 644311, "internal_node_id": "0.0-61.0-0.0"}}, {"uniqueid": "MTK0289:3MX2NQ3YCA1B81DO9GUNM437QYTX5R", "current_trial": 89, "dateTime": 1510700321283, "trialdata": {"rt": -1, "stimulus": "<p id=\"stim\">GRAVEL</p>", "key_press": -1, "type": "PRES_VIS", "word": "gravel", "wordID": 658, "conditions": [12, 800, "v", 12000], "trial": 2, "serialpos": 0, "trial_type": "single-stim", "trial_index": 89, "time_elapsed": 645113, "internal_node_id": "0.0-62.0"}}, {"uniqueid": "MTK0289:3MX2NQ3YCA1B81DO9GUNM437QYTX5R", "current_trial": 90, "dateTime": 1510700322904, "trialdata": {"rt": -1, "stimulus": "<p id=\"stim\">EUROPE</p>", "key_press": -1, "type": "PRES_VIS", "word": "europe", "wordID": 540, "conditions": [12, 800, "v", 12000], "trial": 2, "serialpos": 1, "trial_type": "single-stim", "trial_index": 90, "time_elapsed": 646732, "internal_node_id": "0.0-63.0"}}, {"uniqueid": "MTK0289:3MX2NQ3YCA1B81DO9GUNM437QYTX5R", "current_trial": 91, "dateTime": 1510700324651, "trialdata": {"rt": -1, "stimulus": "<p id=\"stim\">FRANCE</p>", "key_press": -1, "type": "PRES_VIS", "word": "france", "wordID": 600, "conditions": [12, 800, "v", 12000], "trial": 2, "serialpos": 2, "trial_type": "single-stim", "trial_index": 91, "time_elapsed": 648481, "internal_node_id": "0.0-64.0"}}, {"uniqueid": "MTK0289:3MX2NQ3YCA1B81DO9GUNM437QYTX5R", "current_trial": 92, "dateTime": 1510700326564, "trialdata": {"rt": -1, "stimulus": "<p id=\"stim\">CABIN</p>", "key_press": -1, "type": "PRES_VIS", "word": "cabin", "wordID": 210, "conditions": [12, 800, "v", 12000], "trial": 2, "serialpos": 3, "trial_type": "single-stim", "trial_index": 92, "time_elapsed": 650393, "internal_node_id": "0.0-65.0"}}, {"uniqueid": "MTK0289:3MX2NQ3YCA1B81DO9GUNM437QYTX5R", "current_trial": 93, "dateTime": 1510700328265, "trialdata": {"rt": -1, "stimulus": "<p id=\"stim\">PLIERS</p>", "key_press": -1, "type": "PRES_VIS", "word": "pliers", "wordID": 1088, "conditions": [12, 800, "v", 12000], "trial": 2, "serialpos": 4, "trial_type": "single-stim", "trial_index": 93, "time_elapsed": 652095, "internal_node_id": "0.0-66.0"}}, {"uniqueid": "MTK0289:3MX2NQ3YCA1B81DO9GUNM437QYTX5R", "current_trial": 94, "dateTime": 1510700329958, "trialdata": {"rt": -1, "stimulus": "<p id=\"stim\">NEUTRON</p>", "key_press": -1, "type": "PRES_VIS", "word": "neutron", "wordID": 946, "conditions": [12, 800, "v", 12000], "trial": 2, "serialpos": 5, "trial_type": "single-stim", "trial_index": 94, "time_elapsed": 653787, "internal_node_id": "0.0-67.0"}}, {"uniqueid": "MTK0289:3MX2NQ3YCA1B81DO9GUNM437QYTX5R", "current_trial": 95, "dateTime": 1510700331667, "trialdata": {"rt": -1, "stimulus": "<p id=\"stim\">WAGON</p>", "key_press": -1, "type": "PRES_VIS", "word": "wagon", "wordID": 1577, "conditions": [12, 800, "v", 12000], "trial": 2, "serialpos": 6, "trial_type": "single-stim", "trial_index": 95, "time_elapsed": 655497, "internal_node_id": "0.0-68.0"}}, {"uniqueid": "MTK0289:3MX2NQ3YCA1B81DO9GUNM437QYTX5R", "current_trial": 96, "dateTime": 1510700333449, "trialdata": {"rt": -1, "stimulus": "<p id=\"stim\">GRAVE</p>", "key_press": -1, "type": "PRES_VIS", "word": "grave", "wordID": 657, "conditions": [12, 800, "v", 12000], "trial": 2, "serialpos": 7, "trial_type": "single-stim", "trial_index": 96, "time_elapsed": 657278, "internal_node_id": "0.0-69.0"}}, {"uniqueid": "MTK0289:3MX2NQ3YCA1B81DO9GUNM437QYTX5R", "current_trial": 97, "dateTime": 1510700335341, "trialdata": {"rt": -1, "stimulus": "<p id=\"stim\">DRESSER</p>", "key_press": -1, "type": "PRES_VIS", "word": "dresser", "wordID": 495, "conditions": [12, 800, "v", 12000], "trial": 2, "serialpos": 8, "trial_type": "single-stim", "trial_index": 97, "time_elapsed": 659171, "internal_node_id": "0.0-70.0"}}, {"uniqueid": "MTK0289:3MX2NQ3YCA1B81DO9GUNM437QYTX5R", "current_trial": 98, "dateTime": 1510700337106, "trialdata": {"rt": -1, "stimulus": "<p id=\"stim\">PUDDLE</p>", "key_press": -1, "type": "PRES_VIS", "word": "puddle", "wordID": 1139, "conditions": [12, 800, "v", 12000], "trial": 2, "serialpos": 9, "trial_type": "single-stim", "trial_index": 98, "time_elapsed": 660934, "internal_node_id": "0.0-71.0"}}, {"uniqueid": "MTK0289:3MX2NQ3YCA1B81DO9GUNM437QYTX5R", "current_trial": 99, "dateTime": 1510700339019, "trialdata": {"rt": -1, "stimulus": "<p id=\"stim\">ROBBER</p>", "key_press": -1, "type": "PRES_VIS", "word": "robber", "wordID": 1196, "conditions": [12, 800, "v", 12000], "trial": 2, "serialpos": 10, "trial_type": "single-stim", "trial_index": 99, "time_elapsed": 662849, "internal_node_id": "0.0-72.0"}}, {"uniqueid": "MTK0289:3MX2NQ3YCA1B81DO9GUNM437QYTX5R", "current_trial": 100, "dateTime": 1510700341015, "trialdata": {"rt": -1, "stimulus": "<p id=\"stim\">TWEEZERS</p>", "key_press": -1, "type": "PRES_VIS", "word": "tweezers", "wordID": 1525, "conditions": [12, 800, "v", 12000], "trial": 2, "serialpos": 11, "trial_type": "single-stim", "trial_index": 100, "time_elapsed": 664845, "internal_node_id": "0.0-73.0"}}, {"uniqueid": "MTK0289:3MX2NQ3YCA1B81DO9GUNM437QYTX5R", "current_trial": 101, "dateTime": 1510700343518, "trialdata": {"rt": -1, "stimulus": "", "key_press": -1, "type": "PRE_RECALL_DELAY", "trial_type": "single-stim", "trial_index": 101, "time_elapsed": 667348, "internal_node_id": "0.0-74.0-0.0"}}, {"uniqueid": "MTK0289:3MX2NQ3YCA1B81DO9GUNM437QYTX5R", "current_trial": 102, "dateTime": 1510700344021, "trialdata": {"rt": -1000, "stimulus": "/static/audio/400Hz.wav", "key_press": -1, "type": "PRE_RECALL_ALERT", "trial_type": "single-audio", "trial_index": 102, "time_elapsed": 667850, "internal_node_id": "0.0-75.0"}}, {"uniqueid": "MTK0289:3MX2NQ3YCA1B81DO9GUNM437QYTX5R", "current_trial": 103, "dateTime": 1510700404036, "trialdata": {"rt": [32585, 40170, 46495, 50483, 55448], "recwords": ["rober", "puddle", "dresser", "grave", "wagon"], "type": "FREE_RECALL", "conditions": [12, 800, "v", 12000], "trial": 2, "trial_type": "free-recall", "trial_index": 103, "time_elapsed": 727857, "internal_node_id": "0.0-76.0-0.0"}}, {"uniqueid": "MTK0289:3MX2NQ3YCA1B81DO9GUNM437QYTX5R", "current_trial": 104, "dateTime": 1510700410653, "trialdata": {"rt": 4614, "key_press": 32, "type": "INSTRUCTIONS", "trial_type": "text", "trial_index": 104, "time_elapsed": 734483, "internal_node_id": "0.0-77.0"}}, {"uniqueid": "MTK0289:3MX2NQ3YCA1B81DO9GUNM437QYTX5R", "current_trial": 105, "dateTime": 1510700436659, "trialdata": {"rt": [2917, 6045, 8131, 10716, 13521, 16325, 18915, 21823], "responses": ["21", "16", "13", "18", "17", "19", "19", "15"], "num1": [6, 5, 5, 7, 9, 3, 6, 6, 1], "num2": [7, 7, 3, 6, 6, 9, 9, 2, 2], "num3": [8, 4, 5, 5, 2, 7, 4, 7, 8], "type": "DISTRACTOR", "conditions": [24, 800, "a", 24000], "trial": 3, "trial_type": "math-distractor", "trial_index": 105, "time_elapsed": 760489, "internal_node_id": "0.0-78.0"}}, {"uniqueid": "MTK0289:3MX2NQ3YCA1B81DO9GUNM437QYTX5R", "current_trial": 106, "dateTime": 1510700439660, "trialdata": {"rt": -1, "stimulus": "<p id=\"stim\">10</p>", "key_press": -1, "trial_type": "single-stim", "trial_index": 106, "time_elapsed": 763490, "internal_node_id": "0.0-79.0-0.0"}}, {"uniqueid": "MTK0289:3MX2NQ3YCA1B81DO9GUNM437QYTX5R", "current_trial": 107, "dateTime": 1510700440741, "trialdata": {"rt": -1, "stimulus": "<p id=\"stim\">9</p>", "key_press": -1, "trial_type": "single-stim", "trial_index": 107, "time_elapsed": 764571, "internal_node_id": "0.0-79.0-1.0"}}, {"uniqueid": "MTK0289:3MX2NQ3YCA1B81DO9GUNM437QYTX5R", "current_trial": 108, "dateTime": 1510700441743, "trialdata": {"rt": -1, "stimulus": "<p id=\"stim\">8</p>", "key_press": -1, "trial_type": "single-stim", "trial_index": 108, "time_elapsed": 765573, "internal_node_id": "0.0-79.0-2.0"}}, {"uniqueid": "MTK0289:3MX2NQ3YCA1B81DO9GUNM437QYTX5R", "current_trial": 109, "dateTime": 1510700442745, "trialdata": {"rt": -1, "stimulus": "<p id=\"stim\">7</p>", "key_press": -1, "trial_type": "single-stim", "trial_index": 109, "time_elapsed": 766575, "internal_node_id": "0.0-79.0-3.0"}}, {"uniqueid": "MTK0289:3MX2NQ3YCA1B81DO9GUNM437QYTX5R", "current_trial": 110, "dateTime": 1510700443748, "trialdata": {"rt": -1, "stimulus": "<p id=\"stim\">6</p>", "key_press": -1, "trial_type": "single-stim", "trial_index": 110, "time_elapsed": 767577, "internal_node_id": "0.0-79.0-4.0"}}, {"uniqueid": "MTK0289:3MX2NQ3YCA1B81DO9GUNM437QYTX5R", "current_trial": 111, "dateTime": 1510700444749, "trialdata": {"rt": -1, "stimulus": "<p id=\"stim\">5</p>", "key_press": -1, "trial_type": "single-stim", "trial_index": 111, "time_elapsed": 768579, "internal_node_id": "0.0-79.0-5.0"}}, {"uniqueid": "MTK0289:3MX2NQ3YCA1B81DO9GUNM437QYTX5R", "current_trial": 112, "dateTime": 1510700445751, "trialdata": {"rt": -1, "stimulus": "<p id=\"stim\">4</p>", "key_press": -1, "trial_type": "single-stim", "trial_index": 112, "time_elapsed": 769581, "internal_node_id": "0.0-79.0-6.0"}}, {"uniqueid": "MTK0289:3MX2NQ3YCA1B81DO9GUNM437QYTX5R", "current_trial": 113, "dateTime": 1510700446797, "trialdata": {"rt": -1, "stimulus": "<p id=\"stim\">3</p>", "key_press": -1, "trial_type": "single-stim", "trial_index": 113, "time_elapsed": 770627, "internal_node_id": "0.0-79.0-7.0"}}, {"uniqueid": "MTK0289:3MX2NQ3YCA1B81DO9GUNM437QYTX5R", "current_trial": 114, "dateTime": 1510700447799, "trialdata": {"rt": -1, "stimulus": "<p id=\"stim\">2</p>", "key_press": -1, "trial_type": "single-stim", "trial_index": 114, "time_elapsed": 771629, "internal_node_id": "0.0-79.0-8.0"}}, {"uniqueid": "MTK0289:3MX2NQ3YCA1B81DO9GUNM437QYTX5R", "current_trial": 115, "dateTime": 1510700448801, "trialdata": {"rt": -1, "stimulus": "<p id=\"stim\">1</p>", "key_press": -1, "trial_type": "single-stim", "trial_index": 115, "time_elapsed": 772631, "internal_node_id": "0.0-79.0-9.0"}}, {"uniqueid": "MTK0289:3MX2NQ3YCA1B81DO9GUNM437QYTX5R", "current_trial": 116, "dateTime": 1510700450312, "trialdata": {"rt": -1, "stimulus": "<p id=\"stim\">+</p>", "key_press": -1, "type": "FIXATION", "trial_type": "single-stim", "trial_index": 116, "time_elapsed": 774142, "internal_node_id": "0.0-80.0-0.0"}}, {"uniqueid": "MTK0289:3MX2NQ3YCA1B81DO9GUNM437QYTX5R", "current_trial": 117, "dateTime": 1510700452151, "trialdata": {"rt": -1000, "stimulus": "/static/audio/wordpool/POSSUM.wav", "key_press": -1, "type": "PRES_AUD", "word": "possum", "wordID": 1111, "conditions": [24, 800, "a", 24000], "trial": 3, "serialpos": 0, "trial_type": "single-audio", "trial_index": 117, "time_elapsed": 775981, "internal_node_id": "0.0-81.0"}}, {"uniqueid": "MTK0289:3MX2NQ3YCA1B81DO9GUNM437QYTX5R", "current_trial": 118, "dateTime": 1510700454007, "trialdata": {"rt": -1000, "stimulus": "/static/audio/wordpool/DENIM.wav", "key_press": -1, "type": "PRES_AUD", "word": "denim", "wordID": 445, "conditions": [24, 800, "a", 24000], "trial": 3, "serialpos": 1, "trial_type": "single-audio", "trial_index": 118, "time_elapsed": 777836, "internal_node_id": "0.0-82.0"}}, {"uniqueid": "MTK0289:3MX2NQ3YCA1B81DO9GUNM437QYTX5R", "current_trial": 119, "dateTime": 1510700455759, "trialdata": {"rt": -1000, "stimulus": "/static/audio/wordpool/SANDWICH.wav", "key_press": -1, "type": "PRES_AUD", "word": "sandwich", "wordID": 1231, "conditions": [24, 800, "a", 24000], "trial": 3, "serialpos": 2, "trial_type": "single-audio", "trial_index": 119, "time_elapsed": 779589, "internal_node_id": "0.0-83.0"}}, {"uniqueid": "MTK0289:3MX2NQ3YCA1B81DO9GUNM437QYTX5R", "current_trial": 120, "dateTime": 1510700457405, "trialdata": {"rt": -1000, "stimulus": "/static/audio/wordpool/DORM.wav", "key_press": -1, "type": "PRES_AUD", "word": "dorm", "wordID": 487, "conditions": [24, 800, "a", 24000], "trial": 3, "serialpos": 3, "trial_type": "single-audio", "trial_index": 120, "time_elapsed": 781235, "internal_node_id": "0.0-84.0"}}, {"uniqueid": "MTK0289:3MX2NQ3YCA1B81DO9GUNM437QYTX5R", "current_trial": 121, "dateTime": 1510700459274, "trialdata": {"rt": -1000, "stimulus": "/static/audio/wordpool/CANYON.wav", "key_press": -1, "type": "PRES_AUD", "word": "canyon", "wordID": 234, "conditions": [24, 800, "a", 24000], "trial": 3, "serialpos": 4, "trial_type": "single-audio", "trial_index": 121, "time_elapsed": 783104, "internal_node_id": "0.0-85.0"}}, {"uniqueid": "MTK0289:3MX2NQ3YCA1B81DO9GUNM437QYTX5R", "current_trial": 122, "dateTime": 1510700461269, "trialdata": {"rt": -1000, "stimulus": "/static/audio/wordpool/VALLEY.wav", "key_press": -1, "type": "PRES_AUD", "word": "valley", "wordID": 1544, "conditions": [24, 800, "a", 24000], "trial": 3, "serialpos": 5, "trial_type": "single-audio", "trial_index": 122, "time_elapsed": 785098, "internal_node_id": "0.0-86.0"}}, {"uniqueid": "MTK0289:3MX2NQ3YCA1B81DO9GUNM437QYTX5R", "current_trial": 123, "dateTime": 1510700463084, "trialdata": {"rt": -1000, "stimulus": "/static/audio/wordpool/TWIG.wav", "key_press": -1, "type": "PRES_AUD", "word": "twig", "wordID": 1526, "conditions": [24, 800, "a", 24000], "trial": 3, "serialpos": 6, "trial_type": "single-audio", "trial_index": 123, "time_elapsed": 786913, "internal_node_id": "0.0-87.0"}}, {"uniqueid": "MTK0289:3MX2NQ3YCA1B81DO9GUNM437QYTX5R", "current_trial": 124, "dateTime": 1510700464892, "trialdata": {"rt": -1000, "stimulus": "/static/audio/wordpool/MATTRESS.wav", "key_press": -1, "type": "PRES_AUD", "word": "mattress", "wordID": 878, "conditions": [24, 800, "a", 24000], "trial": 3, "serialpos": 7, "trial_type": "single-audio", "trial_index": 124, "time_elapsed": 788721, "internal_node_id": "0.0-88.0"}}, {"uniqueid": "MTK0289:3MX2NQ3YCA1B81DO9GUNM437QYTX5R", "current_trial": 125, "dateTime": 1510700466799, "trialdata": {"rt": -1000, "stimulus": "/static/audio/wordpool/TORTOISE.wav", "key_press": -1, "type": "PRES_AUD", "word": "tortoise", "wordID": 1485, "conditions": [24, 800, "a", 24000], "trial": 3, "serialpos": 8, "trial_type": "single-audio", "trial_index": 125, "time_elapsed": 790628, "internal_node_id": "0.0-89.0"}}, {"uniqueid": "MTK0289:3MX2NQ3YCA1B81DO9GUNM437QYTX5R", "current_trial": 126, "dateTime": 1510700468405, "trialdata": {"rt": -1000, "stimulus": "/static/audio/wordpool/EMPIRE.wav", "key_press": -1, "type": "PRES_AUD", "word": "empire", "wordID": 529, "conditions": [24, 800, "a", 24000], "trial": 3, "serialpos": 9, "trial_type": "single-audio", "trial_index": 126, "time_elapsed": 792234, "internal_node_id": "0.0-90.0"}}, {"uniqueid": "MTK0289:3MX2NQ3YCA1B81DO9GUNM437QYTX5R", "current_trial": 127, "dateTime": 1510700470228, "trialdata": {"rt": -1000, "stimulus": "/static/audio/wordpool/YARN.wav", "key_press": -1, "type": "PRES_AUD", "word": "yarn", "wordID": 1630, "conditions": [24, 800, "a", 24000], "trial": 3, "serialpos": 10, "trial_type": "single-audio", "trial_index": 127, "time_elapsed": 794058, "internal_node_id": "0.0-91.0"}}, {"uniqueid": "MTK0289:3MX2NQ3YCA1B81DO9GUNM437QYTX5R", "current_trial": 128, "dateTime": 1510700471900, "trialdata": {"rt": -1000, "stimulus": "/static/audio/wordpool/PANTHER.wav", "key_press": -1, "type": "PRES_AUD", "word": "panther", "wordID": 1008, "conditions": [24, 800, "a", 24000], "trial": 3, "serialpos": 11, "trial_type": "single-audio", "trial_index": 128, "time_elapsed": 795730, "internal_node_id": "0.0-92.0"}}, {"uniqueid": "MTK0289:3MX2NQ3YCA1B81DO9GUNM437QYTX5R", "current_trial": 129, "dateTime": 1510700473540, "trialdata": {"rt": -1000, "stimulus": "/static/audio/wordpool/MACHINE.wav", "key_press": -1, "type": "PRES_AUD", "word": "machine", "wordID": 851, "conditions": [24, 800, "a", 24000], "trial": 3, "serialpos": 12, "trial_type": "single-audio", "trial_index": 129, "time_elapsed": 797370, "internal_node_id": "0.0-93.0"}}, {"uniqueid": "MTK0289:3MX2NQ3YCA1B81DO9GUNM437QYTX5R", "current_trial": 130, "dateTime": 1510700475385, "trialdata": {"rt": -1000, "stimulus": "/static/audio/wordpool/CRAB.wav", "key_press": -1, "type": "PRES_AUD", "word": "crab", "wordID": 396, "conditions": [24, 800, "a", 24000], "trial": 3, "serialpos": 13, "trial_type": "single-audio", "trial_index": 130, "time_elapsed": 799214, "internal_node_id": "0.0-94.0"}}, {"uniqueid": "MTK0289:3MX2NQ3YCA1B81DO9GUNM437QYTX5R", "current_trial": 131, "dateTime": 1510700477114, "trialdata": {"rt": -1000, "stimulus": "/static/audio/wordpool/POPCORN.wav", "key_press": -1, "type": "PRES_AUD", "word": "popcorn", "wordID": 1103, "conditions": [24, 800, "a", 24000], "trial": 3, "serialpos": 14, "trial_type": "single-audio", "trial_index": 131, "time_elapsed": 800943, "internal_node_id": "0.0-95.0"}}, {"uniqueid": "MTK0289:3MX2NQ3YCA1B81DO9GUNM437QYTX5R", "current_trial": 132, "dateTime": 1510700478960, "trialdata": {"rt": -1000, "stimulus": "/static/audio/wordpool/DRINK.wav", "key_press": -1, "type": "PRES_AUD", "word": "drink", "wordID": 497, "conditions": [24, 800, "a", 24000], "trial": 3, "serialpos": 15, "trial_type": "single-audio", "trial_index": 132, "time_elapsed": 802789, "internal_node_id": "0.0-96.0"}}, {"uniqueid": "MTK0289:3MX2NQ3YCA1B81DO9GUNM437QYTX5R", "current_trial": 133, "dateTime": 1510700480895, "trialdata": {"rt": -1000, "stimulus": "/static/audio/wordpool/SEAFOOD.wav", "key_press": -1, "type": "PRES_AUD", "word": "seafood", "wordID": 1259, "conditions": [24, 800, "a", 24000], "trial": 3, "serialpos": 16, "trial_type": "single-audio", "trial_index": 133, "time_elapsed": 804724, "internal_node_id": "0.0-97.0"}}, {"uniqueid": "MTK0289:3MX2NQ3YCA1B81DO9GUNM437QYTX5R", "current_trial": 134, "dateTime": 1510700482594, "trialdata": {"rt": -1000, "stimulus": "/static/audio/wordpool/BANJO.wav", "key_press": -1, "type": "PRES_AUD", "word": "banjo", "wordID": 81, "conditions": [24, 800, "a", 24000], "trial": 3, "serialpos": 17, "trial_type": "single-audio", "trial_index": 134, "time_elapsed": 806423, "internal_node_id": "0.0-98.0"}}, {"uniqueid": "MTK0289:3MX2NQ3YCA1B81DO9GUNM437QYTX5R", "current_trial": 135, "dateTime": 1510700484519, "trialdata": {"rt": -1000, "stimulus": "/static/audio/wordpool/PIANO.wav", "key_press": -1, "type": "PRES_AUD", "word": "piano", "wordID": 1056, "conditions": [24, 800, "a", 24000], "trial": 3, "serialpos": 18, "trial_type": "single-audio", "trial_index": 135, "time_elapsed": 808348, "internal_node_id": "0.0-99.0"}}, {"uniqueid": "MTK0289:3MX2NQ3YCA1B81DO9GUNM437QYTX5R", "current_trial": 136, "dateTime": 1510700486183, "trialdata": {"rt": -1000, "stimulus": "/static/audio/wordpool/COWBOY.wav", "key_press": -1, "type": "PRES_AUD", "word": "cowboy", "wordID": 394, "conditions": [24, 800, "a", 24000], "trial": 3, "serialpos": 19, "trial_type": "single-audio", "trial_index": 136, "time_elapsed": 810012, "internal_node_id": "0.0-100.0"}}, {"uniqueid": "MTK0289:3MX2NQ3YCA1B81DO9GUNM437QYTX5R", "current_trial": 137, "dateTime": 1510700487868, "trialdata": {"rt": -1000, "stimulus": "/static/audio/wordpool/SUNRISE.wav", "key_press": -1, "type": "PRES_AUD", "word": "sunrise", "wordID": 1406, "conditions": [24, 800, "a", 24000], "trial": 3, "serialpos": 20, "trial_type": "single-audio", "trial_index": 137, "time_elapsed": 811698, "internal_node_id": "0.0-101.0"}}, {"uniqueid": "MTK0289:3MX2NQ3YCA1B81DO9GUNM437QYTX5R", "current_trial": 138, "dateTime": 1510700489634, "trialdata": {"rt": -1000, "stimulus": "/static/audio/wordpool/OYSTER.wav", "key_press": -1, "type": "PRES_AUD", "word": "oyster", "wordID": 994, "conditions": [24, 800, "a", 24000], "trial": 3, "serialpos": 21, "trial_type": "single-audio", "trial_index": 138, "time_elapsed": 813463, "internal_node_id": "0.0-102.0"}}, {"uniqueid": "MTK0289:3MX2NQ3YCA1B81DO9GUNM437QYTX5R", "current_trial": 139, "dateTime": 1510700491436, "trialdata": {"rt": -1000, "stimulus": "/static/audio/wordpool/WHISTLE.wav", "key_press": -1, "type": "PRES_AUD", "word": "whistle", "wordID": 1605, "conditions": [24, 800, "a", 24000], "trial": 3, "serialpos": 22, "trial_type": "single-audio", "trial_index": 139, "time_elapsed": 815265, "internal_node_id": "0.0-103.0"}}, {"uniqueid": "MTK0289:3MX2NQ3YCA1B81DO9GUNM437QYTX5R", "current_trial": 140, "dateTime": 1510700493274, "trialdata": {"rt": -1000, "stimulus": "/static/audio/wordpool/SPONGE.wav", "key_press": -1, "type": "PRES_AUD", "word": "sponge", "wordID": 1354, "conditions": [24, 800, "a", 24000], "trial": 3, "serialpos": 23, "trial_type": "single-audio", "trial_index": 140, "time_elapsed": 817104, "internal_node_id": "0.0-104.0"}}, {"uniqueid": "MTK0289:3MX2NQ3YCA1B81DO9GUNM437QYTX5R", "current_trial": 141, "dateTime": 1510700494560, "trialdata": {"rt": -1, "stimulus": "", "key_press": -1, "type": "PRE_RECALL_DELAY", "trial_type": "single-stim", "trial_index": 141, "time_elapsed": 818390, "internal_node_id": "0.0-105.0-0.0"}}, {"uniqueid": "MTK0289:3MX2NQ3YCA1B81DO9GUNM437QYTX5R", "current_trial": 142, "dateTime": 1510700495062, "trialdata": {"rt": -1000, "stimulus": "/static/audio/400Hz.wav", "key_press": -1, "type": "PRE_RECALL_ALERT", "trial_type": "single-audio", "trial_index": 142, "time_elapsed": 818892, "internal_node_id": "0.0-106.0"}}, {"uniqueid": "MTK0289:3MX2NQ3YCA1B81DO9GUNM437QYTX5R", "current_trial": 143, "dateTime": 1510700555079, "trialdata": {"rt": [5998, 13331, 16920, 24685, 28599, 37547, 42255, 45924, 49871, 53826, 57669], "recwords": ["sponge", "whistle", "oyster", "sunrise", "cowboy", "piano", "seafood", "drink", "popcorn", "machine", "cayon"], "type": "FREE_RECALL", "conditions": [24, 800, "a", 24000], "trial": 3, "trial_type": "free-recall", "trial_index": 143, "time_elapsed": 878898, "internal_node_id": "0.0-107.0-0.0"}}, {"uniqueid": "MTK0289:3MX2NQ3YCA1B81DO9GUNM437QYTX5R", "current_trial": 144, "dateTime": 1510700559605, "trialdata": {"rt": 2522, "key_press": 32, "type": "INSTRUCTIONS", "trial_type": "text", "trial_index": 144, "time_elapsed": 883434, "internal_node_id": "0.0-108.0"}}, {"uniqueid": "MTK0289:3MX2NQ3YCA1B81DO9GUNM437QYTX5R", "current_trial": 145, "dateTime": 1510700573611, "trialdata": {"rt": [1877, 3854, 5759, 8311, 11258], "responses": ["9", "11", "15", "14", "17"], "num1": [2, 8, 4, 3, 9, 9], "num2": [2, 2, 4, 4, 2, 8], "num3": [5, 1, 7, 7, 6, 6], "type": "DISTRACTOR", "conditions": [24, 800, "a", 12000], "trial": 4, "trial_type": "math-distractor", "trial_index": 145, "time_elapsed": 897441, "internal_node_id": "0.0-109.0"}}, {"uniqueid": "MTK0289:3MX2NQ3YCA1B81DO9GUNM437QYTX5R", "current_trial": 146, "dateTime": 1510700576612, "trialdata": {"rt": -1, "stimulus": "<p id=\"stim\">10</p>", "key_press": -1, "trial_type": "single-stim", "trial_index": 146, "time_elapsed": 900442, "internal_node_id": "0.0-110.0-0.0"}}, {"uniqueid": "MTK0289:3MX2NQ3YCA1B81DO9GUNM437QYTX5R", "current_trial": 147, "dateTime": 1510700577615, "trialdata": {"rt": -1, "stimulus": "<p id=\"stim\">9</p>", "key_press": -1, "trial_type": "single-stim", "trial_index": 147, "time_elapsed": 901444, "internal_node_id": "0.0-110.0-1.0"}}, {"uniqueid": "MTK0289:3MX2NQ3YCA1B81DO9GUNM437QYTX5R", "current_trial": 148, "dateTime": 1510700578616, "trialdata": {"rt": -1, "stimulus": "<p id=\"stim\">8</p>", "key_press": -1, "trial_type": "single-stim", "trial_index": 148, "time_elapsed": 902446, "internal_node_id": "0.0-110.0-2.0"}}, {"uniqueid": "MTK0289:3MX2NQ3YCA1B81DO9GUNM437QYTX5R", "current_trial": 149, "dateTime": 1510700579619, "trialdata": {"rt": -1, "stimulus": "<p id=\"stim\">7</p>", "key_press": -1, "trial_type": "single-stim", "trial_index": 149, "time_elapsed": 903448, "internal_node_id": "0.0-110.0-3.0"}}, {"uniqueid": "MTK0289:3MX2NQ3YCA1B81DO9GUNM437QYTX5R", "current_trial": 150, "dateTime": 1510700580620, "trialdata": {"rt": -1, "stimulus": "<p id=\"stim\">6</p>", "key_press": -1, "trial_type": "single-stim", "trial_index": 150, "time_elapsed": 904450, "internal_node_id": "0.0-110.0-4.0"}}, {"uniqueid": "MTK0289:3MX2NQ3YCA1B81DO9GUNM437QYTX5R", "current_trial": 151, "dateTime": 1510700581627, "trialdata": {"rt": -1, "stimulus": "<p id=\"stim\">5</p>", "key_press": -1, "trial_type": "single-stim", "trial_index": 151, "time_elapsed": 905453, "internal_node_id": "0.0-110.0-5.0"}}, {"uniqueid": "MTK0289:3MX2NQ3YCA1B81DO9GUNM437QYTX5R", "current_trial": 152, "dateTime": 1510700582643, "trialdata": {"rt": -1, "stimulus": "<p id=\"stim\">4</p>", "key_press": -1, "trial_type": "single-stim", "trial_index": 152, "time_elapsed": 906472, "internal_node_id": "0.0-110.0-6.0"}}, {"uniqueid": "MTK0289:3MX2NQ3YCA1B81DO9GUNM437QYTX5R", "current_trial": 153, "dateTime": 1510700583644, "trialdata": {"rt": -1, "stimulus": "<p id=\"stim\">3</p>", "key_press": -1, "trial_type": "single-stim", "trial_index": 153, "time_elapsed": 907474, "internal_node_id": "0.0-110.0-7.0"}}, {"uniqueid": "MTK0289:3MX2NQ3YCA1B81DO9GUNM437QYTX5R", "current_trial": 154, "dateTime": 1510700584646, "trialdata": {"rt": -1, "stimulus": "<p id=\"stim\">2</p>", "key_press": -1, "trial_type": "single-stim", "trial_index": 154, "time_elapsed": 908476, "internal_node_id": "0.0-110.0-8.0"}}, {"uniqueid": "MTK0289:3MX2NQ3YCA1B81DO9GUNM437QYTX5R", "current_trial": 155, "dateTime": 1510700585648, "trialdata": {"rt": -1, "stimulus": "<p id=\"stim\">1</p>", "key_press": -1, "trial_type": "single-stim", "trial_index": 155, "time_elapsed": 909478, "internal_node_id": "0.0-110.0-9.0"}}, {"uniqueid": "MTK0289:3MX2NQ3YCA1B81DO9GUNM437QYTX5R", "current_trial": 156, "dateTime": 1510700587151, "trialdata": {"rt": -1, "stimulus": "<p id=\"stim\">+</p>", "key_press": -1, "type": "FIXATION", "trial_type": "single-stim", "trial_index": 156, "time_elapsed": 910981, "internal_node_id": "0.0-111.0-0.0"}}, {"uniqueid": "MTK0289:3MX2NQ3YCA1B81DO9GUNM437QYTX5R", "current_trial": 157, "dateTime": 1510700589148, "trialdata": {"rt": -1000, "stimulus": "/static/audio/wordpool/SWIMMER.wav", "key_press": -1, "type": "PRES_AUD", "word": "swimmer", "wordID": 1419, "conditions": [24, 800, "a", 12000], "trial": 4, "serialpos": 0, "trial_type": "single-audio", "trial_index": 157, "time_elapsed": 912978, "internal_node_id": "0.0-112.0"}}, {"uniqueid": "MTK0289:3MX2NQ3YCA1B81DO9GUNM437QYTX5R", "current_trial": 158, "dateTime": 1510700590862, "trialdata": {"rt": -1000, "stimulus": "/static/audio/wordpool/SHERIFF.wav", "key_press": -1, "type": "PRES_AUD", "word": "sheriff", "wordID": 1283, "conditions": [24, 800, "a", 12000], "trial": 4, "serialpos": 1, "trial_type": "single-audio", "trial_index": 158, "time_elapsed": 914692, "internal_node_id": "0.0-113.0"}}, {"uniqueid": "MTK0289:3MX2NQ3YCA1B81DO9GUNM437QYTX5R", "current_trial": 159, "dateTime": 1510700592571, "trialdata": {"rt": -1000, "stimulus": "/static/audio/wordpool/MARROW.wav", "key_press": -1, "type": "PRES_AUD", "word": "marrow", "wordID": 871, "conditions": [24, 800, "a", 12000], "trial": 4, "serialpos": 2, "trial_type": "single-audio", "trial_index": 159, "time_elapsed": 916400, "internal_node_id": "0.0-114.0"}}, {"uniqueid": "MTK0289:3MX2NQ3YCA1B81DO9GUNM437QYTX5R", "current_trial": 160, "dateTime": 1510700594301, "trialdata": {"rt": -1000, "stimulus": "/static/audio/wordpool/GYMNAST.wav", "key_press": -1, "type": "PRES_AUD", "word": "gymnast", "wordID": 674, "conditions": [24, 800, "a", 12000], "trial": 4, "serialpos": 3, "trial_type": "single-audio", "trial_index": 160, "time_elapsed": 918130, "internal_node_id": "0.0-115.0"}}, {"uniqueid": "MTK0289:3MX2NQ3YCA1B81DO9GUNM437QYTX5R", "current_trial": 161, "dateTime": 1510700596058, "trialdata": {"rt": -1000, "stimulus": "/static/audio/wordpool/CRIB.wav", "key_press": -1, "type": "PRES_AUD", "word": "crib", "wordID": 406, "conditions": [24, 800, "a", 12000], "trial": 4, "serialpos": 4, "trial_type": "single-audio", "trial_index": 161, "time_elapsed": 919888, "internal_node_id": "0.0-116.0"}}, {"uniqueid": "MTK0289:3MX2NQ3YCA1B81DO9GUNM437QYTX5R", "current_trial": 162, "dateTime": 1510700597719, "trialdata": {"rt": -1000, "stimulus": "/static/audio/wordpool/POWDER.wav", "key_press": -1, "type": "PRES_AUD", "word": "powder", "wordID": 1116, "conditions": [24, 800, "a", 12000], "trial": 4, "serialpos": 5, "trial_type": "single-audio", "trial_index": 162, "time_elapsed": 921548, "internal_node_id": "0.0-117.0"}}, {"uniqueid": "MTK0289:3MX2NQ3YCA1B81DO9GUNM437QYTX5R", "current_trial": 163, "dateTime": 1510700599581, "trialdata": {"rt": -1000, "stimulus": "/static/audio/wordpool/SHOULDER.wav", "key_press": -1, "type": "PRES_AUD", "word": "shoulder", "wordID": 1293, "conditions": [24, 800, "a", 12000], "trial": 4, "serialpos": 6, "trial_type": "single-audio", "trial_index": 163, "time_elapsed": 923411, "internal_node_id": "0.0-118.0"}}, {"uniqueid": "MTK0289:3MX2NQ3YCA1B81DO9GUNM437QYTX5R", "current_trial": 164, "dateTime": 1510700601462, "trialdata": {"rt": -1000, "stimulus": "/static/audio/wordpool/BUTCHER.wav", "key_press": -1, "type": "PRES_AUD", "word": "butcher", "wordID": 202, "conditions": [24, 800, "a", 12000], "trial": 4, "serialpos": 7, "trial_type": "single-audio", "trial_index": 164, "time_elapsed": 925291, "internal_node_id": "0.0-119.0"}}, {"uniqueid": "MTK0289:3MX2NQ3YCA1B81DO9GUNM437QYTX5R", "current_trial": 165, "dateTime": 1510700603088, "trialdata": {"rt": -1000, "stimulus": "/static/audio/wordpool/LIVER.wav", "key_press": -1, "type": "PRES_AUD", "word": "liver", "wordID": 832, "conditions": [24, 800, "a", 12000], "trial": 4, "serialpos": 8, "trial_type": "single-audio", "trial_index": 165, "time_elapsed": 926917, "internal_node_id": "0.0-120.0"}}, {"uniqueid": "MTK0289:3MX2NQ3YCA1B81DO9GUNM437QYTX5R", "current_trial": 166, "dateTime": 1510700604870, "trialdata": {"rt": -1000, "stimulus": "/static/audio/wordpool/KIDNEY.wav", "key_press": -1, "type": "PRES_AUD", "word": "kidney", "wordID": 775, "conditions": [24, 800, "a", 12000], "trial": 4, "serialpos": 9, "trial_type": "single-audio", "trial_index": 166, "time_elapsed": 928700, "internal_node_id": "0.0-121.0"}}, {"uniqueid": "MTK0289:3MX2NQ3YCA1B81DO9GUNM437QYTX5R", "current_trial": 167, "dateTime": 1510700606854, "trialdata": {"rt": -1000, "stimulus": "/static/audio/wordpool/OUTFIT.wav", "key_press": -1, "type": "PRES_AUD", "word": "outfit", "wordID": 987, "conditions": [24, 800, "a", 12000], "trial": 4, "serialpos": 10, "trial_type": "single-audio", "trial_index": 167, "time_elapsed": 930684, "internal_node_id": "0.0-122.0"}}, {"uniqueid": "MTK0289:3MX2NQ3YCA1B81DO9GUNM437QYTX5R", "current_trial": 168, "dateTime": 1510700608608, "trialdata": {"rt": -1000, "stimulus": "/static/audio/wordpool/PLAID.wav", "key_press": -1, "type": "PRES_AUD", "word": "plaid", "wordID": 1079, "conditions": [24, 800, "a", 12000], "trial": 4, "serialpos": 11, "trial_type": "single-audio", "trial_index": 168, "time_elapsed": 932437, "internal_node_id": "0.0-123.0"}}, {"uniqueid": "MTK0289:3MX2NQ3YCA1B81DO9GUNM437QYTX5R", "current_trial": 169, "dateTime": 1510700610532, "trialdata": {"rt": -1000, "stimulus": "/static/audio/wordpool/VICTIM.wav", "key_press": -1, "type": "PRES_AUD", "word": "victim", "wordID": 1561, "conditions": [24, 800, "a", 12000], "trial": 4, "serialpos": 12, "trial_type": "single-audio", "trial_index": 169, "time_elapsed": 934361, "internal_node_id": "0.0-124.0"}}, {"uniqueid": "MTK0289:3MX2NQ3YCA1B81DO9GUNM437QYTX5R", "current_trial": 170, "dateTime": 1510700612297, "trialdata": {"rt": -1000, "stimulus": "/static/audio/wordpool/SUSPECT.wav", "key_press": -1, "type": "PRES_AUD", "word": "suspect", "wordID": 1414, "conditions": [24, 800, "a", 12000], "trial": 4, "serialpos": 13, "trial_type": "single-audio", "trial_index": 170, "time_elapsed": 936127, "internal_node_id": "0.0-125.0"}}, {"uniqueid": "MTK0289:3MX2NQ3YCA1B81DO9GUNM437QYTX5R", "current_trial": 171, "dateTime": 1510700614025, "trialdata": {"rt": -1000, "stimulus": "/static/audio/wordpool/PERCH.wav", "key_press": -1, "type": "PRES_AUD", "word": "perch", "wordID": 1047, "conditions": [24, 800, "a", 12000], "trial": 4, "serialpos": 14, "trial_type": "single-audio", "trial_index": 171, "time_elapsed": 937855, "internal_node_id": "0.0-126.0"}}, {"uniqueid": "MTK0289:3MX2NQ3YCA1B81DO9GUNM437QYTX5R", "current_trial": 172, "dateTime": 1510700615904, "trialdata": {"rt": -1000, "stimulus": "/static/audio/wordpool/PENGUIN.wav", "key_press": -1, "type": "PRES_AUD", "word": "penguin", "wordID": 1043, "conditions": [24, 800, "a", 12000], "trial": 4, "serialpos": 15, "trial_type": "single-audio", "trial_index": 172, "time_elapsed": 939734, "internal_node_id": "0.0-127.0"}}, {"uniqueid": "MTK0289:3MX2NQ3YCA1B81DO9GUNM437QYTX5R", "current_trial": 173, "dateTime": 1510700617544, "trialdata": {"rt": -1000, "stimulus": "/static/audio/wordpool/WAITRESS.wav", "key_press": -1, "type": "PRES_AUD", "word": "waitress", "wordID": 1580, "conditions": [24, 800, "a", 12000], "trial": 4, "serialpos": 16, "trial_type": "single-audio", "trial_index": 173, "time_elapsed": 941374, "internal_node_id": "0.0-128.0"}}, {"uniqueid": "MTK0289:3MX2NQ3YCA1B81DO9GUNM437QYTX5R", "current_trial": 174, "dateTime": 1510700619146, "trialdata": {"rt": -1000, "stimulus": "/static/audio/wordpool/FLEET.wav", "key_press": -1, "type": "PRES_AUD", "word": "fleet", "wordID": 577, "conditions": [24, 800, "a", 12000], "trial": 4, "serialpos": 17, "trial_type": "single-audio", "trial_index": 174, "time_elapsed": 942975, "internal_node_id": "0.0-129.0"}}, {"uniqueid": "MTK0289:3MX2NQ3YCA1B81DO9GUNM437QYTX5R", "current_trial": 175, "dateTime": 1510700621049, "trialdata": {"rt": -1000, "stimulus": "/static/audio/wordpool/SKETCH.wav", "key_press": -1, "type": "PRES_AUD", "word": "sketch", "wordID": 1314, "conditions": [24, 800, "a", 12000], "trial": 4, "serialpos": 18, "trial_type": "single-audio", "trial_index": 175, "time_elapsed": 944878, "internal_node_id": "0.0-130.0"}}, {"uniqueid": "MTK0289:3MX2NQ3YCA1B81DO9GUNM437QYTX5R", "current_trial": 176, "dateTime": 1510700622964, "trialdata": {"rt": -1000, "stimulus": "/static/audio/wordpool/BUNNY.wav", "key_press": -1, "type": "PRES_AUD", "word": "bunny", "wordID": 197, "conditions": [24, 800, "a", 12000], "trial": 4, "serialpos": 19, "trial_type": "single-audio", "trial_index": 176, "time_elapsed": 946794, "internal_node_id": "0.0-131.0"}}, {"uniqueid": "MTK0289:3MX2NQ3YCA1B81DO9GUNM437QYTX5R", "current_trial": 177, "dateTime": 1510700624930, "trialdata": {"rt": -1000, "stimulus": "/static/audio/wordpool/ACTOR.wav", "key_press": -1, "type": "PRES_AUD", "word": "actor", "wordID": 4, "conditions": [24, 800, "a", 12000], "trial": 4, "serialpos": 20, "trial_type": "single-audio", "trial_index": 177, "time_elapsed": 948759, "internal_node_id": "0.0-132.0"}}, {"uniqueid": "MTK0289:3MX2NQ3YCA1B81DO9GUNM437QYTX5R", "current_trial": 178, "dateTime": 1510700626697, "trialdata": {"rt": -1000, "stimulus": "/static/audio/wordpool/WIDOW.wav", "key_press": -1, "type": "PRES_AUD", "word": "widow", "wordID": 1607, "conditions": [24, 800, "a", 12000], "trial": 4, "serialpos": 21, "trial_type": "single-audio", "trial_index": 178, "time_elapsed": 950527, "internal_node_id": "0.0-133.0"}}, {"uniqueid": "MTK0289:3MX2NQ3YCA1B81DO9GUNM437QYTX5R", "current_trial": 179, "dateTime": 1510700628652, "trialdata": {"rt": -1000, "stimulus": "/static/audio/wordpool/TOMBSTONE.wav", "key_press": -1, "type": "PRES_AUD", "word": "tombstone", "wordID": 1477, "conditions": [24, 800, "a", 12000], "trial": 4, "serialpos": 22, "trial_type": "single-audio", "trial_index": 179, "time_elapsed": 952481, "internal_node_id": "0.0-134.0"}}, {"uniqueid": "MTK0289:3MX2NQ3YCA1B81DO9GUNM437QYTX5R", "current_trial": 180, "dateTime": 1510700630375, "trialdata": {"rt": -1000, "stimulus": "/static/audio/wordpool/SUBWAY.wav", "key_press": -1, "type": "PRES_AUD", "word": "subway", "wordID": 1399, "conditions": [24, 800, "a", 12000], "trial": 4, "serialpos": 23, "trial_type": "single-audio", "trial_index": 180, "time_elapsed": 954204, "internal_node_id": "0.0-135.0"}}, {"uniqueid": "MTK0289:3MX2NQ3YCA1B81DO9GUNM437QYTX5R", "current_trial": 181, "dateTime": 1510700631608, "trialdata": {"rt": -1, "stimulus": "", "key_press": -1, "type": "PRE_RECALL_DELAY", "trial_type": "single-stim", "trial_index": 181, "time_elapsed": 955438, "internal_node_id": "0.0-136.0-0.0"}}, {"uniqueid": "MTK0289:3MX2NQ3YCA1B81DO9GUNM437QYTX5R", "current_trial": 182, "dateTime": 1510700632111, "trialdata": {"rt": -1000, "stimulus": "/static/audio/400Hz.wav", "key_press": -1, "type": "PRE_RECALL_ALERT", "trial_type": "single-audio", "trial_index": 182, "time_elapsed": 955940, "internal_node_id": "0.0-137.0"}}, {"uniqueid": "MTK0289:3MX2NQ3YCA1B81DO9GUNM437QYTX5R", "current_trial": 183, "dateTime": 1510700692132, "trialdata": {"rt": [5749, 15168, 24084, 27674, 48130], "recwords": ["subway", "tustone", "widow", "actor", "sketch"], "type": "FREE_RECALL", "conditions": [24, 800, "a", 12000], "trial": 4, "trial_type": "free-recall", "trial_index": 183, "time_elapsed": 1015949, "internal_node_id": "0.0-138.0-0.0"}}, {"uniqueid": "MTK0289:3MX2NQ3YCA1B81DO9GUNM437QYTX5R", "current_trial": 184, "dateTime": 1510700695418, "trialdata": {"rt": 1282, "key_press": 32, "type": "INSTRUCTIONS", "trial_type": "text", "trial_index": 184, "time_elapsed": 1019248, "internal_node_id": "0.0-139.0"}}, {"uniqueid": "MTK0289:3MX2NQ3YCA1B81DO9GUNM437QYTX5R", "current_trial": 185, "dateTime": 1510700721424, "trialdata": {"rt": [1676, 3315, 5797, 8386, 11267, 14106, 15974, 18203, 19930, 21654, 23774], "responses": ["11", "7", "17", "10", "20", "13", "18", "15", "7", "14", "15"], "num1": [1, 4, 5, 2, 6, 6, 5, 6, 2, 4, 7, 7], "num2": [2, 2, 8, 4, 9, 2, 8, 4, 2, 9, 4, 1], "num3": [8, 1, 4, 4, 5, 5, 5, 5, 3, 1, 4, 1], "type": "DISTRACTOR", "conditions": [12, 800, "a", 24000], "trial": 5, "trial_type": "math-distractor", "trial_index": 185, "time_elapsed": 1045254, "internal_node_id": "0.0-140.0"}}, {"uniqueid": "MTK0289:3MX2NQ3YCA1B81DO9GUNM437QYTX5R", "current_trial": 186, "dateTime": 1510700724427, "trialdata": {"rt": -1, "stimulus": "<p id=\"stim\">10</p>", "key_press": -1, "trial_type": "single-stim", "trial_index": 186, "time_elapsed": 1048256, "internal_node_id": "0.0-141.0-0.0"}}, {"uniqueid": "MTK0289:3MX2NQ3YCA1B81DO9GUNM437QYTX5R", "current_trial": 187, "dateTime": 1510700725428, "trialdata": {"rt": -1, "stimulus": "<p id=\"stim\">9</p>", "key_press": -1, "trial_type": "single-stim", "trial_index": 187, "time_elapsed": 1049258, "internal_node_id": "0.0-141.0-1.0"}}, {"uniqueid": "MTK0289:3MX2NQ3YCA1B81DO9GUNM437QYTX5R", "current_trial": 188, "dateTime": 1510700726439, "trialdata": {"rt": -1, "stimulus": "<p id=\"stim\">8</p>", "key_press": -1, "trial_type": "single-stim", "trial_index": 188, "time_elapsed": 1050268, "internal_node_id": "0.0-141.0-2.0"}}, {"uniqueid": "MTK0289:3MX2NQ3YCA1B81DO9GUNM437QYTX5R", "current_trial": 189, "dateTime": 1510700727440, "trialdata": {"rt": -1, "stimulus": "<p id=\"stim\">7</p>", "key_press": -1, "trial_type": "single-stim", "trial_index": 189, "time_elapsed": 1051270, "internal_node_id": "0.0-141.0-3.0"}}, {"uniqueid": "MTK0289:3MX2NQ3YCA1B81DO9GUNM437QYTX5R", "current_trial": 190, "dateTime": 1510700728442, "trialdata": {"rt": -1, "stimulus": "<p id=\"stim\">6</p>", "key_press": -1, "trial_type": "single-stim", "trial_index": 190, "time_elapsed": 1052272, "internal_node_id": "0.0-141.0-4.0"}}, {"uniqueid": "MTK0289:3MX2NQ3YCA1B81DO9GUNM437QYTX5R", "current_trial": 191, "dateTime": 1510700729444, "trialdata": {"rt": -1, "stimulus": "<p id=\"stim\">5</p>", "key_press": -1, "trial_type": "single-stim", "trial_index": 191, "time_elapsed": 1053274, "internal_node_id": "0.0-141.0-5.0"}}, {"uniqueid": "MTK0289:3MX2NQ3YCA1B81DO9GUNM437QYTX5R", "current_trial": 192, "dateTime": 1510700730447, "trialdata": {"rt": -1, "stimulus": "<p id=\"stim\">4</p>", "key_press": -1, "trial_type": "single-stim", "trial_index": 192, "time_elapsed": 1054277, "internal_node_id": "0.0-141.0-6.0"}}, {"uniqueid": "MTK0289:3MX2NQ3YCA1B81DO9GUNM437QYTX5R", "current_trial": 193, "dateTime": 1510700731450, "trialdata": {"rt": -1, "stimulus": "<p id=\"stim\">3</p>", "key_press": -1, "trial_type": "single-stim", "trial_index": 193, "time_elapsed": 1055279, "internal_node_id": "0.0-141.0-7.0"}}, {"uniqueid": "MTK0289:3MX2NQ3YCA1B81DO9GUNM437QYTX5R", "current_trial": 194, "dateTime": 1510700732451, "trialdata": {"rt": -1, "stimulus": "<p id=\"stim\">2</p>", "key_press": -1, "trial_type": "single-stim", "trial_index": 194, "time_elapsed": 1056281, "internal_node_id": "0.0-141.0-8.0"}}, {"uniqueid": "MTK0289:3MX2NQ3YCA1B81DO9GUNM437QYTX5R", "current_trial": 195, "dateTime": 1510700733453, "trialdata": {"rt": -1, "stimulus": "<p id=\"stim\">1</p>", "key_press": -1, "trial_type": "single-stim", "trial_index": 195, "time_elapsed": 1057283, "internal_node_id": "0.0-141.0-9.0"}}, {"uniqueid": "MTK0289:3MX2NQ3YCA1B81DO9GUNM437QYTX5R", "current_trial": 196, "dateTime": 1510700734955, "trialdata": {"rt": -1, "stimulus": "<p id=\"stim\">+</p>", "key_press": -1, "type": "FIXATION", "trial_type": "single-stim", "trial_index": 196, "time_elapsed": 1058785, "internal_node_id": "0.0-142.0-0.0"}}, {"uniqueid": "MTK0289:3MX2NQ3YCA1B81DO9GUNM437QYTX5R", "current_trial": 197, "dateTime": 1510700736899, "trialdata": {"rt": -1000, "stimulus": "/static/audio/wordpool/BIKE.wav", "key_press": -1, "type": "PRES_AUD", "word": "bike", "wordID": 124, "conditions": [12, 800, "a", 24000], "trial": 5, "serialpos": 0, "trial_type": "single-audio", "trial_index": 197, "time_elapsed": 1060728, "internal_node_id": "0.0-143.0"}}, {"uniqueid": "MTK0289:3MX2NQ3YCA1B81DO9GUNM437QYTX5R", "current_trial": 198, "dateTime": 1510700738534, "trialdata": {"rt": -1000, "stimulus": "/static/audio/wordpool/BUG.wav", "key_press": -1, "type": "PRES_AUD", "word": "bug", "wordID": 186, "conditions": [12, 800, "a", 24000], "trial": 5, "serialpos": 1, "trial_type": "single-audio", "trial_index": 198, "time_elapsed": 1062363, "internal_node_id": "0.0-144.0"}}, {"uniqueid": "MTK0289:3MX2NQ3YCA1B81DO9GUNM437QYTX5R", "current_trial": 199, "dateTime": 1510700740334, "trialdata": {"rt": -1000, "stimulus": "/static/audio/wordpool/SWORD.wav", "key_press": -1, "type": "PRES_AUD", "word": "sword", "wordID": 1422, "conditions": [12, 800, "a", 24000], "trial": 5, "serialpos": 2, "trial_type": "single-audio", "trial_index": 199, "time_elapsed": 1064163, "internal_node_id": "0.0-145.0"}}, {"uniqueid": "MTK0289:3MX2NQ3YCA1B81DO9GUNM437QYTX5R", "current_trial": 200, "dateTime": 1510700742158, "trialdata": {"rt": -1000, "stimulus": "/static/audio/wordpool/BANQUET.wav", "key_press": -1, "type": "PRES_AUD", "word": "banquet", "wordID": 85, "conditions": [12, 800, "a", 24000], "trial": 5, "serialpos": 3, "trial_type": "single-audio", "trial_index": 200, "time_elapsed": 1065987, "internal_node_id": "0.0-146.0"}}, {"uniqueid": "MTK0289:3MX2NQ3YCA1B81DO9GUNM437QYTX5R", "current_trial": 201, "dateTime": 1510700743829, "trialdata": {"rt": -1000, "stimulus": "/static/audio/wordpool/ORCHID.wav", "key_press": -1, "type": "PRES_AUD", "word": "orchid", "wordID": 981, "conditions": [12, 800, "a", 24000], "trial": 5, "serialpos": 4, "trial_type": "single-audio", "trial_index": 201, "time_elapsed": 1067659, "internal_node_id": "0.0-147.0"}}, {"uniqueid": "MTK0289:3MX2NQ3YCA1B81DO9GUNM437QYTX5R", "current_trial": 202, "dateTime": 1510700745738, "trialdata": {"rt": -1000, "stimulus": "/static/audio/wordpool/JELLY.wav", "key_press": -1, "type": "PRES_AUD", "word": "jelly", "wordID": 754, "conditions": [12, 800, "a", 24000], "trial": 5, "serialpos": 5, "trial_type": "single-audio", "trial_index": 202, "time_elapsed": 1069568, "internal_node_id": "0.0-148.0"}}, {"uniqueid": "MTK0289:3MX2NQ3YCA1B81DO9GUNM437QYTX5R", "current_trial": 203, "dateTime": 1510700747517, "trialdata": {"rt": -1000, "stimulus": "/static/audio/wordpool/JELLO.wav", "key_press": -1, "type": "PRES_AUD", "word": "jello", "wordID": 753, "conditions": [12, 800, "a", 24000], "trial": 5, "serialpos": 6, "trial_type": "single-audio", "trial_index": 203, "time_elapsed": 1071346, "internal_node_id": "0.0-149.0"}}, {"uniqueid": "MTK0289:3MX2NQ3YCA1B81DO9GUNM437QYTX5R", "current_trial": 204, "dateTime": 1510700749264, "trialdata": {"rt": -1000, "stimulus": "/static/audio/wordpool/LOFT.wav", "key_press": -1, "type": "PRES_AUD", "word": "loft", "wordID": 839, "conditions": [12, 800, "a", 24000], "trial": 5, "serialpos": 7, "trial_type": "single-audio", "trial_index": 204, "time_elapsed": 1073093, "internal_node_id": "0.0-150.0"}}, {"uniqueid": "MTK0289:3MX2NQ3YCA1B81DO9GUNM437QYTX5R", "current_trial": 205, "dateTime": 1510700751266, "trialdata": {"rt": -1000, "stimulus": "/static/audio/wordpool/TERMITE.wav", "key_press": -1, "type": "PRES_AUD", "word": "termite", "wordID": 1450, "conditions": [12, 800, "a", 24000], "trial": 5, "serialpos": 8, "trial_type": "single-audio", "trial_index": 205, "time_elapsed": 1075095, "internal_node_id": "0.0-151.0"}}, {"uniqueid": "MTK0289:3MX2NQ3YCA1B81DO9GUNM437QYTX5R", "current_trial": 206, "dateTime": 1510700753191, "trialdata": {"rt": -1000, "stimulus": "/static/audio/wordpool/CREATURE.wav", "key_press": -1, "type": "PRES_AUD", "word": "creature", "wordID": 402, "conditions": [12, 800, "a", 24000], "trial": 5, "serialpos": 9, "trial_type": "single-audio", "trial_index": 206, "time_elapsed": 1077021, "internal_node_id": "0.0-152.0"}}, {"uniqueid": "MTK0289:3MX2NQ3YCA1B81DO9GUNM437QYTX5R", "current_trial": 207, "dateTime": 1510700754865, "trialdata": {"rt": -1000, "stimulus": "/static/audio/wordpool/HELMET.wav", "key_press": -1, "type": "PRES_AUD", "word": "helmet", "wordID": 701, "conditions": [12, 800, "a", 24000], "trial": 5, "serialpos": 10, "trial_type": "single-audio", "trial_index": 207, "time_elapsed": 1078694, "internal_node_id": "0.0-153.0"}}, {"uniqueid": "MTK0289:3MX2NQ3YCA1B81DO9GUNM437QYTX5R", "current_trial": 208, "dateTime": 1510700756755, "trialdata": {"rt": -1000, "stimulus": "/static/audio/wordpool/FLOWER.wav", "key_press": -1, "type": "PRES_AUD", "word": "flower", "wordID": 583, "conditions": [12, 800, "a", 24000], "trial": 5, "serialpos": 11, "trial_type": "single-audio", "trial_index": 208, "time_elapsed": 1080585, "internal_node_id": "0.0-154.0"}}, {"uniqueid": "MTK0289:3MX2NQ3YCA1B81DO9GUNM437QYTX5R", "current_trial": 209, "dateTime": 1510700758012, "trialdata": {"rt": -1, "stimulus": "", "key_press": -1, "type": "PRE_RECALL_DELAY", "trial_type": "single-stim", "trial_index": 209, "time_elapsed": 1081842, "internal_node_id": "0.0-155.0-0.0"}}, {"uniqueid": "MTK0289:3MX2NQ3YCA1B81DO9GUNM437QYTX5R", "current_trial": 210, "dateTime": 1510700758514, "trialdata": {"rt": -1000, "stimulus": "/static/audio/400Hz.wav", "key_press": -1, "type": "PRE_RECALL_ALERT", "trial_type": "single-audio", "trial_index": 210, "time_elapsed": 1082343, "internal_node_id": "0.0-156.0"}}, {"uniqueid": "MTK0289:3MX2NQ3YCA1B81DO9GUNM437QYTX5R", "current_trial": 211, "dateTime": 1510700818543, "trialdata": {"rt": [5522, 9872, 14616, 19294, 25660, 30519, 36190, 41004, 46146, 51286], "recwords": ["flower", "helmet", "creature", "lock", "jelly", "jellow", "pegion", "bike", "blow", "pink"], "type": "FREE_RECALL", "conditions": [12, 800, "a", 24000], "trial": 5, "trial_type": "free-recall", "trial_index": 211, "time_elapsed": 1142349, "internal_node_id": "0.0-157.0-0.0"}}, {"uniqueid": "MTK0289:3MX2NQ3YCA1B81DO9GUNM437QYTX5R", "current_trial": 212, "dateTime": 1510700821954, "trialdata": {"rt": 1409, "key_press": 32, "type": "INSTRUCTIONS", "trial_type": "text", "trial_index": 212, "time_elapsed": 1145783, "internal_node_id": "0.0-158.0"}}, {"uniqueid": "MTK0289:3MX2NQ3YCA1B81DO9GUNM437QYTX5R", "current_trial": 213, "dateTime": 1510700847960, "trialdata": {"rt": [2738, 4284, 6441, 8347, 10361, 12518, 14283, 17263, 19023, 20785, 22905], "responses": ["22", "12", "15", "16", "22", "19", "13", "20", "17", "14", "16"], "num1": [9, 2, 8, 6, 6, 4, 4, 9, 9, 7, 8, 1], "num2": [4, 8, 5, 1, 8, 8, 6, 8, 4, 3, 6, 4], "num3": [9, 2, 2, 9, 8, 7, 3, 3, 4, 4, 2, 2], "type": "DISTRACTOR", "conditions": [12, 1600, "a", 24000], "trial": 6, "trial_type": "math-distractor", "trial_index": 213, "time_elapsed": 1171790, "internal_node_id": "0.0-159.0"}}, {"uniqueid": "MTK0289:3MX2NQ3YCA1B81DO9GUNM437QYTX5R", "current_trial": 214, "dateTime": 1510700850961, "trialdata": {"rt": -1, "stimulus": "<p id=\"stim\">10</p>", "key_press": -1, "trial_type": "single-stim", "trial_index": 214, "time_elapsed": 1174791, "internal_node_id": "0.0-160.0-0.0"}}, {"uniqueid": "MTK0289:3MX2NQ3YCA1B81DO9GUNM437QYTX5R", "current_trial": 215, "dateTime": 1510700852043, "trialdata": {"rt": -1, "stimulus": "<p id=\"stim\">9</p>", "key_press": -1, "trial_type": "single-stim", "trial_index": 215, "time_elapsed": 1175873, "internal_node_id": "0.0-160.0-1.0"}}, {"uniqueid": "MTK0289:3MX2NQ3YCA1B81DO9GUNM437QYTX5R", "current_trial": 216, "dateTime": 1510700853045, "trialdata": {"rt": -1, "stimulus": "<p id=\"stim\">8</p>", "key_press": -1, "trial_type": "single-stim", "trial_index": 216, "time_elapsed": 1176875, "internal_node_id": "0.0-160.0-2.0"}}, {"uniqueid": "MTK0289:3MX2NQ3YCA1B81DO9GUNM437QYTX5R", "current_trial": 217, "dateTime": 1510700854048, "trialdata": {"rt": -1, "stimulus": "<p id=\"stim\">7</p>", "key_press": -1, "trial_type": "single-stim", "trial_index": 217, "time_elapsed": 1177877, "internal_node_id": "0.0-160.0-3.0"}}, {"uniqueid": "MTK0289:3MX2NQ3YCA1B81DO9GUNM437QYTX5R", "current_trial": 218, "dateTime": 1510700855053, "trialdata": {"rt": -1, "stimulus": "<p id=\"stim\">6</p>", "key_press": -1, "trial_type": "single-stim", "trial_index": 218, "time_elapsed": 1178881, "internal_node_id": "0.0-160.0-4.0"}}, {"uniqueid": "MTK0289:3MX2NQ3YCA1B81DO9GUNM437QYTX5R", "current_trial": 219, "dateTime": 1510700856054, "trialdata": {"rt": -1, "stimulus": "<p id=\"stim\">5</p>", "key_press": -1, "trial_type": "single-stim", "trial_index": 219, "time_elapsed": 1179884, "internal_node_id": "0.0-160.0-5.0"}}, {"uniqueid": "MTK0289:3MX2NQ3YCA1B81DO9GUNM437QYTX5R", "current_trial": 220, "dateTime": 1510700857056, "trialdata": {"rt": -1, "stimulus": "<p id=\"stim\">4</p>", "key_press": -1, "trial_type": "single-stim", "trial_index": 220, "time_elapsed": 1180886, "internal_node_id": "0.0-160.0-6.0"}}, {"uniqueid": "MTK0289:3MX2NQ3YCA1B81DO9GUNM437QYTX5R", "current_trial": 221, "dateTime": 1510700858058, "trialdata": {"rt": -1, "stimulus": "<p id=\"stim\">3</p>", "key_press": -1, "trial_type": "single-stim", "trial_index": 221, "time_elapsed": 1181888, "internal_node_id": "0.0-160.0-7.0"}}, {"uniqueid": "MTK0289:3MX2NQ3YCA1B81DO9GUNM437QYTX5R", "current_trial": 222, "dateTime": 1510700859060, "trialdata": {"rt": -1, "stimulus": "<p id=\"stim\">2</p>", "key_press": -1, "trial_type": "single-stim", "trial_index": 222, "time_elapsed": 1182890, "internal_node_id": "0.0-160.0-8.0"}}, {"uniqueid": "MTK0289:3MX2NQ3YCA1B81DO9GUNM437QYTX5R", "current_trial": 223, "dateTime": 1510700860068, "trialdata": {"rt": -1, "stimulus": "<p id=\"stim\">1</p>", "key_press": -1, "trial_type": "single-stim", "trial_index": 223, "time_elapsed": 1183892, "internal_node_id": "0.0-160.0-9.0"}}, {"uniqueid": "MTK0289:3MX2NQ3YCA1B81DO9GUNM437QYTX5R", "current_trial": 224, "dateTime": 1510700861570, "trialdata": {"rt": -1, "stimulus": "<p id=\"stim\">+</p>", "key_press": -1, "type": "FIXATION", "trial_type": "single-stim", "trial_index": 224, "time_elapsed": 1185400, "internal_node_id": "0.0-161.0-0.0"}}, {"uniqueid": "MTK0289:3MX2NQ3YCA1B81DO9GUNM437QYTX5R", "current_trial": 225, "dateTime": 1510700864138, "trialdata": {"rt": -1000, "stimulus": "/static/audio/wordpool/PISTON.wav", "key_press": -1, "type": "PRES_AUD", "word": "piston", "wordID": 1075, "conditions": [12, 1600, "a", 24000], "trial": 6, "serialpos": 0, "trial_type": "single-audio", "trial_index": 225, "time_elapsed": 1187967, "internal_node_id": "0.0-162.0"}}, {"uniqueid": "MTK0289:3MX2NQ3YCA1B81DO9GUNM437QYTX5R", "current_trial": 226, "dateTime": 1510700866614, "trialdata": {"rt": -1000, "stimulus": "/static/audio/wordpool/AUTHOR.wav", "key_press": -1, "type": "PRES_AUD", "word": "author", "wordID": 60, "conditions": [12, 1600, "a", 24000], "trial": 6, "serialpos": 1, "trial_type": "single-audio", "trial_index": 226, "time_elapsed": 1190444, "internal_node_id": "0.0-163.0"}}, {"uniqueid": "MTK0289:3MX2NQ3YCA1B81DO9GUNM437QYTX5R", "current_trial": 227, "dateTime": 1510700869178, "trialdata": {"rt": -1000, "stimulus": "/static/audio/wordpool/PREACHER.wav", "key_press": -1, "type": "PRES_AUD", "word": "preacher", "wordID": 1118, "conditions": [12, 1600, "a", 24000], "trial": 6, "serialpos": 2, "trial_type": "single-audio", "trial_index": 227, "time_elapsed": 1193007, "internal_node_id": "0.0-164.0"}}, {"uniqueid": "MTK0289:3MX2NQ3YCA1B81DO9GUNM437QYTX5R", "current_trial": 228, "dateTime": 1510700871643, "trialdata": {"rt": -1000, "stimulus": "/static/audio/wordpool/VALVE.wav", "key_press": -1, "type": "PRES_AUD", "word": "valve", "wordID": 1545, "conditions": [12, 1600, "a", 24000], "trial": 6, "serialpos": 3, "trial_type": "single-audio", "trial_index": 228, "time_elapsed": 1195473, "internal_node_id": "0.0-165.0"}}, {"uniqueid": "MTK0289:3MX2NQ3YCA1B81DO9GUNM437QYTX5R", "current_trial": 229, "dateTime": 1510700874378, "trialdata": {"rt": -1000, "stimulus": "/static/audio/wordpool/PASTA.wav", "key_press": -1, "type": "PRES_AUD", "word": "pasta", "wordID": 1020, "conditions": [12, 1600, "a", 24000], "trial": 6, "serialpos": 4, "trial_type": "single-audio", "trial_index": 229, "time_elapsed": 1198208, "internal_node_id": "0.0-166.0"}}, {"uniqueid": "MTK0289:3MX2NQ3YCA1B81DO9GUNM437QYTX5R", "current_trial": 230, "dateTime": 1510700876913, "trialdata": {"rt": -1000, "stimulus": "/static/audio/wordpool/JUNGLE.wav", "key_press": -1, "type": "PRES_AUD", "word": "jungle", "wordID": 763, "conditions": [12, 1600, "a", 24000], "trial": 6, "serialpos": 5, "trial_type": "single-audio", "trial_index": 230, "time_elapsed": 1200743, "internal_node_id": "0.0-167.0"}}, {"uniqueid": "MTK0289:3MX2NQ3YCA1B81DO9GUNM437QYTX5R", "current_trial": 231, "dateTime": 1510700879638, "trialdata": {"rt": -1000, "stimulus": "/static/audio/wordpool/SHARK.wav", "key_press": -1, "type": "PRES_AUD", "word": "shark", "wordID": 1274, "conditions": [12, 1600, "a", 24000], "trial": 6, "serialpos": 6, "trial_type": "single-audio", "trial_index": 231, "time_elapsed": 1203467, "internal_node_id": "0.0-168.0"}}, {"uniqueid": "MTK0289:3MX2NQ3YCA1B81DO9GUNM437QYTX5R", "current_trial": 232, "dateTime": 1510700882108, "trialdata": {"rt": -1000, "stimulus": "/static/audio/wordpool/MAMMAL.wav", "key_press": -1, "type": "PRES_AUD", "word": "mammal", "wordID": 860, "conditions": [12, 1600, "a", 24000], "trial": 6, "serialpos": 7, "trial_type": "single-audio", "trial_index": 232, "time_elapsed": 1205937, "internal_node_id": "0.0-169.0"}}, {"uniqueid": "MTK0289:3MX2NQ3YCA1B81DO9GUNM437QYTX5R", "current_trial": 233, "dateTime": 1510700884902, "trialdata": {"rt": -1000, "stimulus": "/static/audio/wordpool/SPOUSE.wav", "key_press": -1, "type": "PRES_AUD", "word": "spouse", "wordID": 1357, "conditions": [12, 1600, "a", 24000], "trial": 6, "serialpos": 8, "trial_type": "single-audio", "trial_index": 233, "time_elapsed": 1208731, "internal_node_id": "0.0-170.0"}}, {"uniqueid": "MTK0289:3MX2NQ3YCA1B81DO9GUNM437QYTX5R", "current_trial": 234, "dateTime": 1510700887388, "trialdata": {"rt": -1000, "stimulus": "/static/audio/wordpool/SILK.wav", "key_press": -1, "type": "PRES_AUD", "word": "silk", "wordID": 1306, "conditions": [12, 1600, "a", 24000], "trial": 6, "serialpos": 9, "trial_type": "single-audio", "trial_index": 234, "time_elapsed": 1211218, "internal_node_id": "0.0-171.0"}}, {"uniqueid": "MTK0289:3MX2NQ3YCA1B81DO9GUNM437QYTX5R", "current_trial": 235, "dateTime": 1510700889882, "trialdata": {"rt": -1000, "stimulus": "/static/audio/wordpool/BEAVER.wav", "key_press": -1, "type": "PRES_AUD", "word": "beaver", "wordID": 108, "conditions": [12, 1600, "a", 24000], "trial": 6, "serialpos": 10, "trial_type": "single-audio", "trial_index": 235, "time_elapsed": 1213711, "internal_node_id": "0.0-172.0"}}, {"uniqueid": "MTK0289:3MX2NQ3YCA1B81DO9GUNM437QYTX5R", "current_trial": 236, "dateTime": 1510700892426, "trialdata": {"rt": -1000, "stimulus": "/static/audio/wordpool/FIREPLACE.wav", "key_press": -1, "type": "PRES_AUD", "word": "fireplace", "wordID": 569, "conditions": [12, 1600, "a", 24000], "trial": 6, "serialpos": 11, "trial_type": "single-audio", "trial_index": 236, "time_elapsed": 1216256, "internal_node_id": "0.0-173.0"}}, {"uniqueid": "MTK0289:3MX2NQ3YCA1B81DO9GUNM437QYTX5R", "current_trial": 237, "dateTime": 1510700893706, "trialdata": {"rt": -1, "stimulus": "", "key_press": -1, "type": "PRE_RECALL_DELAY", "trial_type": "single-stim", "trial_index": 237, "time_elapsed": 1217536, "internal_node_id": "0.0-174.0-0.0"}}, {"uniqueid": "MTK0289:3MX2NQ3YCA1B81DO9GUNM437QYTX5R", "current_trial": 238, "dateTime": 1510700894208, "trialdata": {"rt": -1000, "stimulus": "/static/audio/400Hz.wav", "key_press": -1, "type": "PRE_RECALL_ALERT", "trial_type": "single-audio", "trial_index": 238, "time_elapsed": 1218038, "internal_node_id": "0.0-175.0"}}, {"uniqueid": "MTK0289:3MX2NQ3YCA1B81DO9GUNM437QYTX5R", "current_trial": 239, "dateTime": 1510700954231, "trialdata": {"rt": [7043, 10570, 14349, 17582, 21720, 25350, 28909, 32041, 36173, 44654, 49868], "recwords": ["fireplace", "beaver", "spouse", "mammal", "shark", "jungle", "pasta", "vowel", "creature", "author", "wisdom"], "type": "FREE_RECALL", "conditions": [12, 1600, "a", 24000], "trial": 6, "trial_type": "free-recall", "trial_index": 239, "time_elapsed": 1278045, "internal_node_id": "0.0-176.0-0.0"}}, {"uniqueid": "MTK0289:3MX2NQ3YCA1B81DO9GUNM437QYTX5R", "current_trial": 240, "dateTime": 1510700957960, "trialdata": {"rt": 1727, "key_press": 32, "type": "INSTRUCTIONS", "trial_type": "text", "trial_index": 240, "time_elapsed": 1281790, "internal_node_id": "0.0-177.0"}}, {"uniqueid": "MTK0289:3MX2NQ3YCA1B81DO9GUNM437QYTX5R", "current_trial": 241, "dateTime": 1510700983968, "trialdata": {"rt": [2345, 4290, 5986, 7535, 9118, 10809, 12428, 14514, 16603, 19226, 21706, 23430], "responses": ["11", "18", "14", "18", "15", "16", "4", "14", "10", "25", "19", "19"], "num1": [6, 6, 7, 7, 1, 6, 1, 7, 4, 9, 7, 9, 8], "num2": [1, 7, 6, 7, 9, 8, 2, 5, 4, 7, 4, 1, 7], "num3": [4, 5, 1, 4, 5, 2, 1, 2, 2, 9, 8, 9, 7], "type": "DISTRACTOR", "conditions": [24, 1600, "v", 24000], "trial": 7, "trial_type": "math-distractor", "trial_index": 241, "time_elapsed": 1307797, "internal_node_id": "0.0-178.0"}}, {"uniqueid": "MTK0289:3MX2NQ3YCA1B81DO9GUNM437QYTX5R", "current_trial": 242, "dateTime": 1510700986971, "trialdata": {"rt": -1, "stimulus": "<p id=\"stim\">10</p>", "key_press": -1, "trial_type": "single-stim", "trial_index": 242, "time_elapsed": 1310801, "internal_node_id": "0.0-179.0-0.0"}}, {"uniqueid": "MTK0289:3MX2NQ3YCA1B81DO9GUNM437QYTX5R", "current_trial": 243, "dateTime": 1510700987974, "trialdata": {"rt": -1, "stimulus": "<p id=\"stim\">9</p>", "key_press": -1, "trial_type": "single-stim", "trial_index": 243, "time_elapsed": 1311803, "internal_node_id": "0.0-179.0-1.0"}}, {"uniqueid": "MTK0289:3MX2NQ3YCA1B81DO9GUNM437QYTX5R", "current_trial": 244, "dateTime": 1510700988975, "trialdata": {"rt": -1, "stimulus": "<p id=\"stim\">8</p>", "key_press": -1, "trial_type": "single-stim", "trial_index": 244, "time_elapsed": 1312805, "internal_node_id": "0.0-179.0-2.0"}}, {"uniqueid": "MTK0289:3MX2NQ3YCA1B81DO9GUNM437QYTX5R", "current_trial": 245, "dateTime": 1510700989977, "trialdata": {"rt": -1, "stimulus": "<p id=\"stim\">7</p>", "key_press": -1, "trial_type": "single-stim", "trial_index": 245, "time_elapsed": 1313807, "internal_node_id": "0.0-179.0-3.0"}}, {"uniqueid": "MTK0289:3MX2NQ3YCA1B81DO9GUNM437QYTX5R", "current_trial": 246, "dateTime": 1510700990979, "trialdata": {"rt": -1, "stimulus": "<p id=\"stim\">6</p>", "key_press": -1, "trial_type": "single-stim", "trial_index": 246, "time_elapsed": 1314809, "internal_node_id": "0.0-179.0-4.0"}}, {"uniqueid": "MTK0289:3MX2NQ3YCA1B81DO9GUNM437QYTX5R", "current_trial": 247, "dateTime": 1510700991981, "trialdata": {"rt": -1, "stimulus": "<p id=\"stim\">5</p>", "key_press": -1, "trial_type": "single-stim", "trial_index": 247, "time_elapsed": 1315811, "internal_node_id": "0.0-179.0-5.0"}}, {"uniqueid": "MTK0289:3MX2NQ3YCA1B81DO9GUNM437QYTX5R", "current_trial": 248, "dateTime": 1510700992984, "trialdata": {"rt": -1, "stimulus": "<p id=\"stim\">4</p>", "key_press": -1, "trial_type": "single-stim", "trial_index": 248, "time_elapsed": 1316814, "internal_node_id": "0.0-179.0-6.0"}}, {"uniqueid": "MTK0289:3MX2NQ3YCA1B81DO9GUNM437QYTX5R", "current_trial": 249, "dateTime": 1510700993987, "trialdata": {"rt": -1, "stimulus": "<p id=\"stim\">3</p>", "key_press": -1, "trial_type": "single-stim", "trial_index": 249, "time_elapsed": 1317816, "internal_node_id": "0.0-179.0-7.0"}}, {"uniqueid": "MTK0289:3MX2NQ3YCA1B81DO9GUNM437QYTX5R", "current_trial": 250, "dateTime": 1510700994988, "trialdata": {"rt": -1, "stimulus": "<p id=\"stim\">2</p>", "key_press": -1, "trial_type": "single-stim", "trial_index": 250, "time_elapsed": 1318818, "internal_node_id": "0.0-179.0-8.0"}}, {"uniqueid": "MTK0289:3MX2NQ3YCA1B81DO9GUNM437QYTX5R", "current_trial": 251, "dateTime": 1510700995991, "trialdata": {"rt": -1, "stimulus": "<p id=\"stim\">1</p>", "key_press": -1, "trial_type": "single-stim", "trial_index": 251, "time_elapsed": 1319820, "internal_node_id": "0.0-179.0-9.0"}}, {"uniqueid": "MTK0289:3MX2NQ3YCA1B81DO9GUNM437QYTX5R", "current_trial": 252, "dateTime": 1510700997492, "trialdata": {"rt": -1, "stimulus": "<p id=\"stim\">+</p>", "key_press": -1, "type": "FIXATION", "trial_type": "single-stim", "trial_index": 252, "time_elapsed": 1321322, "internal_node_id": "0.0-180.0-0.0"}}, {"uniqueid": "MTK0289:3MX2NQ3YCA1B81DO9GUNM437QYTX5R", "current_trial": 253, "dateTime": 1510700999095, "trialdata": {"rt": -1, "stimulus": "<p id=\"stim\">EYELASH</p>", "key_press": -1, "type": "PRES_VIS", "word": "eyelash", "wordID": 545, "conditions": [24, 1600, "v", 24000], "trial": 7, "serialpos": 0, "trial_type": "single-stim", "trial_index": 253, "time_elapsed": 1322924, "internal_node_id": "0.0-181.0"}}, {"uniqueid": "MTK0289:3MX2NQ3YCA1B81DO9GUNM437QYTX5R", "current_trial": 254, "dateTime": 1510701001781, "trialdata": {"rt": -1, "stimulus": "<p id=\"stim\">ROBOT</p>", "key_press": -1, "type": "PRES_VIS", "word": "robot", "wordID": 1199, "conditions": [24, 1600, "v", 24000], "trial": 7, "serialpos": 1, "trial_type": "single-stim", "trial_index": 254, "time_elapsed": 1325611, "internal_node_id": "0.0-182.0"}}, {"uniqueid": "MTK0289:3MX2NQ3YCA1B81DO9GUNM437QYTX5R", "current_trial": 255, "dateTime": 1510701004188, "trialdata": {"rt": -1, "stimulus": "<p id=\"stim\">FLESH</p>", "key_press": -1, "type": "PRES_VIS", "word": "flesh", "wordID": 578, "conditions": [24, 1600, "v", 24000], "trial": 7, "serialpos": 2, "trial_type": "single-stim", "trial_index": 255, "time_elapsed": 1328017, "internal_node_id": "0.0-183.0"}}, {"uniqueid": "MTK0289:3MX2NQ3YCA1B81DO9GUNM437QYTX5R", "current_trial": 256, "dateTime": 1510701006879, "trialdata": {"rt": -1, "stimulus": "<p id=\"stim\">BOX</p>", "key_press": -1, "type": "PRES_VIS", "word": "box", "wordID": 158, "conditions": [24, 1600, "v", 24000], "trial": 7, "serialpos": 3, "trial_type": "single-stim", "trial_index": 256, "time_elapsed": 1330709, "internal_node_id": "0.0-184.0"}}, {"uniqueid": "MTK0289:3MX2NQ3YCA1B81DO9GUNM437QYTX5R", "current_trial": 257, "dateTime": 1510701009531, "trialdata": {"rt": -1, "stimulus": "<p id=\"stim\">CHAPEL</p>", "key_press": -1, "type": "PRES_VIS", "word": "chapel", "wordID": 279, "conditions": [24, 1600, "v", 24000], "trial": 7, "serialpos": 4, "trial_type": "single-stim", "trial_index": 257, "time_elapsed": 1333361, "internal_node_id": "0.0-185.0"}}, {"uniqueid": "MTK0289:3MX2NQ3YCA1B81DO9GUNM437QYTX5R", "current_trial": 258, "dateTime": 1510701011950, "trialdata": {"rt": -1, "stimulus": "<p id=\"stim\">LILY</p>", "key_press": -1, "type": "PRES_VIS", "word": "lily", "wordID": 820, "conditions": [24, 1600, "v", 24000], "trial": 7, "serialpos": 5, "trial_type": "single-stim", "trial_index": 258, "time_elapsed": 1335780, "internal_node_id": "0.0-186.0"}}, {"uniqueid": "MTK0289:3MX2NQ3YCA1B81DO9GUNM437QYTX5R", "current_trial": 259, "dateTime": 1510701014648, "trialdata": {"rt": -1, "stimulus": "<p id=\"stim\">CHEST</p>", "key_press": -1, "type": "PRES_VIS", "word": "chest", "wordID": 294, "conditions": [24, 1600, "v", 24000], "trial": 7, "serialpos": 6, "trial_type": "single-stim", "trial_index": 259, "time_elapsed": 1338472, "internal_node_id": "0.0-187.0"}}, {"uniqueid": "MTK0289:3MX2NQ3YCA1B81DO9GUNM437QYTX5R", "current_trial": 260, "dateTime": 1510701017113, "trialdata": {"rt": -1, "stimulus": "<p id=\"stim\">LOVER</p>", "key_press": -1, "type": "PRES_VIS", "word": "lover", "wordID": 845, "conditions": [24, 1600, "v", 24000], "trial": 7, "serialpos": 7, "trial_type": "single-stim", "trial_index": 260, "time_elapsed": 1340943, "internal_node_id": "0.0-188.0"}}, {"uniqueid": "MTK0289:3MX2NQ3YCA1B81DO9GUNM437QYTX5R", "current_trial": 261, "dateTime": 1510701019624, "trialdata": {"rt": -1, "stimulus": "<p id=\"stim\">LAMP</p>", "key_press": -1, "type": "PRES_VIS", "word": "lamp", "wordID": 797, "conditions": [24, 1600, "v", 24000], "trial": 7, "serialpos": 8, "trial_type": "single-stim", "trial_index": 261, "time_elapsed": 1343454, "internal_node_id": "0.0-189.0"}}, {"uniqueid": "MTK0289:3MX2NQ3YCA1B81DO9GUNM437QYTX5R", "current_trial": 262, "dateTime": 1510701022369, "trialdata": {"rt": -1, "stimulus": "<p id=\"stim\">OMELET</p>", "key_press": -1, "type": "PRES_VIS", "word": "omelet", "wordID": 975, "conditions": [24, 1600, "v", 24000], "trial": 7, "serialpos": 9, "trial_type": "single-stim", "trial_index": 262, "time_elapsed": 1346199, "internal_node_id": "0.0-190.0"}}, {"uniqueid": "MTK0289:3MX2NQ3YCA1B81DO9GUNM437QYTX5R", "current_trial": 263, "dateTime": 1510701024876, "trialdata": {"rt": -1, "stimulus": "<p id=\"stim\">SHORTCAKE</p>", "key_press": -1, "type": "PRES_VIS", "word": "shortcake", "wordID": 1291, "conditions": [24, 1600, "v", 24000], "trial": 7, "serialpos": 10, "trial_type": "single-stim", "trial_index": 263, "time_elapsed": 1348706, "internal_node_id": "0.0-191.0"}}, {"uniqueid": "MTK0289:3MX2NQ3YCA1B81DO9GUNM437QYTX5R", "current_trial": 264, "dateTime": 1510701027558, "trialdata": {"rt": -1, "stimulus": "<p id=\"stim\">HUSBAND</p>", "key_press": -1, "type": "PRES_VIS", "word": "husband", "wordID": 727, "conditions": [24, 1600, "v", 24000], "trial": 7, "serialpos": 11, "trial_type": "single-stim", "trial_index": 264, "time_elapsed": 1351388, "internal_node_id": "0.0-192.0"}}, {"uniqueid": "MTK0289:3MX2NQ3YCA1B81DO9GUNM437QYTX5R", "current_trial": 265, "dateTime": 1510701030322, "trialdata": {"rt": -1, "stimulus": "<p id=\"stim\">JAPAN</p>", "key_press": -1, "type": "PRES_VIS", "word": "japan", "wordID": 748, "conditions": [24, 1600, "v", 24000], "trial": 7, "serialpos": 12, "trial_type": "single-stim", "trial_index": 265, "time_elapsed": 1354152, "internal_node_id": "0.0-193.0"}}, {"uniqueid": "MTK0289:3MX2NQ3YCA1B81DO9GUNM437QYTX5R", "current_trial": 266, "dateTime": 1510701032755, "trialdata": {"rt": -1, "stimulus": "<p id=\"stim\">HOOK</p>", "key_press": -1, "type": "PRES_VIS", "word": "hook", "wordID": 714, "conditions": [24, 1600, "v", 24000], "trial": 7, "serialpos": 13, "trial_type": "single-stim", "trial_index": 266, "time_elapsed": 1356585, "internal_node_id": "0.0-194.0"}}, {"uniqueid": "MTK0289:3MX2NQ3YCA1B81DO9GUNM437QYTX5R", "current_trial": 267, "dateTime": 1510701035360, "trialdata": {"rt": -1, "stimulus": "<p id=\"stim\">ICING</p>", "key_press": -1, "type": "PRES_VIS", "word": "icing", "wordID": 731, "conditions": [24, 1600, "v", 24000], "trial": 7, "serialpos": 14, "trial_type": "single-stim", "trial_index": 267, "time_elapsed": 1359189, "internal_node_id": "0.0-195.0"}}, {"uniqueid": "MTK0289:3MX2NQ3YCA1B81DO9GUNM437QYTX5R", "current_trial": 268, "dateTime": 1510701038128, "trialdata": {"rt": -1, "stimulus": "<p id=\"stim\">HONEY</p>", "key_press": -1, "type": "PRES_VIS", "word": "honey", "wordID": 712, "conditions": [24, 1600, "v", 24000], "trial": 7, "serialpos": 15, "trial_type": "single-stim", "trial_index": 268, "time_elapsed": 1361957, "internal_node_id": "0.0-196.0"}}, {"uniqueid": "MTK0289:3MX2NQ3YCA1B81DO9GUNM437QYTX5R", "current_trial": 269, "dateTime": 1510701040731, "trialdata": {"rt": -1, "stimulus": "<p id=\"stim\">FOOT</p>", "key_press": -1, "type": "PRES_VIS", "word": "foot", "wordID": 589, "conditions": [24, 1600, "v", 24000], "trial": 7, "serialpos": 16, "trial_type": "single-stim", "trial_index": 269, "time_elapsed": 1364560, "internal_node_id": "0.0-197.0"}}, {"uniqueid": "MTK0289:3MX2NQ3YCA1B81DO9GUNM437QYTX5R", "current_trial": 270, "dateTime": 1510701043295, "trialdata": {"rt": -1, "stimulus": "<p id=\"