{"condition": 0, "counterbalance": 445, "assignmentId": "3JJVG1YBEC44VYAN4K25X7CF89G5BU", "workerId": "MTK0446", "hitId": "30IRMPJWDZQS64ELH2NZAR4H9QRRKC", "currenttrial": 626, "bonus": 0, "data": [{"uniqueid": "MTK0446:3JJVG1YBEC44VYAN4K25X7CF89G5BU", "current_trial": 0, "dateTime": 1510896826603, "trialdata": {"rt": 36518, "key_press": 13, "type": "INSTRUCTIONS", "trial_type": "text", "trial_index": 0, "time_elapsed": 36522, "internal_node_id": "0.0-0.0"}}, {"uniqueid": "MTK0446:3JJVG1YBEC44VYAN4K25X7CF89G5BU", "current_trial": 1, "dateTime": 1510896864089, "trialdata": {"rt": 37481, "key_press": 13, "type": "INSTRUCTIONS", "trial_type": "text", "trial_index": 1, "time_elapsed": 74009, "internal_node_id": "0.0-1.0"}}, {"uniqueid": "MTK0446:3JJVG1YBEC44VYAN4K25X7CF89G5BU", "current_trial": 2, "dateTime": 1510896879658, "trialdata": {"rt": [15549], "responses": ["ocean"], "type": "AUDIO_TEST", "trial_type": "audio-test", "trial_index": 2, "time_elapsed": 89578, "internal_node_id": "0.0-2.0"}}, {"uniqueid": "MTK0446:3JJVG1YBEC44VYAN4K25X7CF89G5BU", "current_trial": 3, "dateTime": 1510896890648, "trialdata": {"rt": [10980], "responses": ["crystal"], "type": "AUDIO_TEST", "trial_type": "audio-test", "trial_index": 3, "time_elapsed": 100569, "internal_node_id": "0.0-3.0"}}, {"uniqueid": "MTK0446:3JJVG1YBEC44VYAN4K25X7CF89G5BU", "current_trial": 4, "dateTime": 1510896899056, "trialdata": {"rt": [8398], "responses": ["spice"], "type": "AUDIO_TEST", "trial_type": "audio-test", "trial_index": 4, "time_elapsed": 108977, "internal_node_id": "0.0-4.0"}}, {"uniqueid": "MTK0446:3JJVG1YBEC44VYAN4K25X7CF89G5BU", "current_trial": 5, "dateTime": 1510897038268, "trialdata": {"rt": 138456, "responses": "{\"Q0\":\"12am\",\"Q1\":\"6am\",\"Q2\":\"10\\n10\"}", "type": "SLEEP_SURVEY", "trial_type": "survey-text", "trial_index": 5, "time_elapsed": 248189, "internal_node_id": "0.0-5.0"}}, {"uniqueid": "MTK0446:3JJVG1YBEC44VYAN4K25X7CF89G5BU", "current_trial": 6, "dateTime": 1510897101048, "trialdata": {"rt": 61777, "key_press": 13, "type": "INSTRUCTIONS", "trial_type": "text", "trial_index": 6, "time_elapsed": 310968, "internal_node_id": "0.0-6.0"}}, {"uniqueid": "MTK0446:3JJVG1YBEC44VYAN4K25X7CF89G5BU", "current_trial": 7, "dateTime": 1510897131063, "trialdata": {"rt": 29512, "key_press": 13, "type": "INSTRUCTIONS", "trial_type": "text", "trial_index": 7, "time_elapsed": 340984, "internal_node_id": "0.0-7.0"}}, {"uniqueid": "MTK0446:3JJVG1YBEC44VYAN4K25X7CF89G5BU", "current_trial": 8, "dateTime": 1510897154135, "trialdata": {"rt": 22570, "key_press": 13, "type": "INSTRUCTIONS", "trial_type": "text", "trial_index": 8, "time_elapsed": 364055, "internal_node_id": "0.0-8.0"}}, {"uniqueid": "MTK0446:3JJVG1YBEC44VYAN4K25X7CF89G5BU", "current_trial": 9, "dateTime": 1510897173146, "trialdata": {"rt": [8478, 15925], "responses": ["15", "16"], "num1": [2, 7, 1], "num2": [6, 4, 6], "num3": [7, 5, 7], "type": "DISTRACTOR", "conditions": [18, 1200, "a", 18000], "trial": 0, "trial_type": "math-distractor", "trial_index": 9, "time_elapsed": 383067, "internal_node_id": "0.0-9.0"}}, {"uniqueid": "MTK0446:3JJVG1YBEC44VYAN4K25X7CF89G5BU", "current_trial": 10, "dateTime": 1510897176151, "trialdata": {"rt": -1, "stimulus": "<p id=\"stim\">10</p>", "key_press": -1, "trial_type": "single-stim", "trial_index": 10, "time_elapsed": 386072, "internal_node_id": "0.0-10.0-0.0"}}, {"uniqueid": "MTK0446:3JJVG1YBEC44VYAN4K25X7CF89G5BU", "current_trial": 11, "dateTime": 1510897177153, "trialdata": {"rt": -1, "stimulus": "<p id=\"stim\">9</p>", "key_press": -1, "trial_type": "single-stim", "trial_index": 11, "time_elapsed": 387073, "internal_node_id": "0.0-10.0-1.0"}}, {"uniqueid": "MTK0446:3JJVG1YBEC44VYAN4K25X7CF89G5BU", "current_trial": 12, "dateTime": 1510897178155, "trialdata": {"rt": -1, "stimulus": "<p id=\"stim\">8</p>", "key_press": -1, "trial_type": "single-stim", "trial_index": 12, "time_elapsed": 388075, "internal_node_id": "0.0-10.0-2.0"}}, {"uniqueid": "MTK0446:3JJVG1YBEC44VYAN4K25X7CF89G5BU", "current_trial": 13, "dateTime": 1510897179158, "trialdata": {"rt": -1, "stimulus": "<p id=\"stim\">7</p>", "key_press": -1, "trial_type": "single-stim", "trial_index": 13, "time_elapsed": 389079, "internal_node_id": "0.0-10.0-3.0"}}, {"uniqueid": "MTK0446:3JJVG1YBEC44VYAN4K25X7CF89G5BU", "current_trial": 14, "dateTime": 1510897180159, "trialdata": {"rt": -1, "stimulus": "<p id=\"stim\">6</p>", "key_press": -1, "trial_type": "single-stim", "trial_index": 14, "time_elapsed": 390080, "internal_node_id": "0.0-10.0-4.0"}}, {"uniqueid": "MTK0446:3JJVG1YBEC44VYAN4K25X7CF89G5BU", "current_trial": 15, "dateTime": 1510897181161, "trialdata": {"rt": -1, "stimulus": "<p id=\"stim\">5</p>", "key_press": -1, "trial_type": "single-stim", "trial_index": 15, "time_elapsed": 391082, "internal_node_id": "0.0-10.0-5.0"}}, {"uniqueid": "MTK0446:3JJVG1YBEC44VYAN4K25X7CF89G5BU", "current_trial": 16, "dateTime": 1510897182162, "trialdata": {"rt": -1, "stimulus": "<p id=\"stim\">4</p>", "key_press": -1, "trial_type": "single-stim", "trial_index": 16, "time_elapsed": 392083, "internal_node_id": "0.0-10.0-6.0"}}, {"uniqueid": "MTK0446:3JJVG1YBEC44VYAN4K25X7CF89G5BU", "current_trial": 17, "dateTime": 1510897183164, "trialdata": {"rt": -1, "stimulus": "<p id=\"stim\">3</p>", "key_press": -1, "trial_type": "single-stim", "trial_index": 17, "time_elapsed": 393085, "internal_node_id": "0.0-10.0-7.0"}}, {"uniqueid": "MTK0446:3JJVG1YBEC44VYAN4K25X7CF89G5BU", "current_trial": 18, "dateTime": 1510897184166, "trialdata": {"rt": -1, "stimulus": "<p id=\"stim\">2</p>", "key_press": -1, "trial_type": "single-stim", "trial_index": 18, "time_elapsed": 394087, "internal_node_id": "0.0-10.0-8.0"}}, {"uniqueid": "MTK0446:3JJVG1YBEC44VYAN4K25X7CF89G5BU", "current_trial": 19, "dateTime": 1510897185168, "trialdata": {"rt": -1, "stimulus": "<p id=\"stim\">1</p>", "key_press": -1, "trial_type": "single-stim", "trial_index": 19, "time_elapsed": 395089, "internal_node_id": "0.0-10.0-9.0"}}, {"uniqueid": "MTK0446:3JJVG1YBEC44VYAN4K25X7CF89G5BU", "current_trial": 20, "dateTime": 1510897186671, "trialdata": {"rt": -1, "stimulus": "<p id=\"stim\">+</p>", "key_press": -1, "type": "FIXATION", "trial_type": "single-stim", "trial_index": 20, "time_elapsed": 396592, "internal_node_id": "0.0-11.0-0.0"}}, {"uniqueid": "MTK0446:3JJVG1YBEC44VYAN4K25X7CF89G5BU", "current_trial": 21, "dateTime": 1510897189034, "trialdata": {"rt": -1000, "stimulus": "/static/audio/wordpool/PENGUIN.wav", "key_press": -1, "type": "PRES_AUD", "word": "penguin", "wordID": 1043, "conditions": [18, 1200, "a", 18000], "trial": 0, "serialpos": 0, "trial_type": "single-audio", "trial_index": 21, "time_elapsed": 398955, "internal_node_id": "0.0-12.0"}}, {"uniqueid": "MTK0446:3JJVG1YBEC44VYAN4K25X7CF89G5BU", "current_trial": 22, "dateTime": 1510897191122, "trialdata": {"rt": -1000, "stimulus": "/static/audio/wordpool/SWORD.wav", "key_press": -1, "type": "PRES_AUD", "word": "sword", "wordID": 1422, "conditions": [18, 1200, "a", 18000], "trial": 0, "serialpos": 1, "trial_type": "single-audio", "trial_index": 22, "time_elapsed": 401043, "internal_node_id": "0.0-13.0"}}, {"uniqueid": "MTK0446:3JJVG1YBEC44VYAN4K25X7CF89G5BU", "current_trial": 23, "dateTime": 1510897193168, "trialdata": {"rt": -1000, "stimulus": "/static/audio/wordpool/STUDENT.wav", "key_press": -1, "type": "PRES_AUD", "word": "student", "wordID": 1394, "conditions": [18, 1200, "a", 18000], "trial": 0, "serialpos": 2, "trial_type": "single-audio", "trial_index": 23, "time_elapsed": 403089, "internal_node_id": "0.0-14.0"}}, {"uniqueid": "MTK0446:3JJVG1YBEC44VYAN4K25X7CF89G5BU", "current_trial": 24, "dateTime": 1510897195307, "trialdata": {"rt": -1000, "stimulus": "/static/audio/wordpool/BARLEY.wav", "key_press": -1, "type": "PRES_AUD", "word": "barley", "wordID": 87, "conditions": [18, 1200, "a", 18000], "trial": 0, "serialpos": 3, "trial_type": "single-audio", "trial_index": 24, "time_elapsed": 405228, "internal_node_id": "0.0-15.0"}}, {"uniqueid": "MTK0446:3JJVG1YBEC44VYAN4K25X7CF89G5BU", "current_trial": 25, "dateTime": 1510897197606, "trialdata": {"rt": -1000, "stimulus": "/static/audio/wordpool/PEPPER.wav", "key_press": -1, "type": "PRES_AUD", "word": "pepper", "wordID": 1046, "conditions": [18, 1200, "a", 18000], "trial": 0, "serialpos": 4, "trial_type": "single-audio", "trial_index": 25, "time_elapsed": 407527, "internal_node_id": "0.0-16.0"}}, {"uniqueid": "MTK0446:3JJVG1YBEC44VYAN4K25X7CF89G5BU", "current_trial": 26, "dateTime": 1510897199683, "trialdata": {"rt": -1000, "stimulus": "/static/audio/wordpool/GLOVE.wav", "key_press": -1, "type": "PRES_AUD", "word": "glove", "wordID": 641, "conditions": [18, 1200, "a", 18000], "trial": 0, "serialpos": 5, "trial_type": "single-audio", "trial_index": 26, "time_elapsed": 409604, "internal_node_id": "0.0-17.0"}}, {"uniqueid": "MTK0446:3JJVG1YBEC44VYAN4K25X7CF89G5BU", "current_trial": 27, "dateTime": 1510897201736, "trialdata": {"rt": -1000, "stimulus": "/static/audio/wordpool/TUBA.wav", "key_press": -1, "type": "PRES_AUD", "word": "tuba", "wordID": 1514, "conditions": [18, 1200, "a", 18000], "trial": 0, "serialpos": 6, "trial_type": "single-audio", "trial_index": 27, "time_elapsed": 411657, "internal_node_id": "0.0-18.0"}}, {"uniqueid": "MTK0446:3JJVG1YBEC44VYAN4K25X7CF89G5BU", "current_trial": 28, "dateTime": 1510897203878, "trialdata": {"rt": -1000, "stimulus": "/static/audio/wordpool/GALLON.wav", "key_press": -1, "type": "PRES_AUD", "word": "gallon", "wordID": 617, "conditions": [18, 1200, "a", 18000], "trial": 0, "serialpos": 7, "trial_type": "single-audio", "trial_index": 28, "time_elapsed": 413799, "internal_node_id": "0.0-19.0"}}, {"uniqueid": "MTK0446:3JJVG1YBEC44VYAN4K25X7CF89G5BU", "current_trial": 29, "dateTime": 1510897205976, "trialdata": {"rt": -1000, "stimulus": "/static/audio/wordpool/PEANUT.wav", "key_press": -1, "type": "PRES_AUD", "word": "peanut", "wordID": 1031, "conditions": [18, 1200, "a", 18000], "trial": 0, "serialpos": 8, "trial_type": "single-audio", "trial_index": 29, "time_elapsed": 415897, "internal_node_id": "0.0-20.0"}}, {"uniqueid": "MTK0446:3JJVG1YBEC44VYAN4K25X7CF89G5BU", "current_trial": 30, "dateTime": 1510897208359, "trialdata": {"rt": -1000, "stimulus": "/static/audio/wordpool/BEAST.wav", "key_press": -1, "type": "PRES_AUD", "word": "beast", "wordID": 107, "conditions": [18, 1200, "a", 18000], "trial": 0, "serialpos": 9, "trial_type": "single-audio", "trial_index": 30, "time_elapsed": 418279, "internal_node_id": "0.0-21.0"}}, {"uniqueid": "MTK0446:3JJVG1YBEC44VYAN4K25X7CF89G5BU", "current_trial": 31, "dateTime": 1510897210411, "trialdata": {"rt": -1000, "stimulus": "/static/audio/wordpool/CHAPEL.wav", "key_press": -1, "type": "PRES_AUD", "word": "chapel", "wordID": 279, "conditions": [18, 1200, "a", 18000], "trial": 0, "serialpos": 10, "trial_type": "single-audio", "trial_index": 31, "time_elapsed": 420332, "internal_node_id": "0.0-22.0"}}, {"uniqueid": "MTK0446:3JJVG1YBEC44VYAN4K25X7CF89G5BU", "current_trial": 32, "dateTime": 1510897212498, "trialdata": {"rt": -1000, "stimulus": "/static/audio/wordpool/PICTURE.wav", "key_press": -1, "type": "PRES_AUD", "word": "picture", "wordID": 1060, "conditions": [18, 1200, "a", 18000], "trial": 0, "serialpos": 11, "trial_type": "single-audio", "trial_index": 32, "time_elapsed": 422419, "internal_node_id": "0.0-23.0"}}, {"uniqueid": "MTK0446:3JJVG1YBEC44VYAN4K25X7CF89G5BU", "current_trial": 33, "dateTime": 1510897214817, "trialdata": {"rt": -1000, "stimulus": "/static/audio/wordpool/MAILMAN.wav", "key_press": -1, "type": "PRES_AUD", "word": "mailman", "wordID": 857, "conditions": [18, 1200, "a", 18000], "trial": 0, "serialpos": 12, "trial_type": "single-audio", "trial_index": 33, "time_elapsed": 424738, "internal_node_id": "0.0-24.0"}}, {"uniqueid": "MTK0446:3JJVG1YBEC44VYAN4K25X7CF89G5BU", "current_trial": 34, "dateTime": 1510897216931, "trialdata": {"rt": -1000, "stimulus": "/static/audio/wordpool/SHOULDER.wav", "key_press": -1, "type": "PRES_AUD", "word": "shoulder", "wordID": 1293, "conditions": [18, 1200, "a", 18000], "trial": 0, "serialpos": 13, "trial_type": "single-audio", "trial_index": 34, "time_elapsed": 426852, "internal_node_id": "0.0-25.0"}}, {"uniqueid": "MTK0446:3JJVG1YBEC44VYAN4K25X7CF89G5BU", "current_trial": 35, "dateTime": 1510897219229, "trialdata": {"rt": -1000, "stimulus": "/static/audio/wordpool/HAND.wav", "key_press": -1, "type": "PRES_AUD", "word": "hand", "wordID": 682, "conditions": [18, 1200, "a", 18000], "trial": 0, "serialpos": 14, "trial_type": "single-audio", "trial_index": 35, "time_elapsed": 429150, "internal_node_id": "0.0-26.0"}}, {"uniqueid": "MTK0446:3JJVG1YBEC44VYAN4K25X7CF89G5BU", "current_trial": 36, "dateTime": 1510897221413, "trialdata": {"rt": -1000, "stimulus": "/static/audio/wordpool/PASTRY.wav", "key_press": -1, "type": "PRES_AUD", "word": "pastry", "wordID": 1021, "conditions": [18, 1200, "a", 18000], "trial": 0, "serialpos": 15, "trial_type": "single-audio", "trial_index": 36, "time_elapsed": 431334, "internal_node_id": "0.0-27.0"}}, {"uniqueid": "MTK0446:3JJVG1YBEC44VYAN4K25X7CF89G5BU", "current_trial": 37, "dateTime": 1510897223729, "trialdata": {"rt": -1000, "stimulus": "/static/audio/wordpool/SEAGULL.wav", "key_press": -1, "type": "PRES_AUD", "word": "seagull", "wordID": 1260, "conditions": [18, 1200, "a", 18000], "trial": 0, "serialpos": 16, "trial_type": "single-audio", "trial_index": 37, "time_elapsed": 433649, "internal_node_id": "0.0-28.0"}}, {"uniqueid": "MTK0446:3JJVG1YBEC44VYAN4K25X7CF89G5BU", "current_trial": 38, "dateTime": 1510897226016, "trialdata": {"rt": -1000, "stimulus": "/static/audio/wordpool/PISTOL.wav", "key_press": -1, "type": "PRES_AUD", "word": "pistol", "wordID": 1074, "conditions": [18, 1200, "a", 18000], "trial": 0, "serialpos": 17, "trial_type": "single-audio", "trial_index": 38, "time_elapsed": 435936, "internal_node_id": "0.0-29.0"}}, {"uniqueid": "MTK0446:3JJVG1YBEC44VYAN4K25X7CF89G5BU", "current_trial": 39, "dateTime": 1510897227300, "trialdata": {"rt": -1, "stimulus": "", "key_press": -1, "type": "PRE_RECALL_DELAY", "trial_type": "single-stim", "trial_index": 39, "time_elapsed": 437220, "internal_node_id": "0.0-30.0-0.0"}}, {"uniqueid": "MTK0446:3JJVG1YBEC44VYAN4K25X7CF89G5BU", "current_trial": 40, "dateTime": 1510897227803, "trialdata": {"rt": -1000, "stimulus": "/static/audio/400Hz.wav", "key_press": -1, "type": "PRE_RECALL_ALERT", "trial_type": "single-audio", "trial_index": 40, "time_elapsed": 437723, "internal_node_id": "0.0-31.0"}}, {"uniqueid": "MTK0446:3JJVG1YBEC44VYAN4K25X7CF89G5BU", "current_trial": 41, "dateTime": 1510897287817, "trialdata": {"rt": [12433, 19561, 29121, 35561, 41168, 45720, 50448, 55832], "recwords": ["penguin", "sword", "student", "pepper", "gallon", "glove", "peanut", "beast"], "type": "FREE_RECALL", "conditions": [18, 1200, "a", 18000], "trial": 0, "trial_type": "free-recall", "trial_index": 41, "time_elapsed": 497729, "internal_node_id": "0.0-32.0-0.0"}}, {"uniqueid": "MTK0446:3JJVG1YBEC44VYAN4K25X7CF89G5BU", "current_trial": 42, "dateTime": 1510897292238, "trialdata": {"rt": 2419, "key_press": 13, "type": "INSTRUCTIONS", "trial_type": "text", "trial_index": 42, "time_elapsed": 502159, "internal_node_id": "0.0-33.0"}}, {"uniqueid": "MTK0446:3JJVG1YBEC44VYAN4K25X7CF89G5BU", "current_trial": 43, "dateTime": 1510897312243, "trialdata": {"rt": [4238, 9948, 13212, 17492], "responses": ["7", "23", "9", "17"], "num1": [1, 7, 1, 6, 6], "num2": [4, 8, 2, 7, 4], "num3": [2, 8, 6, 4, 6], "type": "DISTRACTOR", "conditions": [18, 1200, "v", 18000], "trial": 1, "trial_type": "math-distractor", "trial_index": 43, "time_elapsed": 522164, "internal_node_id": "0.0-34.0"}}, {"uniqueid": "MTK0446:3JJVG1YBEC44VYAN4K25X7CF89G5BU", "current_trial": 44, "dateTime": 1510897315247, "trialdata": {"rt": -1, "stimulus": "<p id=\"stim\">10</p>", "key_press": -1, "trial_type": "single-stim", "trial_index": 44, "time_elapsed": 525168, "internal_node_id": "0.0-35.0-0.0"}}, {"uniqueid": "MTK0446:3JJVG1YBEC44VYAN4K25X7CF89G5BU", "current_trial": 45, "dateTime": 1510897316248, "trialdata": {"rt": -1, "stimulus": "<p id=\"stim\">9</p>", "key_press": -1, "trial_type": "single-stim", "trial_index": 45, "time_elapsed": 526169, "internal_node_id": "0.0-35.0-1.0"}}, {"uniqueid": "MTK0446:3JJVG1YBEC44VYAN4K25X7CF89G5BU", "current_trial": 46, "dateTime": 1510897317250, "trialdata": {"rt": -1, "stimulus": "<p id=\"stim\">8</p>", "key_press": -1, "trial_type": "single-stim", "trial_index": 46, "time_elapsed": 527171, "internal_node_id": "0.0-35.0-2.0"}}, {"uniqueid": "MTK0446:3JJVG1YBEC44VYAN4K25X7CF89G5BU", "current_trial": 47, "dateTime": 1510897318251, "trialdata": {"rt": -1, "stimulus": "<p id=\"stim\">7</p>", "key_press": -1, "trial_type": "single-stim", "trial_index": 47, "time_elapsed": 528172, "internal_node_id": "0.0-35.0-3.0"}}, {"uniqueid": "MTK0446:3JJVG1YBEC44VYAN4K25X7CF89G5BU", "current_trial": 48, "dateTime": 1510897319254, "trialdata": {"rt": -1, "stimulus": "<p id=\"stim\">6</p>", "key_press": -1, "trial_type": "single-stim", "trial_index": 48, "time_elapsed": 529175, "internal_node_id": "0.0-35.0-4.0"}}, {"uniqueid": "MTK0446:3JJVG1YBEC44VYAN4K25X7CF89G5BU", "current_trial": 49, "dateTime": 1510897320255, "trialdata": {"rt": -1, "stimulus": "<p id=\"stim\">5</p>", "key_press": -1, "trial_type": "single-stim", "trial_index": 49, "time_elapsed": 530176, "internal_node_id": "0.0-35.0-5.0"}}, {"uniqueid": "MTK0446:3JJVG1YBEC44VYAN4K25X7CF89G5BU", "current_trial": 50, "dateTime": 1510897321257, "trialdata": {"rt": -1, "stimulus": "<p id=\"stim\">4</p>", "key_press": -1, "trial_type": "single-stim", "trial_index": 50, "time_elapsed": 531178, "internal_node_id": "0.0-35.0-6.0"}}, {"uniqueid": "MTK0446:3JJVG1YBEC44VYAN4K25X7CF89G5BU", "current_trial": 51, "dateTime": 1510897322260, "trialdata": {"rt": -1, "stimulus": "<p id=\"stim\">3</p>", "key_press": -1, "trial_type": "single-stim", "trial_index": 51, "time_elapsed": 532180, "internal_node_id": "0.0-35.0-7.0"}}, {"uniqueid": "MTK0446:3JJVG1YBEC44VYAN4K25X7CF89G5BU", "current_trial": 52, "dateTime": 1510897323262, "trialdata": {"rt": -1, "stimulus": "<p id=\"stim\">2</p>", "key_press": -1, "trial_type": "single-stim", "trial_index": 52, "time_elapsed": 533183, "internal_node_id": "0.0-35.0-8.0"}}, {"uniqueid": "MTK0446:3JJVG1YBEC44VYAN4K25X7CF89G5BU", "current_trial": 53, "dateTime": 1510897324263, "trialdata": {"rt": -1, "stimulus": "<p id=\"stim\">1</p>", "key_press": -1, "trial_type": "single-stim", "trial_index": 53, "time_elapsed": 534184, "internal_node_id": "0.0-35.0-9.0"}}, {"uniqueid": "MTK0446:3JJVG1YBEC44VYAN4K25X7CF89G5BU", "current_trial": 54, "dateTime": 1510897325765, "trialdata": {"rt": -1, "stimulus": "<p id=\"stim\">+</p>", "key_press": -1, "type": "FIXATION", "trial_type": "single-stim", "trial_index": 54, "time_elapsed": 535685, "internal_node_id": "0.0-36.0-0.0"}}, {"uniqueid": "MTK0446:3JJVG1YBEC44VYAN4K25X7CF89G5BU", "current_trial": 55, "dateTime": 1510897326966, "trialdata": {"rt": -1, "stimulus": "<p id=\"stim\">LUMBER</p>", "key_press": -1, "type": "PRES_VIS", "word": "lumber", "wordID": 847, "conditions": [18, 1200, "v", 18000], "trial": 1, "serialpos": 0, "trial_type": "single-stim", "trial_index": 55, "time_elapsed": 536887, "internal_node_id": "0.0-37.0"}}, {"uniqueid": "MTK0446:3JJVG1YBEC44VYAN4K25X7CF89G5BU", "current_trial": 56, "dateTime": 1510897329002, "trialdata": {"rt": -1, "stimulus": "<p id=\"stim\">CLIMBER</p>", "key_press": -1, "type": "PRES_VIS", "word": "climber", "wordID": 322, "conditions": [18, 1200, "v", 18000], "trial": 1, "serialpos": 1, "trial_type": "single-stim", "trial_index": 56, "time_elapsed": 538923, "internal_node_id": "0.0-38.0"}}, {"uniqueid": "MTK0446:3JJVG1YBEC44VYAN4K25X7CF89G5BU", "current_trial": 57, "dateTime": 1510897331222, "trialdata": {"rt": -1, "stimulus": "<p id=\"stim\">MISTER</p>", "key_press": -1, "type": "PRES_VIS", "word": "mister", "wordID": 900, "conditions": [18, 1200, "v", 18000], "trial": 1, "serialpos": 2, "trial_type": "single-stim", "trial_index": 57, "time_elapsed": 541143, "internal_node_id": "0.0-39.0"}}, {"uniqueid": "MTK0446:3JJVG1YBEC44VYAN4K25X7CF89G5BU", "current_trial": 58, "dateTime": 1510897333271, "trialdata": {"rt": -1, "stimulus": "<p id=\"stim\">DRAWING</p>", "key_press": -1, "type": "PRES_VIS", "word": "drawing", "wordID": 493, "conditions": [18, 1200, "v", 18000], "trial": 1, "serialpos": 3, "trial_type": "single-stim", "trial_index": 58, "time_elapsed": 543192, "internal_node_id": "0.0-40.0"}}, {"uniqueid": "MTK0446:3JJVG1YBEC44VYAN4K25X7CF89G5BU", "current_trial": 59, "dateTime": 1510897335358, "trialdata": {"rt": -1, "stimulus": "<p id=\"stim\">SUPPER</p>", "key_press": -1, "type": "PRES_VIS", "word": "supper", "wordID": 1410, "conditions": [18, 1200, "v", 18000], "trial": 1, "serialpos": 4, "trial_type": "single-stim", "trial_index": 59, "time_elapsed": 545279, "internal_node_id": "0.0-41.0"}}, {"uniqueid": "MTK0446:3JJVG1YBEC44VYAN4K25X7CF89G5BU", "current_trial": 60, "dateTime": 1510897337553, "trialdata": {"rt": -1, "stimulus": "<p id=\"stim\">SURVEY</p>", "key_press": -1, "type": "PRES_VIS", "word": "survey", "wordID": 1413, "conditions": [18, 1200, "v", 18000], "trial": 1, "serialpos": 5, "trial_type": "single-stim", "trial_index": 60, "time_elapsed": 547473, "internal_node_id": "0.0-42.0"}}, {"uniqueid": "MTK0446:3JJVG1YBEC44VYAN4K25X7CF89G5BU", "current_trial": 61, "dateTime": 1510897339824, "trialdata": {"rt": -1, "stimulus": "<p id=\"stim\">RADISH</p>", "key_press": -1, "type": "PRES_VIS", "word": "radish", "wordID": 1157, "conditions": [18, 1200, "v", 18000], "trial": 1, "serialpos": 6, "trial_type": "single-stim", "trial_index": 61, "time_elapsed": 549745, "internal_node_id": "0.0-43.0"}}, {"uniqueid": "MTK0446:3JJVG1YBEC44VYAN4K25X7CF89G5BU", "current_trial": 62, "dateTime": 1510897342135, "trialdata": {"rt": -1, "stimulus": "<p id=\"stim\">RATTLE</p>", "key_press": -1, "type": "PRES_VIS", "word": "rattle", "wordID": 1169, "conditions": [18, 1200, "v", 18000], "trial": 1, "serialpos": 7, "trial_type": "single-stim", "trial_index": 62, "time_elapsed": 552056, "internal_node_id": "0.0-44.0"}}, {"uniqueid": "MTK0446:3JJVG1YBEC44VYAN4K25X7CF89G5BU", "current_trial": 63, "dateTime": 1510897344346, "trialdata": {"rt": -1, "stimulus": "<p id=\"stim\">DENIM</p>", "key_press": -1, "type": "PRES_VIS", "word": "denim", "wordID": 445, "conditions": [18, 1200, "v", 18000], "trial": 1, "serialpos": 8, "trial_type": "single-stim", "trial_index": 63, "time_elapsed": 554267, "internal_node_id": "0.0-45.0"}}, {"uniqueid": "MTK0446:3JJVG1YBEC44VYAN4K25X7CF89G5BU", "current_trial": 64, "dateTime": 1510897346505, "trialdata": {"rt": -1, "stimulus": "<p id=\"stim\">TEACHER</p>", "key_press": -1, "type": "PRES_VIS", "word": "teacher", "wordID": 1439, "conditions": [18, 1200, "v", 18000], "trial": 1, "serialpos": 9, "trial_type": "single-stim", "trial_index": 64, "time_elapsed": 556426, "internal_node_id": "0.0-46.0"}}, {"uniqueid": "MTK0446:3JJVG1YBEC44VYAN4K25X7CF89G5BU", "current_trial": 65, "dateTime": 1510897348667, "trialdata": {"rt": -1, "stimulus": "<p id=\"stim\">FIREMAN</p>", "key_press": -1, "type": "PRES_VIS", "word": "fireman", "wordID": 568, "conditions": [18, 1200, "v", 18000], "trial": 1, "serialpos": 10, "trial_type": "single-stim", "trial_index": 65, "time_elapsed": 558587, "internal_node_id": "0.0-47.0"}}, {"uniqueid": "MTK0446:3JJVG1YBEC44VYAN4K25X7CF89G5BU", "current_trial": 66, "dateTime": 1510897350782, "trialdata": {"rt": -1, "stimulus": "<p id=\"stim\">FILM</p>", "key_press": -1, "type": "PRES_VIS", "word": "film", "wordID": 564, "conditions": [18, 1200, "v", 18000], "trial": 1, "serialpos": 11, "trial_type": "single-stim", "trial_index": 66, "time_elapsed": 560703, "internal_node_id": "0.0-48.0"}}, {"uniqueid": "MTK0446:3JJVG1YBEC44VYAN4K25X7CF89G5BU", "current_trial": 67, "dateTime": 1510897352988, "trialdata": {"rt": -1, "stimulus": "<p id=\"stim\">WAGON</p>", "key_press": -1, "type": "PRES_VIS", "word": "wagon", "wordID": 1577, "conditions": [18, 1200, "v", 18000], "trial": 1, "serialpos": 12, "trial_type": "single-stim", "trial_index": 67, "time_elapsed": 562908, "internal_node_id": "0.0-49.0"}}, {"uniqueid": "MTK0446:3JJVG1YBEC44VYAN4K25X7CF89G5BU", "current_trial": 68, "dateTime": 1510897355178, "trialdata": {"rt": -1, "stimulus": "<p id=\"stim\">LIVER</p>", "key_press": -1, "type": "PRES_VIS", "word": "liver", "wordID": 832, "conditions": [18, 1200, "v", 18000], "trial": 1, "serialpos": 13, "trial_type": "single-stim", "trial_index": 68, "time_elapsed": 565094, "internal_node_id": "0.0-50.0"}}, {"uniqueid": "MTK0446:3JJVG1YBEC44VYAN4K25X7CF89G5BU", "current_trial": 69, "dateTime": 1510897357250, "trialdata": {"rt": -1, "stimulus": "<p id=\"stim\">POWDER</p>", "key_press": -1, "type": "PRES_VIS", "word": "powder", "wordID": 1116, "conditions": [18, 1200, "v", 18000], "trial": 1, "serialpos": 14, "trial_type": "single-stim", "trial_index": 69, "time_elapsed": 567171, "internal_node_id": "0.0-51.0"}}, {"uniqueid": "MTK0446:3JJVG1YBEC44VYAN4K25X7CF89G5BU", "current_trial": 70, "dateTime": 1510897359272, "trialdata": {"rt": -1, "stimulus": "<p id=\"stim\">TILE</p>", "key_press": -1, "type": "PRES_VIS", "word": "tile", "wordID": 1467, "conditions": [18, 1200, "v", 18000], "trial": 1, "serialpos": 15, "trial_type": "single-stim", "trial_index": 70, "time_elapsed": 569193, "internal_node_id": "0.0-52.0"}}, {"uniqueid": "MTK0446:3JJVG1YBEC44VYAN4K25X7CF89G5BU", "current_trial": 71, "dateTime": 1510897361482, "trialdata": {"rt": -1, "stimulus": "<p id=\"stim\">PEACH</p>", "key_press": -1, "type": "PRES_VIS", "word": "peach", "wordID": 1030, "conditions": [18, 1200, "v", 18000], "trial": 1, "serialpos": 16, "trial_type": "single-stim", "trial_index": 71, "time_elapsed": 571403, "internal_node_id": "0.0-53.0"}}, {"uniqueid": "MTK0446:3JJVG1YBEC44VYAN4K25X7CF89G5BU", "current_trial": 72, "dateTime": 1510897363597, "trialdata": {"rt": -1, "stimulus": "<p id=\"stim\">WOMAN</p>", "key_press": -1, "type": "PRES_VIS", "word": "woman", "wordID": 1619, "conditions": [18, 1200, "v", 18000], "trial": 1, "serialpos": 17, "trial_type": "single-stim", "trial_index": 72, "time_elapsed": 573518, "internal_node_id": "0.0-54.0"}}, {"uniqueid": "MTK0446:3JJVG1YBEC44VYAN4K25X7CF89G5BU", "current_trial": 73, "dateTime": 1510897365901, "trialdata": {"rt": -1, "stimulus": "", "key_press": -1, "type": "PRE_RECALL_DELAY", "trial_type": "single-stim", "trial_index": 73, "time_elapsed": 575821, "internal_node_id": "0.0-55.0-0.0"}}, {"uniqueid": "MTK0446:3JJVG1YBEC44VYAN4K25X7CF89G5BU", "current_trial": 74, "dateTime": 1510897366402, "trialdata": {"rt": -1000, "stimulus": "/static/audio/400Hz.wav", "key_press": -1, "type": "PRE_RECALL_ALERT", "trial_type": "single-audio", "trial_index": 74, "time_elapsed": 576323, "internal_node_id": "0.0-56.0"}}, {"uniqueid": "MTK0446:3JJVG1YBEC44VYAN4K25X7CF89G5BU", "current_trial": 75, "dateTime": 1510897426414, "trialdata": {"rt": [6018, 15929, 22434, 27769, 32825, 38874, 45177, 56826], "recwords": ["lumber", "mailman", "radish", "supper", "survey", "radish", "firefighter", "lantern"], "type": "FREE_RECALL", "conditions": [18, 1200, "v", 18000], "trial": 1, "trial_type": "free-recall", "trial_index": 75, "time_elapsed": 636329, "internal_node_id": "0.0-57.0-0.0"}}, {"uniqueid": "MTK0446:3JJVG1YBEC44VYAN4K25X7CF89G5BU", "current_trial": 76, "dateTime": 1510897431941, "trialdata": {"rt": 3517, "key_press": 13, "type": "INSTRUCTIONS", "trial_type": "text", "trial_index": 76, "time_elapsed": 641855, "internal_node_id": "0.0-58.0"}}, {"uniqueid": "MTK0446:3JJVG1YBEC44VYAN4K25X7CF89G5BU", "current_trial": 77, "dateTime": 1510897456947, "trialdata": {"rt": [3326, 8863, 12102, 15774, 18630, 22351], "responses": ["11", "23", "23", "14", "10", "16 "], "num1": [8, 7, 9, 6, 6, 6, 8], "num2": [2, 7, 5, 5, 3, 5, 6], "num3": [1, 9, 9, 3, 1, 5, 8], "type": "DISTRACTOR", "conditions": [12, 800, "a", 24000], "trial": 2, "trial_type": "math-distractor", "trial_index": 77, "time_elapsed": 666868, "internal_node_id": "0.0-59.0"}}, {"uniqueid": "MTK0446:3JJVG1YBEC44VYAN4K25X7CF89G5BU", "current_trial": 78, "dateTime": 1510897459950, "trialdata": {"rt": -1, "stimulus": "<p id=\"stim\">10</p>", "key_press": -1, "trial_type": "single-stim", "trial_index": 78, "time_elapsed": 669870, "internal_node_id": "0.0-60.0-0.0"}}, {"uniqueid": "MTK0446:3JJVG1YBEC44VYAN4K25X7CF89G5BU", "current_trial": 79, "dateTime": 1510897460952, "trialdata": {"rt": -1, "stimulus": "<p id=\"stim\">9</p>", "key_press": -1, "trial_type": "single-stim", "trial_index": 79, "time_elapsed": 670872, "internal_node_id": "0.0-60.0-1.0"}}, {"uniqueid": "MTK0446:3JJVG1YBEC44VYAN4K25X7CF89G5BU", "current_trial": 80, "dateTime": 1510897461954, "trialdata": {"rt": -1, "stimulus": "<p id=\"stim\">8</p>", "key_press": -1, "trial_type": "single-stim", "trial_index": 80, "time_elapsed": 671874, "internal_node_id": "0.0-60.0-2.0"}}, {"uniqueid": "MTK0446:3JJVG1YBEC44VYAN4K25X7CF89G5BU", "current_trial": 81, "dateTime": 1510897462955, "trialdata": {"rt": -1, "stimulus": "<p id=\"stim\">7</p>", "key_press": -1, "trial_type": "single-stim", "trial_index": 81, "time_elapsed": 672876, "internal_node_id": "0.0-60.0-3.0"}}, {"uniqueid": "MTK0446:3JJVG1YBEC44VYAN4K25X7CF89G5BU", "current_trial": 82, "dateTime": 1510897463957, "trialdata": {"rt": -1, "stimulus": "<p id=\"stim\">6</p>", "key_press": -1, "trial_type": "single-stim", "trial_index": 82, "time_elapsed": 673878, "internal_node_id": "0.0-60.0-4.0"}}, {"uniqueid": "MTK0446:3JJVG1YBEC44VYAN4K25X7CF89G5BU", "current_trial": 83, "dateTime": 1510897464960, "trialdata": {"rt": -1, "stimulus": "<p id=\"stim\">5</p>", "key_press": -1, "trial_type": "single-stim", "trial_index": 83, "time_elapsed": 674880, "internal_node_id": "0.0-60.0-5.0"}}, {"uniqueid": "MTK0446:3JJVG1YBEC44VYAN4K25X7CF89G5BU", "current_trial": 84, "dateTime": 1510897465961, "trialdata": {"rt": -1, "stimulus": "<p id=\"stim\">4</p>", "key_press": -1, "trial_type": "single-stim", "trial_index": 84, "time_elapsed": 675882, "internal_node_id": "0.0-60.0-6.0"}}, {"uniqueid": "MTK0446:3JJVG1YBEC44VYAN4K25X7CF89G5BU", "current_trial": 85, "dateTime": 1510897466963, "trialdata": {"rt": -1, "stimulus": "<p id=\"stim\">3</p>", "key_press": -1, "trial_type": "single-stim", "trial_index": 85, "time_elapsed": 676884, "internal_node_id": "0.0-60.0-7.0"}}, {"uniqueid": "MTK0446:3JJVG1YBEC44VYAN4K25X7CF89G5BU", "current_trial": 86, "dateTime": 1510897467965, "trialdata": {"rt": -1, "stimulus": "<p id=\"stim\">2</p>", "key_press": -1, "trial_type": "single-stim", "trial_index": 86, "time_elapsed": 677886, "internal_node_id": "0.0-60.0-8.0"}}, {"uniqueid": "MTK0446:3JJVG1YBEC44VYAN4K25X7CF89G5BU", "current_trial": 87, "dateTime": 1510897468968, "trialdata": {"rt": -1, "stimulus": "<p id=\"stim\">1</p>", "key_press": -1, "trial_type": "single-stim", "trial_index": 87, "time_elapsed": 678888, "internal_node_id": "0.0-60.0-9.0"}}, {"uniqueid": "MTK0446:3JJVG1YBEC44VYAN4K25X7CF89G5BU", "current_trial": 88, "dateTime": 1510897470469, "trialdata": {"rt": -1, "stimulus": "<p id=\"stim\">+</p>", "key_press": -1, "type": "FIXATION", "trial_type": "single-stim", "trial_index": 88, "time_elapsed": 680390, "internal_node_id": "0.0-61.0-0.0"}}, {"uniqueid": "MTK0446:3JJVG1YBEC44VYAN4K25X7CF89G5BU", "current_trial": 89, "dateTime": 1510897472343, "trialdata": {"rt": -1000, "stimulus": "/static/audio/wordpool/CASKET.wav", "key_press": -1, "type": "PRES_AUD", "word": "casket", "wordID": 254, "conditions": [12, 800, "a", 24000], "trial": 2, "serialpos": 0, "trial_type": "single-audio", "trial_index": 89, "time_elapsed": 682264, "internal_node_id": "0.0-62.0"}}, {"uniqueid": "MTK0446:3JJVG1YBEC44VYAN4K25X7CF89G5BU", "current_trial": 90, "dateTime": 1510897474041, "trialdata": {"rt": -1000, "stimulus": "/static/audio/wordpool/STOVE.wav", "key_press": -1, "type": "PRES_AUD", "word": "stove", "wordID": 1387, "conditions": [12, 800, "a", 24000], "trial": 2, "serialpos": 1, "trial_type": "single-audio", "trial_index": 90, "time_elapsed": 683962, "internal_node_id": "0.0-63.0"}}, {"uniqueid": "MTK0446:3JJVG1YBEC44VYAN4K25X7CF89G5BU", "current_trial": 91, "dateTime": 1510897475817, "trialdata": {"rt": -1000, "stimulus": "/static/audio/wordpool/BANJO.wav", "key_press": -1, "type": "PRES_AUD", "word": "banjo", "wordID": 81, "conditions": [12, 800, "a", 24000], "trial": 2, "serialpos": 2, "trial_type": "single-audio", "trial_index": 91, "time_elapsed": 685738, "internal_node_id": "0.0-64.0"}}, {"uniqueid": "MTK0446:3JJVG1YBEC44VYAN4K25X7CF89G5BU", "current_trial": 92, "dateTime": 1510897477687, "trialdata": {"rt": -1000, "stimulus": "/static/audio/wordpool/CREVICE.wav", "key_press": -1, "type": "PRES_AUD", "word": "crevice", "wordID": 404, "conditions": [12, 800, "a", 24000], "trial": 2, "serialpos": 3, "trial_type": "single-audio", "trial_index": 92, "time_elapsed": 687608, "internal_node_id": "0.0-65.0"}}, {"uniqueid": "MTK0446:3JJVG1YBEC44VYAN4K25X7CF89G5BU", "current_trial": 93, "dateTime": 1510897479596, "trialdata": {"rt": -1000, "stimulus": "/static/audio/wordpool/RACKET.wav", "key_press": -1, "type": "PRES_AUD", "word": "racket", "wordID": 1154, "conditions": [12, 800, "a", 24000], "trial": 2, "serialpos": 4, "trial_type": "single-audio", "trial_index": 93, "time_elapsed": 689517, "internal_node_id": "0.0-66.0"}}, {"uniqueid": "MTK0446:3JJVG1YBEC44VYAN4K25X7CF89G5BU", "current_trial": 94, "dateTime": 1510897481419, "trialdata": {"rt": -1000, "stimulus": "/static/audio/wordpool/TOMBSTONE.wav", "key_press": -1, "type": "PRES_AUD", "word": "tombstone", "wordID": 1477, "conditions": [12, 800, "a", 24000], "trial": 2, "serialpos": 5, "trial_type": "single-audio", "trial_index": 94, "time_elapsed": 691340, "internal_node_id": "0.0-67.0"}}, {"uniqueid": "MTK0446:3JJVG1YBEC44VYAN4K25X7CF89G5BU", "current_trial": 95, "dateTime": 1510897483104, "trialdata": {"rt": -1000, "stimulus": "/static/audio/wordpool/SKETCH.wav", "key_press": -1, "type": "PRES_AUD", "word": "sketch", "wordID": 1314, "conditions": [12, 800, "a", 24000], "trial": 2, "serialpos": 6, "trial_type": "single-audio", "trial_index": 95, "time_elapsed": 693025, "internal_node_id": "0.0-68.0"}}, {"uniqueid": "MTK0446:3JJVG1YBEC44VYAN4K25X7CF89G5BU", "current_trial": 96, "dateTime": 1510897485089, "trialdata": {"rt": -1000, "stimulus": "/static/audio/wordpool/TART.wav", "key_press": -1, "type": "PRES_AUD", "word": "tart", "wordID": 1435, "conditions": [12, 800, "a", 24000], "trial": 2, "serialpos": 7, "trial_type": "single-audio", "trial_index": 96, "time_elapsed": 695010, "internal_node_id": "0.0-69.0"}}, {"uniqueid": "MTK0446:3JJVG1YBEC44VYAN4K25X7CF89G5BU", "current_trial": 97, "dateTime": 1510897487081, "trialdata": {"rt": -1000, "stimulus": "/static/audio/wordpool/HOSTESS.wav", "key_press": -1, "type": "PRES_AUD", "word": "hostess", "wordID": 722, "conditions": [12, 800, "a", 24000], "trial": 2, "serialpos": 8, "trial_type": "single-audio", "trial_index": 97, "time_elapsed": 697002, "internal_node_id": "0.0-70.0"}}, {"uniqueid": "MTK0446:3JJVG1YBEC44VYAN4K25X7CF89G5BU", "current_trial": 98, "dateTime": 1510897488920, "trialdata": {"rt": -1000, "stimulus": "/static/audio/wordpool/WAITRESS.wav", "key_press": -1, "type": "PRES_AUD", "word": "waitress", "wordID": 1580, "conditions": [12, 800, "a", 24000], "trial": 2, "serialpos": 9, "trial_type": "single-audio", "trial_index": 98, "time_elapsed": 698841, "internal_node_id": "0.0-71.0"}}, {"uniqueid": "MTK0446:3JJVG1YBEC44VYAN4K25X7CF89G5BU", "current_trial": 99, "dateTime": 1510897490703, "trialdata": {"rt": -1000, "stimulus": "/static/audio/wordpool/BATHTUB.wav", "key_press": -1, "type": "PRES_AUD", "word": "bathtub", "wordID": 99, "conditions": [12, 800, "a", 24000], "trial": 2, "serialpos": 10, "trial_type": "single-audio", "trial_index": 99, "time_elapsed": 700624, "internal_node_id": "0.0-72.0"}}, {"uniqueid": "MTK0446:3JJVG1YBEC44VYAN4K25X7CF89G5BU", "current_trial": 100, "dateTime": 1510897492559, "trialdata": {"rt": -1000, "stimulus": "/static/audio/wordpool/QUARTER.wav", "key_press": -1, "type": "PRES_AUD", "word": "quarter", "wordID": 1147, "conditions": [12, 800, "a", 24000], "trial": 2, "serialpos": 11, "trial_type": "single-audio", "trial_index": 100, "time_elapsed": 702480, "internal_node_id": "0.0-73.0"}}, {"uniqueid": "MTK0446:3JJVG1YBEC44VYAN4K25X7CF89G5BU", "current_trial": 101, "dateTime": 1510897493778, "trialdata": {"rt": -1, "stimulus": "", "key_press": -1, "type": "PRE_RECALL_DELAY", "trial_type": "single-stim", "trial_index": 101, "time_elapsed": 703699, "internal_node_id": "0.0-74.0-0.0"}}, {"uniqueid": "MTK0446:3JJVG1YBEC44VYAN4K25X7CF89G5BU", "current_trial": 102, "dateTime": 1510897494280, "trialdata": {"rt": -1000, "stimulus": "/static/audio/400Hz.wav", "key_press": -1, "type": "PRE_RECALL_ALERT", "trial_type": "single-audio", "trial_index": 102, "time_elapsed": 704201, "internal_node_id": "0.0-75.0"}}, {"uniqueid": "MTK0446:3JJVG1YBEC44VYAN4K25X7CF89G5BU", "current_trial": 103, "dateTime": 1510897554292, "trialdata": {"rt": [6804, 11051, 15309, 22565, 25613, 30236, 35325, 39925, 43877, 58564], "recwords": ["waitress", "quarter", "bathtub", "raquet", "tart", "banjo", "sketch", "stove", "casket", "quarter"], "type": "FREE_RECALL", "conditions": [12, 800, "a", 24000], "trial": 2, "trial_type": "free-recall", "trial_index": 103, "time_elapsed": 764208, "internal_node_id": "0.0-76.0-0.0"}}, {"uniqueid": "MTK0446:3JJVG1YBEC44VYAN4K25X7CF89G5BU", "current_trial": 104, "dateTime": 1510897557855, "trialdata": {"rt": 1561, "key_press": 13, "type": "INSTRUCTIONS", "trial_type": "text", "trial_index": 104, "time_elapsed": 767776, "internal_node_id": "0.0-77.0"}}, {"uniqueid": "MTK0446:3JJVG1YBEC44VYAN4K25X7CF89G5BU", "current_trial": 105, "dateTime": 1510897571859, "trialdata": {"rt": [3205, 6868, 9540], "responses": ["13", "15", "7"], "num1": [8, 7, 2, 3], "num2": [3, 4, 2, 6], "num3": [2, 4, 3, 5], "type": "DISTRACTOR", "conditions": [24, 800, "v", 12000], "trial": 3, "trial_type": "math-distractor", "trial_index": 105, "time_elapsed": 781780, "internal_node_id": "0.0-78.0"}}, {"uniqueid": "MTK0446:3JJVG1YBEC44VYAN4K25X7CF89G5BU", "current_trial": 106, "dateTime": 1510897574862, "trialdata": {"rt": -1, "stimulus": "<p id=\"stim\">10</p>", "key_press": -1, "trial_type": "single-stim", "trial_index": 106, "time_elapsed": 784782, "internal_node_id": "0.0-79.0-0.0"}}, {"uniqueid": "MTK0446:3JJVG1YBEC44VYAN4K25X7CF89G5BU", "current_trial": 107, "dateTime": 1510897575863, "trialdata": {"rt": -1, "stimulus": "<p id=\"stim\">9</p>", "key_press": -1, "trial_type": "single-stim", "trial_index": 107, "time_elapsed": 785784, "internal_node_id": "0.0-79.0-1.0"}}, {"uniqueid": "MTK0446:3JJVG1YBEC44VYAN4K25X7CF89G5BU", "current_trial": 108, "dateTime": 1510897576866, "trialdata": {"rt": -1, "stimulus": "<p id=\"stim\">8</p>", "key_press": -1, "trial_type": "single-stim", "trial_index": 108, "time_elapsed": 786787, "internal_node_id": "0.0-79.0-2.0"}}, {"uniqueid": "MTK0446:3JJVG1YBEC44VYAN4K25X7CF89G5BU", "current_trial": 109, "dateTime": 1510897577868, "trialdata": {"rt": -1, "stimulus": "<p id=\"stim\">7</p>", "key_press": -1, "trial_type": "single-stim", "trial_index": 109, "time_elapsed": 787789, "internal_node_id": "0.0-79.0-3.0"}}, {"uniqueid": "MTK0446:3JJVG1YBEC44VYAN4K25X7CF89G5BU", "current_trial": 110, "dateTime": 1510897578870, "trialdata": {"rt": -1, "stimulus": "<p id=\"stim\">6</p>", "key_press": -1, "trial_type": "single-stim", "trial_index": 110, "time_elapsed": 788791, "internal_node_id": "0.0-79.0-4.0"}}, {"uniqueid": "MTK0446:3JJVG1YBEC44VYAN4K25X7CF89G5BU", "current_trial": 111, "dateTime": 1510897579872, "trialdata": {"rt": -1, "stimulus": "<p id=\"stim\">5</p>", "key_press": -1, "trial_type": "single-stim", "trial_index": 111, "time_elapsed": 789793, "internal_node_id": "0.0-79.0-5.0"}}, {"uniqueid": "MTK0446:3JJVG1YBEC44VYAN4K25X7CF89G5BU", "current_trial": 112, "dateTime": 1510897580876, "trialdata": {"rt": -1, "stimulus": "<p id=\"stim\">4</p>", "key_press": -1, "trial_type": "single-stim", "trial_index": 112, "time_elapsed": 790796, "internal_node_id": "0.0-79.0-6.0"}}, {"uniqueid": "MTK0446:3JJVG1YBEC44VYAN4K25X7CF89G5BU", "current_trial": 113, "dateTime": 1510897581878, "trialdata": {"rt": -1, "stimulus": "<p id=\"stim\">3</p>", "key_press": -1, "trial_type": "single-stim", "trial_index": 113, "time_elapsed": 791799, "internal_node_id": "0.0-79.0-7.0"}}, {"uniqueid": "MTK0446:3JJVG1YBEC44VYAN4K25X7CF89G5BU", "current_trial": 114, "dateTime": 1510897582879, "trialdata": {"rt": -1, "stimulus": "<p id=\"stim\">2</p>", "key_press": -1, "trial_type": "single-stim", "trial_index": 114, "time_elapsed": 792800, "internal_node_id": "0.0-79.0-8.0"}}, {"uniqueid": "MTK0446:3JJVG1YBEC44VYAN4K25X7CF89G5BU", "current_trial": 115, "dateTime": 1510897583882, "trialdata": {"rt": -1, "stimulus": "<p id=\"stim\">1</p>", "key_press": -1, "trial_type": "single-stim", "trial_index": 115, "time_elapsed": 793803, "internal_node_id": "0.0-79.0-9.0"}}, {"uniqueid": "MTK0446:3JJVG1YBEC44VYAN4K25X7CF89G5BU", "current_trial": 116, "dateTime": 1510897585383, "trialdata": {"rt": -1, "stimulus": "<p id=\"stim\">+</p>", "key_press": -1, "type": "FIXATION", "trial_type": "single-stim", "trial_index": 116, "time_elapsed": 795304, "internal_node_id": "0.0-80.0-0.0"}}, {"uniqueid": "MTK0446:3JJVG1YBEC44VYAN4K25X7CF89G5BU", "current_trial": 117, "dateTime": 1510897586186, "trialdata": {"rt": -1, "stimulus": "<p id=\"stim\">CRIB</p>", "key_press": -1, "type": "PRES_VIS", "word": "crib", "wordID": 406, "conditions": [24, 800, "v", 12000], "trial": 3, "serialpos": 0, "trial_type": "single-stim", "trial_index": 117, "time_elapsed": 796106, "internal_node_id": "0.0-81.0"}}, {"uniqueid": "MTK0446:3JJVG1YBEC44VYAN4K25X7CF89G5BU", "current_trial": 118, "dateTime": 1510897587887, "trialdata": {"rt": -1, "stimulus": "<p id=\"stim\">WINDOW</p>", "key_press": -1, "type": "PRES_VIS", "word": "window", "wordID": 1610, "conditions": [24, 800, "v", 12000], "trial": 3, "serialpos": 1, "trial_type": "single-stim", "trial_index": 118, "time_elapsed": 797808, "internal_node_id": "0.0-82.0"}}, {"uniqueid": "MTK0446:3JJVG1YBEC44VYAN4K25X7CF89G5BU", "current_trial": 119, "dateTime": 1510897589562, "trialdata": {"rt": -1, "stimulus": "<p id=\"stim\">BOUQUET</p>", "key_press": -1, "type": "PRES_VIS", "word": "bouquet", "wordID": 156, "conditions": [24, 800, "v", 12000], "trial": 3, "serialpos": 2, "trial_type": "single-stim", "trial_index": 119, "time_elapsed": 799483, "internal_node_id": "0.0-83.0"}}, {"uniqueid": "MTK0446:3JJVG1YBEC44VYAN4K25X7CF89G5BU", "current_trial": 120, "dateTime": 1510897591340, "trialdata": {"rt": -1, "stimulus": "<p id=\"stim\">MESSAGE</p>", "key_press": -1, "type": "PRES_VIS", "word": "message", "wordID": 887, "conditions": [24, 800, "v", 12000], "trial": 3, "serialpos": 3, "trial_type": "single-stim", "trial_index": 120, "time_elapsed": 801261, "internal_node_id": "0.0-84.0"}}, {"uniqueid": "MTK0446:3JJVG1YBEC44VYAN4K25X7CF89G5BU", "current_trial": 121, "dateTime": 1510897593277, "trialdata": {"rt": -1, "stimulus": "<p id=\"stim\">SHORTCAKE</p>", "key_press": -1, "type": "PRES_VIS", "word": "shortcake", "wordID": 1291, "conditions": [24, 800, "v", 12000], "trial": 3, "serialpos": 4, "trial_type": "single-stim", "trial_index": 121, "time_elapsed": 803198, "internal_node_id": "0.0-85.0"}}, {"uniqueid": "MTK0446:3JJVG1YBEC44VYAN4K25X7CF89G5BU", "current_trial": 122, "dateTime": 1510897595046, "trialdata": {"rt": -1, "stimulus": "<p id=\"stim\">CLOTHES</p>", "key_press": -1, "type": "PRES_VIS", "word": "clothes", "wordID": 326, "conditions": [24, 800, "v", 12000], "trial": 3, "serialpos": 5, "trial_type": "single-stim", "trial_index": 122, "time_elapsed": 804967, "internal_node_id": "0.0-86.0"}}, {"uniqueid": "MTK0446:3JJVG1YBEC44VYAN4K25X7CF89G5BU", "current_trial": 123, "dateTime": 1510897596879, "trialdata": {"rt": -1, "stimulus": "<p id=\"stim\">MATTRESS</p>", "key_press": -1, "type": "PRES_VIS", "word": "mattress", "wordID": 878, "conditions": [24, 800, "v", 12000], "trial": 3, "serialpos": 6, "trial_type": "single-stim", "trial_index": 123, "time_elapsed": 806799, "internal_node_id": "0.0-87.0"}}, {"uniqueid": "MTK0446:3JJVG1YBEC44VYAN4K25X7CF89G5BU", "current_trial": 124, "dateTime": 1510897598652, "trialdata": {"rt": -1, "stimulus": "<p id=\"stim\">RAZOR</p>", "key_press": -1, "type": "PRES_VIS", "word": "razor", "wordID": 1170, "conditions": [24, 800, "v", 12000], "trial": 3, "serialpos": 7, "trial_type": "single-stim", "trial_index": 124, "time_elapsed": 808573, "internal_node_id": "0.0-88.0"}}, {"uniqueid": "MTK0446:3JJVG1YBEC44VYAN4K25X7CF89G5BU", "current_trial": 125, "dateTime": 1510897600547, "trialdata": {"rt": -1, "stimulus": "<p id=\"stim\">SCALPEL</p>", "key_press": -1, "type": "PRES_VIS", "word": "scalpel", "wordID": 1242, "conditions": [24, 800, "v", 12000], "trial": 3, "serialpos": 8, "trial_type": "single-stim", "trial_index": 125, "time_elapsed": 810467, "internal_node_id": "0.0-89.0"}}, {"uniqueid": "MTK0446:3JJVG1YBEC44VYAN4K25X7CF89G5BU", "current_trial": 126, "dateTime": 1510897602404, "trialdata": {"rt": -1, "stimulus": "<p id=\"stim\">FIDDLE</p>", "key_press": -1, "type": "PRES_VIS", "word": "fiddle", "wordID": 560, "conditions": [24, 800, "v", 12000], "trial": 3, "serialpos": 9, "trial_type": "single-stim", "trial_index": 126, "time_elapsed": 812324, "internal_node_id": "0.0-90.0"}}, {"uniqueid": "MTK0446:3JJVG1YBEC44VYAN4K25X7CF89G5BU", "current_trial": 127, "dateTime": 1510897604189, "trialdata": {"rt": -1, "stimulus": "<p id=\"stim\">ICEBERG</p>", "key_press": -1, "type": "PRES_VIS", "word": "iceberg", "wordID": 730, "conditions": [24, 800, "v", 12000], "trial": 3, "serialpos": 10, "trial_type": "single-stim", "trial_index": 127, "time_elapsed": 814110, "internal_node_id": "0.0-91.0"}}, {"uniqueid": "MTK0446:3JJVG1YBEC44VYAN4K25X7CF89G5BU", "current_trial": 128, "dateTime": 1510897605901, "trialdata": {"rt": -1, "stimulus": "<p id=\"stim\">CROWN</p>", "key_press": -1, "type": "PRES_VIS", "word": "crown", "wordID": 414, "conditions": [24, 800, "v", 12000], "trial": 3, "serialpos": 11, "trial_type": "single-stim", "trial_index": 128, "time_elapsed": 815822, "internal_node_id": "0.0-92.0"}}, {"uniqueid": "MTK0446:3JJVG1YBEC44VYAN4K25X7CF89G5BU", "current_trial": 129, "dateTime": 1510897607717, "trialdata": {"rt": -1, "stimulus": "<p id=\"stim\">BOYFRIEND</p>", "key_press": -1, "type": "PRES_VIS", "word": "boyfriend", "wordID": 161, "conditions": [24, 800, "v", 12000], "trial": 3, "serialpos": 12, "trial_type": "single-stim", "trial_index": 129, "time_elapsed": 817637, "internal_node_id": "0.0-93.0"}}, {"uniqueid": "MTK0446:3JJVG1YBEC44VYAN4K25X7CF89G5BU", "current_trial": 130, "dateTime": 1510897609410, "trialdata": {"rt": -1, "stimulus": "<p id=\"stim\">TRUCK</p>", "key_press": -1, "type": "PRES_VIS", "word": "truck", "wordID": 1511, "conditions": [24, 800, "v", 12000], "trial": 3, "serialpos": 13, "trial_type": "single-stim", "trial_index": 130, "time_elapsed": 819330, "internal_node_id": "0.0-94.0"}}, {"uniqueid": "MTK0446:3JJVG1YBEC44VYAN4K25X7CF89G5BU", "current_trial": 131, "dateTime": 1510897611344, "trialdata": {"rt": -1, "stimulus": "<p id=\"stim\">KLEENEX</p>", "key_press": -1, "type": "PRES_VIS", "word": "kleenex", "wordID": 781, "conditions": [24, 800, "v", 12000], "trial": 3, "serialpos": 14, "trial_type": "single-stim", "trial_index": 131, "time_elapsed": 821264, "internal_node_id": "0.0-95.0"}}, {"uniqueid": "MTK0446:3JJVG1YBEC44VYAN4K25X7CF89G5BU", "current_trial": 132, "dateTime": 1510897613130, "trialdata": {"rt": -1, "stimulus": "<p id=\"stim\">HONEY</p>", "key_press": -1, "type": "PRES_VIS", "word": "honey", "wordID": 712, "conditions": [24, 800, "v", 12000], "trial": 3, "serialpos": 15, "trial_type": "single-stim", "trial_index": 132, "time_elapsed": 823051, "internal_node_id": "0.0-96.0"}}, {"uniqueid": "MTK0446:3JJVG1YBEC44VYAN4K25X7CF89G5BU", "current_trial": 133, "dateTime": 1510897615094, "trialdata": {"rt": -1, "stimulus": "<p id=\"stim\">CITRUS</p>", "key_press": -1, "type": "PRES_VIS", "word": "citrus", "wordID": 312, "conditions": [24, 800, "v", 12000], "trial": 3, "serialpos": 16, "trial_type": "single-stim", "trial_index": 133, "time_elapsed": 825015, "internal_node_id": "0.0-97.0"}}, {"uniqueid": "MTK0446:3JJVG1YBEC44VYAN4K25X7CF89G5BU", "current_trial": 134, "dateTime": 1510897616789, "trialdata": {"rt": -1, "stimulus": "<p id=\"stim\">PECAN</p>", "key_press": -1, "type": "PRES_VIS", "word": "pecan", "wordID": 1035, "conditions": [24, 800, "v", 12000], "trial": 3, "serialpos": 17, "trial_type": "single-stim", "trial_index": 134, "time_elapsed": 826709, "internal_node_id": "0.0-98.0"}}, {"uniqueid": "MTK0446:3JJVG1YBEC44VYAN4K25X7CF89G5BU", "current_trial": 135, "dateTime": 1510897618670, "trialdata": {"rt": -1, "stimulus": "<p id=\"stim\">FRECKLE</p>", "key_press": -1, "type": "PRES_VIS", "word": "freckle", "wordID": 601, "conditions": [24, 800, "v", 12000], "trial": 3, "serialpos": 18, "trial_type": "single-stim", "trial_index": 135, "time_elapsed": 828591, "internal_node_id": "0.0-99.0"}}, {"uniqueid": "MTK0446:3JJVG1YBEC44VYAN4K25X7CF89G5BU", "current_trial": 136, "dateTime": 1510897620516, "trialdata": {"rt": -1, "stimulus": "<p id=\"stim\">COOKBOOK</p>", "key_press": -1, "type": "PRES_VIS", "word": "cookbook", "wordID": 372, "conditions": [24, 800, "v", 12000], "trial": 3, "serialpos": 19, "trial_type": "single-stim", "trial_index": 136, "time_elapsed": 830437, "internal_node_id": "0.0-100.0"}}, {"uniqueid": "MTK0446:3JJVG1YBEC44VYAN4K25X7CF89G5BU", "current_trial": 137, "dateTime": 1510897622430, "trialdata": {"rt": -1, "stimulus": "<p id=\"stim\">ZIPPER</p>", "key_press": -1, "type": "PRES_VIS", "word": "zipper", "wordID": 1635, "conditions": [24, 800, "v", 12000], "trial": 3, "serialpos": 20, "trial_type": "single-stim", "trial_index": 137, "time_elapsed": 832350, "internal_node_id": "0.0-101.0"}}, {"uniqueid": "MTK0446:3JJVG1YBEC44VYAN4K25X7CF89G5BU", "current_trial": 138, "dateTime": 1510897624397, "trialdata": {"rt": -1, "stimulus": "<p id=\"stim\">JAPAN</p>", "key_press": -1, "type": "PRES_VIS", "word": "japan", "wordID": 748, "conditions": [24, 800, "v", 12000], "trial": 3, "serialpos": 21, "trial_type": "single-stim", "trial_index": 138, "time_elapsed": 834318, "internal_node_id": "0.0-102.0"}}, {"uniqueid": "MTK0446:3JJVG1YBEC44VYAN4K25X7CF89G5BU", "current_trial": 139, "dateTime": 1510897626034, "trialdata": {"rt": -1, "stimulus": "<p id=\"stim\">MILK</p>", "key_press": -1, "type": "PRES_VIS", "word": "milk", "wordID": 894, "conditions": [24, 800, "v", 12000], "trial": 3, "serialpos": 22, "trial_type": "single-stim", "trial_index": 139, "time_elapsed": 835955, "internal_node_id": "0.0-103.0"}}, {"uniqueid": "MTK0446:3JJVG1YBEC44VYAN4K25X7CF89G5BU", "current_trial": 140, "dateTime": 1510897627779, "trialdata": {"rt": -1, "stimulus": "<p id=\"stim\">DAUGHTER</p>", "key_press": -1, "type": "PRES_VIS", "word": "daughter", "wordID": 441, "conditions": [24, 800, "v", 12000], "trial": 3, "serialpos": 23, "trial_type": "single-stim", "trial_index": 140, "time_elapsed": 837699, "internal_node_id": "0.0-104.0"}}, {"uniqueid": "MTK0446:3JJVG1YBEC44VYAN4K25X7CF89G5BU", "current_trial": 141, "dateTime": 1510897630001, "trialdata": {"rt": -1, "stimulus": "", "key_press": -1, "type": "PRE_RECALL_DELAY", "trial_type": "single-stim", "trial_index": 141, "time_elapsed": 839922, "internal_node_id": "0.0-105.0-0.0"}}, {"uniqueid": "MTK0446:3JJVG1YBEC44VYAN4K25X7CF89G5BU", "current_trial": 142, "dateTime": 1510897630503, "trialdata": {"rt": -1000, "stimulus": "/static/audio/400Hz.wav", "key_press": -1, "type": "PRE_RECALL_ALERT", "trial_type": "single-audio", "trial_index": 142, "time_elapsed": 840424, "internal_node_id": "0.0-106.0"}}, {"uniqueid": "MTK0446:3JJVG1YBEC44VYAN4K25X7CF89G5BU", "current_trial": 143, "dateTime": 1510897690515, "trialdata": {"rt": [5918, 13806, 18366, 22974, 26766, 32533, 35910, 39214, 44038, 48461, 53918, 58525], "recwords": ["crib", "window", "shortcake", "mattress", "crown", "truck", "japan", "milk", "honey", "quarter", "truck", "kleenex"], "type": "FREE_RECALL", "conditions": [24, 800, "v", 12000], "trial": 3, "trial_type": "free-recall", "trial_index": 143, "time_elapsed": 900428, "internal_node_id": "0.0-107.0-0.0"}}, {"uniqueid": "MTK0446:3JJVG1YBEC44VYAN4K25X7CF89G5BU", "current_trial": 144, "dateTime": 1510897695630, "trialdata": {"rt": 3113, "key_press": 32, "type": "INSTRUCTIONS", "trial_type": "text", "trial_index": 144, "time_elapsed": 905551, "internal_node_id": "0.0-108.0"}}, {"uniqueid": "MTK0446:3JJVG1YBEC44VYAN4K25X7CF89G5BU", "current_trial": 145, "dateTime": 1510897721638, "trialdata": {"rt": [3444, 9922, 14154, 17642, 20659, 23140], "responses": ["17", "17", "15", "14", "13", "16"], "num1": [3, 4, 6, 3, 3, 7, 4], "num2": [6, 8, 3, 3, 5, 7, 7], "num3": [8, 5, 6, 8, 5, 2, 2], "type": "DISTRACTOR", "conditions": [12, 1600, "a", 24000], "trial": 4, "trial_type": "math-distractor", "trial_index": 145, "time_elapsed": 931559, "internal_node_id": "0.0-109.0"}}, {"uniqueid": "MTK0446:3JJVG1YBEC44VYAN4K25X7CF89G5BU", "current_trial": 146, "dateTime": 1510897724641, "trialdata": {"rt": -1, "stimulus": "<p id=\"stim\">10</p>", "key_press": -1, "trial_type": "single-stim", "trial_index": 146, "time_elapsed": 934562, "internal_node_id": "0.0-110.0-0.0"}}, {"uniqueid": "MTK0446:3JJVG1YBEC44VYAN4K25X7CF89G5BU", "current_trial": 147, "dateTime": 1510897725642, "trialdata": {"rt": -1, "stimulus": "<p id=\"stim\">9</p>", "key_press": -1, "trial_type": "single-stim", "trial_index": 147, "time_elapsed": 935563, "internal_node_id": "0.0-110.0-1.0"}}, {"uniqueid": "MTK0446:3JJVG1YBEC44VYAN4K25X7CF89G5BU", "current_trial": 148, "dateTime": 1510897726645, "trialdata": {"rt": -1, "stimulus": "<p id=\"stim\">8</p>", "key_press": -1, "trial_type": "single-stim", "trial_index": 148, "time_elapsed": 936565, "internal_node_id": "0.0-110.0-2.0"}}, {"uniqueid": "MTK0446:3JJVG1YBEC44VYAN4K25X7CF89G5BU", "current_trial": 149, "dateTime": 1510897727647, "trialdata": {"rt": -1, "stimulus": "<p id=\"stim\">7</p>", "key_press": -1, "trial_type": "single-stim", "trial_index": 149, "time_elapsed": 937568, "internal_node_id": "0.0-110.0-3.0"}}, {"uniqueid": "MTK0446:3JJVG1YBEC44VYAN4K25X7CF89G5BU", "current_trial": 150, "dateTime": 1510897728649, "trialdata": {"rt": -1, "stimulus": "<p id=\"stim\">6</p>", "key_press": -1, "trial_type": "single-stim", "trial_index": 150, "time_elapsed": 938569, "internal_node_id": "0.0-110.0-4.0"}}, {"uniqueid": "MTK0446:3JJVG1YBEC44VYAN4K25X7CF89G5BU", "current_trial": 151, "dateTime": 1510897729651, "trialdata": {"rt": -1, "stimulus": "<p id=\"stim\">5</p>", "key_press": -1, "trial_type": "single-stim", "trial_index": 151, "time_elapsed": 939571, "internal_node_id": "0.0-110.0-5.0"}}, {"uniqueid": "MTK0446:3JJVG1YBEC44VYAN4K25X7CF89G5BU", "current_trial": 152, "dateTime": 1510897730653, "trialdata": {"rt": -1, "stimulus": "<p id=\"stim\">4</p>", "key_press": -1, "trial_type": "single-stim", "trial_index": 152, "time_elapsed": 940574, "internal_node_id": "0.0-110.0-6.0"}}, {"uniqueid": "MTK0446:3JJVG1YBEC44VYAN4K25X7CF89G5BU", "current_trial": 153, "dateTime": 1510897731655, "trialdata": {"rt": -1, "stimulus": "<p id=\"stim\">3</p>", "key_press": -1, "trial_type": "single-stim", "trial_index": 153, "time_elapsed": 941575, "internal_node_id": "0.0-110.0-7.0"}}, {"uniqueid": "MTK0446:3JJVG1YBEC44VYAN4K25X7CF89G5BU", "current_trial": 154, "dateTime": 1510897732657, "trialdata": {"rt": -1, "stimulus": "<p id=\"stim\">2</p>", "key_press": -1, "trial_type": "single-stim", "trial_index": 154, "time_elapsed": 942577, "internal_node_id": "0.0-110.0-8.0"}}, {"uniqueid": "MTK0446:3JJVG1YBEC44VYAN4K25X7CF89G5BU", "current_trial": 155, "dateTime": 1510897733658, "trialdata": {"rt": -1, "stimulus": "<p id=\"stim\">1</p>", "key_press": -1, "trial_type": "single-stim", "trial_index": 155, "time_elapsed": 943579, "internal_node_id": "0.0-110.0-9.0"}}, {"uniqueid": "MTK0446:3JJVG1YBEC44VYAN4K25X7CF89G5BU", "current_trial": 156, "dateTime": 1510897735161, "trialdata": {"rt": -1, "stimulus": "<p id=\"stim\">+</p>", "key_press": -1, "type": "FIXATION", "trial_type": "single-stim", "trial_index": 156, "time_elapsed": 945082, "internal_node_id": "0.0-111.0-0.0"}}, {"uniqueid": "MTK0446:3JJVG1YBEC44VYAN4K25X7CF89G5BU", "current_trial": 157, "dateTime": 1510897737591, "trialdata": {"rt": -1000, "stimulus": "/static/audio/wordpool/TABLET.wav", "key_press": -1, "type": "PRES_AUD", "word": "tablet", "wordID": 1426, "conditions": [12, 1600, "a", 24000], "trial": 4, "serialpos": 0, "trial_type": "single-audio", "trial_index": 157, "time_elapsed": 947512, "internal_node_id": "0.0-112.0"}}, {"uniqueid": "MTK0446:3JJVG1YBEC44VYAN4K25X7CF89G5BU", "current_trial": 158, "dateTime": 1510897740036, "trialdata": {"rt": -1000, "stimulus": "/static/audio/wordpool/HUSBAND.wav", "key_press": -1, "type": "PRES_AUD", "word": "husband", "wordID": 727, "conditions": [12, 1600, "a", 24000], "trial": 4, "serialpos": 1, "trial_type": "single-audio", "trial_index": 158, "time_elapsed": 949957, "internal_node_id": "0.0-113.0"}}, {"uniqueid": "MTK0446:3JJVG1YBEC44VYAN4K25X7CF89G5BU", "current_trial": 159, "dateTime": 1510897742777, "trialdata": {"rt": -1000, "stimulus": "/static/audio/wordpool/TURNIP.wav", "key_press": -1, "type": "PRES_AUD", "word": "turnip", "wordID": 1520, "conditions": [12, 1600, "a", 24000], "trial": 4, "serialpos": 2, "trial_type": "single-audio", "trial_index": 159, "time_elapsed": 952698, "internal_node_id": "0.0-114.0"}}, {"uniqueid": "MTK0446:3JJVG1YBEC44VYAN4K25X7CF89G5BU", "current_trial": 160, "dateTime": 1510897745559, "trialdata": {"rt": -1000, "stimulus": "/static/audio/wordpool/DRAGON.wav", "key_press": -1, "type": "PRES_AUD", "word": "dragon", "wordID": 491, "conditions": [12, 1600, "a", 24000], "trial": 4, "serialpos": 3, "trial_type": "single-audio", "trial_index": 160, "time_elapsed": 955480, "internal_node_id": "0.0-115.0"}}, {"uniqueid": "MTK0446:3JJVG1YBEC44VYAN4K25X7CF89G5BU", "current_trial": 161, "dateTime": 1510897748344, "trialdata": {"rt": -1000, "stimulus": "/static/audio/wordpool/BROTHER.wav", "key_press": -1, "type": "PRES_AUD", "word": "brother", "wordID": 178, "conditions": [12, 1600, "a", 24000], "trial": 4, "serialpos": 4, "trial_type": "single-audio", "trial_index": 161, "time_elapsed": 958265, "internal_node_id": "0.0-116.0"}}, {"uniqueid": "MTK0446:3JJVG1YBEC44VYAN4K25X7CF89G5BU", "current_trial": 162, "dateTime": 1510897750959, "trialdata": {"rt": -1000, "stimulus": "/static/audio/wordpool/SANDWICH.wav", "key_press": -1, "type": "PRES_AUD", "word": "sandwich", "wordID": 1231, "conditions": [12, 1600, "a", 24000], "trial": 4, "serialpos": 5, "trial_type": "single-audio", "trial_index": 162, "time_elapsed": 960880, "internal_node_id": "0.0-117.0"}}, {"uniqueid": "MTK0446:3JJVG1YBEC44VYAN4K25X7CF89G5BU", "current_trial": 163, "dateTime": 1510897753740, "trialdata": {"rt": -1000, "stimulus": "/static/audio/wordpool/SISTER.wav", "key_press": -1, "type": "PRES_AUD", "word": "sister", "wordID": 1311, "conditions": [12, 1600, "a", 24000], "trial": 4, "serialpos": 6, "trial_type": "single-audio", "trial_index": 163, "time_elapsed": 963661, "internal_node_id": "0.0-118.0"}}, {"uniqueid": "MTK0446:3JJVG1YBEC44VYAN4K25X7CF89G5BU", "current_trial": 164, "dateTime": 1510897756146, "trialdata": {"rt": -1000, "stimulus": "/static/audio/wordpool/LOVER.wav", "key_press": -1, "type": "PRES_AUD", "word": "lover", "wordID": 845, "conditions": [12, 1600, "a", 24000], "trial": 4, "serialpos": 7, "trial_type": "single-audio", "trial_index": 164, "time_elapsed": 966067, "internal_node_id": "0.0-119.0"}}, {"uniqueid": "MTK0446:3JJVG1YBEC44VYAN4K25X7CF89G5BU", "current_trial": 165, "dateTime": 1510897758772, "trialdata": {"rt": -1000, "stimulus": "/static/audio/wordpool/NOVEL.wav", "key_press": -1, "type": "PRES_AUD", "word": "novel", "wordID": 959, "conditions": [12, 1600, "a", 24000], "trial": 4, "serialpos": 8, "trial_type": "single-audio", "trial_index": 165, "time_elapsed": 968693, "internal_node_id": "0.0-120.0"}}, {"uniqueid": "MTK0446:3JJVG1YBEC44VYAN4K25X7CF89G5BU", "current_trial": 166, "dateTime": 1510897761389, "trialdata": {"rt": -1000, "stimulus": "/static/audio/wordpool/FRAGRANCE.wav", "key_press": -1, "type": "PRES_AUD", "word": "fragrance", "wordID": 598, "conditions": [12, 1600, "a", 24000], "trial": 4, "serialpos": 9, "trial_type": "single-audio", "trial_index": 166, "time_elapsed": 971310, "internal_node_id": "0.0-121.0"}}, {"uniqueid": "MTK0446:3JJVG1YBEC44VYAN4K25X7CF89G5BU", "current_trial": 167, "dateTime": 1510897763794, "trialdata": {"rt": -1000, "stimulus": "/static/audio/wordpool/PERFUME.wav", "key_press": -1, "type": "PRES_AUD", "word": "perfume", "wordID": 1048, "conditions": [12, 1600, "a", 24000], "trial": 4, "serialpos": 10, "trial_type": "single-audio", "trial_index": 167, "time_elapsed": 973715, "internal_node_id": "0.0-122.0"}}, {"uniqueid": "MTK0446:3JJVG1YBEC44VYAN4K25X7CF89G5BU", "current_trial": 168, "dateTime": 1510897766557, "trialdata": {"rt": -1000, "stimulus": "/static/audio/wordpool/BINDER.wav", "key_press": -1, "type": "PRES_AUD", "word": "binder", "wordID": 126, "conditions": [12, 1600, "a", 24000], "trial": 4, "serialpos": 11, "trial_type": "single-audio", "trial_index": 168, "time_elapsed": 976478, "internal_node_id": "0.0-123.0"}}, {"uniqueid": "MTK0446:3JJVG1YBEC44VYAN4K25X7CF89G5BU", "current_trial": 169, "dateTime": 1510897767874, "trialdata": {"rt": -1, "stimulus": "", "key_press": -1, "type": "PRE_RECALL_DELAY", "trial_type": "single-stim", "trial_index": 169, "time_elapsed": 977795, "internal_node_id": "0.0-124.0-0.0"}}, {"uniqueid": "MTK0446:3JJVG1YBEC44VYAN4K25X7CF89G5BU", "current_trial": 170, "dateTime": 1510897768377, "trialdata": {"rt": -1000, "stimulus": "/static/audio/400Hz.wav", "key_press": -1, "type": "PRE_RECALL_ALERT", "trial_type": "single-audio", "trial_index": 170, "time_elapsed": 978297, "internal_node_id": "0.0-125.0"}}, {"uniqueid": "MTK0446:3JJVG1YBEC44VYAN4K25X7CF89G5BU", "current_trial": 171, "dateTime": 1510897828392, "trialdata": {"rt": [8474, 15507, 20059, 29594, 35482, 38851, 42747, 46211, 51658], "recwords": ["husband", "dragon", "brother", "sister", "fragrance", "lover", "perfume", "novel", "binder"], "type": "FREE_RECALL", "conditions": [12, 1600, "a", 24000], "trial": 4, "trial_type": "free-recall", "trial_index": 171, "time_elapsed": 1038304, "internal_node_id": "0.0-126.0-0.0"}}, {"uniqueid": "MTK0446:3JJVG1YBEC44VYAN4K25X7CF89G5BU", "current_trial": 172, "dateTime": 1510897833974, "trialdata": {"rt": 3580, "key_press": 13, "type": "INSTRUCTIONS", "trial_type": "text", "trial_index": 172, "time_elapsed": 1043894, "internal_node_id": "0.0-127.0"}}, {"uniqueid": "MTK0446:3JJVG1YBEC44VYAN4K25X7CF89G5BU", "current_trial": 173, "dateTime": 1510897859980, "trialdata": {"rt": [2964, 6550, 9477, 14108, 16716, 19620, 21701], "responses": ["17", "14", "14", "6", "18", "20", "11"], "num1": [5, 9, 7, 1, 2, 9, 4, 9], "num2": [3, 3, 1, 3, 8, 9, 1, 3], "num3": [9, 2, 6, 2, 8, 2, 6, 8], "type": "DISTRACTOR", "conditions": [12, 1600, "v", 24000], "trial": 5, "trial_type": "math-distractor", "trial_index": 173, "time_elapsed": 1069901, "internal_node_id": "0.0-128.0"}}, {"uniqueid": "MTK0446:3JJVG1YBEC44VYAN4K25X7CF89G5BU", "current_trial": 174, "dateTime": 1510897862982, "trialdata": {"rt": -1, "stimulus": "<p id=\"stim\">10</p>", "key_press": -1, "trial_type": "single-stim", "trial_index": 174, "time_elapsed": 1072903, "internal_node_id": "0.0-129.0-0.0"}}, {"uniqueid": "MTK0446:3JJVG1YBEC44VYAN4K25X7CF89G5BU", "current_trial": 175, "dateTime": 1510897863984, "trialdata": {"rt": -1, "stimulus": "<p id=\"stim\">9</p>", "key_press": -1, "trial_type": "single-stim", "trial_index": 175, "time_elapsed": 1073905, "internal_node_id": "0.0-129.0-1.0"}}, {"uniqueid": "MTK0446:3JJVG1YBEC44VYAN4K25X7CF89G5BU", "current_trial": 176, "dateTime": 1510897864986, "trialdata": {"rt": -1, "stimulus": "<p id=\"stim\">8</p>", "key_press": -1, "trial_type": "single-stim", "trial_index": 176, "time_elapsed": 1074907, "internal_node_id": "0.0-129.0-2.0"}}, {"uniqueid": "MTK0446:3JJVG1YBEC44VYAN4K25X7CF89G5BU", "current_trial": 177, "dateTime": 1510897865989, "trialdata": {"rt": -1, "stimulus": "<p id=\"stim\">7</p>", "key_press": -1, "trial_type": "single-stim", "trial_index": 177, "time_elapsed": 1075909, "internal_node_id": "0.0-129.0-3.0"}}, {"uniqueid": "MTK0446:3JJVG1YBEC44VYAN4K25X7CF89G5BU", "current_trial": 178, "dateTime": 1510897866991, "trialdata": {"rt": -1, "stimulus": "<p id=\"stim\">6</p>", "key_press": -1, "trial_type": "single-stim", "trial_index": 178, "time_elapsed": 1076911, "internal_node_id": "0.0-129.0-4.0"}}, {"uniqueid": "MTK0446:3JJVG1YBEC44VYAN4K25X7CF89G5BU", "current_trial": 179, "dateTime": 1510897867993, "trialdata": {"rt": -1, "stimulus": "<p id=\"stim\">5</p>", "key_press": -1, "trial_type": "single-stim", "trial_index": 179, "time_elapsed": 1077913, "internal_node_id": "0.0-129.0-5.0"}}, {"uniqueid": "MTK0446:3JJVG1YBEC44VYAN4K25X7CF89G5BU", "current_trial": 180, "dateTime": 1510897868994, "trialdata": {"rt": -1, "stimulus": "<p id=\"stim\">4</p>", "key_press": -1, "trial_type": "single-stim", "trial_index": 180, "time_elapsed": 1078915, "internal_node_id": "0.0-129.0-6.0"}}, {"uniqueid": "MTK0446:3JJVG1YBEC44VYAN4K25X7CF89G5BU", "current_trial": 181, "dateTime": 1510897869996, "trialdata": {"rt": -1, "stimulus": "<p id=\"stim\">3</p>", "key_press": -1, "trial_type": "single-stim", "trial_index": 181, "time_elapsed": 1079917, "internal_node_id": "0.0-129.0-7.0"}}, {"uniqueid": "MTK0446:3JJVG1YBEC44VYAN4K25X7CF89G5BU", "current_trial": 182, "dateTime": 1510897870999, "trialdata": {"rt": -1, "stimulus": "<p id=\"stim\">2</p>", "key_press": -1, "trial_type": "single-stim", "trial_index": 182, "time_elapsed": 1080919, "internal_node_id": "0.0-129.0-8.0"}}, {"uniqueid": "MTK0446:3JJVG1YBEC44VYAN4K25X7CF89G5BU", "current_trial": 183, "dateTime": 1510897872000, "trialdata": {"rt": -1, "stimulus": "<p id=\"stim\">1</p>", "key_press": -1, "trial_type": "single-stim", "trial_index": 183, "time_elapsed": 1081921, "internal_node_id": "0.0-129.0-9.0"}}, {"uniqueid": "MTK0446:3JJVG1YBEC44VYAN4K25X7CF89G5BU", "current_trial": 184, "dateTime": 1510897873503, "trialdata": {"rt": -1, "stimulus": "<p id=\"stim\">+</p>", "key_press": -1, "type": "FIXATION", "trial_type": "single-stim", "trial_index": 184, "time_elapsed": 1083423, "internal_node_id": "0.0-130.0-0.0"}}, {"uniqueid": "MTK0446:3JJVG1YBEC44VYAN4K25X7CF89G5BU", "current_trial": 185, "dateTime": 1510897875105, "trialdata": {"rt": -1, "stimulus": "<p id=\"stim\">OYSTER</p>", "key_press": -1, "type": "PRES_VIS", "word": "oyster", "wordID": 994, "conditions": [12, 1600, "v", 24000], "trial": 5, "serialpos": 0, "trial_type": "single-stim", "trial_index": 185, "time_elapsed": 1085026, "internal_node_id": "0.0-131.0"}}, {"uniqueid": "MTK0446:3JJVG1YBEC44VYAN4K25X7CF89G5BU", "current_trial": 186, "dateTime": 1510897877771, "trialdata": {"rt": -1, "stimulus": "<p id=\"stim\">PORK</p>", "key_press": -1, "type": "PRES_VIS", "word": "pork", "wordID": 1107, "conditions": [12, 1600, "v", 24000], "trial": 5, "serialpos": 1, "trial_type": "single-stim", "trial_index": 186, "time_elapsed": 1087691, "internal_node_id": "0.0-132.0"}}, {"uniqueid": "MTK0446:3JJVG1YBEC44VYAN4K25X7CF89G5BU", "current_trial": 187, "dateTime": 1510897880467, "trialdata": {"rt": -1, "stimulus": "<p id=\"stim\">BACON</p>", "key_press": -1, "type": "PRES_VIS", "word": "bacon", "wordID": 66, "conditions": [12, 1600, "v", 24000], "trial": 5, "serialpos": 2, "trial_type": "single-stim", "trial_index": 187, "time_elapsed": 1090388, "internal_node_id": "0.0-133.0"}}, {"uniqueid": "MTK0446:3JJVG1YBEC44VYAN4K25X7CF89G5BU", "current_trial": 188, "dateTime": 1510897882991, "trialdata": {"rt": -1, "stimulus": "<p id=\"stim\">DRIVER</p>", "key_press": -1, "type": "PRES_VIS", "word": "driver", "wordID": 498, "conditions": [12, 1600, "v", 24000], "trial": 5, "serialpos": 3, "trial_type": "single-stim", "trial_index": 188, "time_elapsed": 1092912, "internal_node_id": "0.0-134.0"}}, {"uniqueid": "MTK0446:3JJVG1YBEC44VYAN4K25X7CF89G5BU", "current_trial": 189, "dateTime": 1510897885678, "trialdata": {"rt": -1, "stimulus": "<p id=\"stim\">POSSUM</p>", "key_press": -1, "type": "PRES_VIS", "word": "possum", "wordID": 1111, "conditions": [12, 1600, "v", 24000], "trial": 5, "serialpos": 4, "trial_type": "single-stim", "trial_index": 189, "time_elapsed": 1095599, "internal_node_id": "0.0-135.0"}}, {"uniqueid": "MTK0446:3JJVG1YBEC44VYAN4K25X7CF89G5BU", "current_trial": 190, "dateTime": 1510897888095, "trialdata": {"rt": -1, "stimulus": "<p id=\"stim\">CASHIER</p>", "key_press": -1, "type": "PRES_VIS", "word": "cashier", "wordID": 253, "conditions": [12, 1600, "v", 24000], "trial": 5, "serialpos": 5, "trial_type": "single-stim", "trial_index": 190, "time_elapsed": 1098016, "internal_node_id": "0.0-136.0"}}, {"uniqueid": "MTK0446:3JJVG1YBEC44VYAN4K25X7CF89G5BU", "current_trial": 191, "dateTime": 1510897890798, "trialdata": {"rt": -1, "stimulus": "<p id=\"stim\">PIANO</p>", "key_press": -1, "type": "PRES_VIS", "word": "piano", "wordID": 1056, "conditions": [12, 1600, "v", 24000], "trial": 5, "serialpos": 6, "trial_type": "single-stim", "trial_index": 191, "time_elapsed": 1100719, "internal_node_id": "0.0-137.0"}}, {"uniqueid": "MTK0446:3JJVG1YBEC44VYAN4K25X7CF89G5BU", "current_trial": 192, "dateTime": 1510897893500, "trialdata": {"rt": -1, "stimulus": "<p id=\"stim\">SCALLOP</p>", "key_press": -1, "type": "PRES_VIS", "word": "scallop", "wordID": 1241, "conditions": [12, 1600, "v", 24000], "trial": 5, "serialpos": 7, "trial_type": "single-stim", "trial_index": 192, "time_elapsed": 1103420, "internal_node_id": "0.0-138.0"}}, {"uniqueid": "MTK0446:3JJVG1YBEC44VYAN4K25X7CF89G5BU", "current_trial": 193, "dateTime": 1510897896122, "trialdata": {"rt": -1, "stimulus": "<p id=\"stim\">BODY</p>", "key_press": -1, "type": "PRES_VIS", "word": "body", "wordID": 144, "conditions": [12, 1600, "v", 24000], "trial": 5, "serialpos": 8, "trial_type": "single-stim", "trial_index": 193, "time_elapsed": 1106043, "internal_node_id": "0.0-139.0"}}, {"uniqueid": "MTK0446:3JJVG1YBEC44VYAN4K25X7CF89G5BU", "current_trial": 194, "dateTime": 1510897898873, "trialdata": {"rt": -1, "stimulus": "<p id=\"stim\">SCARF</p>", "key_press": -1, "type": "PRES_VIS", "word": "scarf", "wordID": 1245, "conditions": [12, 1600, "v", 24000], "trial": 5, "serialpos": 9, "trial_type": "single-stim", "trial_index": 194, "time_elapsed": 1108794, "internal_node_id": "0.0-140.0"}}, {"uniqueid": "MTK0446:3JJVG1YBEC44VYAN4K25X7CF89G5BU", "current_trial": 195, "dateTime": 1510897901476, "trialdata": {"rt": -1, "stimulus": "<p id=\"stim\">SLOPE</p>", "key_press": -1, "type": "PRES_VIS", "word": "slope", "wordID": 1327, "conditions": [12, 1600, "v", 24000], "trial": 5, "serialpos": 10, "trial_type": "single-stim", "trial_index": 195, "time_elapsed": 1111397, "internal_node_id": "0.0-141.0"}}, {"uniqueid": "MTK0446:3JJVG1YBEC44VYAN4K25X7CF89G5BU", "current_trial": 196, "dateTime": 1510897904002, "trialdata": {"rt": -1, "stimulus": "<p id=\"stim\">WAITER</p>", "key_press": -1, "type": "PRES_VIS", "word": "waiter", "wordID": 1579, "conditions": [12, 1600, "v", 24000], "trial": 5, "serialpos": 11, "trial_type": "single-stim", "trial_index": 196, "time_elapsed": 1113923, "internal_node_id": "0.0-142.0"}}, {"uniqueid": "MTK0446:3JJVG1YBEC44VYAN4K25X7CF89G5BU", "current_trial": 197, "dateTime": 1510897906291, "trialdata": {"rt": -1, "stimulus": "", "key_press": -1, "type": "PRE_RECALL_DELAY", "trial_type": "single-stim", "trial_index": 197, "time_elapsed": 1116211, "internal_node_id": "0.0-143.0-0.0"}}, {"uniqueid": "MTK0446:3JJVG1YBEC44VYAN4K25X7CF89G5BU", "current_trial": 198, "dateTime": 1510897906792, "trialdata": {"rt": -1000, "stimulus": "/static/audio/400Hz.wav", "key_press": -1, "type": "PRE_RECALL_ALERT", "trial_type": "single-audio", "trial_index": 198, "time_elapsed": 1116713, "internal_node_id": "0.0-144.0"}}, {"uniqueid": "MTK0446:3JJVG1YBEC44VYAN4K25X7CF89G5BU", "current_trial": 199, "dateTime": 1510897966810, "trialdata": {"rt": [8715, 12643, 20228, 25998, 32309, 40661, 46325], "recwords": ["bacon", "pork", "possum", "piano", "scallop", "slope", "waiter"], "type": "FREE_RECALL", "conditions": [12, 1600, "v", 24000], "trial": 5, "trial_type": "free-recall", "trial_index": 199, "time_elapsed": 1176721, "internal_node_id": "0.0-145.0-0.0"}}, {"uniqueid": "MTK0446:3JJVG1YBEC44VYAN4K25X7CF89G5BU", "current_trial": 200, "dateTime": 1510897971095, "trialdata": {"rt": 2283, "key_press": 13, "type": "INSTRUCTIONS", "trial_type": "text", "trial_index": 200, "time_elapsed": 1181015, "internal_node_id": "0.0-146.0"}}, {"uniqueid": "MTK0446:3JJVG1YBEC44VYAN4K25X7CF89G5BU", "current_trial": 201, "dateTime": 1510897985100, "trialdata": {"rt": [5326, 7918, 10934], "responses": ["21", "16", "13"], "num1": [8, 6, 2, 5], "num2": [5, 5, 7, 8], "num3": [8, 5, 4, 8], "type": "DISTRACTOR", "conditions": [12, 800, "a", 12000], "trial": 6, "trial_type": "math-distractor", "trial_index": 201, "time_elapsed": 1195020, "internal_node_id": "0.0-147.0"}}, {"uniqueid": "MTK0446:3JJVG1YBEC44VYAN4K25X7CF89G5BU", "current_trial": 202, "dateTime": 1510897988101, "trialdata": {"rt": -1, "stimulus": "<p id=\"stim\">10</p>", "key_press": -1, "trial_type": "single-stim", "trial_index": 202, "time_elapsed": 1198022, "internal_node_id": "0.0-148.0-0.0"}}, {"uniqueid": "MTK0446:3JJVG1YBEC44VYAN4K25X7CF89G5BU", "current_trial": 203, "dateTime": 1510897989103, "trialdata": {"rt": -1, "stimulus": "<p id=\"stim\">9</p>", "key_press": -1, "trial_type": "single-stim", "trial_index": 203, "time_elapsed": 1199024, "internal_node_id": "0.0-148.0-1.0"}}, {"uniqueid": "MTK0446:3JJVG1YBEC44VYAN4K25X7CF89G5BU", "current_trial": 204, "dateTime": 1510897990105, "trialdata": {"rt": -1, "stimulus": "<p id=\"stim\">8</p>", "key_press": -1, "trial_type": "single-stim", "trial_index": 204, "time_elapsed": 1200026, "internal_node_id": "0.0-148.0-2.0"}}, {"uniqueid": "MTK0446:3JJVG1YBEC44VYAN4K25X7CF89G5BU", "current_trial": 205, "dateTime": 1510897991107, "trialdata": {"rt": -1, "stimulus": "<p id=\"stim\">7</p>", "key_press": -1, "trial_type": "single-stim", "trial_index": 205, "time_elapsed": 1201028, "internal_node_id": "0.0-148.0-3.0"}}, {"uniqueid": "MTK0446:3JJVG1YBEC44VYAN4K25X7CF89G5BU", "current_trial": 206, "dateTime": 1510897992109, "trialdata": {"rt": -1, "stimulus": "<p id=\"stim\">6</p>", "key_press": -1, "trial_type": "single-stim", "trial_index": 206, "time_elapsed": 1202030, "internal_node_id": "0.0-148.0-4.0"}}, {"uniqueid": "MTK0446:3JJVG1YBEC44VYAN4K25X7CF89G5BU", "current_trial": 207, "dateTime": 1510897993111, "trialdata": {"rt": -1, "stimulus": "<p id=\"stim\">5</p>", "key_press": -1, "trial_type": "single-stim", "trial_index": 207, "time_elapsed": 1203032, "internal_node_id": "0.0-148.0-5.0"}}, {"uniqueid": "MTK0446:3JJVG1YBEC44VYAN4K25X7CF89G5BU", "current_trial": 208, "dateTime": 1510897994113, "trialdata": {"rt": -1, "stimulus": "<p id=\"stim\">4</p>", "key_press": -1, "trial_type": "single-stim", "trial_index": 208, "time_elapsed": 1204034, "internal_node_id": "0.0-148.0-6.0"}}, {"uniqueid": "MTK0446:3JJVG1YBEC44VYAN4K25X7CF89G5BU", "current_trial": 209, "dateTime": 1510897995116, "trialdata": {"rt": -1, "stimulus": "<p id=\"stim\">3</p>", "key_press": -1, "trial_type": "single-stim", "trial_index": 209, "time_elapsed": 1205036, "internal_node_id": "0.0-148.0-7.0"}}, {"uniqueid": "MTK0446:3JJVG1YBEC44VYAN4K25X7CF89G5BU", "current_trial": 210, "dateTime": 1510897996117, "trialdata": {"rt": -1, "stimulus": "<p id=\"stim\">2</p>", "key_press": -1, "trial_type": "single-stim", "trial_index": 210, "time_elapsed": 1206038, "internal_node_id": "0.0-148.0-8.0"}}, {"uniqueid": "MTK0446:3JJVG1YBEC44VYAN4K25X7CF89G5BU", "current_trial": 211, "dateTime": 1510897997121, "trialdata": {"rt": -1, "stimulus": "<p id=\"stim\">1</p>", "key_press": -1, "trial_type": "single-stim", "trial_index": 211, "time_elapsed": 1207041, "internal_node_id": "0.0-148.0-9.0"}}, {"uniqueid": "MTK0446:3JJVG1YBEC44VYAN4K25X7CF89G5BU", "current_trial": 212, "dateTime": 1510897998622, "trialdata": {"rt": -1, "stimulus": "<p id=\"stim\">+</p>", "key_press": -1, "type": "FIXATION", "trial_type": "single-stim", "trial_index": 212, "time_elapsed": 1208543, "internal_node_id": "0.0-149.0-0.0"}}, {"uniqueid": "MTK0446:3JJVG1YBEC44VYAN4K25X7CF89G5BU", "current_trial": 213, "dateTime": 1510898000493, "trialdata": {"rt": -1000, "stimulus": "/static/audio/wordpool/TURTLE.wav", "key_press": -1, "type": "PRES_AUD", "word": "turtle", "wordID": 1521, "conditions": [12, 800, "a", 12000], "trial": 6, "serialpos": 0, "trial_type": "single-audio", "trial_index": 213, "time_elapsed": 1210414, "internal_node_id": "0.0-150.0"}}, {"uniqueid": "MTK0446:3JJVG1YBEC44VYAN4K25X7CF89G5BU", "current_trial": 214, "dateTime": 1510898002234, "trialdata": {"rt": -1000, "stimulus": "/static/audio/wordpool/THIEF.wav", "key_press": -1, "type": "PRES_AUD", "word": "thief", "wordID": 1455, "conditions": [12, 800, "a", 12000], "trial": 6, "serialpos": 1, "trial_type": "single-audio", "trial_index": 214, "time_elapsed": 1212155, "internal_node_id": "0.0-151.0"}}, {"uniqueid": "MTK0446:3JJVG1YBEC44VYAN4K25X7CF89G5BU", "current_trial": 215, "dateTime": 1510898004201, "trialdata": {"rt": -1000, "stimulus": "/static/audio/wordpool/BALLOON.wav", "key_press": -1, "type": "PRES_AUD", "word": "balloon", "wordID": 74, "conditions": [12, 800, "a", 12000], "trial": 6, "serialpos": 2, "trial_type": "single-audio", "trial_index": 215, "time_elapsed": 1214122, "internal_node_id": "0.0-152.0"}}, {"uniqueid": "MTK0446:3JJVG1YBEC44VYAN4K25X7CF89G5BU", "current_trial": 216, "dateTime": 1510898006175, "trialdata": {"rt": -1000, "stimulus": "/static/audio/wordpool/PANTHER.wav", "key_press": -1, "type": "PRES_AUD", "word": "panther", "wordID": 1008, "conditions": [12, 800, "a", 12000], "trial": 6, "serialpos": 3, "trial_type": "single-audio", "trial_index": 216, "time_elapsed": 1216096, "internal_node_id": "0.0-153.0"}}, {"uniqueid": "MTK0446:3JJVG1YBEC44VYAN4K25X7CF89G5BU", "current_trial": 217, "dateTime": 1510898007915, "trialdata": {"rt": -1000, "stimulus": "/static/audio/wordpool/HAMPER.wav", "key_press": -1, "type": "PRES_AUD", "word": "hamper", "wordID": 681, "conditions": [12, 800, "a", 12000], "trial": 6, "serialpos": 4, "trial_type": "single-audio", "trial_index": 217, "time_elapsed": 1217836, "internal_node_id": "0.0-154.0"}}, {"uniqueid": "MTK0446:3JJVG1YBEC44VYAN4K25X7CF89G5BU", "current_trial": 218, "dateTime": 1510898009866, "trialdata": {"rt": -1000, "stimulus": "/static/audio/wordpool/BRACES.wav", "key_press": -1, "type": "PRES_AUD", "word": "braces", "wordID": 163, "conditions": [12, 800, "a", 12000], "trial": 6, "serialpos": 5, "trial_type": "single-audio", "trial_index": 218, "time_elapsed": 1219787, "internal_node_id": "0.0-155.0"}}, {"uniqueid": "MTK0446:3JJVG1YBEC44VYAN4K25X7CF89G5BU", "current_trial": 219, "dateTime": 1510898011766, "trialdata": {"rt": -1000, "stimulus": "/static/audio/wordpool/CHEST.wav", "key_press": -1, "type": "PRES_AUD", "word": "chest", "wordID": 294, "conditions": [12, 800, "a", 12000], "trial": 6, "serialpos": 6, "trial_type": "single-audio", "trial_index": 219, "time_elapsed": 1221687, "internal_node_id": "0.0-156.0"}}, {"uniqueid": "MTK0446:3JJVG1YBEC44VYAN4K25X7CF89G5BU", "current_trial": 220, "dateTime": 1510898013667, "trialdata": {"rt": -1000, "stimulus": "/static/audio/wordpool/STOMACH.wav", "key_press": -1, "type": "PRES_AUD", "word": "stomach", "wordID": 1383, "conditions": [12, 800, "a", 12000], "trial": 6, "serialpos": 7, "trial_type": "single-audio", "trial_index": 220, "time_elapsed": 1223588, "internal_node_id": "0.0-157.0"}}, {"uniqueid": "MTK0446:3JJVG1YBEC44VYAN4K25X7CF89G5BU", "current_trial": 221, "dateTime": 1510898015293, "trialdata": {"rt": -1000, "stimulus": "/static/audio/wordpool/ORANGE.wav", "key_press": -1, "type": "PRES_AUD", "word": "orange", "wordID": 979, "conditions": [12, 800, "a", 12000], "trial": 6, "serialpos": 8, "trial_type": "single-audio", "trial_index": 221, "time_elapsed": 1225214, "internal_node_id": "0.0-158.0"}}, {"uniqueid": "MTK0446:3JJVG1YBEC44VYAN4K25X7CF89G5BU", "current_trial": 222, "dateTime": 1510898017268, "trialdata": {"rt": -1000, "stimulus": "/static/audio/wordpool/JUDGE.wav", "key_press": -1, "type": "PRES_AUD", "word": "judge", "wordID": 760, "conditions": [12, 800, "a", 12000], "trial": 6, "serialpos": 9, "trial_type": "single-audio", "trial_index": 222, "time_elapsed": 1227189, "internal_node_id": "0.0-159.0"}}, {"uniqueid": "MTK0446:3JJVG1YBEC44VYAN4K25X7CF89G5BU", "current_trial": 223, "dateTime": 1510898018973, "trialdata": {"rt": -1000, "stimulus": "/static/audio/wordpool/SALAD.wav", "key_press": -1, "type": "PRES_AUD", "word": "salad", "wordID": 1223, "conditions": [12, 800, "a", 12000], "trial": 6, "serialpos": 10, "trial_type": "single-audio", "trial_index": 223, "time_elapsed": 1228893, "internal_node_id": "0.0-160.0"}}, {"uniqueid": "MTK0446:3JJVG1YBEC44VYAN4K25X7CF89G5BU", "current_trial": 224, "dateTime": 1510898020780, "trialdata": {"rt": -1000, "stimulus": "/static/audio/wordpool/SHERIFF.wav", "key_press": -1, "type": "PRES_AUD", "word": "sheriff", "wordID": 1283, "conditions": [12, 800, "a", 12000], "trial": 6, "serialpos": 11, "trial_type": "single-audio", "trial_index": 224, "time_elapsed": 1230701, "internal_node_id": "0.0-161.0"}}, {"uniqueid": "MTK0446:3JJVG1YBEC44VYAN4K25X7CF89G5BU", "current_trial": 225, "dateTime": 1510898022067, "trialdata": {"rt": -1, "stimulus": "", "key_press": -1, "type": "PRE_RECALL_DELAY", "trial_type": "single-stim", "trial_index": 225, "time_elapsed": 1231988, "internal_node_id": "0.0-162.0-0.0"}}, {"uniqueid": "MTK0446:3JJVG1YBEC44VYAN4K25X7CF89G5BU", "current_trial": 226, "dateTime": 1510898022569, "trialdata": {"rt": -1000, "stimulus": "/static/audio/400Hz.wav", "key_press": -1, "type": "PRE_RECALL_ALERT", "trial_type": "single-audio", "trial_index": 226, "time_elapsed": 1232490, "internal_node_id": "0.0-163.0"}}, {"uniqueid": "MTK0446:3JJVG1YBEC44VYAN4K25X7CF89G5BU", "current_trial": 227, "dateTime": 1510898082586, "trialdata": {"rt": [6538, 10659, 13836, 19579, 24548, 29100, 34119, 40998, 45164, 52491], "recwords": ["turtle", "orange", "salad", "sheriff", "orange", "chest", "stomach", "panther", "hamper", "brace"], "type": "FREE_RECALL", "conditions": [12, 800, "a", 12000], "trial": 6, "trial_type": "free-recall", "trial_index": 227, "time_elapsed": 1292497, "internal_node_id": "0.0-164.0-0.0"}}, {"uniqueid": "MTK0446:3JJVG1YBEC44VYAN4K25X7CF89G5BU", "current_trial": 228, "dateTime": 1510898086656, "trialdata": {"rt": 2067, "key_press": 13, "type": "INSTRUCTIONS", "trial_type": "text", "trial_index": 228, "time_elapsed": 1296577, "internal_node_id": "0.0-165.0"}}, {"uniqueid": "MTK0446:3JJVG1YBEC44VYAN4K25X7CF89G5BU", "current_trial": 229, "dateTime": 1510898112660, "trialdata": {"rt": [4188, 9748, 13660, 18213, 21643], "responses": ["22", "21", "15", "12", "14"], "num1": [4, 9, 4, 4, 2, 2], "num2": [9, 6, 8, 4, 5, 7], "num3": [9, 6, 4, 4, 7, 6], "type": "DISTRACTOR", "conditions": [24, 1600, "a", 24000], "trial": 7, "trial_type": "math-distractor", "trial_index": 229, "time_elapsed": 1322581, "internal_node_id": "0.0-166.0"}}, {"uniqueid": "MTK0446:3JJVG1YBEC44VYAN4K25X7CF89G5BU", "current_trial": 230, "dateTime": 1510898115662, "trialdata": {"rt": -1, "stimulus": "<p id=\"stim\">10</p>", "key_press": -1, "trial_type": "single-stim", "trial_index": 230, "time_elapsed": 1325583, "internal_node_id": "0.0-167.0-0.0"}}, {"uniqueid": "MTK0446:3JJVG1YBEC44VYAN4K25X7CF89G5BU", "current_trial": 231, "dateTime": 1510898116664, "trialdata": {"rt": -1, "stimulus": "<p id=\"stim\">9</p>", "key_press": -1, "trial_type": "single-stim", "trial_index": 231, "time_elapsed": 1326585, "internal_node_id": "0.0-167.0-1.0"}}, {"uniqueid": "MTK0446:3JJVG1YBEC44VYAN4K25X7CF89G5BU", "current_trial": 232, "dateTime": 1510898117667, "trialdata": {"rt": -1, "stimulus": "<p id=\"stim\">8</p>", "key_press": -1, "trial_type": "single-stim", "trial_index": 232, "time_elapsed": 1327587, "internal_node_id": "0.0-167.0-2.0"}}, {"uniqueid": "MTK0446:3JJVG1YBEC44VYAN4K25X7CF89G5BU", "current_trial": 233, "dateTime": 1510898118669, "trialdata": {"rt": -1, "stimulus": "<p id=\"stim\">7</p>", "key_press": -1, "trial_type": "single-stim", "trial_index": 233, "time_elapsed": 1328589, "internal_node_id": "0.0-167.0-3.0"}}, {"uniqueid": "MTK0446:3JJVG1YBEC44VYAN4K25X7CF89G5BU", "current_trial": 234, "dateTime": 1510898119671, "trialdata": {"rt": -1, "stimulus": "<p id=\"stim\">6</p>", "key_press": -1, "trial_type": "single-stim", "trial_index": 234, "time_elapsed": 1329592, "internal_node_id": "0.0-167.0-4.0"}}, {"uniqueid": "MTK0446:3JJVG1YBEC44VYAN4K25X7CF89G5BU", "current_trial": 235, "dateTime": 1510898120673, "trialdata": {"rt": -1, "stimulus": "<p id=\"stim\">5</p>", "key_press": -1, "trial_type": "single-stim", "trial_index": 235, "time_elapsed": 1330594, "internal_node_id": "0.0-167.0-5.0"}}, {"uniqueid": "MTK0446:3JJVG1YBEC44VYAN4K25X7CF89G5BU", "current_trial": 236, "dateTime": 1510898121675, "trialdata": {"rt": -1, "stimulus": "<p id=\"stim\">4</p>", "key_press": -1, "trial_type": "single-stim", "trial_index": 236, "time_elapsed": 1331596, "internal_node_id": "0.0-167.0-6.0"}}, {"uniqueid": "MTK0446:3JJVG1YBEC44VYAN4K25X7CF89G5BU", "current_trial": 237, "dateTime": 1510898122677, "trialdata": {"rt": -1, "stimulus": "<p id=\"stim\">3</p>", "key_press": -1, "trial_type": "single-stim", "trial_index": 237, "time_elapsed": 1332598, "internal_node_id": "0.0-167.0-7.0"}}, {"uniqueid": "MTK0446:3JJVG1YBEC44VYAN4K25X7CF89G5BU", "current_trial": 238, "dateTime": 1510898123679, "trialdata": {"rt": -1, "stimulus": "<p id=\"stim\">2</p>", "key_press": -1, "trial_type": "single-stim", "trial_index": 238, "time_elapsed": 1333600, "internal_node_id": "0.0-167.0-8.0"}}, {"uniqueid": "MTK0446:3JJVG1YBEC44VYAN4K25X7CF89G5BU", "current_trial": 239, "dateTime": 1510898124681, "trialdata": {"rt": -1, "stimulus": "<p id=\"stim\">1</p>", "key_press": -1, "trial_type": "single-stim", "trial_index": 239, "time_elapsed": 1334602, "internal_node_id": "0.0-167.0-9.0"}}, {"uniqueid": "MTK0446:3JJVG1YBEC44VYAN4K25X7CF89G5BU", "current_trial": 240, "dateTime": 1510898126183, "trialdata": {"rt": -1, "stimulus": "<p id=\"stim\">+</p>", "key_press": -1, "type": "FIXATION", "trial_type": "single-stim", "trial_index": 240, "time_elapsed": 1336104, "internal_node_id": "0.0-168.0-0.0"}}, {"uniqueid": "MTK0446:3JJVG1YBEC44VYAN4K25X7CF89G5BU", "current_trial": 241, "dateTime": 1510898128931, "trialdata": {"rt": -1000, "stimulus": "/static/audio/wordpool/BLENDER.wav", "key_press": -1, "type": "PRES_AUD", "word": "blender", "wordID": 135, "conditions": [24, 1600, "a", 24000], "trial": 7, "serialpos": 0, "trial_type": "single-audio", "trial_index": 241, "time_elapsed": 1338852, "internal_node_id": "0.0-169.0"}}, {"uniqueid": "MTK0446:3JJVG1YBEC44VYAN4K25X7CF89G5BU", "current_trial": 242, "dateTime": 1510898131332, "trialdata": {"rt": -1000, "stimulus": "/static/audio/wordpool/BRIEFCASE.wav", "key_press": -1, "type": "PRES_AUD", "word": "briefcase", "wordID": 174, "conditions": [24, 1600, "a", 24000], "trial": 7, "serialpos": 1, "trial_type": "single-audio", "trial_index": 242, "time_elapsed": 1341253, "internal_node_id": "0.0-170.0"}}, {"uniqueid": "MTK0446:3JJVG1YBEC44VYAN4K25X7CF89G5BU", "current_trial": 243, "dateTime": 1510898133754, "trialdata": {"rt": -1000, "stimulus": "/static/audio/wordpool/PALACE.wav", "key_press": -1, "type": "PRES_AUD", "word": "palace", "wordID": 1005, "conditions": [24, 1600, "a", 24000], "trial": 7, "serialpos": 2, "trial_type": "single-audio", "trial_index": 243, "time_elapsed": 1343675, "internal_node_id": "0.0-171.0"}}, {"uniqueid": "MTK0446:3JJVG1YBEC44VYAN4K25X7CF89G5BU", "current_trial": 244, "dateTime": 1510898136482, "trialdata": {"rt": -1000, "stimulus": "/static/audio/wordpool/LADY.wav", "key_press": -1, "type": "PRES_AUD", "word": "lady", "wordID": 793, "conditions": [24, 1600, "a", 24000], "trial": 7, "serialpos": 3, "trial_type": "single-audio", "trial_index": 244, "time_elapsed": 1346403, "internal_node_id": "0.0-172.0"}}, {"uniqueid": "MTK0446:3JJVG1YBEC44VYAN4K25X7CF89G5BU", "current_trial": 245, "dateTime": 1510898139274, "trialdata": {"rt": -1000, "stimulus": "/static/audio/wordpool/SKILLET.wav", "key_press": -1, "type": "PRES_AUD", "word": "skillet", "wordID": 1316, "conditions": [24, 1600, "a", 24000], "trial": 7, "serialpos": 4, "trial_type": "single-audio", "trial_index": 245, "time_elapsed": 1349195, "internal_node_id": "0.0-173.0"}}, {"uniqueid": "MTK0446:3JJVG1YBEC44VYAN4K25X7CF89G5BU", "current_trial": 246, "dateTime": 1510898141738, "trialdata": {"rt": -1000, "stimulus": "/static/audio/wordpool/REBEL.wav", "key_press": -1, "type": "PRES_AUD", "word": "rebel", "wordID": 1171, "conditions": [24, 1600, "a", 24000], "trial": 7, "serialpos": 5, "trial_type": "single-audio", "trial_index": 246, "time_elapsed": 1351659, "internal_node_id": "0.0-174.0"}}, {"uniqueid": "MTK0446:3JJVG1YBEC44VYAN4K25X7CF89G5BU", "current_trial": 247, "dateTime": 1510898144160, "trialdata": {"rt": -1000, "stimulus": "/static/audio/wordpool/TRANSPLANT.wav", "key_press": -1, "type": "PRES_AUD", "word": "transplant", "wordID": 1495, "conditions": [24, 1600, "a", 24000], "trial": 7, "serialpos": 6, "trial_type": "single-audio", "trial_index": 247, "time_elapsed": 1354081, "internal_node_id": "0.0-175.0"}}, {"uniqueid": "MTK0446:3JJVG1YBEC44VYAN4K25X7CF89G5BU", "current_trial": 248, "dateTime": 1510898146807, "trialdata": {"rt": -1000, "stimulus": "/static/audio/wordpool/KIDNEY.wav", "key_press": -1, "type": "PRES_AUD", "word": "kidney", "wordID": 775, "conditions": [24, 1600, "a", 24000], "trial": 7, "serialpos": 7, "trial_type": "single-audio", "trial_index": 248, "time_elapsed": 1356728, "internal_node_id": "0.0-176.0"}}, {"uniqueid": "MTK0446:3JJVG1YBEC44VYAN4K25X7CF89G5BU", "current_trial": 249, "dateTime": 1510898149391, "trialdata": {"rt": -1000, "stimulus": "/static/audio/wordpool/VELVET.wav", "key_press": -1, "type": "PRES_AUD", "word": "velvet", "wordID": 1554, "conditions": [24, 1600, "a", 24000], "trial": 7, "serialpos": 8, "trial_type": "single-audio", "trial_index": 249, "time_elapsed": 1359312, "internal_node_id": "0.0-177.0"}}, {"uniqueid": "MTK0446:3JJVG1YBEC44VYAN4K25X7CF89G5BU", "current_trial": 250, "dateTime": 1510898151884, "trialdata": {"rt": -1000, "stimulus": "/static/audio/wordpool/WASP.wav", "key_press": -1, "type": "PRES_AUD", "word": "wasp", "wordID": 1592, "conditions": [24, 1600, "a", 24000], "trial": 7, "serialpos": 9, "trial_type": "single-audio", "trial_index": 250, "time_elapsed": 1361805, "internal_node_id": "0.0-178.0"}}, {"uniqueid": "MTK0446:3JJVG1YBEC44VYAN4K25X7CF89G5BU", "current_trial": 251, "dateTime": 1510898154355, "trialdata": {"rt": -1000, "stimulus": "/static/audio/wordpool/ELBOW.wav", "key_press": -1, "type": "PRES_AUD", "word": "elbow", "wordID": 519, "conditions": [24, 1600, "a", 24000], "trial": 7, "serialpos": 10, "trial_type": "single-audio", "trial_index": 251, "time_elapsed": 1364274, "internal_node_id": "0.0-179.0"}}, {"uniqueid": "MTK0446:3JJVG1YBEC44VYAN4K25X7CF89G5BU", "current_trial": 252, "dateTime": 1510898157023, "trialdata": {"rt": -1000, "stimulus": "/static/audio/wordpool/POET.wav", "key_press": -1, "type": "PRES_AUD", "word": "poet", "wordID": 1094, "conditions": [24, 1600, "a", 24000], "trial": 7, "serialpos": 11, "trial_type": "single-audio", "trial_index": 252, "time_elapsed": 1366944, "internal_node_id": "0.0-180.0"}}, {"uniqueid": "MTK0446:3JJVG1YBEC44VYAN4K25X7CF89G5BU", "current_trial": 253, "dateTime": 1510898159610, "trialdata": {"rt": -1000, "stimulus": "/static/audio/wordpool/SPACE.wav", "key_press": -1, "type": "PRES_AUD", "word": "space", "wordID": 1344, "conditions": [24, 1600, "a", 24000], "trial": 7, "serialpos": 12, "trial_type": "single-audio", "trial_index": 253, "time_elapsed": 1369530, "internal_node_id": "0.0-181.0"}}, {"uniqueid": "MTK0446:3JJVG1YBEC44VYAN4K25X7CF89G5BU", "current_trial": 254, "dateTime": 1510898162157, "trialdata": {"rt": -1000, "stimulus": "/static/audio/wordpool/FLUTE.wav", "key_press": -1, "type": "PRES_AUD", "word": "flute", "wordID": 584, "conditions": [24, 1600, "a", 24000], "trial": 7, "serialpos": 13, "trial_type": "single-audio", "trial_index": 254, "time_elapsed": 1372078, "internal_node_id": "0.0-182.0"}}, {"uniqueid": "MTK0446:3JJVG1YBEC44VYAN4K25X7CF89G5BU", "current_trial": 255, "dateTime": 1510898164723, "trialdata": {"rt": -1000, "stimulus": "/static/audio/wordpool/SKIRT.wav", "key_press": -1, "type": "PRES_AUD", "word": "skirt", "wordID": 1318, "conditions": [24, 1600, "a", 24000], "trial": 7, "serialpos": 14, "trial_type": "single-audio", "trial_index": 255, "time_elapsed": 1374644, "internal_node_id": "0.0-183.0"}}, {"uniqueid": "MTK0446:3JJVG1YBEC44VYAN4K25X7CF89G5BU", "current_trial": 256, "dateTime": 1510898167196, "trialdata": {"rt": -1000, "stimulus": "/static/audio/wordpool/ACTRESS.wav", "key_press": -1, "type": "PRES_AUD", "word": "actress", "wordID": 5, "conditions": [24, 1600, "a", 24000], "trial": 7, "serialpos": 15, "trial_type": "single-audio", "trial_index": 256, "time_elapsed": 1377117, "internal_node_id": "0.0-184.0"}}, {"uniqueid": "MTK0446:3JJVG1YBEC44VYAN4K25X7CF89G5BU", "current_trial": 257, "dateTime": 1510898169868, "trialdata": {"rt": -1000, "stimulus": "/static/audio/wordpool/TORTOISE.wav", "key_press": -1, "type": "PRES_AUD", "word": "tortoise", "wordID": 1485, "conditions": [24, 1600, "a", 24000], "trial": 7, "serialpos": 16, "trial_type": "single-audio", "trial_index": 257, "time_elapsed": 1379789, "internal_node_id": "0.0-185.0"}}, {"uniqueid": "MTK0446:3JJVG1YBEC44VYAN4K25X7CF89G5BU", "current_trial": 258, "dateTime": 1510898172566, "trialdata": {"rt": -1000, "stimulus": "/static/audio/wordpool/VAGRANT.wav", "key_press": -1, "type": "PRES_AUD", "word": "vagrant", "wordID": 1543, "conditions": [24, 1600, "a", 24000], "trial": 7, "serialpos": 17, "trial_type": "single-audio", "trial_index": 258, "time_elapsed": 1382487, "internal_node_id": "0.0-186.0"}}, {"uniqueid": "MTK0446:3JJVG1YBEC44VYAN4K25X7CF89G5BU", "current_trial": 259, "dateTime": 1510898175333, "trialdata": {"rt": -1000, "stimulus": "/static/audio/wordpool/BLADE.wav", "key_press": -1, "type": "PRES_AUD", "word": "blade", "wordID": 133, "conditions": [24, 1600, "a", 24000], "trial": 7, "serialpos": 18, "trial_type": "single-audio", "trial_index": 259, "time_elapsed": 1385254, "internal_node_id": "0.0-187.0"}}, {"uniqueid": "MTK0446:3JJVG1YBEC44VYAN4K25X7CF89G5BU", "current_trial": 260, "dateTime": 1510898178131, "trialdata": {"rt": -1000, "stimulus": "/static/audio/wordpool/KNIFE.wav", "key_press": -1, "type": "PRES_AUD", "word": "knife", "wordID": 784, "conditions": [24, 1600, "a", 24000], "trial": 7, "serialpos": 19, "trial_type": "single-audio", "trial_index": 260, "time_elapsed": 1388052, "internal_node_id": "0.0-188.0"}}, {"uniqueid": "MTK0446:3JJVG1YBEC44VYAN4K25X7CF89G5BU", "current_trial": 261, "dateTime": 1510898180567, "trialdata": {"rt": -1000, "stimulus": "/static/audio/wordpool/RABBIT.wav", "key_press": -1, "type": "PRES_AUD", "word": "rabbit", "wordID": 1151, "conditions": [24, 1600, "a", 24000], "trial": 7, "serialpos": 20, "trial_type": "single-audio", "trial_index": 261, "time_elapsed": 1390488, "internal_node_id": "0.0-189.0"}}, {"uniqueid": "MTK0446:3JJVG1YBEC44VYAN4K25X7CF89G5BU", "current_trial": 262, "dateTime": 1510898183262, "trialdata": {"rt": -1000, "stimulus": "/static/audio/wordpool/ROBIN.wav", "key_press": -1, "type": "PRES_AUD", "word": "robin", "wordID": 1198, "conditions": [24, 1600, "a", 24000], "trial": 7, "serialpos": 21, "trial_type": "single-audio", "trial_index": 262, "time_elapsed": 1393182, "internal_node_id": "0.0-190.0"}}, {"uniqueid": "MTK0446:3JJVG1YBEC44VYAN4K25X7CF89G5BU", "current_trial": 263, "dateTime": 1510898185943, "trialdata": {"rt": -1000, "stimulus": "/static/audio/wordpool/SLUG.wav", "key_press": -1, "type": "PRES_AUD", "word": "slug", "wordID": 1328, "conditions": [24, 1600, "a", 24000], "trial": 7, "serialpos": 22, "trial_type": "single-audio", "trial_index": 263, "time_elapsed": 1395864, "internal_node_id": "0.0-191.0"}}, {"uniqueid": "MTK0446:3JJVG1YBEC44VYAN4K25X7CF89G5BU", "current_trial": 264, "dateTime": 1510898188577, "trialdata": {"rt": -1000, "stimulus": "/static/audio/wordpool/EAGLE.wav", "key_press": -1, "type": "PRES_AUD", "word": "eagle", "wordID": 511, "conditions": [24, 1600, "a", 24000], "trial": 7, "serialpos": 23, "trial_type": "single-audio", "trial_index": 264, "time_elapsed": 1398498, "internal_node_id": "0.0-192.0"}}, {"uniqueid": "MTK0446:3JJVG1YBEC44VYAN4K25X7CF89G5BU", "current_trial": 265, "dateTime": 1510898189795, "trialdata": {"rt": -1, "stimulus": "", "key_press": -1, "type": "PRE_RECALL_DELAY", "trial_type": "single-stim", "trial_index": 265, "time_elapsed": 1399716, "internal_node_id": "0.0-193.0-0.0"}}, {"uniqueid": "MTK0446:3JJVG1YBEC44VYAN4K25X7CF89G5BU", "current_trial": 266, "dateTime": 1510898190300, "trialdata": {"rt": -1000, "stimulus": "/static/audio/400Hz.wav", "key_press": -1, "type": "PRE_RECALL_ALERT", "trial_type": "single-audio", "trial_index": 266, "time_elapsed": 1400221, "internal_node_id": "0.0-194.0"}}, {"uniqueid": "MTK0446:3JJVG1YBEC44VYAN4K25X7CF89G5BU", "current_trial": 267, "dateTime": 1510898250314, "trialdata": {"rt": [8367, 17152, 29031, 33551, 36815, 40094, 44270, 47230, 52839], "recwords": ["palace", "lady", "kidney", "transplant", "knife", "blade", "rabbit", "slug", "eagle"], "type": "FREE_RECALL", "conditions": [24, 1600, "a", 24000], "trial": 7, "trial_type": "free-recall", "trial_index": 267, "time_elapsed": 1460226, "internal_node_id": "0.0-195.0-0.0"}}, {"uniqueid": "MTK0446:3JJVG1YBEC44VYAN4K25X7CF89G5BU", "current_trial": 268, "dateTime": 1510898253974, "trialdata": {"rt": 1658, "key_press": 13, "type": "INSTRUCTIONS", "trial_type": "text", "trial_index": 268, "time_elapsed": 1463895, "internal_node_id": "0.0-196.0"}}, {"uniqueid": "MTK0446:3JJVG1YBEC44VYAN4K25X7CF89G5BU", "current_trial": 269, "dateTime": 1510898267979, "trialdata": {"rt": [3990, 8285], "responses": ["20", "24"], "num1": [8, 9, 8], "num2": [6, 6, 6], "num3": [6, 9, 2], "type": "DISTRACTOR", "conditions": [12, 800, "v", 12000], "trial": 8, "trial_type": "math-distractor", "trial_index": 269, "time_elapsed": 1477900, "internal_node_id": "0.0-197.0"}}, {"uniqueid": "MTK0446:3JJVG1YBEC44VYAN4K25X7CF89G5BU", "current_trial": 270, "dateTime": 1510898270981, "trialdata": {"rt": -1, "stimulus": "<p id=\"stim\">10</p>", "key_press": -1, "trial_type": "single-stim", "trial_index": 270, "time_elapsed": 1480902, "internal_node_id": "0.0-198.0-0.0"}}, {"uniqueid": "MTK0446:3JJVG1YBEC44VYAN4K25X7CF89G5BU", "current_trial": 271, "dateTime": 1510898271984, "trialdata": {"rt": -1, "stimulus": "<p id=\"stim\">9</p>", "key_press": -1, "trial_type": "single-stim", "trial_index": 271, "time_elapsed": 1481904, "internal_node_id": "0.0-198.0-1.0"}}, {"uniqueid": "MTK0446:3JJVG1YBEC44VYAN4K25X7CF89G5BU", "current_trial": 272, "dateTime": 1510898272986, "trialdata": {"rt": -1, "stimulus": "<p id=\"stim\">8</p>", "key_press": -1, "trial_type": "single-stim", "trial_index": 272, "time_elapsed": 1482906, "internal_node_id": "0.0-198.0-2.0"}}, {"uniqueid": "MTK0446:3JJVG1YBEC44VYAN4K25X7CF89G5BU", "curr