{"condition": 0, "counterbalance": 886, "assignmentId": "3ZQIG0FLQFNDHVND52GEOJJZXSQWVO", "workerId": "MTK0910", "hitId": "371DNNCG449LRIPCC2VRK1W82S88TZ", "currenttrial": 626, "bonus": 0, "data": [{"uniqueid": "MTK0910:3ZQIG0FLQFNDHVND52GEOJJZXSQWVO", "current_trial": 0, "dateTime": 1512872855515, "trialdata": {"rt": 7311, "key_press": 75, "type": "INSTRUCTIONS", "trial_type": "text", "trial_index": 0, "time_elapsed": 7312, "internal_node_id": "0.0-0.0"}}, {"uniqueid": "MTK0910:3ZQIG0FLQFNDHVND52GEOJJZXSQWVO", "current_trial": 1, "dateTime": 1512872896496, "trialdata": {"rt": 40980, "key_press": 75, "type": "INSTRUCTIONS", "trial_type": "text", "trial_index": 1, "time_elapsed": 48294, "internal_node_id": "0.0-1.0"}}, {"uniqueid": "MTK0910:3ZQIG0FLQFNDHVND52GEOJJZXSQWVO", "current_trial": 2, "dateTime": 1512872916457, "trialdata": {"rt": [19954], "responses": ["ocean"], "type": "AUDIO_TEST", "trial_type": "audio-test", "trial_index": 2, "time_elapsed": 68255, "internal_node_id": "0.0-2.0"}}, {"uniqueid": "MTK0910:3ZQIG0FLQFNDHVND52GEOJJZXSQWVO", "current_trial": 3, "dateTime": 1512872925321, "trialdata": {"rt": [8860], "responses": ["crystal"], "type": "AUDIO_TEST", "trial_type": "audio-test", "trial_index": 3, "time_elapsed": 77118, "internal_node_id": "0.0-3.0"}}, {"uniqueid": "MTK0910:3ZQIG0FLQFNDHVND52GEOJJZXSQWVO", "current_trial": 4, "dateTime": 1512872933384, "trialdata": {"rt": [8060], "responses": ["spice"], "type": "AUDIO_TEST", "trial_type": "audio-test", "trial_index": 4, "time_elapsed": 85182, "internal_node_id": "0.0-4.0"}}, {"uniqueid": "MTK0910:3ZQIG0FLQFNDHVND52GEOJJZXSQWVO", "current_trial": 5, "dateTime": 1512872976643, "trialdata": {"rt": 42505, "responses": "{\"Q0\":\"12:00 am.\",\"Q1\":\"7:30 a.m\",\"Q2\":\"3\"}", "type": "SLEEP_SURVEY", "trial_type": "survey-text", "trial_index": 5, "time_elapsed": 128441, "internal_node_id": "0.0-5.0"}}, {"uniqueid": "MTK0910:3ZQIG0FLQFNDHVND52GEOJJZXSQWVO", "current_trial": 6, "dateTime": 1512873058949, "trialdata": {"rt": 81301, "key_press": 13, "type": "INSTRUCTIONS", "trial_type": "text", "trial_index": 6, "time_elapsed": 210747, "internal_node_id": "0.0-6.0"}}, {"uniqueid": "MTK0910:3ZQIG0FLQFNDHVND52GEOJJZXSQWVO", "current_trial": 7, "dateTime": 1512873091781, "trialdata": {"rt": 32326, "key_press": 13, "type": "INSTRUCTIONS", "trial_type": "text", "trial_index": 7, "time_elapsed": 243579, "internal_node_id": "0.0-7.0"}}, {"uniqueid": "MTK0910:3ZQIG0FLQFNDHVND52GEOJJZXSQWVO", "current_trial": 8, "dateTime": 1512873100508, "trialdata": {"rt": 8223, "key_press": 13, "type": "INSTRUCTIONS", "trial_type": "text", "trial_index": 8, "time_elapsed": 252306, "internal_node_id": "0.0-8.0"}}, {"uniqueid": "MTK0910:3ZQIG0FLQFNDHVND52GEOJJZXSQWVO", "current_trial": 9, "dateTime": 1512873119513, "trialdata": {"rt": [4644, 9676, 12348], "responses": ["14", "17", "7"], "num1": [7, 6, 3, 4], "num2": [2, 6, 4, 8], "num3": [5, 4, 1, 7], "type": "DISTRACTOR", "conditions": [18, 1200, "a", 18000], "trial": 0, "trial_type": "math-distractor", "trial_index": 9, "time_elapsed": 271311, "internal_node_id": "0.0-9.0"}}, {"uniqueid": "MTK0910:3ZQIG0FLQFNDHVND52GEOJJZXSQWVO", "current_trial": 10, "dateTime": 1512873122519, "trialdata": {"rt": -1, "stimulus": "<p id=\"stim\">10</p>", "key_press": -1, "trial_type": "single-stim", "trial_index": 10, "time_elapsed": 274317, "internal_node_id": "0.0-10.0-0.0"}}, {"uniqueid": "MTK0910:3ZQIG0FLQFNDHVND52GEOJJZXSQWVO", "current_trial": 11, "dateTime": 1512873123523, "trialdata": {"rt": -1, "stimulus": "<p id=\"stim\">9</p>", "key_press": -1, "trial_type": "single-stim", "trial_index": 11, "time_elapsed": 275321, "internal_node_id": "0.0-10.0-1.0"}}, {"uniqueid": "MTK0910:3ZQIG0FLQFNDHVND52GEOJJZXSQWVO", "current_trial": 12, "dateTime": 1512873124527, "trialdata": {"rt": -1, "stimulus": "<p id=\"stim\">8</p>", "key_press": -1, "trial_type": "single-stim", "trial_index": 12, "time_elapsed": 276325, "internal_node_id": "0.0-10.0-2.0"}}, {"uniqueid": "MTK0910:3ZQIG0FLQFNDHVND52GEOJJZXSQWVO", "current_trial": 13, "dateTime": 1512873125531, "trialdata": {"rt": -1, "stimulus": "<p id=\"stim\">7</p>", "key_press": -1, "trial_type": "single-stim", "trial_index": 13, "time_elapsed": 277329, "internal_node_id": "0.0-10.0-3.0"}}, {"uniqueid": "MTK0910:3ZQIG0FLQFNDHVND52GEOJJZXSQWVO", "current_trial": 14, "dateTime": 1512873126535, "trialdata": {"rt": -1, "stimulus": "<p id=\"stim\">6</p>", "key_press": -1, "trial_type": "single-stim", "trial_index": 14, "time_elapsed": 278333, "internal_node_id": "0.0-10.0-4.0"}}, {"uniqueid": "MTK0910:3ZQIG0FLQFNDHVND52GEOJJZXSQWVO", "current_trial": 15, "dateTime": 1512873127537, "trialdata": {"rt": -1, "stimulus": "<p id=\"stim\">5</p>", "key_press": -1, "trial_type": "single-stim", "trial_index": 15, "time_elapsed": 279335, "internal_node_id": "0.0-10.0-5.0"}}, {"uniqueid": "MTK0910:3ZQIG0FLQFNDHVND52GEOJJZXSQWVO", "current_trial": 16, "dateTime": 1512873128538, "trialdata": {"rt": -1, "stimulus": "<p id=\"stim\">4</p>", "key_press": -1, "trial_type": "single-stim", "trial_index": 16, "time_elapsed": 280336, "internal_node_id": "0.0-10.0-6.0"}}, {"uniqueid": "MTK0910:3ZQIG0FLQFNDHVND52GEOJJZXSQWVO", "current_trial": 17, "dateTime": 1512873129540, "trialdata": {"rt": -1, "stimulus": "<p id=\"stim\">3</p>", "key_press": -1, "trial_type": "single-stim", "trial_index": 17, "time_elapsed": 281337, "internal_node_id": "0.0-10.0-7.0"}}, {"uniqueid": "MTK0910:3ZQIG0FLQFNDHVND52GEOJJZXSQWVO", "current_trial": 18, "dateTime": 1512873130542, "trialdata": {"rt": -1, "stimulus": "<p id=\"stim\">2</p>", "key_press": -1, "trial_type": "single-stim", "trial_index": 18, "time_elapsed": 282340, "internal_node_id": "0.0-10.0-8.0"}}, {"uniqueid": "MTK0910:3ZQIG0FLQFNDHVND52GEOJJZXSQWVO", "current_trial": 19, "dateTime": 1512873131543, "trialdata": {"rt": -1, "stimulus": "<p id=\"stim\">1</p>", "key_press": -1, "trial_type": "single-stim", "trial_index": 19, "time_elapsed": 283341, "internal_node_id": "0.0-10.0-9.0"}}, {"uniqueid": "MTK0910:3ZQIG0FLQFNDHVND52GEOJJZXSQWVO", "current_trial": 20, "dateTime": 1512873133047, "trialdata": {"rt": -1, "stimulus": "<p id=\"stim\">+</p>", "key_press": -1, "type": "FIXATION", "trial_type": "single-stim", "trial_index": 20, "time_elapsed": 284845, "internal_node_id": "0.0-11.0-0.0"}}, {"uniqueid": "MTK0910:3ZQIG0FLQFNDHVND52GEOJJZXSQWVO", "current_trial": 21, "dateTime": 1512873135345, "trialdata": {"rt": -1000, "stimulus": "/static/audio/wordpool/MOTEL.wav", "key_press": -1, "type": "PRES_AUD", "word": "motel", "wordID": 918, "conditions": [18, 1200, "a", 18000], "trial": 0, "serialpos": 0, "trial_type": "single-audio", "trial_index": 21, "time_elapsed": 287143, "internal_node_id": "0.0-12.0"}}, {"uniqueid": "MTK0910:3ZQIG0FLQFNDHVND52GEOJJZXSQWVO", "current_trial": 22, "dateTime": 1512873137411, "trialdata": {"rt": -1000, "stimulus": "/static/audio/wordpool/STREAM.wav", "key_press": -1, "type": "PRES_AUD", "word": "stream", "wordID": 1391, "conditions": [18, 1200, "a", 18000], "trial": 0, "serialpos": 1, "trial_type": "single-audio", "trial_index": 22, "time_elapsed": 289209, "internal_node_id": "0.0-13.0"}}, {"uniqueid": "MTK0910:3ZQIG0FLQFNDHVND52GEOJJZXSQWVO", "current_trial": 23, "dateTime": 1512873139791, "trialdata": {"rt": -1000, "stimulus": "/static/audio/wordpool/SNAIL.wav", "key_press": -1, "type": "PRES_AUD", "word": "snail", "wordID": 1331, "conditions": [18, 1200, "a", 18000], "trial": 0, "serialpos": 2, "trial_type": "single-audio", "trial_index": 23, "time_elapsed": 291589, "internal_node_id": "0.0-14.0"}}, {"uniqueid": "MTK0910:3ZQIG0FLQFNDHVND52GEOJJZXSQWVO", "current_trial": 24, "dateTime": 1512873141918, "trialdata": {"rt": -1000, "stimulus": "/static/audio/wordpool/VELVET.wav", "key_press": -1, "type": "PRES_AUD", "word": "velvet", "wordID": 1554, "conditions": [18, 1200, "a", 18000], "trial": 0, "serialpos": 3, "trial_type": "single-audio", "trial_index": 24, "time_elapsed": 293716, "internal_node_id": "0.0-15.0"}}, {"uniqueid": "MTK0910:3ZQIG0FLQFNDHVND52GEOJJZXSQWVO", "current_trial": 25, "dateTime": 1512873144119, "trialdata": {"rt": -1000, "stimulus": "/static/audio/wordpool/SCOTCH.wav", "key_press": -1, "type": "PRES_AUD", "word": "scotch", "wordID": 1250, "conditions": [18, 1200, "a", 18000], "trial": 0, "serialpos": 4, "trial_type": "single-audio", "trial_index": 25, "time_elapsed": 295917, "internal_node_id": "0.0-16.0"}}, {"uniqueid": "MTK0910:3ZQIG0FLQFNDHVND52GEOJJZXSQWVO", "current_trial": 26, "dateTime": 1512873146368, "trialdata": {"rt": -1000, "stimulus": "/static/audio/wordpool/EMPIRE.wav", "key_press": -1, "type": "PRES_AUD", "word": "empire", "wordID": 529, "conditions": [18, 1200, "a", 18000], "trial": 0, "serialpos": 5, "trial_type": "single-audio", "trial_index": 26, "time_elapsed": 298166, "internal_node_id": "0.0-17.0"}}, {"uniqueid": "MTK0910:3ZQIG0FLQFNDHVND52GEOJJZXSQWVO", "current_trial": 27, "dateTime": 1512873148597, "trialdata": {"rt": -1000, "stimulus": "/static/audio/wordpool/MAPLE.wav", "key_press": -1, "type": "PRES_AUD", "word": "maple", "wordID": 865, "conditions": [18, 1200, "a", 18000], "trial": 0, "serialpos": 6, "trial_type": "single-audio", "trial_index": 27, "time_elapsed": 300395, "internal_node_id": "0.0-18.0"}}, {"uniqueid": "MTK0910:3ZQIG0FLQFNDHVND52GEOJJZXSQWVO", "current_trial": 28, "dateTime": 1512873150980, "trialdata": {"rt": -1000, "stimulus": "/static/audio/wordpool/SAUSAGE.wav", "key_press": -1, "type": "PRES_AUD", "word": "sausage", "wordID": 1237, "conditions": [18, 1200, "a", 18000], "trial": 0, "serialpos": 7, "trial_type": "single-audio", "trial_index": 28, "time_elapsed": 302778, "internal_node_id": "0.0-19.0"}}, {"uniqueid": "MTK0910:3ZQIG0FLQFNDHVND52GEOJJZXSQWVO", "current_trial": 29, "dateTime": 1512873153021, "trialdata": {"rt": -1000, "stimulus": "/static/audio/wordpool/SUPPER.wav", "key_press": -1, "type": "PRES_AUD", "word": "supper", "wordID": 1410, "conditions": [18, 1200, "a", 18000], "trial": 0, "serialpos": 8, "trial_type": "single-audio", "trial_index": 29, "time_elapsed": 304819, "internal_node_id": "0.0-20.0"}}, {"uniqueid": "MTK0910:3ZQIG0FLQFNDHVND52GEOJJZXSQWVO", "current_trial": 30, "dateTime": 1512873155249, "trialdata": {"rt": -1000, "stimulus": "/static/audio/wordpool/EUROPE.wav", "key_press": -1, "type": "PRES_AUD", "word": "europe", "wordID": 540, "conditions": [18, 1200, "a", 18000], "trial": 0, "serialpos": 9, "trial_type": "single-audio", "trial_index": 30, "time_elapsed": 307047, "internal_node_id": "0.0-21.0"}}, {"uniqueid": "MTK0910:3ZQIG0FLQFNDHVND52GEOJJZXSQWVO", "current_trial": 31, "dateTime": 1512873157541, "trialdata": {"rt": -1000, "stimulus": "/static/audio/wordpool/WIDOW.wav", "key_press": -1, "type": "PRES_AUD", "word": "widow", "wordID": 1607, "conditions": [18, 1200, "a", 18000], "trial": 0, "serialpos": 10, "trial_type": "single-audio", "trial_index": 31, "time_elapsed": 309339, "internal_node_id": "0.0-22.0"}}, {"uniqueid": "MTK0910:3ZQIG0FLQFNDHVND52GEOJJZXSQWVO", "current_trial": 32, "dateTime": 1512873159598, "trialdata": {"rt": -1000, "stimulus": "/static/audio/wordpool/TROUT.wav", "key_press": -1, "type": "PRES_AUD", "word": "trout", "wordID": 1510, "conditions": [18, 1200, "a", 18000], "trial": 0, "serialpos": 11, "trial_type": "single-audio", "trial_index": 32, "time_elapsed": 311396, "internal_node_id": "0.0-23.0"}}, {"uniqueid": "MTK0910:3ZQIG0FLQFNDHVND52GEOJJZXSQWVO", "current_trial": 33, "dateTime": 1512873161833, "trialdata": {"rt": -1000, "stimulus": "/static/audio/wordpool/BALLOON.wav", "key_press": -1, "type": "PRES_AUD", "word": "balloon", "wordID": 74, "conditions": [18, 1200, "a", 18000], "trial": 0, "serialpos": 12, "trial_type": "single-audio", "trial_index": 33, "time_elapsed": 313630, "internal_node_id": "0.0-24.0"}}, {"uniqueid": "MTK0910:3ZQIG0FLQFNDHVND52GEOJJZXSQWVO", "current_trial": 34, "dateTime": 1512873164061, "trialdata": {"rt": -1000, "stimulus": "/static/audio/wordpool/FUNGUS.wav", "key_press": -1, "type": "PRES_AUD", "word": "fungus", "wordID": 613, "conditions": [18, 1200, "a", 18000], "trial": 0, "serialpos": 13, "trial_type": "single-audio", "trial_index": 34, "time_elapsed": 315859, "internal_node_id": "0.0-25.0"}}, {"uniqueid": "MTK0910:3ZQIG0FLQFNDHVND52GEOJJZXSQWVO", "current_trial": 35, "dateTime": 1512873166192, "trialdata": {"rt": -1000, "stimulus": "/static/audio/wordpool/SODA.wav", "key_press": -1, "type": "PRES_AUD", "word": "soda", "wordID": 1340, "conditions": [18, 1200, "a", 18000], "trial": 0, "serialpos": 14, "trial_type": "single-audio", "trial_index": 35, "time_elapsed": 317990, "internal_node_id": "0.0-26.0"}}, {"uniqueid": "MTK0910:3ZQIG0FLQFNDHVND52GEOJJZXSQWVO", "current_trial": 36, "dateTime": 1512873168380, "trialdata": {"rt": -1000, "stimulus": "/static/audio/wordpool/WINDOW.wav", "key_press": -1, "type": "PRES_AUD", "word": "window", "wordID": 1610, "conditions": [18, 1200, "a", 18000], "trial": 0, "serialpos": 15, "trial_type": "single-audio", "trial_index": 36, "time_elapsed": 320178, "internal_node_id": "0.0-27.0"}}, {"uniqueid": "MTK0910:3ZQIG0FLQFNDHVND52GEOJJZXSQWVO", "current_trial": 37, "dateTime": 1512873170508, "trialdata": {"rt": -1000, "stimulus": "/static/audio/wordpool/LEOPARD.wav", "key_press": -1, "type": "PRES_AUD", "word": "leopard", "wordID": 811, "conditions": [18, 1200, "a", 18000], "trial": 0, "serialpos": 16, "trial_type": "single-audio", "trial_index": 37, "time_elapsed": 322306, "internal_node_id": "0.0-28.0"}}, {"uniqueid": "MTK0910:3ZQIG0FLQFNDHVND52GEOJJZXSQWVO", "current_trial": 38, "dateTime": 1512873172737, "trialdata": {"rt": -1000, "stimulus": "/static/audio/wordpool/SEAFOOD.wav", "key_press": -1, "type": "PRES_AUD", "word": "seafood", "wordID": 1259, "conditions": [18, 1200, "a", 18000], "trial": 0, "serialpos": 17, "trial_type": "single-audio", "trial_index": 38, "time_elapsed": 324535, "internal_node_id": "0.0-29.0"}}, {"uniqueid": "MTK0910:3ZQIG0FLQFNDHVND52GEOJJZXSQWVO", "current_trial": 39, "dateTime": 1512873173986, "trialdata": {"rt": -1, "stimulus": "", "key_press": -1, "type": "PRE_RECALL_DELAY", "trial_type": "single-stim", "trial_index": 39, "time_elapsed": 325784, "internal_node_id": "0.0-30.0-0.0"}}, {"uniqueid": "MTK0910:3ZQIG0FLQFNDHVND52GEOJJZXSQWVO", "current_trial": 40, "dateTime": 1512873174487, "trialdata": {"rt": -1000, "stimulus": "/static/audio/400Hz.wav", "key_press": -1, "type": "PRE_RECALL_ALERT", "trial_type": "single-audio", "trial_index": 40, "time_elapsed": 326285, "internal_node_id": "0.0-31.0"}}, {"uniqueid": "MTK0910:3ZQIG0FLQFNDHVND52GEOJJZXSQWVO", "current_trial": 41, "dateTime": 1512873234490, "trialdata": {"rt": [6114, 9330, 12178, 15763, 17762, 20154, 22066, 25290, 28602, 33138, 42218, 47426, 55986], "recwords": ["europe", "map", "maple", "sausage", "trout", "seafood", "supper", "velvet", "stream", "balloon", "fungus", "snail", "leper"], "type": "FREE_RECALL", "conditions": [18, 1200, "a", 18000], "trial": 0, "trial_type": "free-recall", "trial_index": 41, "time_elapsed": 386286, "internal_node_id": "0.0-32.0-0.0"}}, {"uniqueid": "MTK0910:3ZQIG0FLQFNDHVND52GEOJJZXSQWVO", "current_trial": 42, "dateTime": 1512873243409, "trialdata": {"rt": 6917, "key_press": 13, "type": "INSTRUCTIONS", "trial_type": "text", "trial_index": 42, "time_elapsed": 395207, "internal_node_id": "0.0-33.0"}}, {"uniqueid": "MTK0910:3ZQIG0FLQFNDHVND52GEOJJZXSQWVO", "current_trial": 43, "dateTime": 1512873263411, "trialdata": {"rt": [3399, 6720, 12111, 16439], "responses": ["14", "16", "23", "22"], "num1": [8, 6, 8, 8, 6], "num2": [3, 6, 6, 6, 8], "num3": [3, 4, 9, 8, 6], "type": "DISTRACTOR", "conditions": [18, 1200, "v", 18000], "trial": 1, "trial_type": "math-distractor", "trial_index": 43, "time_elapsed": 415209, "internal_node_id": "0.0-34.0"}}, {"uniqueid": "MTK0910:3ZQIG0FLQFNDHVND52GEOJJZXSQWVO", "current_trial": 44, "dateTime": 1512873266415, "trialdata": {"rt": -1, "stimulus": "<p id=\"stim\">10</p>", "key_press": -1, "trial_type": "single-stim", "trial_index": 44, "time_elapsed": 418212, "internal_node_id": "0.0-35.0-0.0"}}, {"uniqueid": "MTK0910:3ZQIG0FLQFNDHVND52GEOJJZXSQWVO", "current_trial": 45, "dateTime": 1512873267419, "trialdata": {"rt": -1, "stimulus": "<p id=\"stim\">9</p>", "key_press": -1, "trial_type": "single-stim", "trial_index": 45, "time_elapsed": 419217, "internal_node_id": "0.0-35.0-1.0"}}, {"uniqueid": "MTK0910:3ZQIG0FLQFNDHVND52GEOJJZXSQWVO", "current_trial": 46, "dateTime": 1512873268423, "trialdata": {"rt": -1, "stimulus": "<p id=\"stim\">8</p>", "key_press": -1, "trial_type": "single-stim", "trial_index": 46, "time_elapsed": 420221, "internal_node_id": "0.0-35.0-2.0"}}, {"uniqueid": "MTK0910:3ZQIG0FLQFNDHVND52GEOJJZXSQWVO", "current_trial": 47, "dateTime": 1512873269427, "trialdata": {"rt": -1, "stimulus": "<p id=\"stim\">7</p>", "key_press": -1, "trial_type": "single-stim", "trial_index": 47, "time_elapsed": 421225, "internal_node_id": "0.0-35.0-3.0"}}, {"uniqueid": "MTK0910:3ZQIG0FLQFNDHVND52GEOJJZXSQWVO", "current_trial": 48, "dateTime": 1512873270431, "trialdata": {"rt": -1, "stimulus": "<p id=\"stim\">6</p>", "key_press": -1, "trial_type": "single-stim", "trial_index": 48, "time_elapsed": 422229, "internal_node_id": "0.0-35.0-4.0"}}, {"uniqueid": "MTK0910:3ZQIG0FLQFNDHVND52GEOJJZXSQWVO", "current_trial": 49, "dateTime": 1512873271435, "trialdata": {"rt": -1, "stimulus": "<p id=\"stim\">5</p>", "key_press": -1, "trial_type": "single-stim", "trial_index": 49, "time_elapsed": 423233, "internal_node_id": "0.0-35.0-5.0"}}, {"uniqueid": "MTK0910:3ZQIG0FLQFNDHVND52GEOJJZXSQWVO", "current_trial": 50, "dateTime": 1512873272440, "trialdata": {"rt": -1, "stimulus": "<p id=\"stim\">4</p>", "key_press": -1, "trial_type": "single-stim", "trial_index": 50, "time_elapsed": 424238, "internal_node_id": "0.0-35.0-6.0"}}, {"uniqueid": "MTK0910:3ZQIG0FLQFNDHVND52GEOJJZXSQWVO", "current_trial": 51, "dateTime": 1512873273444, "trialdata": {"rt": -1, "stimulus": "<p id=\"stim\">3</p>", "key_press": -1, "trial_type": "single-stim", "trial_index": 51, "time_elapsed": 425242, "internal_node_id": "0.0-35.0-7.0"}}, {"uniqueid": "MTK0910:3ZQIG0FLQFNDHVND52GEOJJZXSQWVO", "current_trial": 52, "dateTime": 1512873274448, "trialdata": {"rt": -1, "stimulus": "<p id=\"stim\">2</p>", "key_press": -1, "trial_type": "single-stim", "trial_index": 52, "time_elapsed": 426246, "internal_node_id": "0.0-35.0-8.0"}}, {"uniqueid": "MTK0910:3ZQIG0FLQFNDHVND52GEOJJZXSQWVO", "current_trial": 53, "dateTime": 1512873275452, "trialdata": {"rt": 401, "stimulus": "<p id=\"stim\">1</p>", "key_press": 32, "trial_type": "single-stim", "trial_index": 53, "time_elapsed": 427250, "internal_node_id": "0.0-35.0-9.0"}}, {"uniqueid": "MTK0910:3ZQIG0FLQFNDHVND52GEOJJZXSQWVO", "current_trial": 54, "dateTime": 1512873276955, "trialdata": {"rt": 444, "stimulus": "<p id=\"stim\">+</p>", "key_press": 32, "type": "FIXATION", "trial_type": "single-stim", "trial_index": 54, "time_elapsed": 428753, "internal_node_id": "0.0-36.0-0.0"}}, {"uniqueid": "MTK0910:3ZQIG0FLQFNDHVND52GEOJJZXSQWVO", "current_trial": 55, "dateTime": 1512873278156, "trialdata": {"rt": -1, "stimulus": "<p id=\"stim\">ZEBRA</p>", "key_press": -1, "type": "PRES_VIS", "word": "zebra", "wordID": 1634, "conditions": [18, 1200, "v", 18000], "trial": 1, "serialpos": 0, "trial_type": "single-stim", "trial_index": 55, "time_elapsed": 429954, "internal_node_id": "0.0-37.0"}}, {"uniqueid": "MTK0910:3ZQIG0FLQFNDHVND52GEOJJZXSQWVO", "current_trial": 56, "dateTime": 1512873280437, "trialdata": {"rt": -1, "stimulus": "<p id=\"stim\">FOOT</p>", "key_press": -1, "type": "PRES_VIS", "word": "foot", "wordID": 589, "conditions": [18, 1200, "v", 18000], "trial": 1, "serialpos": 1, "trial_type": "single-stim", "trial_index": 56, "time_elapsed": 432235, "internal_node_id": "0.0-38.0"}}, {"uniqueid": "MTK0910:3ZQIG0FLQFNDHVND52GEOJJZXSQWVO", "current_trial": 57, "dateTime": 1512873282736, "trialdata": {"rt": -1, "stimulus": "<p id=\"stim\">BIKE</p>", "key_press": -1, "type": "PRES_VIS", "word": "bike", "wordID": 124, "conditions": [18, 1200, "v", 18000], "trial": 1, "serialpos": 2, "trial_type": "single-stim", "trial_index": 57, "time_elapsed": 434533, "internal_node_id": "0.0-39.0"}}, {"uniqueid": "MTK0910:3ZQIG0FLQFNDHVND52GEOJJZXSQWVO", "current_trial": 58, "dateTime": 1512873284959, "trialdata": {"rt": -1, "stimulus": "<p id=\"stim\">OUTFIT</p>", "key_press": -1, "type": "PRES_VIS", "word": "outfit", "wordID": 987, "conditions": [18, 1200, "v", 18000], "trial": 1, "serialpos": 3, "trial_type": "single-stim", "trial_index": 58, "time_elapsed": 436757, "internal_node_id": "0.0-40.0"}}, {"uniqueid": "MTK0910:3ZQIG0FLQFNDHVND52GEOJJZXSQWVO", "current_trial": 59, "dateTime": 1512873287019, "trialdata": {"rt": -1, "stimulus": "<p id=\"stim\">BATHTUB</p>", "key_press": -1, "type": "PRES_VIS", "word": "bathtub", "wordID": 99, "conditions": [18, 1200, "v", 18000], "trial": 1, "serialpos": 4, "trial_type": "single-stim", "trial_index": 59, "time_elapsed": 438817, "internal_node_id": "0.0-41.0"}}, {"uniqueid": "MTK0910:3ZQIG0FLQFNDHVND52GEOJJZXSQWVO", "current_trial": 60, "dateTime": 1512873289306, "trialdata": {"rt": -1, "stimulus": "<p id=\"stim\">AWARD</p>", "key_press": -1, "type": "PRES_VIS", "word": "award", "wordID": 62, "conditions": [18, 1200, "v", 18000], "trial": 1, "serialpos": 5, "trial_type": "single-stim", "trial_index": 60, "time_elapsed": 441104, "internal_node_id": "0.0-42.0"}}, {"uniqueid": "MTK0910:3ZQIG0FLQFNDHVND52GEOJJZXSQWVO", "current_trial": 61, "dateTime": 1512873291517, "trialdata": {"rt": -1, "stimulus": "<p id=\"stim\">LIGHTNING</p>", "key_press": -1, "type": "PRES_VIS", "word": "lightning", "wordID": 819, "conditions": [18, 1200, "v", 18000], "trial": 1, "serialpos": 6, "trial_type": "single-stim", "trial_index": 61, "time_elapsed": 443315, "internal_node_id": "0.0-43.0"}}, {"uniqueid": "MTK0910:3ZQIG0FLQFNDHVND52GEOJJZXSQWVO", "current_trial": 62, "dateTime": 1512873293920, "trialdata": {"rt": -1, "stimulus": "<p id=\"stim\">DRESS</p>", "key_press": -1, "type": "PRES_VIS", "word": "dress", "wordID": 494, "conditions": [18, 1200, "v", 18000], "trial": 1, "serialpos": 7, "trial_type": "single-stim", "trial_index": 62, "time_elapsed": 445718, "internal_node_id": "0.0-44.0"}}, {"uniqueid": "MTK0910:3ZQIG0FLQFNDHVND52GEOJJZXSQWVO", "current_trial": 63, "dateTime": 1512873296300, "trialdata": {"rt": -1, "stimulus": "<p id=\"stim\">DONKEY</p>", "key_press": -1, "type": "PRES_VIS", "word": "donkey", "wordID": 483, "conditions": [18, 1200, "v", 18000], "trial": 1, "serialpos": 8, "trial_type": "single-stim", "trial_index": 63, "time_elapsed": 448098, "internal_node_id": "0.0-45.0"}}, {"uniqueid": "MTK0910:3ZQIG0FLQFNDHVND52GEOJJZXSQWVO", "current_trial": 64, "dateTime": 1512873298313, "trialdata": {"rt": -1, "stimulus": "<p id=\"stim\">CHAMPAGNE</p>", "key_press": -1, "type": "PRES_VIS", "word": "champagne", "wordID": 277, "conditions": [18, 1200, "v", 18000], "trial": 1, "serialpos": 9, "trial_type": "single-stim", "trial_index": 64, "time_elapsed": 450111, "internal_node_id": "0.0-46.0"}}, {"uniqueid": "MTK0910:3ZQIG0FLQFNDHVND52GEOJJZXSQWVO", "current_trial": 65, "dateTime": 1512873300476, "trialdata": {"rt": -1, "stimulus": "<p id=\"stim\">VIKING</p>", "key_press": -1, "type": "PRES_VIS", "word": "viking", "wordID": 1564, "conditions": [18, 1200, "v", 18000], "trial": 1, "serialpos": 10, "trial_type": "single-stim", "trial_index": 65, "time_elapsed": 452273, "internal_node_id": "0.0-47.0"}}, {"uniqueid": "MTK0910:3ZQIG0FLQFNDHVND52GEOJJZXSQWVO", "current_trial": 66, "dateTime": 1512873302695, "trialdata": {"rt": -1, "stimulus": "<p id=\"stim\">DRINK</p>", "key_press": -1, "type": "PRES_VIS", "word": "drink", "wordID": 497, "conditions": [18, 1200, "v", 18000], "trial": 1, "serialpos": 11, "trial_type": "single-stim", "trial_index": 66, "time_elapsed": 454493, "internal_node_id": "0.0-48.0"}}, {"uniqueid": "MTK0910:3ZQIG0FLQFNDHVND52GEOJJZXSQWVO", "current_trial": 67, "dateTime": 1512873304721, "trialdata": {"rt": -1, "stimulus": "<p id=\"stim\">SLUG</p>", "key_press": -1, "type": "PRES_VIS", "word": "slug", "wordID": 1328, "conditions": [18, 1200, "v", 18000], "trial": 1, "serialpos": 12, "trial_type": "single-stim", "trial_index": 67, "time_elapsed": 456519, "internal_node_id": "0.0-49.0"}}, {"uniqueid": "MTK0910:3ZQIG0FLQFNDHVND52GEOJJZXSQWVO", "current_trial": 68, "dateTime": 1512873306759, "trialdata": {"rt": -1, "stimulus": "<p id=\"stim\">CARRIAGE</p>", "key_press": -1, "type": "PRES_VIS", "word": "carriage", "wordID": 247, "conditions": [18, 1200, "v", 18000], "trial": 1, "serialpos": 13, "trial_type": "single-stim", "trial_index": 68, "time_elapsed": 458556, "internal_node_id": "0.0-50.0"}}, {"uniqueid": "MTK0910:3ZQIG0FLQFNDHVND52GEOJJZXSQWVO", "current_trial": 69, "dateTime": 1512873308778, "trialdata": {"rt": -1, "stimulus": "<p id=\"stim\">NIGHTGOWN</p>", "key_press": -1, "type": "PRES_VIS", "word": "nightgown", "wordID": 952, "conditions": [18, 1200, "v", 18000], "trial": 1, "serialpos": 14, "trial_type": "single-stim", "trial_index": 69, "time_elapsed": 460576, "internal_node_id": "0.0-51.0"}}, {"uniqueid": "MTK0910:3ZQIG0FLQFNDHVND52GEOJJZXSQWVO", "current_trial": 70, "dateTime": 1512873310877, "trialdata": {"rt": -1, "stimulus": "<p id=\"stim\">MATCH</p>", "key_press": -1, "type": "PRES_VIS", "word": "match", "wordID": 877, "conditions": [18, 1200, "v", 18000], "trial": 1, "serialpos": 15, "trial_type": "single-stim", "trial_index": 70, "time_elapsed": 462675, "internal_node_id": "0.0-52.0"}}, {"uniqueid": "MTK0910:3ZQIG0FLQFNDHVND52GEOJJZXSQWVO", "current_trial": 71, "dateTime": 1512873313218, "trialdata": {"rt": -1, "stimulus": "<p id=\"stim\">HEART</p>", "key_press": -1, "type": "PRES_VIS", "word": "heart", "wordID": 696, "conditions": [18, 1200, "v", 18000], "trial": 1, "serialpos": 16, "trial_type": "single-stim", "trial_index": 71, "time_elapsed": 465016, "internal_node_id": "0.0-53.0"}}, {"uniqueid": "MTK0910:3ZQIG0FLQFNDHVND52GEOJJZXSQWVO", "current_trial": 72, "dateTime": 1512873315406, "trialdata": {"rt": -1, "stimulus": "<p id=\"stim\">JUDGE</p>", "key_press": -1, "type": "PRES_VIS", "word": "judge", "wordID": 760, "conditions": [18, 1200, "v", 18000], "trial": 1, "serialpos": 17, "trial_type": "single-stim", "trial_index": 72, "time_elapsed": 467204, "internal_node_id": "0.0-54.0"}}, {"uniqueid": "MTK0910:3ZQIG0FLQFNDHVND52GEOJJZXSQWVO", "current_trial": 73, "dateTime": 1512873317913, "trialdata": {"rt": -1, "stimulus": "", "key_press": -1, "type": "PRE_RECALL_DELAY", "trial_type": "single-stim", "trial_index": 73, "time_elapsed": 469711, "internal_node_id": "0.0-55.0-0.0"}}, {"uniqueid": "MTK0910:3ZQIG0FLQFNDHVND52GEOJJZXSQWVO", "current_trial": 74, "dateTime": 1512873318414, "trialdata": {"rt": -1000, "stimulus": "/static/audio/400Hz.wav", "key_press": -1, "type": "PRE_RECALL_ALERT", "trial_type": "single-audio", "trial_index": 74, "time_elapsed": 470212, "internal_node_id": "0.0-56.0"}}, {"uniqueid": "MTK0910:3ZQIG0FLQFNDHVND52GEOJJZXSQWVO", "current_trial": 75, "dateTime": 1512873378419, "trialdata": {"rt": [4353, 7225, 11001, 14281, 17841, 19177, 21289, 24985, 28224, 32232, 34816, 36200, 40488, 44936, 56544], "recwords": ["carriage", "nightgown", "champagne", "zebra", "judge", "heart", "slug", "bathrub", "bathtub", "award", "lightning", "drink", "foot", "viking", "dress"], "type": "FREE_RECALL", "conditions": [18, 1200, "v", 18000], "trial": 1, "trial_type": "free-recall", "trial_index": 75, "time_elapsed": 530216, "internal_node_id": "0.0-57.0-0.0"}}, {"uniqueid": "MTK0910:3ZQIG0FLQFNDHVND52GEOJJZXSQWVO", "current_trial": 76, "dateTime": 1512873387554, "trialdata": {"rt": 7128, "key_press": 75, "type": "INSTRUCTIONS", "trial_type": "text", "trial_index": 76, "time_elapsed": 539349, "internal_node_id": "0.0-58.0"}}, {"uniqueid": "MTK0910:3ZQIG0FLQFNDHVND52GEOJJZXSQWVO", "current_trial": 77, "dateTime": 1512873400560, "trialdata": {"rt": [3105, 6609, 9114, 11370], "responses": ["20", "15", "16", "13"], "num1": [9, 6, 6, 3, 1], "num2": [5, 1, 1, 6, 2], "num3": [6, 8, 9, 4, 6], "type": "DISTRACTOR", "conditions": [12, 800, "v", 12000], "trial": 2, "trial_type": "math-distractor", "trial_index": 77, "time_elapsed": 552357, "internal_node_id": "0.0-59.0"}}, {"uniqueid": "MTK0910:3ZQIG0FLQFNDHVND52GEOJJZXSQWVO", "current_trial": 78, "dateTime": 1512873403566, "trialdata": {"rt": -1, "stimulus": "<p id=\"stim\">10</p>", "key_press": -1, "trial_type": "single-stim", "trial_index": 78, "time_elapsed": 555364, "internal_node_id": "0.0-60.0-0.0"}}, {"uniqueid": "MTK0910:3ZQIG0FLQFNDHVND52GEOJJZXSQWVO", "current_trial": 79, "dateTime": 1512873404570, "trialdata": {"rt": -1, "stimulus": "<p id=\"stim\">9</p>", "key_press": -1, "trial_type": "single-stim", "trial_index": 79, "time_elapsed": 556368, "internal_node_id": "0.0-60.0-1.0"}}, {"uniqueid": "MTK0910:3ZQIG0FLQFNDHVND52GEOJJZXSQWVO", "current_trial": 80, "dateTime": 1512873405574, "trialdata": {"rt": 604, "stimulus": "<p id=\"stim\">8</p>", "key_press": 32, "trial_type": "single-stim", "trial_index": 80, "time_elapsed": 557372, "internal_node_id": "0.0-60.0-2.0"}}, {"uniqueid": "MTK0910:3ZQIG0FLQFNDHVND52GEOJJZXSQWVO", "current_trial": 81, "dateTime": 1512873406578, "trialdata": {"rt": -1, "stimulus": "<p id=\"stim\">7</p>", "key_press": -1, "trial_type": "single-stim", "trial_index": 81, "time_elapsed": 558376, "internal_node_id": "0.0-60.0-3.0"}}, {"uniqueid": "MTK0910:3ZQIG0FLQFNDHVND52GEOJJZXSQWVO", "current_trial": 82, "dateTime": 1512873407582, "trialdata": {"rt": -1, "stimulus": "<p id=\"stim\">6</p>", "key_press": -1, "trial_type": "single-stim", "trial_index": 82, "time_elapsed": 559380, "internal_node_id": "0.0-60.0-4.0"}}, {"uniqueid": "MTK0910:3ZQIG0FLQFNDHVND52GEOJJZXSQWVO", "current_trial": 83, "dateTime": 1512873408586, "trialdata": {"rt": -1, "stimulus": "<p id=\"stim\">5</p>", "key_press": -1, "trial_type": "single-stim", "trial_index": 83, "time_elapsed": 560384, "internal_node_id": "0.0-60.0-5.0"}}, {"uniqueid": "MTK0910:3ZQIG0FLQFNDHVND52GEOJJZXSQWVO", "current_trial": 84, "dateTime": 1512873409590, "trialdata": {"rt": -1, "stimulus": "<p id=\"stim\">4</p>", "key_press": -1, "trial_type": "single-stim", "trial_index": 84, "time_elapsed": 561388, "internal_node_id": "0.0-60.0-6.0"}}, {"uniqueid": "MTK0910:3ZQIG0FLQFNDHVND52GEOJJZXSQWVO", "current_trial": 85, "dateTime": 1512873410594, "trialdata": {"rt": -1, "stimulus": "<p id=\"stim\">3</p>", "key_press": -1, "trial_type": "single-stim", "trial_index": 85, "time_elapsed": 562392, "internal_node_id": "0.0-60.0-7.0"}}, {"uniqueid": "MTK0910:3ZQIG0FLQFNDHVND52GEOJJZXSQWVO", "current_trial": 86, "dateTime": 1512873411598, "trialdata": {"rt": -1, "stimulus": "<p id=\"stim\">2</p>", "key_press": -1, "trial_type": "single-stim", "trial_index": 86, "time_elapsed": 563396, "internal_node_id": "0.0-60.0-8.0"}}, {"uniqueid": "MTK0910:3ZQIG0FLQFNDHVND52GEOJJZXSQWVO", "current_trial": 87, "dateTime": 1512873412602, "trialdata": {"rt": -1, "stimulus": "<p id=\"stim\">1</p>", "key_press": -1, "trial_type": "single-stim", "trial_index": 87, "time_elapsed": 564400, "internal_node_id": "0.0-60.0-9.0"}}, {"uniqueid": "MTK0910:3ZQIG0FLQFNDHVND52GEOJJZXSQWVO", "current_trial": 88, "dateTime": 1512873414105, "trialdata": {"rt": -1, "stimulus": "<p id=\"stim\">+</p>", "key_press": -1, "type": "FIXATION", "trial_type": "single-stim", "trial_index": 88, "time_elapsed": 565903, "internal_node_id": "0.0-61.0-0.0"}}, {"uniqueid": "MTK0910:3ZQIG0FLQFNDHVND52GEOJJZXSQWVO", "current_trial": 89, "dateTime": 1512873414906, "trialdata": {"rt": -1, "stimulus": "<p id=\"stim\">CLOCK</p>", "key_press": -1, "type": "PRES_VIS", "word": "clock", "wordID": 324, "conditions": [12, 800, "v", 12000], "trial": 2, "serialpos": 0, "trial_type": "single-stim", "trial_index": 89, "time_elapsed": 566704, "internal_node_id": "0.0-62.0"}}, {"uniqueid": "MTK0910:3ZQIG0FLQFNDHVND52GEOJJZXSQWVO", "current_trial": 90, "dateTime": 1512873416539, "trialdata": {"rt": -1, "stimulus": "<p id=\"stim\">HARP</p>", "key_press": -1, "type": "PRES_VIS", "word": "harp", "wordID": 688, "conditions": [12, 800, "v", 12000], "trial": 2, "serialpos": 1, "trial_type": "single-stim", "trial_index": 90, "time_elapsed": 568337, "internal_node_id": "0.0-63.0"}}, {"uniqueid": "MTK0910:3ZQIG0FLQFNDHVND52GEOJJZXSQWVO", "current_trial": 91, "dateTime": 1512873418354, "trialdata": {"rt": -1, "stimulus": "<p id=\"stim\">FIDDLE</p>", "key_press": -1, "type": "PRES_VIS", "word": "fiddle", "wordID": 560, "conditions": [12, 800, "v", 12000], "trial": 2, "serialpos": 2, "trial_type": "single-stim", "trial_index": 91, "time_elapsed": 570152, "internal_node_id": "0.0-64.0"}}, {"uniqueid": "MTK0910:3ZQIG0FLQFNDHVND52GEOJJZXSQWVO", "current_trial": 92, "dateTime": 1512873420089, "trialdata": {"rt": -1, "stimulus": "<p id=\"stim\">SWITCH</p>", "key_press": -1, "type": "PRES_VIS", "word": "switch", "wordID": 1421, "conditions": [12, 800, "v", 12000], "trial": 2, "serialpos": 3, "trial_type": "single-stim", "trial_index": 92, "time_elapsed": 571887, "internal_node_id": "0.0-65.0"}}, {"uniqueid": "MTK0910:3ZQIG0FLQFNDHVND52GEOJJZXSQWVO", "current_trial": 93, "dateTime": 1512873421970, "trialdata": {"rt": -1, "stimulus": "<p id=\"stim\">WASP</p>", "key_press": -1, "type": "PRES_VIS", "word": "wasp", "wordID": 1592, "conditions": [12, 800, "v", 12000], "trial": 2, "serialpos": 4, "trial_type": "single-stim", "trial_index": 93, "time_elapsed": 573768, "internal_node_id": "0.0-66.0"}}, {"uniqueid": "MTK0910:3ZQIG0FLQFNDHVND52GEOJJZXSQWVO", "current_trial": 94, "dateTime": 1512873423618, "trialdata": {"rt": -1, "stimulus": "<p id=\"stim\">SHARK</p>", "key_press": -1, "type": "PRES_VIS", "word": "shark", "wordID": 1274, "conditions": [12, 800, "v", 12000], "trial": 2, "serialpos": 5, "trial_type": "single-stim", "trial_index": 94, "time_elapsed": 575416, "internal_node_id": "0.0-67.0"}}, {"uniqueid": "MTK0910:3ZQIG0FLQFNDHVND52GEOJJZXSQWVO", "current_trial": 95, "dateTime": 1512873425350, "trialdata": {"rt": -1, "stimulus": "<p id=\"stim\">OINTMENT</p>", "key_press": -1, "type": "PRES_VIS", "word": "ointment", "wordID": 973, "conditions": [12, 800, "v", 12000], "trial": 2, "serialpos": 6, "trial_type": "single-stim", "trial_index": 95, "time_elapsed": 577148, "internal_node_id": "0.0-68.0"}}, {"uniqueid": "MTK0910:3ZQIG0FLQFNDHVND52GEOJJZXSQWVO", "current_trial": 96, "dateTime": 1512873427153, "trialdata": {"rt": -1, "stimulus": "<p id=\"stim\">HORNET</p>", "key_press": -1, "type": "PRES_VIS", "word": "hornet", "wordID": 717, "conditions": [12, 800, "v", 12000], "trial": 2, "serialpos": 7, "trial_type": "single-stim", "trial_index": 96, "time_elapsed": 578951, "internal_node_id": "0.0-69.0"}}, {"uniqueid": "MTK0910:3ZQIG0FLQFNDHVND52GEOJJZXSQWVO", "current_trial": 97, "dateTime": 1512873429056, "trialdata": {"rt": -1, "stimulus": "<p id=\"stim\">CRAB</p>", "key_press": -1, "type": "PRES_VIS", "word": "crab", "wordID": 396, "conditions": [12, 800, "v", 12000], "trial": 2, "serialpos": 8, "trial_type": "single-stim", "trial_index": 97, "time_elapsed": 580854, "internal_node_id": "0.0-70.0"}}, {"uniqueid": "MTK0910:3ZQIG0FLQFNDHVND52GEOJJZXSQWVO", "current_trial": 98, "dateTime": 1512873430977, "trialdata": {"rt": -1, "stimulus": "<p id=\"stim\">BANJO</p>", "key_press": -1, "type": "PRES_VIS", "word": "banjo", "wordID": 81, "conditions": [12, 800, "v", 12000], "trial": 2, "serialpos": 9, "trial_type": "single-stim", "trial_index": 98, "time_elapsed": 582775, "internal_node_id": "0.0-71.0"}}, {"uniqueid": "MTK0910:3ZQIG0FLQFNDHVND52GEOJJZXSQWVO", "current_trial": 99, "dateTime": 1512873432800, "trialdata": {"rt": -1, "stimulus": "<p id=\"stim\">CABBAGE</p>", "key_press": -1, "type": "PRES_VIS", "word": "cabbage", "wordID": 209, "conditions": [12, 800, "v", 12000], "trial": 2, "serialpos": 10, "trial_type": "single-stim", "trial_index": 99, "time_elapsed": 584598, "internal_node_id": "0.0-72.0"}}, {"uniqueid": "MTK0910:3ZQIG0FLQFNDHVND52GEOJJZXSQWVO", "current_trial": 100, "dateTime": 1512873434802, "trialdata": {"rt": -1, "stimulus": "<p id=\"stim\">BLENDER</p>", "key_press": -1, "type": "PRES_VIS", "word": "blender", "wordID": 135, "conditions": [12, 800, "v", 12000], "trial": 2, "serialpos": 11, "trial_type": "single-stim", "trial_index": 100, "time_elapsed": 586600, "internal_node_id": "0.0-73.0"}}, {"uniqueid": "MTK0910:3ZQIG0FLQFNDHVND52GEOJJZXSQWVO", "current_trial": 101, "dateTime": 1512873436984, "trialdata": {"rt": -1, "stimulus": "", "key_press": -1, "type": "PRE_RECALL_DELAY", "trial_type": "single-stim", "trial_index": 101, "time_elapsed": 588782, "internal_node_id": "0.0-74.0-0.0"}}, {"uniqueid": "MTK0910:3ZQIG0FLQFNDHVND52GEOJJZXSQWVO", "current_trial": 102, "dateTime": 1512873437485, "trialdata": {"rt": -1000, "stimulus": "/static/audio/400Hz.wav", "key_press": -1, "type": "PRE_RECALL_ALERT", "trial_type": "single-audio", "trial_index": 102, "time_elapsed": 589283, "internal_node_id": "0.0-75.0"}}, {"uniqueid": "MTK0910:3ZQIG0FLQFNDHVND52GEOJJZXSQWVO", "current_trial": 103, "dateTime": 1512873497492, "trialdata": {"rt": [4838, 7709, 13197, 14693, 17845, 22573, 24301, 30213, 36029, 41365], "recwords": ["blender", "cabbage", "hornet", "wasp", "clock", "switch", "fiddle", "shark", "clock", "crab"], "type": "FREE_RECALL", "conditions": [12, 800, "v", 12000], "trial": 2, "trial_type": "free-recall", "trial_index": 103, "time_elapsed": 649288, "internal_node_id": "0.0-76.0-0.0"}}, {"uniqueid": "MTK0910:3ZQIG0FLQFNDHVND52GEOJJZXSQWVO", "current_trial": 104, "dateTime": 1512873502308, "trialdata": {"rt": 2815, "key_press": 75, "type": "INSTRUCTIONS", "trial_type": "text", "trial_index": 104, "time_elapsed": 654106, "internal_node_id": "0.0-77.0"}}, {"uniqueid": "MTK0910:3ZQIG0FLQFNDHVND52GEOJJZXSQWVO", "current_trial": 105, "dateTime": 1512873528315, "trialdata": {"rt": [4895, 14934, 17934, 20798, 23367], "responses": ["18", "14", "19", "11", "17"], "num1": [3, 4, 9, 2, 8, 2], "num2": [8, 4, 2, 6, 1, 7], "num3": [7, 6, 8, 3, 8, 3], "type": "DISTRACTOR", "conditions": [24, 1600, "a", 24000], "trial": 3, "trial_type": "math-distractor", "trial_index": 105, "time_elapsed": 680113, "internal_node_id": "0.0-78.0"}}, {"uniqueid": "MTK0910:3ZQIG0FLQFNDHVND52GEOJJZXSQWVO", "current_trial": 106, "dateTime": 1512873531321, "trialdata": {"rt": -1, "stimulus": "<p id=\"stim\">10</p>", "key_press": -1, "trial_type": "single-stim", "trial_index": 106, "time_elapsed": 683119, "internal_node_id": "0.0-79.0-0.0"}}, {"uniqueid": "MTK0910:3ZQIG0FLQFNDHVND52GEOJJZXSQWVO", "current_trial": 107, "dateTime": 1512873532325, "trialdata": {"rt": -1, "stimulus": "<p id=\"stim\">9</p>", "key_press": -1, "trial_type": "single-stim", "trial_index": 107, "time_elapsed": 684123, "internal_node_id": "0.0-79.0-1.0"}}, {"uniqueid": "MTK0910:3ZQIG0FLQFNDHVND52GEOJJZXSQWVO", "current_trial": 108, "dateTime": 1512873533329, "trialdata": {"rt": -1, "stimulus": "<p id=\"stim\">8</p>", "key_press": -1, "trial_type": "single-stim", "trial_index": 108, "time_elapsed": 685127, "internal_node_id": "0.0-79.0-2.0"}}, {"uniqueid": "MTK0910:3ZQIG0FLQFNDHVND52GEOJJZXSQWVO", "current_trial": 109, "dateTime": 1512873534330, "trialdata": {"rt": -1, "stimulus": "<p id=\"stim\">7</p>", "key_press": -1, "trial_type": "single-stim", "trial_index": 109, "time_elapsed": 686128, "internal_node_id": "0.0-79.0-3.0"}}, {"uniqueid": "MTK0910:3ZQIG0FLQFNDHVND52GEOJJZXSQWVO", "current_trial": 110, "dateTime": 1512873535331, "trialdata": {"rt": -1, "stimulus": "<p id=\"stim\">6</p>", "key_press": -1, "trial_type": "single-stim", "trial_index": 110, "time_elapsed": 687129, "internal_node_id": "0.0-79.0-4.0"}}, {"uniqueid": "MTK0910:3ZQIG0FLQFNDHVND52GEOJJZXSQWVO", "current_trial": 111, "dateTime": 1512873536332, "trialdata": {"rt": -1, "stimulus": "<p id=\"stim\">5</p>", "key_press": -1, "trial_type": "single-stim", "trial_index": 111, "time_elapsed": 688130, "internal_node_id": "0.0-79.0-5.0"}}, {"uniqueid": "MTK0910:3ZQIG0FLQFNDHVND52GEOJJZXSQWVO", "current_trial": 112, "dateTime": 1512873537334, "trialdata": {"rt": -1, "stimulus": "<p id=\"stim\">4</p>", "key_press": -1, "trial_type": "single-stim", "trial_index": 112, "time_elapsed": 689132, "internal_node_id": "0.0-79.0-6.0"}}, {"uniqueid": "MTK0910:3ZQIG0FLQFNDHVND52GEOJJZXSQWVO", "current_trial": 113, "dateTime": 1512873538336, "trialdata": {"rt": -1, "stimulus": "<p id=\"stim\">3</p>", "key_press": -1, "trial_type": "single-stim", "trial_index": 113, "time_elapsed": 690134, "internal_node_id": "0.0-79.0-7.0"}}, {"uniqueid": "MTK0910:3ZQIG0FLQFNDHVND52GEOJJZXSQWVO", "current_trial": 114, "dateTime": 1512873539338, "trialdata": {"rt": -1, "stimulus": "<p id=\"stim\">2</p>", "key_press": -1, "trial_type": "single-stim", "trial_index": 114, "time_elapsed": 691136, "internal_node_id": "0.0-79.0-8.0"}}, {"uniqueid": "MTK0910:3ZQIG0FLQFNDHVND52GEOJJZXSQWVO", "current_trial": 115, "dateTime": 1512873540340, "trialdata": {"rt": -1, "stimulus": "<p id=\"stim\">1</p>", "key_press": -1, "trial_type": "single-stim", "trial_index": 115, "time_elapsed": 692138, "internal_node_id": "0.0-79.0-9.0"}}, {"uniqueid": "MTK0910:3ZQIG0FLQFNDHVND52GEOJJZXSQWVO", "current_trial": 116, "dateTime": 1512873541843, "trialdata": {"rt": -1, "stimulus": "<p id=\"stim\">+</p>", "key_press": -1, "type": "FIXATION", "trial_type": "single-stim", "trial_index": 116, "time_elapsed": 693641, "internal_node_id": "0.0-80.0-0.0"}}, {"uniqueid": "MTK0910:3ZQIG0FLQFNDHVND52GEOJJZXSQWVO", "current_trial": 117, "dateTime": 1512873544431, "trialdata": {"rt": -1000, "stimulus": "/static/audio/wordpool/PICTURE.wav", "key_press": -1, "type": "PRES_AUD", "word": "picture", "wordID": 1060, "conditions": [24, 1600, "a", 24000], "trial": 3, "serialpos": 0, "trial_type": "single-audio", "trial_index": 117, "time_elapsed": 696229, "internal_node_id": "0.0-81.0"}}, {"uniqueid": "MTK0910:3ZQIG0FLQFNDHVND52GEOJJZXSQWVO", "current_trial": 118, "dateTime": 1512873547037, "trialdata": {"rt": -1000, "stimulus": "/static/audio/wordpool/JELLO.wav", "key_press": -1, "type": "PRES_AUD", "word": "jello", "wordID": 753, "conditions": [24, 1600, "a", 24000], "trial": 3, "serialpos": 1, "trial_type": "single-audio", "trial_index": 118, "time_elapsed": 698835, "internal_node_id": "0.0-82.0"}}, {"uniqueid": "MTK0910:3ZQIG0FLQFNDHVND52GEOJJZXSQWVO", "current_trial": 119, "dateTime": 1512873549764, "trialdata": {"rt": -1000, "stimulus": "/static/audio/wordpool/BOYFRIEND.wav", "key_press": -1, "type": "PRES_AUD", "word": "boyfriend", "wordID": 161, "conditions": [24, 1600, "a", 24000], "trial": 3, "serialpos": 2, "trial_type": "single-audio", "trial_index": 119, "time_elapsed": 701562, "internal_node_id": "0.0-83.0"}}, {"uniqueid": "MTK0910:3ZQIG0FLQFNDHVND52GEOJJZXSQWVO", "current_trial": 120, "dateTime": 1512873552361, "trialdata": {"rt": -1000, "stimulus": "/static/audio/wordpool/GIRL.wav", "key_press": -1, "type": "PRES_AUD", "word": "girl", "wordID": 636, "conditions": [24, 1600, "a", 24000], "trial": 3, "serialpos": 3, "trial_type": "single-audio", "trial_index": 120, "time_elapsed": 704158, "internal_node_id": "0.0-84.0"}}, {"uniqueid": "MTK0910:3ZQIG0FLQFNDHVND52GEOJJZXSQWVO", "current_trial": 121, "dateTime": 1512873554780, "trialdata": {"rt": -1000, "stimulus": "/static/audio/wordpool/FLASHLIGHT.wav", "key_press": -1, "type": "PRES_AUD", "word": "flashlight", "wordID": 574, "conditions": [24, 1600, "a", 24000], "trial": 3, "serialpos": 4, "trial_type": "single-audio", "trial_index": 121, "time_elapsed": 706578, "internal_node_id": "0.0-85.0"}}, {"uniqueid": "MTK0910:3ZQIG0FLQFNDHVND52GEOJJZXSQWVO", "current_trial": 122, "dateTime": 1512873557520, "trialdata": {"rt": -1000, "stimulus": "/static/audio/wordpool/LONDON.wav", "key_press": -1, "type": "PRES_AUD", "word": "london", "wordID": 842, "conditions": [24, 1600, "a", 24000], "trial": 3, "serialpos": 5, "trial_type": "single-audio", "trial_index": 122, "time_elapsed": 709318, "internal_node_id": "0.0-86.0"}}, {"uniqueid": "MTK0910:3ZQIG0FLQFNDHVND52GEOJJZXSQWVO", "current_trial": 123, "dateTime": 1512873560191, "trialdata": {"rt": -1000, "stimulus": "/static/audio/wordpool/VICTIM.wav", "key_press": -1, "type": "PRES_AUD", "word": "victim", "wordID": 1561, "conditions": [24, 1600, "a", 24000], "trial": 3, "serialpos": 6, "trial_type": "single-audio", "trial_index": 123, "time_elapsed": 711989, "internal_node_id": "0.0-87.0"}}, {"uniqueid": "MTK0910:3ZQIG0FLQFNDHVND52GEOJJZXSQWVO", "current_trial": 124, "dateTime": 1512873562948, "trialdata": {"rt": -1000, "stimulus": "/static/audio/wordpool/DINER.wav", "key_press": -1, "type": "PRES_AUD", "word": "diner", "wordID": 466, "conditions": [24, 1600, "a", 24000], "trial": 3, "serialpos": 7, "trial_type": "single-audio", "trial_index": 124, "time_elapsed": 714746, "internal_node_id": "0.0-88.0"}}, {"uniqueid": "MTK0910:3ZQIG0FLQFNDHVND52GEOJJZXSQWVO", "current_trial": 125, "dateTime": 1512873565463, "trialdata": {"rt": -1000, "stimulus": "/static/audio/wordpool/VAGRANT.wav", "key_press": -1, "type": "PRES_AUD", "word": "vagrant", "wordID": 1543, "conditions": [24, 1600, "a", 24000], "trial": 3, "serialpos": 8, "trial_type": "single-audio", "trial_index": 125, "time_elapsed": 717261, "internal_node_id": "0.0-89.0"}}, {"uniqueid": "MTK0910:3ZQIG0FLQFNDHVND52GEOJJZXSQWVO", "current_trial": 126, "dateTime": 1512873568127, "trialdata": {"rt": -1000, "stimulus": "/static/audio/wordpool/SCISSORS.wav", "key_press": -1, "type": "PRES_AUD", "word": "scissors", "wordID": 1249, "conditions": [24, 1600, "a", 24000], "trial": 3, "serialpos": 9, "trial_type": "single-audio", "trial_index": 126, "time_elapsed": 719925, "internal_node_id": "0.0-90.0"}}, {"uniqueid": "MTK0910:3ZQIG0FLQFNDHVND52GEOJJZXSQWVO", "current_trial": 127, "dateTime": 1512873570605, "trialdata": {"rt": -1000, "stimulus": "/static/audio/wordpool/PORTRAIT.wav", "key_press": -1, "type": "PRES_AUD", "word": "portrait", "wordID": 1110, "conditions": [24, 1600, "a", 24000], "trial": 3, "serialpos": 10, "trial_type": "single-audio", "trial_index": 127, "time_elapsed": 722403, "internal_node_id": "0.0-91.0"}}, {"uniqueid": "MTK0910:3ZQIG0FLQFNDHVND52GEOJJZXSQWVO", "current_trial": 128, "dateTime": 1512873573227, "trialdata": {"rt": -1000, "stimulus": "/static/audio/wordpool/BEAST.wav", "key_press": -1, "type": "PRES_AUD", "word": "beast", "wordID": 107, "conditions": [24, 1600, "a", 24000], "trial": 3, "serialpos": 11, "trial_type": "single-audio", "trial_index": 128, "time_elapsed": 725024, "internal_node_id": "0.0-92.0"}}, {"uniqueid": "MTK0910:3ZQIG0FLQFNDHVND52GEOJJZXSQWVO", "current_trial": 129, "dateTime": 1512873575917, "trialdata": {"rt": -1000, "stimulus": "/static/audio/wordpool/MONEY.wav", "key_press": -1, "type": "PRES_AUD", "word": "money", "wordID": 907, "conditions": [24, 1600, "a", 24000], "trial": 3, "serialpos": 12, "trial_type": "single-audio", "trial_index": 129, "time_elapsed": 727715, "internal_node_id": "0.0-93.0"}}, {"uniqueid": "MTK0910:3ZQIG0FLQFNDHVND52GEOJJZXSQWVO", "current_trial": 130, "dateTime": 1512873578530, "trialdata": {"rt": -1000, "stimulus": "/static/audio/wordpool/SURVEY.wav", "key_press": -1, "type": "PRES_AUD", "word": "survey", "wordID": 1413, "conditions": [24, 1600, "a", 24000], "trial": 3, "serialpos": 13, "trial_type": "single-audio", "trial_index": 130, "time_elapsed": 730328, "internal_node_id": "0.0-94.0"}}, {"uniqueid": "MTK0910:3ZQIG0FLQFNDHVND52GEOJJZXSQWVO", "current_trial": 131, "dateTime": 1512873581221, "trialdata": {"rt": -1000, "stimulus": "/static/audio/wordpool/GLOBE.wav", "key_press": -1, "type": "PRES_AUD", "word": "globe", "wordID": 640, "conditions": [24, 1600, "a", 24000], "trial": 3, "serialpos": 14, "trial_type": "single-audio", "trial_index": 131, "time_elapsed": 733019, "internal_node_id": "0.0-95.0"}}, {"uniqueid": "MTK0910:3ZQIG0FLQFNDHVND52GEOJJZXSQWVO", "current_trial": 132, "dateTime": 1512873583835, "trialdata": {"rt": -1000, "stimulus": "/static/audio/wordpool/BROTHER.wav", "key_press": -1, "type": "PRES_AUD", "word": "brother", "wordID": 178, "conditions": [24, 1600, "a", 24000], "trial": 3, "serialpos": 15, "trial_type": "single-audio", "trial_index": 132, "time_elapsed": 735633, "internal_node_id": "0.0-96.0"}}, {"uniqueid": "MTK0910:3ZQIG0FLQFNDHVND52GEOJJZXSQWVO", "current_trial": 133, "dateTime": 1512873586352, "trialdata": {"rt": -1000, "stimulus": "/static/audio/wordpool/DIVER.wav", "key_press": -1, "type": "PRES_AUD", "word": "diver", "wordID": 475, "conditions": [24, 1600, "a", 24000], "trial": 3, "serialpos": 16, "trial_type": "single-audio", "trial_index": 133, "time_elapsed": 738150, "internal_node_id": "0.0-97.0"}}, {"uniqueid": "MTK0910:3ZQIG0FLQFNDHVND52GEOJJZXSQWVO", "current_trial": 134, "dateTime": 1512873589001, "trialdata": {"rt": -1000, "stimulus": "/static/audio/wordpool/PIMPLE.wav", "key_press": -1, "type": "PRES_AUD", "word": "pimple", "wordID": 1070, "conditions": [24, 1600, "a", 24000], "trial": 3, "serialpos": 17, "trial_type": "single-audio", "trial_index": 134, "time_elapsed": 740799, "internal_node_id": "0.0-98.0"}}, {"uniqueid": "MTK0910:3ZQIG0FLQFNDHVND52GEOJJZXSQWVO", "current_trial": 135, "dateTime": 1512873591462, "trialdata": {"rt": -1000, "stimulus": "/static/audio/wordpool/FRECKLE.wav", "key_press": -1, "type": "PRES_AUD", "word": "freckle", "wordID": 601, "conditions": [24, 1600, "a", 24000], "trial": 3, "serialpos": 18, "trial_type": "single-audio", "trial_index": 135, "time_elapsed": 743260, "internal_node_id": "0.0-99.0"}}, {"uniqueid": "MTK0910:3ZQIG0FLQFNDHVND52GEOJJZXSQWVO", "current_trial": 136, "dateTime": 1512873594243, "trialdata": {"rt": -1000, "stimulus": "/static/audio/wordpool/GARBAGE.wav", "key_press": -1, "type": "PRES_AUD", "word": "garbage", "wordID": 621, "conditions": [24, 1600, "a", 24000], "trial": 3, "serialpos": 19, "trial_type": "single-audio", "trial_index": 136, "time_elapsed": 746041, "internal_node_id": "0.0-100.0"}}, {"uniqueid": "MTK0910:3ZQIG0FLQFNDHVND52GEOJJZXSQWVO", "current_trial": 137, "dateTime": 1512873596954, "trialdata": {"rt": -1000, "stimulus": "/static/audio/wordpool/CRATER.wav", "key_press": -1, "type": "PRES_AUD", "word": "crater", "wordID": 399, "conditions": [24, 1600, "a", 24000], "trial": 3, "serialpos": 20, "trial_type": "single-audio", "trial_index": 137, "time_elapsed": 748752, "internal_node_id": "0.0-101.0"}}, {"uniqueid": "MTK0910:3ZQIG0FLQFNDHVND52GEOJJZXSQWVO", "current_trial": 138, "dateTime": 1512873599357, "trialdata": {"rt": -1000, "stimulus": "/static/audio/wordpool/UNCLE.wav", "key_press": -1, "type": "PRES_AUD", "word": "uncle", "wordID": 1535, "conditions": [24, 1600, "a", 24000], "trial": 3, "serialpos": 21, "trial_type": "single-audio", "trial_index": 138, "time_elapsed": 751155, "internal_node_id": "0.0-102.0"}}, {"uniqueid": "MTK0910:3ZQIG0FLQFNDHVND52GEOJJZXSQWVO", "current_trial": 139, "dateTime": 1512873602029, "trialdata": {"rt": -1000, "stimulus": "/static/audio/wordpool/SOFTBALL.wav", "key_press": -1, "type": "PRES_AUD", "word": "softball", "wordID": 1342, "conditions": [24, 1600, "a", 24000], "trial": 3, "serialpos": 22, "trial_type": "single-audio", "trial_index": 139, "time_elapsed": 753827, "internal_node_id": "0.0-103.0"}}, {"uniqueid": "MTK0910:3ZQIG0FLQFNDHVND52GEOJJZXSQWVO", "current_trial": 140, "dateTime": 1512873604790, "trialdata": {"rt": -1000, "stimulus": "/static/audio/wordpool/WORLD.wav", "key_press": -1, "type": "PRES_AUD", "word": "world", "wordID": 1621, "conditions": [24, 1600, "a", 24000], "trial": 3, "serialpos": 23, "trial_type": "single-audio", "trial_index": 140, "time_elapsed": 756588, "internal_node_id": "0.0-104.0"}}, {"uniqueid": "MTK0910:3ZQIG0FLQFNDHVND52GEOJJZXSQWVO", "current_trial": 141, "dateTime": 1512873606183, "trialdata": {"rt": -1, "stimulus": "", "key_press": -1, "type": "PRE_RECALL_DELAY", "trial_type": "single-stim", "trial_index": 141, "time_elapsed": 757981, "internal_node_id": "0.0-105.0-0.0"}}, {"uniqueid": "MTK0910:3ZQIG0FLQFNDHVND52GEOJJZXSQWVO", "current_trial": 142, "dateTime": 1512873606684, "trialdata": {"rt": -1000, "stimulus": "/static/audio/400Hz.wav", "key_press": -1, "type": "PRE_RECALL_ALERT", "trial_type": "single-audio", "trial_index": 142, "time_elapsed": 758482, "internal_node_id": "0.0-106.0"}}, {"uniqueid": "MTK0910:3ZQIG0FLQFNDHVND52GEOJJZXSQWVO", "current_trial": 143, "dateTime": 1512873666691, "trialdata": {"rt": [4853, 6813, 7885, 9773, 13845, 15278, 16701, 21565, 24613, 27997, 30405, 33813, 36749, 37765, 42965, 45868, 52509], "recwords": ["boyfriend", "girl", "jello", "uncle", "garbage", "pimple", "freckle", "brother", "world", "softball", "diver", "london", "survey", "money", "portrait", "victim", "jello"], "type": "FREE_RECALL", "conditions": [24, 1600, "a", 24000], "trial": 3, "trial_type": "free-recall", "trial_index": 143, "time_elapsed": 818487, "internal_node_id": "0.0-107.0-0.0"}}, {"uniqueid": "MTK0910:3ZQIG0FLQFNDHVND52GEOJJZXSQWVO", "current_trial": 144, "dateTime": 1512873671754, "trialdata": {"rt": 3062, "key_press": 32, "type": "INSTRUCTIONS", "trial_type": "text", "trial_index": 144, "time_elapsed": 823551, "internal_node_id": "0.0-108.0"}}, {"uniqueid": "MTK0910:3ZQIG0FLQFNDHVND52GEOJJZXSQWVO", "current_trial": 145, "dateTime": 1512873697764, "trialdata": {"rt": [4994, 8130, 10586, 17466, 22250], "responses": ["20 ", "10 ", "13", "25", "24"], "num1": [7, 5, 4, 7, 9, 3], "num2": [9, 3, 7, 9, 6, 5], "num3": [4, 2, 2, 9, 9, 5], "type": "DISTRACTOR", "conditions": [12, 800, "v", 24000], "trial": 4, "trial_type": "math-distractor", "trial_index": 145, "time_elapsed": 849561, "internal_node_id": "0.0-109.0"}}, {"uniqueid": "MTK0910:3ZQIG0FLQFNDHVND52GEOJJZXSQWVO", "current_trial": 146, "dateTime": 1512873700770, "trialdata": {"rt": -1, "stimulus": "<p id=\"stim\">10</p>", "key_press": -1, "trial_type": "single-stim", "trial_index": 146, "time_elapsed": 852568, "internal_node_id": "0.0-110.0-0.0"}}, {"uniqueid": "MTK0910:3ZQIG0FLQFNDHVND52GEOJJZXSQWVO", "current_trial": 147, "dateTime": 1512873701774, "trialdata": {"rt": -1, "stimulus": "<p id=\"stim\">9</p>", "key_press": -1, "trial_type": "single-stim", "trial_index": 147, "time_elapsed": 853572, "internal_node_id": "0.0-110.0-1.0"}}, {"uniqueid": "MTK0910:3ZQIG0FLQFNDHVND52GEOJJZXSQWVO", "current_trial": 148, "dateTime": 1512873702778, "trialdata": {"rt": -1, "stimulus": "<p id=\"stim\">8</p>", "key_press": -1, "trial_type": "single-stim", "trial_index": 148, "time_elapsed": 854576, "internal_node_id": "0.0-110.0-2.0"}}, {"uniqueid": "MTK0910:3ZQIG0FLQFNDHVND52GEOJJZXSQWVO", "current_trial": 149, "dateTime": 1512873703782, "trialdata": {"rt": -1, "stimulus": "<p id=\"stim\">7</p>", "key_press": -1, "trial_type": "single-stim", "trial_index": 149, "time_elapsed": 855580, "internal_node_id": "0.0-110.0-3.0"}}, {"uniqueid": "MTK0910:3ZQIG0FLQFNDHVND52GEOJJZXSQWVO", "current_trial": 150, "dateTime": 1512873704786, "trialdata": {"rt": -1, "stimulus": "<p id=\"stim\">6</p>", "key_press": -1, "trial_type": "single-stim", "trial_index": 150, "time_elapsed": 856584, "internal_node_id": "0.0-110.0-4.0"}}, {"uniqueid": "MTK0910:3ZQIG0FLQFNDHVND52GEOJJZXSQWVO", "current_trial": 151, "dateTime": 1512873705790, "trialdata": {"rt": -1, "stimulus": "<p id=\"stim\">5</p>", "key_press": -1, "trial_type": "single-stim", "trial_index": 151, "time_elapsed": 857588, "internal_node_id": "0.0-110.0-5.0"}}, {"uniqueid": "MTK0910:3ZQIG0FLQFNDHVND52GEOJJZXSQWVO", "current_trial": 152, "dateTime": 1512873706794, "trialdata": {"rt": -1, "stimulus": "<p id=\"stim\">4</p>", "key_press": -1, "trial_type": "single-stim", "trial_index": 152, "time_elapsed": 858592, "internal_node_id": "0.0-110.0-6.0"}}, {"uniqueid": "MTK0910:3ZQIG0FLQFNDHVND52GEOJJZXSQWVO", "current_trial": 153, "dateTime": 1512873707798, "trialdata": {"rt": -1, "stimulus": "<p id=\"stim\">3</p>", "key_press": -1, "trial_type": "single-stim", "trial_index": 153, "time_elapsed": 859596, "internal_node_id": "0.0-110.0-7.0"}}, {"uniqueid": "MTK0910:3ZQIG0FLQFNDHVND52GEOJJZXSQWVO", "current_trial": 154, "dateTime": 1512873708802, "trialdata": {"rt": -1, "stimulus": "<p id=\"stim\">2</p>", "key_press": -1, "trial_type": "single-stim", "trial_index": 154, "time_elapsed": 860600, "internal_node_id": "0.0-110.0-8.0"}}, {"uniqueid": "MTK0910:3ZQIG0FLQFNDHVND52GEOJJZXSQWVO", "current_trial": 155, "dateTime": 1512873709806, "trialdata": {"rt": -1, "stimulus": "<p id=\"stim\">1</p>", "key_press": -1, "trial_type": "single-stim", "trial_index": 155, "time_elapsed": 861604, "internal_node_id": "0.0-110.0-9.0"}}, {"uniqueid": "MTK0910:3ZQIG0FLQFNDHVND52GEOJJZXSQWVO", "current_trial": 156, "dateTime": 1512873711310, "trialdata": {"rt": -1, "stimulus": "<p id=\"stim\">+</p>", "key_press": -1, "type": "FIXATION", "trial_type": "single-stim", "trial_index": 156, "time_elapsed": 863107, "internal_node_id": "0.0-111.0-0.0"}}, {"uniqueid": "MTK0910:3ZQIG0FLQFNDHVND52GEOJJZXSQWVO", "current_trial": 157, "dateTime": 1512873712111, "trialdata": {"rt": -1, "stimulus": "<p id=\"stim\">STATUE</p>", "key_press": -1, "type": "PRES_VIS", "word": "statue", "wordID": 1373, "conditions": [12, 800, "v", 24000], "trial": 4, "serialpos": 0, "trial_type": "single-stim", "trial_index": 157, "time_elapsed": 863908, "internal_node_id": "0.0-112.0"}}, {"uniqueid": "MTK0910:3ZQIG0FLQFNDHVND52GEOJJZXSQWVO", "current_trial": 158, "dateTime": 1512873714032, "trialdata": {"rt": -1, "stimulus": "<p id=\"stim\">CAFE</p>", "key_press": -1, "type": "PRES_VIS", "word": "cafe", "wordID": 215, "conditions": [12, 800, "v", 24000], "trial": 4, "serialpos": 1, "trial_type": "single-stim", "trial_index": 158, "time_elapsed": 865830, "internal_node_id": "0.0-113.0"}}, {"uniqueid": "MTK0910:3ZQIG0FLQFNDHVND52GEOJJZXSQWVO", "current_trial": 159, "dateTime": 1512873715883, "trialdata": {"rt": -1, "stimulus": "<p id=\"stim\">ONION</p>", "key_press": -1, "type": "PRES_VIS", "word": "onion", "wordID": 976, "conditions": [12, 800, "v", 24000], "trial": 4, "serialpos": 2, "trial_type": "single-stim", "trial_index": 159, "time_elapsed": 867681, "internal_node_id": "0.0-114.0"}}, {"uniqueid": "MTK0910:3ZQIG0FLQFNDHVND52GEOJJZXSQWVO", "current_trial": 160, "dateTime": 1512873717631, "trialdata": {"rt": -1, "stimulus": "<p id=\"stim\">CONCERT</p>", "key_press": -1, "type": "PRES_VIS", "word": "concert", "wordID": 359, "conditions": [12, 800, "v", 24000], "trial": 4, "serialpos": 3, "trial_type": "single-stim", "trial_index": 160, "time_elapsed": 869428, "internal_node_id": "0.0-115.0"}}, {"uniqueid": "MTK0910:3ZQIG0FLQFNDHVND52GEOJJZXSQWVO", "current_trial": 161, "dateTime": 1512873719354, "trialdata": {"rt": -1, "stimulus": "<p id=\"stim\">TROMBONE</p>", "key_press": -1, "type": "PRES_VIS", "word": "trombone", "wordID": 1507, "conditions": [12, 800, "v", 24000], "trial": 4, "serialpos": 4, "trial_type": "single-stim", "trial_index": 161, "time_elapsed": 871152, "internal_node_id": "0.0-116.0"}}, {"uniqueid": "MTK0910:3ZQIG0FLQFNDHVND52GEOJJZXSQWVO", "current_trial": 162, "dateTime": 1512873721182, "trialdata": {"rt": -1, "stimulus": "<p id=\"stim\">PEBBLE</p>", "key_press": -1, "type": "PRES_VIS", "word": "pebble", "wordID": 1034, "conditions": [12, 800, "v", 24000], "trial": 4, "serialpos": 5, "trial_type": "single-stim", "trial_index": 162, "time_elapsed": 872980, "internal_node_id": "0.0-117.0"}}, {"uniqueid": "MTK0910:3ZQIG0FLQFNDHVND52GEOJJZXSQWVO", "current_trial": 163, "dateTime": 1512873723010, "trialdata": {"rt": -1, "stimulus": "<p id=\"stim\">SCULPTURE</p>", "key_press": -1, "type": "PRES_VIS", "word": "sculpture", "wordID": 1257, "conditions": [12, 800, "v", 24000], "trial": 4, "serialpos": 6, "trial_type": "single-stim", "trial_index": 163, "time_elapsed": 874808, "internal_node_id": "0.0-118.0"}}, {"uniqueid": "MTK0910:3ZQIG0FLQFNDHVND52GEOJJZXSQWVO", "current_trial": 164, "dateTime": 1512873724630, "trialdata": {"rt": -1, "stimulus": "<p id=\"stim\">BURGLAR</p>", "key_press": -1, "type": "PRES_VIS", "word": "burglar", "wordID": 199, "conditions": [12, 800, "v", 24000], "trial": 4, "serialpos": 7, "trial_type": "single-stim", "trial_index": 164, "time_elapsed": 876427, "internal_node_id": "0.0-119.0"}}, {"uniqueid": "MTK0910:3ZQIG0FLQFNDHVND52GEOJJZXSQWVO", "current_trial": 165, "dateTime": 1512873726580, "trialdata": {"rt": -1, "stimulus": "<p id=\"stim\">THIEF</p>", "key_press": -1, "type": "PRES_VIS", "word": "thief", "wordID": 1455, "conditions": [12, 800, "v", 24000], "trial": 4, "serialpos": 8, "trial_type": "single-stim", "trial_index": 165, "time_elapsed": 878378, "internal_node_id": "0.0-120.0"}}, {"uniqueid": "MTK0910:3ZQIG0FLQFNDHVND52GEOJJZXSQWVO", "current_trial": 166, "dateTime": 1512873728437, "trialdata": {"rt": -1, "stimulus": "<p id=\"stim\">BLOCKADE</p>", "key_press": -1, "type": "PRES_VIS", "word": "blockade", "wordID": 136, "conditions": [12, 800, "v", 24000], "trial": 4, "serialpos": 9, "trial_type": "single-stim", "trial_index": 166, "time_elapsed": 880235, "internal_node_id": "0.0-121.0"}}, {"uniqueid": "MTK0910:3ZQIG0FLQFNDHVND52GEOJJZXSQWVO", "current_trial": 167, "dateTime": 1512873730143, "trialdata": {"rt": -1, "stimulus": "<p id=\"stim\">HOOD</p>", "key_press": -1, "type": "PRES_VIS", "word": "hood", "wordID": 713, "conditions": [12, 800, "v", 24000], "trial": 4, "serialpos": 10, "trial_type": "single-stim", "trial_index": 167, "time_elapsed": 881941, "internal_node_id": "0.0-122.0"}}, {"uniqueid": "MTK0910:3ZQIG0FLQFNDHVND52GEOJJZXSQWVO", "current_trial": 168, "dateTime": 1512873732035, "trialdata": {"rt": -1, "stimulus": "<p id=\"stim\">TABLE</p>", "key_press": -1, "type": "PRES_VIS", "word": "table", "wordID": 1425, "conditions": [12, 800, "v", 24000], "trial": 4, "serialpos": 11, "trial_type": "single-stim", "trial_index": 168, "time_elapsed": 883833, "internal_node_id": "0.0-123.0"}}, {"uniqueid": "MTK0910:3ZQIG0FLQFNDHVND52GEOJJZXSQWVO", "current_trial": 169, "dateTime": 1512873734386, "trialdata": {"rt": -1, "stimulus": "", "key_press": -1, "type": "PRE_RECALL_DELAY", "trial_type": "single-stim", "trial_index": 169, "time_elapsed": 886184, "internal_node_id": "0.0-124.0-0.0"}}, {"uniqueid": "MTK0910:3ZQIG0FLQFNDHVND52GEOJJZXSQWVO", "current_trial": 170, "dateTime": 1512873734887, "trialdata": {"rt": -1000, "stimulus": "/static/audio/400Hz.wav", "key_press": -1, "type": "PRE_RECALL_ALERT", "trial_type": "single-audio", "trial_index": 170, "time_elapsed": 886685, "internal_node_id": "0.0-125.0"}}, {"uniqueid": "MTK0910:3ZQIG0FLQFNDHVND52GEOJJZXSQWVO", "current_trial": 171, "dateTime": 1512873794892, "trialdata": {"rt": [4586, 5648, 8032, 10640, 12232, 14768, 17584, 19400, 22048, 26968], "recwords": ["table", "hood", "sculpture", "concert", "onion", "statue", "trombone", "cafe", "thief", "pebble"], "type": "FREE_RECALL", "conditions": [12, 800, "v", 24000], "trial": 4, "trial_type": "free-recall", "trial_index": 171, "time_elapsed": 946689, "internal_node_id": "0.0-126.0-0.0"}}, {"uniqueid": "MTK0910:3ZQIG0FLQFNDHVND52GEOJJZXSQWVO", "current_trial": 172, "dateTime": 1512873800542, "trialdata": {"rt": 3649, "key_press": 13, "type": "INSTRUCTIONS", "trial_type": "text", "trial_index": 172, "time_elapsed": 952340, "internal_node_id": "0.0-127.0"}}, {"uniqueid": "MTK0910:3ZQIG0FLQFNDHVND52GEOJJZXSQWVO", "current_trial": 173, "dateTime": 1512873826548, "trialdata": {"rt": [3541, 5837, 10021, 12213, 15348, 18053, 21756, 23876], "responses": ["25", "18", "17", "10", "17", "15", "25", "8"], "num1": [8, 8, 3, 2, 7, 7, 8, 2, 5], "num2": [9, 9, 7, 1, 6, 4, 8, 3, 2], "num3": [8, 1, 7, 7, 4, 4, 9, 3, 9], "type": "DISTRACTOR", "conditions": [24, 1600, "v", 24000], "trial": 5, "trial_type": "math-distractor", "trial_index": 173, "time_elapsed": 978346, "internal_node_id": "0.0-128.0"}}, {"uniqueid": "MTK0910:3ZQIG0FLQFNDHVND52GEOJJZXSQWVO", "current_trial": 174, "dateTime": 1512873829557, "trialdata": {"rt": -1, "stimulus": "<p id=\"stim\">10</p>", "key_press": -1, "trial_type": "single-stim", "trial_index": 174, "time_elapsed": 981355, "internal_node_id": "0.0-129.0-0.0"}}, {"uniqueid": "MTK0910:3ZQIG0FLQFNDHVND52GEOJJZXSQWVO", "current_trial": 175, "dateTime": 1512873830561, "trialdata": {"rt": -1, "stimulus": "<p id=\"stim\">9</p>", "key_press": -1, "trial_type": "single-stim", "trial_index": 175, "time_elapsed": 982359, "internal_node_id": "0.0-129.0-1.0"}}, {"uniqueid": "MTK0910:3ZQIG0FLQFNDHVND52GEOJJZXSQWVO", "current_trial": 176, "dateTime": 1512873831565, "trialdata": {"rt": -1, "stimulus": "<p id=\"stim\">8</p>", "key_press": -1, "trial_type": "single-stim", "trial_index": 176, "time_elapsed": 983363, "internal_node_id": "0.0-129.0-2.0"}}, {"uniqueid": "MTK0910:3ZQIG0FLQFNDHVND52GEOJJZXSQWVO", "current_trial": 177, "dateTime": 1512873832570, "trialdata": {"rt": -1, "stimulus": "<p id=\"stim\">7</p>", "key_press": -1, "trial_type": "single-stim", "trial_index": 177, "time_elapsed": 984367, "internal_node_id": "0.0-129.0-3.0"}}, {"uniqueid": "MTK0910:3ZQIG0FLQFNDHVND52GEOJJZXSQWVO", "current_trial": 178, "dateTime": 1512873833574, "trialdata": {"rt": -1, "stimulus": "<p id=\"stim\">6</p>", "key_press": -1, "trial_type": "single-stim", "trial_index": 178, "time_elapsed": 985371, "internal_node_id": "0.0-129.0-4.0"}}, {"uniqueid": "MTK0910:3ZQIG0FLQFNDHVND52GEOJJZXSQWVO", "current_trial": 179, "dateTime": 1512873834577, "trialdata": {"rt": 320, "stimulus": "<p id=\"stim\">5</p>", "key_press": 17, "trial_type": "single-stim", "trial_index": 179, "time_elapsed": 986375, "internal_node_id": "0.0-129.0-5.0"}}, {"uniqueid": "MTK0910:3ZQIG0FLQFNDHVND52GEOJJZXSQWVO", "current_trial": 180, "dateTime": 1512873835582, "trialdata": {"rt": -1, "stimulus": "<p id=\"stim\">4</p>", "key_press": -1, "trial_type": "single-stim", "trial_index": 180, "time_elapsed": 987380, "internal_node_id": "0.0-129.0-6.0"}}, {"uniqueid": "MTK0910:3ZQIG0FLQFNDHVND52GEOJJZXSQWVO", "current_trial": 181, "dateTime": 1512873836585, "trialdata": {"rt": -1, "stimulus": "<p id=\"stim\">3</p>", "key_press": -1, "trial_type": "single-stim", "trial_index": 181, "time_elapsed": 988383, "internal_node_id": "0.0-129.0-7.0"}}, {"uniqueid": "MTK0910:3ZQIG0FLQFNDHVND52GEOJJZXSQWVO", "current_trial": 182, "dateTime": 1512873837590, "trialdata": {"rt": -1, "stimulus": "<p id=\"stim\">2</p>", "key_press": -1, "trial_type": "single-stim", "trial_index": 182, "time_elapsed": 989388, "internal_node_id": "0.0-129.0-8.0"}}, {"uniqueid": "MTK0910:3ZQIG0FLQFNDHVND52GEOJJZXSQWVO", "current_trial": 183, "dateTime": 1512873838593, "trialdata": {"rt": -1, "stimulus": "<p id=\"stim\">1</p>", "key_press": -1, "trial_type": "single-stim", "trial_index": 183, "time_elapsed": 990391, "internal_node_id": "0.0-129.0-9.0"}}, {"uniqueid": "MTK0910:3ZQIG0FLQFNDHVND52GEOJJZXSQWVO", "current_trial": 184, "dateTime": 1512873840097, "trialdata": {"rt": -1, "stimulus": "<p id=\"stim\">+</p>", "key_press": -1, "type": "FIXATION", "trial_type": "single-stim", "trial_index": 184, "time_elapsed": 991895, "internal_node_id": "0.0-130.0-0.0"}}, {"uniqueid": "MTK0910:3ZQIG0FLQFNDHVND52GEOJJZXSQWVO", "current_trial": 185, "dateTime": 1512873841699, "trialdata": {"rt": -1, "stimulus": "<p id=\"stim\">RACKET</p>", "key_press": -1, "type": "PRES_VIS", "word": "racket", "wordID": 1154, "conditions": [24, 1600, "v", 24000], "trial": 5, "serialpos": 0, "trial_type": "single-stim", "trial_index": 185, "time_elapsed": 993497, "internal_node_id": "0.0-131.0"}}, {"uniqueid": "MTK0910:3ZQIG0FLQFNDHVND52GEOJJZXSQWVO", "current_trial": 186, "dateTime": 1512873844126, "trialdata": {"rt": -1, "stimulus": "<p id=\"stim\">CIGAR</p>", "key_press": -1, "type": "PRES_VIS", "word": "cigar", "wordID": 307, "conditions": [24, 1600, "v", 24000], "trial": 5, "serialpos": 1, "trial_type": "single-stim", "trial_index": 186, "time_elapsed": 995923, "internal_node_id": "0.0-132.0"}}, {"uniqueid": "MTK0910:3ZQIG0FLQFNDHVND52GEOJJZXSQWVO", "current_trial": 187, "dateTime": 1512873846789, "trialdata": {"rt": -1, "stimulus": "<p id=\"stim\">HONEY</p>", "key_press": -1, "type": "PRES_VIS", "word": "honey", "wordID": 712, "conditions": [24, 1600, "v", 24000], "trial": 5, "serialpos": 2, "trial_type": "single-stim", "trial_index": 187, "time_elapsed": 998587, "internal_node_id": "0.0-133.0"}}, {"uniqueid": "MTK0910:3ZQIG0FLQFNDHVND52GEOJJZXSQWVO", "current_trial": 188, "dateTime": 1512873849552, "trialdata": {"rt": -1, "stimulus": "<p id=\"stim\">TEMPLE</p>", "key_press": -1, "type": "PRES_VIS", "word": "temple", "wordID": 1447, "conditions": [24, 1600, "v", 24000], "trial": 5, "serialpos": 3, "trial_type": "single-stim", "trial_index": 188, "time_elapsed": 1001350, "internal_node_id": "0.0-134.0"}}, {"uniqueid": "MTK0910:3ZQIG0FLQFNDHVND52GEOJJZXSQWVO", "current_trial": 189, "dateTime": 1512873852320, "trialdata": {"rt": -1, "stimulus": "<p id=\"stim\">LIZARD</p>", "key_press": -1, "type": "PRES_VIS", "word": "lizard", "wordID": 833, "conditions": [24, 1600, "v", 24000], "trial": 5, "serialpos": 4, "trial_type": "single-stim", "trial_index": 189, "time_elapsed": 1004118, "internal_node_id": "0.0-135.0"}}, {"uniqueid": "MTK0910:3ZQIG0FLQFNDHVND52GEOJJZXSQWVO", "current_trial": 190, "dateTime": 1512873854798, "trialdata": {"rt": -1, "stimulus": "<p id=\"stim\">CHAPEL</p>", "key_press": -1, "type": "PRES_VIS", "word": "chapel", "wordID": 279, "conditions": [24, 1600, "v", 24000], "trial": 5, "serialpos": 5, "trial_type": "single-stim", "trial_index": 190, "time_elapsed": 1006596, "internal_node_id": "0.0-136.0"}}, {"uniqueid": "MTK0910:3ZQIG0FLQFNDHVND52GEOJJZXSQWVO", "current_trial": 191, "dateTime": 1512873857277, "trialdata": {"rt": -1, "stimulus": "<p id=\"stim\">CHURCH</p>", "key_press": -1, "type": "PRES_VIS", "word": "church", "wordID": 306, "conditions": [24, 1600, "v", 24000], "trial": 5, "serialpos": 6, "trial_type": "single-stim", "trial_index": 191, "time_elapsed": 1009075, "internal_node_id": "0.0-137.0"}}, {"uniqueid": "MTK0910:3ZQIG0FLQFNDHVND52GEOJJZXSQWVO", "current_trial": 192, "dateTime": 1512873859956, "trialdata": {"rt": -1, "stimulus": "<p id=\"stim\">FINGER</p>", "key_press": -1, "type": "PRES_VIS", "word": "finger", "wordID": 566, "conditions": [24, 1600, "v", 24000], "trial": 5, "serialpos": 7, "trial_type": "single-stim", "trial_index": 192, "time_elapsed": 1011754, "internal_node_id": "0.0-138.0"}}, {"uniqueid": "MTK0910:3ZQIG0FLQFNDHVND52GEOJJZXSQWVO", "current_trial": 193, "dateTime": 1512873862756, "trialdata": {"rt": -1, "stimulus": "<p id=\"stim\">MAILMAN</p>", "key_press": -1, "type": "PRES_VIS", "word": "mailman", "wordID": 857, "conditions": [24, 1600, "v", 24000], "trial": 5, "serialpos": 8, "trial_type": "single-stim", "trial_index": 193, "time_elapsed": 1014553, "internal_node_id": "0.0-139.0"}}, {"uniqueid": "MTK0910:3ZQIG0FLQFNDHVND52GEOJJZXSQWVO", "current_trial": 194, "dateTime": 1512873865338, "trialdata": {"rt": -1, "stimulus": "<p id=\"stim\">SPIDER</p>", "key_press": -1, "type": "PRES_VIS", "word": "spider", "wordID": 1350, "conditions": [24, 1600, "v", 24000], "trial": 5, "serialpos": 9, "trial_type": "single-stim", "trial_index": 194, "time_elapsed": 1017136, "internal_node_id": "0.0-140.0"}}, {"uniqueid": "MTK0910:3ZQIG0FLQFNDHVND52GEOJJZXSQWVO", "current_trial": 195, "dateTime": 1512873868118, "trialdata": {"rt": -1, "stimulus": "<p id=\"stim\">PILOT</p>", "key_press": -1, "type": "PRES_VIS", "word": "pilot", "wordID": 1069, "conditions": [24, 1600, "v", 24000], "trial": 5, "serialpos": 10, "trial_type": "single-stim", "trial_index": 195, "time_elapsed": 1019916, "internal_node_id": "0.0-141.0"}}, {"uniqueid": "MTK0910:3ZQIG0FLQFNDHVND52GEOJJZXSQWVO", "current_trial": 196, "dateTime": 1512873870536, "trialdata": {"rt": -1, "stimulus": "<p id=\"stim\">COD</p>", "key_press": -1, "type": "PRES_VIS", "word": "cod", "wordID": 339, "conditions": [24, 1600, "v", 24000], "trial": 5, "serialpos": 11, "trial_type": "single-stim", "trial_index": 196, "time_elapsed": 1022334, "internal_node_id": "0.0-142.0"}}, {"uniqueid": "MTK0910:3ZQIG0FLQFNDHVND52GEOJJZXSQWVO", "current_trial": 197, "dateTime": 1512873873174, "trialdata": {"rt": -1, "stimulus": "<p id=\"stim\">GAZELLE</p>", "key_press": -1, "type": "PRES_VIS", "word": "gazelle", "wordID": 627, "conditions": [24, 1600, "v", 24000], "trial": 5, "serialpos": 12, "trial_type": "single-stim", "trial_index": 197, "time_elapsed": 1024971, "internal_node_id": "0.0-143.0"}}, {"uniqueid": "MTK0910:3ZQIG0FLQFNDHVND52GEOJJZXSQWVO", "current_trial": 198, "dateTime": 1512873875913, "trialdata": {"rt": -1, "stimulus": "<p id=\"stim\">MAILBOX</p>", "key_press": -1, "type": "PRES_VIS", "word": "mailbox", "wordID": 856, "conditions": [24, 1600, "v", 24000], "trial": 5, "serialpos": 13, "trial_type": "single-stim", "trial_index": 198, "time_elapsed": 1027711, "internal_node_id": "0.0-144.0"}}, {"uniqueid": "MTK0910:3ZQIG0FLQFNDHVND52GEOJJZXSQWVO", "current_trial": 199, "dateTime": 1512873878374, "trialdata": {"rt": -1, "stimulus": "<p id=\"stim\">SUITCASE</p>", "key_press": -1, "type": "PRES_VIS", "word": "suitcase", "wordID": 1402, "conditions": [24, 1600, "v", 24000], "trial": 5, "serialpos": 14, "trial_type": "single-stim", "trial_index": 199, "time_elapsed": 1030172, "internal_node_id": "0.0-145.0"}}, {"uniqueid": "MTK0910:3ZQIG0FLQFNDHVND52GEOJJZXSQWVO", "current_trial": 200, "dateTime": 1512873881154, "trialdata": {"rt": -1, "stimulus": "<p id=\"stim\">ROOSTER</p>", "key_press": -1, "type": "PRES_VIS", "word": "rooster", "wordID": 1208, "conditions": [24, 1600, "v", 24000], "trial": 5, "serialpos": 15, "trial_type": "single-stim", "trial_index": 200, "time_elapsed": 1032952, "internal_node_id": "0.0-146.0"}}, {"uniqueid": "MTK0910:3ZQIG0FLQFNDHVND52GEOJJZXSQWVO", "current_trial": 201, "dateTime": 1512873883676, "trialdata": {"rt": -1, "stimulus": "<p id=\"stim\">PLATE</p>", "key_press": -1, "type": "PRES_VIS", "word": "plate", "wordID": 1085, "conditions": [24, 1600, "v", 24000], "trial": 5, "serialpos": 16, "trial_type": "single-stim", "trial_index": 201, "time_elapsed": 1035474, "internal_node_id": "0.0-147.0"}}, {"uniqueid": "MTK0910:3ZQIG0FLQFNDHVND52GEOJJZXSQWVO", "current_trial": 202, "dateTime": 1512873886366, "trialdata": {"rt": -1, "stimulus": "<p id=\"stim\">CURTAIN</p>", "key_press": -1, "type": "PRES_VIS", "word": "curtain", "wordID": 426, "conditions": [24, 1600, "v", 24000], "trial": 5, "serialpos": 17, "trial_type": "single-stim", "trial_index": 202, "time_elapsed": 1038164, "internal_node_id": "0.0-148.0"}}, {"uniqueid": "MTK0910:3ZQIG0FLQFNDHVND52GEOJJZXSQWVO", "current_trial": 203, "dateTime": 1512873889088, "trialdata": {"rt": -1, "stimulus": "<p id=\"stim\">QUARTER</p>", "key_press": -1, "type": "PRES_VIS", "word": "quarter", "wordID": 1147, "conditions": [24, 1600, "v", 24000], "trial": 5, "serialpos": 18, "trial_type": "single-stim", "trial_index": 203, "time_elapsed": 1040886, "internal_node_id": "0.0-149.0"}}, {"uniqueid": "MTK0910:3ZQIG0FLQFNDHVND52GEOJJZXSQWVO", "current_trial": 204, "dateTime": 1512873891700, "trialdata": {"rt": -1, "stimulus": "<p id=\"stim\">STUDENT</p>", "key_press": -1, "type": "PRES_VIS", "word": "student", "wordID": 1394, "conditions": [24, 1600, "v", 24000], "trial": 5, "serialpos": 19, "trial_type": "single-stim", "trial_index": 204, "time_elapsed": 1043497, "internal_node_id": "0.0-150.0"}}, {"uniqueid": "MTK0910:3ZQIG0FLQFNDHVND52GEOJJZXSQWVO", "current_trial": 205, "dateTime": 1512873894143, "trialdata": {"rt": -1, "stimulus": "<p id=\"stim\">DORM</p>", "key_press": -1, "type": "PRES_VIS", "word": "dorm", "wordID": 487, "conditions": [24, 1600, "v", 24000], "trial": 5, "serialpos": 20, "trial_type": "single-stim", "trial_index": 205, "time_elapsed": 1045941, "internal_node_id": "0.0-151.0"}}, {"uniqueid": "MTK0910:3ZQIG0FLQFNDHVND52GEOJJZXSQWVO", "current_trial": 206, "dateTime": 1512873896894, "trialdata": {"rt": -1, "stimulus": "<p id=\"stim\">BLOUSE</p>", "key_press": -1, "type": "PRES_VIS", "word": "blouse", "wordID": 138, "conditions": [24, 1600, "v", 24000], "trial": 5, "serialpos": 21, "trial_type": "single-stim", "trial_index": 206, "time_elapsed": 1048692, "internal_node_id": "0.0-152.0"}}, {"uniqueid": "MTK0910:3ZQIG0FLQFNDHVND52GEOJJZXSQWVO", "current_trial": 207, "dateTime": 1512873899581, "trialdata": {"rt": -1, "stimulus": "<p id=\"stim\">LAMP</p>", "key_press": -1, "type": "PRES_VIS", "word": "lamp", "wordID": 797, "conditions": [24, 1600, "v", 24000], "trial": 5, "serialpos": 22, "trial_type": "single-stim", "trial_index": 207, "time_elapsed": 1051379, "internal_node_id": "0.0-153.0"}}, {"uniqueid": "MTK0910:3ZQIG0FLQFNDHVND52GEOJJZXSQWVO", "current_trial": 208, "dateTime": 1512873902361, "trialdata": {"rt": -1, "stimulus": "<p id=\"stim\">KNAPSACK</p>", "key_press": -1, "type": "PRES_VIS", "word": "knapsack", "wordID": 782, "conditions": [24, 1600, "v", 24000], "trial": 5, "serialpos": 23, "trial_type": "single-stim", "trial_index": 208, "time_elapsed": 1054159, "internal_node_id": "0.0-154.0"}}, {"uniqueid": "MTK0910:3ZQIG0FLQFNDHVND52GEOJJZXSQWVO", "current_trial": 209, "dateTime": 1512873904867, "trialdata": {"rt": -1, "stimulus": "", "key_press": -1, "type": "PRE_RECALL_DELAY", "trial_type": "single-stim", "trial_index": 209, "time_elapsed": 1056665, "internal_node_id": "0.0-155.0-0.0"}}, {"uniqueid": "MTK0910:3ZQIG0FLQFNDHVND52GEOJJZXSQWVO", "current_trial": 210, "dateTime": 1512873905368, "trialdata": {"rt": -1000, "stimulus": "/static/audio/400Hz.wav", "key_press": -1, "type": "PRE_RECALL_ALERT", "trial_type": "single-audio", "trial_index": 210, "time_elapsed": 1057166, "internal_node_id": "0.0-156.0"}}, {"uniqueid": "MTK0910:3ZQIG0FLQFNDHVND52GEOJJZXSQWVO", "current_trial": 211, "dateTime": 1512873965375, "trialdata": {"rt": [4460, 7012, 8612, 9868, 19004, 22011, 29035, 30531, 33291, 37604, 41843, 47995, 50459, 52051, 56555], "recwords": ["mailbox", "mailman", "student", "dorm", "blouse", "quarter", "lizard", "chapel", "spider", "knapsack", "suitcase", "finger", "rooster", "pilot", "gazelle"], "type": "FREE_RECALL", "conditions": [24, 1600, "v", 24000], "trial": 5, "trial_type": "free-recall", "trial_index": 211, "time_elapsed": 1117171, "internal_node_id": "0.0-157.0-0.0"}}, {"uniqueid": "MTK0910:3ZQIG0FLQFNDHVND52GEOJJZXSQWVO", "current_trial": 212, "dateTime": 1512873977308, "trialdata": {"rt": 9928, "key_press": 75, "type": "INSTRUCTIONS", "trial_type": "text", "trial_index": 212, "time_elapsed": 1129106, "internal_node_id": "0.0-158.0"}}, {"uniqueid": "MTK0910:3ZQIG0FLQFNDHVND52GEOJJZXSQWVO", "current_trial": 213, "dateTime": 1512873991316, "trialdata": {"rt": [7810, 10002], "responses": ["13", "10"], "num1": [5, 1, 8], "num2": [4, 2, 3], "num3": [4, 7, 1], "type": "DISTRACTOR", "conditions": [24, 800, "v", 12000], "trial": 6, "trial_type": "math-distractor", "trial_index": 213, "time_elapsed": 1143114, "internal_node_id": "0.0-159.0"}}, {"uniqueid": "MTK0910:3ZQIG0FLQFNDHVND52GEOJJZXSQWVO", "current_trial": 214, "dateTime": 1512873994322, "trialdata": {"rt": -1, "stimulus": "<p id=\"stim\">10</p>", "key_press": -1, "trial_type": "single-stim", "trial_index": 214, "time_elapsed": 1146120, "internal_node_id": "0.0-160.0-0.0"}}, {"uniqueid": "MTK0910:3ZQIG0FLQFNDHVND52GEOJJZXSQWVO", "current_trial": 215, "dateTime": 1512873995323, "trialdata": {"rt": -1, "stimulus": "<p id=\"stim\">9</p>", "key_press": -1, "trial_type": "single-stim", "trial_index": 215, "time_elapsed": 1147121, "internal_node_id": "0.0-160.0-1.0"}}, {"uniqueid": "MTK0910:3ZQIG0FLQFNDHVND52GEOJJZXSQWVO", "current_trial": 216, "dateTime": 1512873996325, "trialdata": {"rt": -1, "stimulus": "<p id=\"stim\">8</p>", "key_press": -1, "trial_type": "single-stim", "trial_index": 216, "time_elapsed": 1148123, "internal_node_id": "0.0-160.0-2.0"}}, {"uniqueid": "MTK0910:3ZQIG0FLQFNDHVND52GEOJJZXSQWVO", "current_trial": 217, "dateTime": 1512873997326, "trialdata": {"rt": -1, "stimulus": "<p id=\"stim\">7</p>", "key_press": -1, "trial_type": "single-stim", "trial_index": 217, "time_elapsed": 1149124, "internal_node_id": "0.0-160.0-3.0"}}, {"uniqueid": "MTK0910:3ZQIG0FLQFNDHVND52GEOJJZXSQWVO", "current_trial": 218, "dateTime": 1512873998327, "trialdata": {"rt": -1, "stimulus": "<p id=\"stim\">6</p>", "key_press": -1, "trial_type": "single-stim", "trial_index": 218, "time_elapsed": 1150125, "internal_node_id": "0.0-160.0-4.0"}}, {"uniqueid": "MTK0910:3ZQIG0FLQFNDHVND52GEOJJZXSQWVO", "current_trial": 219, "dateTime": 1512873999330, "trialdata": {"rt": -1, "stimulus": "<p id=\"stim\">5</p>", "key_press": -1, "trial_type": "single-stim", "trial_index": 219, "time_elapsed": 1151128, "internal_node_id": "0.0-160.0-5.0"}}, {"uniqueid": "MTK0910:3ZQIG0FLQFNDHVND52GEOJJZXSQWVO", "current_trial": 220, "dateTime": 1512874000333, "trialdata": {"rt": -1, "stimulus": "<p id=\"stim\">4</p>", "key_press": -1, "trial_type": "single-stim", "trial_index": 220, "time_elapsed": 1152131, "internal_node_id": "0.0-160.0-6.0"}}, {"uniqueid": "MTK0910:3ZQIG0FLQFNDHVND52GEOJJZXSQWVO", "current_trial": 221, "dateTime": 1512874001336, "trialdata": {"rt": -1, "stimulus": "<p id=\"stim\">3</p>", "key_press": -1, "trial_type": "single-stim", "trial_index": 221, "time_elapsed": 1153134, "internal_node_id": "0.0-160.0-7.0"}}, {"uniqueid": "MTK0910:3ZQIG0FLQFNDHVND52GEOJJZXSQWVO", "current_trial": 222, "dateTime": 1512874002340, "trialdata": {"rt": -1, "stimulus": "<p id=\"stim\">2</p>", "key_press": -1, "trial_type": "single-stim", "trial_index": 222, "time_elapsed": 1154138, "internal_node_id": "0.0-160.0-8.0"}}, {"uniqueid": "MTK0910:3ZQIG0FLQFNDHVND52GEOJJZXSQWVO", "current_trial": 223, "dateTime": 1512874003343, "trialdata": {"rt": -1, "stimulus": "<p id=\"stim\">1</p>", "key_press": -1, "trial_type": "single-stim", "trial_index": 223, "time_elapsed": 1155141, "internal_node_id": "0.0-160.0-9.0"}}, {"uniqueid": "MTK0910:3ZQIG0FLQFNDHVND52GEOJJZXSQWVO", "current_trial": 224, "dateTime": 1512874004845, "trialdata": {"rt": -1, "stimulus": "<p id=\"stim\">+</p>", "key_press": -1, "type": "FIXATION", "trial_type": "single-stim", "trial_index": 224, "time_elapsed": 1156643, "internal_node_id": "0.0-161.0-0.0"}}, {"uniqueid": "MTK0910:3ZQIG0FLQFNDHVND52GEOJJZXSQWVO", "current_trial": 225, "dateTime": 1512874005646, "trialdata": {"rt": -1, "stimulus": "<p id=\"stim\">GANGSTER</p>", "key_press": -1, "type": "PRES_VIS", "word": "gangster", "wordID": 619, "conditions": [24, 800, "v", 12000], "trial": 6, "serialpos": 0, "trial_type": "single-stim", "trial_index": 225, "time_elapsed": 1157444, "internal_node_id": "0.0-162.0"}}, {"uniqueid": "MTK0910:3ZQIG0FLQFNDHVND52GEOJJZXSQWVO", "current_trial": 226, "dateTime": 1512874007288, "trialdata": {"rt": -1, "stimulus": "<p id=\"stim\">SHIRT</p>", "key_press": -1, "type": "PRES_VIS", "word": "shirt", "wordID": 1286, "conditions": [24, 800, "v", 12000], "trial": 6, "serialpos": 1, "trial_type": "single-stim", "trial_index": 226, "time_elapsed": 1159086, "internal_node_id": "0.0-163.0"}}, {"uniqueid": "MTK0910:3ZQIG0FLQFNDHVND52GEOJJZXSQWVO", "current_trial": 227, "dateTime": 1512874009175, "trialdata": {"rt": -1, "stimulus": "<p id=\"stim\">GLASS</p>", "key_press": -1, "type": "PRES_VIS", "word": "glass", "wordID": 638, "conditions": [24, 800, "v", 12000], "trial": 6, "serialpos": 2, "trial_type": "single-stim", "trial_index": 227, "time_elapsed": 1160973, "internal_node_id": "0.0-164.0"}}, {"uniqueid": "MTK0910:3ZQIG0FLQFNDHVND52GEOJJZXSQWVO", "current_trial": 228, "dateTime": 1512874011148, "trialdata": {"rt": -1, "stimulus": "<p id=\"stim\">BUTCHER</p>", "key_press": -1, "type": "PRES_VIS", "word": "butcher", "wordID": 202, "conditions": [24, 800, "v", 12000], "trial": 6, "serialpos": 3, "trial_type": "single-stim", "trial_index": 228, "time_elapsed": 1162946, "internal_node_id": "0.0-165.0"}}, {"uniqueid": "MTK0910:3ZQIG0FLQFNDHVND52GEOJJZXSQWVO", "current_trial": 229, "dateTime": 1512874012762, "trialdata": {"rt": -1, "stimulus": "<p id=\"stim\">CLIMBER</p>", "key_press": -1, "type": "PRES_VIS", "word": "climber", "wordID": 322, "conditions": [24, 800, "v", 12000], "trial": 6, "serialpos": 4, "trial_type": "single-stim", "trial_index": 229, "time_elapsed": 1164559, "internal_node_id": "0.0-166.0"}}, {"uniqueid": "MTK0910:3ZQIG0FLQFNDHVND52GEOJJZXSQWVO", "current_trial": 230, "dateTime": 1512874014648, "trialdata": {"rt": -1, "stimulus": "<p id=\"stim\">WHISKERS</p>", "key_press": -1, "type": "PRES_VIS", "word": "whiskers", "wordID": 1604, "conditions": [24, 800, "v", 12000], "trial": 6, "serialpos": 5, "trial_type": "single-stim", "trial_index": 230, "time_elapsed": 1166446, "internal_node_id": "0.0-167.0"}}, {"uniqueid": "MTK0910:3ZQIG0FLQFNDHVND52GEOJJZXSQWVO", "current_trial": 231, "dateTime": 1512874016598, "trialdata": {"rt": -1, "stimulus": "<p id=\"stim\">CELLAR</p>", "key_press": -1, "type": "PRES_VIS", "word": "cellar", "wordID": 266, "conditions": [24, 800, "v", 12000], "trial": 6, "serialpos": 6, "trial_type": "single-stim", "trial_index": 231, "time_elapsed": 1168396, "internal_node_id": "0.0-168.0"}}, {"uniqueid": "MTK0910:3ZQIG0FLQFNDHVND52GEOJJZXSQWVO", "current_trial": 232, "dateTime": 1512874018275, "trialdata": {"rt": -1, "stimulus": "<p id=\"stim\">IGLOO</p>", "key_press": -1, "type": "PRES_VIS", "word": "igloo", "wordID": 733, "conditions": [24, 800, "v", 12000], "trial": 6, "serialpos": 7, "trial_type": "single-stim", "trial_index": 232, "time_elapsed": 1170073, "internal_node_id": "0.0-169.0"}}, {"uniqueid": "MTK0910:3ZQIG0FLQFNDHVND52GEOJJZXSQWVO", "current_trial": 233, "dateTime": 1512874020220, "trialdata": {"rt": -1, "stimulus": "<p id=\"stim\">PADDLE</p>", "key_press": -1, "type": "PRES_VIS", "word": "paddle", "wordID": 999, "conditions": [24, 800, "v", 12000], "trial": 6, "serialpos": 8, "trial_type": "single-stim", "trial_index": 233, "time_elapsed": 1172018, "internal_node_id": "0.0-170.0"}}, {"uniqueid": "MTK0910:3ZQIG0FLQFNDHVND52GEOJJZXSQWVO", "current_trial": 234, "dateTime": 1512874022216, "trialdata": {"rt": -1, "stimulus": "<p id=\"stim\">DANCER</p>", "key_press": -1, "type": "PRES_VIS", "word": "dancer", "wordID": 436, "conditions": [24, 800, "v", 12000], "trial": 6, "serialpos": 9, "trial_type": "single-stim", "trial_index": 234, "time_elapsed": 1174014, "internal_node_id": "0.0-171.0"}}, {"uniqueid": "MTK0910:3ZQIG0FLQFNDHVND52GEOJJZXSQWVO", "current_trial": 235, "dateTime": 1512874023824, "trialdata": {"rt": -1, "stimulus": "<p id=\"stim\">GYMNAST</p>", "key_press": -1, "type": "PRES_VIS", "word": "gymnast", "wordID": 674, "conditions": [24, 800, "v", 12000], "trial": 6, "serialpos": 10, "trial_type": "single-stim", "trial_index": 235, "time_elapsed": 1175622, "internal_node_id": "0.0-172.0"}}, {"uniqueid": "MTK0910:3ZQIG0FLQFNDHVND52GEOJJZXSQWVO", "current_trial": 236, "dateTime": 1512874025431, "trialdata": {"rt": -1, "stimulus": "<p id=\"stim\">HEADBAND</p>", "key_press": -1, "type": "PRES_VIS", "word": "headband", "wordID": 695, "conditions": [24, 800, "v", 12000], "trial": 6, "serialpos": 11, "trial_type": "single-stim", "trial_index": 236, "time_elapsed": 1177229, "internal_node_id": "0.0-173.0"}}, {"uniqueid": "MTK0910:3ZQIG0FLQFNDHVND52GEOJJZXSQWVO", "current_trial": 237, "dateTime": 1512874027318, "trialdata": {"rt": -1, "stimulus": "<p id=\"stim\">PLASTER</p>", "key_press": -1, "type": "PRES_VIS", "word": "plaster", "wordID": 1084, "conditions": [24, 800, "v", 12000], "trial": 6, "serialpos": 12, "trial_type": "single-stim", "trial_index": 237, "time_elapsed": 1179116, "internal_node_id": "0.0-174.0"}}, {"uniqueid": "MTK0910:3ZQIG0FLQFNDHVND52GEOJJZXSQWVO", "current_trial": 238, "dateTime": 1512874029303, "trialdata": {"rt": -1, "stimulus": "<p id=\"stim\">ROD</p>", "key_press": -1, "type": "PRES_VIS", "word": "rod", "wordID": 1202, "conditions": [24, 800, "v", 12000], "trial": 6, "serialpos": 13, "trial_type": "single-stim", "trial_index": 238, "time_elapsed": 1181101, "internal_node_id": "0.0-175.0"}}, {"uniqueid": "MTK0910:3ZQIG0FLQFNDHVND52GEOJJZXSQWVO", "current_trial": 239, "dateTime": 1512874031166, "trialdata": {"rt": -1, "stimulus": "<p id=\"stim\">PORK</p>", "key_press": -1, "type": "PRES_VIS", "word": "pork", "wordID": 1107, "conditions": [24, 800, "v", 12000], "trial": 6, "serialpos": 14, "trial_type": "single-stim", "trial_index": 239, "time_elapsed": 1182963, "internal_node_id": "0.0-176.0"}}, {"uniqueid": "MTK0910:3ZQIG0FLQFNDHVND52GEOJJZXSQWVO", "current_trial": 240, "dateTime": 1512874032795, "trialdata": {"rt": -1, "stimulus": "<p id=\"stim\">DASHBOARD</p>", "key_press": -1, "type": "PRES_VIS", "word": "dashboard", "wordID": 440, "conditions": [24, 800, "v", 12000], "trial": 6, "serialpos": 15, "trial_type": "single-stim", "trial_index": 240, "time_elapsed": 1184593, "internal_node_id": "0.0-177.0"}}, {"uniqueid": "MTK0910:3ZQIG0FLQFNDHVND52GEOJJZXSQWVO", "current_trial": 241, "dateTime": 1512874034480, "trialdata": {"rt": -1, "stimulus": "<p id=\"stim\">SPOOL</p>", "key_press": -1, "type": "PRES_VIS", "word": "spool", "wordID": 1355, "conditions": [24, 800, "v", 12000], "trial": 6, "serialpos": 16, "trial_type": "single-stim", "trial_index": 241, "time_elapsed": 1186278, "internal_node_id": "0.0-178.0"}}, {"uniqueid": "MTK0910:3ZQIG0FLQFNDHVND52GEOJJZXSQWVO", "current_trial": 242, "dateTime": 1512874036476, "trialdata": {"rt": -1, "stimulus": "<p id=\"stim\">LAPEL</p>", "key_press": -1, "type": "PRES_VIS", "word": "lapel", "wordID": 799, "conditions": [24, 800, "v", 12000], "trial": 6, "serialpos": 17, "trial_type": "single-stim", "trial_index": 242, "time_elapsed": 1188274, "internal_node_id": "0.0-179.0"}}, {"uniqueid": "MTK0910:3ZQIG0FLQFNDHVND52GEOJJZXSQWVO", "current_trial": 243, "dateTime": 1512874038121, "trialdata": {"rt": -1, "stimulus": "<p id=\"stim\">CHEST</p>", "key_press": -1, "type": "PRES_VIS", "word": "chest", "wordID": 294, "conditions": [24, 800, "v", 12000], "trial": 6, "serialpos": 18, "trial_type": "single-stim", "trial_index": 243, "time_elapsed": 1189919, "internal_node_id": "0.0-180.0"}}, {"uniqueid": "MTK0910:3ZQIG0FLQFNDHVND52GEOJJZXSQWVO", "current_trial": 244, "dateTime": 1512874039802, "trialdata": {"rt": -1, "stimulus": "<p id=\"stim\">FOREHEAD</p>", "key_press": -1, "type": "PRES_VIS", "word": "forehead", "wordID": 591, "conditions": [24, 800, "v", 12000], "trial": 6, "serialpos": 19, "trial_type": "single-stim", "trial_index": 244, "time_elapsed": 1191600, "internal_node_id": "0.0-181.0"}}, {"uniqueid": "MTK0910:3ZQIG0FLQFNDHVND52GEOJJZXSQWVO", "current_trial": 245, "dateTime": 1512874041735, "trialdata": {"rt": -1, "stimulus": "<p id=\"stim\">WAITER</p>", "key_press": -1, "type": "PRES_VIS", "word": "waiter", "wordID": 1579, "conditions": [24, 800, "v", 12000], "trial": 6, "serialpos": 20, "trial_type": "single-stim", "trial_index": 245, "time_elapsed": 1193532, "internal_node_id": "0.0-182.0"}}, {"uniqueid": "MTK0910:3ZQIG0FLQFNDHVND52GEOJJZXSQWVO", "current_trial": 246, "dateTime": 1512874043608, "trialdata": {"rt": -1, "stimulus": "<p id=\"stim\">MATTRESS</p>", "key_press": -1, "type": "PRES_VIS", "word": "mattress", "wordID": 878, "conditions": [24, 800, "v", 12000], "trial": 6, "serialpos": 21, "trial_type": "single-stim", "trial_index": 246, "time_elapsed": 1195406, "internal_node_id": "0.0-183.0"}}, {"uniqueid": "MTK0910:3ZQIG0FLQFNDHVND52GEOJJZXSQWVO", "current_trial": 247, "dateTime": 1512874045298, "trialdata": {"rt": -1, "stimulus": "<p id=\"stim\">BRICK</p>", "key_press": -1, "type": "PRES_VIS", "word": "brick", "wordID": 171, "conditions": [24, 800, "v", 12000], "trial": 6, "serialpos": 22, "trial_type": "single-stim", "trial_index": 247, "time_elapsed": 1197096, "internal_node_id": "0.0-184.0"}}, {"uniqueid": "MTK0910:3ZQIG0FLQFNDHVND52GEOJJZXSQWVO", "current_trial": 248, "dateTime": 1512874047051, "trialdata": {"rt": -1, "stimulus": "<p id=\"stim\">DIME</p>", "key_press": -1, "type": "PRES_VIS", "word": "dime", "wordID": 465, "conditions": [24, 800, "v", 12000], "trial": 6, "serialpos": 23, "trial_type": "single-stim", "trial_index": 248, "time_elapsed": 1198849, "internal_node_id": "0.0-185.0"}}, {"uniqueid": "MTK0910:3ZQIG0FLQFNDHVND52GEOJJZXSQWVO", "current_trial": 249, "dateTime": 1512874049607, "trialdata": {"rt": -1, "stimulus": "", "key_press": -1, "type": "PRE_RECALL_DELAY", "trial_type": "single-stim", "trial_index": 249, "time_elapsed": 1201405, "internal_node_id": "0.0-186.0-0.0"}}, {"uniqueid": "MTK0910:3ZQIG0FLQFNDHVND52GEOJJZXSQWVO", "current_trial": 250, "dateTime": 1512874050107, "trialdata": {"rt": -1000, "stimulus": "/static/audio/400Hz.wav", "key_press": -1, "type": "PRE_RECALL_ALERT", "trial_type": "single-audio", "trial_index": 250, "time_elapsed": 1201905, "internal_node_id": "0.0-187.0"}}, {"uniqueid": "MTK0910:3ZQIG0FLQFNDHVND52GEOJJZXSQWVO", "current_trial": 251, "dateTime": 1512874110110, "trialdata": {"rt": [4070, 5766, 7478, 9406, 12158, 14630, 16037, 18742, 21214, 23214, 27518, 28718, 32693, 40509, 41957], "recwords": ["brick", "forehead", "mattress", "waiter", "lapel", "shirt", "glass", "headband", "dancer", "gymnast", "rod", "plaster", "shirt", "igloo", "paddle"], "type": "FREE_RECALL", "conditions": [24, 800, "v", 12000], "trial": 6, "trial_type": "free-recall", "trial_index": 251, "time_elapsed": 1261906, "internal_node_id": "0.0-188.0-0.0"}}, {"uniqueid": "MTK0910:3ZQIG0FLQFNDHVND52GEOJJZXSQWVO", "current_trial": 252, "dateTime": 1512874115233, "trialdata": {"rt": 3117, "key_press": 13, "type": "INSTRUCTIONS", "trial_type": "text", "trial_index": 252, "time_elapsed": 1267031, "internal_node_id": "0.0-189.0"}}, {"uniqueid": "MTK0910:3ZQIG0FLQFNDHVND52GEOJJZXSQWVO", "current_trial": 253, "dateTime": 1512874129238, "trialdata": {"rt": [3054, 5374, 7382, 10750], "responses": ["21", "12", "11", "18"], "num1": [8, 1, 2, 9, 1], "num2": [9, 3, 2, 4, 7], "num3": [4, 8, 7, 5, 2], "type": "DISTRACTOR", "conditions": [12, 1600, "v", 12000], "trial": 7, "trial_type": "math-distractor", "trial_index": 253, "time_elapsed": 1281036, "internal_node_id": "0.0-190.0"}}, {"uniqueid": "MTK0910:3ZQIG0FLQFNDHVND52GEOJJZXSQWVO", "current_trial": 254, "dateTime": 1512874132244, "trialdata": {"rt": -1, "stimulus": "<p id=\"stim\">10</p>", "key_press": -1, "trial_type": "single-stim", "trial_index": 254, "time_elapsed": 1284042, "internal_node_id": "0.0-191.0-0.0"}}, {"uniqueid": "MTK0910:3ZQIG0FLQFNDHVND52GEOJJZXSQWVO", "current_trial": 255, "dateTime": 1512874133248, "trialdata": {"rt": -1, "stimulus": "<p id=\"stim\">9</p>", "key_press": -1, "trial_type": "single-stim", "trial_index": 255, "time_elapsed": 1285046, "internal_node_id": "0.0-191.0-1.0"}}, {"uniqueid": "MTK0910:3ZQIG0FLQFNDHVND52GEOJJZXSQWVO", "current_trial": 256, "dateTime": 1512874134252, "trialdata": {"rt": -1, "stimulus": "<p id=\"stim\">8</p>", "key_press": -1, "trial_type": "single-stim", "trial_index": 256, "time_elapsed": 1286050, "internal_node_id": "0.0-191.0-2.0"}}, {"uniqueid": "MTK0910:3ZQIG0FLQFNDHVND52GEOJJZXSQWVO", "current_trial": 257, "dateTime": 1512874135253, "trialdata": {"rt": -1, "stimulus": "<p id=\"stim\">7</p>", "key_press": -1, "trial_type": "single-stim", "trial_index": 257, "time_elapsed": 1287051, "internal_node_id": "0.0-191.0-3.0"}}, {"uniqueid": "MTK0910:3ZQIG0FLQFNDHVND52GEOJJZXSQWVO", "current_trial": 258, "dateTime": 1512874136254, "trialdata": {"rt": -1, "stimulus": "<p id=\"stim\">6</p>", "key_press": -1, "trial_type": "single-stim", "trial_index": 258, "time_elapsed": 1288052, "internal_node_id": "0.0-191.0-4.0"}}, {"uniqueid": "MTK0910:3ZQIG0FLQFNDHVND52GEOJJZXSQWVO", "current_trial": 259, "dateTime": 1512874137255, "trialdata": {"rt": -1, "stimulus": "<p id=\"stim\">5</p>", "key_press": -1, "trial_type": "single-stim", "trial_index": 259, "time_elapsed": 1289053, "internal_node_id": "0.0-191.0-5.0"}}, {"uniqueid": "MTK0910:3ZQIG0FLQFNDHVND52GEOJJZXSQWVO", "current_trial": 260, "dateTime": 1512874138257, "trialdata": {"rt": -1, "stimulus": "<p id=\"stim\">4</p>", "key_press": -1, "trial_type": "single-stim", "trial_index": 260, "time_elapsed": 1290055, "internal_node_id": "0.0-191.0-6.0"}}, {"uniqueid": "MTK0910:3ZQIG0FLQFNDHVND52GEOJJZXSQWVO", "current_trial": 261, "dateTime": 1512874139259, "trialdata": {"rt": -1, "stimulus": "<p id=\"stim\">3</p>", "key_press": -1, "trial_type": "single-stim", "trial_index": 261, "time_elapsed": 1291057, "internal_node_id": "0.0-191.0-7.0"}}, {"uniqueid": "MTK0910:3ZQIG0FLQFNDHVND52GEOJJZXSQWVO", "current_trial": 262, "dateTime": 1512874140262, "trialdata": {"rt": -1, "stimulus": "<p id=\"stim\">2</p>", "key_press": -1, "trial_type": "single-stim", "trial_index": 262, "time_elapsed": 1292060, "internal_node_id": "0.0-191.0-8.0"}}, {"uniqueid": "MTK0910:3ZQIG0FLQFNDHVND52GEOJJZXSQWVO", "current_trial": 263, "dateTime": 1512874141263, "trialdata": {"rt": -1, "stimulus": "<p id=\"stim\">1</p>", "key_press": -1, "trial_type": "single-stim", "trial_index": 263, "time_elapsed": 1293061, "internal_node_id": "0.0-191.0-9.0"}}, {"uniqueid": "MTK0910:3ZQIG0FLQFNDHVND52GEOJJZXSQWVO", "current_trial": 264, "dateTime": 1512874142767, "trialdata": {"rt": -1, "stimulus": "<p id=\"stim\">+</p>", "key_press": -1, "type": "FIXATION", "trial_type": "single-stim", "trial_index": 264, "time_elapsed": 1294564, "internal_node_id": "0.0-192.0-0.0"}}, {"uniqueid": "MTK0910:3ZQIG0FLQFNDHVND52GEOJJZXSQWVO", "current_trial": 265, "dateTime": 1512874144369, "trialdata": {"rt": -1, "stimulus": "<p id=\"stim\">MAMMAL</p>", "key_press": -1, "type": "PRES_VIS", "word": "mammal", "wordID": 860, "conditions": [12, 1600, "v", 12000], "trial": 7, "serialpos": 0, "trial_type": "single-stim", "trial_index": 265, "time_elapsed": 1296166, "internal_node_id": "0.0-193.0"}}, {"uniqueid": "MTK0910:3ZQIG0FLQFNDHVND52GEOJJZXSQWVO", "current_trial": 266, "dateTime": 1512874147165, "trialdata": {"rt": -1, "stimulus": "<p id=\"stim\">QUEEN</p>", "key_press": -1, "type": "PRES_VIS", "word": "queen", "wordID": 1148, "conditions": [12, 1600, "v", 12000], "trial": 7, "serialpos": 1, "trial_type": "single-stim", "trial_index": 266, "time_elapsed": 1298963, "internal_node_id": "0.0-194.0"}}, {"uniqueid": "MTK0910:3ZQIG0FLQFNDHVND52GEOJJZXSQWVO", "current_trial": 267, "dateTime": 1512874149876, "trialdata": {"rt": -1, "stimulus": "<p id=\"stim\">PRINCESS</p>", "key_press": -1, "type": "PRES_VIS", "word": "princess", "wordID": 1124, "conditions": [12, 1600, "v", 12000], "trial": 7, "serialpos": 2, "trial_type": "single-stim", "trial_index": 267, "time_elapsed": 1301674, "internal_node_id": "0.0-195.0"}}, {"uniqueid": "MTK0910:3ZQIG0FLQFNDHVND52GEOJJZXSQWVO", "current_trial": 268, "dateTime": 1512874152540, "trialdata": {"rt": -1, "stimulus": "<p id=\"stim\">SPOON</p>", "key_press": -1, "type": "PRES_VIS", "word": "spoon", "wordID": 1356, "conditions": [12, 1600, "v", 12000], "trial": 7, "serialpos": 3, "trial_type": "single-stim", "trial_index": 268, "time_elapsed": 1304338, "internal_node_id": "0.0-196.0"}}, {"uniqueid": "MTK0910:3ZQIG0FLQFNDHVND52GEOJJZXSQWVO", "current_trial": 269, "dateTime": 1512874155036, "trialdata": {"rt": -1, "stimulus": "<p id=\"stim\">NURSE</p>", "key_press": -1, "type": "PRES_VIS", "word": "nurse", "wordID": 962, "conditions": [12, 1600, "v", 12000], "trial": 7, "serialpos": 4, "trial_type": "single-stim", "trial_index": 269, "time_elapsed": 1306834, "internal_node_id": "0.0-197.0"}}, {"uniqueid": "MTK0910:3ZQIG0FLQFNDHVND52GEOJJZXSQWVO", "current_trial": 270, "dateTime": 1512874157508, "trialdata": {"rt": -1, "stimulus": "<p id=\"stim\">POLICE</p>", "key_press": -1, "type": "PRES_VIS", "word": "police", "wordID": 1097, "conditions": [12, 1600, "v", 12000], "trial": 7, "serialpos": 5, "trial_type": "single-stim", "trial_index": 270, "time_elapsed": 1309306, "internal_node_id": "0.0-198.0"}}, {"uniqueid": "MTK0910:3ZQIG0FLQFNDHVND52GEOJJZXSQWVO", "current_trial": 271, "dateTime": 1512874159946, "trialdata": {"rt": -1, "stimulus": "<p id=\"stim\">ANKLE</p>", "key_press": -1, "type": "PRES_VIS"