{"condition": 0, "counterbalance": 17, "assignmentId": "3TXD01ZLD5O1VEFTQ60QX5YPX0V4UC", "workerId": "MTK0455", "hitId": "385MDVINFCM23GPPYBXTWBCLMHHJWL", "currenttrial": 626, "bonus": 0, "data": [{"uniqueid": "MTK0455:3TXD01ZLD5O1VEFTQ60QX5YPX0V4UC", "current_trial": 0, "dateTime": 1510933778524, "trialdata": {"rt": 7983, "key_press": 74, "type": "INSTRUCTIONS", "trial_type": "text", "trial_index": 0, "time_elapsed": 7985, "internal_node_id": "0.0-0.0"}}, {"uniqueid": "MTK0455:3TXD01ZLD5O1VEFTQ60QX5YPX0V4UC", "current_trial": 1, "dateTime": 1510933879946, "trialdata": {"rt": 101421, "key_press": 78, "type": "INSTRUCTIONS", "trial_type": "text", "trial_index": 1, "time_elapsed": 109408, "internal_node_id": "0.0-1.0"}}, {"uniqueid": "MTK0455:3TXD01ZLD5O1VEFTQ60QX5YPX0V4UC", "current_trial": 2, "dateTime": 1510933890858, "trialdata": {"rt": [10903], "responses": ["ocean"], "type": "AUDIO_TEST", "trial_type": "audio-test", "trial_index": 2, "time_elapsed": 120320, "internal_node_id": "0.0-2.0"}}, {"uniqueid": "MTK0455:3TXD01ZLD5O1VEFTQ60QX5YPX0V4UC", "current_trial": 3, "dateTime": 1510933897610, "trialdata": {"rt": [6746], "responses": ["crystal"], "type": "AUDIO_TEST", "trial_type": "audio-test", "trial_index": 3, "time_elapsed": 127072, "internal_node_id": "0.0-3.0"}}, {"uniqueid": "MTK0455:3TXD01ZLD5O1VEFTQ60QX5YPX0V4UC", "current_trial": 4, "dateTime": 1510933902452, "trialdata": {"rt": [4836], "responses": ["spice"], "type": "AUDIO_TEST", "trial_type": "audio-test", "trial_index": 4, "time_elapsed": 131913, "internal_node_id": "0.0-4.0"}}, {"uniqueid": "MTK0455:3TXD01ZLD5O1VEFTQ60QX5YPX0V4UC", "current_trial": 5, "dateTime": 1510933927413, "trialdata": {"rt": 24209, "responses": "{\"Q0\":\"10:00pm\",\"Q1\":\"6:15am\",\"Q2\":\"5\"}", "type": "SLEEP_SURVEY", "trial_type": "survey-text", "trial_index": 5, "time_elapsed": 156875, "internal_node_id": "0.0-5.0"}}, {"uniqueid": "MTK0455:3TXD01ZLD5O1VEFTQ60QX5YPX0V4UC", "current_trial": 6, "dateTime": 1510933988249, "trialdata": {"rt": 59835, "key_press": 78, "type": "INSTRUCTIONS", "trial_type": "text", "trial_index": 6, "time_elapsed": 217711, "internal_node_id": "0.0-6.0"}}, {"uniqueid": "MTK0455:3TXD01ZLD5O1VEFTQ60QX5YPX0V4UC", "current_trial": 7, "dateTime": 1510934010082, "trialdata": {"rt": 21332, "key_press": 188, "type": "INSTRUCTIONS", "trial_type": "text", "trial_index": 7, "time_elapsed": 239544, "internal_node_id": "0.0-7.0"}}, {"uniqueid": "MTK0455:3TXD01ZLD5O1VEFTQ60QX5YPX0V4UC", "current_trial": 8, "dateTime": 1510934013513, "trialdata": {"rt": 2931, "key_press": 122, "type": "INSTRUCTIONS", "trial_type": "text", "trial_index": 8, "time_elapsed": 242975, "internal_node_id": "0.0-8.0"}}, {"uniqueid": "MTK0455:3TXD01ZLD5O1VEFTQ60QX5YPX0V4UC", "current_trial": 9, "dateTime": 1510934032518, "trialdata": {"rt": [6118, 7957, 9758, 11198, 12862, 14509, 16941], "responses": ["18", "10", "13", "17", "13", "11", "22"], "num1": [7, 7, 6, 8, 6, 5, 8, 4], "num2": [5, 1, 3, 2, 2, 3, 9, 9], "num3": [6, 2, 4, 7, 5, 3, 5, 1], "type": "DISTRACTOR", "conditions": [18, 1200, "a", 18000], "trial": 0, "trial_type": "math-distractor", "trial_index": 9, "time_elapsed": 261980, "internal_node_id": "0.0-9.0"}}, {"uniqueid": "MTK0455:3TXD01ZLD5O1VEFTQ60QX5YPX0V4UC", "current_trial": 10, "dateTime": 1510934035519, "trialdata": {"rt": -1, "stimulus": "<p id=\"stim\">10</p>", "key_press": -1, "trial_type": "single-stim", "trial_index": 10, "time_elapsed": 264980, "internal_node_id": "0.0-10.0-0.0"}}, {"uniqueid": "MTK0455:3TXD01ZLD5O1VEFTQ60QX5YPX0V4UC", "current_trial": 11, "dateTime": 1510934036519, "trialdata": {"rt": -1, "stimulus": "<p id=\"stim\">9</p>", "key_press": -1, "trial_type": "single-stim", "trial_index": 11, "time_elapsed": 265981, "internal_node_id": "0.0-10.0-1.0"}}, {"uniqueid": "MTK0455:3TXD01ZLD5O1VEFTQ60QX5YPX0V4UC", "current_trial": 12, "dateTime": 1510934037520, "trialdata": {"rt": -1, "stimulus": "<p id=\"stim\">8</p>", "key_press": -1, "trial_type": "single-stim", "trial_index": 12, "time_elapsed": 266982, "internal_node_id": "0.0-10.0-2.0"}}, {"uniqueid": "MTK0455:3TXD01ZLD5O1VEFTQ60QX5YPX0V4UC", "current_trial": 13, "dateTime": 1510934038520, "trialdata": {"rt": -1, "stimulus": "<p id=\"stim\">7</p>", "key_press": -1, "trial_type": "single-stim", "trial_index": 13, "time_elapsed": 267982, "internal_node_id": "0.0-10.0-3.0"}}, {"uniqueid": "MTK0455:3TXD01ZLD5O1VEFTQ60QX5YPX0V4UC", "current_trial": 14, "dateTime": 1510934039520, "trialdata": {"rt": -1, "stimulus": "<p id=\"stim\">6</p>", "key_press": -1, "trial_type": "single-stim", "trial_index": 14, "time_elapsed": 268982, "internal_node_id": "0.0-10.0-4.0"}}, {"uniqueid": "MTK0455:3TXD01ZLD5O1VEFTQ60QX5YPX0V4UC", "current_trial": 15, "dateTime": 1510934040521, "trialdata": {"rt": -1, "stimulus": "<p id=\"stim\">5</p>", "key_press": -1, "trial_type": "single-stim", "trial_index": 15, "time_elapsed": 269983, "internal_node_id": "0.0-10.0-5.0"}}, {"uniqueid": "MTK0455:3TXD01ZLD5O1VEFTQ60QX5YPX0V4UC", "current_trial": 16, "dateTime": 1510934041522, "trialdata": {"rt": -1, "stimulus": "<p id=\"stim\">4</p>", "key_press": -1, "trial_type": "single-stim", "trial_index": 16, "time_elapsed": 270984, "internal_node_id": "0.0-10.0-6.0"}}, {"uniqueid": "MTK0455:3TXD01ZLD5O1VEFTQ60QX5YPX0V4UC", "current_trial": 17, "dateTime": 1510934042522, "trialdata": {"rt": -1, "stimulus": "<p id=\"stim\">3</p>", "key_press": -1, "trial_type": "single-stim", "trial_index": 17, "time_elapsed": 271984, "internal_node_id": "0.0-10.0-7.0"}}, {"uniqueid": "MTK0455:3TXD01ZLD5O1VEFTQ60QX5YPX0V4UC", "current_trial": 18, "dateTime": 1510934043524, "trialdata": {"rt": -1, "stimulus": "<p id=\"stim\">2</p>", "key_press": -1, "trial_type": "single-stim", "trial_index": 18, "time_elapsed": 272985, "internal_node_id": "0.0-10.0-8.0"}}, {"uniqueid": "MTK0455:3TXD01ZLD5O1VEFTQ60QX5YPX0V4UC", "current_trial": 19, "dateTime": 1510934044524, "trialdata": {"rt": -1, "stimulus": "<p id=\"stim\">1</p>", "key_press": -1, "trial_type": "single-stim", "trial_index": 19, "time_elapsed": 273986, "internal_node_id": "0.0-10.0-9.0"}}, {"uniqueid": "MTK0455:3TXD01ZLD5O1VEFTQ60QX5YPX0V4UC", "current_trial": 20, "dateTime": 1510934046024, "trialdata": {"rt": -1, "stimulus": "<p id=\"stim\">+</p>", "key_press": -1, "type": "FIXATION", "trial_type": "single-stim", "trial_index": 20, "time_elapsed": 275486, "internal_node_id": "0.0-11.0-0.0"}}, {"uniqueid": "MTK0455:3TXD01ZLD5O1VEFTQ60QX5YPX0V4UC", "current_trial": 21, "dateTime": 1510934048153, "trialdata": {"rt": -1000, "stimulus": "/static/audio/wordpool/COOK.wav", "key_press": -1, "type": "PRES_AUD", "word": "cook", "wordID": 371, "conditions": [18, 1200, "a", 18000], "trial": 0, "serialpos": 0, "trial_type": "single-audio", "trial_index": 21, "time_elapsed": 277615, "internal_node_id": "0.0-12.0"}}, {"uniqueid": "MTK0455:3TXD01ZLD5O1VEFTQ60QX5YPX0V4UC", "current_trial": 22, "dateTime": 1510934050491, "trialdata": {"rt": -1000, "stimulus": "/static/audio/wordpool/BUTCHER.wav", "key_press": -1, "type": "PRES_AUD", "word": "butcher", "wordID": 202, "conditions": [18, 1200, "a", 18000], "trial": 0, "serialpos": 1, "trial_type": "single-audio", "trial_index": 22, "time_elapsed": 279953, "internal_node_id": "0.0-13.0"}}, {"uniqueid": "MTK0455:3TXD01ZLD5O1VEFTQ60QX5YPX0V4UC", "current_trial": 23, "dateTime": 1510934052687, "trialdata": {"rt": -1000, "stimulus": "/static/audio/wordpool/TWEEZERS.wav", "key_press": -1, "type": "PRES_AUD", "word": "tweezers", "wordID": 1525, "conditions": [18, 1200, "a", 18000], "trial": 0, "serialpos": 2, "trial_type": "single-audio", "trial_index": 23, "time_elapsed": 282149, "internal_node_id": "0.0-14.0"}}, {"uniqueid": "MTK0455:3TXD01ZLD5O1VEFTQ60QX5YPX0V4UC", "current_trial": 24, "dateTime": 1510934054710, "trialdata": {"rt": -1000, "stimulus": "/static/audio/wordpool/WHISTLE.wav", "key_press": -1, "type": "PRES_AUD", "word": "whistle", "wordID": 1605, "conditions": [18, 1200, "a", 18000], "trial": 0, "serialpos": 3, "trial_type": "single-audio", "trial_index": 24, "time_elapsed": 284172, "internal_node_id": "0.0-15.0"}}, {"uniqueid": "MTK0455:3TXD01ZLD5O1VEFTQ60QX5YPX0V4UC", "current_trial": 25, "dateTime": 1510934056719, "trialdata": {"rt": -1000, "stimulus": "/static/audio/wordpool/GYMNAST.wav", "key_press": -1, "type": "PRES_AUD", "word": "gymnast", "wordID": 674, "conditions": [18, 1200, "a", 18000], "trial": 0, "serialpos": 4, "trial_type": "single-audio", "trial_index": 25, "time_elapsed": 286181, "internal_node_id": "0.0-16.0"}}, {"uniqueid": "MTK0455:3TXD01ZLD5O1VEFTQ60QX5YPX0V4UC", "current_trial": 26, "dateTime": 1510934059108, "trialdata": {"rt": -1000, "stimulus": "/static/audio/wordpool/BULLET.wav", "key_press": -1, "type": "PRES_AUD", "word": "bullet", "wordID": 193, "conditions": [18, 1200, "a", 18000], "trial": 0, "serialpos": 5, "trial_type": "single-audio", "trial_index": 26, "time_elapsed": 288570, "internal_node_id": "0.0-17.0"}}, {"uniqueid": "MTK0455:3TXD01ZLD5O1VEFTQ60QX5YPX0V4UC", "current_trial": 27, "dateTime": 1510934061278, "trialdata": {"rt": -1000, "stimulus": "/static/audio/wordpool/AGENT.wav", "key_press": -1, "type": "PRES_AUD", "word": "agent", "wordID": 9, "conditions": [18, 1200, "a", 18000], "trial": 0, "serialpos": 6, "trial_type": "single-audio", "trial_index": 27, "time_elapsed": 290740, "internal_node_id": "0.0-18.0"}}, {"uniqueid": "MTK0455:3TXD01ZLD5O1VEFTQ60QX5YPX0V4UC", "current_trial": 28, "dateTime": 1510934063631, "trialdata": {"rt": -1000, "stimulus": "/static/audio/wordpool/POISON.wav", "key_press": -1, "type": "PRES_AUD", "word": "poison", "wordID": 1095, "conditions": [18, 1200, "a", 18000], "trial": 0, "serialpos": 7, "trial_type": "single-audio", "trial_index": 28, "time_elapsed": 293093, "internal_node_id": "0.0-19.0"}}, {"uniqueid": "MTK0455:3TXD01ZLD5O1VEFTQ60QX5YPX0V4UC", "current_trial": 29, "dateTime": 1510934065985, "trialdata": {"rt": -1000, "stimulus": "/static/audio/wordpool/POSTAGE.wav", "key_press": -1, "type": "PRES_AUD", "word": "postage", "wordID": 1112, "conditions": [18, 1200, "a", 18000], "trial": 0, "serialpos": 8, "trial_type": "single-audio", "trial_index": 29, "time_elapsed": 295447, "internal_node_id": "0.0-20.0"}}, {"uniqueid": "MTK0455:3TXD01ZLD5O1VEFTQ60QX5YPX0V4UC", "current_trial": 30, "dateTime": 1510934068124, "trialdata": {"rt": -1000, "stimulus": "/static/audio/wordpool/BLACKBOARD.wav", "key_press": -1, "type": "PRES_AUD", "word": "blackboard", "wordID": 132, "conditions": [18, 1200, "a", 18000], "trial": 0, "serialpos": 9, "trial_type": "single-audio", "trial_index": 30, "time_elapsed": 297586, "internal_node_id": "0.0-21.0"}}, {"uniqueid": "MTK0455:3TXD01ZLD5O1VEFTQ60QX5YPX0V4UC", "current_trial": 31, "dateTime": 1510934070137, "trialdata": {"rt": -1000, "stimulus": "/static/audio/wordpool/VAGRANT.wav", "key_press": -1, "type": "PRES_AUD", "word": "vagrant", "wordID": 1543, "conditions": [18, 1200, "a", 18000], "trial": 0, "serialpos": 10, "trial_type": "single-audio", "trial_index": 31, "time_elapsed": 299599, "internal_node_id": "0.0-22.0"}}, {"uniqueid": "MTK0455:3TXD01ZLD5O1VEFTQ60QX5YPX0V4UC", "current_trial": 32, "dateTime": 1510934072258, "trialdata": {"rt": -1000, "stimulus": "/static/audio/wordpool/BARLEY.wav", "key_press": -1, "type": "PRES_AUD", "word": "barley", "wordID": 87, "conditions": [18, 1200, "a", 18000], "trial": 0, "serialpos": 11, "trial_type": "single-audio", "trial_index": 32, "time_elapsed": 301720, "internal_node_id": "0.0-23.0"}}, {"uniqueid": "MTK0455:3TXD01ZLD5O1VEFTQ60QX5YPX0V4UC", "current_trial": 33, "dateTime": 1510934074403, "trialdata": {"rt": -1000, "stimulus": "/static/audio/wordpool/DRAWING.wav", "key_press": -1, "type": "PRES_AUD", "word": "drawing", "wordID": 493, "conditions": [18, 1200, "a", 18000], "trial": 0, "serialpos": 12, "trial_type": "single-audio", "trial_index": 33, "time_elapsed": 303865, "internal_node_id": "0.0-24.0"}}, {"uniqueid": "MTK0455:3TXD01ZLD5O1VEFTQ60QX5YPX0V4UC", "current_trial": 34, "dateTime": 1510934076623, "trialdata": {"rt": -1000, "stimulus": "/static/audio/wordpool/KETCHUP.wav", "key_press": -1, "type": "PRES_AUD", "word": "ketchup", "wordID": 770, "conditions": [18, 1200, "a", 18000], "trial": 0, "serialpos": 13, "trial_type": "single-audio", "trial_index": 34, "time_elapsed": 306085, "internal_node_id": "0.0-25.0"}}, {"uniqueid": "MTK0455:3TXD01ZLD5O1VEFTQ60QX5YPX0V4UC", "current_trial": 35, "dateTime": 1510934078729, "trialdata": {"rt": -1000, "stimulus": "/static/audio/wordpool/PARROT.wav", "key_press": -1, "type": "PRES_AUD", "word": "parrot", "wordID": 1014, "conditions": [18, 1200, "a", 18000], "trial": 0, "serialpos": 14, "trial_type": "single-audio", "trial_index": 35, "time_elapsed": 308191, "internal_node_id": "0.0-26.0"}}, {"uniqueid": "MTK0455:3TXD01ZLD5O1VEFTQ60QX5YPX0V4UC", "current_trial": 36, "dateTime": 1510934080796, "trialdata": {"rt": -1000, "stimulus": "/static/audio/wordpool/FARMER.wav", "key_press": -1, "type": "PRES_AUD", "word": "farmer", "wordID": 552, "conditions": [18, 1200, "a", 18000], "trial": 0, "serialpos": 15, "trial_type": "single-audio", "trial_index": 36, "time_elapsed": 310258, "internal_node_id": "0.0-27.0"}}, {"uniqueid": "MTK0455:3TXD01ZLD5O1VEFTQ60QX5YPX0V4UC", "current_trial": 37, "dateTime": 1510934083149, "trialdata": {"rt": -1000, "stimulus": "/static/audio/wordpool/RUST.wav", "key_press": -1, "type": "PRES_AUD", "word": "rust", "wordID": 1218, "conditions": [18, 1200, "a", 18000], "trial": 0, "serialpos": 16, "trial_type": "single-audio", "trial_index": 37, "time_elapsed": 312611, "internal_node_id": "0.0-28.0"}}, {"uniqueid": "MTK0455:3TXD01ZLD5O1VEFTQ60QX5YPX0V4UC", "current_trial": 38, "dateTime": 1510934085211, "trialdata": {"rt": -1000, "stimulus": "/static/audio/wordpool/GRAVE.wav", "key_press": -1, "type": "PRES_AUD", "word": "grave", "wordID": 657, "conditions": [18, 1200, "a", 18000], "trial": 0, "serialpos": 17, "trial_type": "single-audio", "trial_index": 38, "time_elapsed": 314673, "internal_node_id": "0.0-29.0"}}, {"uniqueid": "MTK0455:3TXD01ZLD5O1VEFTQ60QX5YPX0V4UC", "current_trial": 39, "dateTime": 1510934086535, "trialdata": {"rt": -1, "stimulus": "", "key_press": -1, "type": "PRE_RECALL_DELAY", "trial_type": "single-stim", "trial_index": 39, "time_elapsed": 315997, "internal_node_id": "0.0-30.0-0.0"}}, {"uniqueid": "MTK0455:3TXD01ZLD5O1VEFTQ60QX5YPX0V4UC", "current_trial": 40, "dateTime": 1510934087036, "trialdata": {"rt": -1000, "stimulus": "/static/audio/400Hz.wav", "key_press": -1, "type": "PRE_RECALL_ALERT", "trial_type": "single-audio", "trial_index": 40, "time_elapsed": 316498, "internal_node_id": "0.0-31.0"}}, {"uniqueid": "MTK0455:3TXD01ZLD5O1VEFTQ60QX5YPX0V4UC", "current_trial": 41, "dateTime": 1510934147042, "trialdata": {"rt": [2266, 3546, 6282, 7875, 10331, 11971, 14019, 44211], "recwords": ["grade", "dust", "blackboard", "vagrant", "teacher", "butcher", "cook", "quarter"], "type": "FREE_RECALL", "conditions": [18, 1200, "a", 18000], "trial": 0, "trial_type": "free-recall", "trial_index": 41, "time_elapsed": 376502, "internal_node_id": "0.0-32.0-0.0"}}, {"uniqueid": "MTK0455:3TXD01ZLD5O1VEFTQ60QX5YPX0V4UC", "current_trial": 42, "dateTime": 1510934150819, "trialdata": {"rt": 1776, "key_press": 75, "type": "INSTRUCTIONS", "trial_type": "text", "trial_index": 42, "time_elapsed": 380281, "internal_node_id": "0.0-33.0"}}, {"uniqueid": "MTK0455:3TXD01ZLD5O1VEFTQ60QX5YPX0V4UC", "current_trial": 43, "dateTime": 1510934170820, "trialdata": {"rt": [2805, 5453, 7037, 9133, 11646, 15014], "responses": ["12", "15", "15", "19", "20", "25"], "num1": [6, 4, 2, 5, 3, 9, 9], "num2": [3, 9, 7, 8, 9, 7, 9], "num3": [3, 2, 6, 6, 8, 9, 7], "type": "DISTRACTOR", "conditions": [18, 1200, "v", 18000], "trial": 1, "trial_type": "math-distractor", "trial_index": 43, "time_elapsed": 400282, "internal_node_id": "0.0-34.0"}}, {"uniqueid": "MTK0455:3TXD01ZLD5O1VEFTQ60QX5YPX0V4UC", "current_trial": 44, "dateTime": 1510934173821, "trialdata": {"rt": -1, "stimulus": "<p id=\"stim\">10</p>", "key_press": -1, "trial_type": "single-stim", "trial_index": 44, "time_elapsed": 403283, "internal_node_id": "0.0-35.0-0.0"}}, {"uniqueid": "MTK0455:3TXD01ZLD5O1VEFTQ60QX5YPX0V4UC", "current_trial": 45, "dateTime": 1510934174821, "trialdata": {"rt": -1, "stimulus": "<p id=\"stim\">9</p>", "key_press": -1, "trial_type": "single-stim", "trial_index": 45, "time_elapsed": 404283, "internal_node_id": "0.0-35.0-1.0"}}, {"uniqueid": "MTK0455:3TXD01ZLD5O1VEFTQ60QX5YPX0V4UC", "current_trial": 46, "dateTime": 1510934175821, "trialdata": {"rt": -1, "stimulus": "<p id=\"stim\">8</p>", "key_press": -1, "trial_type": "single-stim", "trial_index": 46, "time_elapsed": 405283, "internal_node_id": "0.0-35.0-2.0"}}, {"uniqueid": "MTK0455:3TXD01ZLD5O1VEFTQ60QX5YPX0V4UC", "current_trial": 47, "dateTime": 1510934176821, "trialdata": {"rt": -1, "stimulus": "<p id=\"stim\">7</p>", "key_press": -1, "trial_type": "single-stim", "trial_index": 47, "time_elapsed": 406283, "internal_node_id": "0.0-35.0-3.0"}}, {"uniqueid": "MTK0455:3TXD01ZLD5O1VEFTQ60QX5YPX0V4UC", "current_trial": 48, "dateTime": 1510934177822, "trialdata": {"rt": -1, "stimulus": "<p id=\"stim\">6</p>", "key_press": -1, "trial_type": "single-stim", "trial_index": 48, "time_elapsed": 407284, "internal_node_id": "0.0-35.0-4.0"}}, {"uniqueid": "MTK0455:3TXD01ZLD5O1VEFTQ60QX5YPX0V4UC", "current_trial": 49, "dateTime": 1510934178822, "trialdata": {"rt": -1, "stimulus": "<p id=\"stim\">5</p>", "key_press": -1, "trial_type": "single-stim", "trial_index": 49, "time_elapsed": 408284, "internal_node_id": "0.0-35.0-5.0"}}, {"uniqueid": "MTK0455:3TXD01ZLD5O1VEFTQ60QX5YPX0V4UC", "current_trial": 50, "dateTime": 1510934179822, "trialdata": {"rt": -1, "stimulus": "<p id=\"stim\">4</p>", "key_press": -1, "trial_type": "single-stim", "trial_index": 50, "time_elapsed": 409284, "internal_node_id": "0.0-35.0-6.0"}}, {"uniqueid": "MTK0455:3TXD01ZLD5O1VEFTQ60QX5YPX0V4UC", "current_trial": 51, "dateTime": 1510934180822, "trialdata": {"rt": -1, "stimulus": "<p id=\"stim\">3</p>", "key_press": -1, "trial_type": "single-stim", "trial_index": 51, "time_elapsed": 410284, "internal_node_id": "0.0-35.0-7.0"}}, {"uniqueid": "MTK0455:3TXD01ZLD5O1VEFTQ60QX5YPX0V4UC", "current_trial": 52, "dateTime": 1510934181822, "trialdata": {"rt": -1, "stimulus": "<p id=\"stim\">2</p>", "key_press": -1, "trial_type": "single-stim", "trial_index": 52, "time_elapsed": 411284, "internal_node_id": "0.0-35.0-8.0"}}, {"uniqueid": "MTK0455:3TXD01ZLD5O1VEFTQ60QX5YPX0V4UC", "current_trial": 53, "dateTime": 1510934182822, "trialdata": {"rt": -1, "stimulus": "<p id=\"stim\">1</p>", "key_press": -1, "trial_type": "single-stim", "trial_index": 53, "time_elapsed": 412284, "internal_node_id": "0.0-35.0-9.0"}}, {"uniqueid": "MTK0455:3TXD01ZLD5O1VEFTQ60QX5YPX0V4UC", "current_trial": 54, "dateTime": 1510934184322, "trialdata": {"rt": -1, "stimulus": "<p id=\"stim\">+</p>", "key_press": -1, "type": "FIXATION", "trial_type": "single-stim", "trial_index": 54, "time_elapsed": 413784, "internal_node_id": "0.0-36.0-0.0"}}, {"uniqueid": "MTK0455:3TXD01ZLD5O1VEFTQ60QX5YPX0V4UC", "current_trial": 55, "dateTime": 1510934185522, "trialdata": {"rt": -1, "stimulus": "<p id=\"stim\">MOTOR</p>", "key_press": -1, "type": "PRES_VIS", "word": "motor", "wordID": 921, "conditions": [18, 1200, "v", 18000], "trial": 1, "serialpos": 0, "trial_type": "single-stim", "trial_index": 55, "time_elapsed": 414984, "internal_node_id": "0.0-37.0"}}, {"uniqueid": "MTK0455:3TXD01ZLD5O1VEFTQ60QX5YPX0V4UC", "current_trial": 56, "dateTime": 1510934187834, "trialdata": {"rt": -1, "stimulus": "<p id=\"stim\">ELBOW</p>", "key_press": -1, "type": "PRES_VIS", "word": "elbow", "wordID": 519, "conditions": [18, 1200, "v", 18000], "trial": 1, "serialpos": 1, "trial_type": "single-stim", "trial_index": 56, "time_elapsed": 417296, "internal_node_id": "0.0-38.0"}}, {"uniqueid": "MTK0455:3TXD01ZLD5O1VEFTQ60QX5YPX0V4UC", "current_trial": 57, "dateTime": 1510934190047, "trialdata": {"rt": -1, "stimulus": "<p id=\"stim\">KNAPSACK</p>", "key_press": -1, "type": "PRES_VIS", "word": "knapsack", "wordID": 782, "conditions": [18, 1200, "v", 18000], "trial": 1, "serialpos": 2, "trial_type": "single-stim", "trial_index": 57, "time_elapsed": 419509, "internal_node_id": "0.0-39.0"}}, {"uniqueid": "MTK0455:3TXD01ZLD5O1VEFTQ60QX5YPX0V4UC", "current_trial": 58, "dateTime": 1510934192302, "trialdata": {"rt": -1, "stimulus": "<p id=\"stim\">DINER</p>", "key_press": -1, "type": "PRES_VIS", "word": "diner", "wordID": 466, "conditions": [18, 1200, "v", 18000], "trial": 1, "serialpos": 3, "trial_type": "single-stim", "trial_index": 58, "time_elapsed": 421764, "internal_node_id": "0.0-40.0"}}, {"uniqueid": "MTK0455:3TXD01ZLD5O1VEFTQ60QX5YPX0V4UC", "current_trial": 59, "dateTime": 1510934194403, "trialdata": {"rt": -1, "stimulus": "<p id=\"stim\">LUGGAGE</p>", "key_press": -1, "type": "PRES_VIS", "word": "luggage", "wordID": 846, "conditions": [18, 1200, "v", 18000], "trial": 1, "serialpos": 4, "trial_type": "single-stim", "trial_index": 59, "time_elapsed": 423865, "internal_node_id": "0.0-41.0"}}, {"uniqueid": "MTK0455:3TXD01ZLD5O1VEFTQ60QX5YPX0V4UC", "current_trial": 60, "dateTime": 1510934196745, "trialdata": {"rt": -1, "stimulus": "<p id=\"stim\">CRICKET</p>", "key_press": -1, "type": "PRES_VIS", "word": "cricket", "wordID": 407, "conditions": [18, 1200, "v", 18000], "trial": 1, "serialpos": 5, "trial_type": "single-stim", "trial_index": 60, "time_elapsed": 426207, "internal_node_id": "0.0-42.0"}}, {"uniqueid": "MTK0455:3TXD01ZLD5O1VEFTQ60QX5YPX0V4UC", "current_trial": 61, "dateTime": 1510934199056, "trialdata": {"rt": -1, "stimulus": "<p id=\"stim\">MAMMAL</p>", "key_press": -1, "type": "PRES_VIS", "word": "mammal", "wordID": 860, "conditions": [18, 1200, "v", 18000], "trial": 1, "serialpos": 6, "trial_type": "single-stim", "trial_index": 61, "time_elapsed": 428518, "internal_node_id": "0.0-43.0"}}, {"uniqueid": "MTK0455:3TXD01ZLD5O1VEFTQ60QX5YPX0V4UC", "current_trial": 62, "dateTime": 1510934201241, "trialdata": {"rt": -1, "stimulus": "<p id=\"stim\">PREACHER</p>", "key_press": -1, "type": "PRES_VIS", "word": "preacher", "wordID": 1118, "conditions": [18, 1200, "v", 18000], "trial": 1, "serialpos": 7, "trial_type": "single-stim", "trial_index": 62, "time_elapsed": 430703, "internal_node_id": "0.0-44.0"}}, {"uniqueid": "MTK0455:3TXD01ZLD5O1VEFTQ60QX5YPX0V4UC", "current_trial": 63, "dateTime": 1510934203415, "trialdata": {"rt": -1, "stimulus": "<p id=\"stim\">LUMBER</p>", "key_press": -1, "type": "PRES_VIS", "word": "lumber", "wordID": 847, "conditions": [18, 1200, "v", 18000], "trial": 1, "serialpos": 8, "trial_type": "single-stim", "trial_index": 63, "time_elapsed": 432877, "internal_node_id": "0.0-45.0"}}, {"uniqueid": "MTK0455:3TXD01ZLD5O1VEFTQ60QX5YPX0V4UC", "current_trial": 64, "dateTime": 1510934205757, "trialdata": {"rt": -1, "stimulus": "<p id=\"stim\">GRAVEL</p>", "key_press": -1, "type": "PRES_VIS", "word": "gravel", "wordID": 658, "conditions": [18, 1200, "v", 18000], "trial": 1, "serialpos": 9, "trial_type": "single-stim", "trial_index": 64, "time_elapsed": 435219, "internal_node_id": "0.0-46.0"}}, {"uniqueid": "MTK0455:3TXD01ZLD5O1VEFTQ60QX5YPX0V4UC", "current_trial": 65, "dateTime": 1510934208108, "trialdata": {"rt": -1, "stimulus": "<p id=\"stim\">PASTA</p>", "key_press": -1, "type": "PRES_VIS", "word": "pasta", "wordID": 1020, "conditions": [18, 1200, "v", 18000], "trial": 1, "serialpos": 10, "trial_type": "single-stim", "trial_index": 65, "time_elapsed": 437570, "internal_node_id": "0.0-47.0"}}, {"uniqueid": "MTK0455:3TXD01ZLD5O1VEFTQ60QX5YPX0V4UC", "current_trial": 66, "dateTime": 1510934210367, "trialdata": {"rt": -1, "stimulus": "<p id=\"stim\">OUTDOORS</p>", "key_press": -1, "type": "PRES_VIS", "word": "outdoors", "wordID": 986, "conditions": [18, 1200, "v", 18000], "trial": 1, "serialpos": 11, "trial_type": "single-stim", "trial_index": 66, "time_elapsed": 439829, "internal_node_id": "0.0-48.0"}}, {"uniqueid": "MTK0455:3TXD01ZLD5O1VEFTQ60QX5YPX0V4UC", "current_trial": 67, "dateTime": 1510934212512, "trialdata": {"rt": -1, "stimulus": "<p id=\"stim\">ACTOR</p>", "key_press": -1, "type": "PRES_VIS", "word": "actor", "wordID": 4, "conditions": [18, 1200, "v", 18000], "trial": 1, "serialpos": 12, "trial_type": "single-stim", "trial_index": 67, "time_elapsed": 441974, "internal_node_id": "0.0-49.0"}}, {"uniqueid": "MTK0455:3TXD01ZLD5O1VEFTQ60QX5YPX0V4UC", "current_trial": 68, "dateTime": 1510934214575, "trialdata": {"rt": -1, "stimulus": "<p id=\"stim\">BUGGY</p>", "key_press": -1, "type": "PRES_VIS", "word": "buggy", "wordID": 187, "conditions": [18, 1200, "v", 18000], "trial": 1, "serialpos": 13, "trial_type": "single-stim", "trial_index": 68, "time_elapsed": 444034, "internal_node_id": "0.0-50.0"}}, {"uniqueid": "MTK0455:3TXD01ZLD5O1VEFTQ60QX5YPX0V4UC", "current_trial": 69, "dateTime": 1510934216820, "trialdata": {"rt": -1, "stimulus": "<p id=\"stim\">FOX</p>", "key_press": -1, "type": "PRES_VIS", "word": "fox", "wordID": 597, "conditions": [18, 1200, "v", 18000], "trial": 1, "serialpos": 14, "trial_type": "single-stim", "trial_index": 69, "time_elapsed": 446282, "internal_node_id": "0.0-51.0"}}, {"uniqueid": "MTK0455:3TXD01ZLD5O1VEFTQ60QX5YPX0V4UC", "current_trial": 70, "dateTime": 1510934218882, "trialdata": {"rt": -1, "stimulus": "<p id=\"stim\">CURTAIN</p>", "key_press": -1, "type": "PRES_VIS", "word": "curtain", "wordID": 426, "conditions": [18, 1200, "v", 18000], "trial": 1, "serialpos": 15, "trial_type": "single-stim", "trial_index": 70, "time_elapsed": 448344, "internal_node_id": "0.0-52.0"}}, {"uniqueid": "MTK0455:3TXD01ZLD5O1VEFTQ60QX5YPX0V4UC", "current_trial": 71, "dateTime": 1510934221100, "trialdata": {"rt": -1, "stimulus": "<p id=\"stim\">QUEEN</p>", "key_press": -1, "type": "PRES_VIS", "word": "queen", "wordID": 1148, "conditions": [18, 1200, "v", 18000], "trial": 1, "serialpos": 16, "trial_type": "single-stim", "trial_index": 71, "time_elapsed": 450562, "internal_node_id": "0.0-53.0"}}, {"uniqueid": "MTK0455:3TXD01ZLD5O1VEFTQ60QX5YPX0V4UC", "current_trial": 72, "dateTime": 1510934223383, "trialdata": {"rt": -1, "stimulus": "<p id=\"stim\">SHELTER</p>", "key_press": -1, "type": "PRES_VIS", "word": "shelter", "wordID": 1281, "conditions": [18, 1200, "v", 18000], "trial": 1, "serialpos": 17, "trial_type": "single-stim", "trial_index": 72, "time_elapsed": 452845, "internal_node_id": "0.0-54.0"}}, {"uniqueid": "MTK0455:3TXD01ZLD5O1VEFTQ60QX5YPX0V4UC", "current_trial": 73, "dateTime": 1510934225465, "trialdata": {"rt": -1, "stimulus": "", "key_press": -1, "type": "PRE_RECALL_DELAY", "trial_type": "single-stim", "trial_index": 73, "time_elapsed": 454927, "internal_node_id": "0.0-55.0-0.0"}}, {"uniqueid": "MTK0455:3TXD01ZLD5O1VEFTQ60QX5YPX0V4UC", "current_trial": 74, "dateTime": 1510934225965, "trialdata": {"rt": -1000, "stimulus": "/static/audio/400Hz.wav", "key_press": -1, "type": "PRE_RECALL_ALERT", "trial_type": "single-audio", "trial_index": 74, "time_elapsed": 455427, "internal_node_id": "0.0-56.0"}}, {"uniqueid": "MTK0455:3TXD01ZLD5O1VEFTQ60QX5YPX0V4UC", "current_trial": 75, "dateTime": 1510934285969, "trialdata": {"rt": [2698, 4874, 7186, 9067, 11179, 13227, 14594, 19378, 28771, 35306, 44507, 48931], "recwords": ["shelter", "queen", "preacher", "lumbar", "cricket", "mammal", "fox", "motor", "buggy", "queen", "wheel", "cycle"], "type": "FREE_RECALL", "conditions": [18, 1200, "v", 18000], "trial": 1, "trial_type": "free-recall", "trial_index": 75, "time_elapsed": 515428, "internal_node_id": "0.0-57.0-0.0"}}, {"uniqueid": "MTK0455:3TXD01ZLD5O1VEFTQ60QX5YPX0V4UC", "current_trial": 76, "dateTime": 1510934289893, "trialdata": {"rt": 1920, "key_press": 75, "type": "INSTRUCTIONS", "trial_type": "text", "trial_index": 76, "time_elapsed": 519352, "internal_node_id": "0.0-58.0"}}, {"uniqueid": "MTK0455:3TXD01ZLD5O1VEFTQ60QX5YPX0V4UC", "current_trial": 77, "dateTime": 1510934314894, "trialdata": {"rt": [3259, 5138, 6786, 8714, 10522, 12010, 13739, 16707, 18371, 19803, 21483, 23338], "responses": ["13", "15", "12", "14", "14", "7", "15", "24", "14", "14", "18", "21"], "num1": [1, 3, 3, 4, 3, 4, 4, 9, 9, 1, 6, 5, 8], "num2": [5, 5, 1, 5, 6, 2, 9, 7, 3, 9, 5, 7, 3], "num3": [7, 7, 8, 5, 5, 1, 2, 8, 2, 4, 7, 9, 9], "type": "DISTRACTOR", "conditions": [12, 800, "v", 24000], "trial": 2, "trial_type": "math-distractor", "trial_index": 77, "time_elapsed": 544356, "internal_node_id": "0.0-59.0"}}, {"uniqueid": "MTK0455:3TXD01ZLD5O1VEFTQ60QX5YPX0V4UC", "current_trial": 78, "dateTime": 1510934317894, "trialdata": {"rt": -1, "stimulus": "<p id=\"stim\">10</p>", "key_press": -1, "trial_type": "single-stim", "trial_index": 78, "time_elapsed": 547356, "internal_node_id": "0.0-60.0-0.0"}}, {"uniqueid": "MTK0455:3TXD01ZLD5O1VEFTQ60QX5YPX0V4UC", "current_trial": 79, "dateTime": 1510934318894, "trialdata": {"rt": -1, "stimulus": "<p id=\"stim\">9</p>", "key_press": -1, "trial_type": "single-stim", "trial_index": 79, "time_elapsed": 548356, "internal_node_id": "0.0-60.0-1.0"}}, {"uniqueid": "MTK0455:3TXD01ZLD5O1VEFTQ60QX5YPX0V4UC", "current_trial": 80, "dateTime": 1510934319894, "trialdata": {"rt": -1, "stimulus": "<p id=\"stim\">8</p>", "key_press": -1, "trial_type": "single-stim", "trial_index": 80, "time_elapsed": 549356, "internal_node_id": "0.0-60.0-2.0"}}, {"uniqueid": "MTK0455:3TXD01ZLD5O1VEFTQ60QX5YPX0V4UC", "current_trial": 81, "dateTime": 1510934320895, "trialdata": {"rt": -1, "stimulus": "<p id=\"stim\">7</p>", "key_press": -1, "trial_type": "single-stim", "trial_index": 81, "time_elapsed": 550357, "internal_node_id": "0.0-60.0-3.0"}}, {"uniqueid": "MTK0455:3TXD01ZLD5O1VEFTQ60QX5YPX0V4UC", "current_trial": 82, "dateTime": 1510934321895, "trialdata": {"rt": -1, "stimulus": "<p id=\"stim\">6</p>", "key_press": -1, "trial_type": "single-stim", "trial_index": 82, "time_elapsed": 551357, "internal_node_id": "0.0-60.0-4.0"}}, {"uniqueid": "MTK0455:3TXD01ZLD5O1VEFTQ60QX5YPX0V4UC", "current_trial": 83, "dateTime": 1510934322895, "trialdata": {"rt": -1, "stimulus": "<p id=\"stim\">5</p>", "key_press": -1, "trial_type": "single-stim", "trial_index": 83, "time_elapsed": 552357, "internal_node_id": "0.0-60.0-5.0"}}, {"uniqueid": "MTK0455:3TXD01ZLD5O1VEFTQ60QX5YPX0V4UC", "current_trial": 84, "dateTime": 1510934323895, "trialdata": {"rt": -1, "stimulus": "<p id=\"stim\">4</p>", "key_press": -1, "trial_type": "single-stim", "trial_index": 84, "time_elapsed": 553357, "internal_node_id": "0.0-60.0-6.0"}}, {"uniqueid": "MTK0455:3TXD01ZLD5O1VEFTQ60QX5YPX0V4UC", "current_trial": 85, "dateTime": 1510934324895, "trialdata": {"rt": -1, "stimulus": "<p id=\"stim\">3</p>", "key_press": -1, "trial_type": "single-stim", "trial_index": 85, "time_elapsed": 554357, "internal_node_id": "0.0-60.0-7.0"}}, {"uniqueid": "MTK0455:3TXD01ZLD5O1VEFTQ60QX5YPX0V4UC", "current_trial": 86, "dateTime": 1510934325895, "trialdata": {"rt": -1, "stimulus": "<p id=\"stim\">2</p>", "key_press": -1, "trial_type": "single-stim", "trial_index": 86, "time_elapsed": 555357, "internal_node_id": "0.0-60.0-8.0"}}, {"uniqueid": "MTK0455:3TXD01ZLD5O1VEFTQ60QX5YPX0V4UC", "current_trial": 87, "dateTime": 1510934326895, "trialdata": {"rt": -1, "stimulus": "<p id=\"stim\">1</p>", "key_press": -1, "trial_type": "single-stim", "trial_index": 87, "time_elapsed": 556357, "internal_node_id": "0.0-60.0-9.0"}}, {"uniqueid": "MTK0455:3TXD01ZLD5O1VEFTQ60QX5YPX0V4UC", "current_trial": 88, "dateTime": 1510934328395, "trialdata": {"rt": -1, "stimulus": "<p id=\"stim\">+</p>", "key_press": -1, "type": "FIXATION", "trial_type": "single-stim", "trial_index": 88, "time_elapsed": 557857, "internal_node_id": "0.0-61.0-0.0"}}, {"uniqueid": "MTK0455:3TXD01ZLD5O1VEFTQ60QX5YPX0V4UC", "current_trial": 89, "dateTime": 1510934329195, "trialdata": {"rt": -1, "stimulus": "<p id=\"stim\">SWIMMER</p>", "key_press": -1, "type": "PRES_VIS", "word": "swimmer", "wordID": 1419, "conditions": [12, 800, "v", 24000], "trial": 2, "serialpos": 0, "trial_type": "single-stim", "trial_index": 89, "time_elapsed": 558657, "internal_node_id": "0.0-62.0"}}, {"uniqueid": "MTK0455:3TXD01ZLD5O1VEFTQ60QX5YPX0V4UC", "current_trial": 90, "dateTime": 1510934330874, "trialdata": {"rt": -1, "stimulus": "<p id=\"stim\">SNAKE</p>", "key_press": -1, "type": "PRES_VIS", "word": "snake", "wordID": 1332, "conditions": [12, 800, "v", 24000], "trial": 2, "serialpos": 1, "trial_type": "single-stim", "trial_index": 90, "time_elapsed": 560336, "internal_node_id": "0.0-63.0"}}, {"uniqueid": "MTK0455:3TXD01ZLD5O1VEFTQ60QX5YPX0V4UC", "current_trial": 91, "dateTime": 1510934332663, "trialdata": {"rt": -1, "stimulus": "<p id=\"stim\">LIZARD</p>", "key_press": -1, "type": "PRES_VIS", "word": "lizard", "wordID": 833, "conditions": [12, 800, "v", 24000], "trial": 2, "serialpos": 2, "trial_type": "single-stim", "trial_index": 91, "time_elapsed": 562125, "internal_node_id": "0.0-64.0"}}, {"uniqueid": "MTK0455:3TXD01ZLD5O1VEFTQ60QX5YPX0V4UC", "current_trial": 92, "dateTime": 1510934334485, "trialdata": {"rt": -1, "stimulus": "<p id=\"stim\">EMPIRE</p>", "key_press": -1, "type": "PRES_VIS", "word": "empire", "wordID": 529, "conditions": [12, 800, "v", 24000], "trial": 2, "serialpos": 3, "trial_type": "single-stim", "trial_index": 92, "time_elapsed": 563947, "internal_node_id": "0.0-65.0"}}, {"uniqueid": "MTK0455:3TXD01ZLD5O1VEFTQ60QX5YPX0V4UC", "current_trial": 93, "dateTime": 1510934336173, "trialdata": {"rt": -1, "stimulus": "<p id=\"stim\">DIVER</p>", "key_press": -1, "type": "PRES_VIS", "word": "diver", "wordID": 475, "conditions": [12, 800, "v", 24000], "trial": 2, "serialpos": 4, "trial_type": "single-stim", "trial_index": 93, "time_elapsed": 565635, "internal_node_id": "0.0-66.0"}}, {"uniqueid": "MTK0455:3TXD01ZLD5O1VEFTQ60QX5YPX0V4UC", "current_trial": 94, "dateTime": 1510934337937, "trialdata": {"rt": -1, "stimulus": "<p id=\"stim\">PILOT</p>", "key_press": -1, "type": "PRES_VIS", "word": "pilot", "wordID": 1069, "conditions": [12, 800, "v", 24000], "trial": 2, "serialpos": 5, "trial_type": "single-stim", "trial_index": 94, "time_elapsed": 567399, "internal_node_id": "0.0-67.0"}}, {"uniqueid": "MTK0455:3TXD01ZLD5O1VEFTQ60QX5YPX0V4UC", "current_trial": 95, "dateTime": 1510934339710, "trialdata": {"rt": -1, "stimulus": "<p id=\"stim\">RATTLE</p>", "key_press": -1, "type": "PRES_VIS", "word": "rattle", "wordID": 1169, "conditions": [12, 800, "v", 24000], "trial": 2, "serialpos": 6, "trial_type": "single-stim", "trial_index": 95, "time_elapsed": 569172, "internal_node_id": "0.0-68.0"}}, {"uniqueid": "MTK0455:3TXD01ZLD5O1VEFTQ60QX5YPX0V4UC", "current_trial": 96, "dateTime": 1510934341369, "trialdata": {"rt": -1, "stimulus": "<p id=\"stim\">TROMBONE</p>", "key_press": -1, "type": "PRES_VIS", "word": "trombone", "wordID": 1507, "conditions": [12, 800, "v", 24000], "trial": 2, "serialpos": 7, "trial_type": "single-stim", "trial_index": 96, "time_elapsed": 570831, "internal_node_id": "0.0-69.0"}}, {"uniqueid": "MTK0455:3TXD01ZLD5O1VEFTQ60QX5YPX0V4UC", "current_trial": 97, "dateTime": 1510934343198, "trialdata": {"rt": -1, "stimulus": "<p id=\"stim\">ISLAND</p>", "key_press": -1, "type": "PRES_VIS", "word": "island", "wordID": 744, "conditions": [12, 800, "v", 24000], "trial": 2, "serialpos": 8, "trial_type": "single-stim", "trial_index": 97, "time_elapsed": 572660, "internal_node_id": "0.0-70.0"}}, {"uniqueid": "MTK0455:3TXD01ZLD5O1VEFTQ60QX5YPX0V4UC", "current_trial": 98, "dateTime": 1510934344936, "trialdata": {"rt": -1, "stimulus": "<p id=\"stim\">MONSTER</p>", "key_press": -1, "type": "PRES_VIS", "word": "monster", "wordID": 911, "conditions": [12, 800, "v", 24000], "trial": 2, "serialpos": 9, "trial_type": "single-stim", "trial_index": 98, "time_elapsed": 574398, "internal_node_id": "0.0-71.0"}}, {"uniqueid": "MTK0455:3TXD01ZLD5O1VEFTQ60QX5YPX0V4UC", "current_trial": 99, "dateTime": 1510934346893, "trialdata": {"rt": -1, "stimulus": "<p id=\"stim\">DRESSER</p>", "key_press": -1, "type": "PRES_VIS", "word": "dresser", "wordID": 495, "conditions": [12, 800, "v", 24000], "trial": 2, "serialpos": 10, "trial_type": "single-stim", "trial_index": 99, "time_elapsed": 576355, "internal_node_id": "0.0-72.0"}}, {"uniqueid": "MTK0455:3TXD01ZLD5O1VEFTQ60QX5YPX0V4UC", "current_trial": 100, "dateTime": 1510934348817, "trialdata": {"rt": -1, "stimulus": "<p id=\"stim\">CAMEL</p>", "key_press": -1, "type": "PRES_VIS", "word": "camel", "wordID": 222, "conditions": [12, 800, "v", 24000], "trial": 2, "serialpos": 11, "trial_type": "single-stim", "trial_index": 100, "time_elapsed": 578279, "internal_node_id": "0.0-73.0"}}, {"uniqueid": "MTK0455:3TXD01ZLD5O1VEFTQ60QX5YPX0V4UC", "current_trial": 101, "dateTime": 1510934351209, "trialdata": {"rt": -1, "stimulus": "", "key_press": -1, "type": "PRE_RECALL_DELAY", "trial_type": "single-stim", "trial_index": 101, "time_elapsed": 580671, "internal_node_id": "0.0-74.0-0.0"}}, {"uniqueid": "MTK0455:3TXD01ZLD5O1VEFTQ60QX5YPX0V4UC", "current_trial": 102, "dateTime": 1510934351709, "trialdata": {"rt": -1000, "stimulus": "/static/audio/400Hz.wav", "key_press": -1, "type": "PRE_RECALL_ALERT", "trial_type": "single-audio", "trial_index": 102, "time_elapsed": 581171, "internal_node_id": "0.0-75.0"}}, {"uniqueid": "MTK0455:3TXD01ZLD5O1VEFTQ60QX5YPX0V4UC", "current_trial": 103, "dateTime": 1510934411712, "trialdata": {"rt": [2035, 3627, 5500, 7012, 8316, 11324, 13484, 16083, 19275, 24068, 28596, 40811, 47266], "recwords": ["camel", "monster", "dresser", "swimmer", "diver", "island", "snake", "lizard", "trombone", "pilot", "airplane", "island", "rattle"], "type": "FREE_RECALL", "conditions": [12, 800, "v", 24000], "trial": 2, "trial_type": "free-recall", "trial_index": 103, "time_elapsed": 641171, "internal_node_id": "0.0-76.0-0.0"}}, {"uniqueid": "MTK0455:3TXD01ZLD5O1VEFTQ60QX5YPX0V4UC", "current_trial": 104, "dateTime": 1510934415658, "trialdata": {"rt": 1945, "key_press": 74, "type": "INSTRUCTIONS", "trial_type": "text", "trial_index": 104, "time_elapsed": 645120, "internal_node_id": "0.0-77.0"}}, {"uniqueid": "MTK0455:3TXD01ZLD5O1VEFTQ60QX5YPX0V4UC", "current_trial": 105, "dateTime": 1510934441660, "trialdata": {"rt": [1933, 4021, 5581, 8189, 9710, 11310, 13478, 15110, 17077, 18654, 20245, 21613, 23325], "responses": ["14", "21", "12", "20", "16", "14", "13", "13", "20", "15", "16", "5", "17"], "num1": [6, 4, 3, 9, 8, 8, 2, 4, 7, 5, 3, 1, 7, 1], "num2": [4, 9, 1, 3, 7, 1, 5, 8, 9, 7, 6, 1, 8, 9], "num3": [4, 8, 8, 8, 1, 5, 6, 1, 4, 3, 7, 3, 2, 3], "type": "DISTRACTOR", "conditions": [12, 800, "a", 24000], "trial": 3, "trial_type": "math-distractor", "trial_index": 105, "time_elapsed": 671122, "internal_node_id": "0.0-78.0"}}, {"uniqueid": "MTK0455:3TXD01ZLD5O1VEFTQ60QX5YPX0V4UC", "current_trial": 106, "dateTime": 1510934444661, "trialdata": {"rt": -1, "stimulus": "<p id=\"stim\">10</p>", "key_press": -1, "trial_type": "single-stim", "trial_index": 106, "time_elapsed": 674123, "internal_node_id": "0.0-79.0-0.0"}}, {"uniqueid": "MTK0455:3TXD01ZLD5O1VEFTQ60QX5YPX0V4UC", "current_trial": 107, "dateTime": 1510934445661, "trialdata": {"rt": -1, "stimulus": "<p id=\"stim\">9</p>", "key_press": -1, "trial_type": "single-stim", "trial_index": 107, "time_elapsed": 675123, "internal_node_id": "0.0-79.0-1.0"}}, {"uniqueid": "MTK0455:3TXD01ZLD5O1VEFTQ60QX5YPX0V4UC", "current_trial": 108, "dateTime": 1510934446661, "trialdata": {"rt": -1, "stimulus": "<p id=\"stim\">8</p>", "key_press": -1, "trial_type": "single-stim", "trial_index": 108, "time_elapsed": 676123, "internal_node_id": "0.0-79.0-2.0"}}, {"uniqueid": "MTK0455:3TXD01ZLD5O1VEFTQ60QX5YPX0V4UC", "current_trial": 109, "dateTime": 1510934447661, "trialdata": {"rt": -1, "stimulus": "<p id=\"stim\">7</p>", "key_press": -1, "trial_type": "single-stim", "trial_index": 109, "time_elapsed": 677123, "internal_node_id": "0.0-79.0-3.0"}}, {"uniqueid": "MTK0455:3TXD01ZLD5O1VEFTQ60QX5YPX0V4UC", "current_trial": 110, "dateTime": 1510934448661, "trialdata": {"rt": -1, "stimulus": "<p id=\"stim\">6</p>", "key_press": -1, "trial_type": "single-stim", "trial_index": 110, "time_elapsed": 678123, "internal_node_id": "0.0-79.0-4.0"}}, {"uniqueid": "MTK0455:3TXD01ZLD5O1VEFTQ60QX5YPX0V4UC", "current_trial": 111, "dateTime": 1510934449661, "trialdata": {"rt": -1, "stimulus": "<p id=\"stim\">5</p>", "key_press": -1, "trial_type": "single-stim", "trial_index": 111, "time_elapsed": 679123, "internal_node_id": "0.0-79.0-5.0"}}, {"uniqueid": "MTK0455:3TXD01ZLD5O1VEFTQ60QX5YPX0V4UC", "current_trial": 112, "dateTime": 1510934450661, "trialdata": {"rt": -1, "stimulus": "<p id=\"stim\">4</p>", "key_press": -1, "trial_type": "single-stim", "trial_index": 112, "time_elapsed": 680123, "internal_node_id": "0.0-79.0-6.0"}}, {"uniqueid": "MTK0455:3TXD01ZLD5O1VEFTQ60QX5YPX0V4UC", "current_trial": 113, "dateTime": 1510934451661, "trialdata": {"rt": -1, "stimulus": "<p id=\"stim\">3</p>", "key_press": -1, "trial_type": "single-stim", "trial_index": 113, "time_elapsed": 681123, "internal_node_id": "0.0-79.0-7.0"}}, {"uniqueid": "MTK0455:3TXD01ZLD5O1VEFTQ60QX5YPX0V4UC", "current_trial": 114, "dateTime": 1510934452661, "trialdata": {"rt": -1, "stimulus": "<p id=\"stim\">2</p>", "key_press": -1, "trial_type": "single-stim", "trial_index": 114, "time_elapsed": 682123, "internal_node_id": "0.0-79.0-8.0"}}, {"uniqueid": "MTK0455:3TXD01ZLD5O1VEFTQ60QX5YPX0V4UC", "current_trial": 115, "dateTime": 1510934453661, "trialdata": {"rt": -1, "stimulus": "<p id=\"stim\">1</p>", "key_press": -1, "trial_type": "single-stim", "trial_index": 115, "time_elapsed": 683123, "internal_node_id": "0.0-79.0-9.0"}}, {"uniqueid": "MTK0455:3TXD01ZLD5O1VEFTQ60QX5YPX0V4UC", "current_trial": 116, "dateTime": 1510934455161, "trialdata": {"rt": -1, "stimulus": "<p id=\"stim\">+</p>", "key_press": -1, "type": "FIXATION", "trial_type": "single-stim", "trial_index": 116, "time_elapsed": 684623, "internal_node_id": "0.0-80.0-0.0"}}, {"uniqueid": "MTK0455:3TXD01ZLD5O1VEFTQ60QX5YPX0V4UC", "current_trial": 117, "dateTime": 1510934457088, "trialdata": {"rt": -1000, "stimulus": "/static/audio/wordpool/OX.wav", "key_press": -1, "type": "PRES_AUD", "word": "ox", "wordID": 993, "conditions": [12, 800, "a", 24000], "trial": 3, "serialpos": 0, "trial_type": "single-audio", "trial_index": 117, "time_elapsed": 686550, "internal_node_id": "0.0-81.0"}}, {"uniqueid": "MTK0455:3TXD01ZLD5O1VEFTQ60QX5YPX0V4UC", "current_trial": 118, "dateTime": 1510934458985, "trialdata": {"rt": -1000, "stimulus": "/static/audio/wordpool/SMOG.wav", "key_press": -1, "type": "PRES_AUD", "word": "smog", "wordID": 1329, "conditions": [12, 800, "a", 24000], "trial": 3, "serialpos": 1, "trial_type": "single-audio", "trial_index": 118, "time_elapsed": 688447, "internal_node_id": "0.0-82.0"}}, {"uniqueid": "MTK0455:3TXD01ZLD5O1VEFTQ60QX5YPX0V4UC", "current_trial": 119, "dateTime": 1510934460695, "trialdata": {"rt": -1000, "stimulus": "/static/audio/wordpool/OZONE.wav", "key_press": -1, "type": "PRES_AUD", "word": "ozone", "wordID": 995, "conditions": [12, 800, "a", 24000], "trial": 3, "serialpos": 2, "trial_type": "single-audio", "trial_index": 119, "time_elapsed": 690157, "internal_node_id": "0.0-83.0"}}, {"uniqueid": "MTK0455:3TXD01ZLD5O1VEFTQ60QX5YPX0V4UC", "current_trial": 120, "dateTime": 1510934462573, "trialdata": {"rt": -1000, "stimulus": "/static/audio/wordpool/RAFT.wav", "key_press": -1, "type": "PRES_AUD", "word": "raft", "wordID": 1158, "conditions": [12, 800, "a", 24000], "trial": 3, "serialpos": 3, "trial_type": "single-audio", "trial_index": 120, "time_elapsed": 692035, "internal_node_id": "0.0-84.0"}}, {"uniqueid": "MTK0455:3TXD01ZLD5O1VEFTQ60QX5YPX0V4UC", "current_trial": 121, "dateTime": 1510934464487, "trialdata": {"rt": -1000, "stimulus": "/static/audio/wordpool/LAKE.wav", "key_press": -1, "type": "PRES_AUD", "word": "lake", "wordID": 795, "conditions": [12, 800, "a", 24000], "trial": 3, "serialpos": 4, "trial_type": "single-audio", "trial_index": 121, "time_elapsed": 693949, "internal_node_id": "0.0-85.0"}}, {"uniqueid": "MTK0455:3TXD01ZLD5O1VEFTQ60QX5YPX0V4UC", "current_trial": 122, "dateTime": 1510934466421, "trialdata": {"rt": -1000, "stimulus": "/static/audio/wordpool/PIGEON.wav", "key_press": -1, "type": "PRES_AUD", "word": "pigeon", "wordID": 1064, "conditions": [12, 800, "a", 24000], "trial": 3, "serialpos": 5, "trial_type": "single-audio", "trial_index": 122, "time_elapsed": 695883, "internal_node_id": "0.0-86.0"}}, {"uniqueid": "MTK0455:3TXD01ZLD5O1VEFTQ60QX5YPX0V4UC", "current_trial": 123, "dateTime": 1510934468090, "trialdata": {"rt": -1000, "stimulus": "/static/audio/wordpool/FRAGRANCE.wav", "key_press": -1, "type": "PRES_AUD", "word": "fragrance", "wordID": 598, "conditions": [12, 800, "a", 24000], "trial": 3, "serialpos": 6, "trial_type": "single-audio", "trial_index": 123, "time_elapsed": 697552, "internal_node_id": "0.0-87.0"}}, {"uniqueid": "MTK0455:3TXD01ZLD5O1VEFTQ60QX5YPX0V4UC", "current_trial": 124, "dateTime": 1510934469853, "trialdata": {"rt": -1000, "stimulus": "/static/audio/wordpool/PANTHER.wav", "key_press": -1, "type": "PRES_AUD", "word": "panther", "wordID": 1008, "conditions": [12, 800, "a", 24000], "trial": 3, "serialpos": 7, "trial_type": "single-audio", "trial_index": 124, "time_elapsed": 699315, "internal_node_id": "0.0-88.0"}}, {"uniqueid": "MTK0455:3TXD01ZLD5O1VEFTQ60QX5YPX0V4UC", "current_trial": 125, "dateTime": 1510934471847, "trialdata": {"rt": -1000, "stimulus": "/static/audio/wordpool/GARDEN.wav", "key_press": -1, "type": "PRES_AUD", "word": "garden", "wordID": 622, "conditions": [12, 800, "a", 24000], "trial": 3, "serialpos": 8, "trial_type": "single-audio", "trial_index": 125, "time_elapsed": 701309, "internal_node_id": "0.0-89.0"}}, {"uniqueid": "MTK0455:3TXD01ZLD5O1VEFTQ60QX5YPX0V4UC", "current_trial": 126, "dateTime": 1510934473632, "trialdata": {"rt": -1000, "stimulus": "/static/audio/wordpool/PERFUME.wav", "key_press": -1, "type": "PRES_AUD", "word": "perfume", "wordID": 1048, "conditions": [12, 800, "a", 24000], "trial": 3, "serialpos": 9, "trial_type": "single-audio", "trial_index": 126, "time_elapsed": 703094, "internal_node_id": "0.0-90.0"}}, {"uniqueid": "MTK0455:3TXD01ZLD5O1VEFTQ60QX5YPX0V4UC", "current_trial": 127, "dateTime": 1510934475430, "trialdata": {"rt": -1000, "stimulus": "/static/audio/wordpool/QUAIL.wav", "key_press": -1, "type": "PRES_AUD", "word": "quail", "wordID": 1146, "conditions": [12, 800, "a", 24000], "trial": 3, "serialpos": 10, "trial_type": "single-audio", "trial_index": 127, "time_elapsed": 704892, "internal_node_id": "0.0-91.0"}}, {"uniqueid": "MTK0455:3TXD01ZLD5O1VEFTQ60QX5YPX0V4UC", "current_trial": 128, "dateTime": 1510934477198, "trialdata": {"rt": -1000, "stimulus": "/static/audio/wordpool/THREAD.wav", "key_press": -1, "type": "PRES_AUD", "word": "thread", "wordID": 1459, "conditions": [12, 800, "a", 24000], "trial": 3, "serialpos": 11, "trial_type": "single-audio", "trial_index": 128, "time_elapsed": 706660, "internal_node_id": "0.0-92.0"}}, {"uniqueid": "MTK0455:3TXD01ZLD5O1VEFTQ60QX5YPX0V4UC", "current_trial": 129, "dateTime": 1510934478462, "trialdata": {"rt": -1, "stimulus": "", "key_press": -1, "type": "PRE_RECALL_DELAY", "trial_type": "single-stim", "trial_index": 129, "time_elapsed": 707924, "internal_node_id": "0.0-93.0-0.0"}}, {"uniqueid": "MTK0455:3TXD01ZLD5O1VEFTQ60QX5YPX0V4UC", "current_trial": 130, "dateTime": 1510934478962, "trialdata": {"rt": -1000, "stimulus": "/static/audio/400Hz.wav", "key_press": -1, "type": "PRE_RECALL_ALERT", "trial_type": "single-audio", "trial_index": 130, "time_elapsed": 708424, "internal_node_id": "0.0-94.0"}}, {"uniqueid": "MTK0455:3TXD01ZLD5O1VEFTQ60QX5YPX0V4UC", "current_trial": 131, "dateTime": 1510934538965, "trialdata": {"rt": [2063, 3447, 7807, 10038, 14734, 15750, 22007, 25622, 39942, 42861, 50925, 53014, 55414, 56254], "recwords": ["thread", "quail", "perfume", "scent", "ox", "panda", "ozone", "smog", "smell", "thread", "tail", "island", "raft", "lake"], "type": "FREE_RECALL", "conditions": [12, 800, "a", 24000], "trial": 3, "trial_type": "free-recall", "trial_index": 131, "time_elapsed": 768424, "internal_node_id": "0.0-95.0-0.0"}}, {"uniqueid": "MTK0455:3TXD01ZLD5O1VEFTQ60QX5YPX0V4UC", "current_trial": 132, "dateTime": 1510934541999, "trialdata": {"rt": 1033, "key_press": 13, "type": "INSTRUCTIONS", "trial_type": "text", "trial_index": 132, "time_elapsed": 771461, "internal_node_id": "0.0-96.0"}}, {"uniqueid": "MTK0455:3TXD01ZLD5O1VEFTQ60QX5YPX0V4UC", "current_trial": 133, "dateTime": 1510934556000, "trialdata": {"rt": [1896, 3720, 5721, 7233, 9273, 10528, 11984], "responses": ["18", "20", "12", "9", "6", "12", "10"], "num1": [2, 6, 2, 2, 2, 4, 5, 5], "num2": [9, 6, 7, 1, 1, 6, 1, 6], "num3": [7, 8, 3, 6, 3, 2, 4, 9], "type": "DISTRACTOR", "conditions": [12, 800, "v", 12000], "trial": 4, "trial_type": "math-distractor", "trial_index": 133, "time_elapsed": 785462, "internal_node_id": "0.0-97.0"}}, {"uniqueid": "MTK0455:3TXD01ZLD5O1VEFTQ60QX5YPX0V4UC", "current_trial": 134, "dateTime": 1510934559000, "trialdata": {"rt": -1, "stimulus": "<p id=\"stim\">10</p>", "key_press": -1, "trial_type": "single-stim", "trial_index": 134, "time_elapsed": 788462, "internal_node_id": "0.0-98.0-0.0"}}, {"uniqueid": "MTK0455:3TXD01ZLD5O1VEFTQ60QX5YPX0V4UC", "current_trial": 135, "dateTime": 1510934560000, "trialdata": {"rt": -1, "stimulus": "<p id=\"stim\">9</p>", "key_press": -1, "trial_type": "single-stim", "trial_index": 135, "time_elapsed": 789462, "internal_node_id": "0.0-98.0-1.0"}}, {"uniqueid": "MTK0455:3TXD01ZLD5O1VEFTQ60QX5YPX0V4UC", "current_trial": 136, "dateTime": 1510934561000, "trialdata": {"rt": -1, "stimulus": "<p id=\"stim\">8</p>", "key_press": -1, "trial_type": "single-stim", "trial_index": 136, "time_elapsed": 790462, "internal_node_id": "0.0-98.0-2.0"}}, {"uniqueid": "MTK0455:3TXD01ZLD5O1VEFTQ60QX5YPX0V4UC", "current_trial": 137, "dateTime": 1510934562001, "trialdata": {"rt": -1, "stimulus": "<p id=\"stim\">7</p>", "key_press": -1, "trial_type": "single-stim", "trial_index": 137, "time_elapsed": 791463, "internal_node_id": "0.0-98.0-3.0"}}, {"uniqueid": "MTK0455:3TXD01ZLD5O1VEFTQ60QX5YPX0V4UC", "current_trial": 138, "dateTime": 1510934563003, "trialdata": {"rt": -1, "stimulus": "<p id=\"stim\">6</p>", "key_press": -1, "trial_type": "single-stim", "trial_index": 138, "time_elapsed": 792463, "internal_node_id": "0.0-98.0-4.0"}}, {"uniqueid": "MTK0455:3TXD01ZLD5O1VEFTQ60QX5YPX0V4UC", "current_trial": 139, "dateTime": 1510934564003, "trialdata": {"rt": -1, "stimulus": "<p id=\"stim\">5</p>", "key_press": -1, "trial_type": "single-stim", "trial_index": 139, "time_elapsed": 793465, "internal_node_id": "0.0-98.0-5.0"}}, {"uniqueid": "MTK0455:3TXD01ZLD5O1VEFTQ60QX5YPX0V4UC", "current_trial": 140, "dateTime": 1510934565003, "trialdata": {"rt": -1, "stimulus": "<p id=\"stim\">4</p>", "key_press": -1, "trial_type": "single-stim", "trial_index": 140, "time_elapsed": 794465, "internal_node_id": "0.0-98.0-6.0"}}, {"uniqueid": "MTK0455:3TXD01ZLD5O1VEFTQ60QX5YPX0V4UC", "current_trial": 141, "dateTime": 1510934566004, "trialdata": {"rt": -1, "stimulus": "<p id=\"stim\">3</p>", "key_press": -1, "trial_type": "single-stim", "trial_index": 141, "time_elapsed": 795466, "internal_node_id": "0.0-98.0-7.0"}}, {"uniqueid": "MTK0455:3TXD01ZLD5O1VEFTQ60QX5YPX0V4UC", "current_trial": 142, "dateTime": 1510934567004, "trialdata": {"rt": -1, "stimulus": "<p id=\"stim\">2</p>", "key_press": -1, "trial_type": "single-stim", "trial_index": 142, "time_elapsed": 796466, "internal_node_id": "0.0-98.0-8.0"}}, {"uniqueid": "MTK0455:3TXD01ZLD5O1VEFTQ60QX5YPX0V4UC", "current_trial": 143, "dateTime": 1510934568004, "trialdata": {"rt": -1, "stimulus": "<p id=\"stim\">1</p>", "key_press": -1, "trial_type": "single-stim", "trial_index": 143, "time_elapsed": 797466, "internal_node_id": "0.0-98.0-9.0"}}, {"uniqueid": "MTK0455:3TXD01ZLD5O1VEFTQ60QX5YPX0V4UC", "current_trial": 144, "dateTime": 1510934569504, "trialdata": {"rt": -1, "stimulus": "<p id=\"stim\">+</p>", "key_press": -1, "type": "FIXATION", "trial_type": "single-stim", "trial_index": 144, "time_elapsed": 798966, "internal_node_id": "0.0-99.0-0.0"}}, {"uniqueid": "MTK0455:3TXD01ZLD5O1VEFTQ60QX5YPX0V4UC", "current_trial": 145, "dateTime": 1510934570304, "trialdata": {"rt": -1, "stimulus": "<p id=\"stim\">DRESS</p>", "key_press": -1, "type": "PRES_VIS", "word": "dress", "wordID": 494, "conditions": [12, 800, "v", 12000], "trial": 4, "serialpos": 0, "trial_type": "single-stim", "trial_index": 145, "time_elapsed": 799766, "internal_node_id": "0.0-100.0"}}, {"uniqueid": "MTK0455:3TXD01ZLD5O1VEFTQ60QX5YPX0V4UC", "current_trial": 146, "dateTime": 1510934572024, "trialdata": {"rt": -1, "stimulus": "<p id=\"stim\">DONKEY</p>", "key_press": -1, "type": "PRES_VIS", "word": "donkey", "wordID": 483, "conditions": [12, 800, "v", 12000], "trial": 4, "serialpos": 1, "trial_type": "single-stim", "trial_index": 146, "time_elapsed": 801486, "internal_node_id": "0.0-101.0"}}, {"uniqueid": "MTK0455:3TXD01ZLD5O1VEFTQ60QX5YPX0V4UC", "current_trial": 147, "dateTime": 1510934573759, "trialdata": {"rt": -1, "stimulus": "<p id=\"stim\">RIVER</p>", "key_press": -1, "type": "PRES_VIS", "word": "river", "wordID": 1193, "conditions": [12, 800, "v", 12000], "trial": 4, "serialpos": 2, "trial_type": "single-stim", "trial_index": 147, "time_elapsed": 803221, "internal_node_id": "0.0-102.0"}}, {"uniqueid": "MTK0455:3TXD01ZLD5O1VEFTQ60QX5YPX0V4UC", "current_trial": 148, "dateTime": 1510934575436, "trialdata": {"rt": -1, "stimulus": "<p id=\"stim\">MARSH</p>", "key_press": -1, "type": "PRES_VIS", "word": "marsh", "wordID": 873, "conditions": [12, 800, "v", 12000], "trial": 4, "serialpos": 3, "trial_type": "single-stim", "trial_index": 148, "time_elapsed": 804898, "internal_node_id": "0.0-103.0"}}, {"uniqueid": "MTK0455:3TXD01ZLD5O1VEFTQ60QX5YPX0V4UC", "current_trial": 149, "dateTime": 1510934577302, "trialdata": {"rt": -1, "stimulus": "<p id=\"stim\">VIRUS</p>", "key_press": -1, "type": "PRES_VIS", "word": "virus", "wordID": 1571, "conditions": [12, 800, "v", 12000], "trial": 4, "serialpos": 4, "trial_type": "single-stim", "trial_index": 149, "time_elapsed": 806764, "internal_node_id": "0.0-104.0"}}, {"uniqueid": "MTK0455:3TXD01ZLD5O1VEFTQ60QX5YPX0V4UC", "current_trial": 150, "dateTime": 1510934579266, "trialdata": {"rt": -1, "stimulus": "<p id=\"stim\">MAILMAN</p>", "key_press": -1, "type": "PRES_VIS", "word": "mailman", "wordID": 857, "conditions": [12, 800, "v", 12000], "trial": 4, "serialpos": 5, "trial_type": "single-stim", "trial_index": 150, "time_elapsed": 808728, "internal_node_id": "0.0-105.0"}}, {"uniqueid": "MTK0455:3TXD01ZLD5O1VEFTQ60QX5YPX0V4UC", "current_trial": 151, "dateTime": 1510934581215, "trialdata": {"rt": -1, "stimulus": "<p id=\"stim\">VICTIM</p>", "key_press": -1, "type": "PRES_VIS", "word": "victim", "wordID": 1561, "conditions": [12, 800, "v", 12000], "trial": 4, "serialpos": 6, "trial_type": "single-stim", "trial_index": 151, "time_elapsed": 810677, "internal_node_id": "0.0-106.0"}}, {"uniqueid": "MTK0455:3TXD01ZLD5O1VEFTQ60QX5YPX0V4UC", "current_trial": 152, "dateTime": 1510934583194, "trialdata": {"rt": -1, "stimulus": "<p id=\"stim\">LIGHTNING</p>", "key_press": -1, "type": "PRES_VIS", "word": "lightning", "wordID": 819, "conditions": [12, 800, "v", 12000], "trial": 4, "serialpos": 7, "trial_type": "single-stim", "trial_index": 152, "time_elapsed": 812656, "internal_node_id": "0.0-107.0"}}, {"uniqueid": "MTK0455:3TXD01ZLD5O1VEFTQ60QX5YPX0V4UC", "current_trial": 153, "dateTime": 1510934584998, "trialdata": {"rt": -1, "stimulus": "<p id=\"stim\">WHISKERS</p>", "key_press": -1, "type": "PRES_VIS", "word": "whiskers", "wordID": 1604, "conditions": [12, 800, "v", 12000], "trial": 4, "serialpos": 8, "trial_type": "single-stim", "trial_index": 153, "time_elapsed": 814460, "internal_node_id": "0.0-108.0"}}, {"uniqueid": "MTK0455:3TXD01ZLD5O1VEFTQ60QX5YPX0V4UC", "current_trial": 154, "dateTime": 1510934586758, "trialdata": {"rt": -1, "stimulus": "<p id=\"stim\">DASHBOARD</p>", "key_press": -1, "type": "PRES_VIS", "word": "dashboard", "wordID": 440, "conditions": [12, 800, "v", 12000], "trial": 4, "serialpos": 9, "trial_type": "single-stim", "trial_index": 154, "time_elapsed": 816220, "internal_node_id": "0.0-109.0"}}, {"uniqueid": "MTK0455:3TXD01ZLD5O1VEFTQ60QX5YPX0V4UC", "current_trial": 155, "dateTime": 1510934588393, "trialdata": {"rt": -1, "stimulus": "<p id=\"stim\">SCARF</p>", "key_press": -1, "type": "PRES_VIS", "word": "scarf", "wordID": 1245, "conditions": [12, 800, "v", 12000], "trial": 4, "serialpos": 10, "trial_type": "single-stim", "trial_index": 155, "time_elapsed": 817855, "internal_node_id": "0.0-110.0"}}, {"uniqueid": "MTK0455:3TXD01ZLD5O1VEFTQ60QX5YPX0V4UC", "current_trial": 156, "dateTime": 1510934590281, "trialdata": {"rt": -1, "stimulus": "<p id=\"stim\">STAPLE</p>", "key_press": -1, "type": "PRES_VIS", "word": "staple", "wordID": 1370, "conditions": [12, 800, "v", 12000], "trial": 4, "serialpos": 11, "trial_type": "single-stim", "trial_index": 156, "time_elapsed": 819743, "internal_node_id": "0.0-111.0"}}, {"uniqueid": "MTK0455:3TXD01ZLD5O1VEFTQ60QX5YPX0V4UC", "current_trial": 157, "dateTime": 1510934592681, "trialdata": {"rt": -1, "stimulus": "", "key_press": -1, "type": "PRE_RECALL_DELAY", "trial_type": "single-stim", "trial_index": 157, "time_elapsed": 822143, "internal_node_id": "0.0-112.0-0.0"}}, {"uniqueid": "MTK0455:3TXD01ZLD5O1VEFTQ60QX5YPX0V4UC", "current_trial": 158, "dateTime": 1510934593181, "trialdata": {"rt": -1000, "stimulus": "/static/audio/400Hz.wav", "key_press": -1, "type": "PRE_RECALL_ALERT", "trial_type": "single-audio", "trial_index": 158, "time_elapsed": 822643, "internal_node_id": "0.0-113.0"}}, {"uniqueid": "MTK0455:3TXD01ZLD5O1VEFTQ60QX5YPX0V4UC", "current_trial": 159, "dateTime": 1510934653184, "trialdata": {"rt": [2059, 3371, 5531, 7467, 9508, 14308, 19059, 24251, 28660], "recwords": ["staple", "scarf", "dashboard", "lightning", "donkey", "dress", "mailman", "victim", "virus"], "type": "FREE_RECALL", "conditions": [12, 800, "v", 12000], "trial": 4, "trial_type": "free-recall", "trial_index": 159, "time_elapsed": 882643, "internal_node_id": "0.0-114.0-0.0"}}, {"uniqueid": "MTK0455:3TXD01ZLD5O1VEFTQ60QX5YPX0V4UC", "current_trial": 160, "dateTime": 1510934656362, "trialdata": {"rt": 1177, "key_press": 75, "type": "INSTRUCTIONS", "trial_type": "text", "trial_index": 160, "time_elapsed": 885824, "internal_node_id": "0.0-115.0"}}, {"uniqueid": "MTK0455:3TXD01ZLD5O1VEFTQ60QX5YPX0V4UC", "current_trial": 161, "dateTime": 1510934670363, "trialdata": {"rt": [2989, 6133, 7661, 9437, 11245], "responses": ["22", "24", "15", "12", "10"], "num1": [7, 9, 6, 6, 5, 7], "num2": [8, 6, 2, 2, 4, 7], "num3": [7, 9, 7, 5, 1, 2], "type": "DISTRACTOR", "conditions": [24, 1600, "a", 12000], "trial": 5, "trial_type": "math-distractor", "trial_index": 161, "time_elapsed": 899825, "internal_node_id": "0.0-116.0"}}, {"uniqueid": "MTK0455:3TXD01ZLD5O1VEFTQ60QX5YPX0V4UC", "current_trial": 162, "dateTime": 1510934673363, "trialdata": {"rt": -1, "stimulus": "<p id=\"stim\">10</p>", "key_press": -1, "trial_type": "single-stim", "trial_index": 162, "time_elapsed": 902825, "internal_node_id": "0.0-117.0-0.0"}}, {"uniqueid": "MTK0455:3TXD01ZLD5O1VEFTQ60QX5YPX0V4UC", "current_trial": 163, "dateTime": 1510934674363, "trialdata": {"rt": -1, "stimulus": "<p id=\"stim\">9</p>", "key_press": -1, "trial_type": "single-stim", "trial_index": 163, "time_elapsed": 903825, "internal_node_id": "0.0-117.0-1.0"}}, {"uniqueid": "MTK0455:3TXD01ZLD5O1VEFTQ60QX5YPX0V4UC", "current_trial": 164, "dateTime": 1510934675363, "trialdata": {"rt": -1, "stimulus": "<p id=\"stim\">8</p>", "key_press": -1, "trial_type": "single-stim", "trial_index": 164, "time_elapsed": 904825, "internal_node_id": "0.0-117.0-2.0"}}, {"uniqueid": "MTK0455:3TXD01ZLD5O1VEFTQ60QX5YPX0V4UC", "current_trial": 165, "dateTime": 1510934676363, "trialdata": {"rt": -1, "stimulus": "<p id=\"stim\">7</p>", "key_press": -1, "trial_type": "single-stim", "trial_index": 165, "time_elapsed": 905825, "internal_node_id": "0.0-117.0-3.0"}}, {"uniqueid": "MTK0455:3TXD01ZLD5O1VEFTQ60QX5YPX0V4UC", "current_trial": 166, "dateTime": 1510934677363, "trialdata": {"rt": -1, "stimulus": "<p id=\"stim\">6</p>", "key_press": -1, "trial_type": "single-stim", "trial_index": 166, "time_elapsed": 906825, "internal_node_id": "0.0-117.0-4.0"}}, {"uniqueid": "MTK0455:3TXD01ZLD5O1VEFTQ60QX5YPX0V4UC", "current_trial": 167, "dateTime": 1510934678363, "trialdata": {"rt": -1, "stimulus": "<p id=\"stim\">5</p>", "key_press": -1, "trial_type": "single-stim", "trial_index": 167, "time_elapsed": 907825, "internal_node_id": "0.0-117.0-5.0"}}, {"uniqueid": "MTK0455:3TXD01ZLD5O1VEFTQ60QX5YPX0V4UC", "current_trial": 168, "dateTime": 1510934679363, "trialdata": {"rt": -1, "stimulus": "<p id=\"stim\">4</p>", "key_press": -1, "trial_type": "single-stim", "trial_index": 168, "time_elapsed": 908825, "internal_node_id": "0.0-117.0-6.0"}}, {"uniqueid": "MTK0455:3TXD01ZLD5O1VEFTQ60QX5YPX0V4UC", "current_trial": 169, "dateTime": 1510934680365, "trialdata": {"rt": -1, "stimulus": "<p id=\"stim\">3</p>", "key_press": -1, "trial_type": "single-stim", "trial_index": 169, "time_elapsed": 909825, "internal_node_id": "0.0-117.0-7.0"}}, {"uniqueid": "MTK0455:3TXD01ZLD5O1VEFTQ60QX5YPX0V4UC", "current_trial": 170, "dateTime": 1510934681365, "trialdata": {"rt": -1, "stimulus": "<p id=\"stim\">2</p>", "key_press": -1, "trial_type": "single-stim", "trial_index": 170, "time_elapsed": 910827, "internal_node_id": "0.0-117.0-8.0"}}, {"uniqueid": "MTK0455:3TXD01ZLD5O1VEFTQ60QX5YPX0V4UC", "current_trial": 171, "dateTime": 1510934682366, "trialdata": {"rt": -1, "stimulus": "<p id=\"stim\">1</p>", "key_press": -1, "trial_type": "single-stim", "trial_index": 171, "time_elapsed": 911828, "internal_node_id": "0.0-117.0-9.0"}}, {"uniqueid": "MTK0455:3TXD01ZLD5O1VEFTQ60QX5YPX0V4UC", "current_trial": 172, "dateTime": 1510934683867, "trialdata": {"rt": -1, "stimulus": "<p id=\"stim\">+</p>", "key_press": -1, "type": "FIXATION", "trial_type": "single-stim", "trial_index": 172, "time_elapsed": 913329, "internal_node_id": "0.0-118.0-0.0"}}, {"uniqueid": "MTK0455:3TXD01ZLD5O1VEFTQ60QX5YPX0V4UC", "current_trial": 173, "dateTime": 1510934686595, "trialdata": {"rt": -1000, "stimulus": "/static/audio/wordpool/PIANO.wav", "key_press": -1, "type": "PRES_AUD", "word": "piano", "wordID": 1056, "conditions": [24, 1600, "a", 12000], "trial": 5, "serialpos": 0, "trial_type": "single-audio", "trial_index": 173, "time_elapsed": 916057, "internal_node_id": "0.0-119.0"}}, {"uniqueid": "MTK0455:3TXD01ZLD5O1VEFTQ60QX5YPX0V4UC", "current_trial": 174, "dateTime": 1510934689274, "trialdata": {"rt": -1000, "stimulus": "/static/audio/wordpool/LETTUCE.wav", "key_press": -1, "type": "PRES_AUD", "word": "lettuce", "wordID": 813, "conditions": [24, 1600, "a", 12000], "trial": 5, "serialpos": 1, "trial_type": "single-audio", "trial_index": 174, "time_elapsed": 918736, "internal_node_id": "0.0-120.0"}}, {"uniqueid": "MTK0455:3TXD01ZLD5O1VEFTQ60QX5YPX0V4UC", "current_trial": 175, "dateTime": 1510934691978, "trialdata": {"rt": -1000, "stimulus": "/static/audio/wordpool/FRUIT.wav", "key_press": -1, "type": "PRES_AUD", "word": "fruit", "wordID": 609, "conditions": [24, 1600, "a", 12000], "trial": 5, "serialpos": 2, "trial_type": "single-audio", "trial_index": 175, "time_elapsed": 921440, "internal_node_id": "0.0-121.0"}}, {"uniqueid": "MTK0455:3TXD01ZLD5O1VEFTQ60QX5YPX0V4UC", "current_trial": 176, "dateTime": 1510934694557, "trialdata": {"rt": -1000, "stimulus": "/static/audio/wordpool/MAILBOX.wav", "key_press": -1, "type": "PRES_AUD", "word": "mailbox", "wordID": 856, "conditions": [24, 1600, "a", 12000], "trial": 5, "serialpos": 3, "trial_type": "single-audio", "trial_index": 176, "time_elapsed": 924019, "internal_node_id": "0.0-122.0"}}, {"uniqueid": "MTK0455:3TXD01ZLD5O1VEFTQ60QX5YPX0V4UC", "current_trial": 177, "dateTime": 1510934696997, "trialdata": {"rt": -1000, "stimulus": "/static/audio/wordpool/ANTLER.wav", "key_press": -1, "type": "PRES_AUD", "word": "antler", "wordID": 28, "conditions": [24, 1600, "a", 12000], "trial": 5, "serialpos": 4, "trial_type": "single-audio", "trial_index": 177, "time_elapsed": 926459, "internal_node_id": "0.0-123.0"}}, {"uniqueid": "MTK0455:3TXD01ZLD5O1VEFTQ60QX5YPX0V4UC", "current_trial": 178, "dateTime": 1510934699616, "trialdata": {"rt": -1000, "stimulus": "/static/audio/wordpool/BANJO.wav", "key_press": -1, "type": "PRES_AUD", "word": "banjo", "wordID": 81, "conditions": [24, 1600, "a", 12000], "trial": 5, "serialpos": 5, "trial_type": "single-audio", "trial_index": 178, "time_elapsed": 929078, "internal_node_id": "0.0-124.0"}}, {"uniqueid": "MTK0455:3TXD01ZLD5O1VEFTQ60QX5YPX0V4UC", "current_trial": 179, "dateTime": 1510934702360, "trialdata": {"rt": -1000, "stimulus": "/static/audio/wordpool/GUITAR.wav", "key_press": -1, "type": "PRES_AUD", "word": "guitar", "wordID": 669, "conditions": [24, 1600, "a", 12000], "trial": 5, "serialpos": 6, "trial_type": "single-audio", "trial_index": 179, "time_elapsed": 931822, "internal_node_id": "0.0-125.0"}}, {"uniqueid": "MTK0455:3TXD01ZLD5O1VEFTQ60QX5YPX0V4UC", "current_trial": 180, "dateTime": 1510934705007, "trialdata": {"rt": -1000, "stimulus": "/static/audio/wordpool/MISSILE.wav", "key_press": -1, "type": "PRES_AUD", "word": "missile", "wordID": 899, "conditions": [24, 1600, "a", 12000], "trial": 5, "serialpos": 7, "trial_type": "single-audio", "trial_index": 180, "time_elapsed": 934469, "internal_node_id": "0.0-126.0"}}, {"uniqueid": "MTK0455:3TXD01ZLD5O1VEFTQ60QX5YPX0V4UC", "current_trial": 181, "dateTime": 1510934707652, "trialdata": {"rt": -1000, "stimulus": "/static/audio/wordpool/LADY.wav", "key_press": -1, "type": "PRES_AUD", "word": "lady", "wordID": 793, "conditions": [24, 1600, "a", 12000], "trial": 5, "serialpos": 8, "trial_type": "single-audio", "trial_index": 181, "time_elapsed": 937114, "internal_node_id": "0.0-127.0"}}, {"uniqueid": "MTK0455:3TXD01ZLD5O1VEFTQ60QX5YPX0V4UC", "current_trial": 182, "dateTime": 1510934710427, "trialdata": {"rt": -1000, "stimulus": "/static/audio/wordpool/SEAL.wav", "key_press": -1, "type": "PRES_AUD", "word": "seal", "wordID": 1261, "conditions": [24, 1600, "a", 12000], "trial": 5, "serialpos": 9, "trial_type": "single-audio", "trial_index": 182, "time_elapsed": 939889, "internal_node_id": "0.0-128.0"}}, {"uniqueid": "MTK0455:3TXD01ZLD5O1VEFTQ60QX5YPX0V4UC", "current_trial": 183, "dateTime": 1510934713088, "trialdata": {"rt": -1000, "stimulus": "/static/audio/wordpool/BRANDY.wav", "key_press": -1, "type": "PRES_AUD", "word": "brandy", "wordID": 168, "conditions": [24, 1600, "a", 12000], "trial": 5, "serialpos": 10, "trial_type": "single-audio", "trial_index": 183, "time_elapsed": 942550, "internal_node_id": "0.0-129.0"}}, {"uniqueid": "MTK0455:3TXD01ZLD5O1VEFTQ60QX5YPX0V4UC", "current_trial": 184, "dateTime": 1510934715773, "trialdata": {"rt": -1000, "stimulus": "/static/audio/wordpool/WOMAN.wav", "key_press": -1, "type": "PRES_AUD", "word": "woman", "wordID": 1619, "conditions": [24, 1600, "a", 12000], "trial": 5, "serialpos": 11, "trial_type": "single-audio", "trial_index": 184, "time_elapsed": 945235, "internal_node_id": "0.0-130.0"}}, {"uniqueid": "MTK0455:3TXD01ZLD5O1VEFTQ60QX5YPX0V4UC", "current_trial": 185, "dateTime": 1510934718297, "trialdata": {"rt": -1000, "stimulus": "/static/audio/wordpool/POCKET.wav", "key_press": -1, "type": "PRES_AUD", "word": "pocket", "wordID": 1092, "conditions": [24, 1600, "a", 12000], "trial": 5, "serialpos": 12, "trial_type": "single-audio", "trial_index": 185, "time_elapsed": 947759, "internal_node_id": "0.0-131.0"}}, {"uniqueid": "MTK0455:3TXD01ZLD5O1VEFTQ60QX5YPX0V4UC", "current_trial": 186, "dateTime": 1510934720876, "trialdata": {"rt": -1000, "stimulus": "/static/audio/wordpool/TEACHER.wav", "key_press": -1, "type": "PRES_AUD", "word": "teacher", "wordID": 1439, "conditions": [24, 1600, "a", 12000], "trial": 5, "serialpos": 13, "trial_type": "single-audio", "trial_index": 186, "time_elapsed": 950338, "internal_node_id": "0.0-132.0"}}, {"uniqueid": "MTK0455:3TXD01ZLD5O1VEFTQ60QX5YPX0V4UC", "current_trial": 187, "dateTime": 1510934723569, "trialdata": {"rt": -1000, "stimulus": "/static/audio/wordpool/ROBBER.wav", "key_press": -1, "type": "PRES_AUD", "word": "robber", "wordID": 1196, "conditions": [24, 1600, "a", 12000], "trial": 5, "serialpos": 14, "trial_type": "single-audio", "trial_index": 187, "time_elapsed": 953031, "internal_node_id": "0.0-133.0"}}, {"uniqueid": "MTK0455:3TXD01ZLD5O1VEFTQ60QX5YPX0V4UC", "current_trial": 188, "dateTime": 1510934726237, "trialdata": {"rt": -1000, "stimulus": "/static/audio/wordpool/SUSPECT.wav", "key_press": -1, "type": "PRES_AUD", "word": "suspect", "wordID": 1414, "conditions": [24, 1600, "a", 12000], "trial": 5, "serialpos": 15, "trial_type": "single-audio", "trial_index": 188, "time_elapsed": 955699, "internal_node_id": "0.0-134.0"}}, {"uniqueid": "MTK0455:3TXD01ZLD5O1VEFTQ60QX5YPX0V4UC", "current_trial": 189, "dateTime": 1510934728675, "trialdata": {"rt": -1000, "stimulus": "/static/audio/wordpool/UMPIRE.wav", "key_press": -1, "type": "PRES_AUD", "word": "umpire", "wordID": 1534, "conditions": [24, 1600, "a", 12000], "trial": 5, "serialpos": 16, "trial_type": "single-audio", "trial_index": 189, "time_elapsed": 958137, "internal_node_id": "0.0-135.0"}}, {"uniqueid": "MTK0455:3TXD01ZLD5O1VEFTQ60QX5YPX0V4UC", "current_trial": 190, "dateTime": 1510934731331, "trialdata": {"rt": -1000, "stimulus": "/static/audio/wordpool/FLAG.wav", "key_press": -1, "type": "PRES_AUD", "word": "flag", "wordID": 572, "conditions": [24, 1600, "a", 12000], "trial": 5, "serialpos": 17, "trial_type": "single-audio", "trial_index": 190, "time_elapsed": 960793, "internal_node_id": "0.0-136.0"}}, {"uniqueid": "MTK0455:3TXD01ZLD5O1VEFTQ60QX5YPX0V4UC", "current_trial": 191, "dateTime": 1510934734067, "trialdata": {"rt": -1000, "stimulus": "/static/audio/wordpool/BLOUSE.wav", "key_press": -1, "type": "PRES_AUD", "word": "blouse", "wordID": 138, "conditions": [24, 1600, "a", 12000], "trial": 5, "serialpos": 18, "trial_type": "single-audio", "trial_index": 191, "time_elapsed": 963529, "internal_node_id": "0.0-137.0"}}, {"uniqueid": "MTK0455:3TXD01ZLD5O1VEFTQ60QX5YPX0V4UC", "current_trial": 192, "dateTime": 1510934736548, "trialdata": {"rt": -1000, "stimulus": "/static/audio/wordpool/DRINK.wav", "key_press": -1, "type": "PRES_AUD", "word": "drink", "wordID": 497, "conditions": [24, 1600, "a", 12000], "trial": 5, "serialpos": 19, "trial_type": "single-audio", "trial_index": 192, "time_elapsed": 966010, "internal_node_id": "0.0-138.0"}}, {"uniqueid": "MTK0455:3TXD01ZLD5O1VEFTQ60QX5YPX0V4UC", "current_trial": 193, "dateTime": 1510934738997, "trialdata": {"rt": -1000, "stimulus": "/static/audio/wordpool/CHEMIST.wav", "key_press": -1, "type": "PRES_AUD", "word": "chemist", "wordID": 291, "conditions": [24, 1600, "a", 12000], "trial": 5, "serialpos": 20, "trial_type": "single-audio", "trial_index": 193, "time_elapsed": 968459, "internal_node_id": "0.0-139.0"}}, {"uniqueid": "MTK0455:3TXD01ZLD5O1VEFTQ60QX5YPX0V4UC", "current_trial": 194, "dateTime": 1510934741747, "trialdata": {"rt": -1000, "stimulus": "/static/audio/wordpool/BREAST.wav", "key_press": -1, "type": "PRES_AUD", "word": "breast", "wordID": 170, "conditions": [24, 1600, "a", 12000], "trial": 5, "serialpos": 21, "trial_type": "single-audio", "trial_index": 194, "time_elapsed": 971209, "internal_node_id": "0.0-140.0"}}, {"uniqueid": "MTK0455:3TXD01ZLD5O1VEFTQ60QX5YPX0V4UC", "current_trial": 195, "dateTime": 1510934744262, "trialdata": {"rt": -1000, "stimulus": "/static/audio/wordpool/BISON.wav", "key_press": -1, "type": "PRES_AUD", "word": "bison", "wordID": 130, "conditions": [24, 1600, "a", 12000], "trial": 5, "serialpos": 22, "trial_type": "single-audio", "trial_index": 195, "time_elapsed": 973724, "internal_node_id": "0.0-141.0"}}, {"uniqueid": "MTK0455:3TXD01ZLD5O1VEFTQ60QX5YPX0V4UC", "current_trial": 196, "dateTime": 1510934746807, "trialdata": {"rt": -1000, "stimulus": "/static/audio/wordpool/STUDENT.wav", "key_press": -1, "type": "PRES_AUD", "word": "student", "wordID": 1394, "conditions": [24, 1600, "a", 12000], "trial": 5, "serialpos": 23, "trial_type": "single-audio", "trial_index": 196, "time_elapsed": 976268, "internal_node_id": "0.0-142.0"}}, {"uniqueid": "MTK0455:3TXD01ZLD5O1VEFTQ60QX5YPX0V4UC", "current_trial": 197, "dateTime": 1510934748154, "trialdata": {"rt": -1, "stimulus": "", "key_press": -1, "type": "PRE_RECALL_DELAY", "trial_type": "single-stim", "trial_index": 197, "time_elapsed": 977616, "internal_node_id": "0.0-143.0-0.0"}}, {"uniqueid": "MTK0455:3TXD01ZLD5O1VEFTQ60QX5YPX0V4UC", "current_trial": 198, "dateTime": 1510934748655, "trialdata": {"rt": -1000, "stimulus": "/static/audio/400Hz.wav", "key_press": -1, "type": "PRE_RECALL_ALERT", "trial_type": "single-audio", "trial_index": 198, "time_elapsed": 978117, "internal_node_id": "0.0-144.0"}}, {"uniqueid": "MTK0455:3TXD01ZLD5O1VEFTQ60QX5YPX0V4UC", "current_trial": 199, "dateTime": 1510934808661, "trialdata": {"rt": [2713, 3914, 5720, 7280, 8656, 10161, 11313, 15417, 17552, 23920, 35552, 37217, 43856, 46625, 47857, 49169, 52849, 58144], "recwords": ["student", "bison", "breast", "woman", "lady", "suspect", "robber", "blouse", "dress", "mailbox", "jail", "student", "brandy", "bison", "guitar", "piano", "banjo", "thread"], "type": "FREE_RECALL", "conditions": [24, 1600, "a", 12000], "trial": 5, "trial_type": "free-recall", "trial_index": 199, "time_elapsed": 1038118, "internal_node_id": "0.0-145.0-0.0"}}, {"uniqueid": "MTK0455:3TXD01ZLD5O1VEFTQ60QX5YPX0V4UC", "current_trial": 200, "dateTime": 1510934812657, "trialdata": {"rt": 1995, "key_press": 101, "type": "INSTRUCTIONS", "trial_type": "text", "trial_index": 200, "time_elapsed": 1042119, "internal_node_id": "0.0-146.0"}}, {"uniqueid": "MTK0455:3TXD01ZLD5O1VEFTQ60QX5YPX0V4UC", "current_trial": 201, "dateTime": 1510934826659, "trialdata": {"rt": [3054, 5494, 6861, 8373, 9869, 11509], "responses": ["20", "17", "13", "13", "12", "14"], "num1": [8, 8, 5, 5, 5, 4, 8], "num2": [5, 4, 6, 1, 4, 2, 4], "num3": [7, 5, 2, 7, 3, 8, 1], "type": "DISTRACTOR", "conditions": [12, 800, "a", 12000], "trial": 6, "trial_type": "math-distractor", "trial_index": 201, "time_elapsed": 1056121, "internal_node_id": "0.0-147.0"}}, {"uniqueid": "MTK0455:3TXD01ZLD5O1VEFTQ60QX5YPX0V4UC", "current_trial": 202, "dateTime": 1510934829659, "trialdata": {"rt": -1, "stimulus": "<p id=\"stim\">10</p>", "key_press": -1, "trial_type": "single-stim", "trial_index": 202, "time_elapsed": 1059121, "internal_node_id": "0.0-148.0-0.0"}}, {"uniqueid": "MTK0455:3TXD01ZLD5O1VEFTQ60QX5YPX0V4UC", "current_trial": 203, "dateTime": 1510934830659, "trialdata": {"rt": -1, "stimulus": "<p id=\"stim\">9</p>", "key_press": -1, "trial_type": "single-stim", "trial_index": 203, "time_elapsed": 1060121, "internal_node_id": "0.0-148.0-1.0"}}, {"uniqueid": "MTK0455:3TXD01ZLD5O1VEFTQ60QX5YPX0V4UC", "current_trial": 204, "dateTime": 1510934831659, "trialdata": {"rt": -1, "stimulus": "<p id=\"stim\">8</p>", "key_press": -1, "trial_type": "single-stim", "trial_index": 204, "time_elapsed": 1061121, "internal_node_id": "0.0-148.0-2.0"}}, {"uniqueid": "MTK0455:3TXD01ZLD5O1VEFTQ60QX5YPX0V4UC", "current_trial": 205, "dateTime": 1510934832660, "trialdata": {"rt": -1, "stimulus": "<p id=\"stim\">7</p>", "key_press": -1, "trial_type": "single-stim", "trial_index": 205, "time_elapsed": 1062122, "internal_node_id": "0.0-148.0-3.0"}}, {"uniqueid": "MTK0455:3TXD01ZLD5O1VEFTQ60QX5YPX0V4UC", "current_trial": 206, "dateTime": 1510934833660, "trialdata": {"rt": -1, "stimulus": "<p id=\"stim\">6</p>", "key_press": -1, "trial_type": "single-stim", "trial_index": 206, "time_elapsed": 1063122, "internal_node_id": "0.0-148.0-4.0"}}, {"uniqueid": "MTK0455:3TXD01ZLD5O1VEFTQ60QX5YPX0V4UC", "current_trial": 207, "dateTime": 1510934834660, "trialdata": {"rt": -1, "stimulus": "<p id=\"stim\">5</p>", "key_press": -1, "trial_type": "single-stim", "trial_index": 207, "time_elapsed": 1064122, "internal_node_id": "0.0-148.0-5.0"}}, {"uniqueid": "MTK0455:3TXD01ZLD5O1VEFTQ60QX5YPX0V4UC", "current_trial": 208, "dateTime": 1510934835660, "trialdata": {"rt": -1, "stimulus": "<p id=\"stim\">4</p>", "key_press": -1, "trial_type": "single-stim", "trial_index": 208, "time_elapsed": 1065122, "internal_node_id": "0.0-148.0-6.0"}}, {"uniqueid": "MTK0455:3TXD01ZLD5O1VEFTQ60QX5YPX0V4UC", "current_trial": 209, "dateTime": 1510934836660, "trialdata": {"rt": -1, "stimulus": "<p id=\"stim\">3</p>", "key_press": -1, "trial_type": "single-stim", "trial_index": 209, "time_elapsed": 1066122, "internal_node_id": "0.0-148.0-7.0"}}, {"uniqueid": "MTK0455:3TXD01ZLD5O1VEFTQ60QX5YPX0V4UC", "current_trial": 210, "dateTime": 1510934837660, "trialdata": {"rt": -1, "stimulus": "<p id=\"stim\">2</p>", "key_press": -1, "trial_type": "single-stim", "trial_index": 210, "time_elapsed": 1067122, "internal_node_id": "0.0-148.0-8.0"}}, {"uniqueid": "MTK0455:3TXD01ZLD5O1VEFTQ60QX5YPX0V4UC", "current_trial": 211, "dateTime": 1510934838660, "trialdata": {"rt": -1, "stimulus": "<p id=\"stim\">1</p>", "key_press": -1, "trial_type": "single-stim", "trial_index": 211, "time_elapsed": 1068122, "internal_node_id": "0.0-148.0-9.0"}}, {"uniqueid": "MTK0455:3TXD01ZLD5O1VEFTQ60QX5YPX0V4UC", "current_trial": 212, "dateTime": 1510934840160, "trialdata": {"rt": -1, "stimulus": "<p id=\"stim\">+</p>", "key_press": -1, "type": "FIXATION", "trial_type": "single-stim", "trial_index": 212, "time_elapsed": 1069622, "internal_node_id": "0.0-149.0-0.0"}}, {"uniqueid": "MTK0455:3TXD01ZLD5O1VEFTQ60QX5YPX0V4UC", "current_trial": 213, "dateTime": 1510934841825, "trialdata": {"rt": -1000, "stimulus": "/static/audio/wordpool/FINGER.wav", "key_press": -1, "type": "PRES_AUD", "word": "finger", "wordID": 566, "conditions": [12, 800, "a", 12000], "trial": 6, "serialpos": 0, "trial_type": "single-audio", "trial_index": 213, "time_elapsed": 1071287, "internal_node_id": "0.0-150.0"}}, {"uniqueid": "MTK0455:3TXD01ZLD5O1VEFTQ60QX5YPX0V4UC", "current_trial": 214, "dateTime": 1510934843478, "trialdata": {"rt": -1000, "stimulus": "/static/audio/wordpool/CHEST.wav", "key_press": -1, "type": "PRES_AUD", "word": "chest", "wordID": 294, "conditions": [12, 800, "a", 12000], "trial": 6, "serialpos": 1, "trial_type": "single-audio", "trial_index": 214, "time_elapsed": 1072940, "internal_node_id": "0.0-151.0"}}, {"uniqueid": "MTK0455:3TXD01ZLD5O1VEFTQ60QX5YPX0V4UC", "current_trial": 215, "dateTime": 1510934845385, "trialdata": {"rt": -1000, "stimulus": "/static/audio/wordpool/PISTON.wav", "key_press": -1, "type": "PRES_AUD", "word": "piston", "wordID": 1075, "conditions": [12, 800, "a", 12000], "trial": 6, "serialpos": 2, "trial_type": "single-audio", "trial_index": 215, "time_elapsed": 1074847, "internal_node_id": "0.0-152.0"}}, {"uniqueid": "MTK0455:3TXD01ZLD5O1VEFTQ60QX5YPX0V4UC", "current_trial": 216, "dateTime": 1510934847110, "trialdata": {"rt": -1000, "stimulus": "/static/audio/wordpool/SISTER.wav", "key_press": -1, "type": "PRES_AUD", "word": "sister", "wordID": 1311, "conditions": [12, 800, "a", 12000], "trial": 6, "serialpos": 3, "trial_type": "single-audio", "trial_index": 216, "time_elapsed": 1076572, "internal_node_id": "0.0-153.0"}}, {"uniqueid": "MTK0455:3TXD01ZLD5O1VEFTQ60QX5YPX0V4UC", "current_trial": 217, "dateTime": 1510934848865, "trialdata": {"rt": -1000, "stimulus": "/static/audio/wordpool/SIBLING.wav", "key_press": -1, "type": "PRES_AUD", "word": "sibling", "wordID": 1300, "conditions": [12, 800, "a", 12000], "trial": 6, "serialpos": 4, "trial_type": "single-audio", "trial_index": 217, "time_elapsed": 1078327, "internal_node_id": "0.0-154.0"}}, {"uniqueid": "MTK0455:3TXD01ZLD5O1VEFTQ60QX5YPX0V4UC", "current_trial": 218, "dateTime": 1510934850714, "trialdata": {"rt": -1000, "stimulus": "/static/audio/wordpool/COCOON.wav", "key_press": -1, "type": "PRES_AUD", "word": "cocoon", "wordID": 338, "conditions": [12, 800, "a", 12000], "trial": 6, "serialpos": 5, "trial_type": "single-audio", "trial_index": 218, "time_elapsed": 1080176, "internal_node_id": "0.0-155.0"}}, {"uniqueid": "MTK0455:3TXD01ZLD5O1VEFTQ60QX5YPX0V4UC", "current_trial": 219, "dateTime": 1510934852396, "trialdata": {"rt": -1000, "stimulus": "/static/audio/wordpool/COTTAGE.wav", "key_press": -1, "type": "PRES_AUD", "word": "cottage", "wordID": 383, "conditions": [12, 800, "a", 12000], "trial": 6, "serialpos": 6, "trial_type": "single-audio", "trial_index": 219, "time_elapsed": 1081858, "internal_node_id": "0.0-156.0"}}, {"uniqueid": "MTK0455:3TXD01ZLD5O1VEFTQ60QX5YPX0V4UC", "current_trial": 220, "dateTime": 1510934854264, "trialdata": {"rt": -1000, "stimulus": "/static/audio/wordpool/SALT.wav", "key_press": -1, "type": "PRES_AUD", "word": "salt", "wordID": 1228, "conditions": [12, 800, "a", 12000], "trial": 6, "serialpos": 7, "trial_type": "single-audio", "trial_index": 220, "time_elapsed": 1083726, "internal_node_id": "0.0-157.0"}}, {"uniqueid": "MTK0455:3TXD01ZLD5O1VEFTQ60QX5YPX0V4UC", "current_trial": 221, "dateTime": 1510934856212, "trialdata": {"rt": -1000, "stimulus": "/static/audio/wordpool/STOMACH.wav", "key_press": -1, "type": "PRES_AUD", "word": "stomach", "wordID": 1383, "conditions": [12, 800, "a", 12000], "trial": 6, "serialpos": 8, "trial_type": "single-audio", "trial_index": 221, "time_elapsed": 1085674, "internal_node_id": "0.0-158.0"}}, {"uniqueid": "MTK0455:3TXD01ZLD5O1VEFTQ60QX5YPX0V4UC", "current_trial": 222, "dateTime": 1510934858016, "trialdata": {"rt": -1000, "stimulus": "/static/audio/wordpool/CASKET.wav", "key_press": -1, "type": "PRES_AUD", "word": "casket", "wordID": 254, "conditions": [12, 800, "a", 12000], "trial": 6, "serialpos": 9, "trial_type": "single-audio", "trial_index": 222, "time_elapsed": 1087478, "internal_node_id": "0.0-159.0"}}, {"uniqueid": "MTK0455:3TXD01ZLD5O1VEFTQ60QX5YPX0V4UC", "current_trial": 223, "dateTime": 1510934859713, "trialdata": {"rt": -1000, "stimulus": "/static/audio/wordpool/COMPASS.wav", "key_press": -1, "type": "PRES_AUD", "word": "compass", "wordID": 357, "conditions": [12, 800, "a", 12000], "trial": 6, "serialpos": 10, "trial_type": "single-audio", "trial_index": 223, "time_elapsed": 1089175, "internal_node_id": "0.0-160.0"}}, {"uniqueid": "MTK0455:3TXD01ZLD5O1VEFTQ60QX5YPX0V4UC", "current_trial": 224, "dateTime": 1510934861458, "trialdata": {"rt": -1000, "stimulus": "/static/audio/wordpool/NEUTRON.wav", "key_press": -1, "type": "PRES_AUD", "word": "neutron", "wordID": 946, "conditions": [12, 800, "a", 12000], "trial": 6, "serialpos": 11, "trial_type": "single-audio", "trial_index": 224, "time_elapsed": 1090920, "internal_node_id": "0.0-161.0"}}, {"uniqueid": "MTK0455:3TXD01ZLD5O1VEFTQ60QX5YPX0V4UC", "current_trial": 225, "dateTime": 1510934862668, "trialdata": {"rt": -1, "stimulus": "", "key_press": -1, "type": "PRE_RECALL_DELAY", "trial_type": "single-stim", "trial_index": 225, "time_elapsed": 1092130, "internal_node_id": "0.0-162.0-0.0"}}, {"uniqueid": "MTK0455:3TXD01ZLD5O1VEFTQ60QX5YPX0V4UC", "current_trial": 226, "dateTime": 1510934863168, "trialdata": {"rt": -1000, "stimulus": "/static/audio/400Hz.wav", "key_press": -1, "type": "PRE_RECALL_ALERT", "trial_type": "single-audio", "trial_index": 226, "time_elapsed": 1092630, "internal_node_id": "0.0-163.0"}}, {"uniqueid": "MTK0455:3TXD01ZLD5O1VEFTQ60QX5YPX0V4UC", "current_trial": 227, "dateTime": 1510934923173, "trialdata": {"rt": [2649, 4145, 5977, 7977, 9553, 11313, 14688, 18137, 20345, 27265, 31888, 33888, 53065], "recwords": ["neutron", "compass", "stomach", "chest", "sister", "sibling", "trumpet", "chemist", "student", "robber", "hand", "finger", "drum"], "type": "FREE_RECALL", "conditions": [12, 800, "a", 12000], "trial": 6, "trial_type": "free-recall", "trial_index": 227, "time_elapsed": 1152630, "internal_node_id": "0.0-164.0-0.0"}}, {"uniqueid": "MTK0455:3TXD01ZLD5O1VEFTQ60QX5YPX0V4UC", "current_trial": 228, "dateTime": 1510934927257, "trialdata": {"rt": 2084, "key_press": 101, "type": "INSTRUCTIONS", "trial_type": "text", "trial_index": 228, "time_elapsed": 1156719, "internal_node_id": "0.0-165.0"}}, {"uniqueid": "MTK0455:3TXD01ZLD5O1VEFTQ60QX5YPX0V4UC", "current_trial": 229, "dateTime": 1510934941257, "trialdata": {"rt": [1495, 3047, 4640, 6192, 7425, 9392], "responses": ["16", "15", "13", "12", "14", "21"], "num1": [7, 5, 6, 7, 1, 6, 6], "num2": [3, 8, 1, 4, 9, 7, 5], "num3": [6, 2, 6, 1, 4, 8, 5], "type": "DISTRACTOR", "conditions": [24, 800, "v", 12000], "trial": 7, "trial_type": "math-distractor", "trial_index": 229, "time_elapsed": 1170719, "internal_node_id": "0.0-166.0"}}, {"uniqueid": "MTK0455:3TXD01ZLD5O1VEFTQ60QX5YPX0V4UC", "current_trial": 230, "dateTime": 1510934944257, "trialdata": {"rt": -1, "stimulus": "<p id=\"stim\">10</p>", "key_press": -1, "trial_type": "single-stim", "trial_index": 230, "time_elapsed": 1173719, "internal_node_id": "0.0-167.0-0.0"}}, {"uniqueid": "MTK0455:3TXD01ZLD5O1VEFTQ60QX5YPX0V4UC", "current_trial": 231, "dateTime": 1510934945257, "trialdata": {"rt": -1, "stimulus": "<p id=\"stim\">9</p>", "key_press": -1, "trial_type": "single-stim", "trial_index": 231, "time_elapsed": 1174719, "internal_node_id": "0.0-167.0-1.0"}}, {"uniqueid": "MTK0455:3TXD01ZLD5O1VEFTQ60QX5YPX0V4UC", "current_trial": 232, "dateTime": 1510934946257, "trialdata": {"rt": -1, "stimulus": "<p id=\"stim\">8</p>", "key_press": -1, "trial_type": "single-stim", "trial_index": 232, "time_elapsed": 1175719, "internal_node_id": "0.0-167.0-2.0"}}, {"uniqueid": "MTK0455:3TXD01ZLD5O1VEFTQ60QX5YPX0V4UC", "current_trial": 233, "dateTime": 1510934947257, "trialdata": {"rt": -1, "stimulus": "<p id=\"stim\">7</p>", "key_press": -1, "trial_type": "single-stim", "trial_index": 233, "time_elapsed": 1176719, "internal_node_id": "0.0-167.0-3.0"}}, {"uniqueid": "MTK0455:3TXD01ZLD5O1VEFTQ60QX5YPX0V4UC", "current_trial": 234, "dateTime": 1510934948257, "trialdata": {"rt": -1, "stimulus": "<p id=\"stim\">6</p>", "key_press": -1, "trial_type": "single-stim", "trial_index": 234, "time_elapsed": 1177719, "internal_node_id": "0.0-167.0-4.0"}}, {"uniqueid": "MTK0455:3TXD01ZLD5O1VEFTQ60QX5YPX0V4UC", "current_trial": 235, "dateTime": 1510934949257, "trialdata": {"rt": -1, "stimulus": "<p id=\"stim\">5</p>", "key_press": -1, "trial_type": "single-stim", "trial_index": 235, "time_elapsed": 1178719, "internal_node_id": "0.0-167.0-5.0"}}, {"uniqueid": "MTK0455:3TXD01ZLD5O1VEFTQ60QX5YPX0V4UC", "current_trial": 236, "dateTime": 1510934950257, "trialdata": {"rt": -1, "stimulus": "<p id=\"stim\">4</p>", "key_press": -1, "trial_type": "single-stim", "trial_index": 236, "time_elapsed": 1179719, "internal_node_id": "0.0-167.0-6.0"}}, {"uniqueid": "MTK0455:3TXD01ZLD5O1VEFTQ60QX5YPX0V4UC", "current_trial": 237, "dateTime": 1510934951257, "trialdata": {"rt": -1, "stimulus": "<p id=\"stim\">3</p>", "key_press": -1, "trial_type": "single-stim", "trial_index": 237, "time_elapsed": 1180719, "internal_node_id": "0.0-167.0-7.0"}}, {"uniqueid": "MTK0455:3TXD01ZLD5O1VEFTQ60QX5YPX0V4UC", "current_trial": 238, "dateTime": 1510934952257, "trialdata": {"rt": -1, "stimulus": "<p id=\"stim\">2</p>", "key_press": -1, "trial_type": "single-stim", "trial_index": 238, "time_elapsed": 1181719, "internal_node_id": "0.0-167.0-8.0"}}, {"uniqueid": "MTK0455:3TXD01ZLD5O1VEFTQ60QX5YPX0V4UC", "current_trial": 239, "dateTime": 1510934953257, "trialdata": {"rt": -1, "stimulus": "<p id=\"stim\">1</p>", "key_press": -1, "trial_type": "single-stim", "trial_index": 239, "time_elapsed": 1182719, "internal_node_id": "0.0-167.0-9.0"}}, {"uniqueid": "MTK0455:3TXD01ZLD5O1VEFTQ60QX5YPX0V4UC", "current_trial": 240, "dateTime": 1510934954757, "trialdata": {"rt": -1, "stimulus": "<p id=\"stim\">+</p>", "key_press": -1, "type": "FIXATION", "trial_type": "single-stim", "trial_index": 240, "time_elapsed": 1184219, "internal_node_id": "0.0-168.0-0.0"}}, {"uniqueid": "MTK0455:3TXD01ZLD5O1VEFTQ60QX5YPX0V4UC", "current_trial": 241, "dateTime": 1510934955557, "trialdata": {"rt": -1, "stimulus": "<p id=\"stim\">SKILLET</p>", "key_press": -1, "type": "PRES_VIS", "word": "skillet", "wordID": 1316, "conditions": [24, 800, "v", 12000], "trial": 7, "serialpos": 0, "trial_type": "single-stim", "trial_index": 241, "time_elapsed": 1185019, "internal_node_id": "0.0-169.0"}}, {"uniqueid": "MTK0455:3TXD01ZLD5O1VEFTQ60QX5YPX0V4UC", "current_trial": 242, "dateTime": 1510934957227, "trialdata": {"rt": -1, "stimulus": "<p id=\"stim\">BOUQUET</p>", "key_press": -1, "type": "PRES_VIS", "word": "bouquet", "wordID": 156, "conditions": [24, 800, "v", 12000], "trial": 7, "serialpos": 1, "trial_type": "single-stim", "trial_index": 242, "time_elapsed": 1186689, "internal_node_id": "0.0-170.0"}}, {"uniqueid": "MTK0455:3TXD01ZLD5O1VEFTQ60QX5YPX0V4UC", "current_trial": 243, "dateTime": 1510934958839, "trialdata": {"rt": -1, "stimulus": "<p id=\"stim\">POPCORN</p>", "key_press": -1, "type": "PRES_VIS", "word": "popcorn", "wordID": 1103, "conditions": [24, 800, "v", 12000], "trial": 7, "serialpos": 2, "trial_type": "single-stim", "trial_index": 243, "time_elapsed": 1188301, "internal_node_id": "0.0-171.0"}}, {"uniqueid": "MTK0455:3TXD01ZLD5O1VEFTQ60QX5YPX0V4UC", "current_trial": 244, "dateTime": 1510934960690, "trialdata": {"rt": -1, "stimulus": "<p id=\"stim\">COUCH</p>", "key_press": -1, "type": "PRES_VIS", "word": "couch", "wordID": 385, "conditions": [24, 800, "v", 12000], "trial": 7, "serialpos": 3, "trial_type": "single-stim", "trial_index": 244, "time_elapsed": 1190152, "internal_node_id": "0.0-172.0"}}, {"uniqueid": "MTK0455:3TXD01ZLD5O1VEFTQ60QX5YPX0V4UC", "current_trial": 245, "dateTime": 1510934962602, "trialdata": {"rt": -1, "stimulus": "<p id=\"stim\">PEBBLE</p>", "key_press": -1, "type": "PRES_VIS", "word": "pebble", "wordID": 1034, "conditions": [24, 800, "v", 12000], "trial": 7, "serialpos": 4, "trial_type": "single-stim", "trial_index": 245, "time_elapsed": 1192064, "internal_node_id": "0.0-173.0"}}, {"uniqueid": "MTK0455:3TXD01ZLD5O1VEFTQ60QX5YPX0V4UC", "current_trial": 246, "dateTime": 1510934964391, "trialdata": {"rt": -1, "stimulus": "<p id=\"stim\">PACKAGE</p>", "key_press": -1, "type": "PRES_VIS", "word": "package", "wordID": 996, "conditions": [24, 800, "v", 12000], "trial": 7, "serialpos": 5, "trial_type": "single-stim", "trial_index": 246, "time_elapsed": 1193853, "internal_node_id": "0.0-174.0"}}, {"uniqueid": "MTK0455:3TXD01ZLD5O1VEFTQ60QX5YPX0V4UC", "current_trial": 247, "dateTime": 1510934966214, "trialdata": {"rt": -1, "stimulus": "<p id=\"stim\">COMET</p>", "key_press": -1, "type": "PRES_VIS", "word": "comet", "wordID": 352, "conditions": [24, 800, "v", 12000], "trial": 7, "serialpos": 6, "trial_type": "single-stim", "trial_index": 247, "time_elapsed": 1195676, "internal_node_id": "0.0-175.0"}}, {"uniqueid": "MTK0455:3TXD01ZLD5O1VEFTQ60QX5YPX0V4UC", "current_trial": 248, "dateTime": 1510934967942, "trialdata": {"rt": -1, "stimulus": "<p id=\"stim\">SCISSORS</p>", "key_press": -1, "type": "PRES_VIS", "word": "scissors", "wordID": 1249, "conditions": [24, 800, "v", 12000], "trial": 7, "serialpos": 7, "trial_type": "single-stim", "trial_index": 248, "time_elapsed": 1197404, "internal_node_id": "0.0-176.0"}}, {"uniqueid": "MTK0455:3TXD01ZLD5O1VEFTQ60QX5YPX0V4UC", "current_trial": 249, "dateTime": 1510934969815, "trialdata": {"rt": -1, "stimulus": "<p id=\"stim\">BLENDER</p>", "key_press": -1, "type": "PRES_VIS", "word": "blender", "wordID": 135, "conditions": [24, 800, "v", 12000], "trial": 7, "serialpos": 8, "trial_type": "single-stim", "trial_index": 249, "time_elapsed": 1199277, "internal_node_id": "0.0-177.0"}}, {"uniqueid": "MTK0455:3TXD01ZLD5O1VEFTQ60QX5YPX0V4UC", "current_trial": 250, "dateTime": 1510934971464, "trialdata": {"rt": -1, "stimulus": "<p id=\"stim\">BRIEFCASE</p>", "key_press": -1, "type": "PRES_VIS", "word": "briefcase", "wordID": 174, "conditions": [24, 800, "v", 12000], "trial": 7, "serialpos": 9, "trial_type": "single-stim", "trial_index": 250, "time_elapsed": 1200926, "internal_node_id": "0.0-178.0"}}, {"uniqueid": "MTK0455:3TXD01ZLD5O1VEFTQ60QX5YPX0V4UC", "current_trial": 251, "dateTime": 1510934973148, "trialdata": {"rt": -1, "stimulus": "<p id=\"stim\">HANDBAG</p>", "key_press": -1, "type": "PRES_VIS", "word": "handbag", "wordID": 683, "conditions": [24, 800, "v", 12000], "trial": 7, "serialpos": 10, "trial_type": "single-stim", "trial_index": 251, "time_elapsed": 1202610, "internal_node_id": "0.0-179.0"}}, {"uniqueid": "MTK0455:3TXD01ZLD5O1VEFTQ60QX5YPX0V4UC", "current_trial": 252, "dateTime": 1510934974751, "trialdata": {"rt": -1, "stimulus": "<p id=\"stim\">SALMON</p>", "key_press": -1, "type": "PRES_VIS", "word": "salmon", "wordID": 1226, "conditions": [24, 800, "v", 12000], "trial": 7, "serialpos": 11, "trial_type": "single-stim", "trial_index": 252, "time_elapsed": 1204213, "internal_node_id": "0.0-180.0"}}, {"uniqueid": "MTK0455:3TXD01ZLD5O1VEFTQ60QX5YPX0V4UC", "current_trial": 253, "dateTime": 1510934976541, "trialdata": {"rt": -1, "stimulus": "<p id=\"stim\">BASEMENT</p>", "key_press": -1, "type": "PRES_VIS", "word": "basement", "wordID": 93, "conditions": [24, 800, "v", 12000], "trial": 7, "serialpos": 12, "trial_type": "single-stim", "trial_index": 253, "time_elapsed": 1206003, "internal_node_id": "0.0-181.0"}}, {"uniqueid": "MTK0455:3TXD01ZLD5O1VEFTQ60QX5YPX0V4UC", "current_trial": 254, "dateTime": 1510934978423, "trialdata": {"rt": -1, "stimulus": "<p id=\"stim\">ORCHID</p>", "key_press": -1, "type": "PRES_VIS", "word": "orchid", "wordID": 981, "conditions": [24, 800, "v", 12000], "trial": 7, "serialpos": 13, "trial_type": "single-stim", "trial_index": 254, "time_elapsed": 1207885, "internal_node_id": "0.0-182.0"}}, {"uniqueid": "MTK0455:3TXD01ZLD5O1VEFTQ60QX5YPX0V4UC", "current_trial": 255, "dateTime": 1510934980127, "trialdata": {"rt": -1, "stimulus": "<p id=\"stim\">FLOWER</p>", "key_press": -1, "type": "PRES_VIS", "word": "flower", "wordID": 583, "conditions": [24, 800, "v", 12000], "trial": 7, "serialpos": 14, "trial_type": "single-stim", "trial_index": 255, "time_elapsed": 1209587, "internal_node_id": "0.0-183.0"}}, {"uniqueid": "MTK0455:3TXD01ZLD5O1VEFTQ60QX5YPX0V4UC", "current_trial": 256, "dateTime": 1510934982007, "trialdata": {"rt": -1, "stimulus": "<p id=\"stim\">HARP</p>", "key_press": -1, "type": "PRES_VIS", "word": "harp", "wordID": 688, "conditions": [24, 800, "v", 12000], "trial": 7, "serialpos": 15, "trial_type": "single-stim", "trial_index": 256, "time_elapsed": 1211469, "internal_node_id": "0.0-184.0"}}, {"uniqueid": "MTK0455:3TXD01ZLD5O1VEFTQ60QX5YPX0V4UC", "current_trial": 257, "dateTime": 1510934983987, "trialdata": {"rt": -1, "stimulus": "<p id=\"stim\">PICNIC</p>", "key_press": -1, "type": "PRES_VIS", "word": "picnic", "wordID": 1059, "conditions": [24, 800, "v", 12000], "trial": 7, "serialpos": 16, "trial_type": "single-stim", "trial_index": 257, "time_elapsed": 1213449, "internal_node_id": "0.0-185.0"}}, {"uniqueid": "MTK0455:3TXD01ZLD5O1VEFTQ60QX5YPX0V4UC", "current_trial": 258, "dateTime": 1510934985725, "trialdata": {"rt": -1, "stimulus": "<p id=\"stim\">CLAMP</p>", "key_press": -1, "type": "PRES_VIS", "word": "clamp", "wordID": 315, "conditions": [24, 800, "v", 12000], "trial": 7, "serialpos": 17, "trial_type": "single-stim", "trial_index": 258, "time_elapsed": 1215187, "internal_node_id": "0.0-186.0"}}, {"uniqueid": "MTK0455:3TXD01ZLD5O1VEFTQ60QX5YPX0V4UC", "current_trial": 259, "dateTime": 1510934987506, "trialdata": {"rt": -1, "stimulus": "<p id=\"stim\">AIRPORT</p>", "key_press": -1, "type": "PRES_VIS", "word": "airport", "wordID": 12, "conditions": [24, 800, "v", 12000], "trial": 7, "serialpos": 18, "trial_type": "single-stim", "trial_index": 259, "time_elapsed": 1216968, "internal_node_id": "0.0-187.0"}}, {"uniqueid": "MTK0455:3TXD01ZLD5O1VEFTQ60QX5YPX0V4UC", "current_trial": 260, "dateTime": 1510934989409, "trialdata": {"rt": -1, "stimulus": "<p id=\"stim\">KITCHEN</p>", "key_press": -1, "type": "PRES_VIS", "word": "kitchen", "wordID": 777, "conditions": [24, 800, "v", 12000], "trial": 7, "serialpos": 19, "trial_type": "single-stim", "trial_index": 260, "time_elapsed": 1218871, "internal_node_id": "0.0-188.0"}}, {"uniqueid": "MTK0455:3TXD01ZLD5O1VEFTQ60QX5YPX0V4UC", "current_trial": 261, "dateTime": 1510934991020, "trialdata": {"rt": -1, "stimulus": "<p id=\"stim\">PLATE</p>", "key_press": -1, "type": "PRES_VIS", "word": "plate", "wordID": 1085, "conditions": [24, 800, "v", 12000], "trial": 7, "serialpos": 20, "trial_type": "single-stim", "trial_index": 261, "time_elapsed": 1220482, "internal_node_id": "0.0-189.0"}}, {"uniqueid": "MTK0455:3TXD01ZLD5O1VEFTQ60QX5YPX0V4UC", "current_trial": 262, "dateTime": 1510934992796, "trialdata": {"rt": -1, "stimulus": "<p id=\"stim\">CATCHER</p>", "key_press": -1, "type": "PRES_VIS", "word": "catcher", "wordID": 257, "conditions": [24, 800, "v", 12000], "trial": 7, "serialpos": 21, "trial_type": "single-stim", "trial_index": 262, "time_elapsed": 1222258, "internal_node_id": "0.0-190.0"}}, {"uniqueid": "MTK0455:3TXD01ZLD5O1VEFTQ60QX5YPX0V4UC", "current_trial": 263, "dateTime": 1510934994411, "trialdata": {"rt": -1, "stimulus": "<p id=\"stim\">STICKER</p>", "key_press": -1, "type": "PRES_VIS", "word": "sticker", "wordID": 1381, "conditions": [24, 800, "v", 12000], "trial": 7, "serialpos": 22, "trial_type": "single-stim", "trial_index": 263, "time_elapsed": 1223873, "internal_node_id": "0.0-191.0"}}, {"uniqueid": "MTK0455:3TXD01ZLD5O1VEFTQ60QX5YPX0V4UC", "current_trial": 264, "dateTime": 1510934996253, "trialdata": {"rt": -1, "stimulus": "<p id=\"stim\">SUBWAY</p>", "key_press": -1, "type": "PRES_VIS", "word": "subway", "wordID": 1399, "conditions": [24, 800, "v", 12000], "trial": 7, "serialpos": 23, "trial_type": "single-stim", "trial_index": 264, "time_elapsed": 1225715, "internal_node_id": "0.0-192.0"}}, {"uniqueid": "MTK0455:3TXD01ZLD5O1VEFTQ60QX5YPX0V4UC", "current_trial": 265, "dateTime": 1510934998409, "trialdata": {"rt": -1, "stimulus": "", "key_press": -1, "type": "PRE_RECALL_DELAY", "trial_type": "single-stim", "trial_index": 265, "time_elapsed": 1227871, "internal_node_id": "0.0-193.0-0.0"}}, {"uniqueid": "MTK0455:3TXD01ZLD5O1VEFTQ60QX5YPX0V4UC", "current_trial": 266, "dateTime": 1510934998909, "trialdata": {"rt": -1000, "stimulus": "/static/audio/400Hz.wav", "key_press": -1, "type": "PRE_RECALL_ALERT", "trial_type": "single-audio", "trial_index": 266, "time_elapsed": 1228371, "internal_node_id": "0.0-194.0"}}, {"uniqueid": "MTK0455:3TXD01ZLD5O1VEFTQ60QX5YPX0V4UC", "current_trial": 267, "dateTime": 1510935058914, "trialdata": {"rt": [2523, 5036, 6468, 9292, 11364, 15115, 18531, 25068, 28684, 45099, 46531], "recwords": ["subway", "sticker", "catcher", "kitchen", "basement", "banquet", "singer", "scissors", "blender", "orchid", "flower"], "type": "FREE_RECALL", "conditions": [24, 800, "v", 12000], "trial": 7, "trial_type": "free-recall", "trial_index": 267, "time_elapsed": 1288371, "internal_node_id": "0.0-195.0-0.0"}}, {"uniqueid": "MTK0455:3TXD01ZLD5O1VEFTQ60QX5YPX0V4UC", "current_trial": 268, "dateTime": 1510935062705, "trialdata": {"rt": 1791, "key_press": 101, "type": "INSTRUCTIONS", "trial_type": "text", "trial_index": 268, "time_elapsed": 1292167, "internal_node_id": "0.0-196.0"}}, {"uniqueid": "MTK0455:3TXD01ZLD5O1VEFTQ60QX5YPX0V4UC", "current_trial": 269, "dateTime": 1510935088706, "trialdata": {"rt": [1974, 3710, 5254, 6750, 10847, 14439, 15870, 17118, 18678, 20430, 21630, 23014], "responses": ["19", "10", "20", "16", "22", "26", "7", "14", "6", "22", "16", "7"], "num1": [5, 2, 7, 5, 5, 8, 2, 6, 2, 6, 4, 1, 5], "num2": [6, 6, 4, 4, 9, 9, 1, 4, 1, 9, 6, 4, 3], "num3": [8, 2, 9, 7, 8, 9, 4, 4, 3, 7, 6, 3, 7], "type": "DISTRACTOR", "conditions": [12, 1600, "v", 24000], "trial": 8, "trial_type": "math-distractor", "trial_index": 269, "time_elapsed": 1318168, "internal_node_id": "0.0-197.