{"condition": 0, "counterbalance": 440, "assignmentId": "3YGXWBAF71O59KYT4FFQ3ZCJPKU4CB", "workerId": "MTK0266", "hitId": "3421H3BM9AORRKCH50N1IR4AOCSJ9J", "currenttrial": 626, "bonus": 0, "data": [{"uniqueid": "MTK0266:3YGXWBAF71O59KYT4FFQ3ZCJPKU4CB", "current_trial": 0, "dateTime": 1510688736641, "trialdata": {"rt": 13442, "key_press": 32, "type": "INSTRUCTIONS", "trial_type": "text", "trial_index": 0, "time_elapsed": 13447, "internal_node_id": "0.0-0.0"}}, {"uniqueid": "MTK0266:3YGXWBAF71O59KYT4FFQ3ZCJPKU4CB", "current_trial": 1, "dateTime": 1510688810799, "trialdata": {"rt": 74153, "key_press": 32, "type": "INSTRUCTIONS", "trial_type": "text", "trial_index": 1, "time_elapsed": 87606, "internal_node_id": "0.0-1.0"}}, {"uniqueid": "MTK0266:3YGXWBAF71O59KYT4FFQ3ZCJPKU4CB", "current_trial": 2, "dateTime": 1510688821775, "trialdata": {"rt": [10942], "responses": ["ocean"], "type": "AUDIO_TEST", "trial_type": "audio-test", "trial_index": 2, "time_elapsed": 98582, "internal_node_id": "0.0-2.0"}}, {"uniqueid": "MTK0266:3YGXWBAF71O59KYT4FFQ3ZCJPKU4CB", "current_trial": 3, "dateTime": 1510688825870, "trialdata": {"rt": [4087], "responses": ["crystal"], "type": "AUDIO_TEST", "trial_type": "audio-test", "trial_index": 3, "time_elapsed": 102678, "internal_node_id": "0.0-3.0"}}, {"uniqueid": "MTK0266:3YGXWBAF71O59KYT4FFQ3ZCJPKU4CB", "current_trial": 4, "dateTime": 1510688830014, "trialdata": {"rt": [4136], "responses": ["spice"], "type": "AUDIO_TEST", "trial_type": "audio-test", "trial_index": 4, "time_elapsed": 106821, "internal_node_id": "0.0-4.0"}}, {"uniqueid": "MTK0266:3YGXWBAF71O59KYT4FFQ3ZCJPKU4CB", "current_trial": 5, "dateTime": 1510688841727, "trialdata": {"rt": 10958, "responses": "{\"Q0\":\"12am\",\"Q1\":\"6am\",\"Q2\":\"4\"}", "type": "SLEEP_SURVEY", "trial_type": "survey-text", "trial_index": 5, "time_elapsed": 118535, "internal_node_id": "0.0-5.0"}}, {"uniqueid": "MTK0266:3YGXWBAF71O59KYT4FFQ3ZCJPKU4CB", "current_trial": 6, "dateTime": 1510688888109, "trialdata": {"rt": 45380, "key_press": 32, "type": "INSTRUCTIONS", "trial_type": "text", "trial_index": 6, "time_elapsed": 164917, "internal_node_id": "0.0-6.0"}}, {"uniqueid": "MTK0266:3YGXWBAF71O59KYT4FFQ3ZCJPKU4CB", "current_trial": 7, "dateTime": 1510688911309, "trialdata": {"rt": 22697, "key_press": 32, "type": "INSTRUCTIONS", "trial_type": "text", "trial_index": 7, "time_elapsed": 188117, "internal_node_id": "0.0-7.0"}}, {"uniqueid": "MTK0266:3YGXWBAF71O59KYT4FFQ3ZCJPKU4CB", "current_trial": 8, "dateTime": 1510688921447, "trialdata": {"rt": 9636, "key_press": 32, "type": "INSTRUCTIONS", "trial_type": "text", "trial_index": 8, "time_elapsed": 198255, "internal_node_id": "0.0-8.0"}}, {"uniqueid": "MTK0266:3YGXWBAF71O59KYT4FFQ3ZCJPKU4CB", "current_trial": 9, "dateTime": 1510688940464, "trialdata": {"rt": [3759, 5967, 7600, 12048, 14814, 17582], "responses": ["13", "10", "15", "17", "15", "16"], "num1": [1, 1, 7, 4, 1, 9, 3], "num2": [5, 5, 1, 8, 8, 4, 1], "num3": [7, 4, 7, 5, 6, 3, 8], "type": "DISTRACTOR", "conditions": [18, 1200, "v", 18000], "trial": 0, "trial_type": "math-distractor", "trial_index": 9, "time_elapsed": 217272, "internal_node_id": "0.0-9.0"}}, {"uniqueid": "MTK0266:3YGXWBAF71O59KYT4FFQ3ZCJPKU4CB", "current_trial": 10, "dateTime": 1510688943468, "trialdata": {"rt": -1, "stimulus": "<p id=\"stim\">10</p>", "key_press": -1, "trial_type": "single-stim", "trial_index": 10, "time_elapsed": 220276, "internal_node_id": "0.0-10.0-0.0"}}, {"uniqueid": "MTK0266:3YGXWBAF71O59KYT4FFQ3ZCJPKU4CB", "current_trial": 11, "dateTime": 1510688944470, "trialdata": {"rt": -1, "stimulus": "<p id=\"stim\">9</p>", "key_press": -1, "trial_type": "single-stim", "trial_index": 11, "time_elapsed": 221277, "internal_node_id": "0.0-10.0-1.0"}}, {"uniqueid": "MTK0266:3YGXWBAF71O59KYT4FFQ3ZCJPKU4CB", "current_trial": 12, "dateTime": 1510688945472, "trialdata": {"rt": -1, "stimulus": "<p id=\"stim\">8</p>", "key_press": -1, "trial_type": "single-stim", "trial_index": 12, "time_elapsed": 222280, "internal_node_id": "0.0-10.0-2.0"}}, {"uniqueid": "MTK0266:3YGXWBAF71O59KYT4FFQ3ZCJPKU4CB", "current_trial": 13, "dateTime": 1510688946474, "trialdata": {"rt": -1, "stimulus": "<p id=\"stim\">7</p>", "key_press": -1, "trial_type": "single-stim", "trial_index": 13, "time_elapsed": 223282, "internal_node_id": "0.0-10.0-3.0"}}, {"uniqueid": "MTK0266:3YGXWBAF71O59KYT4FFQ3ZCJPKU4CB", "current_trial": 14, "dateTime": 1510688947476, "trialdata": {"rt": -1, "stimulus": "<p id=\"stim\">6</p>", "key_press": -1, "trial_type": "single-stim", "trial_index": 14, "time_elapsed": 224283, "internal_node_id": "0.0-10.0-4.0"}}, {"uniqueid": "MTK0266:3YGXWBAF71O59KYT4FFQ3ZCJPKU4CB", "current_trial": 15, "dateTime": 1510688948477, "trialdata": {"rt": -1, "stimulus": "<p id=\"stim\">5</p>", "key_press": -1, "trial_type": "single-stim", "trial_index": 15, "time_elapsed": 225285, "internal_node_id": "0.0-10.0-5.0"}}, {"uniqueid": "MTK0266:3YGXWBAF71O59KYT4FFQ3ZCJPKU4CB", "current_trial": 16, "dateTime": 1510688949479, "trialdata": {"rt": -1, "stimulus": "<p id=\"stim\">4</p>", "key_press": -1, "trial_type": "single-stim", "trial_index": 16, "time_elapsed": 226287, "internal_node_id": "0.0-10.0-6.0"}}, {"uniqueid": "MTK0266:3YGXWBAF71O59KYT4FFQ3ZCJPKU4CB", "current_trial": 17, "dateTime": 1510688950481, "trialdata": {"rt": -1, "stimulus": "<p id=\"stim\">3</p>", "key_press": -1, "trial_type": "single-stim", "trial_index": 17, "time_elapsed": 227289, "internal_node_id": "0.0-10.0-7.0"}}, {"uniqueid": "MTK0266:3YGXWBAF71O59KYT4FFQ3ZCJPKU4CB", "current_trial": 18, "dateTime": 1510688951483, "trialdata": {"rt": -1, "stimulus": "<p id=\"stim\">2</p>", "key_press": -1, "trial_type": "single-stim", "trial_index": 18, "time_elapsed": 228291, "internal_node_id": "0.0-10.0-8.0"}}, {"uniqueid": "MTK0266:3YGXWBAF71O59KYT4FFQ3ZCJPKU4CB", "current_trial": 19, "dateTime": 1510688952484, "trialdata": {"rt": -1, "stimulus": "<p id=\"stim\">1</p>", "key_press": -1, "trial_type": "single-stim", "trial_index": 19, "time_elapsed": 229292, "internal_node_id": "0.0-10.0-9.0"}}, {"uniqueid": "MTK0266:3YGXWBAF71O59KYT4FFQ3ZCJPKU4CB", "current_trial": 20, "dateTime": 1510688953986, "trialdata": {"rt": -1, "stimulus": "<p id=\"stim\">+</p>", "key_press": -1, "type": "FIXATION", "trial_type": "single-stim", "trial_index": 20, "time_elapsed": 230794, "internal_node_id": "0.0-11.0-0.0"}}, {"uniqueid": "MTK0266:3YGXWBAF71O59KYT4FFQ3ZCJPKU4CB", "current_trial": 21, "dateTime": 1510688955189, "trialdata": {"rt": -1, "stimulus": "<p id=\"stim\">BUBBLE</p>", "key_press": -1, "type": "PRES_VIS", "word": "bubble", "wordID": 182, "conditions": [18, 1200, "v", 18000], "trial": 0, "serialpos": 0, "trial_type": "single-stim", "trial_index": 21, "time_elapsed": 231996, "internal_node_id": "0.0-12.0"}}, {"uniqueid": "MTK0266:3YGXWBAF71O59KYT4FFQ3ZCJPKU4CB", "current_trial": 22, "dateTime": 1510688957323, "trialdata": {"rt": -1, "stimulus": "<p id=\"stim\">BULLET</p>", "key_press": -1, "type": "PRES_VIS", "word": "bullet", "wordID": 193, "conditions": [18, 1200, "v", 18000], "trial": 0, "serialpos": 1, "trial_type": "single-stim", "trial_index": 22, "time_elapsed": 234131, "internal_node_id": "0.0-13.0"}}, {"uniqueid": "MTK0266:3YGXWBAF71O59KYT4FFQ3ZCJPKU4CB", "current_trial": 23, "dateTime": 1510688959354, "trialdata": {"rt": -1, "stimulus": "<p id=\"stim\">GARLIC</p>", "key_press": -1, "type": "PRES_VIS", "word": "garlic", "wordID": 623, "conditions": [18, 1200, "v", 18000], "trial": 0, "serialpos": 2, "trial_type": "single-stim", "trial_index": 23, "time_elapsed": 236162, "internal_node_id": "0.0-14.0"}}, {"uniqueid": "MTK0266:3YGXWBAF71O59KYT4FFQ3ZCJPKU4CB", "current_trial": 24, "dateTime": 1510688961393, "trialdata": {"rt": -1, "stimulus": "<p id=\"stim\">KNAPSACK</p>", "key_press": -1, "type": "PRES_VIS", "word": "knapsack", "wordID": 782, "conditions": [18, 1200, "v", 18000], "trial": 0, "serialpos": 3, "trial_type": "single-stim", "trial_index": 24, "time_elapsed": 238200, "internal_node_id": "0.0-15.0"}}, {"uniqueid": "MTK0266:3YGXWBAF71O59KYT4FFQ3ZCJPKU4CB", "current_trial": 25, "dateTime": 1510688963712, "trialdata": {"rt": -1, "stimulus": "<p id=\"stim\">SLUG</p>", "key_press": -1, "type": "PRES_VIS", "word": "slug", "wordID": 1328, "conditions": [18, 1200, "v", 18000], "trial": 0, "serialpos": 4, "trial_type": "single-stim", "trial_index": 25, "time_elapsed": 240520, "internal_node_id": "0.0-16.0"}}, {"uniqueid": "MTK0266:3YGXWBAF71O59KYT4FFQ3ZCJPKU4CB", "current_trial": 26, "dateTime": 1510688966038, "trialdata": {"rt": -1, "stimulus": "<p id=\"stim\">JUDGE</p>", "key_press": -1, "type": "PRES_VIS", "word": "judge", "wordID": 760, "conditions": [18, 1200, "v", 18000], "trial": 0, "serialpos": 5, "trial_type": "single-stim", "trial_index": 26, "time_elapsed": 242846, "internal_node_id": "0.0-17.0"}}, {"uniqueid": "MTK0266:3YGXWBAF71O59KYT4FFQ3ZCJPKU4CB", "current_trial": 27, "dateTime": 1510688968079, "trialdata": {"rt": -1, "stimulus": "<p id=\"stim\">BLADE</p>", "key_press": -1, "type": "PRES_VIS", "word": "blade", "wordID": 133, "conditions": [18, 1200, "v", 18000], "trial": 0, "serialpos": 6, "trial_type": "single-stim", "trial_index": 27, "time_elapsed": 244887, "internal_node_id": "0.0-18.0"}}, {"uniqueid": "MTK0266:3YGXWBAF71O59KYT4FFQ3ZCJPKU4CB", "current_trial": 28, "dateTime": 1510688970287, "trialdata": {"rt": -1, "stimulus": "<p id=\"stim\">FRECKLE</p>", "key_press": -1, "type": "PRES_VIS", "word": "freckle", "wordID": 601, "conditions": [18, 1200, "v", 18000], "trial": 0, "serialpos": 7, "trial_type": "single-stim", "trial_index": 28, "time_elapsed": 247095, "internal_node_id": "0.0-19.0"}}, {"uniqueid": "MTK0266:3YGXWBAF71O59KYT4FFQ3ZCJPKU4CB", "current_trial": 29, "dateTime": 1510688972464, "trialdata": {"rt": -1, "stimulus": "<p id=\"stim\">PIGMENT</p>", "key_press": -1, "type": "PRES_VIS", "word": "pigment", "wordID": 1065, "conditions": [18, 1200, "v", 18000], "trial": 0, "serialpos": 8, "trial_type": "single-stim", "trial_index": 29, "time_elapsed": 249272, "internal_node_id": "0.0-20.0"}}, {"uniqueid": "MTK0266:3YGXWBAF71O59KYT4FFQ3ZCJPKU4CB", "current_trial": 30, "dateTime": 1510688974559, "trialdata": {"rt": -1, "stimulus": "<p id=\"stim\">PLAZA</p>", "key_press": -1, "type": "PRES_VIS", "word": "plaza", "wordID": 1087, "conditions": [18, 1200, "v", 18000], "trial": 0, "serialpos": 9, "trial_type": "single-stim", "trial_index": 30, "time_elapsed": 251367, "internal_node_id": "0.0-21.0"}}, {"uniqueid": "MTK0266:3YGXWBAF71O59KYT4FFQ3ZCJPKU4CB", "current_trial": 31, "dateTime": 1510688976815, "trialdata": {"rt": -1, "stimulus": "<p id=\"stim\">VALLEY</p>", "key_press": -1, "type": "PRES_VIS", "word": "valley", "wordID": 1544, "conditions": [18, 1200, "v", 18000], "trial": 0, "serialpos": 10, "trial_type": "single-stim", "trial_index": 31, "time_elapsed": 253623, "internal_node_id": "0.0-22.0"}}, {"uniqueid": "MTK0266:3YGXWBAF71O59KYT4FFQ3ZCJPKU4CB", "current_trial": 32, "dateTime": 1510688978824, "trialdata": {"rt": -1, "stimulus": "<p id=\"stim\">WASP</p>", "key_press": -1, "type": "PRES_VIS", "word": "wasp", "wordID": 1592, "conditions": [18, 1200, "v", 18000], "trial": 0, "serialpos": 11, "trial_type": "single-stim", "trial_index": 32, "time_elapsed": 255632, "internal_node_id": "0.0-23.0"}}, {"uniqueid": "MTK0266:3YGXWBAF71O59KYT4FFQ3ZCJPKU4CB", "current_trial": 33, "dateTime": 1510688981050, "trialdata": {"rt": -1, "stimulus": "<p id=\"stim\">BURGLAR</p>", "key_press": -1, "type": "PRES_VIS", "word": "burglar", "wordID": 199, "conditions": [18, 1200, "v", 18000], "trial": 0, "serialpos": 12, "trial_type": "single-stim", "trial_index": 33, "time_elapsed": 257858, "internal_node_id": "0.0-24.0"}}, {"uniqueid": "MTK0266:3YGXWBAF71O59KYT4FFQ3ZCJPKU4CB", "current_trial": 34, "dateTime": 1510688983291, "trialdata": {"rt": -1, "stimulus": "<p id=\"stim\">COIN</p>", "key_press": -1, "type": "PRES_VIS", "word": "coin", "wordID": 342, "conditions": [18, 1200, "v", 18000], "trial": 0, "serialpos": 13, "trial_type": "single-stim", "trial_index": 34, "time_elapsed": 260098, "internal_node_id": "0.0-25.0"}}, {"uniqueid": "MTK0266:3YGXWBAF71O59KYT4FFQ3ZCJPKU4CB", "current_trial": 35, "dateTime": 1510688985640, "trialdata": {"rt": -1, "stimulus": "<p id=\"stim\">LETTUCE</p>", "key_press": -1, "type": "PRES_VIS", "word": "lettuce", "wordID": 813, "conditions": [18, 1200, "v", 18000], "trial": 0, "serialpos": 14, "trial_type": "single-stim", "trial_index": 35, "time_elapsed": 262448, "internal_node_id": "0.0-26.0"}}, {"uniqueid": "MTK0266:3YGXWBAF71O59KYT4FFQ3ZCJPKU4CB", "current_trial": 36, "dateTime": 1510688987841, "trialdata": {"rt": -1, "stimulus": "<p id=\"stim\">NEUTRON</p>", "key_press": -1, "type": "PRES_VIS", "word": "neutron", "wordID": 946, "conditions": [18, 1200, "v", 18000], "trial": 0, "serialpos": 15, "trial_type": "single-stim", "trial_index": 36, "time_elapsed": 264648, "internal_node_id": "0.0-27.0"}}, {"uniqueid": "MTK0266:3YGXWBAF71O59KYT4FFQ3ZCJPKU4CB", "current_trial": 37, "dateTime": 1510688990199, "trialdata": {"rt": -1, "stimulus": "<p id=\"stim\">BEEF</p>", "key_press": -1, "type": "PRES_VIS", "word": "beef", "wordID": 112, "conditions": [18, 1200, "v", 18000], "trial": 0, "serialpos": 16, "trial_type": "single-stim", "trial_index": 37, "time_elapsed": 267007, "internal_node_id": "0.0-28.0"}}, {"uniqueid": "MTK0266:3YGXWBAF71O59KYT4FFQ3ZCJPKU4CB", "current_trial": 38, "dateTime": 1510688992536, "trialdata": {"rt": -1, "stimulus": "<p id=\"stim\">WIDOW</p>", "key_press": -1, "type": "PRES_VIS", "word": "widow", "wordID": 1607, "conditions": [18, 1200, "v", 18000], "trial": 0, "serialpos": 17, "trial_type": "single-stim", "trial_index": 38, "time_elapsed": 269344, "internal_node_id": "0.0-29.0"}}, {"uniqueid": "MTK0266:3YGXWBAF71O59KYT4FFQ3ZCJPKU4CB", "current_trial": 39, "dateTime": 1510688994933, "trialdata": {"rt": -1, "stimulus": "", "key_press": -1, "type": "PRE_RECALL_DELAY", "trial_type": "single-stim", "trial_index": 39, "time_elapsed": 271741, "internal_node_id": "0.0-30.0-0.0"}}, {"uniqueid": "MTK0266:3YGXWBAF71O59KYT4FFQ3ZCJPKU4CB", "current_trial": 40, "dateTime": 1510688995436, "trialdata": {"rt": -1000, "stimulus": "/static/audio/400Hz.wav", "key_press": -1, "type": "PRE_RECALL_ALERT", "trial_type": "single-audio", "trial_index": 40, "time_elapsed": 272244, "internal_node_id": "0.0-31.0"}}, {"uniqueid": "MTK0266:3YGXWBAF71O59KYT4FFQ3ZCJPKU4CB", "current_trial": 41, "dateTime": 1510689055446, "trialdata": {"rt": [2332, 3772, 4812, 6620, 7612, 8796, 14797, 17793, 20967, 26716, 42925, 46013, 52748, 54925], "recwords": ["garlic", "bullet", "blade", "knapsack", "slug", "widow", "blaze", "fragment", "freckled", "polished", "barrel", "blade", "garlic", "freckled"], "type": "FREE_RECALL", "conditions": [18, 1200, "v", 18000], "trial": 0, "trial_type": "free-recall", "trial_index": 41, "time_elapsed": 332249, "internal_node_id": "0.0-32.0-0.0"}}, {"uniqueid": "MTK0266:3YGXWBAF71O59KYT4FFQ3ZCJPKU4CB", "current_trial": 42, "dateTime": 1510689059404, "trialdata": {"rt": 1955, "key_press": 32, "type": "INSTRUCTIONS", "trial_type": "text", "trial_index": 42, "time_elapsed": 336212, "internal_node_id": "0.0-33.0"}}, {"uniqueid": "MTK0266:3YGXWBAF71O59KYT4FFQ3ZCJPKU4CB", "current_trial": 43, "dateTime": 1510689079416, "trialdata": {"rt": [5662, 7341, 9070, 11455, 16493], "responses": ["21", "8", "7", "21", "19"], "num1": [7, 1, 2, 8, 9, 6], "num2": [8, 6, 4, 5, 4, 4], "num3": [6, 1, 1, 8, 6, 3], "type": "DISTRACTOR", "conditions": [18, 1200, "a", 18000], "trial": 1, "trial_type": "math-distractor", "trial_index": 43, "time_elapsed": 356223, "internal_node_id": "0.0-34.0"}}, {"uniqueid": "MTK0266:3YGXWBAF71O59KYT4FFQ3ZCJPKU4CB", "current_trial": 44, "dateTime": 1510689082429, "trialdata": {"rt": -1, "stimulus": "<p id=\"stim\">10</p>", "key_press": -1, "trial_type": "single-stim", "trial_index": 44, "time_elapsed": 359237, "internal_node_id": "0.0-35.0-0.0"}}, {"uniqueid": "MTK0266:3YGXWBAF71O59KYT4FFQ3ZCJPKU4CB", "current_trial": 45, "dateTime": 1510689083445, "trialdata": {"rt": -1, "stimulus": "<p id=\"stim\">9</p>", "key_press": -1, "trial_type": "single-stim", "trial_index": 45, "time_elapsed": 360253, "internal_node_id": "0.0-35.0-1.0"}}, {"uniqueid": "MTK0266:3YGXWBAF71O59KYT4FFQ3ZCJPKU4CB", "current_trial": 46, "dateTime": 1510689084446, "trialdata": {"rt": -1, "stimulus": "<p id=\"stim\">8</p>", "key_press": -1, "trial_type": "single-stim", "trial_index": 46, "time_elapsed": 361254, "internal_node_id": "0.0-35.0-2.0"}}, {"uniqueid": "MTK0266:3YGXWBAF71O59KYT4FFQ3ZCJPKU4CB", "current_trial": 47, "dateTime": 1510689085447, "trialdata": {"rt": -1, "stimulus": "<p id=\"stim\">7</p>", "key_press": -1, "trial_type": "single-stim", "trial_index": 47, "time_elapsed": 362255, "internal_node_id": "0.0-35.0-3.0"}}, {"uniqueid": "MTK0266:3YGXWBAF71O59KYT4FFQ3ZCJPKU4CB", "current_trial": 48, "dateTime": 1510689086449, "trialdata": {"rt": -1, "stimulus": "<p id=\"stim\">6</p>", "key_press": -1, "trial_type": "single-stim", "trial_index": 48, "time_elapsed": 363257, "internal_node_id": "0.0-35.0-4.0"}}, {"uniqueid": "MTK0266:3YGXWBAF71O59KYT4FFQ3ZCJPKU4CB", "current_trial": 49, "dateTime": 1510689087451, "trialdata": {"rt": -1, "stimulus": "<p id=\"stim\">5</p>", "key_press": -1, "trial_type": "single-stim", "trial_index": 49, "time_elapsed": 364259, "internal_node_id": "0.0-35.0-5.0"}}, {"uniqueid": "MTK0266:3YGXWBAF71O59KYT4FFQ3ZCJPKU4CB", "current_trial": 50, "dateTime": 1510689088453, "trialdata": {"rt": -1, "stimulus": "<p id=\"stim\">4</p>", "key_press": -1, "trial_type": "single-stim", "trial_index": 50, "time_elapsed": 365261, "internal_node_id": "0.0-35.0-6.0"}}, {"uniqueid": "MTK0266:3YGXWBAF71O59KYT4FFQ3ZCJPKU4CB", "current_trial": 51, "dateTime": 1510689089454, "trialdata": {"rt": -1, "stimulus": "<p id=\"stim\">3</p>", "key_press": -1, "trial_type": "single-stim", "trial_index": 51, "time_elapsed": 366262, "internal_node_id": "0.0-35.0-7.0"}}, {"uniqueid": "MTK0266:3YGXWBAF71O59KYT4FFQ3ZCJPKU4CB", "current_trial": 52, "dateTime": 1510689090456, "trialdata": {"rt": -1, "stimulus": "<p id=\"stim\">2</p>", "key_press": -1, "trial_type": "single-stim", "trial_index": 52, "time_elapsed": 367264, "internal_node_id": "0.0-35.0-8.0"}}, {"uniqueid": "MTK0266:3YGXWBAF71O59KYT4FFQ3ZCJPKU4CB", "current_trial": 53, "dateTime": 1510689091458, "trialdata": {"rt": -1, "stimulus": "<p id=\"stim\">1</p>", "key_press": -1, "trial_type": "single-stim", "trial_index": 53, "time_elapsed": 368266, "internal_node_id": "0.0-35.0-9.0"}}, {"uniqueid": "MTK0266:3YGXWBAF71O59KYT4FFQ3ZCJPKU4CB", "current_trial": 54, "dateTime": 1510689092960, "trialdata": {"rt": -1, "stimulus": "<p id=\"stim\">+</p>", "key_press": -1, "type": "FIXATION", "trial_type": "single-stim", "trial_index": 54, "time_elapsed": 369768, "internal_node_id": "0.0-36.0-0.0"}}, {"uniqueid": "MTK0266:3YGXWBAF71O59KYT4FFQ3ZCJPKU4CB", "current_trial": 55, "dateTime": 1510689095170, "trialdata": {"rt": -1000, "stimulus": "/static/audio/wordpool/HARP.wav", "key_press": -1, "type": "PRES_AUD", "word": "harp", "wordID": 688, "conditions": [18, 1200, "a", 18000], "trial": 1, "serialpos": 0, "trial_type": "single-audio", "trial_index": 55, "time_elapsed": 371978, "internal_node_id": "0.0-37.0"}}, {"uniqueid": "MTK0266:3YGXWBAF71O59KYT4FFQ3ZCJPKU4CB", "current_trial": 56, "dateTime": 1510689097371, "trialdata": {"rt": -1000, "stimulus": "/static/audio/wordpool/ORANGE.wav", "key_press": -1, "type": "PRES_AUD", "word": "orange", "wordID": 979, "conditions": [18, 1200, "a", 18000], "trial": 1, "serialpos": 1, "trial_type": "single-audio", "trial_index": 56, "time_elapsed": 374179, "internal_node_id": "0.0-38.0"}}, {"uniqueid": "MTK0266:3YGXWBAF71O59KYT4FFQ3ZCJPKU4CB", "current_trial": 57, "dateTime": 1510689099634, "trialdata": {"rt": -1000, "stimulus": "/static/audio/wordpool/BANK.wav", "key_press": -1, "type": "PRES_AUD", "word": "bank", "wordID": 82, "conditions": [18, 1200, "a", 18000], "trial": 1, "serialpos": 2, "trial_type": "single-audio", "trial_index": 57, "time_elapsed": 376442, "internal_node_id": "0.0-39.0"}}, {"uniqueid": "MTK0266:3YGXWBAF71O59KYT4FFQ3ZCJPKU4CB", "current_trial": 58, "dateTime": 1510689101905, "trialdata": {"rt": -1000, "stimulus": "/static/audio/wordpool/ACTRESS.wav", "key_press": -1, "type": "PRES_AUD", "word": "actress", "wordID": 5, "conditions": [18, 1200, "a", 18000], "trial": 1, "serialpos": 3, "trial_type": "single-audio", "trial_index": 58, "time_elapsed": 378713, "internal_node_id": "0.0-40.0"}}, {"uniqueid": "MTK0266:3YGXWBAF71O59KYT4FFQ3ZCJPKU4CB", "current_trial": 59, "dateTime": 1510689104000, "trialdata": {"rt": -1000, "stimulus": "/static/audio/wordpool/SCALPEL.wav", "key_press": -1, "type": "PRES_AUD", "word": "scalpel", "wordID": 1242, "conditions": [18, 1200, "a", 18000], "trial": 1, "serialpos": 4, "trial_type": "single-audio", "trial_index": 59, "time_elapsed": 380807, "internal_node_id": "0.0-41.0"}}, {"uniqueid": "MTK0266:3YGXWBAF71O59KYT4FFQ3ZCJPKU4CB", "current_trial": 60, "dateTime": 1510689106015, "trialdata": {"rt": -1000, "stimulus": "/static/audio/wordpool/TURTLE.wav", "key_press": -1, "type": "PRES_AUD", "word": "turtle", "wordID": 1521, "conditions": [18, 1200, "a", 18000], "trial": 1, "serialpos": 5, "trial_type": "single-audio", "trial_index": 60, "time_elapsed": 382822, "internal_node_id": "0.0-42.0"}}, {"uniqueid": "MTK0266:3YGXWBAF71O59KYT4FFQ3ZCJPKU4CB", "current_trial": 61, "dateTime": 1510689108033, "trialdata": {"rt": -1000, "stimulus": "/static/audio/wordpool/CHURCH.wav", "key_press": -1, "type": "PRES_AUD", "word": "church", "wordID": 306, "conditions": [18, 1200, "a", 18000], "trial": 1, "serialpos": 6, "trial_type": "single-audio", "trial_index": 61, "time_elapsed": 384841, "internal_node_id": "0.0-43.0"}}, {"uniqueid": "MTK0266:3YGXWBAF71O59KYT4FFQ3ZCJPKU4CB", "current_trial": 62, "dateTime": 1510689110301, "trialdata": {"rt": -1000, "stimulus": "/static/audio/wordpool/CRIB.wav", "key_press": -1, "type": "PRES_AUD", "word": "crib", "wordID": 406, "conditions": [18, 1200, "a", 18000], "trial": 1, "serialpos": 7, "trial_type": "single-audio", "trial_index": 62, "time_elapsed": 387109, "internal_node_id": "0.0-44.0"}}, {"uniqueid": "MTK0266:3YGXWBAF71O59KYT4FFQ3ZCJPKU4CB", "current_trial": 63, "dateTime": 1510689112404, "trialdata": {"rt": -1000, "stimulus": "/static/audio/wordpool/WITNESS.wav", "key_press": -1, "type": "PRES_AUD", "word": "witness", "wordID": 1617, "conditions": [18, 1200, "a", 18000], "trial": 1, "serialpos": 8, "trial_type": "single-audio", "trial_index": 63, "time_elapsed": 389211, "internal_node_id": "0.0-45.0"}}, {"uniqueid": "MTK0266:3YGXWBAF71O59KYT4FFQ3ZCJPKU4CB", "current_trial": 64, "dateTime": 1510689114456, "trialdata": {"rt": -1000, "stimulus": "/static/audio/wordpool/PERMIT.wav", "key_press": -1, "type": "PRES_AUD", "word": "permit", "wordID": 1050, "conditions": [18, 1200, "a", 18000], "trial": 1, "serialpos": 9, "trial_type": "single-audio", "trial_index": 64, "time_elapsed": 391264, "internal_node_id": "0.0-46.0"}}, {"uniqueid": "MTK0266:3YGXWBAF71O59KYT4FFQ3ZCJPKU4CB", "current_trial": 65, "dateTime": 1510689116780, "trialdata": {"rt": -1000, "stimulus": "/static/audio/wordpool/TWEEZERS.wav", "key_press": -1, "type": "PRES_AUD", "word": "tweezers", "wordID": 1525, "conditions": [18, 1200, "a", 18000], "trial": 1, "serialpos": 10, "trial_type": "single-audio", "trial_index": 65, "time_elapsed": 393587, "internal_node_id": "0.0-47.0"}}, {"uniqueid": "MTK0266:3YGXWBAF71O59KYT4FFQ3ZCJPKU4CB", "current_trial": 66, "dateTime": 1510689118970, "trialdata": {"rt": -1000, "stimulus": "/static/audio/wordpool/HUSBAND.wav", "key_press": -1, "type": "PRES_AUD", "word": "husband", "wordID": 727, "conditions": [18, 1200, "a", 18000], "trial": 1, "serialpos": 11, "trial_type": "single-audio", "trial_index": 66, "time_elapsed": 395777, "internal_node_id": "0.0-48.0"}}, {"uniqueid": "MTK0266:3YGXWBAF71O59KYT4FFQ3ZCJPKU4CB", "current_trial": 67, "dateTime": 1510689121107, "trialdata": {"rt": -1000, "stimulus": "/static/audio/wordpool/GRAPE.wav", "key_press": -1, "type": "PRES_AUD", "word": "grape", "wordID": 653, "conditions": [18, 1200, "a", 18000], "trial": 1, "serialpos": 12, "trial_type": "single-audio", "trial_index": 67, "time_elapsed": 397914, "internal_node_id": "0.0-49.0"}}, {"uniqueid": "MTK0266:3YGXWBAF71O59KYT4FFQ3ZCJPKU4CB", "current_trial": 68, "dateTime": 1510689123142, "trialdata": {"rt": -1000, "stimulus": "/static/audio/wordpool/WARDROBE.wav", "key_press": -1, "type": "PRES_AUD", "word": "wardrobe", "wordID": 1586, "conditions": [18, 1200, "a", 18000], "trial": 1, "serialpos": 13, "trial_type": "single-audio", "trial_index": 68, "time_elapsed": 399947, "internal_node_id": "0.0-50.0"}}, {"uniqueid": "MTK0266:3YGXWBAF71O59KYT4FFQ3ZCJPKU4CB", "current_trial": 69, "dateTime": 1510689125463, "trialdata": {"rt": -1000, "stimulus": "/static/audio/wordpool/BARLEY.wav", "key_press": -1, "type": "PRES_AUD", "word": "barley", "wordID": 87, "conditions": [18, 1200, "a", 18000], "trial": 1, "serialpos": 14, "trial_type": "single-audio", "trial_index": 69, "time_elapsed": 402270, "internal_node_id": "0.0-51.0"}}, {"uniqueid": "MTK0266:3YGXWBAF71O59KYT4FFQ3ZCJPKU4CB", "current_trial": 70, "dateTime": 1510689127616, "trialdata": {"rt": -1000, "stimulus": "/static/audio/wordpool/EXPERT.wav", "key_press": -1, "type": "PRES_AUD", "word": "expert", "wordID": 542, "conditions": [18, 1200, "a", 18000], "trial": 1, "serialpos": 15, "trial_type": "single-audio", "trial_index": 70, "time_elapsed": 404424, "internal_node_id": "0.0-52.0"}}, {"uniqueid": "MTK0266:3YGXWBAF71O59KYT4FFQ3ZCJPKU4CB", "current_trial": 71, "dateTime": 1510689129818, "trialdata": {"rt": -1000, "stimulus": "/static/audio/wordpool/MAILBOX.wav", "key_press": -1, "type": "PRES_AUD", "word": "mailbox", "wordID": 856, "conditions": [18, 1200, "a", 18000], "trial": 1, "serialpos": 16, "trial_type": "single-audio", "trial_index": 71, "time_elapsed": 406626, "internal_node_id": "0.0-53.0"}}, {"uniqueid": "MTK0266:3YGXWBAF71O59KYT4FFQ3ZCJPKU4CB", "current_trial": 72, "dateTime": 1510689131972, "trialdata": {"rt": -1000, "stimulus": "/static/audio/wordpool/SLIME.wav", "key_press": -1, "type": "PRES_AUD", "word": "slime", "wordID": 1326, "conditions": [18, 1200, "a", 18000], "trial": 1, "serialpos": 17, "trial_type": "single-audio", "trial_index": 72, "time_elapsed": 408780, "internal_node_id": "0.0-54.0"}}, {"uniqueid": "MTK0266:3YGXWBAF71O59KYT4FFQ3ZCJPKU4CB", "current_trial": 73, "dateTime": 1510689133193, "trialdata": {"rt": -1, "stimulus": "", "key_press": -1, "type": "PRE_RECALL_DELAY", "trial_type": "single-stim", "trial_index": 73, "time_elapsed": 410001, "internal_node_id": "0.0-55.0-0.0"}}, {"uniqueid": "MTK0266:3YGXWBAF71O59KYT4FFQ3ZCJPKU4CB", "current_trial": 74, "dateTime": 1510689133695, "trialdata": {"rt": -1000, "stimulus": "/static/audio/400Hz.wav", "key_press": -1, "type": "PRE_RECALL_ALERT", "trial_type": "single-audio", "trial_index": 74, "time_elapsed": 410503, "internal_node_id": "0.0-56.0"}}, {"uniqueid": "MTK0266:3YGXWBAF71O59KYT4FFQ3ZCJPKU4CB", "current_trial": 75, "dateTime": 1510689193702, "trialdata": {"rt": [2010, 4395, 8062, 10091, 32218, 51546], "recwords": ["slime", "wardrobe", "witness", "harp", "scalpel", "harp"], "type": "FREE_RECALL", "conditions": [18, 1200, "a", 18000], "trial": 1, "trial_type": "free-recall", "trial_index": 75, "time_elapsed": 470506, "internal_node_id": "0.0-57.0-0.0"}}, {"uniqueid": "MTK0266:3YGXWBAF71O59KYT4FFQ3ZCJPKU4CB", "current_trial": 76, "dateTime": 1510689225684, "trialdata": {"rt": 29972, "key_press": 32, "type": "INSTRUCTIONS", "trial_type": "text", "trial_index": 76, "time_elapsed": 502483, "internal_node_id": "0.0-58.0"}}, {"uniqueid": "MTK0266:3YGXWBAF71O59KYT4FFQ3ZCJPKU4CB", "current_trial": 77, "dateTime": 1510689238693, "trialdata": {"rt": [3913, 6248, 11576], "responses": ["17", "15", "21"], "num1": [4, 9, 8, 8], "num2": [5, 1, 6, 9], "num3": [8, 5, 7, 8], "type": "DISTRACTOR", "conditions": [12, 1600, "v", 12000], "trial": 2, "trial_type": "math-distractor", "trial_index": 77, "time_elapsed": 515500, "internal_node_id": "0.0-59.0"}}, {"uniqueid": "MTK0266:3YGXWBAF71O59KYT4FFQ3ZCJPKU4CB", "current_trial": 78, "dateTime": 1510689241696, "trialdata": {"rt": -1, "stimulus": "<p id=\"stim\">10</p>", "key_press": -1, "trial_type": "single-stim", "trial_index": 78, "time_elapsed": 518503, "internal_node_id": "0.0-60.0-0.0"}}, {"uniqueid": "MTK0266:3YGXWBAF71O59KYT4FFQ3ZCJPKU4CB", "current_trial": 79, "dateTime": 1510689242701, "trialdata": {"rt": -1, "stimulus": "<p id=\"stim\">9</p>", "key_press": -1, "trial_type": "single-stim", "trial_index": 79, "time_elapsed": 519509, "internal_node_id": "0.0-60.0-1.0"}}, {"uniqueid": "MTK0266:3YGXWBAF71O59KYT4FFQ3ZCJPKU4CB", "current_trial": 80, "dateTime": 1510689243702, "trialdata": {"rt": -1, "stimulus": "<p id=\"stim\">8</p>", "key_press": -1, "trial_type": "single-stim", "trial_index": 80, "time_elapsed": 520510, "internal_node_id": "0.0-60.0-2.0"}}, {"uniqueid": "MTK0266:3YGXWBAF71O59KYT4FFQ3ZCJPKU4CB", "current_trial": 81, "dateTime": 1510689244724, "trialdata": {"rt": -1, "stimulus": "<p id=\"stim\">7</p>", "key_press": -1, "trial_type": "single-stim", "trial_index": 81, "time_elapsed": 521532, "internal_node_id": "0.0-60.0-3.0"}}, {"uniqueid": "MTK0266:3YGXWBAF71O59KYT4FFQ3ZCJPKU4CB", "current_trial": 82, "dateTime": 1510689245726, "trialdata": {"rt": -1, "stimulus": "<p id=\"stim\">6</p>", "key_press": -1, "trial_type": "single-stim", "trial_index": 82, "time_elapsed": 522534, "internal_node_id": "0.0-60.0-4.0"}}, {"uniqueid": "MTK0266:3YGXWBAF71O59KYT4FFQ3ZCJPKU4CB", "current_trial": 83, "dateTime": 1510689246727, "trialdata": {"rt": -1, "stimulus": "<p id=\"stim\">5</p>", "key_press": -1, "trial_type": "single-stim", "trial_index": 83, "time_elapsed": 523535, "internal_node_id": "0.0-60.0-5.0"}}, {"uniqueid": "MTK0266:3YGXWBAF71O59KYT4FFQ3ZCJPKU4CB", "current_trial": 84, "dateTime": 1510689247729, "trialdata": {"rt": -1, "stimulus": "<p id=\"stim\">4</p>", "key_press": -1, "trial_type": "single-stim", "trial_index": 84, "time_elapsed": 524537, "internal_node_id": "0.0-60.0-6.0"}}, {"uniqueid": "MTK0266:3YGXWBAF71O59KYT4FFQ3ZCJPKU4CB", "current_trial": 85, "dateTime": 1510689248730, "trialdata": {"rt": -1, "stimulus": "<p id=\"stim\">3</p>", "key_press": -1, "trial_type": "single-stim", "trial_index": 85, "time_elapsed": 525538, "internal_node_id": "0.0-60.0-7.0"}}, {"uniqueid": "MTK0266:3YGXWBAF71O59KYT4FFQ3ZCJPKU4CB", "current_trial": 86, "dateTime": 1510689249732, "trialdata": {"rt": -1, "stimulus": "<p id=\"stim\">2</p>", "key_press": -1, "trial_type": "single-stim", "trial_index": 86, "time_elapsed": 526540, "internal_node_id": "0.0-60.0-8.0"}}, {"uniqueid": "MTK0266:3YGXWBAF71O59KYT4FFQ3ZCJPKU4CB", "current_trial": 87, "dateTime": 1510689250734, "trialdata": {"rt": -1, "stimulus": "<p id=\"stim\">1</p>", "key_press": -1, "trial_type": "single-stim", "trial_index": 87, "time_elapsed": 527542, "internal_node_id": "0.0-60.0-9.0"}}, {"uniqueid": "MTK0266:3YGXWBAF71O59KYT4FFQ3ZCJPKU4CB", "current_trial": 88, "dateTime": 1510689252237, "trialdata": {"rt": -1, "stimulus": "<p id=\"stim\">+</p>", "key_press": -1, "type": "FIXATION", "trial_type": "single-stim", "trial_index": 88, "time_elapsed": 529045, "internal_node_id": "0.0-61.0-0.0"}}, {"uniqueid": "MTK0266:3YGXWBAF71O59KYT4FFQ3ZCJPKU4CB", "current_trial": 89, "dateTime": 1510689253839, "trialdata": {"rt": -1, "stimulus": "<p id=\"stim\">FIDDLE</p>", "key_press": -1, "type": "PRES_VIS", "word": "fiddle", "wordID": 560, "conditions": [12, 1600, "v", 12000], "trial": 2, "serialpos": 0, "trial_type": "single-stim", "trial_index": 89, "time_elapsed": 530647, "internal_node_id": "0.0-62.0"}}, {"uniqueid": "MTK0266:3YGXWBAF71O59KYT4FFQ3ZCJPKU4CB", "current_trial": 90, "dateTime": 1510689256531, "trialdata": {"rt": -1, "stimulus": "<p id=\"stim\">CHIPMUNK</p>", "key_press": -1, "type": "PRES_VIS", "word": "chipmunk", "wordID": 303, "conditions": [12, 1600, "v", 12000], "trial": 2, "serialpos": 1, "trial_type": "single-stim", "trial_index": 90, "time_elapsed": 533339, "internal_node_id": "0.0-63.0"}}, {"uniqueid": "MTK0266:3YGXWBAF71O59KYT4FFQ3ZCJPKU4CB", "current_trial": 91, "dateTime": 1510689259252, "trialdata": {"rt": -1, "stimulus": "<p id=\"stim\">BEAVER</p>", "key_press": -1, "type": "PRES_VIS", "word": "beaver", "wordID": 108, "conditions": [12, 1600, "v", 12000], "trial": 2, "serialpos": 2, "trial_type": "single-stim", "trial_index": 91, "time_elapsed": 536060, "internal_node_id": "0.0-64.0"}}, {"uniqueid": "MTK0266:3YGXWBAF71O59KYT4FFQ3ZCJPKU4CB", "current_trial": 92, "dateTime": 1510689261856, "trialdata": {"rt": -1, "stimulus": "<p id=\"stim\">BABY</p>", "key_press": -1, "type": "PRES_VIS", "word": "baby", "wordID": 63, "conditions": [12, 1600, "v", 12000], "trial": 2, "serialpos": 3, "trial_type": "single-stim", "trial_index": 92, "time_elapsed": 538664, "internal_node_id": "0.0-65.0"}}, {"uniqueid": "MTK0266:3YGXWBAF71O59KYT4FFQ3ZCJPKU4CB", "current_trial": 93, "dateTime": 1510689264452, "trialdata": {"rt": -1, "stimulus": "<p id=\"stim\">SADDLE</p>", "key_press": -1, "type": "PRES_VIS", "word": "saddle", "wordID": 1220, "conditions": [12, 1600, "v", 12000], "trial": 2, "serialpos": 4, "trial_type": "single-stim", "trial_index": 93, "time_elapsed": 541260, "internal_node_id": "0.0-66.0"}}, {"uniqueid": "MTK0266:3YGXWBAF71O59KYT4FFQ3ZCJPKU4CB", "current_trial": 94, "dateTime": 1510689266947, "trialdata": {"rt": -1, "stimulus": "<p id=\"stim\">CASHEW</p>", "key_press": -1, "type": "PRES_VIS", "word": "cashew", "wordID": 252, "conditions": [12, 1600, "v", 12000], "trial": 2, "serialpos": 5, "trial_type": "single-stim", "trial_index": 94, "time_elapsed": 543755, "internal_node_id": "0.0-67.0"}}, {"uniqueid": "MTK0266:3YGXWBAF71O59KYT4FFQ3ZCJPKU4CB", "current_trial": 95, "dateTime": 1510689269722, "trialdata": {"rt": -1, "stimulus": "<p id=\"stim\">PUPPY</p>", "key_press": -1, "type": "PRES_VIS", "word": "puppy", "wordID": 1143, "conditions": [12, 1600, "v", 12000], "trial": 2, "serialpos": 6, "trial_type": "single-stim", "trial_index": 95, "time_elapsed": 546530, "internal_node_id": "0.0-68.0"}}, {"uniqueid": "MTK0266:3YGXWBAF71O59KYT4FFQ3ZCJPKU4CB", "current_trial": 96, "dateTime": 1510689272423, "trialdata": {"rt": -1, "stimulus": "<p id=\"stim\">PIANO</p>", "key_press": -1, "type": "PRES_VIS", "word": "piano", "wordID": 1056, "conditions": [12, 1600, "v", 12000], "trial": 2, "serialpos": 7, "trial_type": "single-stim", "trial_index": 96, "time_elapsed": 549231, "internal_node_id": "0.0-69.0"}}, {"uniqueid": "MTK0266:3YGXWBAF71O59KYT4FFQ3ZCJPKU4CB", "current_trial": 97, "dateTime": 1510689275083, "trialdata": {"rt": -1, "stimulus": "<p id=\"stim\">VELVET</p>", "key_press": -1, "type": "PRES_VIS", "word": "velvet", "wordID": 1554, "conditions": [12, 1600, "v", 12000], "trial": 2, "serialpos": 8, "trial_type": "single-stim", "trial_index": 97, "time_elapsed": 551888, "internal_node_id": "0.0-70.0"}}, {"uniqueid": "MTK0266:3YGXWBAF71O59KYT4FFQ3ZCJPKU4CB", "current_trial": 98, "dateTime": 1510689277836, "trialdata": {"rt": -1, "stimulus": "<p id=\"stim\">TERMITE</p>", "key_press": -1, "type": "PRES_VIS", "word": "termite", "wordID": 1450, "conditions": [12, 1600, "v", 12000], "trial": 2, "serialpos": 9, "trial_type": "single-stim", "trial_index": 98, "time_elapsed": 554644, "internal_node_id": "0.0-71.0"}}, {"uniqueid": "MTK0266:3YGXWBAF71O59KYT4FFQ3ZCJPKU4CB", "current_trial": 99, "dateTime": 1510689280631, "trialdata": {"rt": -1, "stimulus": "<p id=\"stim\">BEAKER</p>", "key_press": -1, "type": "PRES_VIS", "word": "beaker", "wordID": 103, "conditions": [12, 1600, "v", 12000], "trial": 2, "serialpos": 10, "trial_type": "single-stim", "trial_index": 99, "time_elapsed": 557439, "internal_node_id": "0.0-72.0"}}, {"uniqueid": "MTK0266:3YGXWBAF71O59KYT4FFQ3ZCJPKU4CB", "current_trial": 100, "dateTime": 1510689283283, "trialdata": {"rt": -1, "stimulus": "<p id=\"stim\">STALLION</p>", "key_press": -1, "type": "PRES_VIS", "word": "stallion", "wordID": 1368, "conditions": [12, 1600, "v", 12000], "trial": 2, "serialpos": 11, "trial_type": "single-stim", "trial_index": 100, "time_elapsed": 560091, "internal_node_id": "0.0-73.0"}}, {"uniqueid": "MTK0266:3YGXWBAF71O59KYT4FFQ3ZCJPKU4CB", "current_trial": 101, "dateTime": 1510689285693, "trialdata": {"rt": -1, "stimulus": "", "key_press": -1, "type": "PRE_RECALL_DELAY", "trial_type": "single-stim", "trial_index": 101, "time_elapsed": 562501, "internal_node_id": "0.0-74.0-0.0"}}, {"uniqueid": "MTK0266:3YGXWBAF71O59KYT4FFQ3ZCJPKU4CB", "current_trial": 102, "dateTime": 1510689286196, "trialdata": {"rt": -1000, "stimulus": "/static/audio/400Hz.wav", "key_press": -1, "type": "PRE_RECALL_ALERT", "trial_type": "single-audio", "trial_index": 102, "time_elapsed": 563003, "internal_node_id": "0.0-75.0"}}, {"uniqueid": "MTK0266:3YGXWBAF71O59KYT4FFQ3ZCJPKU4CB", "current_trial": 103, "dateTime": 1510689346203, "trialdata": {"rt": [2246, 3141, 4422, 6197, 7845, 9430, 10406, 24582, 58533], "recwords": ["happy", "baby", "beaver", "chipmunk", "beaker", "stallion", "happy", "baby", "happy"], "type": "FREE_RECALL", "conditions": [12, 1600, "v", 12000], "trial": 2, "trial_type": "free-recall", "trial_index": 103, "time_elapsed": 623007, "internal_node_id": "0.0-76.0-0.0"}}, {"uniqueid": "MTK0266:3YGXWBAF71O59KYT4FFQ3ZCJPKU4CB", "current_trial": 104, "dateTime": 1510689349228, "trialdata": {"rt": 1022, "key_press": 32, "type": "INSTRUCTIONS", "trial_type": "text", "trial_index": 104, "time_elapsed": 626035, "internal_node_id": "0.0-77.0"}}, {"uniqueid": "MTK0266:3YGXWBAF71O59KYT4FFQ3ZCJPKU4CB", "current_trial": 105, "dateTime": 1510689363234, "trialdata": {"rt": [7134, 9293, 10894], "responses": ["12", "14", "13"], "num1": [7, 5, 2, 2], "num2": [4, 4, 8, 5], "num3": [1, 5, 3, 2], "type": "DISTRACTOR", "conditions": [24, 800, "a", 12000], "trial": 3, "trial_type": "math-distractor", "trial_index": 105, "time_elapsed": 640041, "internal_node_id": "0.0-78.0"}}, {"uniqueid": "MTK0266:3YGXWBAF71O59KYT4FFQ3ZCJPKU4CB", "current_trial": 106, "dateTime": 1510689366237, "trialdata": {"rt": -1, "stimulus": "<p id=\"stim\">10</p>", "key_press": -1, "trial_type": "single-stim", "trial_index": 106, "time_elapsed": 643045, "internal_node_id": "0.0-79.0-0.0"}}, {"uniqueid": "MTK0266:3YGXWBAF71O59KYT4FFQ3ZCJPKU4CB", "current_trial": 107, "dateTime": 1510689367248, "trialdata": {"rt": -1, "stimulus": "<p id=\"stim\">9</p>", "key_press": -1, "trial_type": "single-stim", "trial_index": 107, "time_elapsed": 644056, "internal_node_id": "0.0-79.0-1.0"}}, {"uniqueid": "MTK0266:3YGXWBAF71O59KYT4FFQ3ZCJPKU4CB", "current_trial": 108, "dateTime": 1510689368249, "trialdata": {"rt": -1, "stimulus": "<p id=\"stim\">8</p>", "key_press": -1, "trial_type": "single-stim", "trial_index": 108, "time_elapsed": 645057, "internal_node_id": "0.0-79.0-2.0"}}, {"uniqueid": "MTK0266:3YGXWBAF71O59KYT4FFQ3ZCJPKU4CB", "current_trial": 109, "dateTime": 1510689369251, "trialdata": {"rt": -1, "stimulus": "<p id=\"stim\">7</p>", "key_press": -1, "trial_type": "single-stim", "trial_index": 109, "time_elapsed": 646059, "internal_node_id": "0.0-79.0-3.0"}}, {"uniqueid": "MTK0266:3YGXWBAF71O59KYT4FFQ3ZCJPKU4CB", "current_trial": 110, "dateTime": 1510689370252, "trialdata": {"rt": -1, "stimulus": "<p id=\"stim\">6</p>", "key_press": -1, "trial_type": "single-stim", "trial_index": 110, "time_elapsed": 647060, "internal_node_id": "0.0-79.0-4.0"}}, {"uniqueid": "MTK0266:3YGXWBAF71O59KYT4FFQ3ZCJPKU4CB", "current_trial": 111, "dateTime": 1510689371254, "trialdata": {"rt": -1, "stimulus": "<p id=\"stim\">5</p>", "key_press": -1, "trial_type": "single-stim", "trial_index": 111, "time_elapsed": 648062, "internal_node_id": "0.0-79.0-5.0"}}, {"uniqueid": "MTK0266:3YGXWBAF71O59KYT4FFQ3ZCJPKU4CB", "current_trial": 112, "dateTime": 1510689372255, "trialdata": {"rt": -1, "stimulus": "<p id=\"stim\">4</p>", "key_press": -1, "trial_type": "single-stim", "trial_index": 112, "time_elapsed": 649063, "internal_node_id": "0.0-79.0-6.0"}}, {"uniqueid": "MTK0266:3YGXWBAF71O59KYT4FFQ3ZCJPKU4CB", "current_trial": 113, "dateTime": 1510689373257, "trialdata": {"rt": -1, "stimulus": "<p id=\"stim\">3</p>", "key_press": -1, "trial_type": "single-stim", "trial_index": 113, "time_elapsed": 650065, "internal_node_id": "0.0-79.0-7.0"}}, {"uniqueid": "MTK0266:3YGXWBAF71O59KYT4FFQ3ZCJPKU4CB", "current_trial": 114, "dateTime": 1510689374264, "trialdata": {"rt": -1, "stimulus": "<p id=\"stim\">2</p>", "key_press": -1, "trial_type": "single-stim", "trial_index": 114, "time_elapsed": 651072, "internal_node_id": "0.0-79.0-8.0"}}, {"uniqueid": "MTK0266:3YGXWBAF71O59KYT4FFQ3ZCJPKU4CB", "current_trial": 115, "dateTime": 1510689375266, "trialdata": {"rt": -1, "stimulus": "<p id=\"stim\">1</p>", "key_press": -1, "trial_type": "single-stim", "trial_index": 115, "time_elapsed": 652073, "internal_node_id": "0.0-79.0-9.0"}}, {"uniqueid": "MTK0266:3YGXWBAF71O59KYT4FFQ3ZCJPKU4CB", "current_trial": 116, "dateTime": 1510689376768, "trialdata": {"rt": -1, "stimulus": "<p id=\"stim\">+</p>", "key_press": -1, "type": "FIXATION", "trial_type": "single-stim", "trial_index": 116, "time_elapsed": 653576, "internal_node_id": "0.0-80.0-0.0"}}, {"uniqueid": "MTK0266:3YGXWBAF71O59KYT4FFQ3ZCJPKU4CB", "current_trial": 117, "dateTime": 1510689378573, "trialdata": {"rt": -1000, "stimulus": "/static/audio/wordpool/CRAB.wav", "key_press": -1, "type": "PRES_AUD", "word": "crab", "wordID": 396, "conditions": [24, 800, "a", 12000], "trial": 3, "serialpos": 0, "trial_type": "single-audio", "trial_index": 117, "time_elapsed": 655381, "internal_node_id": "0.0-81.0"}}, {"uniqueid": "MTK0266:3YGXWBAF71O59KYT4FFQ3ZCJPKU4CB", "current_trial": 118, "dateTime": 1510689380290, "trialdata": {"rt": -1000, "stimulus": "/static/audio/wordpool/ACTOR.wav", "key_press": -1, "type": "PRES_AUD", "word": "actor", "wordID": 4, "conditions": [24, 800, "a", 12000], "trial": 3, "serialpos": 1, "trial_type": "single-audio", "trial_index": 118, "time_elapsed": 657098, "internal_node_id": "0.0-82.0"}}, {"uniqueid": "MTK0266:3YGXWBAF71O59KYT4FFQ3ZCJPKU4CB", "current_trial": 119, "dateTime": 1510689382047, "trialdata": {"rt": -1000, "stimulus": "/static/audio/wordpool/BATHTUB.wav", "key_press": -1, "type": "PRES_AUD", "word": "bathtub", "wordID": 99, "conditions": [24, 800, "a", 12000], "trial": 3, "serialpos": 2, "trial_type": "single-audio", "trial_index": 119, "time_elapsed": 658855, "internal_node_id": "0.0-83.0"}}, {"uniqueid": "MTK0266:3YGXWBAF71O59KYT4FFQ3ZCJPKU4CB", "current_trial": 120, "dateTime": 1510689383884, "trialdata": {"rt": -1000, "stimulus": "/static/audio/wordpool/SWIMMER.wav", "key_press": -1, "type": "PRES_AUD", "word": "swimmer", "wordID": 1419, "conditions": [24, 800, "a", 12000], "trial": 3, "serialpos": 3, "trial_type": "single-audio", "trial_index": 120, "time_elapsed": 660692, "internal_node_id": "0.0-84.0"}}, {"uniqueid": "MTK0266:3YGXWBAF71O59KYT4FFQ3ZCJPKU4CB", "current_trial": 121, "dateTime": 1510689385601, "trialdata": {"rt": -1000, "stimulus": "/static/audio/wordpool/FILM.wav", "key_press": -1, "type": "PRES_AUD", "word": "film", "wordID": 564, "conditions": [24, 800, "a", 12000], "trial": 3, "serialpos": 4, "trial_type": "single-audio", "trial_index": 121, "time_elapsed": 662408, "internal_node_id": "0.0-85.0"}}, {"uniqueid": "MTK0266:3YGXWBAF71O59KYT4FFQ3ZCJPKU4CB", "current_trial": 122, "dateTime": 1510689387555, "trialdata": {"rt": -1000, "stimulus": "/static/audio/wordpool/SODA.wav", "key_press": -1, "type": "PRES_AUD", "word": "soda", "wordID": 1340, "conditions": [24, 800, "a", 12000], "trial": 3, "serialpos": 5, "trial_type": "single-audio", "trial_index": 122, "time_elapsed": 664363, "internal_node_id": "0.0-86.0"}}, {"uniqueid": "MTK0266:3YGXWBAF71O59KYT4FFQ3ZCJPKU4CB", "current_trial": 123, "dateTime": 1510689389212, "trialdata": {"rt": -1000, "stimulus": "/static/audio/wordpool/COFFEE.wav", "key_press": -1, "type": "PRES_AUD", "word": "coffee", "wordID": 340, "conditions": [24, 800, "a", 12000], "trial": 3, "serialpos": 6, "trial_type": "single-audio", "trial_index": 123, "time_elapsed": 666020, "internal_node_id": "0.0-87.0"}}, {"uniqueid": "MTK0266:3YGXWBAF71O59KYT4FFQ3ZCJPKU4CB", "current_trial": 124, "dateTime": 1510689391106, "trialdata": {"rt": -1000, "stimulus": "/static/audio/wordpool/DRAGON.wav", "key_press": -1, "type": "PRES_AUD", "word": "dragon", "wordID": 491, "conditions": [24, 800, "a", 12000], "trial": 3, "serialpos": 7, "trial_type": "single-audio", "trial_index": 124, "time_elapsed": 667914, "internal_node_id": "0.0-88.0"}}, {"uniqueid": "MTK0266:3YGXWBAF71O59KYT4FFQ3ZCJPKU4CB", "current_trial": 125, "dateTime": 1510689392950, "trialdata": {"rt": -1000, "stimulus": "/static/audio/wordpool/SUNRISE.wav", "key_press": -1, "type": "PRES_AUD", "word": "sunrise", "wordID": 1406, "conditions": [24, 800, "a", 12000], "trial": 3, "serialpos": 8, "trial_type": "single-audio", "trial_index": 125, "time_elapsed": 669758, "internal_node_id": "0.0-89.0"}}, {"uniqueid": "MTK0266:3YGXWBAF71O59KYT4FFQ3ZCJPKU4CB", "current_trial": 126, "dateTime": 1510689394747, "trialdata": {"rt": -1000, "stimulus": "/static/audio/wordpool/SKILLET.wav", "key_press": -1, "type": "PRES_AUD", "word": "skillet", "wordID": 1316, "conditions": [24, 800, "a", 12000], "trial": 3, "serialpos": 9, "trial_type": "single-audio", "trial_index": 126, "time_elapsed": 671555, "internal_node_id": "0.0-90.0"}}, {"uniqueid": "MTK0266:3YGXWBAF71O59KYT4FFQ3ZCJPKU4CB", "current_trial": 127, "dateTime": 1510689396535, "trialdata": {"rt": -1000, "stimulus": "/static/audio/wordpool/CLOTHES.wav", "key_press": -1, "type": "PRES_AUD", "word": "clothes", "wordID": 326, "conditions": [24, 800, "a", 12000], "trial": 3, "serialpos": 10, "trial_type": "single-audio", "trial_index": 127, "time_elapsed": 673343, "internal_node_id": "0.0-91.0"}}, {"uniqueid": "MTK0266:3YGXWBAF71O59KYT4FFQ3ZCJPKU4CB", "current_trial": 128, "dateTime": 1510689398207, "trialdata": {"rt": -1000, "stimulus": "/static/audio/wordpool/AIRPORT.wav", "key_press": -1, "type": "PRES_AUD", "word": "airport", "wordID": 12, "conditions": [24, 800, "a", 12000], "trial": 3, "serialpos": 11, "trial_type": "single-audio", "trial_index": 128, "time_elapsed": 675015, "internal_node_id": "0.0-92.0"}}, {"uniqueid": "MTK0266:3YGXWBAF71O59KYT4FFQ3ZCJPKU4CB", "current_trial": 129, "dateTime": 1510689400037, "trialdata": {"rt": -1000, "stimulus": "/static/audio/wordpool/ZEBRA.wav", "key_press": -1, "type": "PRES_AUD", "word": "zebra", "wordID": 1634, "conditions": [24, 800, "a", 12000], "trial": 3, "serialpos": 12, "trial_type": "single-audio", "trial_index": 129, "time_elapsed": 676844, "internal_node_id": "0.0-93.0"}}, {"uniqueid": "MTK0266:3YGXWBAF71O59KYT4FFQ3ZCJPKU4CB", "current_trial": 130, "dateTime": 1510689401946, "trialdata": {"rt": -1000, "stimulus": "/static/audio/wordpool/GRILL.wav", "key_press": -1, "type": "PRES_AUD", "word": "grill", "wordID": 660, "conditions": [24, 800, "a", 12000], "trial": 3, "serialpos": 13, "trial_type": "single-audio", "trial_index": 130, "time_elapsed": 678754, "internal_node_id": "0.0-94.0"}}, {"uniqueid": "MTK0266:3YGXWBAF71O59KYT4FFQ3ZCJPKU4CB", "current_trial": 131, "dateTime": 1510689403577, "trialdata": {"rt": -1000, "stimulus": "/static/audio/wordpool/TAXI.wav", "key_press": -1, "type": "PRES_AUD", "word": "taxi", "wordID": 1437, "conditions": [24, 800, "a", 12000], "trial": 3, "serialpos": 14, "trial_type": "single-audio", "trial_index": 131, "time_elapsed": 680385, "internal_node_id": "0.0-95.0"}}, {"uniqueid": "MTK0266:3YGXWBAF71O59KYT4FFQ3ZCJPKU4CB", "current_trial": 132, "dateTime": 1510689405541, "trialdata": {"rt": -1000, "stimulus": "/static/audio/wordpool/FINGER.wav", "key_press": -1, "type": "PRES_AUD", "word": "finger", "wordID": 566, "conditions": [24, 800, "a", 12000], "trial": 3, "serialpos": 15, "trial_type": "single-audio", "trial_index": 132, "time_elapsed": 682349, "internal_node_id": "0.0-96.0"}}, {"uniqueid": "MTK0266:3YGXWBAF71O59KYT4FFQ3ZCJPKU4CB", "current_trial": 133, "dateTime": 1510689407314, "trialdata": {"rt": -1000, "stimulus": "/static/audio/wordpool/COCKTAIL.wav", "key_press": -1, "type": "PRES_AUD", "word": "cocktail", "wordID": 337, "conditions": [24, 800, "a", 12000], "trial": 3, "serialpos": 16, "trial_type": "single-audio", "trial_index": 133, "time_elapsed": 684122, "internal_node_id": "0.0-97.0"}}, {"uniqueid": "MTK0266:3YGXWBAF71O59KYT4FFQ3ZCJPKU4CB", "current_trial": 134, "dateTime": 1510689409260, "trialdata": {"rt": -1000, "stimulus": "/static/audio/wordpool/LOVER.wav", "key_press": -1, "type": "PRES_AUD", "word": "lover", "wordID": 845, "conditions": [24, 800, "a", 12000], "trial": 3, "serialpos": 17, "trial_type": "single-audio", "trial_index": 134, "time_elapsed": 686068, "internal_node_id": "0.0-98.0"}}, {"uniqueid": "MTK0266:3YGXWBAF71O59KYT4FFQ3ZCJPKU4CB", "current_trial": 135, "dateTime": 1510689411023, "trialdata": {"rt": -1000, "stimulus": "/static/audio/wordpool/COOK.wav", "key_press": -1, "type": "PRES_AUD", "word": "cook", "wordID": 371, "conditions": [24, 800, "a", 12000], "trial": 3, "serialpos": 18, "trial_type": "single-audio", "trial_index": 135, "time_elapsed": 687831, "internal_node_id": "0.0-99.0"}}, {"uniqueid": "MTK0266:3YGXWBAF71O59KYT4FFQ3ZCJPKU4CB", "current_trial": 136, "dateTime": 1510689412627, "trialdata": {"rt": -1000, "stimulus": "/static/audio/wordpool/RABBIT.wav", "key_press": -1, "type": "PRES_AUD", "word": "rabbit", "wordID": 1151, "conditions": [24, 800, "a", 12000], "trial": 3, "serialpos": 19, "trial_type": "single-audio", "trial_index": 136, "time_elapsed": 689434, "internal_node_id": "0.0-100.0"}}, {"uniqueid": "MTK0266:3YGXWBAF71O59KYT4FFQ3ZCJPKU4CB", "current_trial": 137, "dateTime": 1510689414249, "trialdata": {"rt": -1000, "stimulus": "/static/audio/wordpool/PIGEON.wav", "key_press": -1, "type": "PRES_AUD", "word": "pigeon", "wordID": 1064, "conditions": [24, 800, "a", 12000], "trial": 3, "serialpos": 20, "trial_type": "single-audio", "trial_index": 137, "time_elapsed": 691056, "internal_node_id": "0.0-101.0"}}, {"uniqueid": "MTK0266:3YGXWBAF71O59KYT4FFQ3ZCJPKU4CB", "current_trial": 138, "dateTime": 1510689415955, "trialdata": {"rt": -1000, "stimulus": "/static/audio/wordpool/BUTCHER.wav", "key_press": -1, "type": "PRES_AUD", "word": "butcher", "wordID": 202, "conditions": [24, 800, "a", 12000], "trial": 3, "serialpos": 21, "trial_type": "single-audio", "trial_index": 138, "time_elapsed": 692762, "internal_node_id": "0.0-102.0"}}, {"uniqueid": "MTK0266:3YGXWBAF71O59KYT4FFQ3ZCJPKU4CB", "current_trial": 139, "dateTime": 1510689417811, "trialdata": {"rt": -1000, "stimulus": "/static/audio/wordpool/FLESH.wav", "key_press": -1, "type": "PRES_AUD", "word": "flesh", "wordID": 578, "conditions": [24, 800, "a", 12000], "trial": 3, "serialpos": 22, "trial_type": "single-audio", "trial_index": 139, "time_elapsed": 694619, "internal_node_id": "0.0-103.0"}}, {"uniqueid": "MTK0266:3YGXWBAF71O59KYT4FFQ3ZCJPKU4CB", "current_trial": 140, "dateTime": 1510689419481, "trialdata": {"rt": -1000, "stimulus": "/static/audio/wordpool/SLIDE.wav", "key_press": -1, "type": "PRES_AUD", "word": "slide", "wordID": 1325, "conditions": [24, 800, "a", 12000], "trial": 3, "serialpos": 23, "trial_type": "single-audio", "trial_index": 140, "time_elapsed": 696289, "internal_node_id": "0.0-104.0"}}, {"uniqueid": "MTK0266:3YGXWBAF71O59KYT4FFQ3ZCJPKU4CB", "current_trial": 141, "dateTime": 1510689420738, "trialdata": {"rt": -1, "stimulus": "", "key_press": -1, "type": "PRE_RECALL_DELAY", "trial_type": "single-stim", "trial_index": 141, "time_elapsed": 697546, "internal_node_id": "0.0-105.0-0.0"}}, {"uniqueid": "MTK0266:3YGXWBAF71O59KYT4FFQ3ZCJPKU4CB", "current_trial": 142, "dateTime": 1510689421240, "trialdata": {"rt": -1000, "stimulus": "/static/audio/400Hz.wav", "key_press": -1, "type": "PRE_RECALL_ALERT", "trial_type": "single-audio", "trial_index": 142, "time_elapsed": 698048, "internal_node_id": "0.0-106.0"}}, {"uniqueid": "MTK0266:3YGXWBAF71O59KYT4FFQ3ZCJPKU4CB", "current_trial": 143, "dateTime": 1510689481251, "trialdata": {"rt": [1760, 2976, 4928, 7921, 18229, 20928, 32496, 34688, 35920], "recwords": ["slime", "butcher", "actress", "flesh", "cook", "knife", "princess", "broom", "zebra"], "type": "FREE_RECALL", "conditions": [24, 800, "a", 12000], "trial": 3, "trial_type": "free-recall", "trial_index": 143, "time_elapsed": 758053, "internal_node_id": "0.0-107.0-0.0"}}, {"uniqueid": "MTK0266:3YGXWBAF71O59KYT4FFQ3ZCJPKU4CB", "current_trial": 144, "dateTime": 1510689484557, "trialdata": {"rt": 1304, "key_press": 32, "type": "INSTRUCTIONS", "trial_type": "text", "trial_index": 144, "time_elapsed": 761364, "internal_node_id": "0.0-108.0"}}, {"uniqueid": "MTK0266:3YGXWBAF71O59KYT4FFQ3ZCJPKU4CB", "current_trial": 145, "dateTime": 1510689510563, "trialdata": {"rt": [3484, 6623, 8924, 11996, 15148, 18300, 19580, 23068], "responses": ["11", "18", "13", "23", "17", "20", "6", "17"], "num1": [7, 7, 6, 6, 3, 5, 1, 7, 7], "num2": [3, 9, 3, 9, 8, 8, 4, 8, 7], "num3": [1, 2, 4, 8, 6, 7, 1, 2, 4], "type": "DISTRACTOR", "conditions": [12, 1600, "a", 24000], "trial": 4, "trial_type": "math-distractor", "trial_index": 145, "time_elapsed": 787369, "internal_node_id": "0.0-109.0"}}, {"uniqueid": "MTK0266:3YGXWBAF71O59KYT4FFQ3ZCJPKU4CB", "current_trial": 146, "dateTime": 1510689513565, "trialdata": {"rt": -1, "stimulus": "<p id=\"stim\">10</p>", "key_press": -1, "trial_type": "single-stim", "trial_index": 146, "time_elapsed": 790372, "internal_node_id": "0.0-110.0-0.0"}}, {"uniqueid": "MTK0266:3YGXWBAF71O59KYT4FFQ3ZCJPKU4CB", "current_trial": 147, "dateTime": 1510689514567, "trialdata": {"rt": -1, "stimulus": "<p id=\"stim\">9</p>", "key_press": -1, "trial_type": "single-stim", "trial_index": 147, "time_elapsed": 791375, "internal_node_id": "0.0-110.0-1.0"}}, {"uniqueid": "MTK0266:3YGXWBAF71O59KYT4FFQ3ZCJPKU4CB", "current_trial": 148, "dateTime": 1510689515569, "trialdata": {"rt": -1, "stimulus": "<p id=\"stim\">8</p>", "key_press": -1, "trial_type": "single-stim", "trial_index": 148, "time_elapsed": 792377, "internal_node_id": "0.0-110.0-2.0"}}, {"uniqueid": "MTK0266:3YGXWBAF71O59KYT4FFQ3ZCJPKU4CB", "current_trial": 149, "dateTime": 1510689516571, "trialdata": {"rt": -1, "stimulus": "<p id=\"stim\">7</p>", "key_press": -1, "trial_type": "single-stim", "trial_index": 149, "time_elapsed": 793378, "internal_node_id": "0.0-110.0-3.0"}}, {"uniqueid": "MTK0266:3YGXWBAF71O59KYT4FFQ3ZCJPKU4CB", "current_trial": 150, "dateTime": 1510689517572, "trialdata": {"rt": -1, "stimulus": "<p id=\"stim\">6</p>", "key_press": -1, "trial_type": "single-stim", "trial_index": 150, "time_elapsed": 794380, "internal_node_id": "0.0-110.0-4.0"}}, {"uniqueid": "MTK0266:3YGXWBAF71O59KYT4FFQ3ZCJPKU4CB", "current_trial": 151, "dateTime": 1510689518573, "trialdata": {"rt": -1, "stimulus": "<p id=\"stim\">5</p>", "key_press": -1, "trial_type": "single-stim", "trial_index": 151, "time_elapsed": 795381, "internal_node_id": "0.0-110.0-5.0"}}, {"uniqueid": "MTK0266:3YGXWBAF71O59KYT4FFQ3ZCJPKU4CB", "current_trial": 152, "dateTime": 1510689519576, "trialdata": {"rt": -1, "stimulus": "<p id=\"stim\">4</p>", "key_press": -1, "trial_type": "single-stim", "trial_index": 152, "time_elapsed": 796384, "internal_node_id": "0.0-110.0-6.0"}}, {"uniqueid": "MTK0266:3YGXWBAF71O59KYT4FFQ3ZCJPKU4CB", "current_trial": 153, "dateTime": 1510689520578, "trialdata": {"rt": -1, "stimulus": "<p id=\"stim\">3</p>", "key_press": -1, "trial_type": "single-stim", "trial_index": 153, "time_elapsed": 797386, "internal_node_id": "0.0-110.0-7.0"}}, {"uniqueid": "MTK0266:3YGXWBAF71O59KYT4FFQ3ZCJPKU4CB", "current_trial": 154, "dateTime": 1510689521589, "trialdata": {"rt": -1, "stimulus": "<p id=\"stim\">2</p>", "key_press": -1, "trial_type": "single-stim", "trial_index": 154, "time_elapsed": 798397, "internal_node_id": "0.0-110.0-8.0"}}, {"uniqueid": "MTK0266:3YGXWBAF71O59KYT4FFQ3ZCJPKU4CB", "current_trial": 155, "dateTime": 1510689522592, "trialdata": {"rt": -1, "stimulus": "<p id=\"stim\">1</p>", "key_press": -1, "trial_type": "single-stim", "trial_index": 155, "time_elapsed": 799399, "internal_node_id": "0.0-110.0-9.0"}}, {"uniqueid": "MTK0266:3YGXWBAF71O59KYT4FFQ3ZCJPKU4CB", "current_trial": 156, "dateTime": 1510689524094, "trialdata": {"rt": -1, "stimulus": "<p id=\"stim\">+</p>", "key_press": -1, "type": "FIXATION", "trial_type": "single-stim", "trial_index": 156, "time_elapsed": 800901, "internal_node_id": "0.0-111.0-0.0"}}, {"uniqueid": "MTK0266:3YGXWBAF71O59KYT4FFQ3ZCJPKU4CB", "current_trial": 157, "dateTime": 1510689526749, "trialdata": {"rt": -1000, "stimulus": "/static/audio/wordpool/IGLOO.wav", "key_press": -1, "type": "PRES_AUD", "word": "igloo", "wordID": 733, "conditions": [12, 1600, "a", 24000], "trial": 4, "serialpos": 0, "trial_type": "single-audio", "trial_index": 157, "time_elapsed": 803556, "internal_node_id": "0.0-112.0"}}, {"uniqueid": "MTK0266:3YGXWBAF71O59KYT4FFQ3ZCJPKU4CB", "current_trial": 158, "dateTime": 1510689529382, "trialdata": {"rt": -1000, "stimulus": "/static/audio/wordpool/LUNCH.wav", "key_press": -1, "type": "PRES_AUD", "word": "lunch", "wordID": 848, "conditions": [12, 1600, "a", 24000], "trial": 4, "serialpos": 1, "trial_type": "single-audio", "trial_index": 158, "time_elapsed": 806187, "internal_node_id": "0.0-113.0"}}, {"uniqueid": "MTK0266:3YGXWBAF71O59KYT4FFQ3ZCJPKU4CB", "current_trial": 159, "dateTime": 1510689531907, "trialdata": {"rt": -1000, "stimulus": "/static/audio/wordpool/CARROT.wav", "key_press": -1, "type": "PRES_AUD", "word": "carrot", "wordID": 248, "conditions": [12, 1600, "a", 24000], "trial": 4, "serialpos": 2, "trial_type": "single-audio", "trial_index": 159, "time_elapsed": 808715, "internal_node_id": "0.0-114.0"}}, {"uniqueid": "MTK0266:3YGXWBAF71O59KYT4FFQ3ZCJPKU4CB", "current_trial": 160, "dateTime": 1510689534647, "trialdata": {"rt": -1000, "stimulus": "/static/audio/wordpool/SWORD.wav", "key_press": -1, "type": "PRES_AUD", "word": "sword", "wordID": 1422, "conditions": [12, 1600, "a", 24000], "trial": 4, "serialpos": 3, "trial_type": "single-audio", "trial_index": 160, "time_elapsed": 811455, "internal_node_id": "0.0-115.0"}}, {"uniqueid": "MTK0266:3YGXWBAF71O59KYT4FFQ3ZCJPKU4CB", "current_trial": 161, "dateTime": 1510689537329, "trialdata": {"rt": -1000, "stimulus": "/static/audio/wordpool/MAMMAL.wav", "key_press": -1, "type": "PRES_AUD", "word": "mammal", "wordID": 860, "conditions": [12, 1600, "a", 24000], "trial": 4, "serialpos": 4, "trial_type": "single-audio", "trial_index": 161, "time_elapsed": 814136, "internal_node_id": "0.0-116.0"}}, {"uniqueid": "MTK0266:3YGXWBAF71O59KYT4FFQ3ZCJPKU4CB", "current_trial": 162, "dateTime": 1510689539755, "trialdata": {"rt": -1000, "stimulus": "/static/audio/wordpool/KITCHEN.wav", "key_press": -1, "type": "PRES_AUD", "word": "kitchen", "wordID": 777, "conditions": [12, 1600, "a", 24000], "trial": 4, "serialpos": 5, "trial_type": "single-audio", "trial_index": 162, "time_elapsed": 816563, "internal_node_id": "0.0-117.0"}}, {"uniqueid": "MTK0266:3YGXWBAF71O59KYT4FFQ3ZCJPKU4CB", "current_trial": 163, "dateTime": 1510689542454, "trialdata": {"rt": -1000, "stimulus": "/static/audio/wordpool/DRAWING.wav", "key_press": -1, "type": "PRES_AUD", "word": "drawing", "wordID": 493, "conditions": [12, 1600, "a", 24000], "trial": 4, "serialpos": 6, "trial_type": "single-audio", "trial_index": 163, "time_elapsed": 819261, "internal_node_id": "0.0-118.0"}}, {"uniqueid": "MTK0266:3YGXWBAF71O59KYT4FFQ3ZCJPKU4CB", "current_trial": 164, "dateTime": 1510689544904, "trialdata": {"rt": -1000, "stimulus": "/static/audio/wordpool/TABLE.wav", "key_press": -1, "type": "PRES_AUD", "word": "table", "wordID": 1425, "conditions": [12, 1600, "a", 24000], "trial": 4, "serialpos": 7, "trial_type": "single-audio", "trial_index": 164, "time_elapsed": 821711, "internal_node_id": "0.0-119.0"}}, {"uniqueid": "MTK0266:3YGXWBAF71O59KYT4FFQ3ZCJPKU4CB", "current_trial": 165, "dateTime": 1510689547446, "trialdata": {"rt": -1000, "stimulus": "/static/audio/wordpool/PANTHER.wav", "key_press": -1, "type": "PRES_AUD", "word": "panther", "wordID": 1008, "conditions": [12, 1600, "a", 24000], "trial": 4, "serialpos": 8, "trial_type": "single-audio", "trial_index": 165, "time_elapsed": 824254, "internal_node_id": "0.0-120.0"}}, {"uniqueid": "MTK0266:3YGXWBAF71O59KYT4FFQ3ZCJPKU4CB", "current_trial": 166, "dateTime": 1510689550066, "trialdata": {"rt": -1000, "stimulus": "/static/audio/wordpool/LEOPARD.wav", "key_press": -1, "type": "PRES_AUD", "word": "leopard", "wordID": 811, "conditions": [12, 1600, "a", 24000], "trial": 4, "serialpos": 9, "trial_type": "single-audio", "trial_index": 166, "time_elapsed": 826873, "internal_node_id": "0.0-121.0"}}, {"uniqueid": "MTK0266:3YGXWBAF71O59KYT4FFQ3ZCJPKU4CB", "current_trial": 167, "dateTime": 1510689552711, "trialdata": {"rt": -1000, "stimulus": "/static/audio/wordpool/FIREPLACE.wav", "key_press": -1, "type": "PRES_AUD", "word": "fireplace", "wordID": 569, "conditions": [12, 1600, "a", 24000], "trial": 4, "serialpos": 10, "trial_type": "single-audio", "trial_index": 167, "time_elapsed": 829519, "internal_node_id": "0.0-122.0"}}, {"uniqueid": "MTK0266:3YGXWBAF71O59KYT4FFQ3ZCJPKU4CB", "current_trial": 168, "dateTime": 1510689555114, "trialdata": {"rt": -1000, "stimulus": "/static/audio/wordpool/FOX.wav", "key_press": -1, "type": "PRES_AUD", "word": "fox", "wordID": 597, "conditions": [12, 1600, "a", 24000], "trial": 4, "serialpos": 11, "trial_type": "single-audio", "trial_index": 168, "time_elapsed": 831922, "internal_node_id": "0.0-123.0"}}, {"uniqueid": "MTK0266:3YGXWBAF71O59KYT4FFQ3ZCJPKU4CB", "current_trial": 169, "dateTime": 1510689556467, "trialdata": {"rt": -1, "stimulus": "", "key_press": -1, "type": "PRE_RECALL_DELAY", "trial_type": "single-stim", "trial_index": 169, "time_elapsed": 833275, "internal_node_id": "0.0-124.0-0.0"}}, {"uniqueid": "MTK0266:3YGXWBAF71O59KYT4FFQ3ZCJPKU4CB", "current_trial": 170, "dateTime": 1510689556970, "trialdata": {"rt": -1000, "stimulus": "/static/audio/400Hz.wav", "key_press": -1, "type": "PRE_RECALL_ALERT", "trial_type": "single-audio", "trial_index": 170, "time_elapsed": 833777, "internal_node_id": "0.0-125.0"}}, {"uniqueid": "MTK0266:3YGXWBAF71O59KYT4FFQ3ZCJPKU4CB", "current_trial": 171, "dateTime": 1510689616979, "trialdata": {"rt": [2047, 3855, 4943, 6367, 8879, 10111, 11871, 13583, 17375, 19039, 22671, 48191], "recwords": ["igloo", "carrot", "mammal", "picture", "lunch", "knife", "fox", "picture", "fireplace", "fox", "leopard", "mammal"], "type": "FREE_RECALL", "conditions": [12, 1600, "a", 24000], "trial": 4, "trial_type": "free-recall", "trial_index": 171, "time_elapsed": 893782, "internal_node_id": "0.0-126.0-0.0"}}, {"uniqueid": "MTK0266:3YGXWBAF71O59KYT4FFQ3ZCJPKU4CB", "current_trial": 172, "dateTime": 1510689621885, "trialdata": {"rt": 2904, "key_press": 32, "type": "INSTRUCTIONS", "trial_type": "text", "trial_index": 172, "time_elapsed": 898692, "internal_node_id": "0.0-127.0"}}, {"uniqueid": "MTK0266:3YGXWBAF71O59KYT4FFQ3ZCJPKU4CB", "current_trial": 173, "dateTime": 1510689647889, "trialdata": {"rt": [1836, 3692, 6524, 9276, 11468, 13467, 15487, 19355, 21228, 23020], "responses": ["14", "14", "14", "13", "11", "11", "14", "20", "6", "8"], "num1": [1, 3, 1, 1, 5, 4, 7, 3, 2, 3, 5], "num2": [9, 4, 5, 6, 3, 4, 4, 9, 2, 3, 4], "num3": [4, 7, 8, 5, 3, 3, 3, 8, 2, 2, 8], "type": "DISTRACTOR", "conditions": [12, 1600, "v", 24000], "trial": 5, "trial_type": "math-distractor", "trial_index": 173, "time_elapsed": 924697, "internal_node_id": "0.0-128.0"}}, {"uniqueid": "MTK0266:3YGXWBAF71O59KYT4FFQ3ZCJPKU4CB", "current_trial": 174, "dateTime": 1510689650892, "trialdata": {"rt": -1, "stimulus": "<p id=\"stim\">10</p>", "key_press": -1, "trial_type": "single-stim", "trial_index": 174, "time_elapsed": 927699, "internal_node_id": "0.0-129.0-0.0"}}, {"uniqueid": "MTK0266:3YGXWBAF71O59KYT4FFQ3ZCJPKU4CB", "current_trial": 175, "dateTime": 1510689651893, "trialdata": {"rt": -1, "stimulus": "<p id=\"stim\">9</p>", "key_press": -1, "trial_type": "single-stim", "trial_index": 175, "time_elapsed": 928701, "internal_node_id": "0.0-129.0-1.0"}}, {"uniqueid": "MTK0266:3YGXWBAF71O59KYT4FFQ3ZCJPKU4CB", "current_trial": 176, "dateTime": 1510689652896, "trialdata": {"rt": -1, "stimulus": "<p id=\"stim\">8</p>", "key_press": -1, "trial_type": "single-stim", "trial_index": 176, "time_elapsed": 929703, "internal_node_id": "0.0-129.0-2.0"}}, {"uniqueid": "MTK0266:3YGXWBAF71O59KYT4FFQ3ZCJPKU4CB", "current_trial": 177, "dateTime": 1510689653898, "trialdata": {"rt": -1, "stimulus": "<p id=\"stim\">7</p>", "key_press": -1, "trial_type": "single-stim", "trial_index": 177, "time_elapsed": 930706, "internal_node_id": "0.0-129.0-3.0"}}, {"uniqueid": "MTK0266:3YGXWBAF71O59KYT4FFQ3ZCJPKU4CB", "current_trial": 178, "dateTime": 1510689654902, "trialdata": {"rt": -1, "stimulus": "<p id=\"stim\">6</p>", "key_press": -1, "trial_type": "single-stim", "trial_index": 178, "time_elapsed": 931707, "internal_node_id": "0.0-129.0-4.0"}}, {"uniqueid": "MTK0266:3YGXWBAF71O59KYT4FFQ3ZCJPKU4CB", "current_trial": 179, "dateTime": 1510689655904, "trialdata": {"rt": -1, "stimulus": "<p id=\"stim\">5</p>", "key_press": -1, "trial_type": "single-stim", "trial_index": 179, "time_elapsed": 932712, "internal_node_id": "0.0-129.0-5.0"}}, {"uniqueid": "MTK0266:3YGXWBAF71O59KYT4FFQ3ZCJPKU4CB", "current_trial": 180, "dateTime": 1510689656906, "trialdata": {"rt": -1, "stimulus": "<p id=\"stim\">4</p>", "key_press": -1, "trial_type": "single-stim", "trial_index": 180, "time_elapsed": 933714, "internal_node_id": "0.0-129.0-6.0"}}, {"uniqueid": "MTK0266:3YGXWBAF71O59KYT4FFQ3ZCJPKU4CB", "current_trial": 181, "dateTime": 1510689657907, "trialdata": {"rt": -1, "stimulus": "<p id=\"stim\">3</p>", "key_press": -1, "trial_type": "single-stim", "trial_index": 181, "time_elapsed": 934715, "internal_node_id": "0.0-129.0-7.0"}}, {"uniqueid": "MTK0266:3YGXWBAF71O59KYT4FFQ3ZCJPKU4CB", "current_trial": 182, "dateTime": 1510689658909, "trialdata": {"rt": -1, "stimulus": "<p id=\"stim\">2</p>", "key_press": -1, "trial_type": "single-stim", "trial_index": 182, "time_elapsed": 935717, "internal_node_id": "0.0-129.0-8.0"}}, {"uniqueid": "MTK0266:3YGXWBAF71O59KYT4FFQ3ZCJPKU4CB", "current_trial": 183, "dateTime": 1510689659911, "trialdata": {"rt": -1, "stimulus": "<p id=\"stim\">1</p>", "key_press": -1, "trial_type": "single-stim", "trial_index": 183, "time_elapsed": 936719, "internal_node_id": "0.0-129.0-9.0"}}, {"uniqueid": "MTK0266:3YGXWBAF71O59KYT4FFQ3ZCJPKU4CB", "current_trial": 184, "dateTime": 1510689661414, "trialdata": {"rt": -1, "stimulus": "<p id=\"stim\">+</p>", "key_press": -1, "type": "FIXATION", "trial_type": "single-stim", "trial_index": 184, "time_elapsed": 938221, "internal_node_id": "0.0-130.0-0.0"}}, {"uniqueid": "MTK0266:3YGXWBAF71O59KYT4FFQ3ZCJPKU4CB", "current_trial": 185, "dateTime": 1510689663015, "trialdata": {"rt": -1, "stimulus": "<p id=\"stim\">HATCHET</p>", "key_press": -1, "type": "PRES_VIS", "word": "hatchet", "wordID": 690, "conditions": [12, 1600, "v", 24000], "trial": 5, "serialpos": 0, "trial_type": "single-stim", "trial_index": 185, "time_elapsed": 939823, "internal_node_id": "0.0-131.0"}}, {"uniqueid": "MTK0266:3YGXWBAF71O59KYT4FFQ3ZCJPKU4CB", "current_trial": 186, "dateTime": 1510689665626, "trialdata": {"rt": -1, "stimulus": "<p id=\"stim\">VIRUS</p>", "key_press": -1, "type": "PRES_VIS", "word": "virus", "wordID": 1571, "conditions": [12, 1600, "v", 24000], "trial": 5, "serialpos": 1, "trial_type": "single-stim", "trial_index": 186, "time_elapsed": 942434, "internal_node_id": "0.0-132.0"}}, {"uniqueid": "MTK0266:3YGXWBAF71O59KYT4FFQ3ZCJPKU4CB", "current_trial": 187, "dateTime": 1510689668212, "trialdata": {"rt": -1, "stimulus": "<p id=\"stim\">STONE</p>", "key_press": -1, "type": "PRES_VIS", "word": "stone", "wordID": 1384, "conditions": [12, 1600, "v", 24000], "trial": 5, "serialpos": 2, "trial_type": "single-stim", "trial_index": 187, "time_elapsed": 945020, "internal_node_id": "0.0-133.0"}}, {"uniqueid": "MTK0266:3YGXWBAF71O59KYT4FFQ3ZCJPKU4CB", "current_trial": 188, "dateTime": 1510689670836, "trialdata": {"rt": -1, "stimulus": "<p id=\"stim\">ELBOW</p>", "key_press": -1, "type": "PRES_VIS", "word": "elbow", "wordID": 519, "conditions": [12, 1600, "v", 24000], "trial": 5, "serialpos": 3, "trial_type": "single-stim", "trial_index": 188, "time_elapsed": 947643, "internal_node_id": "0.0-134.0"}}, {"uniqueid": "MTK0266:3YGXWBAF71O59KYT4FFQ3ZCJPKU4CB", "current_trial": 189, "dateTime": 1510689673348, "trialdata": {"rt": -1, "stimulus": "<p id=\"stim\">MACHINE</p>", "key_press": -1, "type": "PRES_VIS", "word": "machine", "wordID": 851, "conditions": [12, 1600, "v", 24000], "trial": 5, "serialpos": 4, "trial_type": "single-stim", "trial_index": 189, "time_elapsed": 950155, "internal_node_id": "0.0-135.0"}}, {"uniqueid": "MTK0266:3YGXWBAF71O59KYT4FFQ3ZCJPKU4CB", "current_trial": 190, "dateTime": 1510689676094, "trialdata": {"rt": -1, "stimulus": "<p id=\"stim\">LASER</p>", "key_press": -1, "type": "PRES_VIS", "word": "laser", "wordID": 800, "conditions": [12, 1600, "v", 24000], "trial": 5, "serialpos": 5, "trial_type": "single-stim", "trial_index": 190, "time_elapsed": 952902, "internal_node_id": "0.0-136.0"}}, {"uniqueid": "MTK0266:3YGXWBAF71O59KYT4FFQ3ZCJPKU4CB", "current_trial": 191, "dateTime": 1510689678668, "trialdata": {"rt": -1, "stimulus": "<p id=\"stim\">HEADBAND</p>", "key_press": -1, "type": "PRES_VIS", "word": "headband", "wordID": 695, "conditions": [12, 1600, "v", 24000], "trial": 5, "serialpos": 6, "trial_type": "single-stim", "trial_index": 191, "time_elapsed": 955476, "internal_node_id": "0.0-137.0"}}, {"uniqueid": "MTK0266:3YGXWBAF71O59KYT4FFQ3ZCJPKU4CB", "current_trial": 192, "dateTime": 1510689681210, "trialdata": {"rt": -1, "stimulus": "<p id=\"stim\">SUITCASE</p>", "key_press": -1, "type": "PRES_VIS", "word": "suitcase", "wordID": 1402, "conditions": [12, 1600, "v", 24000], "trial": 5, "serialpos": 7, "trial_type": "single-stim", "trial_index": 192, "time_elapsed": 958018, "internal_node_id": "0.0-138.0"}}, {"uniqueid": "MTK0266:3YGXWBAF71O59KYT4FFQ3ZCJPKU4CB", "current_trial": 193, "dateTime": 1510689683894, "trialdata": {"rt": -1, "stimulus": "<p id=\"stim\">SPOOL</p>", "key_press": -1, "type": "PRES_VIS", "word": "spool", "wordID": 1355, "conditions": [12, 1600, "v", 24000], "trial": 5, "serialpos": 8, "trial_type": "single-stim", "trial_index": 193, "time_elapsed": 960701, "internal_node_id": "0.0-139.0"}}, {"uniqueid": "MTK0266:3YGXWBAF71O59KYT4FFQ3ZCJPKU4CB", "current_trial": 194, "dateTime": 1510689686515, "trialdata": {"rt": -1, "stimulus": "<p id=\"stim\">ROD</p>", "key_press": -1, "type": "PRES_VIS", "word": "rod", "wordID": 1202, "conditions": [12, 1600, "v", 24000], "trial": 5, "serialpos": 9, "trial_type": "single-stim", "trial_index": 194, "time_elapsed": 963322, "internal_node_id": "0.0-140.0"}}, {"uniqueid": "MTK0266:3YGXWBAF71O59KYT4FFQ3ZCJPKU4CB", "current_trial": 195, "dateTime": 1510689689057, "trialdata": {"rt": -1, "stimulus": "<p id=\"stim\">BANQUET</p>", "key_press": -1, "type": "PRES_VIS", "word": "banquet", "wordID": 85, "conditions": [12, 1600, "v", 24000], "trial": 5, "serialpos": 10, "trial_type": "single-stim", "trial_index": 195, "time_elapsed": 965864, "internal_node_id": "0.0-141.0"}}, {"uniqueid": "MTK0266:3YGXWBAF71O59KYT4FFQ3ZCJPKU4CB", "current_trial": 196, "dateTime": 1510689691479, "trialdata": {"rt": -1, "stimulus": "<p id=\"stim\">LEG</p>", "key_press": -1, "type": "PRES_VIS", "word": "leg", "wordID": 808, "conditions": [12, 1600, "v", 24000], "trial": 5, "serialpos": 11, "trial_type": "single-stim", "trial_index": 196, "time_elapsed": 968286, "internal_node_id": "0.0-142.0"}}, {"uniqueid": "MTK0266:3YGXWBAF71O59KYT4FFQ3ZCJPKU4CB", "current_trial": 197, "dateTime": 1510689693816, "trialdata": {"rt": -1, "stimulus": "", "key_press": -1, "type": "PRE_RECALL_DELAY", "trial_type": "single-stim", "trial_index": 197, "time_elapsed": 970624, "internal_node_id": "0.0-143.0-0.0"}}, {"uniqueid": "MTK0266:3YGXWBAF71O59KYT4FFQ3ZCJPKU4CB", "current_trial": 198, "dateTime": 1510689694319, "trialdata": {"rt": -1000, "stimulus": "/static/audio/400Hz.wav", "key_press": -1, "type": "PRE_RECALL_ALERT", "trial_type": "single-audio", "trial_index": 198, "time_elapsed": 971126, "internal_node_id": "0.0-144.0"}}, {"uniqueid": "MTK0266:3YGXWBAF71O59KYT4FFQ3ZCJPKU4CB", "current_trial": 199, "dateTime": 1510689754333, "trialdata": {"rt": [2025, 2825, 6889, 19721, 20750, 23849], "recwords": ["fox", "leg", "banquet", "table", "lamp", "virus"], "type": "FREE_RECALL", "conditions": [12, 1600, "v", 24000], "trial": 5, "trial_type": "free-recall", "trial_index": 199, "time_elapsed": 1031132, "internal_node_id": "0.0-145.0-0.0"}}, {"uniqueid": "MTK0266:3YGXWBAF71O59KYT4FFQ3ZCJPKU4CB", "current_trial": 200, "dateTime": 1510689787692, "trialdata": {"rt": 31357, "key_press": 32, "type": "INSTRUCTIONS", "trial_type": "text", "trial_index": 200, "time_elapsed": 1064499, "internal_node_id": "0.0-146.0"}}, {"uniqueid": "MTK0266:3YGXWBAF71O59KYT4FFQ3ZCJPKU4CB", "current_trial": 201, "dateTime": 1510689801697, "trialdata": {"rt": [3501, 5948, 8045, 9901], "responses": ["16", "18", "11", "10"], "num1": [1, 2, 3, 4, 3], "num2": [6, 9, 4, 4, 1], "num3": [9, 7, 4, 2, 9], "type": "DISTRACTOR", "conditions": [12, 800, "v", 12000], "trial": 6, "trial_type": "math-distractor", "trial_index": 201, "time_elapsed": 1078505, "internal_node_id": "0.0-147.0"}}, {"uniqueid": "MTK0266:3YGXWBAF71O59KYT4FFQ3ZCJPKU4CB", "current_trial": 202, "dateTime": 1510689804708, "trialdata": {"rt": -1, "stimulus": "<p id=\"stim\">10</p>", "key_press": -1, "trial_type": "single-stim", "trial_index": 202, "time_elapsed": 1081516, "internal_node_id": "0.0-148.0-0.0"}}, {"uniqueid": "MTK0266:3YGXWBAF71O59KYT4FFQ3ZCJPKU4CB", "current_trial": 203, "dateTime": 1510689805710, "trialdata": {"rt": -1, "stimulus": "<p id=\"stim\">9</p>", "key_press": -1, "trial_type": "single-stim", "trial_index": 203, "time_elapsed": 1082518, "internal_node_id": "0.0-148.0-1.0"}}, {"uniqueid": "MTK0266:3YGXWBAF71O59KYT4FFQ3ZCJPKU4CB", "current_trial": 204, "dateTime": 1510689806721, "trialdata": {"rt": -1, "stimulus": "<p id=\"stim\">8</p>", "key_press": -1, "trial_type": "single-stim", "trial_index": 204, "time_elapsed": 1083529, "internal_node_id": "0.0-148.0-2.0"}}, {"uniqueid": "MTK0266:3YGXWBAF71O59KYT4FFQ3ZCJPKU4CB", "current_trial": 205, "dateTime": 1510689807723, "trialdata": {"rt": -1, "stimulus": "<p id=\"stim\">7</p>", "key_press": -1, "trial_type": "single-stim", "trial_index": 205, "time_elapsed": 1084531, "internal_node_id": "0.0-148.0-3.0"}}, {"uniqueid": "MTK0266:3YGXWBAF71O59KYT4FFQ3ZCJPKU4CB", "current_trial": 206, "dateTime": 1510689808724, "trialdata": {"rt": -1, "stimulus": "<p id=\"stim\">6</p>", "key_press": -1, "trial_type": "single-stim", "trial_index": 206, "time_elapsed": 1085532, "internal_node_id": "0.0-148.0-4.0"}}, {"uniqueid": "MTK0266:3YGXWBAF71O59KYT4FFQ3ZCJPKU4CB", "current_trial": 207, "dateTime": 1510689809726, "trialdata": {"rt": -1, "stimulus": "<p id=\"stim\">5</p>", "key_press": -1, "trial_type": "single-stim", "trial_index": 207, "time_elapsed": 1086533, "internal_node_id": "0.0-148.0-5.0"}}, {"uniqueid": "MTK0266:3YGXWBAF71O59KYT4FFQ3ZCJPKU4CB", "current_trial": 208, "dateTime": 1510689810728, "trialdata": {"rt": -1, "stimulus": "<p id=\"stim\">4</p>", "key_press": -1, "trial_type": "single-stim", "trial_index": 208, "time_elapsed": 1087535, "internal_node_id": "0.0-148.0-6.0"}}, {"uniqueid": "MTK0266:3YGXWBAF71O59KYT4FFQ3ZCJPKU4CB", "current_trial": 209, "dateTime": 1510689811729, "trialdata": {"rt": -1, "stimulus": "<p id=\"stim\">3</p>", "key_press": -1, "trial_type": "single-stim", "trial_index": 209, "time_elapsed": 1088537, "internal_node_id": "0.0-148.0-7.0"}}, {"uniqueid": "MTK0266:3YGXWBAF71O59KYT4FFQ3ZCJPKU4CB", "current_trial": 210, "dateTime": 1510689812731, "trialdata": {"rt": -1, "stimulus": "<p id=\"stim\">2</p>", "key_press": -1, "trial_type": "single-stim", "trial_index": 210, "time_elapsed": 1089539, "internal_node_id": "0.0-148.0-8.0"}}, {"uniqueid": "MTK0266:3YGXWBAF71O59KYT4FFQ3ZCJPKU4CB", "current_trial": 211, "dateTime": 1510689813733, "trialdata": {"rt": -1, "stimulus": "<p id=\"stim\">1</p>", "key_press": -1, "trial_type": "single-stim", "trial_index": 211, "time_elapsed": 1090541, "internal_node_id": "0.0-148.0-9.0"}}, {"uniqueid": "MTK0266:3YGXWBAF71O59KYT4FFQ3ZCJPKU4CB", "current_trial": 212, "dateTime": 1510689815236, "trialdata": {"rt": -1, "stimulus": "<p id=\"stim\">+</p>", "key_press": -1, "type": "FIXATION", "trial_type": "single-stim", "trial_index": 212, "time_elapsed": 1092043, "internal_node_id": "0.0-149.0-0.0"}}, {"uniqueid": "MTK0266:3YGXWBAF71O59KYT4FFQ3ZCJPKU4CB", "current_trial": 213, "dateTime": 1510689816037, "trialdata": {"rt": -1, "stimulus": "<p id=\"stim\">BOYFRIEND</p>", "key_press": -1, "type": "PRES_VIS", "word": "boyfriend", "wordID": 161, "conditions": [12, 800, "v", 12000], "trial": 6, "serialpos": 0, "trial_type": "single-stim", "trial_index": 213, "time_elapsed": 1092845, "internal_node_id": "0.0-150.0"}}, {"uniqueid": "MTK0266:3YGXWBAF71O59KYT4FFQ3ZCJPKU4CB", "current_trial": 214, "dateTime": 1510689817961, "trialdata": {"rt": -1, "stimulus": "<p id=\"stim\">COUSIN</p>", "key_press": -1, "type": "PRES_VIS", "word": "cousin", "wordID": 391, "conditions": [12, 800, "v", 12000], "trial": 6, "serialpos": 1, "trial_type": "single-stim", "trial_index": 214, "time_elapsed": 1094768, "internal_node_id": "0.0-151.0"}}, {"uniqueid": "MTK0266:3YGXWBAF71O59KYT4FFQ3ZCJPKU4CB", "current_trial": 215, "dateTime": 1510689819578, "trialdata": {"rt": -1, "stimulus": "<p id=\"stim\">CROWN</p>", "key_press": -1, "type": "PRES_VIS", "word": "crown", "wordID": 414, "conditions": [12, 800, "v", 12000], "trial": 6, "serialpos": 2, "trial_type": "single-stim", "trial_index": 215, "time_elapsed": 1096385, "internal_node_id": "0.0-152.0"}}, {"uniqueid": "MTK0266:3YGXWBAF71O59KYT4FFQ3ZCJPKU4CB", "current_trial": 216, "dateTime": 1510689821189, "trialdata": {"rt": -1, "stimulus": "<p id=\"stim\">VENUS</p>", "key_press": -1, "type": "PRES_VIS", "word": "venus", "wordID": 1556, "conditions": [12, 800, "v", 12000], "trial": 6, "serialpos": 3, "trial_type": "single-stim", "trial_index": 216, "time_elapsed": 1097997, "internal_node_id": "0.0-153.0"}}, {"uniqueid": "MTK0266:3YGXWBAF71O59KYT4FFQ3ZCJPKU4CB", "current_trial": 217, "dateTime": 1510689823145, "trialdata": {"rt": -1, "stimulus": "<p id=\"stim\">FLASK</p>", "key_press": -1, "type": "PRES_VIS", "word": "flask", "wordID": 575, "conditions": [12, 800, "v", 12000], "trial": 6, "serialpos": 4, "trial_type": "single-stim", "trial_index": 217, "time_elapsed": 1099953, "internal_node_id": "0.0-154.0"}}, {"uniqueid": "MTK0266:3YGXWBAF71O59KYT4FFQ3ZCJPKU4CB", "current_trial": 218, "dateTime": 1510689824791, "trialdata": {"rt": -1, "stimulus": "<p id=\"stim\">SANDWICH</p>", "key_press": -1, "type": "PRES_VIS", "word": "sandwich", "wordID": 1231, "conditions": [12, 800, "v", 12000], "trial": 6, "serialpos": 5, "trial_type": "single-stim", "trial_index": 218, "time_elapsed": 1101598, "internal_node_id": "0.0-155.0"}}, {"uniqueid": "MTK0266:3YGXWBAF71O59KYT4FFQ3ZCJPKU4CB", "current_trial": 219, "dateTime": 1510689826550, "trialdata": {"rt": -1, "stimulus": "<p id=\"stim\">SURVEY</p>", "key_press": -1, "type": "PRES_VIS", "word": "survey", "wordID": 1413, "conditions": [12, 800, "v", 12000], "trial": 6, "serialpos": 6, "trial_type": "single-stim", "trial_index": 219, "time_elapsed": 1103358, "internal_node_id": "0.0-156.0"}}, {"uniqueid": "MTK0266:3YGXWBAF71O59KYT4FFQ3ZCJPKU4CB", "current_trial": 220, "dateTime": 1510689828360, "trialdata": {"rt": -1, "stimulus": "<p id=\"stim\">PLUTO</p>", "key_press": -1, "type": "PRES_VIS", "word": "pluto", "wordID": 1091, "conditions": [12, 800, "v", 12000], "trial": 6, "serialpos": 7, "trial_type": "single-stim", "trial_index": 220, "time_elapsed": 1105168, "internal_node_id": "0.0-157.0"}}, {"uniqueid": "MTK0266:3YGXWBAF71O59KYT4FFQ3ZCJPKU4CB", "current_trial": 221, "dateTime": 1510689830226, "trialdata": {"rt": -1, "stimulus": "<p id=\"stim\">MONEY</p>", "key_press": -1, "type": "PRES_VIS", "word": "money", "wordID": 907, "conditions": [12, 800, "v", 12000], "trial": 6, "serialpos": 8, "trial_type": "single-stim", "trial_index": 221, "time_elapsed": 1107034, "internal_node_id": "0.0-158.0"}}, {"uniqueid": "MTK0266:3YGXWBAF71O59KYT4FFQ3ZCJPKU4CB", "current_trial": 222, "dateTime": 1510689831828, "trialdata": {"rt": -1, "stimulus": "<p id=\"stim\">QUEEN</p>", "key_press": -1, "type": "PRES_VIS", "word": "queen", "wordID": 1148, "conditions": [12, 800, "v", 12000], "trial": 6, "serialpos": 9, "trial_type": "single-stim", "trial_index": 222, "time_elapsed": 1108636, "internal_node_id": "0.0-159.0"}}, {"uniqueid": "MTK0266:3YGXWBAF71O59KYT4FFQ3ZCJPKU4CB", "current_trial": 223, "dateTime": 1510689833477, "trialdata": {"rt": -1, "stimulus": "<p id=\"stim\">FOOTBALL</p>", "key_press": -1, "type": "PRES_VIS", "word": "football", "wordID": 590, "conditions": [12, 800, "v", 12000], "trial": 6, "serialpos": 10, "trial_type": "single-stim", "trial_index": 223, "time_elapsed": 1110285, "internal_node_id": "0.0-160.0"}}, {"uniqueid": "MTK0266:3YGXWBAF71O59KYT4FFQ3ZCJPKU4CB", "current_trial": 224, "dateTime": 1510689835280, "trialdata": {"rt": -1, "stimulus": "<p id=\"stim\">REPORT</p>", "key_press": -1, "type": "PRES_VIS", "word": "report", "wordID": 1183, "conditions": [12, 800, "v", 12000], "trial": 6, "serialpos": 11, "trial_type": "single-stim", "trial_index": 224, "time_elapsed": 1112088, "internal_node_id": "0.0-161.0"}}, {"uniqueid": "MTK0266:3YGXWBAF71O59KYT4FFQ3ZCJPKU4CB", "current_trial": 225, "dateTime": 1510689837496, "trialdata": {"rt": -1, "stimulus": "", "key_press": -1, "type": "PRE_RECALL_DELAY", "trial_type": "single-stim", "trial_index": 225, "time_elapsed": 1114304, "internal_node_id": "0.0-162.0-0.0"}}, {"uniqueid": "MTK0266:3YGXWBAF71O59KYT4FFQ3ZCJPKU4CB", "current_trial": 226, "dateTime": 1510689837998, "trialdata": {"rt": -1000, "stimulus": "/static/audio/400Hz.wav", "key_press": -1, "type": "PRE_RECALL_ALERT", "trial_type": "single-audio", "trial_index": 226, "time_elapsed": 1114806, "internal_node_id": "0.0-163.0"}}, {"uniqueid": "MTK0266:3YGXWBAF71O59KYT4FFQ3ZCJPKU4CB", "current_trial": 227, "dateTime": 1510689898008, "trialdata": {"rt": [1691, 3019, 4315, 8683, 13546, 26571], "recwords": ["kid", "football", "report", "banquet", "boyfriend", "stallion"], "type": "FREE_RECALL", "conditions": [12, 800, "v", 12000], "trial": 6, "trial_type": "free-recall", "trial_index": 227, "time_elapsed": 1174808, "internal_node_id": "0.0-164.0-0.0"}}, {"uniqueid": "MTK0266:3YGXWBAF71O59KYT4FFQ3ZCJPKU4CB", "current_trial": 228, "dateTime": 1510689902587, "trialdata": {"rt": 2576, "key_press": 32, "type": "INSTRUCTIONS", "trial_type": "text", "trial_index": 228, "time_elapsed": 1179395, "internal_node_id": "0.0-165.0"}}, {"uniqueid": "MTK0266:3YGXWBAF71O59KYT4FFQ3ZCJPKU4CB", "current_trial": 229, "dateTime": 1510689916591, "trialdata": {"rt": [2306, 4540, 5532, 8910, 10444], "responses": ["11", "16", "6", "14", "8"], "num1": [4, 7, 2, 5, 6, 1], "num2": [1, 1, 2, 7, 1, 5], "num3": [6, 8, 2, 2, 1, 3], "type": "DISTRACTOR", "conditions": [24, 800, "v", 12000], "trial": 7, "trial_type": "math-distractor", "trial_index": 229, "time_elapsed": 1193399, "internal_node_id": "0.0-166.0"}}, {"uniqueid": "MTK0266:3YGXWBAF71O59KYT4FFQ3ZCJPKU4CB", "current_trial": 230, "dateTime": 1510689919594, "trialdata": {"rt": -1, "stimulus": "<p id=\"stim\">10</p>", "key_press": -1, "trial_type": "single-stim", "trial_index": 230, "time_elapsed": 1196402, "internal_node_id": "0.0-167.0-0.0"}}, {"uniqueid": "MTK0266:3YGXWBAF71O59KYT4FFQ3ZCJPKU4CB", "current_trial": 231, "dateTime": 1510689920596, "trialdata": {"rt": -1, "stimulus": "<p id=\"stim\">9</p>", "key_press": -1, "trial_type": "single-stim", "trial_index": 231, "time_elapsed": 1197404, "internal_node_id": "0.0-167.0-1.0"}}, {"uniqueid": "MTK0266:3YGXWBAF71O59KYT4FFQ3ZCJPKU4CB", "current_trial": 232, "dateTime": 1510689921598, "trialdata": {"rt": -1, "stimulus": "<p id=\"stim\">8</p>", "key_press": -1, "trial_type": "single-stim", "trial_index": 232, "time_elapsed": 1198405, "internal_node_id": "0.0-167.0-2.0"}}, {"uniqueid": "MTK0266:3YGXWBAF71O59KYT4FFQ3ZCJPKU4CB", "current_trial": 233, "dateTime": 1510689922599, "trialdata": {"rt": -1, "stimulus": "<p id=\"stim\">7</p>", "key_press": -1, "trial_type": "single-stim", "trial_index": 233, "time_elapsed": 1199407, "internal_node_id": "0.0-167.0-3.0"}}, {"uniqueid": "MTK0266:3YGXWBAF71O59KYT4FFQ3ZCJPKU4CB", "current_trial": 234, "dateTime": 1510689923602, "trialdata": {"rt": -1, "stimulus": "<p id=\"stim\">6</p>", "key_press": -1, "trial_type": "single-stim", "trial_index": 234, "time_elapsed": 1200410, "internal_node_id": "0.0-167.0-4.0"}}, {"uniqueid": "MTK0266:3YGXWBAF71O59KYT4FFQ3ZCJPKU4CB", "current_trial": 235, "dateTime": 1510689924604, "trialdata": {"rt": -1, "stimulus": "<p id=\"stim\">5</p>", "key_press": -1, "trial_type": "single-stim", "trial_index": 235, "time_elapsed": 1201412, "internal_node_id": "0.0-167.0-5.0"}}, {"uniqueid": "MTK0266:3YGXWBAF71O59KYT4FFQ3ZCJPKU4CB", "current_trial": 236, "dateTime": 1510689925607, "trialdata": {"rt": -1, "stimulus": "<p id=\"stim\">4</p>", "key_press": -1, "trial_type": "single-stim", "trial_index": 236, "time_elapsed": 1202414, "internal_node_id": "0.0-167.0-6.0"}}, {"uniqueid": "MTK0266:3YGXWBAF71O59KYT4FFQ3ZCJPKU4CB", "current_trial": 237, "dateTime": 1510689926608, "trialdata": {"rt": -1, "stimulus": "<p id=\"stim\">3</p>", "key_press": -1, "trial_type": "single-stim", "trial_index": 237, "time_elapsed": 1203416, "internal_node_id": "0.0-167.0-7.0"}}, {"uniqueid": "MTK0266:3YGXWBAF71O59KYT4FFQ3ZCJPKU4CB", "current_trial": 238, "dateTime": 1510689927609, "trialdata": {"rt": -1, "stimulus": "<p id=\"stim\">2</p>", "key_press": -1, "trial_type": "single-stim", "trial_index": 238, "time_elapsed": 1204417, "internal_node_id": "0.0-167.0-8.0"}}, {"uniqueid": "MTK0266:3YGXWBAF71O59KYT4FFQ3ZCJPKU4CB", "current_trial": 239, "dateTime": 1510689928610, "trialdata": {"rt": -1, "stimulus": "<p id=\"stim\">1</p>", "key_press": -1, "trial_type": "single-stim", "trial_index": 239, "time_elapsed": 1205418, "internal_node_id": "0.0-167.0-9.0"}}, {"uniqueid": "MTK0266:3YGXWBAF71O59KYT4FFQ3ZCJPKU4CB", "current_trial": 240, "dateTime": 1510689930113, "trialdata": {"rt": -1, "stimulus": "<p id=\"stim\">+</p>", "key_press": -1, "type": "FIXATION", "trial_type": "single-stim", "trial_index": 240, "time_elapsed": 1206921, "internal_node_id": "0.0-168.0-0.0"}}, {"uniqueid": "MTK0266:3YGXWBAF71O59KYT4FFQ3ZCJPKU4CB", "current_trial": 241, "dateTime": 1510689930915, "trialdata": {"rt": -1, "stimulus": "<p id=\"stim\">SEAL</p>", "key_press": -1, "type": "PRES_VIS", "word": "seal", "wordID": 1261, "conditions": [24, 800, "v", 12000], "trial": 7, "serialpos": 0, "trial_type": "single-stim", "trial_index": 241, "time_elapsed": 1207723, "internal_node_id": "0.0-169.0"}}, {"uniqueid": "MTK0266:3YGXWBAF71O59KYT4FFQ3ZCJPKU4CB", "current_trial": 242, "dateTime": 1510689932593, "trialdata": {"rt": -1, "stimulus": "<p id=\"stim\">DUSTPAN</p>", "key_press": -1, "type": "PRES_VIS", "word": "dustpan", "wordID": 508, "conditions": [24, 800, "v", 12000], "trial": 7, "serialpos": 1, "trial_type": "single-stim", "trial_index": 242, "time_elapsed": 1209401, "internal_node_id": "0.0-170.0"}}, {"uniqueid": "MTK0266:3YGXWBAF71O59KYT4FFQ3ZCJPKU4CB", "current_trial": 243, "dateTime": 1510689934372, "trialdata": {"rt": -1, "stimulus": "<p id=\"stim\">OUTFIT</p>", "key_press": -1, "type": "PRES_VIS", "word": "outfit", "wordID": 987, "conditions": [24, 800, "v", 12000], "trial": 7, "serialpos": 2, "trial_type": "single-stim", "trial_index": 243, "time_elapsed": 1211179, "internal_node_id": "0.0-171.0"}}, {"uniqueid": "MTK0266:3YGXWBAF71O59KYT4FFQ3ZCJPKU4CB", "current_trial": 244, "dateTime": 1510689936009, "trialdata": {"rt": -1, "stimulus": "<p id=\"stim\">LADY</p>", "key_press": -1, "type": "PRES_VIS", "word": "lady", "wordID": 793, "conditions": [24, 800, "v", 12000], "trial": 7, "serialpos": 3, "trial_type": "single-stim", "trial_index": 244, "time_elapsed": 1212817, "internal_node_id": "0.0-172.0"}}, {"uniqueid": "MTK0266:3YGXWBAF71O59KYT4FFQ3ZCJPKU4CB", "current_trial": 245, "dateTime": 1510689937838, "trialdata": {"rt": -1, "stimulus": "<p id=\"stim\">SPONGE</p>", "key_press": -1, "type": "PRES_VIS", "word": "sponge", "wordID": 1354, "conditions": [24, 800, "v", 12000], "trial": 7, "serialpos": 4, "trial_type": "single-stim", "trial_index": 245, "time_elapsed": 1214645, "internal_node_id": "0.0-173.0"}}, {"uniqueid": "MTK0266:3YGXWBAF71O59KYT4FFQ3ZCJPKU4CB", "current_trial": 246, "dateTime": 1510689939830, "trialdata": {"rt": -1, "stimulus": "<p id=\"stim\">LAMP</p>", "key_press": -1, "type": "PRES_VIS", "word": "lamp", "wordID": 797, "conditions": [24, 800, "v", 12000], "trial": 7, "serialpos": 5, "trial_type": "single-stim", "trial_index": 246, "time_elapsed": 1216638, "internal_node_id": "0.0-174.0"}}, {"uniqueid": "MTK0266:3YGXWBAF71O59KYT4FFQ3ZCJPKU4CB", "current_trial": 247, "dateTime": 1510689941708, "trialdata": {"rt": -1, "stimulus": "<p id=\"stim\">FUNGUS</p>", "key_press": -1, "type": "PRES_VIS", "word": "fungus", "wordID": 613, "conditions": [24, 800, "v", 12000], "trial": 7, "serialpos": 6, "trial_type": "single-stim", "trial_index": 247, "time_elapsed": 1218515, "internal_node_id": "0.0-175.0"}}, {"uniqueid": "MTK0266:3YGXWBAF71O59KYT4FFQ3ZCJPKU4CB", "current_trial": 248, "dateTime": 1510689943464, "trialdata": {"rt": -1, "stimulus": "<p id=\"stim\">MILDEW</p>", "key_press": -1, "type": "PRES_VIS", "word": "mildew", "wordID": 892, "conditions": [24, 800, "v", 12000], "trial": 7, "serialpos": 7, "trial_type": "single-stim", "trial_index": 248, "time_elapsed": 1220272, "internal_node_id": "0.0-176.0"}}, {"uniqueid": "MTK0266:3YGXWBAF71O59KYT4FFQ3ZCJPKU4CB", "current_trial": 249, "dateTime": 1510689945199, "trialdata": {"rt": -1, "stimulus": "<p id=\"stim\">SHORTCAKE</p>", "key_press": -1, "type": "PRES_VIS", "word": "shortcake", "wordID": 1291, "conditions": [24, 800, "v", 12000], "trial": 7, "serialpos": 8, "trial_type": "single-stim", "trial_index": 249, "time_elapsed": 1222007, "internal_node_id": "0.0-177.0"}}, {"uniqueid": "MTK0266:3YGXWBAF71O59KYT4FFQ3ZCJPKU4CB", "current_trial": 250, "dateTime": 1510689947189, "trialdata": {"rt": -1, "stimulus": "<p id=\"stim\">BRANDY</p>", "key_press": -1, "type": "PRES_VIS", "word": "brandy", "wordID": 168, "conditions": [24, 800, "v", 12000], "trial": 7, "serialpos": 9, "trial_type": "single-stim", "trial_index": 250, "time_elapsed": 1223997, "internal_node_id": "0.0-178.0"}}, {"uniqueid": "MTK0266:3YGXWBAF71O59KYT4FFQ3ZCJPKU4CB", "current_trial": 251, "dateTime": 1510689948940, "trialdata": {"rt": -1, "stimulus": "<p id=\"stim\">SHRUB</p>", "key_press": -1, "type": "PRES_VIS", "word": "shrub", "wordID": 1298, "conditions": [24, 800, "v", 12000], "trial": 7, "serialpos": 10, "trial_type": "single-stim", "trial_index": 251, "time_elapsed": 1225747, "internal_node_id": "0.0-179.0"}}, {"uniqueid": "MTK0266:3YGXWBAF71O59KYT4FFQ3ZCJPKU4CB", "current_trial": 252, "dateTime": 1510689950629, "trialdata": {"rt": -1, "stimulus": "<p id=\"stim\">OMELET</p>", "key_press": -1, "type": "PRES_VIS", "word": "omelet", "wordID": 975, "conditions": [24, 800, "v", 12000], "trial": 7, "serialpos": 11, "trial_type": "single-stim", "trial_index": 252, "time_elapsed": 1227437, "internal_node_id": "0.0-180.0"}}, {"uniqueid": "MTK0266:3YGXWBAF71O59KYT4FFQ3ZCJPKU4CB", "current_trial": 253, "dateTime": 1510689952561, "trialdata": {"rt": -1, "stimulus": "<p id=\"stim\">POET</p>", "key_press": -1, "type": "PRES_VIS", "word": "poet", "wordID": 1094, "conditions": [24, 800, "v", 12000], "trial": 7, "serialpos": 12, "trial_type": "single-stim", "trial_index": 253, "time_elapsed": 1229369, "internal_node_id": "0.0-181.0"}}, {"uniqueid": "MTK0266:3YGXWBAF71O59KYT4FFQ3ZCJPKU4CB", "current_trial": 254, "dateTime": 1510689954492, "trialdata": {"rt": -1, "stimulus": "<p id=\"stim\">TART</p>", "key_press": -1, "type": "PRES_VIS", "word": "tart", "wordID": 1435, "conditions": [24, 800, "v", 12000], "trial": 7, "serialpos": 13, "trial_type": "single-stim", "trial_index": 254, "time_elapsed": 1231300, "internal_node_id": "0.0-182.0"}}, {"uniqueid": "MTK0266:3YGXWBAF71O59KYT4FFQ3ZCJPKU4CB", "current_trial": 255, "dateTime": 1510689956393, "trialdata": {"rt": -1, "stimulus": "<p id=\"stim\">FRAGRANCE</p>", "key_press": -1, "type": "PRES_VIS", "word": "fragrance", "wordID": 598, "conditions": [24, 800, "v", 12000], "trial": 7, "serialpos": 14, "trial_type": "single-stim", "trial_index": 255, "time_elapsed": 1233201, "internal_node_id": "0.0-183.0"}}, {"uniqueid": "MTK0266:3YGXWBAF71O59KYT4FFQ3ZCJPKU4CB", "current_trial": 256, "dateTime": 1510689958045, "trialdata": {"rt": -1, "stimulus": "<p id=\"stim\">BRANCH</p>", "key_press": -1, "type": "PRES_VIS", "word": "branch", "wordID": 167, "conditions": [24, 800, "v", 12000], "trial": 7, "serialpos": 15, "trial_type": "single-stim", "trial_index": 256, "time_elapsed": 1234853, "internal_node_id": "0.0-184.0"}}, {"uniqueid": "MTK0266:3YGXWBAF71O59KYT4FFQ3ZCJPKU4CB", "current_trial": 257, "dateTime": 1510689959782, "trialdata": {"rt": -1, "stimulus": "<p id=\"stim\">BANKER</p>", "key_press": -1, "type": "PRES_VIS", "word": "banker", "wordID": 83, "conditions": [24, 800, "v", 12000], "trial": 7, "serialpos": 16, "trial_type": "single-stim", "trial_index": 257, "time_elapsed": 1236590, "internal_node_id": "0.0-185.0"}}, {"uniqueid": "MTK0266:3YGXWBAF71O59KYT4FFQ3ZCJPKU4CB", "current_trial": 258, "dateTime": 1510689961918, "trialdata": {"rt": -1, "stimulus": "<p id=\"stim\">POSSUM</p>", "key_press": -1, "type": "PRES_VIS", "word": "possum", "wordID": 1111, "conditions": [24, 800, "v", 12000], "trial": 7, "serialpos": 17, "trial_type": "single-stim", "trial_index": 258, "time_elapsed": 1238726, "internal_node_id": "0.0-186.0"}}, {"uniqueid": "MTK0266:3YGXWBAF71O59KYT4FFQ3ZCJPKU4CB", "current_trial": 259, "dateTime": 1510689964169, "trialdata": {"rt": -1, "stimulus": "<p id=\"stim\">HERO</p>", "key_press": -1, "type": "PRES_VIS", "word": "hero", "wordID": 705, "conditions": [24, 800, "v", 12000], "trial": 7, "serialpos": 18, "trial_type": "single-stim", "trial_index": 259, "time_elapsed": 1240976, "internal_node_id": "0.0-187.0"}}, {"uniqueid": "MTK0266:3YGXWBAF71O59KYT4FFQ3ZCJPKU4CB", "current_trial": 260, "dateTime": 1510689966094, "trialdata": {"rt": -1, "stimulus": "<p id=\"stim\">DOLPHIN</p>", "key_press": -1, "type": "PRES_VIS", "word": "dolphin", "wordID": 482, "conditions": [24, 800, "v", 12000], "trial": 7, "serialpos": 19, "trial_type": "single-stim", "trial_index": 260, "time_elapsed": 1242901, "internal_node_id": "0.0-188.0"}}, {"uniqueid": "MTK0266:3YGXWBAF71O59KYT4FFQ3ZCJPKU4CB", "current_trial": 261, "dateTime": 1510689967931, "trialdata": {"rt": -1, "stimulus": "<p id=\"stim\">ROBOT</p>", "key_press": -1, "type": "PRES_VIS", "word": "robot", "wordID": 1199, "conditions": [24, 800, "v", 12000], "trial": 7, "serialpos": 20, "trial_type": "single-stim", "trial_index": 261, "time_elapsed": 1244739, "internal_node_id": "0.0-189.0"}}, {"uniqueid": "MTK0266:3YGXWBAF71O59KYT4FFQ3ZCJPKU4CB", "current_trial": 262, "dateTime": 1510689969697, "trialdata": {"rt": -1, "stimulus": "<p id=\"stim\">PEACH</p>", "key_press": -1, "type": "PRES_VIS", "word": "peach", "wordID": 1030, "conditions": [24, 800, "v", 12000], "trial": 7, "serialpos": 21, "trial_type": "single-stim", "trial_index": 262, "time_elapsed": 1246505, "internal_node_id": "0.0-190.0"}}, {"uniqueid": "MTK0266:3YGXWBAF71O59KYT4FFQ3ZCJPKU4CB", "current_trial": 263, "dateTime": 1510689971508, "trialdata": {"rt": -1, "stimulus": "<p id=\"stim\">CITRUS</p>", "key_press": -1, "type": "PRES_VIS", "word": "citrus", "wordID": 312, "conditions": [24, 800, "v", 12000], "trial": 7, "serialpos": 22, "trial_type": "single-stim", "trial_index": 263, "time_elapsed": 1248315, "internal_node_id": "0.0-191.0"}}, {"uniqueid": "MTK0266:3YGXWBAF71O59KYT4FFQ3ZCJPKU4CB", "current_trial": 264, "dateTime": 1510689973149, "trialdata": {"rt": -1, "stimulus": "<p id=\"stim\">LIZARD</p>", "key_press": -1, "type": "PRES_VIS", "word": "lizard", "wordID": 833, "conditions": [24, 800, "v", 12000], "trial": 7, "serialpos": 23, "trial_type": "single-stim", "trial_index": 264, "time_elapsed": 1249956, "internal_node_id": "0.0-192.0"}}, {"uniqueid": "MTK0266:3YGXWBAF71O59KYT4FFQ3ZCJPKU4CB", "current_trial": 265, "dateTime": 1510689975549, "trialdata": {"rt": -1, "stimulus": "", "key_press": -1, "type": "PRE_RECALL_DELAY", "trial_type": "single-stim", "trial_index": 265, "time_elapsed": 1252356, "internal_node_id": "0.0-193.0-0.0"}}, {"uniqueid": "MTK0266:3YGXWBAF71O59KYT4FFQ3ZCJPKU4CB", "current_trial": 266, "dateTime": 1510689976051, "trialdata": {"rt": -1000, "stimulus": "/static/audio/400Hz.wav", "key_press": -1, "type": "PRE_RECALL_ALERT", "trial_type": "single-audio", "trial_index": 266, "time_elapsed": 1252858, "internal_node_id": "0.0-194.0"}}, {"uniqueid": "MTK0266:3YGXWBAF71O59KYT4FFQ3ZCJPKU4CB", "current_trial": 267, "dateTime": 1510690036063, "trialdata": {"rt": [19557, 22759, 24681, 27429], "recwords": ["seal", "furnace", "trial", "seal"], "type": "FREE_RECALL", "conditions": [24, 800, "v", 12000], "trial": 7, "trial_type": "free-recall", "trial_index": 267, "time_elapsed": 1312864, "internal_node_id": "0.0-195.0-0.0"}}, {"uniqueid": "MTK0266:3YGXWBAF71O59KYT4FFQ3ZCJPKU4CB", "current_trial": 268, "dateTime": 1510690045612, "trialdata": {"rt": 7547, "key_press": 32, "type": "INSTRUCTIONS", "trial_type": "text", "trial_index": 268, "time_elapsed": 1322420, "internal_node_id": "0.0-196.0"}}, {"uniqueid": "MTK0266:3YGXWBAF71O59KYT4FFQ3ZCJPKU4CB", "current_trial": 269, "dateTime": 1510690071620, "trialdata": {"rt": [4313, 6138, 8073, 10585, 13625, 17578, 20889], "responses": ["18", "16", "9", "10", "12", "8", "19"], "num1": [6, 8, 2, 3, 3, 3, 7, 2], "num2": [8, 2, 4, 4, 2, 4, 9, 7], "num3": [4, 6, 3, 3, 7, 1, 3, 3], "type": "DISTRACTOR", "conditions": [24, 800, "a", 24000], "trial": 8, "trial_type": "math-distractor", "trial_index": 269, "time_elapsed": 1348428, "internal_node_id": "0.0-197.0"}}, {"uniqueid": "MTK0266:3YGXWBAF71O59KYT4FFQ3ZCJPKU4CB", "current_trial": 270, "dateTime": 1510690074623, "trialdata": {"rt": -1, "stimulus": "<p id=\"stim\">10</p>", "key_press": -1, "trial_type": "single-stim", "trial_index": 270, "time_elapsed": 1351430, "internal_node_id": "0.0-198.0-0.0"}}, {"uniqueid": "MTK0266:3YGXWBAF71O59KYT4FFQ3ZCJPKU4CB", "current_trial": 271, "dateTime": 1510690075624, "trialdata": {"rt": -1, "stimulus": "<p id=\"stim\">9</p>", "key_press": -1, "trial_type": "single-stim", "trial_index": 271, "time_elapsed": 1352432, "internal_node_id": "0.0-198.0-1.0"}}, {"uniqueid": "MTK0266:3YGXWBAF71O59KYT4FFQ3ZCJPKU4CB", "current_trial": 272, "dateTime": 1510690076627, "trialdata": {"rt": -1, "stimulus": "<p id=\"stim\">8</p>", "key_press": -1, "trial_type": "single-stim", "trial_index": 272, "time_elapsed": 1353434, "internal_node_id": "0.0-198.0-2.0"}}, {"uniqueid": "MTK0266:3YGXWBAF71O59KYT4FFQ3ZCJPKU4CB", "current_trial": 273, "dateTime": 1510690077629, "trialdata": {"rt": -1, "stimulus": "<p id=\"stim\">7</p>", "key_press": -1, "trial_type": "single-stim", "trial_index": 273, "time_elapsed": 1354437, "internal_node_id": "0.0-198.0-3.0"}}, {"uniqueid": "MTK0266:3YGXWBAF71O59KYT4FFQ3ZCJPKU4CB", "cur