{"condition": 0, "counterbalance": 1143, "assignmentId": "3NC5L260MPTGGPSLE1K0P33R6W9OFM", "workerId": "MTK0923", "hitId": "371DNNCG449LRIPCC2VRK1W82S88TZ", "currenttrial": 626, "bonus": 0, "data": [{"uniqueid": "MTK0923:3NC5L260MPTGGPSLE1K0P33R6W9OFM", "current_trial": 0, "dateTime": 1512888245627, "trialdata": {"rt": 5651, "key_press": 32, "type": "INSTRUCTIONS", "trial_type": "text", "trial_index": 0, "time_elapsed": 5654, "internal_node_id": "0.0-0.0"}}, {"uniqueid": "MTK0923:3NC5L260MPTGGPSLE1K0P33R6W9OFM", "current_trial": 1, "dateTime": 1512888319988, "trialdata": {"rt": 74359, "key_press": 32, "type": "INSTRUCTIONS", "trial_type": "text", "trial_index": 1, "time_elapsed": 80015, "internal_node_id": "0.0-1.0"}}, {"uniqueid": "MTK0923:3NC5L260MPTGGPSLE1K0P33R6W9OFM", "current_trial": 2, "dateTime": 1512888330123, "trialdata": {"rt": [10127], "responses": ["ocean"], "type": "AUDIO_TEST", "trial_type": "audio-test", "trial_index": 2, "time_elapsed": 90150, "internal_node_id": "0.0-2.0"}}, {"uniqueid": "MTK0923:3NC5L260MPTGGPSLE1K0P33R6W9OFM", "current_trial": 3, "dateTime": 1512888336124, "trialdata": {"rt": [5997], "responses": ["crystal"], "type": "AUDIO_TEST", "trial_type": "audio-test", "trial_index": 3, "time_elapsed": 96151, "internal_node_id": "0.0-3.0"}}, {"uniqueid": "MTK0923:3NC5L260MPTGGPSLE1K0P33R6W9OFM", "current_trial": 4, "dateTime": 1512888341107, "trialdata": {"rt": [4979], "responses": ["spice"], "type": "AUDIO_TEST", "trial_type": "audio-test", "trial_index": 4, "time_elapsed": 101134, "internal_node_id": "0.0-4.0"}}, {"uniqueid": "MTK0923:3NC5L260MPTGGPSLE1K0P33R6W9OFM", "current_trial": 5, "dateTime": 1512888366613, "trialdata": {"rt": 24754, "responses": "{\"Q0\":\"12am\",\"Q1\":\"6am\",\"Q2\":\"5\"}", "type": "SLEEP_SURVEY", "trial_type": "survey-text", "trial_index": 5, "time_elapsed": 126640, "internal_node_id": "0.0-5.0"}}, {"uniqueid": "MTK0923:3NC5L260MPTGGPSLE1K0P33R6W9OFM", "current_trial": 6, "dateTime": 1512888392454, "trialdata": {"rt": 24839, "key_press": 32, "type": "INSTRUCTIONS", "trial_type": "text", "trial_index": 6, "time_elapsed": 152481, "internal_node_id": "0.0-6.0"}}, {"uniqueid": "MTK0923:3NC5L260MPTGGPSLE1K0P33R6W9OFM", "current_trial": 7, "dateTime": 1512888417869, "trialdata": {"rt": 24913, "key_press": 32, "type": "INSTRUCTIONS", "trial_type": "text", "trial_index": 7, "time_elapsed": 177896, "internal_node_id": "0.0-7.0"}}, {"uniqueid": "MTK0923:3NC5L260MPTGGPSLE1K0P33R6W9OFM", "current_trial": 8, "dateTime": 1512888425250, "trialdata": {"rt": 6880, "key_press": 32, "type": "INSTRUCTIONS", "trial_type": "text", "trial_index": 8, "time_elapsed": 185277, "internal_node_id": "0.0-8.0"}}, {"uniqueid": "MTK0923:3NC5L260MPTGGPSLE1K0P33R6W9OFM", "current_trial": 9, "dateTime": 1512888444255, "trialdata": {"rt": [2444, 6043, 8435, 11363, 14596, 17843], "responses": ["12", "13", "16", "17", "22", "16"], "num1": [2, 5, 6, 6, 8, 2, 4], "num2": [3, 7, 3, 9, 8, 6, 7], "num3": [7, 1, 7, 2, 6, 8, 7], "type": "DISTRACTOR", "conditions": [18, 1200, "v", 18000], "trial": 0, "trial_type": "math-distractor", "trial_index": 9, "time_elapsed": 204282, "internal_node_id": "0.0-9.0"}}, {"uniqueid": "MTK0923:3NC5L260MPTGGPSLE1K0P33R6W9OFM", "current_trial": 10, "dateTime": 1512888447258, "trialdata": {"rt": -1, "stimulus": "<p id=\"stim\">10</p>", "key_press": -1, "trial_type": "single-stim", "trial_index": 10, "time_elapsed": 207284, "internal_node_id": "0.0-10.0-0.0"}}, {"uniqueid": "MTK0923:3NC5L260MPTGGPSLE1K0P33R6W9OFM", "current_trial": 11, "dateTime": 1512888448260, "trialdata": {"rt": -1, "stimulus": "<p id=\"stim\">9</p>", "key_press": -1, "trial_type": "single-stim", "trial_index": 11, "time_elapsed": 208287, "internal_node_id": "0.0-10.0-1.0"}}, {"uniqueid": "MTK0923:3NC5L260MPTGGPSLE1K0P33R6W9OFM", "current_trial": 12, "dateTime": 1512888449262, "trialdata": {"rt": -1, "stimulus": "<p id=\"stim\">8</p>", "key_press": -1, "trial_type": "single-stim", "trial_index": 12, "time_elapsed": 209289, "internal_node_id": "0.0-10.0-2.0"}}, {"uniqueid": "MTK0923:3NC5L260MPTGGPSLE1K0P33R6W9OFM", "current_trial": 13, "dateTime": 1512888450263, "trialdata": {"rt": -1, "stimulus": "<p id=\"stim\">7</p>", "key_press": -1, "trial_type": "single-stim", "trial_index": 13, "time_elapsed": 210290, "internal_node_id": "0.0-10.0-3.0"}}, {"uniqueid": "MTK0923:3NC5L260MPTGGPSLE1K0P33R6W9OFM", "current_trial": 14, "dateTime": 1512888451264, "trialdata": {"rt": -1, "stimulus": "<p id=\"stim\">6</p>", "key_press": -1, "trial_type": "single-stim", "trial_index": 14, "time_elapsed": 211291, "internal_node_id": "0.0-10.0-4.0"}}, {"uniqueid": "MTK0923:3NC5L260MPTGGPSLE1K0P33R6W9OFM", "current_trial": 15, "dateTime": 1512888452267, "trialdata": {"rt": -1, "stimulus": "<p id=\"stim\">5</p>", "key_press": -1, "trial_type": "single-stim", "trial_index": 15, "time_elapsed": 212294, "internal_node_id": "0.0-10.0-5.0"}}, {"uniqueid": "MTK0923:3NC5L260MPTGGPSLE1K0P33R6W9OFM", "current_trial": 16, "dateTime": 1512888453268, "trialdata": {"rt": -1, "stimulus": "<p id=\"stim\">4</p>", "key_press": -1, "trial_type": "single-stim", "trial_index": 16, "time_elapsed": 213295, "internal_node_id": "0.0-10.0-6.0"}}, {"uniqueid": "MTK0923:3NC5L260MPTGGPSLE1K0P33R6W9OFM", "current_trial": 17, "dateTime": 1512888454270, "trialdata": {"rt": -1, "stimulus": "<p id=\"stim\">3</p>", "key_press": -1, "trial_type": "single-stim", "trial_index": 17, "time_elapsed": 214297, "internal_node_id": "0.0-10.0-7.0"}}, {"uniqueid": "MTK0923:3NC5L260MPTGGPSLE1K0P33R6W9OFM", "current_trial": 18, "dateTime": 1512888455271, "trialdata": {"rt": -1, "stimulus": "<p id=\"stim\">2</p>", "key_press": -1, "trial_type": "single-stim", "trial_index": 18, "time_elapsed": 215298, "internal_node_id": "0.0-10.0-8.0"}}, {"uniqueid": "MTK0923:3NC5L260MPTGGPSLE1K0P33R6W9OFM", "current_trial": 19, "dateTime": 1512888456272, "trialdata": {"rt": -1, "stimulus": "<p id=\"stim\">1</p>", "key_press": -1, "trial_type": "single-stim", "trial_index": 19, "time_elapsed": 216299, "internal_node_id": "0.0-10.0-9.0"}}, {"uniqueid": "MTK0923:3NC5L260MPTGGPSLE1K0P33R6W9OFM", "current_trial": 20, "dateTime": 1512888457798, "trialdata": {"rt": -1, "stimulus": "<p id=\"stim\">+</p>", "key_press": -1, "type": "FIXATION", "trial_type": "single-stim", "trial_index": 20, "time_elapsed": 217824, "internal_node_id": "0.0-11.0-0.0"}}, {"uniqueid": "MTK0923:3NC5L260MPTGGPSLE1K0P33R6W9OFM", "current_trial": 21, "dateTime": 1512888459000, "trialdata": {"rt": -1, "stimulus": "<p id=\"stim\">BANQUET</p>", "key_press": -1, "type": "PRES_VIS", "word": "banquet", "wordID": 85, "conditions": [18, 1200, "v", 18000], "trial": 0, "serialpos": 0, "trial_type": "single-stim", "trial_index": 21, "time_elapsed": 219027, "internal_node_id": "0.0-12.0"}}, {"uniqueid": "MTK0923:3NC5L260MPTGGPSLE1K0P33R6W9OFM", "current_trial": 22, "dateTime": 1512888461004, "trialdata": {"rt": -1, "stimulus": "<p id=\"stim\">OFFICE</p>", "key_press": -1, "type": "PRES_VIS", "word": "office", "wordID": 971, "conditions": [18, 1200, "v", 18000], "trial": 0, "serialpos": 1, "trial_type": "single-stim", "trial_index": 22, "time_elapsed": 221031, "internal_node_id": "0.0-13.0"}}, {"uniqueid": "MTK0923:3NC5L260MPTGGPSLE1K0P33R6W9OFM", "current_trial": 23, "dateTime": 1512888463323, "trialdata": {"rt": -1, "stimulus": "<p id=\"stim\">PARROT</p>", "key_press": -1, "type": "PRES_VIS", "word": "parrot", "wordID": 1014, "conditions": [18, 1200, "v", 18000], "trial": 0, "serialpos": 2, "trial_type": "single-stim", "trial_index": 23, "time_elapsed": 223350, "internal_node_id": "0.0-14.0"}}, {"uniqueid": "MTK0923:3NC5L260MPTGGPSLE1K0P33R6W9OFM", "current_trial": 24, "dateTime": 1512888465656, "trialdata": {"rt": -1, "stimulus": "<p id=\"stim\">MARS</p>", "key_press": -1, "type": "PRES_VIS", "word": "mars", "wordID": 872, "conditions": [18, 1200, "v", 18000], "trial": 0, "serialpos": 3, "trial_type": "single-stim", "trial_index": 24, "time_elapsed": 225683, "internal_node_id": "0.0-15.0"}}, {"uniqueid": "MTK0923:3NC5L260MPTGGPSLE1K0P33R6W9OFM", "current_trial": 25, "dateTime": 1512888467896, "trialdata": {"rt": -1, "stimulus": "<p id=\"stim\">CAFE</p>", "key_press": -1, "type": "PRES_VIS", "word": "cafe", "wordID": 215, "conditions": [18, 1200, "v", 18000], "trial": 0, "serialpos": 4, "trial_type": "single-stim", "trial_index": 25, "time_elapsed": 227923, "internal_node_id": "0.0-16.0"}}, {"uniqueid": "MTK0923:3NC5L260MPTGGPSLE1K0P33R6W9OFM", "current_trial": 26, "dateTime": 1512888470047, "trialdata": {"rt": -1, "stimulus": "<p id=\"stim\">RABBIT</p>", "key_press": -1, "type": "PRES_VIS", "word": "rabbit", "wordID": 1151, "conditions": [18, 1200, "v", 18000], "trial": 0, "serialpos": 5, "trial_type": "single-stim", "trial_index": 26, "time_elapsed": 230074, "internal_node_id": "0.0-17.0"}}, {"uniqueid": "MTK0923:3NC5L260MPTGGPSLE1K0P33R6W9OFM", "current_trial": 27, "dateTime": 1512888472235, "trialdata": {"rt": -1, "stimulus": "<p id=\"stim\">SILK</p>", "key_press": -1, "type": "PRES_VIS", "word": "silk", "wordID": 1306, "conditions": [18, 1200, "v", 18000], "trial": 0, "serialpos": 6, "trial_type": "single-stim", "trial_index": 27, "time_elapsed": 232262, "internal_node_id": "0.0-18.0"}}, {"uniqueid": "MTK0923:3NC5L260MPTGGPSLE1K0P33R6W9OFM", "current_trial": 28, "dateTime": 1512888474291, "trialdata": {"rt": -1, "stimulus": "<p id=\"stim\">CAPTIVE</p>", "key_press": -1, "type": "PRES_VIS", "word": "captive", "wordID": 239, "conditions": [18, 1200, "v", 18000], "trial": 0, "serialpos": 7, "trial_type": "single-stim", "trial_index": 28, "time_elapsed": 234318, "internal_node_id": "0.0-19.0"}}, {"uniqueid": "MTK0923:3NC5L260MPTGGPSLE1K0P33R6W9OFM", "current_trial": 29, "dateTime": 1512888476628, "trialdata": {"rt": -1, "stimulus": "<p id=\"stim\">CONTRACT</p>", "key_press": -1, "type": "PRES_VIS", "word": "contract", "wordID": 367, "conditions": [18, 1200, "v", 18000], "trial": 0, "serialpos": 8, "trial_type": "single-stim", "trial_index": 29, "time_elapsed": 236655, "internal_node_id": "0.0-20.0"}}, {"uniqueid": "MTK0923:3NC5L260MPTGGPSLE1K0P33R6W9OFM", "current_trial": 30, "dateTime": 1512888478941, "trialdata": {"rt": -1, "stimulus": "<p id=\"stim\">EXPERT</p>", "key_press": -1, "type": "PRES_VIS", "word": "expert", "wordID": 542, "conditions": [18, 1200, "v", 18000], "trial": 0, "serialpos": 9, "trial_type": "single-stim", "trial_index": 30, "time_elapsed": 238968, "internal_node_id": "0.0-21.0"}}, {"uniqueid": "MTK0923:3NC5L260MPTGGPSLE1K0P33R6W9OFM", "current_trial": 31, "dateTime": 1512888480996, "trialdata": {"rt": -1, "stimulus": "<p id=\"stim\">BADGE</p>", "key_press": -1, "type": "PRES_VIS", "word": "badge", "wordID": 67, "conditions": [18, 1200, "v", 18000], "trial": 0, "serialpos": 10, "trial_type": "single-stim", "trial_index": 31, "time_elapsed": 241022, "internal_node_id": "0.0-22.0"}}, {"uniqueid": "MTK0923:3NC5L260MPTGGPSLE1K0P33R6W9OFM", "current_trial": 32, "dateTime": 1512888483343, "trialdata": {"rt": -1, "stimulus": "<p id=\"stim\">PUPPY</p>", "key_press": -1, "type": "PRES_VIS", "word": "puppy", "wordID": 1143, "conditions": [18, 1200, "v", 18000], "trial": 0, "serialpos": 11, "trial_type": "single-stim", "trial_index": 32, "time_elapsed": 243370, "internal_node_id": "0.0-23.0"}}, {"uniqueid": "MTK0923:3NC5L260MPTGGPSLE1K0P33R6W9OFM", "current_trial": 33, "dateTime": 1512888485509, "trialdata": {"rt": -1, "stimulus": "<p id=\"stim\">ATLAS</p>", "key_press": -1, "type": "PRES_VIS", "word": "atlas", "wordID": 52, "conditions": [18, 1200, "v", 18000], "trial": 0, "serialpos": 12, "trial_type": "single-stim", "trial_index": 33, "time_elapsed": 245536, "internal_node_id": "0.0-24.0"}}, {"uniqueid": "MTK0923:3NC5L260MPTGGPSLE1K0P33R6W9OFM", "current_trial": 34, "dateTime": 1512888487744, "trialdata": {"rt": -1, "stimulus": "<p id=\"stim\">HARP</p>", "key_press": -1, "type": "PRES_VIS", "word": "harp", "wordID": 688, "conditions": [18, 1200, "v", 18000], "trial": 0, "serialpos": 13, "trial_type": "single-stim", "trial_index": 34, "time_elapsed": 247771, "internal_node_id": "0.0-25.0"}}, {"uniqueid": "MTK0923:3NC5L260MPTGGPSLE1K0P33R6W9OFM", "current_trial": 35, "dateTime": 1512888489856, "trialdata": {"rt": -1, "stimulus": "<p id=\"stim\">QUARTER</p>", "key_press": -1, "type": "PRES_VIS", "word": "quarter", "wordID": 1147, "conditions": [18, 1200, "v", 18000], "trial": 0, "serialpos": 14, "trial_type": "single-stim", "trial_index": 35, "time_elapsed": 249883, "internal_node_id": "0.0-26.0"}}, {"uniqueid": "MTK0923:3NC5L260MPTGGPSLE1K0P33R6W9OFM", "current_trial": 36, "dateTime": 1512888491995, "trialdata": {"rt": -1, "stimulus": "<p id=\"stim\">MARSH</p>", "key_press": -1, "type": "PRES_VIS", "word": "marsh", "wordID": 873, "conditions": [18, 1200, "v", 18000], "trial": 0, "serialpos": 15, "trial_type": "single-stim", "trial_index": 36, "time_elapsed": 252021, "internal_node_id": "0.0-27.0"}}, {"uniqueid": "MTK0923:3NC5L260MPTGGPSLE1K0P33R6W9OFM", "current_trial": 37, "dateTime": 1512888494254, "trialdata": {"rt": -1, "stimulus": "<p id=\"stim\">STUDENT</p>", "key_press": -1, "type": "PRES_VIS", "word": "student", "wordID": 1394, "conditions": [18, 1200, "v", 18000], "trial": 0, "serialpos": 16, "trial_type": "single-stim", "trial_index": 37, "time_elapsed": 254281, "internal_node_id": "0.0-28.0"}}, {"uniqueid": "MTK0923:3NC5L260MPTGGPSLE1K0P33R6W9OFM", "current_trial": 38, "dateTime": 1512888496488, "trialdata": {"rt": -1, "stimulus": "<p id=\"stim\">HOSTESS</p>", "key_press": -1, "type": "PRES_VIS", "word": "hostess", "wordID": 722, "conditions": [18, 1200, "v", 18000], "trial": 0, "serialpos": 17, "trial_type": "single-stim", "trial_index": 38, "time_elapsed": 256515, "internal_node_id": "0.0-29.0"}}, {"uniqueid": "MTK0923:3NC5L260MPTGGPSLE1K0P33R6W9OFM", "current_trial": 39, "dateTime": 1512888498845, "trialdata": {"rt": -1, "stimulus": "", "key_press": -1, "type": "PRE_RECALL_DELAY", "trial_type": "single-stim", "trial_index": 39, "time_elapsed": 258872, "internal_node_id": "0.0-30.0-0.0"}}, {"uniqueid": "MTK0923:3NC5L260MPTGGPSLE1K0P33R6W9OFM", "current_trial": 40, "dateTime": 1512888499346, "trialdata": {"rt": -1000, "stimulus": "/static/audio/400Hz.wav", "key_press": -1, "type": "PRE_RECALL_ALERT", "trial_type": "single-audio", "trial_index": 40, "time_elapsed": 259373, "internal_node_id": "0.0-31.0"}}, {"uniqueid": "MTK0923:3NC5L260MPTGGPSLE1K0P33R6W9OFM", "current_trial": 41, "dateTime": 1512888559352, "trialdata": {"rt": [4574, 6549, 8693, 12410, 15470, 22432, 32107, 35958, 41685], "recwords": ["banquet", "office", "mars", "hostess", "market", "silk", "office", "mars", "rabbit"], "type": "FREE_RECALL", "conditions": [18, 1200, "v", 18000], "trial": 0, "trial_type": "free-recall", "trial_index": 41, "time_elapsed": 319377, "internal_node_id": "0.0-32.0-0.0"}}, {"uniqueid": "MTK0923:3NC5L260MPTGGPSLE1K0P33R6W9OFM", "current_trial": 42, "dateTime": 1512888564265, "trialdata": {"rt": 2913, "key_press": 32, "type": "INSTRUCTIONS", "trial_type": "text", "trial_index": 42, "time_elapsed": 324292, "internal_node_id": "0.0-33.0"}}, {"uniqueid": "MTK0923:3NC5L260MPTGGPSLE1K0P33R6W9OFM", "current_trial": 43, "dateTime": 1512888584280, "trialdata": {"rt": [3476, 7220, 10596, 13773, 17644], "responses": ["21", "21", "13", "9", "14"], "num1": [5, 7, 7, 4, 7, 1], "num2": [9, 9, 2, 2, 6, 8], "num3": [7, 5, 4, 3, 1, 8], "type": "DISTRACTOR", "conditions": [18, 1200, "a", 18000], "trial": 1, "trial_type": "math-distractor", "trial_index": 43, "time_elapsed": 344307, "internal_node_id": "0.0-34.0"}}, {"uniqueid": "MTK0923:3NC5L260MPTGGPSLE1K0P33R6W9OFM", "current_trial": 44, "dateTime": 1512888587314, "trialdata": {"rt": -1, "stimulus": "<p id=\"stim\">10</p>", "key_press": -1, "trial_type": "single-stim", "trial_index": 44, "time_elapsed": 347341, "internal_node_id": "0.0-35.0-0.0"}}, {"uniqueid": "MTK0923:3NC5L260MPTGGPSLE1K0P33R6W9OFM", "current_trial": 45, "dateTime": 1512888588315, "trialdata": {"rt": -1, "stimulus": "<p id=\"stim\">9</p>", "key_press": -1, "trial_type": "single-stim", "trial_index": 45, "time_elapsed": 348342, "internal_node_id": "0.0-35.0-1.0"}}, {"uniqueid": "MTK0923:3NC5L260MPTGGPSLE1K0P33R6W9OFM", "current_trial": 46, "dateTime": 1512888589317, "trialdata": {"rt": -1, "stimulus": "<p id=\"stim\">8</p>", "key_press": -1, "trial_type": "single-stim", "trial_index": 46, "time_elapsed": 349343, "internal_node_id": "0.0-35.0-2.0"}}, {"uniqueid": "MTK0923:3NC5L260MPTGGPSLE1K0P33R6W9OFM", "current_trial": 47, "dateTime": 1512888590318, "trialdata": {"rt": -1, "stimulus": "<p id=\"stim\">7</p>", "key_press": -1, "trial_type": "single-stim", "trial_index": 47, "time_elapsed": 350345, "internal_node_id": "0.0-35.0-3.0"}}, {"uniqueid": "MTK0923:3NC5L260MPTGGPSLE1K0P33R6W9OFM", "current_trial": 48, "dateTime": 1512888591319, "trialdata": {"rt": -1, "stimulus": "<p id=\"stim\">6</p>", "key_press": -1, "trial_type": "single-stim", "trial_index": 48, "time_elapsed": 351346, "internal_node_id": "0.0-35.0-4.0"}}, {"uniqueid": "MTK0923:3NC5L260MPTGGPSLE1K0P33R6W9OFM", "current_trial": 49, "dateTime": 1512888592320, "trialdata": {"rt": -1, "stimulus": "<p id=\"stim\">5</p>", "key_press": -1, "trial_type": "single-stim", "trial_index": 49, "time_elapsed": 352347, "internal_node_id": "0.0-35.0-5.0"}}, {"uniqueid": "MTK0923:3NC5L260MPTGGPSLE1K0P33R6W9OFM", "current_trial": 50, "dateTime": 1512888593322, "trialdata": {"rt": -1, "stimulus": "<p id=\"stim\">4</p>", "key_press": -1, "trial_type": "single-stim", "trial_index": 50, "time_elapsed": 353349, "internal_node_id": "0.0-35.0-6.0"}}, {"uniqueid": "MTK0923:3NC5L260MPTGGPSLE1K0P33R6W9OFM", "current_trial": 51, "dateTime": 1512888594323, "trialdata": {"rt": -1, "stimulus": "<p id=\"stim\">3</p>", "key_press": -1, "trial_type": "single-stim", "trial_index": 51, "time_elapsed": 354350, "internal_node_id": "0.0-35.0-7.0"}}, {"uniqueid": "MTK0923:3NC5L260MPTGGPSLE1K0P33R6W9OFM", "current_trial": 52, "dateTime": 1512888595324, "trialdata": {"rt": -1, "stimulus": "<p id=\"stim\">2</p>", "key_press": -1, "trial_type": "single-stim", "trial_index": 52, "time_elapsed": 355351, "internal_node_id": "0.0-35.0-8.0"}}, {"uniqueid": "MTK0923:3NC5L260MPTGGPSLE1K0P33R6W9OFM", "current_trial": 53, "dateTime": 1512888596325, "trialdata": {"rt": -1, "stimulus": "<p id=\"stim\">1</p>", "key_press": -1, "trial_type": "single-stim", "trial_index": 53, "time_elapsed": 356352, "internal_node_id": "0.0-35.0-9.0"}}, {"uniqueid": "MTK0923:3NC5L260MPTGGPSLE1K0P33R6W9OFM", "current_trial": 54, "dateTime": 1512888597828, "trialdata": {"rt": -1, "stimulus": "<p id=\"stim\">+</p>", "key_press": -1, "type": "FIXATION", "trial_type": "single-stim", "trial_index": 54, "time_elapsed": 357855, "internal_node_id": "0.0-36.0-0.0"}}, {"uniqueid": "MTK0923:3NC5L260MPTGGPSLE1K0P33R6W9OFM", "current_trial": 55, "dateTime": 1512888599903, "trialdata": {"rt": -1000, "stimulus": "/static/audio/wordpool/COBRA.wav", "key_press": -1, "type": "PRES_AUD", "word": "cobra", "wordID": 335, "conditions": [18, 1200, "a", 18000], "trial": 1, "serialpos": 0, "trial_type": "single-audio", "trial_index": 55, "time_elapsed": 359930, "internal_node_id": "0.0-37.0"}}, {"uniqueid": "MTK0923:3NC5L260MPTGGPSLE1K0P33R6W9OFM", "current_trial": 56, "dateTime": 1512888602100, "trialdata": {"rt": -1000, "stimulus": "/static/audio/wordpool/JAPAN.wav", "key_press": -1, "type": "PRES_AUD", "word": "japan", "wordID": 748, "conditions": [18, 1200, "a", 18000], "trial": 1, "serialpos": 1, "trial_type": "single-audio", "trial_index": 56, "time_elapsed": 362127, "internal_node_id": "0.0-38.0"}}, {"uniqueid": "MTK0923:3NC5L260MPTGGPSLE1K0P33R6W9OFM", "current_trial": 57, "dateTime": 1512888604249, "trialdata": {"rt": -1000, "stimulus": "/static/audio/wordpool/OUTLAW.wav", "key_press": -1, "type": "PRES_AUD", "word": "outlaw", "wordID": 988, "conditions": [18, 1200, "a", 18000], "trial": 1, "serialpos": 2, "trial_type": "single-audio", "trial_index": 57, "time_elapsed": 364276, "internal_node_id": "0.0-39.0"}}, {"uniqueid": "MTK0923:3NC5L260MPTGGPSLE1K0P33R6W9OFM", "current_trial": 58, "dateTime": 1512888606552, "trialdata": {"rt": -1000, "stimulus": "/static/audio/wordpool/POPCORN.wav", "key_press": -1, "type": "PRES_AUD", "word": "popcorn", "wordID": 1103, "conditions": [18, 1200, "a", 18000], "trial": 1, "serialpos": 3, "trial_type": "single-audio", "trial_index": 58, "time_elapsed": 366579, "internal_node_id": "0.0-40.0"}}, {"uniqueid": "MTK0923:3NC5L260MPTGGPSLE1K0P33R6W9OFM", "current_trial": 59, "dateTime": 1512888608842, "trialdata": {"rt": -1000, "stimulus": "/static/audio/wordpool/ASIA.wav", "key_press": -1, "type": "PRES_AUD", "word": "asia", "wordID": 45, "conditions": [18, 1200, "a", 18000], "trial": 1, "serialpos": 4, "trial_type": "single-audio", "trial_index": 59, "time_elapsed": 368869, "internal_node_id": "0.0-41.0"}}, {"uniqueid": "MTK0923:3NC5L260MPTGGPSLE1K0P33R6W9OFM", "current_trial": 60, "dateTime": 1512888611059, "trialdata": {"rt": -1000, "stimulus": "/static/audio/wordpool/BACON.wav", "key_press": -1, "type": "PRES_AUD", "word": "bacon", "wordID": 66, "conditions": [18, 1200, "a", 18000], "trial": 1, "serialpos": 5, "trial_type": "single-audio", "trial_index": 60, "time_elapsed": 371086, "internal_node_id": "0.0-42.0"}}, {"uniqueid": "MTK0923:3NC5L260MPTGGPSLE1K0P33R6W9OFM", "current_trial": 61, "dateTime": 1512888613431, "trialdata": {"rt": -1000, "stimulus": "/static/audio/wordpool/CONVICT.wav", "key_press": -1, "type": "PRES_AUD", "word": "convict", "wordID": 370, "conditions": [18, 1200, "a", 18000], "trial": 1, "serialpos": 6, "trial_type": "single-audio", "trial_index": 61, "time_elapsed": 373458, "internal_node_id": "0.0-43.0"}}, {"uniqueid": "MTK0923:3NC5L260MPTGGPSLE1K0P33R6W9OFM", "current_trial": 62, "dateTime": 1512888615709, "trialdata": {"rt": -1000, "stimulus": "/static/audio/wordpool/SHELTER.wav", "key_press": -1, "type": "PRES_AUD", "word": "shelter", "wordID": 1281, "conditions": [18, 1200, "a", 18000], "trial": 1, "serialpos": 7, "trial_type": "single-audio", "trial_index": 62, "time_elapsed": 375736, "internal_node_id": "0.0-44.0"}}, {"uniqueid": "MTK0923:3NC5L260MPTGGPSLE1K0P33R6W9OFM", "current_trial": 63, "dateTime": 1512888617988, "trialdata": {"rt": -1000, "stimulus": "/static/audio/wordpool/DANCER.wav", "key_press": -1, "type": "PRES_AUD", "word": "dancer", "wordID": 436, "conditions": [18, 1200, "a", 18000], "trial": 1, "serialpos": 8, "trial_type": "single-audio", "trial_index": 63, "time_elapsed": 378015, "internal_node_id": "0.0-45.0"}}, {"uniqueid": "MTK0923:3NC5L260MPTGGPSLE1K0P33R6W9OFM", "current_trial": 64, "dateTime": 1512888620245, "trialdata": {"rt": -1000, "stimulus": "/static/audio/wordpool/PEBBLE.wav", "key_press": -1, "type": "PRES_AUD", "word": "pebble", "wordID": 1034, "conditions": [18, 1200, "a", 18000], "trial": 1, "serialpos": 9, "trial_type": "single-audio", "trial_index": 64, "time_elapsed": 380272, "internal_node_id": "0.0-46.0"}}, {"uniqueid": "MTK0923:3NC5L260MPTGGPSLE1K0P33R6W9OFM", "current_trial": 65, "dateTime": 1512888622272, "trialdata": {"rt": -1000, "stimulus": "/static/audio/wordpool/FLIPPER.wav", "key_press": -1, "type": "PRES_AUD", "word": "flipper", "wordID": 579, "conditions": [18, 1200, "a", 18000], "trial": 1, "serialpos": 10, "trial_type": "single-audio", "trial_index": 65, "time_elapsed": 382299, "internal_node_id": "0.0-47.0"}}, {"uniqueid": "MTK0923:3NC5L260MPTGGPSLE1K0P33R6W9OFM", "current_trial": 66, "dateTime": 1512888624427, "trialdata": {"rt": -1000, "stimulus": "/static/audio/wordpool/MARINE.wav", "key_press": -1, "type": "PRES_AUD", "word": "marine", "wordID": 868, "conditions": [18, 1200, "a", 18000], "trial": 1, "serialpos": 11, "trial_type": "single-audio", "trial_index": 66, "time_elapsed": 384454, "internal_node_id": "0.0-48.0"}}, {"uniqueid": "MTK0923:3NC5L260MPTGGPSLE1K0P33R6W9OFM", "current_trial": 67, "dateTime": 1512888626580, "trialdata": {"rt": -1000, "stimulus": "/static/audio/wordpool/PEPPER.wav", "key_press": -1, "type": "PRES_AUD", "word": "pepper", "wordID": 1046, "conditions": [18, 1200, "a", 18000], "trial": 1, "serialpos": 12, "trial_type": "single-audio", "trial_index": 67, "time_elapsed": 386607, "internal_node_id": "0.0-49.0"}}, {"uniqueid": "MTK0923:3NC5L260MPTGGPSLE1K0P33R6W9OFM", "current_trial": 68, "dateTime": 1512888628971, "trialdata": {"rt": -1000, "stimulus": "/static/audio/wordpool/MATTRESS.wav", "key_press": -1, "type": "PRES_AUD", "word": "mattress", "wordID": 878, "conditions": [18, 1200, "a", 18000], "trial": 1, "serialpos": 13, "trial_type": "single-audio", "trial_index": 68, "time_elapsed": 388997, "internal_node_id": "0.0-50.0"}}, {"uniqueid": "MTK0923:3NC5L260MPTGGPSLE1K0P33R6W9OFM", "current_trial": 69, "dateTime": 1512888631226, "trialdata": {"rt": -1000, "stimulus": "/static/audio/wordpool/GRAVE.wav", "key_press": -1, "type": "PRES_AUD", "word": "grave", "wordID": 657, "conditions": [18, 1200, "a", 18000], "trial": 1, "serialpos": 14, "trial_type": "single-audio", "trial_index": 69, "time_elapsed": 391253, "internal_node_id": "0.0-51.0"}}, {"uniqueid": "MTK0923:3NC5L260MPTGGPSLE1K0P33R6W9OFM", "current_trial": 70, "dateTime": 1512888633426, "trialdata": {"rt": -1000, "stimulus": "/static/audio/wordpool/EAGLE.wav", "key_press": -1, "type": "PRES_AUD", "word": "eagle", "wordID": 511, "conditions": [18, 1200, "a", 18000], "trial": 1, "serialpos": 15, "trial_type": "single-audio", "trial_index": 70, "time_elapsed": 393453, "internal_node_id": "0.0-52.0"}}, {"uniqueid": "MTK0923:3NC5L260MPTGGPSLE1K0P33R6W9OFM", "current_trial": 71, "dateTime": 1512888635718, "trialdata": {"rt": -1000, "stimulus": "/static/audio/wordpool/TROUT.wav", "key_press": -1, "type": "PRES_AUD", "word": "trout", "wordID": 1510, "conditions": [18, 1200, "a", 18000], "trial": 1, "serialpos": 16, "trial_type": "single-audio", "trial_index": 71, "time_elapsed": 395745, "internal_node_id": "0.0-53.0"}}, {"uniqueid": "MTK0923:3NC5L260MPTGGPSLE1K0P33R6W9OFM", "current_trial": 72, "dateTime": 1512888637797, "trialdata": {"rt": -1000, "stimulus": "/static/audio/wordpool/TURNIP.wav", "key_press": -1, "type": "PRES_AUD", "word": "turnip", "wordID": 1520, "conditions": [18, 1200, "a", 18000], "trial": 1, "serialpos": 17, "trial_type": "single-audio", "trial_index": 72, "time_elapsed": 397824, "internal_node_id": "0.0-54.0"}}, {"uniqueid": "MTK0923:3NC5L260MPTGGPSLE1K0P33R6W9OFM", "current_trial": 73, "dateTime": 1512888639020, "trialdata": {"rt": -1, "stimulus": "", "key_press": -1, "type": "PRE_RECALL_DELAY", "trial_type": "single-stim", "trial_index": 73, "time_elapsed": 399047, "internal_node_id": "0.0-55.0-0.0"}}, {"uniqueid": "MTK0923:3NC5L260MPTGGPSLE1K0P33R6W9OFM", "current_trial": 74, "dateTime": 1512888639521, "trialdata": {"rt": -1000, "stimulus": "/static/audio/400Hz.wav", "key_press": -1, "type": "PRE_RECALL_ALERT", "trial_type": "single-audio", "trial_index": 74, "time_elapsed": 399548, "internal_node_id": "0.0-56.0"}}, {"uniqueid": "MTK0923:3NC5L260MPTGGPSLE1K0P33R6W9OFM", "current_trial": 75, "dateTime": 1512888699539, "trialdata": {"rt": [6758, 10257, 12862, 14993, 16446, 17974, 20206, 24093, 26013, 28582, 29918, 32030, 34406, 37974, 45326, 48958, 52174], "recwords": ["shelter", "bacon", "popcorn", "outlaw", "japan", "cobra", "pepper", "mattress", "grave", "turnip", "eagle", "pebble", "flipper", "trout", "dancer", "asia", "popcorn"], "type": "FREE_RECALL", "conditions": [18, 1200, "a", 18000], "trial": 1, "trial_type": "free-recall", "trial_index": 75, "time_elapsed": 459565, "internal_node_id": "0.0-57.0-0.0"}}, {"uniqueid": "MTK0923:3NC5L260MPTGGPSLE1K0P33R6W9OFM", "current_trial": 76, "dateTime": 1512888708670, "trialdata": {"rt": 7118, "key_press": 32, "type": "INSTRUCTIONS", "trial_type": "text", "trial_index": 76, "time_elapsed": 468694, "internal_node_id": "0.0-58.0"}}, {"uniqueid": "MTK0923:3NC5L260MPTGGPSLE1K0P33R6W9OFM", "current_trial": 77, "dateTime": 1512888733674, "trialdata": {"rt": [4006, 8238, 11575, 14958, 17537, 19674, 21846], "responses": ["22", "16", "20", "13", "7", "11", "10"], "num1": [6, 9, 8, 4, 3, 9, 3, 5], "num2": [7, 5, 5, 5, 2, 1, 2, 4], "num3": [9, 2, 7, 4, 2, 1, 5, 8], "type": "DISTRACTOR", "conditions": [24, 800, "v", 24000], "trial": 2, "trial_type": "math-distractor", "trial_index": 77, "time_elapsed": 493701, "internal_node_id": "0.0-59.0"}}, {"uniqueid": "MTK0923:3NC5L260MPTGGPSLE1K0P33R6W9OFM", "current_trial": 78, "dateTime": 1512888736681, "trialdata": {"rt": -1, "stimulus": "<p id=\"stim\">10</p>", "key_press": -1, "trial_type": "single-stim", "trial_index": 78, "time_elapsed": 496708, "internal_node_id": "0.0-60.0-0.0"}}, {"uniqueid": "MTK0923:3NC5L260MPTGGPSLE1K0P33R6W9OFM", "current_trial": 79, "dateTime": 1512888737722, "trialdata": {"rt": -1, "stimulus": "<p id=\"stim\">9</p>", "key_press": -1, "trial_type": "single-stim", "trial_index": 79, "time_elapsed": 497749, "internal_node_id": "0.0-60.0-1.0"}}, {"uniqueid": "MTK0923:3NC5L260MPTGGPSLE1K0P33R6W9OFM", "current_trial": 80, "dateTime": 1512888738723, "trialdata": {"rt": -1, "stimulus": "<p id=\"stim\">8</p>", "key_press": -1, "trial_type": "single-stim", "trial_index": 80, "time_elapsed": 498750, "internal_node_id": "0.0-60.0-2.0"}}, {"uniqueid": "MTK0923:3NC5L260MPTGGPSLE1K0P33R6W9OFM", "current_trial": 81, "dateTime": 1512888739725, "trialdata": {"rt": -1, "stimulus": "<p id=\"stim\">7</p>", "key_press": -1, "trial_type": "single-stim", "trial_index": 81, "time_elapsed": 499752, "internal_node_id": "0.0-60.0-3.0"}}, {"uniqueid": "MTK0923:3NC5L260MPTGGPSLE1K0P33R6W9OFM", "current_trial": 82, "dateTime": 1512888740726, "trialdata": {"rt": -1, "stimulus": "<p id=\"stim\">6</p>", "key_press": -1, "trial_type": "single-stim", "trial_index": 82, "time_elapsed": 500753, "internal_node_id": "0.0-60.0-4.0"}}, {"uniqueid": "MTK0923:3NC5L260MPTGGPSLE1K0P33R6W9OFM", "current_trial": 83, "dateTime": 1512888741732, "trialdata": {"rt": -1, "stimulus": "<p id=\"stim\">5</p>", "key_press": -1, "trial_type": "single-stim", "trial_index": 83, "time_elapsed": 501759, "internal_node_id": "0.0-60.0-5.0"}}, {"uniqueid": "MTK0923:3NC5L260MPTGGPSLE1K0P33R6W9OFM", "current_trial": 84, "dateTime": 1512888742734, "trialdata": {"rt": -1, "stimulus": "<p id=\"stim\">4</p>", "key_press": -1, "trial_type": "single-stim", "trial_index": 84, "time_elapsed": 502761, "internal_node_id": "0.0-60.0-6.0"}}, {"uniqueid": "MTK0923:3NC5L260MPTGGPSLE1K0P33R6W9OFM", "current_trial": 85, "dateTime": 1512888743735, "trialdata": {"rt": -1, "stimulus": "<p id=\"stim\">3</p>", "key_press": -1, "trial_type": "single-stim", "trial_index": 85, "time_elapsed": 503762, "internal_node_id": "0.0-60.0-7.0"}}, {"uniqueid": "MTK0923:3NC5L260MPTGGPSLE1K0P33R6W9OFM", "current_trial": 86, "dateTime": 1512888744743, "trialdata": {"rt": -1, "stimulus": "<p id=\"stim\">2</p>", "key_press": -1, "trial_type": "single-stim", "trial_index": 86, "time_elapsed": 504770, "internal_node_id": "0.0-60.0-8.0"}}, {"uniqueid": "MTK0923:3NC5L260MPTGGPSLE1K0P33R6W9OFM", "current_trial": 87, "dateTime": 1512888745744, "trialdata": {"rt": -1, "stimulus": "<p id=\"stim\">1</p>", "key_press": -1, "trial_type": "single-stim", "trial_index": 87, "time_elapsed": 505771, "internal_node_id": "0.0-60.0-9.0"}}, {"uniqueid": "MTK0923:3NC5L260MPTGGPSLE1K0P33R6W9OFM", "current_trial": 88, "dateTime": 1512888747245, "trialdata": {"rt": -1, "stimulus": "<p id=\"stim\">+</p>", "key_press": -1, "type": "FIXATION", "trial_type": "single-stim", "trial_index": 88, "time_elapsed": 507272, "internal_node_id": "0.0-61.0-0.0"}}, {"uniqueid": "MTK0923:3NC5L260MPTGGPSLE1K0P33R6W9OFM", "current_trial": 89, "dateTime": 1512888748046, "trialdata": {"rt": -1, "stimulus": "<p id=\"stim\">DOUGHNUT</p>", "key_press": -1, "type": "PRES_VIS", "word": "doughnut", "wordID": 489, "conditions": [24, 800, "v", 24000], "trial": 2, "serialpos": 0, "trial_type": "single-stim", "trial_index": 89, "time_elapsed": 508073, "internal_node_id": "0.0-62.0"}}, {"uniqueid": "MTK0923:3NC5L260MPTGGPSLE1K0P33R6W9OFM", "current_trial": 90, "dateTime": 1512888749931, "trialdata": {"rt": -1, "stimulus": "<p id=\"stim\">POWDER</p>", "key_press": -1, "type": "PRES_VIS", "word": "powder", "wordID": 1116, "conditions": [24, 800, "v", 24000], "trial": 2, "serialpos": 1, "trial_type": "single-stim", "trial_index": 90, "time_elapsed": 509958, "internal_node_id": "0.0-63.0"}}, {"uniqueid": "MTK0923:3NC5L260MPTGGPSLE1K0P33R6W9OFM", "current_trial": 91, "dateTime": 1512888751689, "trialdata": {"rt": -1, "stimulus": "<p id=\"stim\">SODA</p>", "key_press": -1, "type": "PRES_VIS", "word": "soda", "wordID": 1340, "conditions": [24, 800, "v", 24000], "trial": 2, "serialpos": 2, "trial_type": "single-stim", "trial_index": 91, "time_elapsed": 511716, "internal_node_id": "0.0-64.0"}}, {"uniqueid": "MTK0923:3NC5L260MPTGGPSLE1K0P33R6W9OFM", "current_trial": 92, "dateTime": 1512888753597, "trialdata": {"rt": -1, "stimulus": "<p id=\"stim\">GARBAGE</p>", "key_press": -1, "type": "PRES_VIS", "word": "garbage", "wordID": 621, "conditions": [24, 800, "v", 24000], "trial": 2, "serialpos": 3, "trial_type": "single-stim", "trial_index": 92, "time_elapsed": 513623, "internal_node_id": "0.0-65.0"}}, {"uniqueid": "MTK0923:3NC5L260MPTGGPSLE1K0P33R6W9OFM", "current_trial": 93, "dateTime": 1512888755499, "trialdata": {"rt": -1, "stimulus": "<p id=\"stim\">PISTON</p>", "key_press": -1, "type": "PRES_VIS", "word": "piston", "wordID": 1075, "conditions": [24, 800, "v", 24000], "trial": 2, "serialpos": 4, "trial_type": "single-stim", "trial_index": 93, "time_elapsed": 515526, "internal_node_id": "0.0-66.0"}}, {"uniqueid": "MTK0923:3NC5L260MPTGGPSLE1K0P33R6W9OFM", "current_trial": 94, "dateTime": 1512888757407, "trialdata": {"rt": -1, "stimulus": "<p id=\"stim\">GARLIC</p>", "key_press": -1, "type": "PRES_VIS", "word": "garlic", "wordID": 623, "conditions": [24, 800, "v", 24000], "trial": 2, "serialpos": 5, "trial_type": "single-stim", "trial_index": 94, "time_elapsed": 517434, "internal_node_id": "0.0-67.0"}}, {"uniqueid": "MTK0923:3NC5L260MPTGGPSLE1K0P33R6W9OFM", "current_trial": 95, "dateTime": 1512888759263, "trialdata": {"rt": -1, "stimulus": "<p id=\"stim\">CABBAGE</p>", "key_press": -1, "type": "PRES_VIS", "word": "cabbage", "wordID": 209, "conditions": [24, 800, "v", 24000], "trial": 2, "serialpos": 6, "trial_type": "single-stim", "trial_index": 95, "time_elapsed": 519290, "internal_node_id": "0.0-68.0"}}, {"uniqueid": "MTK0923:3NC5L260MPTGGPSLE1K0P33R6W9OFM", "current_trial": 96, "dateTime": 1512888761019, "trialdata": {"rt": -1, "stimulus": "<p id=\"stim\">PRIMATE</p>", "key_press": -1, "type": "PRES_VIS", "word": "primate", "wordID": 1122, "conditions": [24, 800, "v", 24000], "trial": 2, "serialpos": 7, "trial_type": "single-stim", "trial_index": 96, "time_elapsed": 521046, "internal_node_id": "0.0-69.0"}}, {"uniqueid": "MTK0923:3NC5L260MPTGGPSLE1K0P33R6W9OFM", "current_trial": 97, "dateTime": 1512888762705, "trialdata": {"rt": -1, "stimulus": "<p id=\"stim\">RADISH</p>", "key_press": -1, "type": "PRES_VIS", "word": "radish", "wordID": 1157, "conditions": [24, 800, "v", 24000], "trial": 2, "serialpos": 8, "trial_type": "single-stim", "trial_index": 97, "time_elapsed": 522732, "internal_node_id": "0.0-70.0"}}, {"uniqueid": "MTK0923:3NC5L260MPTGGPSLE1K0P33R6W9OFM", "current_trial": 98, "dateTime": 1512888764361, "trialdata": {"rt": -1, "stimulus": "<p id=\"stim\">HEADBAND</p>", "key_press": -1, "type": "PRES_VIS", "word": "headband", "wordID": 695, "conditions": [24, 800, "v", 24000], "trial": 2, "serialpos": 9, "trial_type": "single-stim", "trial_index": 98, "time_elapsed": 524388, "internal_node_id": "0.0-71.0"}}, {"uniqueid": "MTK0923:3NC5L260MPTGGPSLE1K0P33R6W9OFM", "current_trial": 99, "dateTime": 1512888766115, "trialdata": {"rt": -1, "stimulus": "<p id=\"stim\">COFFEE</p>", "key_press": -1, "type": "PRES_VIS", "word": "coffee", "wordID": 340, "conditions": [24, 800, "v", 24000], "trial": 2, "serialpos": 10, "trial_type": "single-stim", "trial_index": 99, "time_elapsed": 526142, "internal_node_id": "0.0-72.0"}}, {"uniqueid": "MTK0923:3NC5L260MPTGGPSLE1K0P33R6W9OFM", "current_trial": 100, "dateTime": 1512888767733, "trialdata": {"rt": -1, "stimulus": "<p id=\"stim\">OZONE</p>", "key_press": -1, "type": "PRES_VIS", "word": "ozone", "wordID": 995, "conditions": [24, 800, "v", 24000], "trial": 2, "serialpos": 11, "trial_type": "single-stim", "trial_index": 100, "time_elapsed": 527760, "internal_node_id": "0.0-73.0"}}, {"uniqueid": "MTK0923:3NC5L260MPTGGPSLE1K0P33R6W9OFM", "current_trial": 101, "dateTime": 1512888769517, "trialdata": {"rt": -1, "stimulus": "<p id=\"stim\">PLAID</p>", "key_press": -1, "type": "PRES_VIS", "word": "plaid", "wordID": 1079, "conditions": [24, 800, "v", 24000], "trial": 2, "serialpos": 12, "trial_type": "single-stim", "trial_index": 101, "time_elapsed": 529544, "internal_node_id": "0.0-74.0"}}, {"uniqueid": "MTK0923:3NC5L260MPTGGPSLE1K0P33R6W9OFM", "current_trial": 102, "dateTime": 1512888771310, "trialdata": {"rt": -1, "stimulus": "<p id=\"stim\">VELVET</p>", "key_press": -1, "type": "PRES_VIS", "word": "velvet", "wordID": 1554, "conditions": [24, 800, "v", 24000], "trial": 2, "serialpos": 13, "trial_type": "single-stim", "trial_index": 102, "time_elapsed": 531337, "internal_node_id": "0.0-75.0"}}, {"uniqueid": "MTK0923:3NC5L260MPTGGPSLE1K0P33R6W9OFM", "current_trial": 103, "dateTime": 1512888773239, "trialdata": {"rt": -1, "stimulus": "<p id=\"stim\">DIVER</p>", "key_press": -1, "type": "PRES_VIS", "word": "diver", "wordID": 475, "conditions": [24, 800, "v", 24000], "trial": 2, "serialpos": 14, "trial_type": "single-stim", "trial_index": 103, "time_elapsed": 533265, "internal_node_id": "0.0-76.0"}}, {"uniqueid": "MTK0923:3NC5L260MPTGGPSLE1K0P33R6W9OFM", "current_trial": 104, "dateTime": 1512888774858, "trialdata": {"rt": -1, "stimulus": "<p id=\"stim\">KLEENEX</p>", "key_press": -1, "type": "PRES_VIS", "word": "kleenex", "wordID": 781, "conditions": [24, 800, "v", 24000], "trial": 2, "serialpos": 15, "trial_type": "single-stim", "trial_index": 104, "time_elapsed": 534885, "internal_node_id": "0.0-77.0"}}, {"uniqueid": "MTK0923:3NC5L260MPTGGPSLE1K0P33R6W9OFM", "current_trial": 105, "dateTime": 1512888776574, "trialdata": {"rt": -1, "stimulus": "<p id=\"stim\">TEMPLE</p>", "key_press": -1, "type": "PRES_VIS", "word": "temple", "wordID": 1447, "conditions": [24, 800, "v", 24000], "trial": 2, "serialpos": 16, "trial_type": "single-stim", "trial_index": 105, "time_elapsed": 536601, "internal_node_id": "0.0-78.0"}}, {"uniqueid": "MTK0923:3NC5L260MPTGGPSLE1K0P33R6W9OFM", "current_trial": 106, "dateTime": 1512888778537, "trialdata": {"rt": -1, "stimulus": "<p id=\"stim\">SWIMMER</p>", "key_press": -1, "type": "PRES_VIS", "word": "swimmer", "wordID": 1419, "conditions": [24, 800, "v", 24000], "trial": 2, "serialpos": 17, "trial_type": "single-stim", "trial_index": 106, "time_elapsed": 538564, "internal_node_id": "0.0-79.0"}}, {"uniqueid": "MTK0923:3NC5L260MPTGGPSLE1K0P33R6W9OFM", "current_trial": 107, "dateTime": 1512888780478, "trialdata": {"rt": -1, "stimulus": "<p id=\"stim\">REBEL</p>", "key_press": -1, "type": "PRES_VIS", "word": "rebel", "wordID": 1171, "conditions": [24, 800, "v", 24000], "trial": 2, "serialpos": 18, "trial_type": "single-stim", "trial_index": 107, "time_elapsed": 540505, "internal_node_id": "0.0-80.0"}}, {"uniqueid": "MTK0923:3NC5L260MPTGGPSLE1K0P33R6W9OFM", "current_trial": 108, "dateTime": 1512888782443, "trialdata": {"rt": -1, "stimulus": "<p id=\"stim\">AUTHOR</p>", "key_press": -1, "type": "PRES_VIS", "word": "author", "wordID": 60, "conditions": [24, 800, "v", 24000], "trial": 2, "serialpos": 19, "trial_type": "single-stim", "trial_index": 108, "time_elapsed": 542470, "internal_node_id": "0.0-81.0"}}, {"uniqueid": "MTK0923:3NC5L260MPTGGPSLE1K0P33R6W9OFM", "current_trial": 109, "dateTime": 1512888784219, "trialdata": {"rt": -1, "stimulus": "<p id=\"stim\">YARN</p>", "key_press": -1, "type": "PRES_VIS", "word": "yarn", "wordID": 1630, "conditions": [24, 800, "v", 24000], "trial": 2, "serialpos": 20, "trial_type": "single-stim", "trial_index": 109, "time_elapsed": 544245, "internal_node_id": "0.0-82.0"}}, {"uniqueid": "MTK0923:3NC5L260MPTGGPSLE1K0P33R6W9OFM", "current_trial": 110, "dateTime": 1512888786078, "trialdata": {"rt": -1, "stimulus": "<p id=\"stim\">PEACH</p>", "key_press": -1, "type": "PRES_VIS", "word": "peach", "wordID": 1030, "conditions": [24, 800, "v", 24000], "trial": 2, "serialpos": 21, "trial_type": "single-stim", "trial_index": 110, "time_elapsed": 546105, "internal_node_id": "0.0-83.0"}}, {"uniqueid": "MTK0923:3NC5L260MPTGGPSLE1K0P33R6W9OFM", "current_trial": 111, "dateTime": 1512888787882, "trialdata": {"rt": -1, "stimulus": "<p id=\"stim\">PASTA</p>", "key_press": -1, "type": "PRES_VIS", "word": "pasta", "wordID": 1020, "conditions": [24, 800, "v", 24000], "trial": 2, "serialpos": 22, "trial_type": "single-stim", "trial_index": 111, "time_elapsed": 547909, "internal_node_id": "0.0-84.0"}}, {"uniqueid": "MTK0923:3NC5L260MPTGGPSLE1K0P33R6W9OFM", "current_trial": 112, "dateTime": 1512888789865, "trialdata": {"rt": -1, "stimulus": "<p id=\"stim\">BUGGY</p>", "key_press": -1, "type": "PRES_VIS", "word": "buggy", "wordID": 187, "conditions": [24, 800, "v", 24000], "trial": 2, "serialpos": 23, "trial_type": "single-stim", "trial_index": 112, "time_elapsed": 549892, "internal_node_id": "0.0-85.0"}}, {"uniqueid": "MTK0923:3NC5L260MPTGGPSLE1K0P33R6W9OFM", "current_trial": 113, "dateTime": 1512888792300, "trialdata": {"rt": -1, "stimulus": "", "key_press": -1, "type": "PRE_RECALL_DELAY", "trial_type": "single-stim", "trial_index": 113, "time_elapsed": 552327, "internal_node_id": "0.0-86.0-0.0"}}, {"uniqueid": "MTK0923:3NC5L260MPTGGPSLE1K0P33R6W9OFM", "current_trial": 114, "dateTime": 1512888792801, "trialdata": {"rt": -1000, "stimulus": "/static/audio/400Hz.wav", "key_press": -1, "type": "PRE_RECALL_ALERT", "trial_type": "single-audio", "trial_index": 114, "time_elapsed": 552828, "internal_node_id": "0.0-87.0"}}, {"uniqueid": "MTK0923:3NC5L260MPTGGPSLE1K0P33R6W9OFM", "current_trial": 115, "dateTime": 1512888852809, "trialdata": {"rt": [4027, 6068, 7803, 9458, 13770, 15862, 18227, 21491, 36075, 39162, 40515, 42530, 44043, 49620, 52052, 53556], "recwords": ["buggy", "pasta", "peach", "coffee", "ozone", "plaid", "diver", "kleenex", "cabbage", "garlic", "piston", "garbage", "soda", "buggy", "headband", "dough"], "type": "FREE_RECALL", "conditions": [24, 800, "v", 24000], "trial": 2, "trial_type": "free-recall", "trial_index": 115, "time_elapsed": 612834, "internal_node_id": "0.0-88.0-0.0"}}, {"uniqueid": "MTK0923:3NC5L260MPTGGPSLE1K0P33R6W9OFM", "current_trial": 116, "dateTime": 1512888856479, "trialdata": {"rt": 1668, "key_press": 32, "type": "INSTRUCTIONS", "trial_type": "text", "trial_index": 116, "time_elapsed": 616506, "internal_node_id": "0.0-89.0"}}, {"uniqueid": "MTK0923:3NC5L260MPTGGPSLE1K0P33R6W9OFM", "current_trial": 117, "dateTime": 1512888882483, "trialdata": {"rt": [3710, 5502, 7381, 9333, 11893, 13821, 16005, 17549, 19471, 22542], "responses": ["14", "17", "8", "13", "20", "8", "11", "11", "13", "22"], "num1": [6, 7, 3, 9, 4, 1, 4, 1, 5, 7, 9], "num2": [1, 9, 3, 3, 7, 2, 3, 9, 5, 9, 5], "num3": [7, 1, 2, 1, 9, 5, 4, 1, 3, 6, 3], "type": "DISTRACTOR", "conditions": [12, 800, "a", 24000], "trial": 3, "trial_type": "math-distractor", "trial_index": 117, "time_elapsed": 642510, "internal_node_id": "0.0-90.0"}}, {"uniqueid": "MTK0923:3NC5L260MPTGGPSLE1K0P33R6W9OFM", "current_trial": 118, "dateTime": 1512888885486, "trialdata": {"rt": -1, "stimulus": "<p id=\"stim\">10</p>", "key_press": -1, "trial_type": "single-stim", "trial_index": 118, "time_elapsed": 645513, "internal_node_id": "0.0-91.0-0.0"}}, {"uniqueid": "MTK0923:3NC5L260MPTGGPSLE1K0P33R6W9OFM", "current_trial": 119, "dateTime": 1512888886501, "trialdata": {"rt": -1, "stimulus": "<p id=\"stim\">9</p>", "key_press": -1, "trial_type": "single-stim", "trial_index": 119, "time_elapsed": 646528, "internal_node_id": "0.0-91.0-1.0"}}, {"uniqueid": "MTK0923:3NC5L260MPTGGPSLE1K0P33R6W9OFM", "current_trial": 120, "dateTime": 1512888887502, "trialdata": {"rt": -1, "stimulus": "<p id=\"stim\">8</p>", "key_press": -1, "trial_type": "single-stim", "trial_index": 120, "time_elapsed": 647529, "internal_node_id": "0.0-91.0-2.0"}}, {"uniqueid": "MTK0923:3NC5L260MPTGGPSLE1K0P33R6W9OFM", "current_trial": 121, "dateTime": 1512888888506, "trialdata": {"rt": -1, "stimulus": "<p id=\"stim\">7</p>", "key_press": -1, "trial_type": "single-stim", "trial_index": 121, "time_elapsed": 648531, "internal_node_id": "0.0-91.0-3.0"}}, {"uniqueid": "MTK0923:3NC5L260MPTGGPSLE1K0P33R6W9OFM", "current_trial": 122, "dateTime": 1512888889507, "trialdata": {"rt": -1, "stimulus": "<p id=\"stim\">6</p>", "key_press": -1, "trial_type": "single-stim", "trial_index": 122, "time_elapsed": 649534, "internal_node_id": "0.0-91.0-4.0"}}, {"uniqueid": "MTK0923:3NC5L260MPTGGPSLE1K0P33R6W9OFM", "current_trial": 123, "dateTime": 1512888890509, "trialdata": {"rt": -1, "stimulus": "<p id=\"stim\">5</p>", "key_press": -1, "trial_type": "single-stim", "trial_index": 123, "time_elapsed": 650536, "internal_node_id": "0.0-91.0-5.0"}}, {"uniqueid": "MTK0923:3NC5L260MPTGGPSLE1K0P33R6W9OFM", "current_trial": 124, "dateTime": 1512888891511, "trialdata": {"rt": -1, "stimulus": "<p id=\"stim\">4</p>", "key_press": -1, "trial_type": "single-stim", "trial_index": 124, "time_elapsed": 651538, "internal_node_id": "0.0-91.0-6.0"}}, {"uniqueid": "MTK0923:3NC5L260MPTGGPSLE1K0P33R6W9OFM", "current_trial": 125, "dateTime": 1512888892524, "trialdata": {"rt": -1, "stimulus": "<p id=\"stim\">3</p>", "key_press": -1, "trial_type": "single-stim", "trial_index": 125, "time_elapsed": 652551, "internal_node_id": "0.0-91.0-7.0"}}, {"uniqueid": "MTK0923:3NC5L260MPTGGPSLE1K0P33R6W9OFM", "current_trial": 126, "dateTime": 1512888893525, "trialdata": {"rt": -1, "stimulus": "<p id=\"stim\">2</p>", "key_press": -1, "trial_type": "single-stim", "trial_index": 126, "time_elapsed": 653552, "internal_node_id": "0.0-91.0-8.0"}}, {"uniqueid": "MTK0923:3NC5L260MPTGGPSLE1K0P33R6W9OFM", "current_trial": 127, "dateTime": 1512888894532, "trialdata": {"rt": -1, "stimulus": "<p id=\"stim\">1</p>", "key_press": -1, "trial_type": "single-stim", "trial_index": 127, "time_elapsed": 654559, "internal_node_id": "0.0-91.0-9.0"}}, {"uniqueid": "MTK0923:3NC5L260MPTGGPSLE1K0P33R6W9OFM", "current_trial": 128, "dateTime": 1512888896036, "trialdata": {"rt": -1, "stimulus": "<p id=\"stim\">+</p>", "key_press": -1, "type": "FIXATION", "trial_type": "single-stim", "trial_index": 128, "time_elapsed": 656063, "internal_node_id": "0.0-92.0-0.0"}}, {"uniqueid": "MTK0923:3NC5L260MPTGGPSLE1K0P33R6W9OFM", "current_trial": 129, "dateTime": 1512888897725, "trialdata": {"rt": -1000, "stimulus": "/static/audio/wordpool/WAITER.wav", "key_press": -1, "type": "PRES_AUD", "word": "waiter", "wordID": 1579, "conditions": [12, 800, "a", 24000], "trial": 3, "serialpos": 0, "trial_type": "single-audio", "trial_index": 129, "time_elapsed": 657752, "internal_node_id": "0.0-93.0"}}, {"uniqueid": "MTK0923:3NC5L260MPTGGPSLE1K0P33R6W9OFM", "current_trial": 130, "dateTime": 1512888899560, "trialdata": {"rt": -1000, "stimulus": "/static/audio/wordpool/SUITCASE.wav", "key_press": -1, "type": "PRES_AUD", "word": "suitcase", "wordID": 1402, "conditions": [12, 800, "a", 24000], "trial": 3, "serialpos": 1, "trial_type": "single-audio", "trial_index": 130, "time_elapsed": 659587, "internal_node_id": "0.0-94.0"}}, {"uniqueid": "MTK0923:3NC5L260MPTGGPSLE1K0P33R6W9OFM", "current_trial": 131, "dateTime": 1512888901232, "trialdata": {"rt": -1000, "stimulus": "/static/audio/wordpool/HUSBAND.wav", "key_press": -1, "type": "PRES_AUD", "word": "husband", "wordID": 727, "conditions": [12, 800, "a", 24000], "trial": 3, "serialpos": 2, "trial_type": "single-audio", "trial_index": 131, "time_elapsed": 661259, "internal_node_id": "0.0-95.0"}}, {"uniqueid": "MTK0923:3NC5L260MPTGGPSLE1K0P33R6W9OFM", "current_trial": 132, "dateTime": 1512888902851, "trialdata": {"rt": -1000, "stimulus": "/static/audio/wordpool/WIDOW.wav", "key_press": -1, "type": "PRES_AUD", "word": "widow", "wordID": 1607, "conditions": [12, 800, "a", 24000], "trial": 3, "serialpos": 3, "trial_type": "single-audio", "trial_index": 132, "time_elapsed": 662878, "internal_node_id": "0.0-96.0"}}, {"uniqueid": "MTK0923:3NC5L260MPTGGPSLE1K0P33R6W9OFM", "current_trial": 133, "dateTime": 1512888904500, "trialdata": {"rt": -1000, "stimulus": "/static/audio/wordpool/DENIM.wav", "key_press": -1, "type": "PRES_AUD", "word": "denim", "wordID": 445, "conditions": [12, 800, "a", 24000], "trial": 3, "serialpos": 4, "trial_type": "single-audio", "trial_index": 133, "time_elapsed": 664527, "internal_node_id": "0.0-97.0"}}, {"uniqueid": "MTK0923:3NC5L260MPTGGPSLE1K0P33R6W9OFM", "current_trial": 134, "dateTime": 1512888906175, "trialdata": {"rt": -1000, "stimulus": "/static/audio/wordpool/POSSUM.wav", "key_press": -1, "type": "PRES_AUD", "word": "possum", "wordID": 1111, "conditions": [12, 800, "a", 24000], "trial": 3, "serialpos": 5, "trial_type": "single-audio", "trial_index": 134, "time_elapsed": 666202, "internal_node_id": "0.0-98.0"}}, {"uniqueid": "MTK0923:3NC5L260MPTGGPSLE1K0P33R6W9OFM", "current_trial": 135, "dateTime": 1512888908022, "trialdata": {"rt": -1000, "stimulus": "/static/audio/wordpool/PLAZA.wav", "key_press": -1, "type": "PRES_AUD", "word": "plaza", "wordID": 1087, "conditions": [12, 800, "a", 24000], "trial": 3, "serialpos": 6, "trial_type": "single-audio", "trial_index": 135, "time_elapsed": 668049, "internal_node_id": "0.0-99.0"}}, {"uniqueid": "MTK0923:3NC5L260MPTGGPSLE1K0P33R6W9OFM", "current_trial": 136, "dateTime": 1512888909860, "trialdata": {"rt": -1000, "stimulus": "/static/audio/wordpool/SPOON.wav", "key_press": -1, "type": "PRES_AUD", "word": "spoon", "wordID": 1356, "conditions": [12, 800, "a", 24000], "trial": 3, "serialpos": 7, "trial_type": "single-audio", "trial_index": 136, "time_elapsed": 669887, "internal_node_id": "0.0-100.0"}}, {"uniqueid": "MTK0923:3NC5L260MPTGGPSLE1K0P33R6W9OFM", "current_trial": 137, "dateTime": 1512888911565, "trialdata": {"rt": -1000, "stimulus": "/static/audio/wordpool/GLOVE.wav", "key_press": -1, "type": "PRES_AUD", "word": "glove", "wordID": 641, "conditions": [12, 800, "a", 24000], "trial": 3, "serialpos": 8, "trial_type": "single-audio", "trial_index": 137, "time_elapsed": 671592, "internal_node_id": "0.0-101.0"}}, {"uniqueid": "MTK0923:3NC5L260MPTGGPSLE1K0P33R6W9OFM", "current_trial": 138, "dateTime": 1512888913211, "trialdata": {"rt": -1000, "stimulus": "/static/audio/wordpool/SPONGE.wav", "key_press": -1, "type": "PRES_AUD", "word": "sponge", "wordID": 1354, "conditions": [12, 800, "a", 24000], "trial": 3, "serialpos": 9, "trial_type": "single-audio", "trial_index": 138, "time_elapsed": 673238, "internal_node_id": "0.0-102.0"}}, {"uniqueid": "MTK0923:3NC5L260MPTGGPSLE1K0P33R6W9OFM", "current_trial": 139, "dateTime": 1512888914891, "trialdata": {"rt": -1000, "stimulus": "/static/audio/wordpool/KNAPSACK.wav", "key_press": -1, "type": "PRES_AUD", "word": "knapsack", "wordID": 782, "conditions": [12, 800, "a", 24000], "trial": 3, "serialpos": 10, "trial_type": "single-audio", "trial_index": 139, "time_elapsed": 674918, "internal_node_id": "0.0-103.0"}}, {"uniqueid": "MTK0923:3NC5L260MPTGGPSLE1K0P33R6W9OFM", "current_trial": 140, "dateTime": 1512888916630, "trialdata": {"rt": -1000, "stimulus": "/static/audio/wordpool/PIGEON.wav", "key_press": -1, "type": "PRES_AUD", "word": "pigeon", "wordID": 1064, "conditions": [12, 800, "a", 24000], "trial": 3, "serialpos": 11, "trial_type": "single-audio", "trial_index": 140, "time_elapsed": 676657, "internal_node_id": "0.0-104.0"}}, {"uniqueid": "MTK0923:3NC5L260MPTGGPSLE1K0P33R6W9OFM", "current_trial": 141, "dateTime": 1512888917974, "trialdata": {"rt": -1, "stimulus": "", "key_press": -1, "type": "PRE_RECALL_DELAY", "trial_type": "single-stim", "trial_index": 141, "time_elapsed": 678001, "internal_node_id": "0.0-105.0-0.0"}}, {"uniqueid": "MTK0923:3NC5L260MPTGGPSLE1K0P33R6W9OFM", "current_trial": 142, "dateTime": 1512888918475, "trialdata": {"rt": -1000, "stimulus": "/static/audio/400Hz.wav", "key_press": -1, "type": "PRE_RECALL_ALERT", "trial_type": "single-audio", "trial_index": 142, "time_elapsed": 678502, "internal_node_id": "0.0-106.0"}}, {"uniqueid": "MTK0923:3NC5L260MPTGGPSLE1K0P33R6W9OFM", "current_trial": 143, "dateTime": 1512888978482, "trialdata": {"rt": [4289, 6576, 10192, 11521, 13353, 15057, 16865, 19313, 20769, 25848, 53130], "recwords": ["plaza", "pigeon", "plaza", "spoon", "possum", "widow", "husband", "suitcase", "waiter", "denim", "knapsack"], "type": "FREE_RECALL", "conditions": [12, 800, "a", 24000], "trial": 3, "trial_type": "free-recall", "trial_index": 143, "time_elapsed": 738506, "internal_node_id": "0.0-107.0-0.0"}}, {"uniqueid": "MTK0923:3NC5L260MPTGGPSLE1K0P33R6W9OFM", "current_trial": 144, "dateTime": 1512888981617, "trialdata": {"rt": 1133, "key_press": 32, "type": "INSTRUCTIONS", "trial_type": "text", "trial_index": 144, "time_elapsed": 741644, "internal_node_id": "0.0-108.0"}}, {"uniqueid": "MTK0923:3NC5L260MPTGGPSLE1K0P33R6W9OFM", "current_trial": 145, "dateTime": 1512889007620, "trialdata": {"rt": [3707, 6586, 10082, 12227, 14514, 16699, 19062, 20819, 23386], "responses": ["19", "8", "19", "17", "18", "14", "10", "4", "13"], "num1": [8, 2, 3, 7, 9, 4, 3, 1, 9, 8], "num2": [3, 5, 9, 2, 5, 7, 6, 2, 9, 5], "num3": [8, 1, 7, 8, 4, 3, 1, 1, 5, 2], "type": "DISTRACTOR", "conditions": [24, 1600, "a", 24000], "trial": 4, "trial_type": "math-distractor", "trial_index": 145, "time_elapsed": 767647, "internal_node_id": "0.0-109.0"}}, {"uniqueid": "MTK0923:3NC5L260MPTGGPSLE1K0P33R6W9OFM", "current_trial": 146, "dateTime": 1512889010622, "trialdata": {"rt": -1, "stimulus": "<p id=\"stim\">10</p>", "key_press": -1, "trial_type": "single-stim", "trial_index": 146, "time_elapsed": 770649, "internal_node_id": "0.0-110.0-0.0"}}, {"uniqueid": "MTK0923:3NC5L260MPTGGPSLE1K0P33R6W9OFM", "current_trial": 147, "dateTime": 1512889011623, "trialdata": {"rt": -1, "stimulus": "<p id=\"stim\">9</p>", "key_press": -1, "trial_type": "single-stim", "trial_index": 147, "time_elapsed": 771650, "internal_node_id": "0.0-110.0-1.0"}}, {"uniqueid": "MTK0923:3NC5L260MPTGGPSLE1K0P33R6W9OFM", "current_trial": 148, "dateTime": 1512889012625, "trialdata": {"rt": -1, "stimulus": "<p id=\"stim\">8</p>", "key_press": -1, "trial_type": "single-stim", "trial_index": 148, "time_elapsed": 772652, "internal_node_id": "0.0-110.0-2.0"}}, {"uniqueid": "MTK0923:3NC5L260MPTGGPSLE1K0P33R6W9OFM", "current_trial": 149, "dateTime": 1512889013626, "trialdata": {"rt": -1, "stimulus": "<p id=\"stim\">7</p>", "key_press": -1, "trial_type": "single-stim", "trial_index": 149, "time_elapsed": 773653, "internal_node_id": "0.0-110.0-3.0"}}, {"uniqueid": "MTK0923:3NC5L260MPTGGPSLE1K0P33R6W9OFM", "current_trial": 150, "dateTime": 1512889014627, "trialdata": {"rt": -1, "stimulus": "<p id=\"stim\">6</p>", "key_press": -1, "trial_type": "single-stim", "trial_index": 150, "time_elapsed": 774654, "internal_node_id": "0.0-110.0-4.0"}}, {"uniqueid": "MTK0923:3NC5L260MPTGGPSLE1K0P33R6W9OFM", "current_trial": 151, "dateTime": 1512889015628, "trialdata": {"rt": -1, "stimulus": "<p id=\"stim\">5</p>", "key_press": -1, "trial_type": "single-stim", "trial_index": 151, "time_elapsed": 775655, "internal_node_id": "0.0-110.0-5.0"}}, {"uniqueid": "MTK0923:3NC5L260MPTGGPSLE1K0P33R6W9OFM", "current_trial": 152, "dateTime": 1512889016630, "trialdata": {"rt": -1, "stimulus": "<p id=\"stim\">4</p>", "key_press": -1, "trial_type": "single-stim", "trial_index": 152, "time_elapsed": 776657, "internal_node_id": "0.0-110.0-6.0"}}, {"uniqueid": "MTK0923:3NC5L260MPTGGPSLE1K0P33R6W9OFM", "current_trial": 153, "dateTime": 1512889017649, "trialdata": {"rt": -1, "stimulus": "<p id=\"stim\">3</p>", "key_press": -1, "trial_type": "single-stim", "trial_index": 153, "time_elapsed": 777676, "internal_node_id": "0.0-110.0-7.0"}}, {"uniqueid": "MTK0923:3NC5L260MPTGGPSLE1K0P33R6W9OFM", "current_trial": 154, "dateTime": 1512889018657, "trialdata": {"rt": -1, "stimulus": "<p id=\"stim\">2</p>", "key_press": -1, "trial_type": "single-stim", "trial_index": 154, "time_elapsed": 778684, "internal_node_id": "0.0-110.0-8.0"}}, {"uniqueid": "MTK0923:3NC5L260MPTGGPSLE1K0P33R6W9OFM", "current_trial": 155, "dateTime": 1512889019658, "trialdata": {"rt": -1, "stimulus": "<p id=\"stim\">1</p>", "key_press": -1, "trial_type": "single-stim", "trial_index": 155, "time_elapsed": 779685, "internal_node_id": "0.0-110.0-9.0"}}, {"uniqueid": "MTK0923:3NC5L260MPTGGPSLE1K0P33R6W9OFM", "current_trial": 156, "dateTime": 1512889021159, "trialdata": {"rt": -1, "stimulus": "<p id=\"stim\">+</p>", "key_press": -1, "type": "FIXATION", "trial_type": "single-stim", "trial_index": 156, "time_elapsed": 781186, "internal_node_id": "0.0-111.0-0.0"}}, {"uniqueid": "MTK0923:3NC5L260MPTGGPSLE1K0P33R6W9OFM", "current_trial": 157, "dateTime": 1512889023844, "trialdata": {"rt": -1000, "stimulus": "/static/audio/wordpool/DAUGHTER.wav", "key_press": -1, "type": "PRES_AUD", "word": "daughter", "wordID": 441, "conditions": [24, 1600, "a", 24000], "trial": 4, "serialpos": 0, "trial_type": "single-audio", "trial_index": 157, "time_elapsed": 783871, "internal_node_id": "0.0-112.0"}}, {"uniqueid": "MTK0923:3NC5L260MPTGGPSLE1K0P33R6W9OFM", "current_trial": 158, "dateTime": 1512889026578, "trialdata": {"rt": -1000, "stimulus": "/static/audio/wordpool/ROBOT.wav", "key_press": -1, "type": "PRES_AUD", "word": "robot", "wordID": 1199, "conditions": [24, 1600, "a", 24000], "trial": 4, "serialpos": 1, "trial_type": "single-audio", "trial_index": 158, "time_elapsed": 786605, "internal_node_id": "0.0-113.0"}}, {"uniqueid": "MTK0923:3NC5L260MPTGGPSLE1K0P33R6W9OFM", "current_trial": 159, "dateTime": 1512889029323, "trialdata": {"rt": -1000, "stimulus": "/static/audio/wordpool/SALAD.wav", "key_press": -1, "type": "PRES_AUD", "word": "salad", "wordID": 1223, "conditions": [24, 1600, "a", 24000], "trial": 4, "serialpos": 2, "trial_type": "single-audio", "trial_index": 159, "time_elapsed": 789350, "internal_node_id": "0.0-114.0"}}, {"uniqueid": "MTK0923:3NC5L260MPTGGPSLE1K0P33R6W9OFM", "current_trial": 160, "dateTime": 1512889032028, "trialdata": {"rt": -1000, "stimulus": "/static/audio/wordpool/GLASS.wav", "key_press": -1, "type": "PRES_AUD", "word": "glass", "wordID": 638, "conditions": [24, 1600, "a", 24000], "trial": 4, "serialpos": 3, "trial_type": "single-audio", "trial_index": 160, "time_elapsed": 792055, "internal_node_id": "0.0-115.0"}}, {"uniqueid": "MTK0923:3NC5L260MPTGGPSLE1K0P33R6W9OFM", "current_trial": 161, "dateTime": 1512889034453, "trialdata": {"rt": -1000, "stimulus": "/static/audio/wordpool/INFANT.wav", "key_press": -1, "type": "PRES_AUD", "word": "infant", "wordID": 736, "conditions": [24, 1600, "a", 24000], "trial": 4, "serialpos": 4, "trial_type": "single-audio", "trial_index": 161, "time_elapsed": 794480, "internal_node_id": "0.0-116.0"}}, {"uniqueid": "MTK0923:3NC5L260MPTGGPSLE1K0P33R6W9OFM", "current_trial": 162, "dateTime": 1512889037101, "trialdata": {"rt": -1000, "stimulus": "/static/audio/wordpool/ACTRESS.wav", "key_press": -1, "type": "PRES_AUD", "word": "actress", "wordID": 5, "conditions": [24, 1600, "a", 24000], "trial": 4, "serialpos": 5, "trial_type": "single-audio", "trial_index": 162, "time_elapsed": 797128, "internal_node_id": "0.0-117.0"}}, {"uniqueid": "MTK0923:3NC5L260MPTGGPSLE1K0P33R6W9OFM", "current_trial": 163, "dateTime": 1512889039904, "trialdata": {"rt": -1000, "stimulus": "/static/audio/wordpool/CRITIC.wav", "key_press": -1, "type": "PRES_AUD", "word": "critic", "wordID": 409, "conditions": [24, 1600, "a", 24000], "trial": 4, "serialpos": 6, "trial_type": "single-audio", "trial_index": 163, "time_elapsed": 799930, "internal_node_id": "0.0-118.0"}}, {"uniqueid": "MTK0923:3NC5L260MPTGGPSLE1K0P33R6W9OFM", "current_trial": 164, "dateTime": 1512889042325, "trialdata": {"rt": -1000, "stimulus": "/static/audio/wordpool/SEAL.wav", "key_press": -1, "type": "PRES_AUD", "word": "seal", "wordID": 1261, "conditions": [24, 1600, "a", 24000], "trial": 4, "serialpos": 7, "trial_type": "single-audio", "trial_index": 164, "time_elapsed": 802352, "internal_node_id": "0.0-119.0"}}, {"uniqueid": "MTK0923:3NC5L260MPTGGPSLE1K0P33R6W9OFM", "current_trial": 165, "dateTime": 1512889045079, "trialdata": {"rt": -1000, "stimulus": "/static/audio/wordpool/FOX.wav", "key_press": -1, "type": "PRES_AUD", "word": "fox", "wordID": 597, "conditions": [24, 1600, "a", 24000], "trial": 4, "serialpos": 8, "trial_type": "single-audio", "trial_index": 165, "time_elapsed": 805106, "internal_node_id": "0.0-120.0"}}, {"uniqueid": "MTK0923:3NC5L260MPTGGPSLE1K0P33R6W9OFM", "current_trial": 166, "dateTime": 1512889047756, "trialdata": {"rt": -1000, "stimulus": "/static/audio/wordpool/OMELET.wav", "key_press": -1, "type": "PRES_AUD", "word": "omelet", "wordID": 975, "conditions": [24, 1600, "a", 24000], "trial": 4, "serialpos": 9, "trial_type": "single-audio", "trial_index": 166, "time_elapsed": 807783, "internal_node_id": "0.0-121.0"}}, {"uniqueid": "MTK0923:3NC5L260MPTGGPSLE1K0P33R6W9OFM", "current_trial": 167, "dateTime": 1512889050233, "trialdata": {"rt": -1000, "stimulus": "/static/audio/wordpool/CUSTARD.wav", "key_press": -1, "type": "PRES_AUD", "word": "custard", "wordID": 428, "conditions": [24, 1600, "a", 24000], "trial": 4, "serialpos": 10, "trial_type": "single-audio", "trial_index": 167, "time_elapsed": 810260, "internal_node_id": "0.0-122.0"}}, {"uniqueid": "MTK0923:3NC5L260MPTGGPSLE1K0P33R6W9OFM", "current_trial": 168, "dateTime": 1512889052663, "trialdata": {"rt": -1000, "stimulus": "/static/audio/wordpool/ACTOR.wav", "key_press": -1, "type": "PRES_AUD", "word": "actor", "wordID": 4, "conditions": [24, 1600, "a", 24000], "trial": 4, "serialpos": 11, "trial_type": "single-audio", "trial_index": 168, "time_elapsed": 812690, "internal_node_id": "0.0-123.0"}}, {"uniqueid": "MTK0923:3NC5L260MPTGGPSLE1K0P33R6W9OFM", "current_trial": 169, "dateTime": 1512889055088, "trialdata": {"rt": -1000, "stimulus": "/static/audio/wordpool/FILM.wav", "key_press": -1, "type": "PRES_AUD", "word": "film", "wordID": 564, "conditions": [24, 1600, "a", 24000], "trial": 4, "serialpos": 12, "trial_type": "single-audio", "trial_index": 169, "time_elapsed": 815115, "internal_node_id": "0.0-124.0"}}, {"uniqueid": "MTK0923:3NC5L260MPTGGPSLE1K0P33R6W9OFM", "current_trial": 170, "dateTime": 1512889057830, "trialdata": {"rt": -1000, "stimulus": "/static/audio/wordpool/TWIG.wav", "key_press": -1, "type": "PRES_AUD", "word": "twig", "wordID": 1526, "conditions": [24, 1600, "a", 24000], "trial": 4, "serialpos": 13, "trial_type": "single-audio", "trial_index": 170, "time_elapsed": 817857, "internal_node_id": "0.0-125.0"}}, {"uniqueid": "MTK0923:3NC5L260MPTGGPSLE1K0P33R6W9OFM", "current_trial": 171, "dateTime": 1512889060347, "trialdata": {"rt": -1000, "stimulus": "/static/audio/wordpool/SNACK.wav", "key_press": -1, "type": "PRES_AUD", "word": "snack", "wordID": 1330, "conditions": [24, 1600, "a", 24000], "trial": 4, "serialpos": 14, "trial_type": "single-audio", "trial_index": 171, "time_elapsed": 820374, "internal_node_id": "0.0-126.0"}}, {"uniqueid": "MTK0923:3NC5L260MPTGGPSLE1K0P33R6W9OFM", "current_trial": 172, "dateTime": 1512889063116, "trialdata": {"rt": -1000, "stimulus": "/static/audio/wordpool/GIRL.wav", "key_press": -1, "type": "PRES_AUD", "word": "girl", "wordID": 636, "conditions": [24, 1600, "a", 24000], "trial": 4, "serialpos": 15, "trial_type": "single-audio", "trial_index": 172, "time_elapsed": 823143, "internal_node_id": "0.0-127.0"}}, {"uniqueid": "MTK0923:3NC5L260MPTGGPSLE1K0P33R6W9OFM", "current_trial": 173, "dateTime": 1512889065539, "trialdata": {"rt": -1000, "stimulus": "/static/audio/wordpool/MISSILE.wav", "key_press": -1, "type": "PRES_AUD", "word": "missile", "wordID": 899, "conditions": [24, 1600, "a", 24000], "trial": 4, "serialpos": 16, "trial_type": "single-audio", "trial_index": 173, "time_elapsed": 825566, "internal_node_id": "0.0-128.0"}}, {"uniqueid": "MTK0923:3NC5L260MPTGGPSLE1K0P33R6W9OFM", "current_trial": 174, "dateTime": 1512889068333, "trialdata": {"rt": -1000, "stimulus": "/static/audio/wordpool/TRANSPLANT.wav", "key_press": -1, "type": "PRES_AUD", "word": "transplant", "wordID": 1495, "conditions": [24, 1600, "a", 24000], "trial": 4, "serialpos": 17, "trial_type": "single-audio", "trial_index": 174, "time_elapsed": 828360, "internal_node_id": "0.0-129.0"}}, {"uniqueid": "MTK0923:3NC5L260MPTGGPSLE1K0P33R6W9OFM", "current_trial": 175, "dateTime": 1512889070817, "trialdata": {"rt": -1000, "stimulus": "/static/audio/wordpool/KIDNEY.wav", "key_press": -1, "type": "PRES_AUD", "word": "kidney", "wordID": 775, "conditions": [24, 1600, "a", 24000], "trial": 4, "serialpos": 18, "trial_type": "single-audio", "trial_index": 175, "time_elapsed": 830844, "internal_node_id": "0.0-130.0"}}, {"uniqueid": "MTK0923:3NC5L260MPTGGPSLE1K0P33R6W9OFM", "current_trial": 176, "dateTime": 1512889073596, "trialdata": {"rt": -1000, "stimulus": "/static/audio/wordpool/STOVE.wav", "key_press": -1, "type": "PRES_AUD", "word": "stove", "wordID": 1387, "conditions": [24, 1600, "a", 24000], "trial": 4, "serialpos": 19, "trial_type": "single-audio", "trial_index": 176, "time_elapsed": 833623, "internal_node_id": "0.0-131.0"}}, {"uniqueid": "MTK0923:3NC5L260MPTGGPSLE1K0P33R6W9OFM", "current_trial": 177, "dateTime": 1512889076092, "trialdata": {"rt": -1000, "stimulus": "/static/audio/wordpool/LILY.wav", "key_press": -1, "type": "PRES_AUD", "word": "lily", "wordID": 820, "conditions": [24, 1600, "a", 24000], "trial": 4, "serialpos": 20, "trial_type": "single-audio", "trial_index": 177, "time_elapsed": 836119, "internal_node_id": "0.0-132.0"}}, {"uniqueid": "MTK0923:3NC5L260MPTGGPSLE1K0P33R6W9OFM", "current_trial": 178, "dateTime": 1512889078643, "trialdata": {"rt": -1000, "stimulus": "/static/audio/wordpool/SCALLOP.wav", "key_press": -1, "type": "PRES_AUD", "word": "scallop", "wordID": 1241, "conditions": [24, 1600, "a", 24000], "trial": 4, "serialpos": 21, "trial_type": "single-audio", "trial_index": 178, "time_elapsed": 838670, "internal_node_id": "0.0-133.0"}}, {"uniqueid": "MTK0923:3NC5L260MPTGGPSLE1K0P33R6W9OFM", "current_trial": 179, "dateTime": 1512889081188, "trialdata": {"rt": -1000, "stimulus": "/static/audio/wordpool/TOASTER.wav", "key_press": -1, "type": "PRES_AUD", "word": "toaster", "wordID": 1471, "conditions": [24, 1600, "a", 24000], "trial": 4, "serialpos": 22, "trial_type": "single-audio", "trial_index": 179, "time_elapsed": 841215, "internal_node_id": "0.0-134.0"}}, {"uniqueid": "MTK0923:3NC5L260MPTGGPSLE1K0P33R6W9OFM", "current_trial": 180, "dateTime": 1512889083711, "trialdata": {"rt": -1000, "stimulus": "/static/audio/wordpool/SHRUB.wav", "key_press": -1, "type": "PRES_AUD", "word": "shrub", "wordID": 1298, "conditions": [24, 1600, "a", 24000], "trial": 4, "serialpos": 23, "trial_type": "single-audio", "trial_index": 180, "time_elapsed": 843738, "internal_node_id": "0.0-135.0"}}, {"uniqueid": "MTK0923:3NC5L260MPTGGPSLE1K0P33R6W9OFM", "current_trial": 181, "dateTime": 1512889084989, "trialdata": {"rt": -1, "stimulus": "", "key_press": -1, "type": "PRE_RECALL_DELAY", "trial_type": "single-stim", "trial_index": 181, "time_elapsed": 845016, "internal_node_id": "0.0-136.0-0.0"}}, {"uniqueid": "MTK0923:3NC5L260MPTGGPSLE1K0P33R6W9OFM", "current_trial": 182, "dateTime": 1512889085490, "trialdata": {"rt": -1000, "stimulus": "/static/audio/400Hz.wav", "key_press": -1, "type": "PRE_RECALL_ALERT", "trial_type": "single-audio", "trial_index": 182, "time_elapsed": 845517, "internal_node_id": "0.0-137.0"}}, {"uniqueid": "MTK0923:3NC5L260MPTGGPSLE1K0P33R6W9OFM", "current_trial": 183, "dateTime": 1512889145496, "trialdata": {"rt": [4634, 6539, 9338, 11666, 13033, 17361, 20130, 23026, 25330, 27036, 30961, 35321, 38250, 40522, 43769, 46489, 48313, 49257, 52089, 53193, 56810, 58178], "recwords": ["shrub", "toaster", "scallop", "stove", "lily", "transplant", "kidney", "girl", "actor", "film", "twig", "snack", "custard", "actress", "infant", "critic", "seal", "fox", "salad", "glass", "daughter", "robot"], "type": "FREE_RECALL", "conditions": [24, 1600, "a", 24000], "trial": 4, "trial_type": "free-recall", "trial_index": 183, "time_elapsed": 905520, "internal_node_id": "0.0-138.0-0.0"}}, {"uniqueid": "MTK0923:3NC5L260MPTGGPSLE1K0P33R6W9OFM", "current_trial": 184, "dateTime": 1512889150472, "trialdata": {"rt": 2973, "key_press": 32, "type": "INSTRUCTIONS", "trial_type": "text", "trial_index": 184, "time_elapsed": 910499, "internal_node_id": "0.0-139.0"}}, {"uniqueid": "MTK0923:3NC5L260MPTGGPSLE1K0P33R6W9OFM", "current_trial": 185, "dateTime": 1512889164475, "trialdata": {"rt": [3746, 6338, 8239, 11405], "responses": ["11", "21", "13", "12"], "num1": [2, 8, 3, 4, 9], "num2": [7, 7, 2, 7, 5], "num3": [2, 6, 8, 1, 2], "type": "DISTRACTOR", "conditions": [24, 800, "v", 12000], "trial": 5, "trial_type": "math-distractor", "trial_index": 185, "time_elapsed": 924502, "internal_node_id": "0.0-140.0"}}, {"uniqueid": "MTK0923:3NC5L260MPTGGPSLE1K0P33R6W9OFM", "current_trial": 186, "dateTime": 1512889167477, "trialdata": {"rt": -1, "stimulus": "<p id=\"stim\">10</p>", "key_press": -1, "trial_type": "single-stim", "trial_index": 186, "time_elapsed": 927504, "internal_node_id": "0.0-141.0-0.0"}}, {"uniqueid": "MTK0923:3NC5L260MPTGGPSLE1K0P33R6W9OFM", "current_trial": 187, "dateTime": 1512889168482, "trialdata": {"rt": -1, "stimulus": "<p id=\"stim\">9</p>", "key_press": -1, "trial_type": "single-stim", "trial_index": 187, "time_elapsed": 928509, "internal_node_id": "0.0-141.0-1.0"}}, {"uniqueid": "MTK0923:3NC5L260MPTGGPSLE1K0P33R6W9OFM", "current_trial": 188, "dateTime": 1512889169483, "trialdata": {"rt": -1, "stimulus": "<p id=\"stim\">8</p>", "key_press": -1, "trial_type": "single-stim", "trial_index": 188, "time_elapsed": 929510, "internal_node_id": "0.0-141.0-2.0"}}, {"uniqueid": "MTK0923:3NC5L260MPTGGPSLE1K0P33R6W9OFM", "current_trial": 189, "dateTime": 1512889170484, "trialdata": {"rt": -1, "stimulus": "<p id=\"stim\">7</p>", "key_press": -1, "trial_type": "single-stim", "trial_index": 189, "time_elapsed": 930511, "internal_node_id": "0.0-141.0-3.0"}}, {"uniqueid": "MTK0923:3NC5L260MPTGGPSLE1K0P33R6W9OFM", "current_trial": 190, "dateTime": 1512889171485, "trialdata": {"rt": -1, "stimulus": "<p id=\"stim\">6</p>", "key_press": -1, "trial_type": "single-stim", "trial_index": 190, "time_elapsed": 931512, "internal_node_id": "0.0-141.0-4.0"}}, {"uniqueid": "MTK0923:3NC5L260MPTGGPSLE1K0P33R6W9OFM", "current_trial": 191, "dateTime": 1512889172502, "trialdata": {"rt": -1, "stimulus": "<p id=\"stim\">5</p>", "key_press": -1, "trial_type": "single-stim", "trial_index": 191, "time_elapsed": 932529, "internal_node_id": "0.0-141.0-5.0"}}, {"uniqueid": "MTK0923:3NC5L260MPTGGPSLE1K0P33R6W9OFM", "current_trial": 192, "dateTime": 1512889173510, "trialdata": {"rt": -1, "stimulus": "<p id=\"stim\">4</p>", "key_press": -1, "trial_type": "single-stim", "trial_index": 192, "time_elapsed": 933537, "internal_node_id": "0.0-141.0-6.0"}}, {"uniqueid": "MTK0923:3NC5L260MPTGGPSLE1K0P33R6W9OFM", "current_trial": 193, "dateTime": 1512889174514, "trialdata": {"rt": -1, "stimulus": "<p id=\"stim\">3</p>", "key_press": -1, "trial_type": "single-stim", "trial_index": 193, "time_elapsed": 934541, "internal_node_id": "0.0-141.0-7.0"}}, {"uniqueid": "MTK0923:3NC5L260MPTGGPSLE1K0P33R6W9OFM", "current_trial": 194, "dateTime": 1512889175530, "trialdata": {"rt": -1, "stimulus": "<p id=\"stim\">2</p>", "key_press": -1, "trial_type": "single-stim", "trial_index": 194, "time_elapsed": 935557, "internal_node_id": "0.0-141.0-8.0"}}, {"uniqueid": "MTK0923:3NC5L260MPTGGPSLE1K0P33R6W9OFM", "current_trial": 195, "dateTime": 1512889176531, "trialdata": {"rt": -1, "stimulus": "<p id=\"stim\">1</p>", "key_press": -1, "trial_type": "single-stim", "trial_index": 195, "time_elapsed": 936557, "internal_node_id": "0.0-141.0-9.0"}}, {"uniqueid": "MTK0923:3NC5L260MPTGGPSLE1K0P33R6W9OFM", "current_trial": 196, "dateTime": 1512889178033, "trialdata": {"rt": -1, "stimulus": "<p id=\"stim\">+</p>", "key_press": -1, "type": "FIXATION", "trial_type": "single-stim", "trial_index": 196, "time_elapsed": 938060, "internal_node_id": "0.0-142.0-0.0"}}, {"uniqueid": "MTK0923:3NC5L260MPTGGPSLE1K0P33R6W9OFM", "current_trial": 197, "dateTime": 1512889178835, "trialdata": {"rt": -1, "stimulus": "<p id=\"stim\">PANTHER</p>", "key_press": -1, "type": "PRES_VIS", "word": "panther", "wordID": 1008, "conditions": [24, 800, "v", 12000], "trial": 5, "serialpos": 0, "trial_type": "single-stim", "trial_index": 197, "time_elapsed": 938862, "internal_node_id": "0.0-143.0"}}, {"uniqueid": "MTK0923:3NC5L260MPTGGPSLE1K0P33R6W9OFM", "current_trial": 198, "dateTime": 1512889180737, "trialdata": {"rt": -1, "stimulus": "<p id=\"stim\">MATCH</p>", "key_press": -1, "type": "PRES_VIS", "word": "match", "wordID": 877, "conditions": [24, 800, "v", 12000], "trial": 5, "serialpos": 1, "trial_type": "single-stim", "trial_index": 198, "time_elapsed": 940763, "internal_node_id": "0.0-144.0"}}, {"uniqueid": "MTK0923:3NC5L260MPTGGPSLE1K0P33R6W9OFM", "current_trial": 199, "dateTime": 1512889182702, "trialdata": {"rt": -1, "stimulus": "<p id=\"stim\">SMOG</p>", "key_press": -1, "type": "PRES_VIS", "word": "smog", "wordID": 1329, "conditions": [24, 800, "v", 12000], "trial": 5, "serialpos": 2, "trial_type": "single-stim", "trial_index": 199, "time_elapsed": 942729, "internal_node_id": "0.0-145.0"}}, {"uniqueid": "MTK0923:3NC5L260MPTGGPSLE1K0P33R6W9OFM", "current_trial": 200, "dateTime": 1512889184585, "trialdata": {"rt": -1, "stimulus": "<p id=\"stim\">KITCHEN</p>", "key_press": -1, "type": "PRES_VIS", "word": "kitchen", "wordID": 777, "conditions": [24, 800, "v", 12000], "trial": 5, "serialpos": 3, "trial_type": "single-stim", "trial_index": 200, "time_elapsed": 944611, "internal_node_id": "0.0-146.0"}}, {"uniqueid": "MTK0923:3NC5L260MPTGGPSLE1K0P33R6W9OFM", "current_trial": 201, "dateTime": 1512889186293, "trialdata": {"rt": -1, "stimulus": "<p id=\"stim\">CUPBOARD</p>", "key_press": -1, "type": "PRES_VIS", "word": "cupboard", "wordID": 424, "conditions": [24, 800, "v", 12000], "trial": 5, "serialpos": 4, "trial_type": "single-stim", "trial_index": 201, "time_elapsed": 946320, "internal_node_id": "0.0-147.0"}}, {"uniqueid": "MTK0923:3NC5L260MPTGGPSLE1K0P33R6W9OFM", "current_trial": 202, "dateTime": 1512889188171, "trialdata": {"rt": -1, "stimulus": "<p id=\"stim\">STAPLE</p>", "key_press": -1, "type": "PRES_VIS", "word": "staple", "wordID": 1370, "conditions": [24, 800, "v", 12000], "trial": 5, "serialpos": 5, "trial_type": "single-stim", "trial_index": 202, "time_elapsed": 948198, "internal_node_id": "0.0-148.0"}}, {"uniqueid": "MTK0923:3NC5L260MPTGGPSLE1K0P33R6W9OFM", "current_trial": 203, "dateTime": 1512889189801, "trialdata": {"rt": -1, "stimulus": "<p id=\"stim\">CARROT</p>", "key_press": -1, "type": "PRES_VIS", "word": "carrot", "wordID": 248, "conditions": [24, 800, "v", 12000], "trial": 5, "serialpos": 6, "trial_type": "single-stim", "trial_index": 203, "time_elapsed": 949828, "internal_node_id": "0.0-149.0"}}, {"uniqueid": "MTK0923:3NC5L260MPTGGPSLE1K0P33R6W9OFM", "current_trial": 204, "dateTime": 1512889191644, "trialdata": {"rt": -1, "stimulus": "<p id=\"stim\">SEAGULL</p>", "key_press": -1, "type": "PRES_VIS", "word": "seagull", "wordID": 1260, "conditions": [24, 800, "v", 12000], "trial": 5, "serialpos": 7, "trial_type": "single-stim", "trial_index": 204, "time_elapsed": 951671, "internal_node_id": "0.0-150.0"}}, {"uniqueid": "MTK0923:3NC5L260MPTGGPSLE1K0P33R6W9OFM", "current_trial": 205, "dateTime": 1512889193302, "trialdata": {"rt": -1, "stimulus": "<p id=\"stim\">MOTOR</p>", "key_press": -1, "type": "PRES_VIS", "word": "motor", "wordID": 921, "conditions": [24, 800, "v", 12000], "trial": 5, "serialpos": 8, "trial_type": "single-stim", "trial_index": 205, "time_elapsed": 953329, "internal_node_id": "0.0-151.0"}}, {"uniqueid": "MTK0923:3NC5L260MPTGGPSLE1K0P33R6W9OFM", "current_trial": 206, "dateTime": 1512889194950, "trialdata": {"rt": -1, "stimulus": "<p id=\"stim\">WAGON</p>", "key_press": -1, "type": "PRES_VIS", "word": "wagon", "wordID": 1577, "conditions": [24, 800, "v", 12000], "trial": 5, "serialpos": 9, "trial_type": "single-stim", "trial_index": 206, "time_elapsed": 954977, "internal_node_id": "0.0-152.0"}}, {"uniqueid": "MTK0923:3NC5L260MPTGGPSLE1K0P33R6W9OFM", "current_trial": 207, "dateTime": 1512889196938, "trialdata": {"rt": -1, "stimulus": "<p id=\"stim\">LIZARD</p>", "key_press": -1, "type": "PRES_VIS", "word": "lizard", "wordID": 833, "conditions": [24, 800, "v", 12000], "trial": 5, "serialpos": 10, "trial_type": "single-stim", "trial_index": 207, "time_elapsed": 956964, "internal_node_id": "0.0-153.0"}}, {"uniqueid": "MTK0923:3NC5L260MPTGGPSLE1K0P33R6W9OFM", "current_trial": 208, "dateTime": 1512889198552, "trialdata": {"rt": -1, "stimulus": "<p id=\"stim\">ELBOW</p>", "key_press": -1, "type": "PRES_VIS", "word": "elbow", "wordID": 519, "conditions": [24, 800, "v", 12000], "trial": 5, "serialpos": 11, "trial_type": "single-stim", "trial_index": 208, "time_elapsed": 958579, "internal_node_id": "0.0-154.0"}}, {"uniqueid": "MTK0923:3NC5L260MPTGGPSLE1K0P33R6W9OFM", "current_trial": 209, "dateTime": 1512889200168, "trialdata": {"rt": -1, "stimulus": "<p id=\"stim\">PENGUIN</p>", "key_press": -1, "type": "PRES_VIS", "word": "penguin", "wordID": 1043, "conditions": [24, 800, "v", 12000], "trial": 5, "serialpos": 12, "trial_type": "single-stim", "trial_index": 209, "time_elapsed": 960195, "internal_node_id": "0.0-155.0"}}, {"uniqueid": "MTK0923:3NC5L260MPTGGPSLE1K0P33R6W9OFM", "current_trial": 210, "dateTime": 1512889202039, "trialdata": {"rt": -1, "stimulus": "<p id=\"stim\">JUNGLE</p>", "key_press": -1, "type": "PRES_VIS", "word": "jungle", "wordID": 763, "conditions": [24, 800, "v", 12000], "trial": 5, "serialpos": 13, "trial_type": "single-stim", "trial_index": 210, "time_elapsed": 962066, "internal_node_id": "0.0-156.0"}}, {"uniqueid": "MTK0923:3NC5L260MPTGGPSLE1K0P33R6W9OFM", "current_trial": 211, "dateTime": 1512889203947, "trialdata": {"rt": -1, "stimulus": "<p id=\"stim\">DINER</p>", "key_press": -1, "type": "PRES_VIS", "word": "diner", "wordID": 466, "conditions": [24, 800, "v", 12000], "trial": 5, "serialpos": 14, "trial_type": "single-stim", "trial_index": 211, "time_elapsed": 963974, "internal_node_id": "0.0-157.0"}}, {"uniqueid": "MTK0923:3NC5L260MPTGGPSLE1K0P33R6W9OFM", "current_trial": 212, "dateTime": 1512889205570, "trialdata": {"rt": -1, "stimulus": "<p id=\"stim\">PARSLEY</p>", "key_press": -1, "type": "PRES_VIS", "word": "parsley", "wordID": 1015, "conditions": [24, 800, "v", 12000], "trial": 5, "serialpos": 15, "trial_type": "single-stim", "trial_index": 212, "time_elapsed": 965597, "internal_node_id": "0.0-158.0"}}, {"uniqueid": "MTK0923:3NC5L260MPTGGPSLE1K0P33R6W9OFM", "current_trial": 213, "dateTime": 1512889207536, "trialdata": {"rt": -1, "stimulus": "<p id=\"stim\">LAGOON</p>", "key_press": -1, "type": "PRES_VIS", "word": "lagoon", "wordID": 794, "conditions": [24, 800, "v", 12000], "trial": 5, "serialpos": 16, "trial_type": "single-stim", "trial_index": 213, "time_elapsed": 967563, "internal_node_id": "0.0-159.0"}}, {"uniqueid": "MTK0923:3NC5L260MPTGGPSLE1K0P33R6W9OFM", "current_trial": 214, "dateTime": 1512889209435, "trialdata": {"rt": -1, "stimulus": "<p id=\"stim\">PIZZA</p>", "key_press": -1, "type": "PRES_VIS", "word": "pizza", "wordID": 1078, "conditions": [24, 800, "v", 12000], "trial": 5, "serialpos": 17, "trial_type": "single-stim", "trial_index": 214, "time_elapsed": 969462, "internal_node_id": "0.0-160.0"}}, {"uniqueid": "MTK0923:3NC5L260MPTGGPSLE1K0P33R6W9OFM", "current_trial": 215, "dateTime": 1512889211109, "trialdata": {"rt": -1, "stimulus": "<p id=\"stim\">WHISKERS</p>", "key_press": -1, "type": "PRES_VIS", "word": "whiskers", "wordID": 1604, "conditions": [24, 800, "v", 12000], "trial": 5, "serialpos": 18, "trial_type": "single-stim", "trial_index": 215, "time_elapsed": 971136, "internal_node_id": "0.0-161.0"}}, {"uniqueid": "MTK0923:3NC5L260MPTGGPSLE1K0P33R6W9OFM", "current_trial": 216, "dateTime": 1512889212857, "trialdata": {"rt": -1, "stimulus": "<p id=\"stim\">DENTIST</p>", "key_press": -1, "type": "PRES_VIS", "word": "dentist", "wordID": 446, "conditions": [24, 800, "v", 12000], "trial": 5, "serialpos": 19, "trial_type": "single-stim", "trial_index": 216, "time_elapsed": 972884, "internal_node_id": "0.0-162.0"}}, {"uniqueid": "MTK0923:3NC5L260MPTGGPSLE1K0P33R6W9OFM", "current_trial": 217, "dateTime": 1512889214756, "trialdata": {"rt": -1, "stimulus": "<p id=\"stim\">ARMY</p>", "key_press": -1, "type": "PRES_VIS", "word": "army", "wordID": 38, "conditions": [24, 800, "v", 12000], "trial": 5, "serialpos": 20, "trial_type": "single-stim", "trial_index": 217, "time_elapsed": 974783, "internal_node_id": "0.0-163.0"}}, {"uniqueid": "MTK0923:3NC5L260MPTGGPSLE1K0P33R6W9OFM", "current_trial": 218, "dateTime": 1512889216437, "trialdata": {"rt": -1, "stimulus": "<p id=\"stim\">HOOK</p>", "key_press": -1, "type": "PRES_VIS", "word": "hook", "wordID": 714, "conditions": [24, 800, "v", 12000], "trial": 5, "serialpos": 21, "trial_type": "single-stim", "trial_index": 218, "time_elapsed": 976464, "internal_node_id": "0.0-164.0"}}, {"uniqueid": "MTK0923:3NC5L260MPTGGPSLE1K0P33R6W9OFM", "current_trial": 219, "dateTime": 1512889218244, "trialdata": {"rt": -1, "stimulus": "<p id=\"stim\">GUITAR</p>", "key_press": -1, "type": "PRES_VIS", "word": "guitar", "wordID": 669, "conditions": [24, 800, "v", 12000], "trial": 5, "serialpos": 22, "trial_type": "single-stim", "trial_index": 219, "time_elapsed": 978271, "internal_node_id": "0.0-165.0"}}, {"uniqueid": "MTK0923:3NC5L260MPTGGPSLE1K0P33R6W9OFM", "current_trial": 220, "dateTime": 1512889219917, "trialdata": {"rt": -1, "stimulus": "<p id=\"stim\">TUBA</p>", "key_press": -1, "type": "PRES_VIS", "word": "tuba", "wordID": 1514, "conditions": [24, 800, "v", 12000], "trial": 5, "serialpos": 23, "trial_type": "single-stim", "trial_index": 220, "time_elapsed": 979944, "internal_node_id": "0.0-166.0"}}, {"uniqueid": "MTK0923:3NC5L260MPTGGPSLE1K0P33R6W9OFM", "current_trial": 221, "dateTime": 1512889222478, "trialdata": {"rt": -1, "stimulus": "", "key_press": -1, "type": "PRE_RECALL_DELAY", "trial_type": "single-stim", "trial_index": 221, "time_elapsed": 982505, "internal_node_id": "0.0-167.0-0.0"}}, {"uniqueid": "MTK0923:3NC5L260MPTGGPSLE1K0P33R6W9OFM", "current_trial": 222, "dateTime": 1512889222979, "trialdata": {"rt": -1000, "stimulus": "/static/audio/400Hz.wav", "key_press": -1, "type": "PRE_RECALL_ALERT", "trial_type": "single-audio", "trial_index": 222, "time_elapsed": 983006, "internal_node_id": "0.0-168.0"}}, {"uniqueid": "MTK0923:3NC5L260MPTGGPSLE1K0P33R6W9OFM", "current_trial": 223, "dateTime": 1512889282986, "trialdata": {"rt": [2207, 3968, 5672, 9040, 12080, 13711, 16279, 17543, 22496, 24000, 26751, 28631, 30000, 34559, 42120, 44215, 45456, 49095, 57064], "recwords": ["tuba", "guitar", "hook", "dentist", "lagoon", "pizza", "parsley", "diner", "penguin", "jungle", "motor", "lizard", "elbow", "cupboard", "seagull", "kitchen", "smog", "panther", "match"], "type": "FREE_RECALL", "conditions": [24, 800, "v", 12000], "trial": 5, "trial_type": "free-recall", "trial_index": 223, "time_elapsed": 1043010, "internal_node_id": "0.0-169.0-0.0"}}, {"uniqueid": "MTK0923:3NC5L260MPTGGPSLE1K0P33R6W9OFM", "current_trial": 224, "dateTime": 1512889287908, "trialdata": {"rt": 2920, "key_press": 32, "type": "INSTRUCTIONS", "trial_type": "text", "trial_index": 224, "time_elapsed": 1047935, "internal_node_id": "0.0-170.0"}}, {"uniqueid": "MTK0923:3NC5L260MPTGGPSLE1K0P33R6W9OFM", "current_trial": 225, "dateTime": 1512889313944, "trialdata": {"rt": [3491, 6916, 10644, 13023, 16395, 20371, 23742], "responses": ["11", "16", "16", "17", "14", "24", "17"], "num1": [3, 4, 9, 9, 6, 6, 8, 5], "num2": [2, 6, 3, 4, 3, 9, 1, 1], "num3": [6, 6, 4, 4, 5, 9, 8, 7], "type": "DISTRACTOR", "conditions": [12, 1600, "a", 24000], "trial": 6, "trial_type": "math-distractor", "trial_index": 225, "time_elapsed": 1073971, "internal_node_id": "0.0-171.0"}}, {"uniqueid": "MTK0923:3NC5L260MPTGGPSLE1K0P33R6W9OFM", "current_trial": 226, "dateTime": 1512889316945, "trialdata": {"rt": -1, "stimulus": "<p id=\"stim\">10</p>", "key_press": -1, "trial_type": "single-stim", "trial_index": 226, "time_elapsed": 1076972, "internal_node_id": "0.0-172.0-0.0"}}, {"uniqueid": "MTK0923:3NC5L260MPTGGPSLE1K0P33R6W9OFM", "current_trial": 227, "dateTime": 1512889317946, "trialdata": {"rt": -1, "stimulus": "<p id=\"stim\">9</p>", "key_press": -1, "trial_type": "single-stim", "trial_index": 227, "time_elapsed": 1077973, "internal_node_id": "0.0-172.0-1.0"}}, {"uniqueid": "MTK0923:3NC5L260MPTGGPSLE1K0P33R6W9OFM", "current_trial": 228, "dateTime": 1512889318950, "trialdata": {"rt": -1, "stimulus": "<p id=\"stim\">8</p>", "key_press": -1, "trial_type": "single-stim", "trial_index": 228, "time_elapsed": 1078976, "internal_node_id": "0.0-172.0-2.0"}}, {"uniqueid": "MTK0923:3NC5L260MPTGGPSLE1K0P33R6W9OFM", "current_trial": 229, "dateTime": 1512889319957, "trialdata": {"rt": -1, "stimulus": "<p id=\"stim\">7</p>", "key_press": -1, "trial_type": "single-stim", "trial_index": 229, "time_elapsed": 1079984, "internal_node_id": "0.0-172.0-3.0"}}, {"uniqueid": "MTK0923:3NC5L260MPTGGPSLE1K0P33R6W9OFM", "current_trial": 230, "dateTime": 1512889320958, "trialdata": {"rt": -1, "stimulus": "<p id=\"stim\">6</p>", "key_press": -1, "trial_type": "single-stim", "trial_index": 230, "time_elapsed": 1080985, "internal_node_id": "0.0-172.0-4.0"}}, {"uniqueid": "MTK0923:3NC5L260MPTGGPSLE1K0P33R6W9OFM", "current_trial": 231, "dateTime": 1512889321959, "trialdata": {"rt": -1, "stimulus": "<p id=\"stim\">5</p>", "key_press": -1, "trial_type": "single-stim", "trial_index": 231, "time_elapsed": 1081986, "internal_node_id": "0.0-172.0-5.0"}}, {"uniqueid": "MTK0923:3NC5L260MPTGGPSLE1K0P33R6W9OFM", "current_trial": 232, "dateTime": 1512889322974, "trialdata": {"rt": -1, "stimulus": "<p id=\"stim\">4</p>", "key_press": -1, "trial_type": "single-stim", "trial_index": 232, "time_elapsed": 1083001, "internal_node_id": "0.0-172.0-6.0"}}, {"uniqueid": "MTK0923:3NC5L260MPTGGPSLE1K0P33R6W9OFM", "current_trial": 233, "dateTime": 1512889323990, "trialdata": {"rt": -1, "stimulus": "<p id=\"stim\">3</p>", "key_press": -1, "trial_type": "single-stim", "trial_index": 233, "time_elapsed": 1084017, "internal_node_id": "0.0-172.0-7.0"}}, {"uniqueid": "MTK0923:3NC5L260MPTGGPSLE1K0P33R6W9OFM", "current_trial": 234, "dateTime": 1512889324994, "trialdata": {"rt": -1, "stimulus": "<p id=\"stim\">2</p>", "key_press": -1, "trial_type": "single-stim", "trial_index": 234, "time_elapsed": 1085021, "internal_node_id": "0.0-172.0-8.0"}}, {"uniqueid": "MTK0923:3NC5L260MPTGGPSLE1K0P33R6W9OFM", "current_trial": 235, "dateTime": 1512889325996, "trialdata": {"rt": -1, "stimulus": "<p id=\"stim\">1</p>", "key_press": -1, "trial_type": "single-stim", "trial_index": 235, "time_elapsed": 1086022, "internal_node_id": "0.0-172.0-9.0"}}, {"uniqueid": "MTK0923:3NC5L260MPTGGPSLE1K0P33R6W9OFM", "current_trial": 236, "dateTime": 1512889327515, "trialdata": {"rt": -1, "stimulus": "<p id=\"stim\">+</p>", "key_press": -1, "type": "FIXATION", "trial_type": "single-stim", "trial_index": 236, "time_elapsed": 1087542, "internal_node_id": "0.0-173.0-0.0"}}, {"uniqueid": "MTK0923:3NC5L260MPTGGPSLE1K0P33R6W9OFM", "current_trial": 237, "dateTime": 1512889330166, "trialdata": {"rt": -1000, "stimulus": "/static/audio/wordpool/CHIPMUNK.wav", "key_press": -1, "type": "PRES_AUD", "word": "chipmunk", "wordID": 303, "conditions": [12, 1600, "a", 24000], "trial": 6, "serialpos": 0, "trial_type": "single-audio", "trial_index": 237, "time_elapsed": 1090190, "internal_node_id": "0.0-174.0"}}, {"uniqueid": "MTK0923:3NC5L260MPTGGPSLE1K0P33R6W9OFM", "current_trial": 238, "dateTime": 1512889332933, "trialdata": {"rt": -1000, "stimulus": "/static/audio/wordpool/BUNNY.wav", "key_press": -1, "type": "PRES_AUD", "word": "bunny", "wordID": 197, "conditions": [12, 1600, "a", 24000], "trial": 6, "serialpos": 1, "trial_type": "single-audio", "trial_index": 238, "time_elapsed": 1092960, "internal_node_id": "0.0-175.0"}}, {"uniqueid": "MTK0923:3NC5L260MPTGGPSLE1K0P33R6W9OFM", "current_trial": 239, "dateTime": 1512889335522, "trialdata": {"rt": -1000, "stimulus": "/static/audio/wordpool/BACKBONE.wav", "key_press": -1, "type": "PRES_AUD", "word": "backbone", "wordID": 65, "conditions": [12, 1600, "a", 24000], "trial": 6, "serialpos": 2, "trial_type": "single-audio", "trial_index": 239, "time_elapsed": 1095549, "internal_node_id": "0.0-176.0"}}, {"uniqueid": "MTK0923:3NC5L260MPTGGPSLE1K0P33R6W9OFM", "current_trial": 240, "dateTime": 1512889338139, "trialdata": {"rt": -1000, "stimulus": "/static/audio/wordpool/BLOUSE.wav", "key_press": -1, "type": "PRES_AUD", "word": "blouse", "wordID": 138, "conditions": [12, 1600, "a", 24000], "trial": 6, "serialpos": 3, "trial_type": "single-audio", "trial_index": 240, "time_elapsed": 1098166, "internal_node_id": "0.0-177.0"}}, {"uniqueid": "MTK0923:3NC5L260MPTGGPSLE1K0P33R6W9OFM", "current_trial": 241, "dateTime": 1512889340546, "trialdata": {"rt": -1000, "stimulus": "/static/audio/wordpool/TILE.wav", "key_press": -1, "type": "PRES_AUD", "word": "tile", "wordID": 1467, "conditions": [12, 1600, "a", 24000], "trial": 6, "serialpos": 4, "trial_type": "single-audio", "trial_index": 241, "time_elapsed": 1100573, "internal_node_id": "0.0-178.0"}}, {"uniqueid": "MTK0923:3NC5L260MPTGGPSLE1K0P33R6W9OFM", "current_trial": 242, "dateTime": 1512889343088, "trialdata": {"rt": -1000, "stimulus": "/static/audio/wordpool/JURY.wav", "key_press": -1, "type": "PRES_AUD", "word": "jury", "wordID": 765, "conditions": [12, 1600, "a", 24000], "trial": 6, "serialpos": 5, "trial_type": "single-audio", "trial_index": 242, "time_elapsed": 1103115, "internal_node_id": "0.0-179.0"}}, {"uniqueid": "MTK0923:3NC5L260MPTGGPSLE1K0P33R6W9OFM", "current_trial": 243, "dateTime": 1512889345856, "trialdata": {"rt": -1000, "stimulus": "/static/audio/wordpool/GLOBE.wav", "key_press": -1, "type": "PRES_AUD", "word": "globe", "wordID": 640, "conditions": [12, 1600, "a", 24000], "trial": 6, "serialpos": 6, "trial_type": "single-audio", "trial_index": 243, "time_elapsed": 1105883, "internal_node_id": "0.0-180.0"}}, {"uniqueid": "MTK0923:3NC5L260MPTGGPSLE1K0P33R6W9OFM", "current_trial": 244, "dateTime": 1512889348627, "trialdata": {"rt": -1000, "stimulus": "/static/audio/wordpool/SALT.wav", "key_press": -1, "type": "PRES_AUD", "word": "salt", "wordID": 1228, "conditions": [12, 1600, "a", 24000], "trial": 6, "serialpos": 7, "trial_type": "single-audio", "trial_index": 244, "time_elapsed": 1108654, "internal_node_id": "0.0-181.0"}}, {"uniqueid": "MTK0923:3NC5L260MPTGGPSLE1K0P33R6W9OFM", "current_trial": 245, "dateTime": 1512889351273, "trialdata": {"rt": -1000, "stimulus": "/static/audio/wordpool/CHEST.wav", "key_press": -1, "type": "PRES_AUD", "word": "chest", "wordID": 294, "conditions": [12, 1600, "a", 24000], "trial": 6, "serialpos": 8, "trial_type": "single-audio", "trial_index": 245, "time_elapsed": 1111300, "internal_node_id": "0.0-182.0"}}, {"uniqueid": "MTK0923:3NC5L260MPTGGPSLE1K0P33R6W9OFM", "current_trial": 246, "dateTime": 1512889353855, "trialdata": {"rt": -1000, "stimulus": "/static/audio/wordpool/JUDGE.wav", "key_press": -1, "type": "PRES_AUD", "word": "judge", "wordID": 760, "conditions": [12, 1600, "a", 24000], "trial": 6, "serialpos": 9, "trial_type": "single-audio", "trial_index": 246, "time_elapsed": 1113882, "internal_node_id": "0.0-183.0"}}, {"uniqueid": "MTK0923:3NC5L260MPTGGPSLE1K0P33R6W9OFM", "current_trial": 247, "dateTime": 1512889356329, "trialdata": {"rt": -1000, "stimulus": "/static/audio/wordpool/FIREPLACE.wav", "key_press": -1, "type": "PRES_AUD", "word": "fireplace", "wordID": 569, "conditions": [12, 1600, "a", 24000], "trial": 6, "serialpos": 10, "trial_type": "single-audio", "trial_index": 247, "time_elapsed": 1116356, "internal_node_id": "0.0-184.0"}}, {"uniqueid": "MTK0923:3NC5L260MPTGGPSLE1K0P33R6W9OFM", "current_trial": 248, "dateTime": 1512889358959, "trialdata": {"rt": -1000, "stimulus": "/static/audio/wordpool/CRUTCH.wav", "key_press": -1, "type": "PRES_AUD", "word": "crutch", "wordID": 416, "conditions": [12, 1600, "a", 24000], "trial": 6, "serialpos": 11, "trial_type": "single-audio", "trial_index": 248, "time_elapsed": 1118986, "internal_node_id": "0.0-185.0"}}, {"uniqueid": "MTK0923:3NC5L260MPTGGPSLE1K0P33R6W9OFM", "current_trial": 249, "dateTime": 1512889360326, "trialdata": {"rt": -1, "stimulus": "", "key_press": -1, "type": "PRE_RECALL_DELAY", "trial_type": "single-stim", "trial_index": 249, "time_elapsed": 1120353, "internal_node_id": "0.0-186.0-0.0"}}, {"uniqueid": "MTK0923:3NC5L260MPTGGPSLE1K0P33R6W9OFM", "current_trial": 250, "dateTime": 1512889360827, "trialdata": {"rt": -1000, "stimulus": "/static/audio/400Hz.wav", "key_press": -1, "type": "PRE_RECALL_ALERT", "trial_type": "single-audio", "trial_index": 250, "time_elapsed": 1120854, "internal_node_id": "0.0-187.0"}}, {"uniqueid": "MTK0923:3NC5L260MPTGGPSLE1K0P33R6W9OFM", "current_trial": 251, "dateTime": 1512889420834, "trialdata": {"rt": [3134, 4637, 6023, 10534, 12533, 17510, 21590, 23259, 24755, 28316, 35110, 36511, 58895], "recwords": ["fireplace", "crutch", "judge", "salt", "globe", "chest", "blouse", "tile", "jury", "backbone", "chipmunk", "bunny", "jury"], "type": "FREE_RECALL", "conditions": [12, 1600, "a", 24000], "trial": 6, "trial_type": "free-recall", "trial_index": 251, "time_elapsed": 1180858, "internal_node_id": "0.0-188.0-0.0"}}, {"uniqueid": "MTK0923:3NC5L260MPTGGPSLE1K0P33R6W9OFM", "current_trial": 252, "dateTime": 1512889424355, "trialdata": {"rt": 1518, "key_press": 32, "type": "INSTRUCTIONS", "trial_type": "text", "trial_index": 252, "time_elapsed": 1184382, "internal_node_id": "0.0-189.0"}}, {"uniqueid": "MTK0923:3NC5L260MPTGGPSLE1K0P33R6W9OFM", "current_trial": 253, "dateTime": 1512889438360, "trialdata": {"rt": [3754, 5468, 8004, 10785], "responses": ["15", "12", "12", "15"], "num1": [3, 2, 3, 8, 3], "num2": [9, 2, 1, 5, 6], "num3": [3, 8, 8, 2, 7], "type": "DISTRACTOR", "conditions": [24, 800, "a", 12000], "trial": 7, "trial_type": "math-distractor", "trial_index": 253, "time_elapsed": 1198387, "internal_node_id": "0.0-190.0"}}, {"uniqueid": "MTK0923:3NC5L260MPTGGPSLE1K0P33R6W9OFM", "current_trial": 254, "dateTime": 1512889441362, "trialdata": {"rt": -1, "stimulus": "<p id=\"stim\">10</p>", "key_press": -1, "trial_type": "single-stim", "trial_index": 254, "time_elapsed": 1201389, "internal_node_id": "0.0-191.0-0.0"}}, {"uniqueid": "MTK0923:3NC5L260MPTGGPSLE1K0P33R6W9OFM", "current_trial": 255, "dateTime": 1512889442382, "trialdata": {"rt": -1, "stimulus": "<p id=\"stim\">9</p>", "key_press": -1, "trial_type": "single-stim", "trial_index": 255, "time_elapsed": 1202409, "internal_node_id": "0.0-191.0-1.0"}}, {"uniqueid": "MTK0923:3NC5L260MPTGGPSLE1K0P33R6W9OFM", "current_trial": 256, "dateTime": 1512889443383, "trialdata": {"rt": -1, "stimulus": "<p id=\"stim\">8</p>", "key_press": -1, "trial_type": "single-stim", "trial_index": 256, "time_elapsed": 1203410, "internal_node_id": "0.0-191.0-2.0"}}, {"uniqueid": "MTK0923:3NC5L260MPTGGPSLE1K0P33R6W9OFM", "current_trial": 257, "dateTime": 1512889444385, "trialdata": {"rt": -1, "stimulus": "<p id=\"stim\">7</p>", "key_press": -1, "trial_type": "single-stim", "trial_index": 257, "time_elapsed": 1204412, "internal_node_id": "0.0-191.0-3.0"}}, {"uniqueid": "MTK0923:3NC5L260MPTGGPSLE1K0P33R6W9OFM", "current_trial": 258, "dateTime": 1512889445394, "trialdata": {"rt": -1, "stimulus": "<p id=\"stim\">6</p>", "key_press": -1, "trial_type": "single-stim", "trial_index": 258, "time_elapsed": 1205421, "internal_node_id": "0.0-191.0-4.0"}}, {"uniqueid": "MTK0923:3NC5L260MPTGGPSLE1K0P33R6W9OFM", "current_trial": 259, "dateTime": 1512889446395, "trialdata": {"rt": -1, "stimulus": "<p id=\"stim\">5</p>", "key_press": -1, "trial_type": "single-stim", "trial_index": 259, "time_elapsed": 1206422, "internal_node_id": "0.0-191.0-5.0"}}, {"uniqueid": "MTK0923:3NC5L260MPTGGPSLE1K0P33R6W9OFM", "current_trial": 260, "dateTime": 1512889447396, "trialdata": {"rt": -1, "stimulus": "<p id=\"stim\">4</p>", "key_press": -1, "trial_type": "single-stim", "trial_index": 260, "time_elapsed": 1207423, "internal_node_id": "0.0-191.0-6.0"}}, {"uniqueid": "MTK0923:3NC5L260MPTGGPSLE1K0P33R6W9OFM", "current_trial": 261, "dateTime": 1512889448401, "trialdata": {"rt": -1, "stimulus": "<p id=\"stim\">3</p>", "key_press": -1, "trial_type": "single-stim", "trial_index": 261, "time_elapsed": 1208428, "internal_node_id": "0.0-191.0-7.0"}}, {"uniqueid": "MTK0923:3NC5L260MPTGGPSLE1K0P33R6W9OFM", "current_trial": 262, "dateTime": 1512889449404, "trialdata": {"rt": -1, "stimulus": "<p id=\"stim\">2</p>", "key_press": -1, "trial_type": "single-stim", "trial_index": 262, "time_elapsed": 1209431, "internal_node_id": "0.0-191.0-8.0"}}, {"uniqueid": "MTK0923:3NC5L260MPTGGPSLE1K0P33R6W9OFM", "current_trial": 263, "dateTime": 1512889450406, "trialdata": {"rt": -1, "stimulus": "<p id=\"stim\">1</p>", "key_press": -1, "trial_type": "single-stim", "trial_index": 263, "time_elapsed": 1210433, "internal_node_id": "0.0-191.0-9.0"}}, {"uniqueid": "MTK0923:3NC5L260MPTGGPSLE1K0P33R6W9OFM", "current_trial": 264, "dateTime": 1512889451907, "trialdata": {"rt": -1, "stimulus": "<p id=\"stim\">+</p>", "key_press": -1, "type": "FIXATION", "trial_type": "single-stim", "trial_index": 264, "time_elapsed": 1211934, "internal_node_id": "0.0-192.0-0.0"}}, {"uniqueid": "MTK0923:3NC5L260MPTGGPSLE1K0P33R6W9OFM", "current_trial": 265, "dateTime": 1512889453567, "trialdata": {"rt": -1000, "stimulus": "/static/audio/wordpool/VAGRANT.wav", "key_press": -1, "type": "PRES_AUD", "word": "vagrant", "wordID": 1543, "conditions": [24, 800, "a", 12000], "trial": 7, "serialpos": 0, "trial_type": "single-audio", "trial_index": 265, "time_elapsed": 1213594, "internal_node_id": "0.0-193.0"}}, {"uniqueid": "MTK0923:3NC5L260MPTGGPSLE1K0P33R6W9OFM", "current_trial": 266, "dateTime": 1512889455504, "trialdata": {"rt": -1000, "stimulus": "/static/audio/wordpool/SIDEWALK.wav", "key_press": -1, "type": "PRES_AUD", "word": "sidewalk", "wordID": 1302, "conditions": [24, 800, "a", 12000], "trial": 7, "serialpos": 1, "trial_type": "single-audio", "trial_index": 266, "time_elapsed": 1215531, "internal_node_id": "0.0-194.0"}}, {"uniqueid": "MTK0923:3NC5L260MPTGGPSLE1K0P33R6W9OFM", "current_trial": 267, "dateTime": 1512889457403, "trialdata": {"rt": -1000, "stimulus": "/static/audio/wordpool/NIGHTGOWN.wav", "key_press": -1, "type": "PRES_AUD", "word": "nightgown", "wordID": 952, "conditions": [24, 800, "a", 12000], "trial": 7, "serialpos": 2, "trial_type": "single-audio", "trial_index": 267, "time_elapsed": 1217430, "internal_node_id": "0.0-195.0"}}, {"uniqueid": "MTK0923:3NC5L260MPTGGPSLE1K0P33R6W9OFM", "current_trial": 268, "dateTime": 1512889459019, "trialdata": {"rt": -1000, "stimulus": "/static/audio/wordpool/SWAMP.wav", "key_press": -1, "type": "PRES_AUD", "word": "swamp", "wordID": 1415, "conditions": [24, 800, "a", 12000], "trial": 7, "serialpos": 3, "trial_type": "single-audio", "trial_index": 268, "time_elapsed": 1219046, "internal_node_id": "0.0-196.0"}}, {"uniqueid": "MTK0923:3NC5L260MPTGGPSLE1K0P33R6W9OFM", "current_trial": 269, "dateTime": 1512889460733, "trialdata": {"rt": -1000, "stimulus": "/static/audio/wordpool/POSTAGE.wav", "key_press": -1, "type": "PRES_AUD", "word": "postage", "wordID": 1112, "conditions": [24