{"condition": 0, "counterbalance": 452, "assignmentId": "31QNSG6A5S00G4QZP1XS4P0APGA879", "workerId": "MTK0163", "hitId": "3XU9MCX6VOJXPOAVSWHVAVINR6D2R4", "currenttrial": 625, "bonus": 0, "data": [{"uniqueid": "MTK0163:31QNSG6A5S00G4QZP1XS4P0APGA879", "current_trial": 0, "dateTime": 1509396075863, "trialdata": {"rt": 2043, "key_press": 32, "type": "INSTRUCTIONS", "trial_type": "text", "trial_index": 0, "time_elapsed": 2047, "internal_node_id": "0.0-0.0"}}, {"uniqueid": "MTK0163:31QNSG6A5S00G4QZP1XS4P0APGA879", "current_trial": 1, "dateTime": 1509396118201, "trialdata": {"rt": 42335, "key_press": 32, "type": "INSTRUCTIONS", "trial_type": "text", "trial_index": 1, "time_elapsed": 44385, "internal_node_id": "0.0-1.0"}}, {"uniqueid": "MTK0163:31QNSG6A5S00G4QZP1XS4P0APGA879", "current_trial": 2, "dateTime": 1509396127194, "trialdata": {"rt": [8968], "responses": ["ocean"], "type": "AUDIO_TEST", "trial_type": "audio-test", "trial_index": 2, "time_elapsed": 53379, "internal_node_id": "0.0-2.0"}}, {"uniqueid": "MTK0163:31QNSG6A5S00G4QZP1XS4P0APGA879", "current_trial": 3, "dateTime": 1509396134065, "trialdata": {"rt": [6857], "responses": ["crystal"], "type": "AUDIO_TEST", "trial_type": "audio-test", "trial_index": 3, "time_elapsed": 60250, "internal_node_id": "0.0-3.0"}}, {"uniqueid": "MTK0163:31QNSG6A5S00G4QZP1XS4P0APGA879", "current_trial": 4, "dateTime": 1509396138218, "trialdata": {"rt": [4149], "responses": ["spice"], "type": "AUDIO_TEST", "trial_type": "audio-test", "trial_index": 4, "time_elapsed": 64403, "internal_node_id": "0.0-4.0"}}, {"uniqueid": "MTK0163:31QNSG6A5S00G4QZP1XS4P0APGA879", "current_trial": 5, "dateTime": 1509396146269, "trialdata": {"rt": 7300, "key_press": 32, "type": "INSTRUCTIONS", "trial_type": "text", "trial_index": 5, "time_elapsed": 72454, "internal_node_id": "0.0-5.0"}}, {"uniqueid": "MTK0163:31QNSG6A5S00G4QZP1XS4P0APGA879", "current_trial": 6, "dateTime": 1509396156823, "trialdata": {"rt": 10553, "key_press": 32, "type": "INSTRUCTIONS", "trial_type": "text", "trial_index": 6, "time_elapsed": 83008, "internal_node_id": "0.0-6.0"}}, {"uniqueid": "MTK0163:31QNSG6A5S00G4QZP1XS4P0APGA879", "current_trial": 7, "dateTime": 1509396166138, "trialdata": {"rt": 9313, "key_press": 32, "type": "INSTRUCTIONS", "trial_type": "text", "trial_index": 7, "time_elapsed": 92323, "internal_node_id": "0.0-7.0"}}, {"uniqueid": "MTK0163:31QNSG6A5S00G4QZP1XS4P0APGA879", "current_trial": 8, "dateTime": 1509396172446, "trialdata": {"rt": 6306, "key_press": 32, "type": "INSTRUCTIONS", "trial_type": "text", "trial_index": 8, "time_elapsed": 98631, "internal_node_id": "0.0-8.0"}}, {"uniqueid": "MTK0163:31QNSG6A5S00G4QZP1XS4P0APGA879", "current_trial": 9, "dateTime": 1509396191456, "trialdata": {"rt": [4967, 7627, 10984, 15003], "responses": ["12", "15", "16", "11"], "num1": [3, 9, 4, 2, 9], "num2": [3, 1, 5, 7, 4], "num3": [6, 5, 7, 2, 4], "type": "DISTRACTOR", "conditions": [18, 1200, "a", 18000], "trial": 0, "trial_type": "math-distractor", "trial_index": 9, "time_elapsed": 117641, "internal_node_id": "0.0-9.0"}}, {"uniqueid": "MTK0163:31QNSG6A5S00G4QZP1XS4P0APGA879", "current_trial": 10, "dateTime": 1509396194459, "trialdata": {"rt": -1, "stimulus": "<p id=\"stim\">10</p>", "key_press": -1, "trial_type": "single-stim", "trial_index": 10, "time_elapsed": 120643, "internal_node_id": "0.0-10.0-0.0"}}, {"uniqueid": "MTK0163:31QNSG6A5S00G4QZP1XS4P0APGA879", "current_trial": 11, "dateTime": 1509396195460, "trialdata": {"rt": -1, "stimulus": "<p id=\"stim\">9</p>", "key_press": -1, "trial_type": "single-stim", "trial_index": 11, "time_elapsed": 121645, "internal_node_id": "0.0-10.0-1.0"}}, {"uniqueid": "MTK0163:31QNSG6A5S00G4QZP1XS4P0APGA879", "current_trial": 12, "dateTime": 1509396196462, "trialdata": {"rt": -1, "stimulus": "<p id=\"stim\">8</p>", "key_press": -1, "trial_type": "single-stim", "trial_index": 12, "time_elapsed": 122646, "internal_node_id": "0.0-10.0-2.0"}}, {"uniqueid": "MTK0163:31QNSG6A5S00G4QZP1XS4P0APGA879", "current_trial": 13, "dateTime": 1509396197464, "trialdata": {"rt": -1, "stimulus": "<p id=\"stim\">7</p>", "key_press": -1, "trial_type": "single-stim", "trial_index": 13, "time_elapsed": 123649, "internal_node_id": "0.0-10.0-3.0"}}, {"uniqueid": "MTK0163:31QNSG6A5S00G4QZP1XS4P0APGA879", "current_trial": 14, "dateTime": 1509396198465, "trialdata": {"rt": -1, "stimulus": "<p id=\"stim\">6</p>", "key_press": -1, "trial_type": "single-stim", "trial_index": 14, "time_elapsed": 124650, "internal_node_id": "0.0-10.0-4.0"}}, {"uniqueid": "MTK0163:31QNSG6A5S00G4QZP1XS4P0APGA879", "current_trial": 15, "dateTime": 1509396199467, "trialdata": {"rt": -1, "stimulus": "<p id=\"stim\">5</p>", "key_press": -1, "trial_type": "single-stim", "trial_index": 15, "time_elapsed": 125652, "internal_node_id": "0.0-10.0-5.0"}}, {"uniqueid": "MTK0163:31QNSG6A5S00G4QZP1XS4P0APGA879", "current_trial": 16, "dateTime": 1509396200468, "trialdata": {"rt": -1, "stimulus": "<p id=\"stim\">4</p>", "key_press": -1, "trial_type": "single-stim", "trial_index": 16, "time_elapsed": 126653, "internal_node_id": "0.0-10.0-6.0"}}, {"uniqueid": "MTK0163:31QNSG6A5S00G4QZP1XS4P0APGA879", "current_trial": 17, "dateTime": 1509396201470, "trialdata": {"rt": -1, "stimulus": "<p id=\"stim\">3</p>", "key_press": -1, "trial_type": "single-stim", "trial_index": 17, "time_elapsed": 127654, "internal_node_id": "0.0-10.0-7.0"}}, {"uniqueid": "MTK0163:31QNSG6A5S00G4QZP1XS4P0APGA879", "current_trial": 18, "dateTime": 1509396202471, "trialdata": {"rt": -1, "stimulus": "<p id=\"stim\">2</p>", "key_press": -1, "trial_type": "single-stim", "trial_index": 18, "time_elapsed": 128656, "internal_node_id": "0.0-10.0-8.0"}}, {"uniqueid": "MTK0163:31QNSG6A5S00G4QZP1XS4P0APGA879", "current_trial": 19, "dateTime": 1509396203472, "trialdata": {"rt": -1, "stimulus": "<p id=\"stim\">1</p>", "key_press": -1, "trial_type": "single-stim", "trial_index": 19, "time_elapsed": 129656, "internal_node_id": "0.0-10.0-9.0"}}, {"uniqueid": "MTK0163:31QNSG6A5S00G4QZP1XS4P0APGA879", "current_trial": 20, "dateTime": 1509396204973, "trialdata": {"rt": -1, "stimulus": "<p id=\"stim\">+</p>", "key_press": -1, "type": "FIXATION", "trial_type": "single-stim", "trial_index": 20, "time_elapsed": 131158, "internal_node_id": "0.0-11.0-0.0"}}, {"uniqueid": "MTK0163:31QNSG6A5S00G4QZP1XS4P0APGA879", "current_trial": 21, "dateTime": 1509396207180, "trialdata": {"rt": -1000, "stimulus": "/static/audio/wordpool/CHAMPAGNE.wav", "key_press": -1, "type": "PRES_AUD", "word": "champagne", "wordID": 277, "conditions": [18, 1200, "a", 18000], "trial": 0, "serialpos": 0, "trial_type": "single-audio", "trial_index": 21, "time_elapsed": 133365, "internal_node_id": "0.0-12.0"}}, {"uniqueid": "MTK0163:31QNSG6A5S00G4QZP1XS4P0APGA879", "current_trial": 22, "dateTime": 1509396209337, "trialdata": {"rt": -1000, "stimulus": "/static/audio/wordpool/CRATER.wav", "key_press": -1, "type": "PRES_AUD", "word": "crater", "wordID": 399, "conditions": [18, 1200, "a", 18000], "trial": 0, "serialpos": 1, "trial_type": "single-audio", "trial_index": 22, "time_elapsed": 135522, "internal_node_id": "0.0-13.0"}}, {"uniqueid": "MTK0163:31QNSG6A5S00G4QZP1XS4P0APGA879", "current_trial": 23, "dateTime": 1509396211569, "trialdata": {"rt": -1000, "stimulus": "/static/audio/wordpool/PRINCESS.wav", "key_press": -1, "type": "PRES_AUD", "word": "princess", "wordID": 1124, "conditions": [18, 1200, "a", 18000], "trial": 0, "serialpos": 2, "trial_type": "single-audio", "trial_index": 23, "time_elapsed": 137754, "internal_node_id": "0.0-14.0"}}, {"uniqueid": "MTK0163:31QNSG6A5S00G4QZP1XS4P0APGA879", "current_trial": 24, "dateTime": 1509396213655, "trialdata": {"rt": -1000, "stimulus": "/static/audio/wordpool/JELLY.wav", "key_press": -1, "type": "PRES_AUD", "word": "jelly", "wordID": 754, "conditions": [18, 1200, "a", 18000], "trial": 0, "serialpos": 3, "trial_type": "single-audio", "trial_index": 24, "time_elapsed": 139840, "internal_node_id": "0.0-15.0"}}, {"uniqueid": "MTK0163:31QNSG6A5S00G4QZP1XS4P0APGA879", "current_trial": 25, "dateTime": 1509396215853, "trialdata": {"rt": -1000, "stimulus": "/static/audio/wordpool/ZIPPER.wav", "key_press": -1, "type": "PRES_AUD", "word": "zipper", "wordID": 1635, "conditions": [18, 1200, "a", 18000], "trial": 0, "serialpos": 4, "trial_type": "single-audio", "trial_index": 25, "time_elapsed": 142038, "internal_node_id": "0.0-16.0"}}, {"uniqueid": "MTK0163:31QNSG6A5S00G4QZP1XS4P0APGA879", "current_trial": 26, "dateTime": 1509396217991, "trialdata": {"rt": -1000, "stimulus": "/static/audio/wordpool/THREAD.wav", "key_press": -1, "type": "PRES_AUD", "word": "thread", "wordID": 1459, "conditions": [18, 1200, "a", 18000], "trial": 0, "serialpos": 5, "trial_type": "single-audio", "trial_index": 26, "time_elapsed": 144176, "internal_node_id": "0.0-17.0"}}, {"uniqueid": "MTK0163:31QNSG6A5S00G4QZP1XS4P0APGA879", "current_trial": 27, "dateTime": 1509396220141, "trialdata": {"rt": -1000, "stimulus": "/static/audio/wordpool/HEADBAND.wav", "key_press": -1, "type": "PRES_AUD", "word": "headband", "wordID": 695, "conditions": [18, 1200, "a", 18000], "trial": 0, "serialpos": 6, "trial_type": "single-audio", "trial_index": 27, "time_elapsed": 146326, "internal_node_id": "0.0-18.0"}}, {"uniqueid": "MTK0163:31QNSG6A5S00G4QZP1XS4P0APGA879", "current_trial": 28, "dateTime": 1509396222207, "trialdata": {"rt": -1000, "stimulus": "/static/audio/wordpool/COSTUME.wav", "key_press": -1, "type": "PRES_AUD", "word": "costume", "wordID": 382, "conditions": [18, 1200, "a", 18000], "trial": 0, "serialpos": 7, "trial_type": "single-audio", "trial_index": 28, "time_elapsed": 148392, "internal_node_id": "0.0-19.0"}}, {"uniqueid": "MTK0163:31QNSG6A5S00G4QZP1XS4P0APGA879", "current_trial": 29, "dateTime": 1509396224338, "trialdata": {"rt": -1000, "stimulus": "/static/audio/wordpool/FOOT.wav", "key_press": -1, "type": "PRES_AUD", "word": "foot", "wordID": 589, "conditions": [18, 1200, "a", 18000], "trial": 0, "serialpos": 8, "trial_type": "single-audio", "trial_index": 29, "time_elapsed": 150523, "internal_node_id": "0.0-20.0"}}, {"uniqueid": "MTK0163:31QNSG6A5S00G4QZP1XS4P0APGA879", "current_trial": 30, "dateTime": 1509396226716, "trialdata": {"rt": -1000, "stimulus": "/static/audio/wordpool/CASHIER.wav", "key_press": -1, "type": "PRES_AUD", "word": "cashier", "wordID": 253, "conditions": [18, 1200, "a", 18000], "trial": 0, "serialpos": 9, "trial_type": "single-audio", "trial_index": 30, "time_elapsed": 152901, "internal_node_id": "0.0-21.0"}}, {"uniqueid": "MTK0163:31QNSG6A5S00G4QZP1XS4P0APGA879", "current_trial": 31, "dateTime": 1509396228925, "trialdata": {"rt": -1000, "stimulus": "/static/audio/wordpool/ONION.wav", "key_press": -1, "type": "PRES_AUD", "word": "onion", "wordID": 976, "conditions": [18, 1200, "a", 18000], "trial": 0, "serialpos": 10, "trial_type": "single-audio", "trial_index": 31, "time_elapsed": 155110, "internal_node_id": "0.0-22.0"}}, {"uniqueid": "MTK0163:31QNSG6A5S00G4QZP1XS4P0APGA879", "current_trial": 32, "dateTime": 1509396231082, "trialdata": {"rt": -1000, "stimulus": "/static/audio/wordpool/PLAZA.wav", "key_press": -1, "type": "PRES_AUD", "word": "plaza", "wordID": 1087, "conditions": [18, 1200, "a", 18000], "trial": 0, "serialpos": 11, "trial_type": "single-audio", "trial_index": 32, "time_elapsed": 157267, "internal_node_id": "0.0-23.0"}}, {"uniqueid": "MTK0163:31QNSG6A5S00G4QZP1XS4P0APGA879", "current_trial": 33, "dateTime": 1509396233420, "trialdata": {"rt": -1000, "stimulus": "/static/audio/wordpool/GARDEN.wav", "key_press": -1, "type": "PRES_AUD", "word": "garden", "wordID": 622, "conditions": [18, 1200, "a", 18000], "trial": 0, "serialpos": 12, "trial_type": "single-audio", "trial_index": 33, "time_elapsed": 159605, "internal_node_id": "0.0-24.0"}}, {"uniqueid": "MTK0163:31QNSG6A5S00G4QZP1XS4P0APGA879", "current_trial": 34, "dateTime": 1509396235473, "trialdata": {"rt": -1000, "stimulus": "/static/audio/wordpool/CELLAR.wav", "key_press": -1, "type": "PRES_AUD", "word": "cellar", "wordID": 266, "conditions": [18, 1200, "a", 18000], "trial": 0, "serialpos": 13, "trial_type": "single-audio", "trial_index": 34, "time_elapsed": 161658, "internal_node_id": "0.0-25.0"}}, {"uniqueid": "MTK0163:31QNSG6A5S00G4QZP1XS4P0APGA879", "current_trial": 35, "dateTime": 1509396237691, "trialdata": {"rt": -1000, "stimulus": "/static/audio/wordpool/STOVE.wav", "key_press": -1, "type": "PRES_AUD", "word": "stove", "wordID": 1387, "conditions": [18, 1200, "a", 18000], "trial": 0, "serialpos": 14, "trial_type": "single-audio", "trial_index": 35, "time_elapsed": 163876, "internal_node_id": "0.0-26.0"}}, {"uniqueid": "MTK0163:31QNSG6A5S00G4QZP1XS4P0APGA879", "current_trial": 36, "dateTime": 1509396240029, "trialdata": {"rt": -1000, "stimulus": "/static/audio/wordpool/ARM.wav", "key_press": -1, "type": "PRES_AUD", "word": "arm", "wordID": 37, "conditions": [18, 1200, "a", 18000], "trial": 0, "serialpos": 15, "trial_type": "single-audio", "trial_index": 36, "time_elapsed": 166214, "internal_node_id": "0.0-27.0"}}, {"uniqueid": "MTK0163:31QNSG6A5S00G4QZP1XS4P0APGA879", "current_trial": 37, "dateTime": 1509396242271, "trialdata": {"rt": -1000, "stimulus": "/static/audio/wordpool/POSTAGE.wav", "key_press": -1, "type": "PRES_AUD", "word": "postage", "wordID": 1112, "conditions": [18, 1200, "a", 18000], "trial": 0, "serialpos": 16, "trial_type": "single-audio", "trial_index": 37, "time_elapsed": 168456, "internal_node_id": "0.0-28.0"}}, {"uniqueid": "MTK0163:31QNSG6A5S00G4QZP1XS4P0APGA879", "current_trial": 38, "dateTime": 1509396244287, "trialdata": {"rt": -1000, "stimulus": "/static/audio/wordpool/TORTOISE.wav", "key_press": -1, "type": "PRES_AUD", "word": "tortoise", "wordID": 1485, "conditions": [18, 1200, "a", 18000], "trial": 0, "serialpos": 17, "trial_type": "single-audio", "trial_index": 38, "time_elapsed": 170472, "internal_node_id": "0.0-29.0"}}, {"uniqueid": "MTK0163:31QNSG6A5S00G4QZP1XS4P0APGA879", "current_trial": 39, "dateTime": 1509396245567, "trialdata": {"rt": -1, "stimulus": "", "key_press": -1, "type": "PRE_RECALL_DELAY", "trial_type": "single-stim", "trial_index": 39, "time_elapsed": 171752, "internal_node_id": "0.0-30.0-0.0"}}, {"uniqueid": "MTK0163:31QNSG6A5S00G4QZP1XS4P0APGA879", "current_trial": 40, "dateTime": 1509396246077, "trialdata": {"rt": -1000, "stimulus": "/static/audio/400Hz.wav", "key_press": -1, "type": "PRE_RECALL_ALERT", "trial_type": "single-audio", "trial_index": 40, "time_elapsed": 172261, "internal_node_id": "0.0-31.0"}}, {"uniqueid": "MTK0163:31QNSG6A5S00G4QZP1XS4P0APGA879", "current_trial": 41, "dateTime": 1509396306088, "trialdata": {"rt": [3506, 9193, 14228, 19917, 24161], "recwords": ["5", "foot", "champagne", "princess", "coattail"], "type": "FREE_RECALL", "conditions": [18, 1200, "a", 18000], "trial": 0, "trial_type": "free-recall", "trial_index": 41, "time_elapsed": 232266, "internal_node_id": "0.0-32.0-0.0"}}, {"uniqueid": "MTK0163:31QNSG6A5S00G4QZP1XS4P0APGA879", "current_trial": 42, "dateTime": 1509396309788, "trialdata": {"rt": 1698, "key_press": 32, "type": "INSTRUCTIONS", "trial_type": "text", "trial_index": 42, "time_elapsed": 235973, "internal_node_id": "0.0-33.0"}}, {"uniqueid": "MTK0163:31QNSG6A5S00G4QZP1XS4P0APGA879", "current_trial": 43, "dateTime": 1509396329792, "trialdata": {"rt": [3185, 5402, 7105, 13366, 15295], "responses": ["14", "19", "10", "13", "15"], "num1": [6, 8, 5, 1, 1, 6], "num2": [3, 3, 4, 4, 7, 6], "num3": [5, 8, 1, 7, 7, 7], "type": "DISTRACTOR", "conditions": [18, 1200, "v", 18000], "trial": 1, "trial_type": "math-distractor", "trial_index": 43, "time_elapsed": 255977, "internal_node_id": "0.0-34.0"}}, {"uniqueid": "MTK0163:31QNSG6A5S00G4QZP1XS4P0APGA879", "current_trial": 44, "dateTime": 1509396332793, "trialdata": {"rt": -1, "stimulus": "<p id=\"stim\">10</p>", "key_press": -1, "trial_type": "single-stim", "trial_index": 44, "time_elapsed": 258978, "internal_node_id": "0.0-35.0-0.0"}}, {"uniqueid": "MTK0163:31QNSG6A5S00G4QZP1XS4P0APGA879", "current_trial": 45, "dateTime": 1509396333794, "trialdata": {"rt": -1, "stimulus": "<p id=\"stim\">9</p>", "key_press": -1, "trial_type": "single-stim", "trial_index": 45, "time_elapsed": 259978, "internal_node_id": "0.0-35.0-1.0"}}, {"uniqueid": "MTK0163:31QNSG6A5S00G4QZP1XS4P0APGA879", "current_trial": 46, "dateTime": 1509396334796, "trialdata": {"rt": -1, "stimulus": "<p id=\"stim\">8</p>", "key_press": -1, "trial_type": "single-stim", "trial_index": 46, "time_elapsed": 260981, "internal_node_id": "0.0-35.0-2.0"}}, {"uniqueid": "MTK0163:31QNSG6A5S00G4QZP1XS4P0APGA879", "current_trial": 47, "dateTime": 1509396335797, "trialdata": {"rt": -1, "stimulus": "<p id=\"stim\">7</p>", "key_press": -1, "trial_type": "single-stim", "trial_index": 47, "time_elapsed": 261982, "internal_node_id": "0.0-35.0-3.0"}}, {"uniqueid": "MTK0163:31QNSG6A5S00G4QZP1XS4P0APGA879", "current_trial": 48, "dateTime": 1509396336798, "trialdata": {"rt": -1, "stimulus": "<p id=\"stim\">6</p>", "key_press": -1, "trial_type": "single-stim", "trial_index": 48, "time_elapsed": 262983, "internal_node_id": "0.0-35.0-4.0"}}, {"uniqueid": "MTK0163:31QNSG6A5S00G4QZP1XS4P0APGA879", "current_trial": 49, "dateTime": 1509396337801, "trialdata": {"rt": -1, "stimulus": "<p id=\"stim\">5</p>", "key_press": -1, "trial_type": "single-stim", "trial_index": 49, "time_elapsed": 263986, "internal_node_id": "0.0-35.0-5.0"}}, {"uniqueid": "MTK0163:31QNSG6A5S00G4QZP1XS4P0APGA879", "current_trial": 50, "dateTime": 1509396338802, "trialdata": {"rt": -1, "stimulus": "<p id=\"stim\">4</p>", "key_press": -1, "trial_type": "single-stim", "trial_index": 50, "time_elapsed": 264987, "internal_node_id": "0.0-35.0-6.0"}}, {"uniqueid": "MTK0163:31QNSG6A5S00G4QZP1XS4P0APGA879", "current_trial": 51, "dateTime": 1509396339804, "trialdata": {"rt": -1, "stimulus": "<p id=\"stim\">3</p>", "key_press": -1, "trial_type": "single-stim", "trial_index": 51, "time_elapsed": 265989, "internal_node_id": "0.0-35.0-7.0"}}, {"uniqueid": "MTK0163:31QNSG6A5S00G4QZP1XS4P0APGA879", "current_trial": 52, "dateTime": 1509396340805, "trialdata": {"rt": -1, "stimulus": "<p id=\"stim\">2</p>", "key_press": -1, "trial_type": "single-stim", "trial_index": 52, "time_elapsed": 266990, "internal_node_id": "0.0-35.0-8.0"}}, {"uniqueid": "MTK0163:31QNSG6A5S00G4QZP1XS4P0APGA879", "current_trial": 53, "dateTime": 1509396341806, "trialdata": {"rt": -1, "stimulus": "<p id=\"stim\">1</p>", "key_press": -1, "trial_type": "single-stim", "trial_index": 53, "time_elapsed": 267991, "internal_node_id": "0.0-35.0-9.0"}}, {"uniqueid": "MTK0163:31QNSG6A5S00G4QZP1XS4P0APGA879", "current_trial": 54, "dateTime": 1509396343308, "trialdata": {"rt": -1, "stimulus": "<p id=\"stim\">+</p>", "key_press": -1, "type": "FIXATION", "trial_type": "single-stim", "trial_index": 54, "time_elapsed": 269493, "internal_node_id": "0.0-36.0-0.0"}}, {"uniqueid": "MTK0163:31QNSG6A5S00G4QZP1XS4P0APGA879", "current_trial": 55, "dateTime": 1509396344510, "trialdata": {"rt": -1, "stimulus": "<p id=\"stim\">PIGMENT</p>", "key_press": -1, "type": "PRES_VIS", "word": "pigment", "wordID": 1065, "conditions": [18, 1200, "v", 18000], "trial": 1, "serialpos": 0, "trial_type": "single-stim", "trial_index": 55, "time_elapsed": 270695, "internal_node_id": "0.0-37.0"}}, {"uniqueid": "MTK0163:31QNSG6A5S00G4QZP1XS4P0APGA879", "current_trial": 56, "dateTime": 1509396346553, "trialdata": {"rt": -1, "stimulus": "<p id=\"stim\">SLUG</p>", "key_press": -1, "type": "PRES_VIS", "word": "slug", "wordID": 1328, "conditions": [18, 1200, "v", 18000], "trial": 1, "serialpos": 1, "trial_type": "single-stim", "trial_index": 56, "time_elapsed": 272738, "internal_node_id": "0.0-38.0"}}, {"uniqueid": "MTK0163:31QNSG6A5S00G4QZP1XS4P0APGA879", "current_trial": 57, "dateTime": 1509396348879, "trialdata": {"rt": -1, "stimulus": "<p id=\"stim\">MAPLE</p>", "key_press": -1, "type": "PRES_VIS", "word": "maple", "wordID": 865, "conditions": [18, 1200, "v", 18000], "trial": 1, "serialpos": 2, "trial_type": "single-stim", "trial_index": 57, "time_elapsed": 275064, "internal_node_id": "0.0-39.0"}}, {"uniqueid": "MTK0163:31QNSG6A5S00G4QZP1XS4P0APGA879", "current_trial": 58, "dateTime": 1509396350891, "trialdata": {"rt": -1, "stimulus": "<p id=\"stim\">LETTUCE</p>", "key_press": -1, "type": "PRES_VIS", "word": "lettuce", "wordID": 813, "conditions": [18, 1200, "v", 18000], "trial": 1, "serialpos": 3, "trial_type": "single-stim", "trial_index": 58, "time_elapsed": 277076, "internal_node_id": "0.0-40.0"}}, {"uniqueid": "MTK0163:31QNSG6A5S00G4QZP1XS4P0APGA879", "current_trial": 59, "dateTime": 1509396353118, "trialdata": {"rt": -1, "stimulus": "<p id=\"stim\">ASIA</p>", "key_press": -1, "type": "PRES_VIS", "word": "asia", "wordID": 45, "conditions": [18, 1200, "v", 18000], "trial": 1, "serialpos": 4, "trial_type": "single-stim", "trial_index": 59, "time_elapsed": 279303, "internal_node_id": "0.0-41.0"}}, {"uniqueid": "MTK0163:31QNSG6A5S00G4QZP1XS4P0APGA879", "current_trial": 60, "dateTime": 1509396355317, "trialdata": {"rt": -1, "stimulus": "<p id=\"stim\">COCKTAIL</p>", "key_press": -1, "type": "PRES_VIS", "word": "cocktail", "wordID": 337, "conditions": [18, 1200, "v", 18000], "trial": 1, "serialpos": 5, "trial_type": "single-stim", "trial_index": 60, "time_elapsed": 281502, "internal_node_id": "0.0-42.0"}}, {"uniqueid": "MTK0163:31QNSG6A5S00G4QZP1XS4P0APGA879", "current_trial": 61, "dateTime": 1509396357459, "trialdata": {"rt": -1, "stimulus": "<p id=\"stim\">SPARROW</p>", "key_press": -1, "type": "PRES_VIS", "word": "sparrow", "wordID": 1346, "conditions": [18, 1200, "v", 18000], "trial": 1, "serialpos": 6, "trial_type": "single-stim", "trial_index": 61, "time_elapsed": 283644, "internal_node_id": "0.0-43.0"}}, {"uniqueid": "MTK0163:31QNSG6A5S00G4QZP1XS4P0APGA879", "current_trial": 62, "dateTime": 1509396359648, "trialdata": {"rt": -1, "stimulus": "<p id=\"stim\">DRAGON</p>", "key_press": -1, "type": "PRES_VIS", "word": "dragon", "wordID": 491, "conditions": [18, 1200, "v", 18000], "trial": 1, "serialpos": 7, "trial_type": "single-stim", "trial_index": 62, "time_elapsed": 285833, "internal_node_id": "0.0-44.0"}}, {"uniqueid": "MTK0163:31QNSG6A5S00G4QZP1XS4P0APGA879", "current_trial": 63, "dateTime": 1509396361964, "trialdata": {"rt": -1, "stimulus": "<p id=\"stim\">STAPLE</p>", "key_press": -1, "type": "PRES_VIS", "word": "staple", "wordID": 1370, "conditions": [18, 1200, "v", 18000], "trial": 1, "serialpos": 8, "trial_type": "single-stim", "trial_index": 63, "time_elapsed": 288149, "internal_node_id": "0.0-45.0"}}, {"uniqueid": "MTK0163:31QNSG6A5S00G4QZP1XS4P0APGA879", "current_trial": 64, "dateTime": 1509396364348, "trialdata": {"rt": -1, "stimulus": "<p id=\"stim\">PLAYGROUND</p>", "key_press": -1, "type": "PRES_VIS", "word": "playground", "wordID": 1086, "conditions": [18, 1200, "v", 18000], "trial": 1, "serialpos": 9, "trial_type": "single-stim", "trial_index": 64, "time_elapsed": 290533, "internal_node_id": "0.0-46.0"}}, {"uniqueid": "MTK0163:31QNSG6A5S00G4QZP1XS4P0APGA879", "current_trial": 65, "dateTime": 1509396366483, "trialdata": {"rt": -1, "stimulus": "<p id=\"stim\">CONCERT</p>", "key_press": -1, "type": "PRES_VIS", "word": "concert", "wordID": 359, "conditions": [18, 1200, "v", 18000], "trial": 1, "serialpos": 10, "trial_type": "single-stim", "trial_index": 65, "time_elapsed": 292667, "internal_node_id": "0.0-47.0"}}, {"uniqueid": "MTK0163:31QNSG6A5S00G4QZP1XS4P0APGA879", "current_trial": 66, "dateTime": 1509396368624, "trialdata": {"rt": -1, "stimulus": "<p id=\"stim\">YACHT</p>", "key_press": -1, "type": "PRES_VIS", "word": "yacht", "wordID": 1628, "conditions": [18, 1200, "v", 18000], "trial": 1, "serialpos": 11, "trial_type": "single-stim", "trial_index": 66, "time_elapsed": 294808, "internal_node_id": "0.0-48.0"}}, {"uniqueid": "MTK0163:31QNSG6A5S00G4QZP1XS4P0APGA879", "current_trial": 67, "dateTime": 1509396370644, "trialdata": {"rt": -1, "stimulus": "<p id=\"stim\">IGLOO</p>", "key_press": -1, "type": "PRES_VIS", "word": "igloo", "wordID": 733, "conditions": [18, 1200, "v", 18000], "trial": 1, "serialpos": 12, "trial_type": "single-stim", "trial_index": 67, "time_elapsed": 296829, "internal_node_id": "0.0-49.0"}}, {"uniqueid": "MTK0163:31QNSG6A5S00G4QZP1XS4P0APGA879", "current_trial": 68, "dateTime": 1509396373036, "trialdata": {"rt": -1, "stimulus": "<p id=\"stim\">CLOCK</p>", "key_press": -1, "type": "PRES_VIS", "word": "clock", "wordID": 324, "conditions": [18, 1200, "v", 18000], "trial": 1, "serialpos": 13, "trial_type": "single-stim", "trial_index": 68, "time_elapsed": 299207, "internal_node_id": "0.0-50.0"}}, {"uniqueid": "MTK0163:31QNSG6A5S00G4QZP1XS4P0APGA879", "current_trial": 69, "dateTime": 1509396375152, "trialdata": {"rt": -1, "stimulus": "<p id=\"stim\">ICEBERG</p>", "key_press": -1, "type": "PRES_VIS", "word": "iceberg", "wordID": 730, "conditions": [18, 1200, "v", 18000], "trial": 1, "serialpos": 14, "trial_type": "single-stim", "trial_index": 69, "time_elapsed": 301337, "internal_node_id": "0.0-51.0"}}, {"uniqueid": "MTK0163:31QNSG6A5S00G4QZP1XS4P0APGA879", "current_trial": 70, "dateTime": 1509396377159, "trialdata": {"rt": -1, "stimulus": "<p id=\"stim\">BEAST</p>", "key_press": -1, "type": "PRES_VIS", "word": "beast", "wordID": 107, "conditions": [18, 1200, "v", 18000], "trial": 1, "serialpos": 15, "trial_type": "single-stim", "trial_index": 70, "time_elapsed": 303344, "internal_node_id": "0.0-52.0"}}, {"uniqueid": "MTK0163:31QNSG6A5S00G4QZP1XS4P0APGA879", "current_trial": 71, "dateTime": 1509396379546, "trialdata": {"rt": -1, "stimulus": "<p id=\"stim\">PIANO</p>", "key_press": -1, "type": "PRES_VIS", "word": "piano", "wordID": 1056, "conditions": [18, 1200, "v", 18000], "trial": 1, "serialpos": 16, "trial_type": "single-stim", "trial_index": 71, "time_elapsed": 305730, "internal_node_id": "0.0-53.0"}}, {"uniqueid": "MTK0163:31QNSG6A5S00G4QZP1XS4P0APGA879", "current_trial": 72, "dateTime": 1509396381585, "trialdata": {"rt": -1, "stimulus": "<p id=\"stim\">FINGER</p>", "key_press": -1, "type": "PRES_VIS", "word": "finger", "wordID": 566, "conditions": [18, 1200, "v", 18000], "trial": 1, "serialpos": 17, "trial_type": "single-stim", "trial_index": 72, "time_elapsed": 307769, "internal_node_id": "0.0-54.0"}}, {"uniqueid": "MTK0163:31QNSG6A5S00G4QZP1XS4P0APGA879", "current_trial": 73, "dateTime": 1509396383870, "trialdata": {"rt": -1, "stimulus": "", "key_press": -1, "type": "PRE_RECALL_DELAY", "trial_type": "single-stim", "trial_index": 73, "time_elapsed": 310054, "internal_node_id": "0.0-55.0-0.0"}}, {"uniqueid": "MTK0163:31QNSG6A5S00G4QZP1XS4P0APGA879", "current_trial": 74, "dateTime": 1509396384376, "trialdata": {"rt": -1000, "stimulus": "/static/audio/400Hz.wav", "key_press": -1, "type": "PRE_RECALL_ALERT", "trial_type": "single-audio", "trial_index": 74, "time_elapsed": 310560, "internal_node_id": "0.0-56.0"}}, {"uniqueid": "MTK0163:31QNSG6A5S00G4QZP1XS4P0APGA879", "current_trial": 75, "dateTime": 1509396444385, "trialdata": {"rt": [3090, 6250, 7849, 15413], "recwords": ["piano", "cocktail", "finger", "concert"], "type": "FREE_RECALL", "conditions": [18, 1200, "v", 18000], "trial": 1, "trial_type": "free-recall", "trial_index": 75, "time_elapsed": 370565, "internal_node_id": "0.0-57.0-0.0"}}, {"uniqueid": "MTK0163:31QNSG6A5S00G4QZP1XS4P0APGA879", "current_trial": 76, "dateTime": 1509396448055, "trialdata": {"rt": 1669, "key_press": 86, "type": "INSTRUCTIONS", "trial_type": "text", "trial_index": 76, "time_elapsed": 374240, "internal_node_id": "0.0-58.0"}}, {"uniqueid": "MTK0163:31QNSG6A5S00G4QZP1XS4P0APGA879", "current_trial": 77, "dateTime": 1509396473058, "trialdata": {"rt": [3023, 5006, 7589, 9496, 12407, 16042, 17913, 19752, 21730], "responses": ["15", "10", "9", "10", "16", "16", "9", "10", "17"], "num1": [4, 4, 5, 2, 4, 4, 1, 2, 7, 7], "num2": [4, 1, 1, 4, 4, 7, 7, 4, 5, 8], "num3": [7, 5, 3, 4, 9, 5, 1, 4, 5, 8], "type": "DISTRACTOR", "conditions": [24, 800, "v", 24000], "trial": 2, "trial_type": "math-distractor", "trial_index": 77, "time_elapsed": 399243, "internal_node_id": "0.0-59.0"}}, {"uniqueid": "MTK0163:31QNSG6A5S00G4QZP1XS4P0APGA879", "current_trial": 78, "dateTime": 1509396476067, "trialdata": {"rt": -1, "stimulus": "<p id=\"stim\">10</p>", "key_press": -1, "trial_type": "single-stim", "trial_index": 78, "time_elapsed": 402252, "internal_node_id": "0.0-60.0-0.0"}}, {"uniqueid": "MTK0163:31QNSG6A5S00G4QZP1XS4P0APGA879", "current_trial": 79, "dateTime": 1509396477068, "trialdata": {"rt": -1, "stimulus": "<p id=\"stim\">9</p>", "key_press": -1, "trial_type": "single-stim", "trial_index": 79, "time_elapsed": 403253, "internal_node_id": "0.0-60.0-1.0"}}, {"uniqueid": "MTK0163:31QNSG6A5S00G4QZP1XS4P0APGA879", "current_trial": 80, "dateTime": 1509396478070, "trialdata": {"rt": -1, "stimulus": "<p id=\"stim\">8</p>", "key_press": -1, "trial_type": "single-stim", "trial_index": 80, "time_elapsed": 404255, "internal_node_id": "0.0-60.0-2.0"}}, {"uniqueid": "MTK0163:31QNSG6A5S00G4QZP1XS4P0APGA879", "current_trial": 81, "dateTime": 1509396479072, "trialdata": {"rt": -1, "stimulus": "<p id=\"stim\">7</p>", "key_press": -1, "trial_type": "single-stim", "trial_index": 81, "time_elapsed": 405257, "internal_node_id": "0.0-60.0-3.0"}}, {"uniqueid": "MTK0163:31QNSG6A5S00G4QZP1XS4P0APGA879", "current_trial": 82, "dateTime": 1509396480074, "trialdata": {"rt": -1, "stimulus": "<p id=\"stim\">6</p>", "key_press": -1, "trial_type": "single-stim", "trial_index": 82, "time_elapsed": 406259, "internal_node_id": "0.0-60.0-4.0"}}, {"uniqueid": "MTK0163:31QNSG6A5S00G4QZP1XS4P0APGA879", "current_trial": 83, "dateTime": 1509396481079, "trialdata": {"rt": -1, "stimulus": "<p id=\"stim\">5</p>", "key_press": -1, "trial_type": "single-stim", "trial_index": 83, "time_elapsed": 407264, "internal_node_id": "0.0-60.0-5.0"}}, {"uniqueid": "MTK0163:31QNSG6A5S00G4QZP1XS4P0APGA879", "current_trial": 84, "dateTime": 1509396482081, "trialdata": {"rt": -1, "stimulus": "<p id=\"stim\">4</p>", "key_press": -1, "trial_type": "single-stim", "trial_index": 84, "time_elapsed": 408265, "internal_node_id": "0.0-60.0-6.0"}}, {"uniqueid": "MTK0163:31QNSG6A5S00G4QZP1XS4P0APGA879", "current_trial": 85, "dateTime": 1509396483082, "trialdata": {"rt": -1, "stimulus": "<p id=\"stim\">3</p>", "key_press": -1, "trial_type": "single-stim", "trial_index": 85, "time_elapsed": 409266, "internal_node_id": "0.0-60.0-7.0"}}, {"uniqueid": "MTK0163:31QNSG6A5S00G4QZP1XS4P0APGA879", "current_trial": 86, "dateTime": 1509396484083, "trialdata": {"rt": -1, "stimulus": "<p id=\"stim\">2</p>", "key_press": -1, "trial_type": "single-stim", "trial_index": 86, "time_elapsed": 410268, "internal_node_id": "0.0-60.0-8.0"}}, {"uniqueid": "MTK0163:31QNSG6A5S00G4QZP1XS4P0APGA879", "current_trial": 87, "dateTime": 1509396485084, "trialdata": {"rt": -1, "stimulus": "<p id=\"stim\">1</p>", "key_press": -1, "trial_type": "single-stim", "trial_index": 87, "time_elapsed": 411269, "internal_node_id": "0.0-60.0-9.0"}}, {"uniqueid": "MTK0163:31QNSG6A5S00G4QZP1XS4P0APGA879", "current_trial": 88, "dateTime": 1509396486586, "trialdata": {"rt": -1, "stimulus": "<p id=\"stim\">+</p>", "key_press": -1, "type": "FIXATION", "trial_type": "single-stim", "trial_index": 88, "time_elapsed": 412771, "internal_node_id": "0.0-61.0-0.0"}}, {"uniqueid": "MTK0163:31QNSG6A5S00G4QZP1XS4P0APGA879", "current_trial": 89, "dateTime": 1509396487387, "trialdata": {"rt": -1, "stimulus": "<p id=\"stim\">LACE</p>", "key_press": -1, "type": "PRES_VIS", "word": "lace", "wordID": 791, "conditions": [24, 800, "v", 24000], "trial": 2, "serialpos": 0, "trial_type": "single-stim", "trial_index": 89, "time_elapsed": 413572, "internal_node_id": "0.0-62.0"}}, {"uniqueid": "MTK0163:31QNSG6A5S00G4QZP1XS4P0APGA879", "current_trial": 90, "dateTime": 1509396489159, "trialdata": {"rt": -1, "stimulus": "<p id=\"stim\">JUNGLE</p>", "key_press": -1, "type": "PRES_VIS", "word": "jungle", "wordID": 763, "conditions": [24, 800, "v", 24000], "trial": 2, "serialpos": 1, "trial_type": "single-stim", "trial_index": 90, "time_elapsed": 415344, "internal_node_id": "0.0-63.0"}}, {"uniqueid": "MTK0163:31QNSG6A5S00G4QZP1XS4P0APGA879", "current_trial": 91, "dateTime": 1509396491099, "trialdata": {"rt": -1, "stimulus": "<p id=\"stim\">LAVA</p>", "key_press": -1, "type": "PRES_VIS", "word": "lava", "wordID": 803, "conditions": [24, 800, "v", 24000], "trial": 2, "serialpos": 2, "trial_type": "single-stim", "trial_index": 91, "time_elapsed": 417284, "internal_node_id": "0.0-64.0"}}, {"uniqueid": "MTK0163:31QNSG6A5S00G4QZP1XS4P0APGA879", "current_trial": 92, "dateTime": 1509396492933, "trialdata": {"rt": -1, "stimulus": "<p id=\"stim\">LAGOON</p>", "key_press": -1, "type": "PRES_VIS", "word": "lagoon", "wordID": 794, "conditions": [24, 800, "v", 24000], "trial": 2, "serialpos": 3, "trial_type": "single-stim", "trial_index": 92, "time_elapsed": 419118, "internal_node_id": "0.0-65.0"}}, {"uniqueid": "MTK0163:31QNSG6A5S00G4QZP1XS4P0APGA879", "current_trial": 93, "dateTime": 1509396494897, "trialdata": {"rt": -1, "stimulus": "<p id=\"stim\">DRESS</p>", "key_press": -1, "type": "PRES_VIS", "word": "dress", "wordID": 494, "conditions": [24, 800, "v", 24000], "trial": 2, "serialpos": 4, "trial_type": "single-stim", "trial_index": 93, "time_elapsed": 421082, "internal_node_id": "0.0-66.0"}}, {"uniqueid": "MTK0163:31QNSG6A5S00G4QZP1XS4P0APGA879", "current_trial": 94, "dateTime": 1509396496783, "trialdata": {"rt": -1, "stimulus": "<p id=\"stim\">WAGON</p>", "key_press": -1, "type": "PRES_VIS", "word": "wagon", "wordID": 1577, "conditions": [24, 800, "v", 24000], "trial": 2, "serialpos": 5, "trial_type": "single-stim", "trial_index": 94, "time_elapsed": 422968, "internal_node_id": "0.0-67.0"}}, {"uniqueid": "MTK0163:31QNSG6A5S00G4QZP1XS4P0APGA879", "current_trial": 95, "dateTime": 1509396498475, "trialdata": {"rt": -1, "stimulus": "<p id=\"stim\">TRUCK</p>", "key_press": -1, "type": "PRES_VIS", "word": "truck", "wordID": 1511, "conditions": [24, 800, "v", 24000], "trial": 2, "serialpos": 6, "trial_type": "single-stim", "trial_index": 95, "time_elapsed": 424660, "internal_node_id": "0.0-68.0"}}, {"uniqueid": "MTK0163:31QNSG6A5S00G4QZP1XS4P0APGA879", "current_trial": 96, "dateTime": 1509396500135, "trialdata": {"rt": -1, "stimulus": "<p id=\"stim\">LION</p>", "key_press": -1, "type": "PRES_VIS", "word": "lion", "wordID": 826, "conditions": [24, 800, "v", 24000], "trial": 2, "serialpos": 7, "trial_type": "single-stim", "trial_index": 96, "time_elapsed": 426320, "internal_node_id": "0.0-69.0"}}, {"uniqueid": "MTK0163:31QNSG6A5S00G4QZP1XS4P0APGA879", "current_trial": 97, "dateTime": 1509396501978, "trialdata": {"rt": -1, "stimulus": "<p id=\"stim\">DUST</p>", "key_press": -1, "type": "PRES_VIS", "word": "dust", "wordID": 507, "conditions": [24, 800, "v", 24000], "trial": 2, "serialpos": 8, "trial_type": "single-stim", "trial_index": 97, "time_elapsed": 428163, "internal_node_id": "0.0-70.0"}}, {"uniqueid": "MTK0163:31QNSG6A5S00G4QZP1XS4P0APGA879", "current_trial": 98, "dateTime": 1509396503930, "trialdata": {"rt": -1, "stimulus": "<p id=\"stim\">TROMBONE</p>", "key_press": -1, "type": "PRES_VIS", "word": "trombone", "wordID": 1507, "conditions": [24, 800, "v", 24000], "trial": 2, "serialpos": 9, "trial_type": "single-stim", "trial_index": 98, "time_elapsed": 430114, "internal_node_id": "0.0-71.0"}}, {"uniqueid": "MTK0163:31QNSG6A5S00G4QZP1XS4P0APGA879", "current_trial": 99, "dateTime": 1509396505743, "trialdata": {"rt": -1, "stimulus": "<p id=\"stim\">OYSTER</p>", "key_press": -1, "type": "PRES_VIS", "word": "oyster", "wordID": 994, "conditions": [24, 800, "v", 24000], "trial": 2, "serialpos": 10, "trial_type": "single-stim", "trial_index": 99, "time_elapsed": 431928, "internal_node_id": "0.0-72.0"}}, {"uniqueid": "MTK0163:31QNSG6A5S00G4QZP1XS4P0APGA879", "current_trial": 100, "dateTime": 1509396507605, "trialdata": {"rt": -1, "stimulus": "<p id=\"stim\">SALAD</p>", "key_press": -1, "type": "PRES_VIS", "word": "salad", "wordID": 1223, "conditions": [24, 800, "v", 24000], "trial": 2, "serialpos": 11, "trial_type": "single-stim", "trial_index": 100, "time_elapsed": 433789, "internal_node_id": "0.0-73.0"}}, {"uniqueid": "MTK0163:31QNSG6A5S00G4QZP1XS4P0APGA879", "current_trial": 101, "dateTime": 1509396509568, "trialdata": {"rt": -1, "stimulus": "<p id=\"stim\">ACTRESS</p>", "key_press": -1, "type": "PRES_VIS", "word": "actress", "wordID": 5, "conditions": [24, 800, "v", 24000], "trial": 2, "serialpos": 12, "trial_type": "single-stim", "trial_index": 101, "time_elapsed": 435753, "internal_node_id": "0.0-74.0"}}, {"uniqueid": "MTK0163:31QNSG6A5S00G4QZP1XS4P0APGA879", "current_trial": 102, "dateTime": 1509396511429, "trialdata": {"rt": -1, "stimulus": "<p id=\"stim\">DANCER</p>", "key_press": -1, "type": "PRES_VIS", "word": "dancer", "wordID": 436, "conditions": [24, 800, "v", 24000], "trial": 2, "serialpos": 13, "trial_type": "single-stim", "trial_index": 102, "time_elapsed": 437614, "internal_node_id": "0.0-75.0"}}, {"uniqueid": "MTK0163:31QNSG6A5S00G4QZP1XS4P0APGA879", "current_trial": 103, "dateTime": 1509396513060, "trialdata": {"rt": -1, "stimulus": "<p id=\"stim\">WIDOW</p>", "key_press": -1, "type": "PRES_VIS", "word": "widow", "wordID": 1607, "conditions": [24, 800, "v", 24000], "trial": 2, "serialpos": 14, "trial_type": "single-stim", "trial_index": 103, "time_elapsed": 439244, "internal_node_id": "0.0-76.0"}}, {"uniqueid": "MTK0163:31QNSG6A5S00G4QZP1XS4P0APGA879", "current_trial": 104, "dateTime": 1509396514946, "trialdata": {"rt": -1, "stimulus": "<p id=\"stim\">ACTOR</p>", "key_press": -1, "type": "PRES_VIS", "word": "actor", "wordID": 4, "conditions": [24, 800, "v", 24000], "trial": 2, "serialpos": 15, "trial_type": "single-stim", "trial_index": 104, "time_elapsed": 441131, "internal_node_id": "0.0-77.0"}}, {"uniqueid": "MTK0163:31QNSG6A5S00G4QZP1XS4P0APGA879", "current_trial": 105, "dateTime": 1509396516587, "trialdata": {"rt": -1, "stimulus": "<p id=\"stim\">LONDON</p>", "key_press": -1, "type": "PRES_VIS", "word": "london", "wordID": 842, "conditions": [24, 800, "v", 24000], "trial": 2, "serialpos": 16, "trial_type": "single-stim", "trial_index": 105, "time_elapsed": 442772, "internal_node_id": "0.0-78.0"}}, {"uniqueid": "MTK0163:31QNSG6A5S00G4QZP1XS4P0APGA879", "current_trial": 106, "dateTime": 1509396518313, "trialdata": {"rt": -1, "stimulus": "<p id=\"stim\">SCOTCH</p>", "key_press": -1, "type": "PRES_VIS", "word": "scotch", "wordID": 1250, "conditions": [24, 800, "v", 24000], "trial": 2, "serialpos": 17, "trial_type": "single-stim", "trial_index": 106, "time_elapsed": 444498, "internal_node_id": "0.0-79.0"}}, {"uniqueid": "MTK0163:31QNSG6A5S00G4QZP1XS4P0APGA879", "current_trial": 107, "dateTime": 1509396520223, "trialdata": {"rt": -1, "stimulus": "<p id=\"stim\">CIGAR</p>", "key_press": -1, "type": "PRES_VIS", "word": "cigar", "wordID": 307, "conditions": [24, 800, "v", 24000], "trial": 2, "serialpos": 18, "trial_type": "single-stim", "trial_index": 107, "time_elapsed": 446408, "internal_node_id": "0.0-80.0"}}, {"uniqueid": "MTK0163:31QNSG6A5S00G4QZP1XS4P0APGA879", "current_trial": 108, "dateTime": 1509396521838, "trialdata": {"rt": -1, "stimulus": "<p id=\"stim\">TUNNEL</p>", "key_press": -1, "type": "PRES_VIS", "word": "tunnel", "wordID": 1518, "conditions": [24, 800, "v", 24000], "trial": 2, "serialpos": 19, "trial_type": "single-stim", "trial_index": 108, "time_elapsed": 448023, "internal_node_id": "0.0-81.0"}}, {"uniqueid": "MTK0163:31QNSG6A5S00G4QZP1XS4P0APGA879", "current_trial": 109, "dateTime": 1509396523461, "trialdata": {"rt": -1, "stimulus": "<p id=\"stim\">FIREPLACE</p>", "key_press": -1, "type": "PRES_VIS", "word": "fireplace", "wordID": 569, "conditions": [24, 800, "v", 24000], "trial": 2, "serialpos": 20, "trial_type": "single-stim", "trial_index": 109, "time_elapsed": 449646, "internal_node_id": "0.0-82.0"}}, {"uniqueid": "MTK0163:31QNSG6A5S00G4QZP1XS4P0APGA879", "current_trial": 110, "dateTime": 1509396525165, "trialdata": {"rt": -1, "stimulus": "<p id=\"stim\">KITCHEN</p>", "key_press": -1, "type": "PRES_VIS", "word": "kitchen", "wordID": 777, "conditions": [24, 800, "v", 24000], "trial": 2, "serialpos": 21, "trial_type": "single-stim", "trial_index": 110, "time_elapsed": 451350, "internal_node_id": "0.0-83.0"}}, {"uniqueid": "MTK0163:31QNSG6A5S00G4QZP1XS4P0APGA879", "current_trial": 111, "dateTime": 1509396526976, "trialdata": {"rt": -1, "stimulus": "<p id=\"stim\">JAPAN</p>", "key_press": -1, "type": "PRES_VIS", "word": "japan", "wordID": 748, "conditions": [24, 800, "v", 24000], "trial": 2, "serialpos": 22, "trial_type": "single-stim", "trial_index": 111, "time_elapsed": 453161, "internal_node_id": "0.0-84.0"}}, {"uniqueid": "MTK0163:31QNSG6A5S00G4QZP1XS4P0APGA879", "current_trial": 112, "dateTime": 1509396528868, "trialdata": {"rt": -1, "stimulus": "<p id=\"stim\">SHELTER</p>", "key_press": -1, "type": "PRES_VIS", "word": "shelter", "wordID": 1281, "conditions": [24, 800, "v", 24000], "trial": 2, "serialpos": 23, "trial_type": "single-stim", "trial_index": 112, "time_elapsed": 455053, "internal_node_id": "0.0-85.0"}}, {"uniqueid": "MTK0163:31QNSG6A5S00G4QZP1XS4P0APGA879", "current_trial": 113, "dateTime": 1509396531233, "trialdata": {"rt": -1, "stimulus": "", "key_press": -1, "type": "PRE_RECALL_DELAY", "trial_type": "single-stim", "trial_index": 113, "time_elapsed": 457417, "internal_node_id": "0.0-86.0-0.0"}}, {"uniqueid": "MTK0163:31QNSG6A5S00G4QZP1XS4P0APGA879", "current_trial": 114, "dateTime": 1509396531736, "trialdata": {"rt": -1000, "stimulus": "/static/audio/400Hz.wav", "key_press": -1, "type": "PRE_RECALL_ALERT", "trial_type": "single-audio", "trial_index": 114, "time_elapsed": 457921, "internal_node_id": "0.0-87.0"}}, {"uniqueid": "MTK0163:31QNSG6A5S00G4QZP1XS4P0APGA879", "current_trial": 115, "dateTime": 1509396591759, "trialdata": {"rt": [5324, 7286, 24310, 26533, 33677], "recwords": ["shelter", "japan", "cigar", "tunnel", "scotch"], "type": "FREE_RECALL", "conditions": [24, 800, "v", 24000], "trial": 2, "trial_type": "free-recall", "trial_index": 115, "time_elapsed": 517926, "internal_node_id": "0.0-88.0-0.0"}}, {"uniqueid": "MTK0163:31QNSG6A5S00G4QZP1XS4P0APGA879", "current_trial": 116, "dateTime": 1509396594611, "trialdata": {"rt": 851, "key_press": 32, "type": "INSTRUCTIONS", "trial_type": "text", "trial_index": 116, "time_elapsed": 520796, "internal_node_id": "0.0-89.0"}}, {"uniqueid": "MTK0163:31QNSG6A5S00G4QZP1XS4P0APGA879", "current_trial": 117, "dateTime": 1509396608615, "trialdata": {"rt": [4391, 7652, 9577], "responses": ["16", "13", "12"], "num1": [6, 8, 5, 7], "num2": [7, 4, 2, 1], "num3": [3, 1, 5, 8], "type": "DISTRACTOR", "conditions": [24, 800, "v", 12000], "trial": 3, "trial_type": "math-distractor", "trial_index": 117, "time_elapsed": 534800, "internal_node_id": "0.0-90.0"}}, {"uniqueid": "MTK0163:31QNSG6A5S00G4QZP1XS4P0APGA879", "current_trial": 118, "dateTime": 1509396611617, "trialdata": {"rt": -1, "stimulus": "<p id=\"stim\">10</p>", "key_press": -1, "trial_type": "single-stim", "trial_index": 118, "time_elapsed": 537802, "internal_node_id": "0.0-91.0-0.0"}}, {"uniqueid": "MTK0163:31QNSG6A5S00G4QZP1XS4P0APGA879", "current_trial": 119, "dateTime": 1509396612618, "trialdata": {"rt": -1, "stimulus": "<p id=\"stim\">9</p>", "key_press": -1, "trial_type": "single-stim", "trial_index": 119, "time_elapsed": 538803, "internal_node_id": "0.0-91.0-1.0"}}, {"uniqueid": "MTK0163:31QNSG6A5S00G4QZP1XS4P0APGA879", "current_trial": 120, "dateTime": 1509396613619, "trialdata": {"rt": -1, "stimulus": "<p id=\"stim\">8</p>", "key_press": -1, "trial_type": "single-stim", "trial_index": 120, "time_elapsed": 539804, "internal_node_id": "0.0-91.0-2.0"}}, {"uniqueid": "MTK0163:31QNSG6A5S00G4QZP1XS4P0APGA879", "current_trial": 121, "dateTime": 1509396614621, "trialdata": {"rt": -1, "stimulus": "<p id=\"stim\">7</p>", "key_press": -1, "trial_type": "single-stim", "trial_index": 121, "time_elapsed": 540806, "internal_node_id": "0.0-91.0-3.0"}}, {"uniqueid": "MTK0163:31QNSG6A5S00G4QZP1XS4P0APGA879", "current_trial": 122, "dateTime": 1509396615622, "trialdata": {"rt": -1, "stimulus": "<p id=\"stim\">6</p>", "key_press": -1, "trial_type": "single-stim", "trial_index": 122, "time_elapsed": 541807, "internal_node_id": "0.0-91.0-4.0"}}, {"uniqueid": "MTK0163:31QNSG6A5S00G4QZP1XS4P0APGA879", "current_trial": 123, "dateTime": 1509396616625, "trialdata": {"rt": -1, "stimulus": "<p id=\"stim\">5</p>", "key_press": -1, "trial_type": "single-stim", "trial_index": 123, "time_elapsed": 542810, "internal_node_id": "0.0-91.0-5.0"}}, {"uniqueid": "MTK0163:31QNSG6A5S00G4QZP1XS4P0APGA879", "current_trial": 124, "dateTime": 1509396617627, "trialdata": {"rt": -1, "stimulus": "<p id=\"stim\">4</p>", "key_press": -1, "trial_type": "single-stim", "trial_index": 124, "time_elapsed": 543811, "internal_node_id": "0.0-91.0-6.0"}}, {"uniqueid": "MTK0163:31QNSG6A5S00G4QZP1XS4P0APGA879", "current_trial": 125, "dateTime": 1509396618628, "trialdata": {"rt": -1, "stimulus": "<p id=\"stim\">3</p>", "key_press": -1, "trial_type": "single-stim", "trial_index": 125, "time_elapsed": 544813, "internal_node_id": "0.0-91.0-7.0"}}, {"uniqueid": "MTK0163:31QNSG6A5S00G4QZP1XS4P0APGA879", "current_trial": 126, "dateTime": 1509396619629, "trialdata": {"rt": -1, "stimulus": "<p id=\"stim\">2</p>", "key_press": -1, "trial_type": "single-stim", "trial_index": 126, "time_elapsed": 545814, "internal_node_id": "0.0-91.0-8.0"}}, {"uniqueid": "MTK0163:31QNSG6A5S00G4QZP1XS4P0APGA879", "current_trial": 127, "dateTime": 1509396620630, "trialdata": {"rt": -1, "stimulus": "<p id=\"stim\">1</p>", "key_press": -1, "trial_type": "single-stim", "trial_index": 127, "time_elapsed": 546814, "internal_node_id": "0.0-91.0-9.0"}}, {"uniqueid": "MTK0163:31QNSG6A5S00G4QZP1XS4P0APGA879", "current_trial": 128, "dateTime": 1509396622132, "trialdata": {"rt": -1, "stimulus": "<p id=\"stim\">+</p>", "key_press": -1, "type": "FIXATION", "trial_type": "single-stim", "trial_index": 128, "time_elapsed": 548317, "internal_node_id": "0.0-92.0-0.0"}}, {"uniqueid": "MTK0163:31QNSG6A5S00G4QZP1XS4P0APGA879", "current_trial": 129, "dateTime": 1509396622934, "trialdata": {"rt": -1, "stimulus": "<p id=\"stim\">BOYFRIEND</p>", "key_press": -1, "type": "PRES_VIS", "word": "boyfriend", "wordID": 161, "conditions": [24, 800, "v", 12000], "trial": 3, "serialpos": 0, "trial_type": "single-stim", "trial_index": 129, "time_elapsed": 549118, "internal_node_id": "0.0-93.0"}}, {"uniqueid": "MTK0163:31QNSG6A5S00G4QZP1XS4P0APGA879", "current_trial": 130, "dateTime": 1509396624589, "trialdata": {"rt": -1, "stimulus": "<p id=\"stim\">PERFUME</p>", "key_press": -1, "type": "PRES_VIS", "word": "perfume", "wordID": 1048, "conditions": [24, 800, "v", 12000], "trial": 3, "serialpos": 1, "trial_type": "single-stim", "trial_index": 130, "time_elapsed": 550774, "internal_node_id": "0.0-94.0"}}, {"uniqueid": "MTK0163:31QNSG6A5S00G4QZP1XS4P0APGA879", "current_trial": 131, "dateTime": 1509396626476, "trialdata": {"rt": -1, "stimulus": "<p id=\"stim\">DINER</p>", "key_press": -1, "type": "PRES_VIS", "word": "diner", "wordID": 466, "conditions": [24, 800, "v", 12000], "trial": 3, "serialpos": 2, "trial_type": "single-stim", "trial_index": 131, "time_elapsed": 552661, "internal_node_id": "0.0-95.0"}}, {"uniqueid": "MTK0163:31QNSG6A5S00G4QZP1XS4P0APGA879", "current_trial": 132, "dateTime": 1509396628321, "trialdata": {"rt": -1, "stimulus": "<p id=\"stim\">WRIST</p>", "key_press": -1, "type": "PRES_VIS", "word": "wrist", "wordID": 1625, "conditions": [24, 800, "v", 12000], "trial": 3, "serialpos": 3, "trial_type": "single-stim", "trial_index": 132, "time_elapsed": 554505, "internal_node_id": "0.0-96.0"}}, {"uniqueid": "MTK0163:31QNSG6A5S00G4QZP1XS4P0APGA879", "current_trial": 133, "dateTime": 1509396630096, "trialdata": {"rt": -1, "stimulus": "<p id=\"stim\">DENTIST</p>", "key_press": -1, "type": "PRES_VIS", "word": "dentist", "wordID": 446, "conditions": [24, 800, "v", 12000], "trial": 3, "serialpos": 4, "trial_type": "single-stim", "trial_index": 133, "time_elapsed": 556281, "internal_node_id": "0.0-97.0"}}, {"uniqueid": "MTK0163:31QNSG6A5S00G4QZP1XS4P0APGA879", "current_trial": 134, "dateTime": 1509396631999, "trialdata": {"rt": -1, "stimulus": "<p id=\"stim\">WAITER</p>", "key_press": -1, "type": "PRES_VIS", "word": "waiter", "wordID": 1579, "conditions": [24, 800, "v", 12000], "trial": 3, "serialpos": 5, "trial_type": "single-stim", "trial_index": 134, "time_elapsed": 558184, "internal_node_id": "0.0-98.0"}}, {"uniqueid": "MTK0163:31QNSG6A5S00G4QZP1XS4P0APGA879", "current_trial": 135, "dateTime": 1509396633809, "trialdata": {"rt": -1, "stimulus": "<p id=\"stim\">RABBIT</p>", "key_press": -1, "type": "PRES_VIS", "word": "rabbit", "wordID": 1151, "conditions": [24, 800, "v", 12000], "trial": 3, "serialpos": 6, "trial_type": "single-stim", "trial_index": 135, "time_elapsed": 559994, "internal_node_id": "0.0-99.0"}}, {"uniqueid": "MTK0163:31QNSG6A5S00G4QZP1XS4P0APGA879", "current_trial": 136, "dateTime": 1509396635790, "trialdata": {"rt": -1, "stimulus": "<p id=\"stim\">HOOK</p>", "key_press": -1, "type": "PRES_VIS", "word": "hook", "wordID": 714, "conditions": [24, 800, "v", 12000], "trial": 3, "serialpos": 7, "trial_type": "single-stim", "trial_index": 136, "time_elapsed": 561975, "internal_node_id": "0.0-100.0"}}, {"uniqueid": "MTK0163:31QNSG6A5S00G4QZP1XS4P0APGA879", "current_trial": 137, "dateTime": 1509396637504, "trialdata": {"rt": -1, "stimulus": "<p id=\"stim\">FLUTE</p>", "key_press": -1, "type": "PRES_VIS", "word": "flute", "wordID": 584, "conditions": [24, 800, "v", 12000], "trial": 3, "serialpos": 8, "trial_type": "single-stim", "trial_index": 137, "time_elapsed": 563689, "internal_node_id": "0.0-101.0"}}, {"uniqueid": "MTK0163:31QNSG6A5S00G4QZP1XS4P0APGA879", "current_trial": 138, "dateTime": 1509396639489, "trialdata": {"rt": -1, "stimulus": "<p id=\"stim\">GUITAR</p>", "key_press": -1, "type": "PRES_VIS", "word": "guitar", "wordID": 669, "conditions": [24, 800, "v", 12000], "trial": 3, "serialpos": 9, "trial_type": "single-stim", "trial_index": 138, "time_elapsed": 565674, "internal_node_id": "0.0-102.0"}}, {"uniqueid": "MTK0163:31QNSG6A5S00G4QZP1XS4P0APGA879", "current_trial": 139, "dateTime": 1509396641489, "trialdata": {"rt": -1, "stimulus": "<p id=\"stim\">COMET</p>", "key_press": -1, "type": "PRES_VIS", "word": "comet", "wordID": 352, "conditions": [24, 800, "v", 12000], "trial": 3, "serialpos": 10, "trial_type": "single-stim", "trial_index": 139, "time_elapsed": 567674, "internal_node_id": "0.0-103.0"}}, {"uniqueid": "MTK0163:31QNSG6A5S00G4QZP1XS4P0APGA879", "current_trial": 140, "dateTime": 1509396643262, "trialdata": {"rt": -1, "stimulus": "<p id=\"stim\">BANQUET</p>", "key_press": -1, "type": "PRES_VIS", "word": "banquet", "wordID": 85, "conditions": [24, 800, "v", 12000], "trial": 3, "serialpos": 11, "trial_type": "single-stim", "trial_index": 140, "time_elapsed": 569446, "internal_node_id": "0.0-104.0"}}, {"uniqueid": "MTK0163:31QNSG6A5S00G4QZP1XS4P0APGA879", "current_trial": 141, "dateTime": 1509396645258, "trialdata": {"rt": -1, "stimulus": "<p id=\"stim\">ROD</p>", "key_press": -1, "type": "PRES_VIS", "word": "rod", "wordID": 1202, "conditions": [24, 800, "v", 12000], "trial": 3, "serialpos": 12, "trial_type": "single-stim", "trial_index": 141, "time_elapsed": 571443, "internal_node_id": "0.0-105.0"}}, {"uniqueid": "MTK0163:31QNSG6A5S00G4QZP1XS4P0APGA879", "current_trial": 142, "dateTime": 1509396646864, "trialdata": {"rt": -1, "stimulus": "<p id=\"stim\">SEAFOOD</p>", "key_press": -1, "type": "PRES_VIS", "word": "seafood", "wordID": 1259, "conditions": [24, 800, "v", 12000], "trial": 3, "serialpos": 13, "trial_type": "single-stim", "trial_index": 142, "time_elapsed": 573048, "internal_node_id": "0.0-106.0"}}, {"uniqueid": "MTK0163:31QNSG6A5S00G4QZP1XS4P0APGA879", "current_trial": 143, "dateTime": 1509396648838, "trialdata": {"rt": -1, "stimulus": "<p id=\"stim\">WRENCH</p>", "key_press": -1, "type": "PRES_VIS", "word": "wrench", "wordID": 1624, "conditions": [24, 800, "v", 12000], "trial": 3, "serialpos": 14, "trial_type": "single-stim", "trial_index": 143, "time_elapsed": 575023, "internal_node_id": "0.0-107.0"}}, {"uniqueid": "MTK0163:31QNSG6A5S00G4QZP1XS4P0APGA879", "current_trial": 144, "dateTime": 1509396650698, "trialdata": {"rt": -1, "stimulus": "<p id=\"stim\">NEUTRON</p>", "key_press": -1, "type": "PRES_VIS", "word": "neutron", "wordID": 946, "conditions": [24, 800, "v", 12000], "trial": 3, "serialpos": 15, "trial_type": "single-stim", "trial_index": 144, "time_elapsed": 576883, "internal_node_id": "0.0-108.0"}}, {"uniqueid": "MTK0163:31QNSG6A5S00G4QZP1XS4P0APGA879", "current_trial": 145, "dateTime": 1509396652655, "trialdata": {"rt": -1, "stimulus": "<p id=\"stim\">COD</p>", "key_press": -1, "type": "PRES_VIS", "word": "cod", "wordID": 339, "conditions": [24, 800, "v", 12000], "trial": 3, "serialpos": 16, "trial_type": "single-stim", "trial_index": 145, "time_elapsed": 578840, "internal_node_id": "0.0-109.0"}}, {"uniqueid": "MTK0163:31QNSG6A5S00G4QZP1XS4P0APGA879", "current_trial": 146, "dateTime": 1509396654491, "trialdata": {"rt": -1, "stimulus": "<p id=\"stim\">CANDY</p>", "key_press": -1, "type": "PRES_VIS", "word": "candy", "wordID": 229, "conditions": [24, 800, "v", 12000], "trial": 3, "serialpos": 17, "trial_type": "single-stim", "trial_index": 146, "time_elapsed": 580675, "internal_node_id": "0.0-110.0"}}, {"uniqueid": "MTK0163:31QNSG6A5S00G4QZP1XS4P0APGA879", "current_trial": 147, "dateTime": 1509396656215, "trialdata": {"rt": -1, "stimulus": "<p id=\"stim\">PASTA</p>", "key_press": -1, "type": "PRES_VIS", "word": "pasta", "wordID": 1020, "conditions": [24, 800, "v", 12000], "trial": 3, "serialpos": 18, "trial_type": "single-stim", "trial_index": 147, "time_elapsed": 582400, "internal_node_id": "0.0-111.0"}}, {"uniqueid": "MTK0163:31QNSG6A5S00G4QZP1XS4P0APGA879", "current_trial": 148, "dateTime": 1509396657915, "trialdata": {"rt": -1, "stimulus": "<p id=\"stim\">RADISH</p>", "key_press": -1, "type": "PRES_VIS", "word": "radish", "wordID": 1157, "conditions": [24, 800, "v", 12000], "trial": 3, "serialpos": 19, "trial_type": "single-stim", "trial_index": 148, "time_elapsed": 584099, "internal_node_id": "0.0-112.0"}}, {"uniqueid": "MTK0163:31QNSG6A5S00G4QZP1XS4P0APGA879", "current_trial": 149, "dateTime": 1509396659849, "trialdata": {"rt": -1, "stimulus": "<p id=\"stim\">CABBAGE</p>", "key_press": -1, "type": "PRES_VIS", "word": "cabbage", "wordID": 209, "conditions": [24, 800, "v", 12000], "trial": 3, "serialpos": 20, "trial_type": "single-stim", "trial_index": 149, "time_elapsed": 586034, "internal_node_id": "0.0-113.0"}}, {"uniqueid": "MTK0163:31QNSG6A5S00G4QZP1XS4P0APGA879", "current_trial": 150, "dateTime": 1509396661830, "trialdata": {"rt": -1, "stimulus": "<p id=\"stim\">BLUEPRINT</p>", "key_press": -1, "type": "PRES_VIS", "word": "blueprint", "wordID": 141, "conditions": [24, 800, "v", 12000], "trial": 3, "serialpos": 21, "trial_type": "single-stim", "trial_index": 150, "time_elapsed": 588015, "internal_node_id": "0.0-114.0"}}, {"uniqueid": "MTK0163:31QNSG6A5S00G4QZP1XS4P0APGA879", "current_trial": 151, "dateTime": 1509396663666, "trialdata": {"rt": -1, "stimulus": "<p id=\"stim\">DUSTPAN</p>", "key_press": -1, "type": "PRES_VIS", "word": "dustpan", "wordID": 508, "conditions": [24, 800, "v", 12000], "trial": 3, "serialpos": 22, "trial_type": "single-stim", "trial_index": 151, "time_elapsed": 589850, "internal_node_id": "0.0-115.0"}}, {"uniqueid": "MTK0163:31QNSG6A5S00G4QZP1XS4P0APGA879", "current_trial": 152, "dateTime": 1509396665603, "trialdata": {"rt": -1, "stimulus": "<p id=\"stim\">STICKER</p>", "key_press": -1, "type": "PRES_VIS", "word": "sticker", "wordID": 1381, "conditions": [24, 800, "v", 12000], "trial": 3, "serialpos": 23, "trial_type": "single-stim", "trial_index": 152, "time_elapsed": 591788, "internal_node_id": "0.0-116.0"}}, {"uniqueid": "MTK0163:31QNSG6A5S00G4QZP1XS4P0APGA879", "current_trial": 153, "dateTime": 1509396668038, "trialdata": {"rt": -1, "stimulus": "", "key_press": -1, "type": "PRE_RECALL_DELAY", "trial_type": "single-stim", "trial_index": 153, "time_elapsed": 594223, "internal_node_id": "0.0-117.0-0.0"}}, {"uniqueid": "MTK0163:31QNSG6A5S00G4QZP1XS4P0APGA879", "current_trial": 154, "dateTime": 1509396668545, "trialdata": {"rt": -1000, "stimulus": "/static/audio/400Hz.wav", "key_press": -1, "type": "PRE_RECALL_ALERT", "trial_type": "single-audio", "trial_index": 154, "time_elapsed": 594730, "internal_node_id": "0.0-118.0"}}, {"uniqueid": "MTK0163:31QNSG6A5S00G4QZP1XS4P0APGA879", "current_trial": 155, "dateTime": 1509396728565, "trialdata": {"rt": [7222, 10406, 12973, 14504, 19891, 21964, 24244, 27714, 31761, 36518], "recwords": ["raddish", "blueprint", "dentist", "waiter", "hook", "rabbit", "comet", "rod", "seafood", "cod"], "type": "FREE_RECALL", "conditions": [24, 800, "v", 12000], "trial": 3, "trial_type": "free-recall", "trial_index": 155, "time_elapsed": 654734, "internal_node_id": "0.0-119.0-0.0"}}, {"uniqueid": "MTK0163:31QNSG6A5S00G4QZP1XS4P0APGA879", "current_trial": 156, "dateTime": 1509396731766, "trialdata": {"rt": 1198, "key_press": 32, "type": "INSTRUCTIONS", "trial_type": "text", "trial_index": 156, "time_elapsed": 657951, "internal_node_id": "0.0-120.0"}}, {"uniqueid": "MTK0163:31QNSG6A5S00G4QZP1XS4P0APGA879", "current_trial": 157, "dateTime": 1509396745785, "trialdata": {"rt": [2533, 5032, 7064, 10413], "responses": ["22", "18", "13", "16"], "num1": [9, 8, 2, 6, 7], "num2": [4, 4, 6, 8, 1], "num3": [9, 5, 5, 2, 6], "type": "DISTRACTOR", "conditions": [12, 800, "a", 12000], "trial": 4, "trial_type": "math-distractor", "trial_index": 157, "time_elapsed": 671970, "internal_node_id": "0.0-121.0"}}, {"uniqueid": "MTK0163:31QNSG6A5S00G4QZP1XS4P0APGA879", "current_trial": 158, "dateTime": 1509396748786, "trialdata": {"rt": -1, "stimulus": "<p id=\"stim\">10</p>", "key_press": -1, "trial_type": "single-stim", "trial_index": 158, "time_elapsed": 674971, "internal_node_id": "0.0-122.0-0.0"}}, {"uniqueid": "MTK0163:31QNSG6A5S00G4QZP1XS4P0APGA879", "current_trial": 159, "dateTime": 1509396749787, "trialdata": {"rt": -1, "stimulus": "<p id=\"stim\">9</p>", "key_press": -1, "trial_type": "single-stim", "trial_index": 159, "time_elapsed": 675972, "internal_node_id": "0.0-122.0-1.0"}}, {"uniqueid": "MTK0163:31QNSG6A5S00G4QZP1XS4P0APGA879", "current_trial": 160, "dateTime": 1509396750788, "trialdata": {"rt": -1, "stimulus": "<p id=\"stim\">8</p>", "key_press": -1, "trial_type": "single-stim", "trial_index": 160, "time_elapsed": 676973, "internal_node_id": "0.0-122.0-2.0"}}, {"uniqueid": "MTK0163:31QNSG6A5S00G4QZP1XS4P0APGA879", "current_trial": 161, "dateTime": 1509396751790, "trialdata": {"rt": -1, "stimulus": "<p id=\"stim\">7</p>", "key_press": -1, "trial_type": "single-stim", "trial_index": 161, "time_elapsed": 677975, "internal_node_id": "0.0-122.0-3.0"}}, {"uniqueid": "MTK0163:31QNSG6A5S00G4QZP1XS4P0APGA879", "current_trial": 162, "dateTime": 1509396752799, "trialdata": {"rt": -1, "stimulus": "<p id=\"stim\">6</p>", "key_press": -1, "trial_type": "single-stim", "trial_index": 162, "time_elapsed": 678984, "internal_node_id": "0.0-122.0-4.0"}}, {"uniqueid": "MTK0163:31QNSG6A5S00G4QZP1XS4P0APGA879", "current_trial": 163, "dateTime": 1509396753801, "trialdata": {"rt": -1, "stimulus": "<p id=\"stim\">5</p>", "key_press": -1, "trial_type": "single-stim", "trial_index": 163, "time_elapsed": 679985, "internal_node_id": "0.0-122.0-5.0"}}, {"uniqueid": "MTK0163:31QNSG6A5S00G4QZP1XS4P0APGA879", "current_trial": 164, "dateTime": 1509396754803, "trialdata": {"rt": -1, "stimulus": "<p id=\"stim\">4</p>", "key_press": -1, "trial_type": "single-stim", "trial_index": 164, "time_elapsed": 680988, "internal_node_id": "0.0-122.0-6.0"}}, {"uniqueid": "MTK0163:31QNSG6A5S00G4QZP1XS4P0APGA879", "current_trial": 165, "dateTime": 1509396755804, "trialdata": {"rt": -1, "stimulus": "<p id=\"stim\">3</p>", "key_press": -1, "trial_type": "single-stim", "trial_index": 165, "time_elapsed": 681989, "internal_node_id": "0.0-122.0-7.0"}}, {"uniqueid": "MTK0163:31QNSG6A5S00G4QZP1XS4P0APGA879", "current_trial": 166, "dateTime": 1509396756806, "trialdata": {"rt": -1, "stimulus": "<p id=\"stim\">2</p>", "key_press": -1, "trial_type": "single-stim", "trial_index": 166, "time_elapsed": 682991, "internal_node_id": "0.0-122.0-8.0"}}, {"uniqueid": "MTK0163:31QNSG6A5S00G4QZP1XS4P0APGA879", "current_trial": 167, "dateTime": 1509396757808, "trialdata": {"rt": -1, "stimulus": "<p id=\"stim\">1</p>", "key_press": -1, "trial_type": "single-stim", "trial_index": 167, "time_elapsed": 683993, "internal_node_id": "0.0-122.0-9.0"}}, {"uniqueid": "MTK0163:31QNSG6A5S00G4QZP1XS4P0APGA879", "current_trial": 168, "dateTime": 1509396759309, "trialdata": {"rt": -1, "stimulus": "<p id=\"stim\">+</p>", "key_press": -1, "type": "FIXATION", "trial_type": "single-stim", "trial_index": 168, "time_elapsed": 685493, "internal_node_id": "0.0-123.0-0.0"}}, {"uniqueid": "MTK0163:31QNSG6A5S00G4QZP1XS4P0APGA879", "current_trial": 169, "dateTime": 1509396761188, "trialdata": {"rt": -1000, "stimulus": "/static/audio/wordpool/COUNTRY.wav", "key_press": -1, "type": "PRES_AUD", "word": "country", "wordID": 387, "conditions": [12, 800, "a", 12000], "trial": 4, "serialpos": 0, "trial_type": "single-audio", "trial_index": 169, "time_elapsed": 687373, "internal_node_id": "0.0-124.0"}}, {"uniqueid": "MTK0163:31QNSG6A5S00G4QZP1XS4P0APGA879", "current_trial": 170, "dateTime": 1509396763074, "trialdata": {"rt": -1000, "stimulus": "/static/audio/wordpool/SPOUSE.wav", "key_press": -1, "type": "PRES_AUD", "word": "spouse", "wordID": 1357, "conditions": [12, 800, "a", 12000], "trial": 4, "serialpos": 1, "trial_type": "single-audio", "trial_index": 170, "time_elapsed": 689259, "internal_node_id": "0.0-125.0"}}, {"uniqueid": "MTK0163:31QNSG6A5S00G4QZP1XS4P0APGA879", "current_trial": 171, "dateTime": 1509396764923, "trialdata": {"rt": -1000, "stimulus": "/static/audio/wordpool/HAWK.wav", "key_press": -1, "type": "PRES_AUD", "word": "hawk", "wordID": 691, "conditions": [12, 800, "a", 12000], "trial": 4, "serialpos": 2, "trial_type": "single-audio", "trial_index": 171, "time_elapsed": 691108, "internal_node_id": "0.0-126.0"}}, {"uniqueid": "MTK0163:31QNSG6A5S00G4QZP1XS4P0APGA879", "current_trial": 172, "dateTime": 1509396766830, "trialdata": {"rt": -1000, "stimulus": "/static/audio/wordpool/DONKEY.wav", "key_press": -1, "type": "PRES_AUD", "word": "donkey", "wordID": 483, "conditions": [12, 800, "a", 12000], "trial": 4, "serialpos": 3, "trial_type": "single-audio", "trial_index": 172, "time_elapsed": 693015, "internal_node_id": "0.0-127.0"}}, {"uniqueid": "MTK0163:31QNSG6A5S00G4QZP1XS4P0APGA879", "current_trial": 173, "dateTime": 1509396768697, "trialdata": {"rt": -1000, "stimulus": "/static/audio/wordpool/CAMEL.wav", "key_press": -1, "type": "PRES_AUD", "word": "camel", "wordID": 222, "conditions": [12, 800, "a", 12000], "trial": 4, "serialpos": 4, "trial_type": "single-audio", "trial_index": 173, "time_elapsed": 694882, "internal_node_id": "0.0-128.0"}}, {"uniqueid": "MTK0163:31QNSG6A5S00G4QZP1XS4P0APGA879", "current_trial": 174, "dateTime": 1509396770478, "trialdata": {"rt": -1000, "stimulus": "/static/audio/wordpool/BARLEY.wav", "key_press": -1, "type": "PRES_AUD", "word": "barley", "wordID": 87, "conditions": [12, 800, "a", 12000], "trial": 4, "serialpos": 5, "trial_type": "single-audio", "trial_index": 174, "time_elapsed": 696663, "internal_node_id": "0.0-129.0"}}, {"uniqueid": "MTK0163:31QNSG6A5S00G4QZP1XS4P0APGA879", "current_trial": 175, "dateTime": 1509396772277, "trialdata": {"rt": -1000, "stimulus": "/static/audio/wordpool/FILM.wav", "key_press": -1, "type": "PRES_AUD", "word": "film", "wordID": 564, "conditions": [12, 800, "a", 12000], "trial": 4, "serialpos": 6, "trial_type": "single-audio", "trial_index": 175, "time_elapsed": 698462, "internal_node_id": "0.0-130.0"}}, {"uniqueid": "MTK0163:31QNSG6A5S00G4QZP1XS4P0APGA879", "current_trial": 176, "dateTime": 1509396774193, "trialdata": {"rt": -1000, "stimulus": "/static/audio/wordpool/WORLD.wav", "key_press": -1, "type": "PRES_AUD", "word": "world", "wordID": 1621, "conditions": [12, 800, "a", 12000], "trial": 4, "serialpos": 7, "trial_type": "single-audio", "trial_index": 176, "time_elapsed": 700377, "internal_node_id": "0.0-131.0"}}, {"uniqueid": "MTK0163:31QNSG6A5S00G4QZP1XS4P0APGA879", "current_trial": 177, "dateTime": 1509396776072, "trialdata": {"rt": -1000, "stimulus": "/static/audio/wordpool/WASP.wav", "key_press": -1, "type": "PRES_AUD", "word": "wasp", "wordID": 1592, "conditions": [12, 800, "a", 12000], "trial": 4, "serialpos": 8, "trial_type": "single-audio", "trial_index": 177, "time_elapsed": 702256, "internal_node_id": "0.0-132.0"}}, {"uniqueid": "MTK0163:31QNSG6A5S00G4QZP1XS4P0APGA879", "current_trial": 178, "dateTime": 1509396777711, "trialdata": {"rt": -1000, "stimulus": "/static/audio/wordpool/DORM.wav", "key_press": -1, "type": "PRES_AUD", "word": "dorm", "wordID": 487, "conditions": [12, 800, "a", 12000], "trial": 4, "serialpos": 9, "trial_type": "single-audio", "trial_index": 178, "time_elapsed": 703896, "internal_node_id": "0.0-133.0"}}, {"uniqueid": "MTK0163:31QNSG6A5S00G4QZP1XS4P0APGA879", "current_trial": 179, "dateTime": 1509396779681, "trialdata": {"rt": -1000, "stimulus": "/static/audio/wordpool/PALACE.wav", "key_press": -1, "type": "PRES_AUD", "word": "palace", "wordID": 1005, "conditions": [12, 800, "a", 12000], "trial": 4, "serialpos": 10, "trial_type": "single-audio", "trial_index": 179, "time_elapsed": 705866, "internal_node_id": "0.0-134.0"}}, {"uniqueid": "MTK0163:31QNSG6A5S00G4QZP1XS4P0APGA879", "current_trial": 180, "dateTime": 1509396781559, "trialdata": {"rt": -1000, "stimulus": "/static/audio/wordpool/CAPTIVE.wav", "key_press": -1, "type": "PRES_AUD", "word": "captive", "wordID": 239, "conditions": [12, 800, "a", 12000], "trial": 4, "serialpos": 11, "trial_type": "single-audio", "trial_index": 180, "time_elapsed": 707744, "internal_node_id": "0.0-135.0"}}, {"uniqueid": "MTK0163:31QNSG6A5S00G4QZP1XS4P0APGA879", "current_trial": 181, "dateTime": 1509396782945, "trialdata": {"rt": -1, "stimulus": "", "key_press": -1, "type": "PRE_RECALL_DELAY", "trial_type": "single-stim", "trial_index": 181, "time_elapsed": 709130, "internal_node_id": "0.0-136.0-0.0"}}, {"uniqueid": "MTK0163:31QNSG6A5S00G4QZP1XS4P0APGA879", "current_trial": 182, "dateTime": 1509396783452, "trialdata": {"rt": -1000, "stimulus": "/static/audio/400Hz.wav", "key_press": -1, "type": "PRE_RECALL_ALERT", "trial_type": "single-audio", "trial_index": 182, "time_elapsed": 709636, "internal_node_id": "0.0-137.0"}}, {"uniqueid": "MTK0163:31QNSG6A5S00G4QZP1XS4P0APGA879", "current_trial": 183, "dateTime": 1509396843461, "trialdata": {"rt": [4075, 6551, 10413], "recwords": ["country", "expose", "palace"], "type": "FREE_RECALL", "conditions": [12, 800, "a", 12000], "trial": 4, "trial_type": "free-recall", "trial_index": 183, "time_elapsed": 769640, "internal_node_id": "0.0-138.0-0.0"}}, {"uniqueid": "MTK0163:31QNSG6A5S00G4QZP1XS4P0APGA879", "current_trial": 184, "dateTime": 1509396847069, "trialdata": {"rt": 1600, "key_press": 32, "type": "INSTRUCTIONS", "trial_type": "text", "trial_index": 184, "time_elapsed": 773254, "internal_node_id": "0.0-139.0"}}, {"uniqueid": "MTK0163:31QNSG6A5S00G4QZP1XS4P0APGA879", "current_trial": 185, "dateTime": 1509396873072, "trialdata": {"rt": [2989, 5842, 7420, 13940, 16519, 18840, 21770], "responses": ["6", "9", "10", "22", "11", "18", "15"], "num1": [2, 1, 4, 9, 4, 8, 5, 2], "num2": [1, 1, 5, 7, 2, 2, 4, 6], "num3": [3, 7, 1, 6, 5, 8, 7, 8], "type": "DISTRACTOR", "conditions": [24, 800, "a", 24000], "trial": 5, "trial_type": "math-distractor", "trial_index": 185, "time_elapsed": 799257, "internal_node_id": "0.0-140.0"}}, {"uniqueid": "MTK0163:31QNSG6A5S00G4QZP1XS4P0APGA879", "current_trial": 186, "dateTime": 1509396876075, "trialdata": {"rt": -1, "stimulus": "<p id=\"stim\">10</p>", "key_press": -1, "trial_type": "single-stim", "trial_index": 186, "time_elapsed": 802260, "internal_node_id": "0.0-141.0-0.0"}}, {"uniqueid": "MTK0163:31QNSG6A5S00G4QZP1XS4P0APGA879", "current_trial": 187, "dateTime": 1509396877076, "trialdata": {"rt": -1, "stimulus": "<p id=\"stim\">9</p>", "key_press": -1, "trial_type": "single-stim", "trial_index": 187, "time_elapsed": 803261, "internal_node_id": "0.0-141.0-1.0"}}, {"uniqueid": "MTK0163:31QNSG6A5S00G4QZP1XS4P0APGA879", "current_trial": 188, "dateTime": 1509396878077, "trialdata": {"rt": -1, "stimulus": "<p id=\"stim\">8</p>", "key_press": -1, "trial_type": "single-stim", "trial_index": 188, "time_elapsed": 804262, "internal_node_id": "0.0-141.0-2.0"}}, {"uniqueid": "MTK0163:31QNSG6A5S00G4QZP1XS4P0APGA879", "current_trial": 189, "dateTime": 1509396879078, "trialdata": {"rt": -1, "stimulus": "<p id=\"stim\">7</p>", "key_press": -1, "trial_type": "single-stim", "trial_index": 189, "time_elapsed": 805263, "internal_node_id": "0.0-141.0-3.0"}}, {"uniqueid": "MTK0163:31QNSG6A5S00G4QZP1XS4P0APGA879", "current_trial": 190, "dateTime": 1509396880079, "trialdata": {"rt": -1, "stimulus": "<p id=\"stim\">6</p>", "key_press": -1, "trial_type": "single-stim", "trial_index": 190, "time_elapsed": 806264, "internal_node_id": "0.0-141.0-4.0"}}, {"uniqueid": "MTK0163:31QNSG6A5S00G4QZP1XS4P0APGA879", "current_trial": 191, "dateTime": 1509396881080, "trialdata": {"rt": -1, "stimulus": "<p id=\"stim\">5</p>", "key_press": -1, "trial_type": "single-stim", "trial_index": 191, "time_elapsed": 807264, "internal_node_id": "0.0-141.0-5.0"}}, {"uniqueid": "MTK0163:31QNSG6A5S00G4QZP1XS4P0APGA879", "current_trial": 192, "dateTime": 1509396882081, "trialdata": {"rt": -1, "stimulus": "<p id=\"stim\">4</p>", "key_press": -1, "trial_type": "single-stim", "trial_index": 192, "time_elapsed": 808266, "internal_node_id": "0.0-141.0-6.0"}}, {"uniqueid": "MTK0163:31QNSG6A5S00G4QZP1XS4P0APGA879", "current_trial": 193, "dateTime": 1509396883082, "trialdata": {"rt": -1, "stimulus": "<p id=\"stim\">3</p>", "key_press": -1, "trial_type": "single-stim", "trial_index": 193, "time_elapsed": 809267, "internal_node_id": "0.0-141.0-7.0"}}, {"uniqueid": "MTK0163:31QNSG6A5S00G4QZP1XS4P0APGA879", "current_trial": 194, "dateTime": 1509396884084, "trialdata": {"rt": -1, "stimulus": "<p id=\"stim\">2</p>", "key_press": -1, "trial_type": "single-stim", "trial_index": 194, "time_elapsed": 810269, "internal_node_id": "0.0-141.0-8.0"}}, {"uniqueid": "MTK0163:31QNSG6A5S00G4QZP1XS4P0APGA879", "current_trial": 195, "dateTime": 1509396885087, "trialdata": {"rt": -1, "stimulus": "<p id=\"stim\">1</p>", "key_press": -1, "trial_type": "single-stim", "trial_index": 195, "time_elapsed": 811272, "internal_node_id": "0.0-141.0-9.0"}}, {"uniqueid": "MTK0163:31QNSG6A5S00G4QZP1XS4P0APGA879", "current_trial": 196, "dateTime": 1509396886588, "trialdata": {"rt": -1, "stimulus": "<p id=\"stim\">+</p>", "key_press": -1, "type": "FIXATION", "trial_type": "single-stim", "trial_index": 196, "time_elapsed": 812773, "internal_node_id": "0.0-142.0-0.0"}}, {"uniqueid": "MTK0163:31QNSG6A5S00G4QZP1XS4P0APGA879", "current_trial": 197, "dateTime": 1509396888282, "trialdata": {"rt": -1000, "stimulus": "/static/audio/wordpool/PLASTER.wav", "key_press": -1, "type": "PRES_AUD", "word": "plaster", "wordID": 1084, "conditions": [24, 800, "a", 24000], "trial": 5, "serialpos": 0, "trial_type": "single-audio", "trial_index": 197, "time_elapsed": 814467, "internal_node_id": "0.0-143.0"}}, {"uniqueid": "MTK0163:31QNSG6A5S00G4QZP1XS4P0APGA879", "current_trial": 198, "dateTime": 1509396889921, "trialdata": {"rt": -1000, "stimulus": "/static/audio/wordpool/BATHTUB.wav", "key_press": -1, "type": "PRES_AUD", "word": "bathtub", "wordID": 99, "conditions": [24, 800, "a", 24000], "trial": 5, "serialpos": 1, "trial_type": "single-audio", "trial_index": 198, "time_elapsed": 816106, "internal_node_id": "0.0-144.0"}}, {"uniqueid": "MTK0163:31QNSG6A5S00G4QZP1XS4P0APGA879", "current_trial": 199, "dateTime": 1509396891904, "trialdata": {"rt": -1000, "stimulus": "/static/audio/wordpool/RUG.wav", "key_press": -1, "type": "PRES_AUD", "word": "rug", "wordID": 1214, "conditions": [24, 800, "a", 24000], "trial": 5, "serialpos": 2, "trial_type": "single-audio", "trial_index": 199, "time_elapsed": 818088, "internal_node_id": "0.0-145.0"}}, {"uniqueid": "MTK0163:31QNSG6A5S00G4QZP1XS4P0APGA879", "current_trial": 200, "dateTime": 1509396893675, "trialdata": {"rt": -1000, "stimulus": "/static/audio/wordpool/SNAKE.wav", "key_press": -1, "type": "PRES_AUD", "word": "snake", "wordID": 1332, "conditions": [24, 800, "a", 24000], "trial": 5, "serialpos": 3, "trial_type": "single-audio", "trial_index": 200, "time_elapsed": 819860, "internal_node_id": "0.0-146.0"}}, {"uniqueid": "MTK0163:31QNSG6A5S00G4QZP1XS4P0APGA879", "current_trial": 201, "dateTime": 1509396895556, "trialdata": {"rt": -1000, "stimulus": "/static/audio/wordpool/COLLEGE.wav", "key_press": -1, "type": "PRES_AUD", "word": "college", "wordID": 345, "conditions": [24, 800, "a", 24000], "trial": 5, "serialpos": 4, "trial_type": "single-audio", "trial_index": 201, "time_elapsed": 821741, "internal_node_id": "0.0-147.0"}}, {"uniqueid": "MTK0163:31QNSG6A5S00G4QZP1XS4P0APGA879", "current_trial": 202, "dateTime": 1509396897264, "trialdata": {"rt": -1000, "stimulus": "/static/audio/wordpool/MISSILE.wav", "key_press": -1, "type": "PRES_AUD", "word": "missile", "wordID": 899, "conditions": [24, 800, "a", 24000], "trial": 5, "serialpos": 5, "trial_type": "single-audio", "trial_index": 202, "time_elapsed": 823448, "internal_node_id": "0.0-148.0"}}, {"uniqueid": "MTK0163:31QNSG6A5S00G4QZP1XS4P0APGA879", "current_trial": 203, "dateTime": 1509396899077, "trialdata": {"rt": -1000, "stimulus": "/static/audio/wordpool/ROCKET.wav", "key_press": -1, "type": "PRES_AUD", "word": "rocket", "wordID": 1201, "conditions": [24, 800, "a", 24000], "trial": 5, "serialpos": 6, "trial_type": "single-audio", "trial_index": 203, "time_elapsed": 825262, "internal_node_id": "0.0-149.0"}}, {"uniqueid": "MTK0163:31QNSG6A5S00G4QZP1XS4P0APGA879", "current_trial": 204, "dateTime": 1509396900862, "trialdata": {"rt": -1000, "stimulus": "/static/audio/wordpool/SPIDER.wav", "key_press": -1, "type": "PRES_AUD", "word": "spider", "wordID": 1350, "conditions": [24, 800, "a", 24000], "trial": 5, "serialpos": 7, "trial_type": "single-audio", "trial_index": 204, "time_elapsed": 827047, "internal_node_id": "0.0-150.0"}}, {"uniqueid": "MTK0163:31QNSG6A5S00G4QZP1XS4P0APGA879", "current_trial": 205, "dateTime": 1509396902495, "trialdata": {"rt": -1000, "stimulus": "/static/audio/wordpool/ATOM.wav", "key_press": -1, "type": "PRES_AUD", "word": "atom", "wordID": 54, "conditions": [24, 800, "a", 24000], "trial": 5, "serialpos": 8, "trial_type": "single-audio", "trial_index": 205, "time_elapsed": 828680, "internal_node_id": "0.0-151.0"}}, {"uniqueid": "MTK0163:31QNSG6A5S00G4QZP1XS4P0APGA879", "current_trial": 206, "dateTime": 1509396904350, "trialdata": {"rt": -1000, "stimulus": "/static/audio/wordpool/RECEIPT.wav", "key_press": -1, "type": "PRES_AUD", "word": "receipt", "wordID": 1172, "conditions": [24, 800, "a", 24000], "trial": 5, "serialpos": 9, "trial_type": "single-audio", "trial_index": 206, "time_elapsed": 830535, "internal_node_id": "0.0-152.0"}}, {"uniqueid": "MTK0163:31QNSG6A5S00G4QZP1XS4P0APGA879", "current_trial": 207, "dateTime": 1509396906156, "trialdata": {"rt": -1000, "stimulus": "/static/audio/wordpool/GHETTO.wav", "key_press": -1, "type": "PRES_AUD", "word": "ghetto", "wordID": 632, "conditions": [24, 800, "a", 24000], "trial": 5, "serialpos": 10, "trial_type": "single-audio", "trial_index": 207, "time_elapsed": 832341, "internal_node_id": "0.0-153.0"}}, {"uniqueid": "MTK0163:31QNSG6A5S00G4QZP1XS4P0APGA879", "current_trial": 208, "dateTime": 1509396908093, "trialdata": {"rt": -1000, "stimulus": "/static/audio/wordpool/COUSIN.wav", "key_press": -1, "type": "PRES_AUD", "word": "cousin", "wordID": 391, "conditions": [24, 800, "a", 24000], "trial": 5, "serialpos": 11, "trial_type": "single-audio", "trial_index": 208, "time_elapsed": 834277, "internal_node_id": "0.0-154.0"}}, {"uniqueid": "MTK0163:31QNSG6A5S00G4QZP1XS4P0APGA879", "current_trial": 209, "dateTime": 1509396910081, "trialdata": {"rt": -1000, "stimulus": "/static/audio/wordpool/FOOTBALL.wav", "key_press": -1, "type": "PRES_AUD", "word": "football", "wordID": 590, "conditions": [24, 800, "a", 24000], "trial": 5, "serialpos": 12, "trial_type": "single-audio", "trial_index": 209, "time_elapsed": 836265, "internal_node_id": "0.0-155.0"}}, {"uniqueid": "MTK0163:31QNSG6A5S00G4QZP1XS4P0APGA879", "current_trial": 210, "dateTime": 1509396912026, "trialdata": {"rt": -1000, "stimulus": "/static/audio/wordpool/ISLAND.wav", "key_press": -1, "type": "PRES_AUD", "word": "island", "wordID": 744, "conditions": [24, 800, "a", 24000], "trial": 5, "serialpos": 13, "trial_type": "single-audio", "trial_index": 210, "time_elapsed": 838211, "internal_node_id": "0.0-156.0"}}, {"uniqueid": "MTK0163:31QNSG6A5S00G4QZP1XS4P0APGA879", "current_trial": 211, "dateTime": 1509396913748, "trialdata": {"rt": -1000, "stimulus": "/static/audio/wordpool/CRAB.wav", "key_press": -1, "type": "PRES_AUD", "word": "crab", "wordID": 396, "conditions": [24, 800, "a", 24000], "trial": 5, "serialpos": 14, "trial_type": "single-audio", "trial_index": 211, "time_elapsed": 839933, "internal_node_id": "0.0-157.0"}}, {"uniqueid": "MTK0163:31QNSG6A5S00G4QZP1XS4P0APGA879", "current_trial": 212, "dateTime": 1509396915668, "trialdata": {"rt": -1000, "stimulus": "/static/audio/wordpool/OX.wav", "key_press": -1, "type": "PRES_AUD", "word": "ox", "wordID": 993, "conditions": [24, 800, "a", 24000], "trial": 5, "serialpos": 15, "trial_type": "single-audio", "trial_index": 212, "time_elapsed": 841853, "internal_node_id": "0.0-158.0"}}, {"uniqueid": "MTK0163:31QNSG6A5S00G4QZP1XS4P0APGA879", "current_trial": 213, "dateTime": 1509396917457, "trialdata": {"rt": -1000, "stimulus": "/static/audio/wordpool/SIBLING.wav", "key_press": -1, "type": "PRES_AUD", "word": "sibling", "wordID": 1300, "conditions": [24, 800, "a", 24000], "trial": 5, "serialpos": 16, "trial_type": "single-audio", "trial_index": 213, "time_elapsed": 843642, "internal_node_id": "0.0-159.0"}}, {"uniqueid": "MTK0163:31QNSG6A5S00G4QZP1XS4P0APGA879", "current_trial": 214, "dateTime": 1509396919329, "trialdata": {"rt": -1000, "stimulus": "/static/audio/wordpool/HAND.wav", "key_press": -1, "type": "PRES_AUD", "word": "hand", "wordID": 682, "conditions": [24, 800, "a", 24000], "trial": 5, "serialpos": 17, "trial_type": "single-audio", "trial_index": 214, "time_elapsed": 845514, "internal_node_id": "0.0-160.0"}}, {"uniqueid": "MTK0163:31QNSG6A5S00G4QZP1XS4P0APGA879", "current_trial": 215, "dateTime": 1509396921272, "trialdata": {"rt": -1000, "stimulus": "/static/audio/wordpool/REPORT.wav", "key_press": -1, "type": "PRES_AUD", "word": "report", "wordID": 1183, "conditions": [24, 800, "a", 24000], "trial": 5, "serialpos": 18, "trial_type": "single-audio", "trial_index": 215, "time_elapsed": 847457, "internal_node_id": "0.0-161.0"}}, {"uniqueid": "MTK0163:31QNSG6A5S00G4QZP1XS4P0APGA879", "current_trial": 216, "dateTime": 1509396922995, "trialdata": {"rt": -1000, "stimulus": "/static/audio/wordpool/SKETCH.wav", "key_press": -1, "type": "PRES_AUD", "word": "sketch", "wordID": 1314, "conditions": [24, 800, "a", 24000], "trial": 5, "serialpos": 19, "trial_type": "single-audio", "trial_index": 216, "time_elapsed": 849179, "internal_node_id": "0.0-162.0"}}, {"uniqueid": "MTK0163:31QNSG6A5S00G4QZP1XS4P0APGA879", "current_trial": 217, "dateTime": 1509396924850, "trialdata": {"rt": -1000, "stimulus": "/static/audio/wordpool/GRAPE.wav", "key_press": -1, "type": "PRES_AUD", "word": "grape", "wordID": 653, "conditions": [24, 800, "a", 24000], "trial": 5, "serialpos": 20, "trial_type": "single-audio", "trial_index": 217, "time_elapsed": 851035, "internal_node_id": "0.0-163.0"}}, {"uniqueid": "MTK0163:31QNSG6A5S00G4QZP1XS4P0APGA879", "current_trial": 218, "dateTime": 1509396926494, "trialdata": {"rt": -1000, "stimulus": "/static/audio/wordpool/APPLE.wav", "key_press": -1, "type": "PRES_AUD", "word": "apple", "wordID": 32, "conditions": [24, 800, "a", 24000], "trial": 5, "serialpos": 21, "trial_type": "single-audio", "trial_index": 218, "time_elapsed": 852676, "internal_node_id": "0.0-164.0"}}, {"uniqueid": "MTK0163:31QNSG6A5S00G4QZP1XS4P0APGA879", "current_trial": 219, "dateTime": 1509396928097, "trialdata": {"rt": -1000, "stimulus": "/static/audio/wordpool/UMPIRE.wav", "key_press": -1, "type": "PRES_AUD", "word": "umpire", "wordID": 1534, "conditions": [24, 800, "a", 24000], "trial": 5, "serialpos": 22, "trial_type": "single-audio", "trial_index": 219, "time_elapsed": 854282, "internal_node_id": "0.0-165.0"}}, {"uniqueid": "MTK0163:31QNSG6A5S00G4QZP1XS4P0APGA879", "current_trial": 220, "dateTime": 1509396929861, "trialdata": {"rt": -1000, "stimulus": "/static/audio/wordpool/SURVEY.wav", "key_press": -1, "type": "PRES_AUD", "word": "survey", "wordID": 1413, "conditions": [24, 800, "a", 24000], "trial": 5, "serialpos": 23, "trial_type": "single-audio", "trial_index": 220, "time_elapsed": 856046, "internal_node_id": "0.0-166.0"}}, {"uniqueid": "MTK0163:31QNSG6A5S00G4QZP1XS4P0APGA879", "current_trial": 221, "dateTime": 1509396931248, "trialdata": {"rt": -1, "stimulus": "", "key_press": -1, "type": "PRE_RECALL_DELAY", "trial_type": "single-stim", "trial_index": 221, "time_elapsed": 857432, "internal_node_id": "0.0-167.0-0.0"}}, {"uniqueid": "MTK0163:31QNSG6A5S00G4QZP1XS4P0APGA879", "current_trial": 222, "dateTime": 1509396931755, "trialdata": {"rt": -1000, "stimulus": "/static/audio/400Hz.wav", "key_press": -1, "type": "PRE_RECALL_ALERT", "trial_type": "single-audio", "trial_index": 222, "time_elapsed": 857940, "internal_node_id": "0.0-168.0"}}, {"uniqueid": "MTK0163:31QNSG6A5S00G4QZP1XS4P0APGA879", "current_trial": 223, "dateTime": 1509396991765, "trialdata": {"rt": [2945, 4876, 7423, 9232, 12827, 15453, 18435, 21973, 23692, 29718], "recwords": ["snake", "college", "cousin", "ghetto", "survey", "umpire", "sibling", "football", "crab", "reciept"], "type": "FREE_RECALL", "conditions": [24, 800, "a", 24000], "trial": 5, "trial_type": "free-recall", "trial_index": 223, "time_elapsed": 917943, "internal_node_id": "0.0-169.0-0.0"}}, {"uniqueid": "MTK0163:31QNSG6A5S00G4QZP1XS4P0APGA879", "current_trial": 224, "dateTime": 1509396995127, "trialdata": {"rt": 1362, "key_press": 32, "type": "INSTRUCTIONS", "trial_type": "text", "trial_index": 224, "time_elapsed": 921312, "internal_node_id": "0.0-170.0"}}, {"uniqueid": "MTK0163:31QNSG6A5S00G4QZP1XS4P0APGA879", "current_trial": 225, "dateTime": 1509397009132, "trialdata": {"rt": [2805, 4721, 6971, 9665], "responses": ["15", "10", "11", "14"], "num1": [6, 5, 2, 8, 3], "num2": [8, 3, 6, 3, 2], "num3": [1, 2, 3, 3, 9], "type": "DISTRACTOR", "conditions": [12, 1600, "a", 12000], "trial": 6, "trial_type": "math-distractor", "trial_index": 225, "time_elapsed": 935317, "internal_node_id": "0.0-171.0"}}, {"uniqueid": "MTK0163:31QNSG6A5S00G4QZP1XS4P0APGA879", "current_trial": 226, "dateTime": 1509397012135, "trialdata": {"rt": -1, "stimulus": "<p id=\"stim\">10</p>", "key_press": -1, "trial_type": "single-stim", "trial_index": 226, "time_elapsed": 938320, "internal_node_id": "0.0-172.0-0.0"}}, {"uniqueid": "MTK0163:31QNSG6A5S00G4QZP1XS4P0APGA879", "current_trial": 227, "dateTime": 1509397013146, "trialdata": {"rt": -1, "stimulus": "<p id=\"stim\">9</p>", "key_press": -1, "trial_type": "single-stim", "trial_index": 227, "time_elapsed": 939330, "internal_node_id": "0.0-172.0-1.0"}}, {"uniqueid": "MTK0163:31QNSG6A5S00G4QZP1XS4P0APGA879", "current_trial": 228, "dateTime": 1509397014149, "trialdata": {"rt": -1, "stimulus": "<p id=\"stim\">8</p>", "key_press": -1, "trial_type": "single-stim", "trial_index": 228, "time_elapsed": 940334, "internal_node_id": "0.0-172.0-2.0"}}, {"uniqueid": "MTK0163:31QNSG6A5S00G4QZP1XS4P0APGA879", "current_trial": 229, "dateTime": 1509397015150, "trialdata": {"rt": -1, "stimulus": "<p id=\"stim\">7</p>", "key_press": -1, "trial_type": "single-stim", "trial_index": 229, "time_elapsed": 941334, "internal_node_id": "0.0-172.0-3.0"}}, {"uniqueid": "MTK0163:31QNSG6A5S00G4QZP1XS4P0APGA879", "current_trial": 230, "dateTime": 1509397016151, "trialdata": {"rt": -1, "stimulus": "<p id=\"stim\">6</p>", "key_press": -1, "trial_type": "single-stim", "trial_index": 230, "time_elapsed": 942336, "internal_node_id": "0.0-172.0-4.0"}}, {"uniqueid": "MTK0163:31QNSG6A5S00G4QZP1XS4P0APGA879", "current_trial": 231, "dateTime": 1509397017153, "trialdata": {"rt": -1, "stimulus": "<p id=\"stim\">5</p>", "key_press": -1, "trial_type": "single-stim", "trial_index": 231, "time_elapsed": 943338, "internal_node_id": "0.0-172.0-5.0"}}, {"uniqueid": "MTK0163:31QNSG6A5S00G4QZP1XS4P0APGA879", "current_trial": 232, "dateTime": 1509397018155, "trialdata": {"rt": -1, "stimulus": "<p id=\"stim\">4</p>", "key_press": -1, "trial_type": "single-stim", "trial_index": 232, "time_elapsed": 944340, "internal_node_id": "0.0-172.0-6.0"}}, {"uniqueid": "MTK0163:31QNSG6A5S00G4QZP1XS4P0APGA879", "current_trial": 233, "dateTime": 1509397019156, "trialdata": {"rt": -1, "stimulus": "<p id=\"stim\">3</p>", "key_press": -1, "trial_type": "single-stim", "trial_index": 233, "time_elapsed": 945341, "internal_node_id": "0.0-172.0-7.0"}}, {"uniqueid": "MTK0163:31QNSG6A5S00G4QZP1XS4P0APGA879", "current_trial": 234, "dateTime": 1509397020158, "trialdata": {"rt": -1, "stimulus": "<p id=\"stim\">2</p>", "key_press": -1, "trial_type": "single-stim", "trial_index": 234, "time_elapsed": 946343, "internal_node_id": "0.0-172.0-8.0"}}, {"uniqueid": "MTK0163:31QNSG6A5S00G4QZP1XS4P0APGA879", "current_trial": 235, "dateTime": 1509397021161, "trialdata": {"rt": -1, "stimulus": "<p id=\"stim\">1</p>", "key_press": -1, "trial_type": "single-stim", "trial_index": 235, "time_elapsed": 947344, "internal_node_id": "0.0-172.0-9.0"}}, {"uniqueid": "MTK0163:31QNSG6A5S00G4QZP1XS4P0APGA879", "current_trial": 236, "dateTime": 1509397022662, "trialdata": {"rt": -1, "stimulus": "<p id=\"stim\">+</p>", "key_press": -1, "type": "FIXATION", "trial_type": "single-stim", "trial_index": 236, "time_elapsed": 948846, "internal_node_id": "0.0-173.0-0.0"}}, {"uniqueid": "MTK0163:31QNSG6A5S00G4QZP1XS4P0APGA879", "current_trial": 237, "dateTime": 1509397025341, "trialdata": {"rt": -1000, "stimulus": "/static/audio/wordpool/BACON.wav", "key_press": -1, "type": "PRES_AUD", "word": "bacon", "wordID": 66, "conditions": [12, 1600, "a", 12000], "trial": 6, "serialpos": 0, "trial_type": "single-audio", "trial_index": 237, "time_elapsed": 951526, "internal_node_id": "0.0-174.0"}}, {"uniqueid": "MTK0163:31QNSG6A5S00G4QZP1XS4P0APGA879", "current_trial": 238, "dateTime": 1509397028120, "trialdata": {"rt": -1000, "stimulus": "/static/audio/wordpool/MAMMAL.wav", "key_press": -1, "type": "PRES_AUD", "word": "mammal", "wordID": 860, "conditions": [12, 1600, "a", 12000], "trial": 6, "serialpos": 1, "trial_type": "single-audio", "trial_index": 238, "time_elapsed": 954305, "internal_node_id": "0.0-175.0"}}, {"uniqueid": "MTK0163:31QNSG6A5S00G4QZP1XS4P0APGA879", "current_trial": 239, "dateTime": 1509397030707, "trialdata": {"rt": -1000, "stimulus": "/static/audio/wordpool/SHARK.wav", "key_press": -1, "type": "PRES_AUD", "word": "shark", "wordID": 1274, "conditions": [12, 1600, "a", 12000], "trial": 6, "serialpos": 2, "trial_type": "single-audio", "trial_index": 239, "time_elapsed": 956891, "internal_node_id": "0.0-176.0"}}, {"uniqueid": "MTK0163:31QNSG6A5S00G4QZP1XS4P0APGA879", "current_trial": 240, "dateTime": 1509397033159, "trialdata": {"rt": -1000, "stimulus": "/static/audio/wordpool/EYELASH.wav", "key_press": -1, "type": "PRES_AUD", "word": "eyelash", "wordID": 545, "conditions": [12, 1600, "a", 12000], "trial": 6, "serialpos": 3, "trial_type": "single-audio", "trial_index": 240, "time_elapsed": 959344, "internal_node_id": "0.0-177.0"}}, {"uniqueid": "MTK0163:31QNSG6A5S00G4QZP1XS4P0APGA879", "current_trial": 241, "dateTime": 1509397035930, "trialdata": {"rt": -1000, "stimulus": "/static/audio/wordpool/EUROPE.wav", "key_press": -1, "type": "PRES_AUD", "word": "europe", "wordID": 540, "conditions": [12, 1600, "a", 12000], "trial": 6, "serialpos": 4, "trial_type": "single-audio", "trial_index": 241, "time_elapsed": 962115, "internal_node_id": "0.0-178.0"}}, {"uniqueid": "MTK0163:31QNSG6A5S00G4QZP1XS4P0APGA879", "current_trial": 242, "dateTime": 1509397038407, "trialdata": {"rt": -1000, "stimulus": "/static/audio/wordpool/EXPERT.wav", "key_press": -1, "type": "PRES_AUD", "word": "expert", "wordID": 542, "conditions": [12, 1600, "a", 12000], "trial": 6, "serialpos": 5, "trial_type": "single-audio", "trial_index": 242, "time_elapsed": 964592, "internal_node_id": "0.0-179.0"}}, {"uniqueid": "MTK0163:31QNSG6A5S00G4QZP1XS4P0APGA879", "current_trial": 243, "dateTime": 1509397041130, "trialdata": {"rt": -1000, "stimulus": "/static/audio/wordpool/SKIRT.wav", "key_press": -1, "type": "PRES_AUD", "word": "skirt", "wordID": 1318, "conditions": [12, 1600, "a", 12000], "trial": 6, "serialpos": 6, "trial_type": "single-audio", "trial_index": 243, "time_elapsed": 967314, "internal_node_id": "0.0-180.0"}}, {"uniqueid": "MTK0163:31QNSG6A5S00G4QZP1XS4P0APGA879", "current_trial": 244, "dateTime": 1509397043617, "trialdata": {"rt": -1000, "stimulus": "/static/audio/wordpool/FRANCE.wav", "key_press": -1, "type": "PRES_AUD", "word": "france", "wordID": 600, "conditions": [12, 1600, "a", 12000], "trial": 6, "serialpos": 7, "trial_type": "single-audio", "trial_index": 244, "time_elapsed": 969802, "internal_node_id": "0.0-181.0"}}, {"uniqueid": "MTK0163:31QNSG6A5S00G4QZP1XS4P0APGA879", "current_trial": 245, "dateTime": 1509397046047, "trialdata": {"rt": -1000, "stimulus": "/static/audio/wordpool/SHELF.wav", "key_press": -1, "type": "PRES_AUD", "word": "shelf", "wordID": 1279, "conditions": [12, 1600, "a", 12000], "trial": 6, "serialpos": 8, "trial_type": "single-audio", "trial_index": 245, "time_elapsed": 972232, "internal_node_id": "0.0-182.0"}}, {"uniqueid": "MTK0163:31QNSG6A5S00G4QZP1XS4P0APGA879", "current_trial": 246, "dateTime": 1509397048632, "trialdata": {"rt": -1000, "stimulus": "/static/audio/wordpool/BOX.wav", "key_press": -1, "type": "PRES_AUD", "word": "box", "wordID": 158, "conditions": [12, 1600, "a", 12000], "trial": 6, "serialpos": 9, "trial_type": "single-audio", "trial_index": 246, "time_elapsed": 974817, "internal_node_id": "0.0-183.0"}}, {"uniqueid": "MTK0163:31QNSG6A5S00G4QZP1XS4P0APGA879", "current_trial": 247, "dateTime": 1509397051404, "trialdata": {"rt": -1000, "stimulus": "/static/audio/wordpool/TABLE.wav", "key_press": -1, "type": "PRES_AUD", "word": "table", "wordID": 1425, "conditions": [12, 1600, "a", 12000], "trial": 6, "serialpos": 10, "trial_type": "single-audio", "trial_index": 247, "time_elapsed": 977589, "internal_node_id": "0.0-184.0"}}, {"uniqueid": "MTK0163:31QNSG6A5S00G4QZP1XS4P0APGA879", "current_trial": 248, "dateTime": 1509397054170, "trialdata": {"rt": -1000, "stimulus": "/static/audio/wordpool/SCULPTURE.wav", "key_press": -1, "type": "PRES_AUD", "word": "sculpture", "wordID": 1257, "conditions": [12, 1600, "a", 12000], "trial": 6, "serialpos": 11, "trial_type": "single-audio", "trial_index": 248, "time_elapsed": 980355, "internal_node_id": "0.0-185.0"}}, {"uniqueid": "MTK0163:31QNSG6A5S00G4QZP1XS4P0APGA879", "current_trial": 249, "dateTime": 1509397055473, "trialdata": {"rt": -1, "stimulus": "", "key_press": -1, "type": "PRE_RECALL_DELAY", "trial_type": "single-stim", "trial_index": 249, "time_elapsed": 981658, "internal_node_id": "0.0-186.0-0.0"}}, {"uniqueid": "MTK0163:31QNSG6A5S00G4QZP1XS4P0APGA879", "current_trial": 250, "dateTime": 1509397055975, "trialdata": {"rt": -1000, "stimulus": "/static/audio/400Hz.wav", "key_press": -1, "type": "PRE_RECALL_ALERT", "trial_type": "single-audio", "trial_index": 250, "time_elapsed": 982159, "internal_node_id": "0.0-187.0"}}, {"uniqueid": "MTK0163:31QNSG6A5S00G4QZP1XS4P0APGA879", "current_trial": 251, "dateTime": 1509397115986, "trialdata": {"rt": [4927, 8956, 12955, 16016, 19921, 27668, 31243], "recwords": ["table", "skirt", "france", "bacon", "shark", "eyelash", "box"], "type": "FREE_RECALL", "conditions": [12, 1600, "a", 12000], "trial": 6, "trial_type": "free-recall", "trial_index": 251, "time_elapsed": 1042164, "internal_node_id": "0.0-188.0-0.0"}}, {"uniqueid": "MTK0163:31QNSG6A5S00G4QZP1XS4P0APGA879", "current_trial": 252, "dateTime": 1509397119564, "trialdata": {"rt": 1576, "key_press": 32, "type": "INSTRUCTIONS", "trial_type": "text", "trial_index": 252, "time_elapsed": 1045748, "internal_node_id": "0.0-189.0"}}, {"uniqueid": "MTK0163:31QNSG6A5S00G4QZP1XS4P0APGA879", "current_trial": 253, "dateTime": 1509397145567, "trialdata": {"rt": [3337, 6838, 10353, 15027, 17547, 19501, 22370], "responses": ["21", "14", "15", "23", "15", "17", "17"], "num1": [9, 9, 8, 8, 8, 8, 6, 9], "num2": [8, 4, 3, 9, 2, 1, 2, 3], "num3": [5, 1, 4, 6, 5, 8, 9, 6], "type": "DISTRACTOR", "conditions": [24, 1600, "v", 24000], "trial": 7, "trial_type": "math-distractor", "trial_index": 253, "time_elapsed": 1071751, "internal_node_id": "0.0-190.0"}}, {"uniqueid": "MTK0163:31QNSG6A5S00G4QZP1XS4P0APGA879", "current_trial": 254, "dateTime": 1509397148568, "trialdata": {"rt": -1, "stimulus": "<p id=\"stim\">10</p>", "key_press": -1, "trial_type": "single-stim", "trial_index": 254, "time_elapsed": 1074753, "internal_node_id": "0.0-191.0-0.0"}}, {"uniqueid": "MTK0163:31QNSG6A5S00G4QZP1XS4P0APGA879", "current_trial": 255, "dateTime": 1509397149570, "trialdata": {"rt": -1, "stimulus": "<p id=\"stim\">9</p>", "key_press": -1, "trial_type": "single-stim", "trial_index": 255, "time_elapsed": 1075754, "internal_node_id": "0.0-191.0-1.0"}}, {"uniqueid": "MTK0163:31QNSG6A5S00G4QZP1XS4P0APGA879", "current_trial": 256, "dateTime": 1509397150571, "trialdata": {"rt": -1, "stimulus": "<p id=\"stim\">8</p>", "key_press": -1, "trial_type": "single-stim", "trial_index": 256, "time_elapsed": 1076756, "internal_node_id": "0.0-191.0-2.0"}}, {"uniqueid": "MTK0163:31QNSG6A5S00G4QZP1XS4P0APGA879", "current_trial": 257, "dateTime": 1509397151572, "trialdata": {"rt": -1, "stimulus": "<p id=\"stim\">7</p>", "key_press": -1, "trial_type": "single-stim", "trial_index": 257, "time_elapsed": 1077757, "internal_node_id": "0.0-191.0-3.0"}}, {"uniqueid": "MTK0163:31QNSG6A5S00G4QZP1XS4P0APGA879", "current_trial": 258, "dateTime": 1509397152573, "trialdata": {"rt": -1, "stimulus": "<p id=\"stim\">6</p>", "key_press": -1, "trial_type": "single-stim", "trial_index": 258, "time_elapsed": 1078758, "internal_node_id": "0.0-191.0-4.0"}}, {"uniqueid": "MTK0163:31QNSG6A5S00G4QZP1XS4P0APGA879", "current_trial": 259, "dateTime": 1509397153574, "trialdata": {"rt": -1, "stimulus": "<p id=\"stim\">5</p>", "key_press": -1, "trial_type": "single-stim", "trial_index": 259, "time_elapsed": 1079759, "internal_node_id": "0.0-191.0-5.0"}}, {"uniqueid": "MTK0163:31QNSG6A5S00G4QZP1XS4P0APGA879", "current_trial": 260, "dateTime": 1509397154575, "trialdata": {"rt": -1, "stimulus": "<p id=\"stim\">4</p>", "key_press": -1, "trial_type": "single-stim", "trial_index": 260, "time_elapsed": 1080760, "internal_node_id": "0.0-191.0-6.0"}}, {"uniqueid": "MTK0163:31QNSG6A5S00G4QZP1XS4P0APGA879", "current_trial": 261, "dateTime": 1509397155577, "trialdata": {"rt": -1, "stimulus": "<p id=\"stim\">3</p>", "key_press": -1, "trial_type": "single-stim", "trial_index": 261, "time_elapsed": 1081762, "internal_node_id": "0.0-191.0-7.0"}}, {"uniqueid": "MTK0163:31QNSG6A5S00G4QZP1XS4P0APGA879", "current_trial": 262, "dateTime": 1509397156585, "trialdata": {"rt": -1, "stimulus": "<p id=\"stim\">2</p>", "key_press": -1, "trial_type": "single-stim", "trial_index": 262, "time_elapsed": 1082770, "internal_node_id": "0.0-191.0-8.0"}}, {"uniqueid": "MTK0163:31QNSG6A5S00G4QZP1XS4P0APGA879", "current_trial": 263, "dateTime": 1509397157586, "trialdata": {"rt": -1, "stimulus": "<p id=\"stim\">1</p>", "key_press": -1, "trial_type": "single-stim", "trial_index": 263, "time_elapsed": 1083771, "internal_node_id": "0.0-191.0-9.0"}}, {"uniqueid": "MTK0163:31QNSG6A5S00G4QZP1XS4P0APGA879", "current_trial": 264, "dateTime": 1509397159087, "trialdata": {"rt": -1, "stimulus": "<p id=\"stim\">+</p>", "key_press": -1, "type": "FIXATION", "trial_type": "single-stim", "trial_index": 264, "time_elapsed": 1085272, "internal_node_id": "0.0-192.0-0.0"}}, {"uniqueid": "MTK0163:31QNSG6A5S00G4QZP1XS4P0APGA879", "current_trial": 265, "dateTime": 1509397160688, "trialdata": {"rt": -1, "stimulus": "<p id=\"stim\">SCISSORS</p>", "key_press": -1, "type": "PRES_VIS", "word": "scissors", "wordID": 1249, "conditions": [24, 1600, "v", 24000], "trial": 7, "serialpos": 0, "trial_type": "single-stim", "trial_index": 265, "time_elapsed": 1086873, "internal_node_id": "0.0-193.0"}}, {"uniqueid": "MTK0163:31QNSG6A5S00G4QZP1XS4P0APGA879", "current_trial": 266, "dateTime": 1509397163379, "trialdata": {"rt": -1, "stimulus": "<p id=\"stim\">MONSTER</p>", "key_press": -1, "type": "PRES_VIS", "word": "monster", "wordID": 911, "conditions": [24, 1600, "v", 24000], "trial": 7, "serialpos": 1, "trial_type": "single-stim", "trial_index": 266, "time_elapsed": 1089563, "internal_node_id": "0.0-194.0"}}, {"uniqueid": "MTK0163:31QNSG6A5S00G4QZP1XS4P0APGA879", "current_trial": 267, "dateTime": 1509397166035, "trialdata": {"rt": -1, "stimulus": "<p id=\"stim\">COWBOY</p>", "key_press": -1, "type": "PRES_VIS", "word": "cowboy", "wordID": 394, "conditions": [24, 1600, "v", 24000], "trial": 7, "serialpos": 2, "trial_type": "single-stim", "trial_index": 267, "time_elapsed": 1092220, "internal_node_id": "0.0-195.0"}}, {"uniqueid": "MTK0163:31QNSG6A5S00G4QZP1XS4P0APGA879", "current_trial": 268, "dateTime": 1509397168794, "trialdata": {"rt": -1, "stimulus": "<p id=\"stim\">MARKET</p>", "key_press": -1, "type": "PRES_VIS", "word": "market", "wordID": 870, "conditions": [24, 1600, "v", 24000], "trial": 7, "serialpos": 3, "trial_type": "single-stim", "trial_index": 268, "time_elapsed": 1094979, "internal_node_id": "0.0-196.0"}}, {"uniqueid": "MTK0163:31QNSG6A5S00G4QZP1XS4P0APGA879", "current_trial": 269, "dateTime": 1509397171257, "trialdata": {"rt": -1, "stimulus": "<p id=\"stim\">MILK</p>", "key_press": -1, "type": "PRES_VIS", "word": "milk", "wordID": 894, "conditions": [24, 1600, "v", 24000], "trial": 7, "serialpos": 4, "trial_type": "single-stim", "trial_index": 269, "time_elapsed": 1097442, "internal_node_id": "0.0-197.0"}}, {"uniqueid": "MTK0163:31QNSG6A5S00G4QZP1XS4P0APGA879", "current_trial": 270, "dateTime": 1509397173755, "trialdata": {"rt": -1, "stimulus": "<p id=\"stim\">DOUGHNUT</p>", "key_press": -1, "type": "PRES_VIS", "word": "doughnut", "wordID": 489, "conditions": [24, 1600, "v", 24000], "trial": 7, "serialpos": 5, "trial_type": "single-stim", "trial_index": 270, "time_elapsed": 1099939, "internal_node_id": "0.0-198.0"}}, {"uniqueid": "MTK0163:31QNSG6A5S00G4QZP1XS4P0APGA879", "current_trial": 271, "dateTime": 1509397176264, "trialdata": {"rt": -1, "stimulus": "<p id=\"stim\">PECAN</p>", "key_press": -1, "type": "PRES_VIS", "word": "pecan", "wordID": 1035, "conditions": [24, 1600, "v", 24000], "trial": 7, "serialpos": 6, "trial_type": "single-stim", "trial_index": 271, "time_elapsed": 1102449, "internal_node_id": "0.0-199.0"}}, {"uniqueid": "MTK0163:31QNSG6A5S00G4QZP1XS4P0APGA879", "current_trial": 272, "dateTime": 1509397178875, "trialdata": {"rt": -1, "stimulus": "<p id=\"stim\">THIEF</p>", "key_press": -1, "type": "PRES_VIS", "word": "thief", "wordID": 1455, "conditions": [24, 1600, "v", 24000], "trial": 7, "serialpos": 7, "trial_type": "single-stim", "trial_index": 272, "time_elapsed": 1105060, "internal_node_id": "0.0-200.0"}}, {"uniqueid": "MTK0163:31