{"condition": 0, "counterbalance": 2549, "assignmentId": "3X4MXAO0BHVLOO6WWIB4NMUWCJMWRY", "workerId": "MTK0753", "hitId": "3UEDKCTP9VXIOLU68OPT5ADH8U2K77", "currenttrial": 626, "bonus": 0, "data": [{"uniqueid": "MTK0753:3X4MXAO0BHVLOO6WWIB4NMUWCJMWRY", "current_trial": 0, "dateTime": 1512693571373, "trialdata": {"rt": 2236, "key_press": 32, "type": "INSTRUCTIONS", "trial_type": "text", "trial_index": 0, "time_elapsed": 2238, "internal_node_id": "0.0-0.0"}}, {"uniqueid": "MTK0753:3X4MXAO0BHVLOO6WWIB4NMUWCJMWRY", "current_trial": 1, "dateTime": 1512693588885, "trialdata": {"rt": 17510, "key_press": 32, "type": "INSTRUCTIONS", "trial_type": "text", "trial_index": 1, "time_elapsed": 19750, "internal_node_id": "0.0-1.0"}}, {"uniqueid": "MTK0753:3X4MXAO0BHVLOO6WWIB4NMUWCJMWRY", "current_trial": 2, "dateTime": 1512693597590, "trialdata": {"rt": [8699], "responses": ["ocean"], "type": "AUDIO_TEST", "trial_type": "audio-test", "trial_index": 2, "time_elapsed": 28455, "internal_node_id": "0.0-2.0"}}, {"uniqueid": "MTK0753:3X4MXAO0BHVLOO6WWIB4NMUWCJMWRY", "current_trial": 3, "dateTime": 1512693602384, "trialdata": {"rt": [4790], "responses": ["crystal"], "type": "AUDIO_TEST", "trial_type": "audio-test", "trial_index": 3, "time_elapsed": 33249, "internal_node_id": "0.0-3.0"}}, {"uniqueid": "MTK0753:3X4MXAO0BHVLOO6WWIB4NMUWCJMWRY", "current_trial": 4, "dateTime": 1512693608470, "trialdata": {"rt": [6083], "responses": ["spice"], "type": "AUDIO_TEST", "trial_type": "audio-test", "trial_index": 4, "time_elapsed": 39335, "internal_node_id": "0.0-4.0"}}, {"uniqueid": "MTK0753:3X4MXAO0BHVLOO6WWIB4NMUWCJMWRY", "current_trial": 5, "dateTime": 1512693623998, "trialdata": {"rt": 14775, "responses": "{\"Q0\":\"9:00pm\",\"Q1\":\"6:00am\",\"Q2\":\"4\"}", "type": "SLEEP_SURVEY", "trial_type": "survey-text", "trial_index": 5, "time_elapsed": 54863, "internal_node_id": "0.0-5.0"}}, {"uniqueid": "MTK0753:3X4MXAO0BHVLOO6WWIB4NMUWCJMWRY", "current_trial": 6, "dateTime": 1512693646271, "trialdata": {"rt": 21271, "key_press": 32, "type": "INSTRUCTIONS", "trial_type": "text", "trial_index": 6, "time_elapsed": 77136, "internal_node_id": "0.0-6.0"}}, {"uniqueid": "MTK0753:3X4MXAO0BHVLOO6WWIB4NMUWCJMWRY", "current_trial": 7, "dateTime": 1512693665746, "trialdata": {"rt": 18973, "key_press": 32, "type": "INSTRUCTIONS", "trial_type": "text", "trial_index": 7, "time_elapsed": 96611, "internal_node_id": "0.0-7.0"}}, {"uniqueid": "MTK0753:3X4MXAO0BHVLOO6WWIB4NMUWCJMWRY", "current_trial": 8, "dateTime": 1512693677151, "trialdata": {"rt": 10902, "key_press": 32, "type": "INSTRUCTIONS", "trial_type": "text", "trial_index": 8, "time_elapsed": 108016, "internal_node_id": "0.0-8.0"}}, {"uniqueid": "MTK0753:3X4MXAO0BHVLOO6WWIB4NMUWCJMWRY", "current_trial": 9, "dateTime": 1512693696161, "trialdata": {"rt": [3999, 7799, 9824, 13008, 17873], "responses": ["10", "14", "10", "15", "15"], "num1": [4, 9, 4, 6, 3, 2], "num2": [3, 4, 1, 7, 8, 7], "num3": [3, 1, 5, 2, 4, 7], "type": "DISTRACTOR", "conditions": [18, 1200, "v", 18000], "trial": 0, "trial_type": "math-distractor", "trial_index": 9, "time_elapsed": 127026, "internal_node_id": "0.0-9.0"}}, {"uniqueid": "MTK0753:3X4MXAO0BHVLOO6WWIB4NMUWCJMWRY", "current_trial": 10, "dateTime": 1512693699167, "trialdata": {"rt": -1, "stimulus": "<p id=\"stim\">10</p>", "key_press": -1, "trial_type": "single-stim", "trial_index": 10, "time_elapsed": 130032, "internal_node_id": "0.0-10.0-0.0"}}, {"uniqueid": "MTK0753:3X4MXAO0BHVLOO6WWIB4NMUWCJMWRY", "current_trial": 11, "dateTime": 1512693700171, "trialdata": {"rt": -1, "stimulus": "<p id=\"stim\">9</p>", "key_press": -1, "trial_type": "single-stim", "trial_index": 11, "time_elapsed": 131036, "internal_node_id": "0.0-10.0-1.0"}}, {"uniqueid": "MTK0753:3X4MXAO0BHVLOO6WWIB4NMUWCJMWRY", "current_trial": 12, "dateTime": 1512693701175, "trialdata": {"rt": -1, "stimulus": "<p id=\"stim\">8</p>", "key_press": -1, "trial_type": "single-stim", "trial_index": 12, "time_elapsed": 132040, "internal_node_id": "0.0-10.0-2.0"}}, {"uniqueid": "MTK0753:3X4MXAO0BHVLOO6WWIB4NMUWCJMWRY", "current_trial": 13, "dateTime": 1512693702180, "trialdata": {"rt": -1, "stimulus": "<p id=\"stim\">7</p>", "key_press": -1, "trial_type": "single-stim", "trial_index": 13, "time_elapsed": 133045, "internal_node_id": "0.0-10.0-3.0"}}, {"uniqueid": "MTK0753:3X4MXAO0BHVLOO6WWIB4NMUWCJMWRY", "current_trial": 14, "dateTime": 1512693703186, "trialdata": {"rt": -1, "stimulus": "<p id=\"stim\">6</p>", "key_press": -1, "trial_type": "single-stim", "trial_index": 14, "time_elapsed": 134051, "internal_node_id": "0.0-10.0-4.0"}}, {"uniqueid": "MTK0753:3X4MXAO0BHVLOO6WWIB4NMUWCJMWRY", "current_trial": 15, "dateTime": 1512693704187, "trialdata": {"rt": -1, "stimulus": "<p id=\"stim\">5</p>", "key_press": -1, "trial_type": "single-stim", "trial_index": 15, "time_elapsed": 135052, "internal_node_id": "0.0-10.0-5.0"}}, {"uniqueid": "MTK0753:3X4MXAO0BHVLOO6WWIB4NMUWCJMWRY", "current_trial": 16, "dateTime": 1512693705189, "trialdata": {"rt": -1, "stimulus": "<p id=\"stim\">4</p>", "key_press": -1, "trial_type": "single-stim", "trial_index": 16, "time_elapsed": 136054, "internal_node_id": "0.0-10.0-6.0"}}, {"uniqueid": "MTK0753:3X4MXAO0BHVLOO6WWIB4NMUWCJMWRY", "current_trial": 17, "dateTime": 1512693706190, "trialdata": {"rt": -1, "stimulus": "<p id=\"stim\">3</p>", "key_press": -1, "trial_type": "single-stim", "trial_index": 17, "time_elapsed": 137055, "internal_node_id": "0.0-10.0-7.0"}}, {"uniqueid": "MTK0753:3X4MXAO0BHVLOO6WWIB4NMUWCJMWRY", "current_trial": 18, "dateTime": 1512693707191, "trialdata": {"rt": -1, "stimulus": "<p id=\"stim\">2</p>", "key_press": -1, "trial_type": "single-stim", "trial_index": 18, "time_elapsed": 138056, "internal_node_id": "0.0-10.0-8.0"}}, {"uniqueid": "MTK0753:3X4MXAO0BHVLOO6WWIB4NMUWCJMWRY", "current_trial": 19, "dateTime": 1512693708192, "trialdata": {"rt": -1, "stimulus": "<p id=\"stim\">1</p>", "key_press": -1, "trial_type": "single-stim", "trial_index": 19, "time_elapsed": 139057, "internal_node_id": "0.0-10.0-9.0"}}, {"uniqueid": "MTK0753:3X4MXAO0BHVLOO6WWIB4NMUWCJMWRY", "current_trial": 20, "dateTime": 1512693709695, "trialdata": {"rt": -1, "stimulus": "<p id=\"stim\">+</p>", "key_press": -1, "type": "FIXATION", "trial_type": "single-stim", "trial_index": 20, "time_elapsed": 140560, "internal_node_id": "0.0-11.0-0.0"}}, {"uniqueid": "MTK0753:3X4MXAO0BHVLOO6WWIB4NMUWCJMWRY", "current_trial": 21, "dateTime": 1512693710897, "trialdata": {"rt": -1, "stimulus": "<p id=\"stim\">KIDNEY</p>", "key_press": -1, "type": "PRES_VIS", "word": "kidney", "wordID": 775, "conditions": [18, 1200, "v", 18000], "trial": 0, "serialpos": 0, "trial_type": "single-stim", "trial_index": 21, "time_elapsed": 141762, "internal_node_id": "0.0-12.0"}}, {"uniqueid": "MTK0753:3X4MXAO0BHVLOO6WWIB4NMUWCJMWRY", "current_trial": 22, "dateTime": 1512693712975, "trialdata": {"rt": -1, "stimulus": "<p id=\"stim\">HIGHWAY</p>", "key_press": -1, "type": "PRES_VIS", "word": "highway", "wordID": 706, "conditions": [18, 1200, "v", 18000], "trial": 0, "serialpos": 1, "trial_type": "single-stim", "trial_index": 22, "time_elapsed": 143840, "internal_node_id": "0.0-13.0"}}, {"uniqueid": "MTK0753:3X4MXAO0BHVLOO6WWIB4NMUWCJMWRY", "current_trial": 23, "dateTime": 1512693715232, "trialdata": {"rt": -1, "stimulus": "<p id=\"stim\">WHISTLE</p>", "key_press": -1, "type": "PRES_VIS", "word": "whistle", "wordID": 1605, "conditions": [18, 1200, "v", 18000], "trial": 0, "serialpos": 2, "trial_type": "single-stim", "trial_index": 23, "time_elapsed": 146097, "internal_node_id": "0.0-14.0"}}, {"uniqueid": "MTK0753:3X4MXAO0BHVLOO6WWIB4NMUWCJMWRY", "current_trial": 24, "dateTime": 1512693717549, "trialdata": {"rt": -1, "stimulus": "<p id=\"stim\">SURVEY</p>", "key_press": -1, "type": "PRES_VIS", "word": "survey", "wordID": 1413, "conditions": [18, 1200, "v", 18000], "trial": 0, "serialpos": 3, "trial_type": "single-stim", "trial_index": 24, "time_elapsed": 148413, "internal_node_id": "0.0-15.0"}}, {"uniqueid": "MTK0753:3X4MXAO0BHVLOO6WWIB4NMUWCJMWRY", "current_trial": 25, "dateTime": 1512693719743, "trialdata": {"rt": -1, "stimulus": "<p id=\"stim\">PLASTER</p>", "key_press": -1, "type": "PRES_VIS", "word": "plaster", "wordID": 1084, "conditions": [18, 1200, "v", 18000], "trial": 0, "serialpos": 4, "trial_type": "single-stim", "trial_index": 25, "time_elapsed": 150607, "internal_node_id": "0.0-16.0"}}, {"uniqueid": "MTK0753:3X4MXAO0BHVLOO6WWIB4NMUWCJMWRY", "current_trial": 26, "dateTime": 1512693722093, "trialdata": {"rt": -1, "stimulus": "<p id=\"stim\">AUTHOR</p>", "key_press": -1, "type": "PRES_VIS", "word": "author", "wordID": 60, "conditions": [18, 1200, "v", 18000], "trial": 0, "serialpos": 5, "trial_type": "single-stim", "trial_index": 26, "time_elapsed": 152958, "internal_node_id": "0.0-17.0"}}, {"uniqueid": "MTK0753:3X4MXAO0BHVLOO6WWIB4NMUWCJMWRY", "current_trial": 27, "dateTime": 1512693724142, "trialdata": {"rt": -1, "stimulus": "<p id=\"stim\">LOFT</p>", "key_press": -1, "type": "PRES_VIS", "word": "loft", "wordID": 839, "conditions": [18, 1200, "v", 18000], "trial": 0, "serialpos": 6, "trial_type": "single-stim", "trial_index": 27, "time_elapsed": 155007, "internal_node_id": "0.0-18.0"}}, {"uniqueid": "MTK0753:3X4MXAO0BHVLOO6WWIB4NMUWCJMWRY", "current_trial": 28, "dateTime": 1512693726522, "trialdata": {"rt": -1, "stimulus": "<p id=\"stim\">CAMEL</p>", "key_press": -1, "type": "PRES_VIS", "word": "camel", "wordID": 222, "conditions": [18, 1200, "v", 18000], "trial": 0, "serialpos": 7, "trial_type": "single-stim", "trial_index": 28, "time_elapsed": 157387, "internal_node_id": "0.0-19.0"}}, {"uniqueid": "MTK0753:3X4MXAO0BHVLOO6WWIB4NMUWCJMWRY", "current_trial": 29, "dateTime": 1512693728689, "trialdata": {"rt": -1, "stimulus": "<p id=\"stim\">COCKTAIL</p>", "key_press": -1, "type": "PRES_VIS", "word": "cocktail", "wordID": 337, "conditions": [18, 1200, "v", 18000], "trial": 0, "serialpos": 8, "trial_type": "single-stim", "trial_index": 29, "time_elapsed": 159554, "internal_node_id": "0.0-20.0"}}, {"uniqueid": "MTK0753:3X4MXAO0BHVLOO6WWIB4NMUWCJMWRY", "current_trial": 30, "dateTime": 1512693731014, "trialdata": {"rt": -1, "stimulus": "<p id=\"stim\">OMELET</p>", "key_press": -1, "type": "PRES_VIS", "word": "omelet", "wordID": 975, "conditions": [18, 1200, "v", 18000], "trial": 0, "serialpos": 9, "trial_type": "single-stim", "trial_index": 30, "time_elapsed": 161879, "internal_node_id": "0.0-21.0"}}, {"uniqueid": "MTK0753:3X4MXAO0BHVLOO6WWIB4NMUWCJMWRY", "current_trial": 31, "dateTime": 1512693733197, "trialdata": {"rt": -1, "stimulus": "<p id=\"stim\">LILY</p>", "key_press": -1, "type": "PRES_VIS", "word": "lily", "wordID": 820, "conditions": [18, 1200, "v", 18000], "trial": 0, "serialpos": 10, "trial_type": "single-stim", "trial_index": 31, "time_elapsed": 164061, "internal_node_id": "0.0-22.0"}}, {"uniqueid": "MTK0753:3X4MXAO0BHVLOO6WWIB4NMUWCJMWRY", "current_trial": 32, "dateTime": 1512693735379, "trialdata": {"rt": -1, "stimulus": "<p id=\"stim\">TART</p>", "key_press": -1, "type": "PRES_VIS", "word": "tart", "wordID": 1435, "conditions": [18, 1200, "v", 18000], "trial": 0, "serialpos": 11, "trial_type": "single-stim", "trial_index": 32, "time_elapsed": 166244, "internal_node_id": "0.0-23.0"}}, {"uniqueid": "MTK0753:3X4MXAO0BHVLOO6WWIB4NMUWCJMWRY", "current_trial": 33, "dateTime": 1512693737619, "trialdata": {"rt": -1, "stimulus": "<p id=\"stim\">CRITIC</p>", "key_press": -1, "type": "PRES_VIS", "word": "critic", "wordID": 409, "conditions": [18, 1200, "v", 18000], "trial": 0, "serialpos": 12, "trial_type": "single-stim", "trial_index": 33, "time_elapsed": 168484, "internal_node_id": "0.0-24.0"}}, {"uniqueid": "MTK0753:3X4MXAO0BHVLOO6WWIB4NMUWCJMWRY", "current_trial": 34, "dateTime": 1512693740022, "trialdata": {"rt": -1, "stimulus": "<p id=\"stim\">DONOR</p>", "key_press": -1, "type": "PRES_VIS", "word": "donor", "wordID": 484, "conditions": [18, 1200, "v", 18000], "trial": 0, "serialpos": 13, "trial_type": "single-stim", "trial_index": 34, "time_elapsed": 170887, "internal_node_id": "0.0-25.0"}}, {"uniqueid": "MTK0753:3X4MXAO0BHVLOO6WWIB4NMUWCJMWRY", "current_trial": 35, "dateTime": 1512693742356, "trialdata": {"rt": -1, "stimulus": "<p id=\"stim\">BUBBLE</p>", "key_press": -1, "type": "PRES_VIS", "word": "bubble", "wordID": 182, "conditions": [18, 1200, "v", 18000], "trial": 0, "serialpos": 14, "trial_type": "single-stim", "trial_index": 35, "time_elapsed": 173220, "internal_node_id": "0.0-26.0"}}, {"uniqueid": "MTK0753:3X4MXAO0BHVLOO6WWIB4NMUWCJMWRY", "current_trial": 36, "dateTime": 1512693744602, "trialdata": {"rt": -1, "stimulus": "<p id=\"stim\">WORKER</p>", "key_press": -1, "type": "PRES_VIS", "word": "worker", "wordID": 1620, "conditions": [18, 1200, "v", 18000], "trial": 0, "serialpos": 15, "trial_type": "single-stim", "trial_index": 36, "time_elapsed": 175466, "internal_node_id": "0.0-27.0"}}, {"uniqueid": "MTK0753:3X4MXAO0BHVLOO6WWIB4NMUWCJMWRY", "current_trial": 37, "dateTime": 1512693746680, "trialdata": {"rt": -1, "stimulus": "<p id=\"stim\">HAWK</p>", "key_press": -1, "type": "PRES_VIS", "word": "hawk", "wordID": 691, "conditions": [18, 1200, "v", 18000], "trial": 0, "serialpos": 16, "trial_type": "single-stim", "trial_index": 37, "time_elapsed": 177544, "internal_node_id": "0.0-28.0"}}, {"uniqueid": "MTK0753:3X4MXAO0BHVLOO6WWIB4NMUWCJMWRY", "current_trial": 38, "dateTime": 1512693748809, "trialdata": {"rt": -1, "stimulus": "<p id=\"stim\">TAXI</p>", "key_press": -1, "type": "PRES_VIS", "word": "taxi", "wordID": 1437, "conditions": [18, 1200, "v", 18000], "trial": 0, "serialpos": 17, "trial_type": "single-stim", "trial_index": 38, "time_elapsed": 179674, "internal_node_id": "0.0-29.0"}}, {"uniqueid": "MTK0753:3X4MXAO0BHVLOO6WWIB4NMUWCJMWRY", "current_trial": 39, "dateTime": 1512693751062, "trialdata": {"rt": -1, "stimulus": "", "key_press": -1, "type": "PRE_RECALL_DELAY", "trial_type": "single-stim", "trial_index": 39, "time_elapsed": 181927, "internal_node_id": "0.0-30.0-0.0"}}, {"uniqueid": "MTK0753:3X4MXAO0BHVLOO6WWIB4NMUWCJMWRY", "current_trial": 40, "dateTime": 1512693751565, "trialdata": {"rt": -1000, "stimulus": "/static/audio/400Hz.wav", "key_press": -1, "type": "PRE_RECALL_ALERT", "trial_type": "single-audio", "trial_index": 40, "time_elapsed": 182430, "internal_node_id": "0.0-31.0"}}, {"uniqueid": "MTK0753:3X4MXAO0BHVLOO6WWIB4NMUWCJMWRY", "current_trial": 41, "dateTime": 1512693811572, "trialdata": {"rt": [2460, 4940, 6236, 7900, 9293, 10772, 14852, 16052, 25097, 48868, 54051], "recwords": ["kidney", "highway", "whistle", "bubble", "survey", "worker", "plaster", "donor", "camel", "", "lily"], "type": "FREE_RECALL", "conditions": [18, 1200, "v", 18000], "trial": 0, "trial_type": "free-recall", "trial_index": 41, "time_elapsed": 242435, "internal_node_id": "0.0-32.0-0.0"}}, {"uniqueid": "MTK0753:3X4MXAO0BHVLOO6WWIB4NMUWCJMWRY", "current_trial": 42, "dateTime": 1512693814957, "trialdata": {"rt": 1379, "key_press": 13, "type": "INSTRUCTIONS", "trial_type": "text", "trial_index": 42, "time_elapsed": 245822, "internal_node_id": "0.0-33.0"}}, {"uniqueid": "MTK0753:3X4MXAO0BHVLOO6WWIB4NMUWCJMWRY", "current_trial": 43, "dateTime": 1512693834966, "trialdata": {"rt": [4186, 6675, 11668, 14268, 17820], "responses": ["15", "12", "16", "19", "18"], "num1": [5, 6, 3, 5, 7, 7], "num2": [6, 3, 9, 9, 8, 4], "num3": [4, 3, 4, 5, 3, 7], "type": "DISTRACTOR", "conditions": [18, 1200, "a", 18000], "trial": 1, "trial_type": "math-distractor", "trial_index": 43, "time_elapsed": 265831, "internal_node_id": "0.0-34.0"}}, {"uniqueid": "MTK0753:3X4MXAO0BHVLOO6WWIB4NMUWCJMWRY", "current_trial": 44, "dateTime": 1512693837969, "trialdata": {"rt": -1, "stimulus": "<p id=\"stim\">10</p>", "key_press": -1, "trial_type": "single-stim", "trial_index": 44, "time_elapsed": 268834, "internal_node_id": "0.0-35.0-0.0"}}, {"uniqueid": "MTK0753:3X4MXAO0BHVLOO6WWIB4NMUWCJMWRY", "current_trial": 45, "dateTime": 1512693838974, "trialdata": {"rt": -1, "stimulus": "<p id=\"stim\">9</p>", "key_press": -1, "trial_type": "single-stim", "trial_index": 45, "time_elapsed": 269839, "internal_node_id": "0.0-35.0-1.0"}}, {"uniqueid": "MTK0753:3X4MXAO0BHVLOO6WWIB4NMUWCJMWRY", "current_trial": 46, "dateTime": 1512693839975, "trialdata": {"rt": -1, "stimulus": "<p id=\"stim\">8</p>", "key_press": -1, "trial_type": "single-stim", "trial_index": 46, "time_elapsed": 270839, "internal_node_id": "0.0-35.0-2.0"}}, {"uniqueid": "MTK0753:3X4MXAO0BHVLOO6WWIB4NMUWCJMWRY", "current_trial": 47, "dateTime": 1512693840979, "trialdata": {"rt": -1, "stimulus": "<p id=\"stim\">7</p>", "key_press": -1, "trial_type": "single-stim", "trial_index": 47, "time_elapsed": 271844, "internal_node_id": "0.0-35.0-3.0"}}, {"uniqueid": "MTK0753:3X4MXAO0BHVLOO6WWIB4NMUWCJMWRY", "current_trial": 48, "dateTime": 1512693841983, "trialdata": {"rt": -1, "stimulus": "<p id=\"stim\">6</p>", "key_press": -1, "trial_type": "single-stim", "trial_index": 48, "time_elapsed": 272848, "internal_node_id": "0.0-35.0-4.0"}}, {"uniqueid": "MTK0753:3X4MXAO0BHVLOO6WWIB4NMUWCJMWRY", "current_trial": 49, "dateTime": 1512693842987, "trialdata": {"rt": -1, "stimulus": "<p id=\"stim\">5</p>", "key_press": -1, "trial_type": "single-stim", "trial_index": 49, "time_elapsed": 273852, "internal_node_id": "0.0-35.0-5.0"}}, {"uniqueid": "MTK0753:3X4MXAO0BHVLOO6WWIB4NMUWCJMWRY", "current_trial": 50, "dateTime": 1512693843989, "trialdata": {"rt": -1, "stimulus": "<p id=\"stim\">4</p>", "key_press": -1, "trial_type": "single-stim", "trial_index": 50, "time_elapsed": 274854, "internal_node_id": "0.0-35.0-6.0"}}, {"uniqueid": "MTK0753:3X4MXAO0BHVLOO6WWIB4NMUWCJMWRY", "current_trial": 51, "dateTime": 1512693844992, "trialdata": {"rt": -1, "stimulus": "<p id=\"stim\">3</p>", "key_press": -1, "trial_type": "single-stim", "trial_index": 51, "time_elapsed": 275856, "internal_node_id": "0.0-35.0-7.0"}}, {"uniqueid": "MTK0753:3X4MXAO0BHVLOO6WWIB4NMUWCJMWRY", "current_trial": 52, "dateTime": 1512693845994, "trialdata": {"rt": -1, "stimulus": "<p id=\"stim\">2</p>", "key_press": -1, "trial_type": "single-stim", "trial_index": 52, "time_elapsed": 276859, "internal_node_id": "0.0-35.0-8.0"}}, {"uniqueid": "MTK0753:3X4MXAO0BHVLOO6WWIB4NMUWCJMWRY", "current_trial": 53, "dateTime": 1512693846998, "trialdata": {"rt": -1, "stimulus": "<p id=\"stim\">1</p>", "key_press": -1, "trial_type": "single-stim", "trial_index": 53, "time_elapsed": 277863, "internal_node_id": "0.0-35.0-9.0"}}, {"uniqueid": "MTK0753:3X4MXAO0BHVLOO6WWIB4NMUWCJMWRY", "current_trial": 54, "dateTime": 1512693848500, "trialdata": {"rt": -1, "stimulus": "<p id=\"stim\">+</p>", "key_press": -1, "type": "FIXATION", "trial_type": "single-stim", "trial_index": 54, "time_elapsed": 279365, "internal_node_id": "0.0-36.0-0.0"}}, {"uniqueid": "MTK0753:3X4MXAO0BHVLOO6WWIB4NMUWCJMWRY", "current_trial": 55, "dateTime": 1512693850827, "trialdata": {"rt": -1000, "stimulus": "/static/audio/wordpool/GYMNAST.wav", "key_press": -1, "type": "PRES_AUD", "word": "gymnast", "wordID": 674, "conditions": [18, 1200, "a", 18000], "trial": 1, "serialpos": 0, "trial_type": "single-audio", "trial_index": 55, "time_elapsed": 281692, "internal_node_id": "0.0-37.0"}}, {"uniqueid": "MTK0753:3X4MXAO0BHVLOO6WWIB4NMUWCJMWRY", "current_trial": 56, "dateTime": 1512693853187, "trialdata": {"rt": -1000, "stimulus": "/static/audio/wordpool/SNACK.wav", "key_press": -1, "type": "PRES_AUD", "word": "snack", "wordID": 1330, "conditions": [18, 1200, "a", 18000], "trial": 1, "serialpos": 1, "trial_type": "single-audio", "trial_index": 56, "time_elapsed": 284052, "internal_node_id": "0.0-38.0"}}, {"uniqueid": "MTK0753:3X4MXAO0BHVLOO6WWIB4NMUWCJMWRY", "current_trial": 57, "dateTime": 1512693855411, "trialdata": {"rt": -1000, "stimulus": "/static/audio/wordpool/BUTCHER.wav", "key_press": -1, "type": "PRES_AUD", "word": "butcher", "wordID": 202, "conditions": [18, 1200, "a", 18000], "trial": 1, "serialpos": 2, "trial_type": "single-audio", "trial_index": 57, "time_elapsed": 286276, "internal_node_id": "0.0-39.0"}}, {"uniqueid": "MTK0753:3X4MXAO0BHVLOO6WWIB4NMUWCJMWRY", "current_trial": 58, "dateTime": 1512693857499, "trialdata": {"rt": -1000, "stimulus": "/static/audio/wordpool/JURY.wav", "key_press": -1, "type": "PRES_AUD", "word": "jury", "wordID": 765, "conditions": [18, 1200, "a", 18000], "trial": 1, "serialpos": 3, "trial_type": "single-audio", "trial_index": 58, "time_elapsed": 288364, "internal_node_id": "0.0-40.0"}}, {"uniqueid": "MTK0753:3X4MXAO0BHVLOO6WWIB4NMUWCJMWRY", "current_trial": 59, "dateTime": 1512693859678, "trialdata": {"rt": -1000, "stimulus": "/static/audio/wordpool/BEAVER.wav", "key_press": -1, "type": "PRES_AUD", "word": "beaver", "wordID": 108, "conditions": [18, 1200, "a", 18000], "trial": 1, "serialpos": 4, "trial_type": "single-audio", "trial_index": 59, "time_elapsed": 290543, "internal_node_id": "0.0-41.0"}}, {"uniqueid": "MTK0753:3X4MXAO0BHVLOO6WWIB4NMUWCJMWRY", "current_trial": 60, "dateTime": 1512693861739, "trialdata": {"rt": -1000, "stimulus": "/static/audio/wordpool/SPHINX.wav", "key_press": -1, "type": "PRES_AUD", "word": "sphinx", "wordID": 1348, "conditions": [18, 1200, "a", 18000], "trial": 1, "serialpos": 5, "trial_type": "single-audio", "trial_index": 60, "time_elapsed": 292604, "internal_node_id": "0.0-42.0"}}, {"uniqueid": "MTK0753:3X4MXAO0BHVLOO6WWIB4NMUWCJMWRY", "current_trial": 61, "dateTime": 1512693863821, "trialdata": {"rt": -1000, "stimulus": "/static/audio/wordpool/CONCERT.wav", "key_press": -1, "type": "PRES_AUD", "word": "concert", "wordID": 359, "conditions": [18, 1200, "a", 18000], "trial": 1, "serialpos": 6, "trial_type": "single-audio", "trial_index": 61, "time_elapsed": 294686, "internal_node_id": "0.0-43.0"}}, {"uniqueid": "MTK0753:3X4MXAO0BHVLOO6WWIB4NMUWCJMWRY", "current_trial": 62, "dateTime": 1512693866113, "trialdata": {"rt": -1000, "stimulus": "/static/audio/wordpool/FLIPPER.wav", "key_press": -1, "type": "PRES_AUD", "word": "flipper", "wordID": 579, "conditions": [18, 1200, "a", 18000], "trial": 1, "serialpos": 7, "trial_type": "single-audio", "trial_index": 62, "time_elapsed": 296978, "internal_node_id": "0.0-44.0"}}, {"uniqueid": "MTK0753:3X4MXAO0BHVLOO6WWIB4NMUWCJMWRY", "current_trial": 63, "dateTime": 1512693868204, "trialdata": {"rt": -1000, "stimulus": "/static/audio/wordpool/BUREAU.wav", "key_press": -1, "type": "PRES_AUD", "word": "bureau", "wordID": 198, "conditions": [18, 1200, "a", 18000], "trial": 1, "serialpos": 8, "trial_type": "single-audio", "trial_index": 63, "time_elapsed": 299069, "internal_node_id": "0.0-45.0"}}, {"uniqueid": "MTK0753:3X4MXAO0BHVLOO6WWIB4NMUWCJMWRY", "current_trial": 64, "dateTime": 1512693870546, "trialdata": {"rt": -1000, "stimulus": "/static/audio/wordpool/BUCKET.wav", "key_press": -1, "type": "PRES_AUD", "word": "bucket", "wordID": 183, "conditions": [18, 1200, "a", 18000], "trial": 1, "serialpos": 9, "trial_type": "single-audio", "trial_index": 64, "time_elapsed": 301411, "internal_node_id": "0.0-46.0"}}, {"uniqueid": "MTK0753:3X4MXAO0BHVLOO6WWIB4NMUWCJMWRY", "current_trial": 65, "dateTime": 1512693872857, "trialdata": {"rt": -1000, "stimulus": "/static/audio/wordpool/TERMITE.wav", "key_press": -1, "type": "PRES_AUD", "word": "termite", "wordID": 1450, "conditions": [18, 1200, "a", 18000], "trial": 1, "serialpos": 10, "trial_type": "single-audio", "trial_index": 65, "time_elapsed": 303721, "internal_node_id": "0.0-47.0"}}, {"uniqueid": "MTK0753:3X4MXAO0BHVLOO6WWIB4NMUWCJMWRY", "current_trial": 66, "dateTime": 1512693875026, "trialdata": {"rt": -1000, "stimulus": "/static/audio/wordpool/BANQUET.wav", "key_press": -1, "type": "PRES_AUD", "word": "banquet", "wordID": 85, "conditions": [18, 1200, "a", 18000], "trial": 1, "serialpos": 11, "trial_type": "single-audio", "trial_index": 66, "time_elapsed": 305891, "internal_node_id": "0.0-48.0"}}, {"uniqueid": "MTK0753:3X4MXAO0BHVLOO6WWIB4NMUWCJMWRY", "current_trial": 67, "dateTime": 1512693877388, "trialdata": {"rt": -1000, "stimulus": "/static/audio/wordpool/DUST.wav", "key_press": -1, "type": "PRES_AUD", "word": "dust", "wordID": 507, "conditions": [18, 1200, "a", 18000], "trial": 1, "serialpos": 12, "trial_type": "single-audio", "trial_index": 67, "time_elapsed": 308253, "internal_node_id": "0.0-49.0"}}, {"uniqueid": "MTK0753:3X4MXAO0BHVLOO6WWIB4NMUWCJMWRY", "current_trial": 68, "dateTime": 1512693879637, "trialdata": {"rt": -1000, "stimulus": "/static/audio/wordpool/ORANGE.wav", "key_press": -1, "type": "PRES_AUD", "word": "orange", "wordID": 979, "conditions": [18, 1200, "a", 18000], "trial": 1, "serialpos": 13, "trial_type": "single-audio", "trial_index": 68, "time_elapsed": 310501, "internal_node_id": "0.0-50.0"}}, {"uniqueid": "MTK0753:3X4MXAO0BHVLOO6WWIB4NMUWCJMWRY", "current_trial": 69, "dateTime": 1512693881979, "trialdata": {"rt": -1000, "stimulus": "/static/audio/wordpool/SKIRT.wav", "key_press": -1, "type": "PRES_AUD", "word": "skirt", "wordID": 1318, "conditions": [18, 1200, "a", 18000], "trial": 1, "serialpos": 14, "trial_type": "single-audio", "trial_index": 69, "time_elapsed": 312844, "internal_node_id": "0.0-51.0"}}, {"uniqueid": "MTK0753:3X4MXAO0BHVLOO6WWIB4NMUWCJMWRY", "current_trial": 70, "dateTime": 1512693884036, "trialdata": {"rt": -1000, "stimulus": "/static/audio/wordpool/FLUTE.wav", "key_press": -1, "type": "PRES_AUD", "word": "flute", "wordID": 584, "conditions": [18, 1200, "a", 18000], "trial": 1, "serialpos": 15, "trial_type": "single-audio", "trial_index": 70, "time_elapsed": 314901, "internal_node_id": "0.0-52.0"}}, {"uniqueid": "MTK0753:3X4MXAO0BHVLOO6WWIB4NMUWCJMWRY", "current_trial": 71, "dateTime": 1512693886369, "trialdata": {"rt": -1000, "stimulus": "/static/audio/wordpool/SHORTS.wav", "key_press": -1, "type": "PRES_AUD", "word": "shorts", "wordID": 1292, "conditions": [18, 1200, "a", 18000], "trial": 1, "serialpos": 16, "trial_type": "single-audio", "trial_index": 71, "time_elapsed": 317233, "internal_node_id": "0.0-53.0"}}, {"uniqueid": "MTK0753:3X4MXAO0BHVLOO6WWIB4NMUWCJMWRY", "current_trial": 72, "dateTime": 1512693888707, "trialdata": {"rt": -1000, "stimulus": "/static/audio/wordpool/BATHTUB.wav", "key_press": -1, "type": "PRES_AUD", "word": "bathtub", "wordID": 99, "conditions": [18, 1200, "a", 18000], "trial": 1, "serialpos": 17, "trial_type": "single-audio", "trial_index": 72, "time_elapsed": 319572, "internal_node_id": "0.0-54.0"}}, {"uniqueid": "MTK0753:3X4MXAO0BHVLOO6WWIB4NMUWCJMWRY", "current_trial": 73, "dateTime": 1512693890010, "trialdata": {"rt": -1, "stimulus": "", "key_press": -1, "type": "PRE_RECALL_DELAY", "trial_type": "single-stim", "trial_index": 73, "time_elapsed": 320875, "internal_node_id": "0.0-55.0-0.0"}}, {"uniqueid": "MTK0753:3X4MXAO0BHVLOO6WWIB4NMUWCJMWRY", "current_trial": 74, "dateTime": 1512693890512, "trialdata": {"rt": -1000, "stimulus": "/static/audio/400Hz.wav", "key_press": -1, "type": "PRE_RECALL_ALERT", "trial_type": "single-audio", "trial_index": 74, "time_elapsed": 321376, "internal_node_id": "0.0-56.0"}}, {"uniqueid": "MTK0753:3X4MXAO0BHVLOO6WWIB4NMUWCJMWRY", "current_trial": 75, "dateTime": 1512693950520, "trialdata": {"rt": [5819, 7915, 9996, 11444, 13203, 19251, 21123, 23259, 36611, 44414, 56342], "recwords": ["gynmast", "orange", "bathtub", "skirt", "shorts", "butcher", "termite", "snack", "bearu", "concert", "flipper"], "type": "FREE_RECALL", "conditions": [18, 1200, "a", 18000], "trial": 1, "trial_type": "free-recall", "trial_index": 75, "time_elapsed": 381383, "internal_node_id": "0.0-57.0-0.0"}}, {"uniqueid": "MTK0753:3X4MXAO0BHVLOO6WWIB4NMUWCJMWRY", "current_trial": 76, "dateTime": 1512693956370, "trialdata": {"rt": 3841, "key_press": 32, "type": "INSTRUCTIONS", "trial_type": "text", "trial_index": 76, "time_elapsed": 387231, "internal_node_id": "0.0-58.0"}}, {"uniqueid": "MTK0753:3X4MXAO0BHVLOO6WWIB4NMUWCJMWRY", "current_trial": 77, "dateTime": 1512693981379, "trialdata": {"rt": [2553, 4721, 6449, 12057, 15065, 19329, 21049, 23817], "responses": ["6", "16", "9", "22", "12", "23", "16", "12"], "num1": [3, 7, 1, 6, 7, 9, 5, 1, 7], "num2": [2, 7, 7, 6, 3, 5, 6, 6, 4], "num3": [1, 2, 1, 9, 2, 9, 5, 5, 5], "type": "DISTRACTOR", "conditions": [12, 800, "a", 24000], "trial": 2, "trial_type": "math-distractor", "trial_index": 77, "time_elapsed": 412244, "internal_node_id": "0.0-59.0"}}, {"uniqueid": "MTK0753:3X4MXAO0BHVLOO6WWIB4NMUWCJMWRY", "current_trial": 78, "dateTime": 1512693984385, "trialdata": {"rt": -1, "stimulus": "<p id=\"stim\">10</p>", "key_press": -1, "trial_type": "single-stim", "trial_index": 78, "time_elapsed": 415250, "internal_node_id": "0.0-60.0-0.0"}}, {"uniqueid": "MTK0753:3X4MXAO0BHVLOO6WWIB4NMUWCJMWRY", "current_trial": 79, "dateTime": 1512693985389, "trialdata": {"rt": -1, "stimulus": "<p id=\"stim\">9</p>", "key_press": -1, "trial_type": "single-stim", "trial_index": 79, "time_elapsed": 416254, "internal_node_id": "0.0-60.0-1.0"}}, {"uniqueid": "MTK0753:3X4MXAO0BHVLOO6WWIB4NMUWCJMWRY", "current_trial": 80, "dateTime": 1512693986393, "trialdata": {"rt": -1, "stimulus": "<p id=\"stim\">8</p>", "key_press": -1, "trial_type": "single-stim", "trial_index": 80, "time_elapsed": 417258, "internal_node_id": "0.0-60.0-2.0"}}, {"uniqueid": "MTK0753:3X4MXAO0BHVLOO6WWIB4NMUWCJMWRY", "current_trial": 81, "dateTime": 1512693987398, "trialdata": {"rt": -1, "stimulus": "<p id=\"stim\">7</p>", "key_press": -1, "trial_type": "single-stim", "trial_index": 81, "time_elapsed": 418262, "internal_node_id": "0.0-60.0-3.0"}}, {"uniqueid": "MTK0753:3X4MXAO0BHVLOO6WWIB4NMUWCJMWRY", "current_trial": 82, "dateTime": 1512693988402, "trialdata": {"rt": -1, "stimulus": "<p id=\"stim\">6</p>", "key_press": -1, "trial_type": "single-stim", "trial_index": 82, "time_elapsed": 419266, "internal_node_id": "0.0-60.0-4.0"}}, {"uniqueid": "MTK0753:3X4MXAO0BHVLOO6WWIB4NMUWCJMWRY", "current_trial": 83, "dateTime": 1512693989406, "trialdata": {"rt": -1, "stimulus": "<p id=\"stim\">5</p>", "key_press": -1, "trial_type": "single-stim", "trial_index": 83, "time_elapsed": 420271, "internal_node_id": "0.0-60.0-5.0"}}, {"uniqueid": "MTK0753:3X4MXAO0BHVLOO6WWIB4NMUWCJMWRY", "current_trial": 84, "dateTime": 1512693990407, "trialdata": {"rt": -1, "stimulus": "<p id=\"stim\">4</p>", "key_press": -1, "trial_type": "single-stim", "trial_index": 84, "time_elapsed": 421272, "internal_node_id": "0.0-60.0-6.0"}}, {"uniqueid": "MTK0753:3X4MXAO0BHVLOO6WWIB4NMUWCJMWRY", "current_trial": 85, "dateTime": 1512693991408, "trialdata": {"rt": -1, "stimulus": "<p id=\"stim\">3</p>", "key_press": -1, "trial_type": "single-stim", "trial_index": 85, "time_elapsed": 422273, "internal_node_id": "0.0-60.0-7.0"}}, {"uniqueid": "MTK0753:3X4MXAO0BHVLOO6WWIB4NMUWCJMWRY", "current_trial": 86, "dateTime": 1512693992409, "trialdata": {"rt": -1, "stimulus": "<p id=\"stim\">2</p>", "key_press": -1, "trial_type": "single-stim", "trial_index": 86, "time_elapsed": 423274, "internal_node_id": "0.0-60.0-8.0"}}, {"uniqueid": "MTK0753:3X4MXAO0BHVLOO6WWIB4NMUWCJMWRY", "current_trial": 87, "dateTime": 1512693993411, "trialdata": {"rt": -1, "stimulus": "<p id=\"stim\">1</p>", "key_press": -1, "trial_type": "single-stim", "trial_index": 87, "time_elapsed": 424276, "internal_node_id": "0.0-60.0-9.0"}}, {"uniqueid": "MTK0753:3X4MXAO0BHVLOO6WWIB4NMUWCJMWRY", "current_trial": 88, "dateTime": 1512693994914, "trialdata": {"rt": -1, "stimulus": "<p id=\"stim\">+</p>", "key_press": -1, "type": "FIXATION", "trial_type": "single-stim", "trial_index": 88, "time_elapsed": 425779, "internal_node_id": "0.0-61.0-0.0"}}, {"uniqueid": "MTK0753:3X4MXAO0BHVLOO6WWIB4NMUWCJMWRY", "current_trial": 89, "dateTime": 1512693996579, "trialdata": {"rt": -1000, "stimulus": "/static/audio/wordpool/NOMAD.wav", "key_press": -1, "type": "PRES_AUD", "word": "nomad", "wordID": 954, "conditions": [12, 800, "a", 24000], "trial": 2, "serialpos": 0, "trial_type": "single-audio", "trial_index": 89, "time_elapsed": 427444, "internal_node_id": "0.0-62.0"}}, {"uniqueid": "MTK0753:3X4MXAO0BHVLOO6WWIB4NMUWCJMWRY", "current_trial": 90, "dateTime": 1512693998486, "trialdata": {"rt": -1000, "stimulus": "/static/audio/wordpool/SILK.wav", "key_press": -1, "type": "PRES_AUD", "word": "silk", "wordID": 1306, "conditions": [12, 800, "a", 24000], "trial": 2, "serialpos": 1, "trial_type": "single-audio", "trial_index": 90, "time_elapsed": 429351, "internal_node_id": "0.0-63.0"}}, {"uniqueid": "MTK0753:3X4MXAO0BHVLOO6WWIB4NMUWCJMWRY", "current_trial": 91, "dateTime": 1512694000340, "trialdata": {"rt": -1000, "stimulus": "/static/audio/wordpool/BASEMENT.wav", "key_press": -1, "type": "PRES_AUD", "word": "basement", "wordID": 93, "conditions": [12, 800, "a", 24000], "trial": 2, "serialpos": 2, "trial_type": "single-audio", "trial_index": 91, "time_elapsed": 431205, "internal_node_id": "0.0-64.0"}}, {"uniqueid": "MTK0753:3X4MXAO0BHVLOO6WWIB4NMUWCJMWRY", "current_trial": 92, "dateTime": 1512694002317, "trialdata": {"rt": -1000, "stimulus": "/static/audio/wordpool/CELLAR.wav", "key_press": -1, "type": "PRES_AUD", "word": "cellar", "wordID": 266, "conditions": [12, 800, "a", 24000], "trial": 2, "serialpos": 3, "trial_type": "single-audio", "trial_index": 92, "time_elapsed": 433182, "internal_node_id": "0.0-65.0"}}, {"uniqueid": "MTK0753:3X4MXAO0BHVLOO6WWIB4NMUWCJMWRY", "current_trial": 93, "dateTime": 1512694003998, "trialdata": {"rt": -1000, "stimulus": "/static/audio/wordpool/SAUSAGE.wav", "key_press": -1, "type": "PRES_AUD", "word": "sausage", "wordID": 1237, "conditions": [12, 800, "a", 24000], "trial": 2, "serialpos": 4, "trial_type": "single-audio", "trial_index": 93, "time_elapsed": 434863, "internal_node_id": "0.0-66.0"}}, {"uniqueid": "MTK0753:3X4MXAO0BHVLOO6WWIB4NMUWCJMWRY", "current_trial": 94, "dateTime": 1512694005875, "trialdata": {"rt": -1000, "stimulus": "/static/audio/wordpool/LACE.wav", "key_press": -1, "type": "PRES_AUD", "word": "lace", "wordID": 791, "conditions": [12, 800, "a", 24000], "trial": 2, "serialpos": 5, "trial_type": "single-audio", "trial_index": 94, "time_elapsed": 436740, "internal_node_id": "0.0-67.0"}}, {"uniqueid": "MTK0753:3X4MXAO0BHVLOO6WWIB4NMUWCJMWRY", "current_trial": 95, "dateTime": 1512694007837, "trialdata": {"rt": -1000, "stimulus": "/static/audio/wordpool/FIREMAN.wav", "key_press": -1, "type": "PRES_AUD", "word": "fireman", "wordID": 568, "conditions": [12, 800, "a", 24000], "trial": 2, "serialpos": 6, "trial_type": "single-audio", "trial_index": 95, "time_elapsed": 438702, "internal_node_id": "0.0-68.0"}}, {"uniqueid": "MTK0753:3X4MXAO0BHVLOO6WWIB4NMUWCJMWRY", "current_trial": 96, "dateTime": 1512694009495, "trialdata": {"rt": -1000, "stimulus": "/static/audio/wordpool/DANCER.wav", "key_press": -1, "type": "PRES_AUD", "word": "dancer", "wordID": 436, "conditions": [12, 800, "a", 24000], "trial": 2, "serialpos": 7, "trial_type": "single-audio", "trial_index": 96, "time_elapsed": 440360, "internal_node_id": "0.0-69.0"}}, {"uniqueid": "MTK0753:3X4MXAO0BHVLOO6WWIB4NMUWCJMWRY", "current_trial": 97, "dateTime": 1512694011357, "trialdata": {"rt": -1000, "stimulus": "/static/audio/wordpool/GALLON.wav", "key_press": -1, "type": "PRES_AUD", "word": "gallon", "wordID": 617, "conditions": [12, 800, "a", 24000], "trial": 2, "serialpos": 8, "trial_type": "single-audio", "trial_index": 97, "time_elapsed": 442222, "internal_node_id": "0.0-70.0"}}, {"uniqueid": "MTK0753:3X4MXAO0BHVLOO6WWIB4NMUWCJMWRY", "current_trial": 98, "dateTime": 1512694013145, "trialdata": {"rt": -1000, "stimulus": "/static/audio/wordpool/LOVER.wav", "key_press": -1, "type": "PRES_AUD", "word": "lover", "wordID": 845, "conditions": [12, 800, "a", 24000], "trial": 2, "serialpos": 9, "trial_type": "single-audio", "trial_index": 98, "time_elapsed": 444010, "internal_node_id": "0.0-71.0"}}, {"uniqueid": "MTK0753:3X4MXAO0BHVLOO6WWIB4NMUWCJMWRY", "current_trial": 99, "dateTime": 1512694014851, "trialdata": {"rt": -1000, "stimulus": "/static/audio/wordpool/TUTU.wav", "key_press": -1, "type": "PRES_AUD", "word": "tutu", "wordID": 1523, "conditions": [12, 800, "a", 24000], "trial": 2, "serialpos": 10, "trial_type": "single-audio", "trial_index": 99, "time_elapsed": 445716, "internal_node_id": "0.0-72.0"}}, {"uniqueid": "MTK0753:3X4MXAO0BHVLOO6WWIB4NMUWCJMWRY", "current_trial": 100, "dateTime": 1512694016646, "trialdata": {"rt": -1000, "stimulus": "/static/audio/wordpool/CUSTARD.wav", "key_press": -1, "type": "PRES_AUD", "word": "custard", "wordID": 428, "conditions": [12, 800, "a", 24000], "trial": 2, "serialpos": 11, "trial_type": "single-audio", "trial_index": 100, "time_elapsed": 447511, "internal_node_id": "0.0-73.0"}}, {"uniqueid": "MTK0753:3X4MXAO0BHVLOO6WWIB4NMUWCJMWRY", "current_trial": 101, "dateTime": 1512694017925, "trialdata": {"rt": -1, "stimulus": "", "key_press": -1, "type": "PRE_RECALL_DELAY", "trial_type": "single-stim", "trial_index": 101, "time_elapsed": 448790, "internal_node_id": "0.0-74.0-0.0"}}, {"uniqueid": "MTK0753:3X4MXAO0BHVLOO6WWIB4NMUWCJMWRY", "current_trial": 102, "dateTime": 1512694018426, "trialdata": {"rt": -1000, "stimulus": "/static/audio/400Hz.wav", "key_press": -1, "type": "PRE_RECALL_ALERT", "trial_type": "single-audio", "trial_index": 102, "time_elapsed": 449291, "internal_node_id": "0.0-75.0"}}, {"uniqueid": "MTK0753:3X4MXAO0BHVLOO6WWIB4NMUWCJMWRY", "current_trial": 103, "dateTime": 1512694078435, "trialdata": {"rt": [3351, 4431, 6048, 8888, 10792, 12471], "recwords": ["dancer", "tutu", "custard", "nomad", "basement", "cellar"], "type": "FREE_RECALL", "conditions": [12, 800, "a", 24000], "trial": 2, "trial_type": "free-recall", "trial_index": 103, "time_elapsed": 509296, "internal_node_id": "0.0-76.0-0.0"}}, {"uniqueid": "MTK0753:3X4MXAO0BHVLOO6WWIB4NMUWCJMWRY", "current_trial": 104, "dateTime": 1512694081637, "trialdata": {"rt": 1200, "key_press": 32, "type": "INSTRUCTIONS", "trial_type": "text", "trial_index": 104, "time_elapsed": 512502, "internal_node_id": "0.0-77.0"}}, {"uniqueid": "MTK0753:3X4MXAO0BHVLOO6WWIB4NMUWCJMWRY", "current_trial": 105, "dateTime": 1512694107648, "trialdata": {"rt": [1954, 4425, 6202, 8051, 10794, 12970, 16306, 19018, 23323], "responses": ["13", "8", "12", "12", "7", "9", "17", "17", "20"], "num1": [6, 2, 2, 4, 2, 2, 5, 7, 3, 8], "num2": [1, 5, 6, 5, 3, 1, 9, 3, 9, 4], "num3": [6, 1, 4, 3, 2, 6, 3, 7, 8, 3], "type": "DISTRACTOR", "conditions": [12, 1600, "a", 24000], "trial": 3, "trial_type": "math-distractor", "trial_index": 105, "time_elapsed": 538513, "internal_node_id": "0.0-78.0"}}, {"uniqueid": "MTK0753:3X4MXAO0BHVLOO6WWIB4NMUWCJMWRY", "current_trial": 106, "dateTime": 1512694110653, "trialdata": {"rt": -1, "stimulus": "<p id=\"stim\">10</p>", "key_press": -1, "trial_type": "single-stim", "trial_index": 106, "time_elapsed": 541518, "internal_node_id": "0.0-79.0-0.0"}}, {"uniqueid": "MTK0753:3X4MXAO0BHVLOO6WWIB4NMUWCJMWRY", "current_trial": 107, "dateTime": 1512694111654, "trialdata": {"rt": -1, "stimulus": "<p id=\"stim\">9</p>", "key_press": -1, "trial_type": "single-stim", "trial_index": 107, "time_elapsed": 542519, "internal_node_id": "0.0-79.0-1.0"}}, {"uniqueid": "MTK0753:3X4MXAO0BHVLOO6WWIB4NMUWCJMWRY", "current_trial": 108, "dateTime": 1512694112657, "trialdata": {"rt": -1, "stimulus": "<p id=\"stim\">8</p>", "key_press": -1, "trial_type": "single-stim", "trial_index": 108, "time_elapsed": 543522, "internal_node_id": "0.0-79.0-2.0"}}, {"uniqueid": "MTK0753:3X4MXAO0BHVLOO6WWIB4NMUWCJMWRY", "current_trial": 109, "dateTime": 1512694113661, "trialdata": {"rt": -1, "stimulus": "<p id=\"stim\">7</p>", "key_press": -1, "trial_type": "single-stim", "trial_index": 109, "time_elapsed": 544526, "internal_node_id": "0.0-79.0-3.0"}}, {"uniqueid": "MTK0753:3X4MXAO0BHVLOO6WWIB4NMUWCJMWRY", "current_trial": 110, "dateTime": 1512694114667, "trialdata": {"rt": -1, "stimulus": "<p id=\"stim\">6</p>", "key_press": -1, "trial_type": "single-stim", "trial_index": 110, "time_elapsed": 545532, "internal_node_id": "0.0-79.0-4.0"}}, {"uniqueid": "MTK0753:3X4MXAO0BHVLOO6WWIB4NMUWCJMWRY", "current_trial": 111, "dateTime": 1512694115671, "trialdata": {"rt": -1, "stimulus": "<p id=\"stim\">5</p>", "key_press": -1, "trial_type": "single-stim", "trial_index": 111, "time_elapsed": 546536, "internal_node_id": "0.0-79.0-5.0"}}, {"uniqueid": "MTK0753:3X4MXAO0BHVLOO6WWIB4NMUWCJMWRY", "current_trial": 112, "dateTime": 1512694116673, "trialdata": {"rt": -1, "stimulus": "<p id=\"stim\">4</p>", "key_press": -1, "trial_type": "single-stim", "trial_index": 112, "time_elapsed": 547537, "internal_node_id": "0.0-79.0-6.0"}}, {"uniqueid": "MTK0753:3X4MXAO0BHVLOO6WWIB4NMUWCJMWRY", "current_trial": 113, "dateTime": 1512694117675, "trialdata": {"rt": -1, "stimulus": "<p id=\"stim\">3</p>", "key_press": -1, "trial_type": "single-stim", "trial_index": 113, "time_elapsed": 548540, "internal_node_id": "0.0-79.0-7.0"}}, {"uniqueid": "MTK0753:3X4MXAO0BHVLOO6WWIB4NMUWCJMWRY", "current_trial": 114, "dateTime": 1512694118678, "trialdata": {"rt": -1, "stimulus": "<p id=\"stim\">2</p>", "key_press": -1, "trial_type": "single-stim", "trial_index": 114, "time_elapsed": 549542, "internal_node_id": "0.0-79.0-8.0"}}, {"uniqueid": "MTK0753:3X4MXAO0BHVLOO6WWIB4NMUWCJMWRY", "current_trial": 115, "dateTime": 1512694119679, "trialdata": {"rt": -1, "stimulus": "<p id=\"stim\">1</p>", "key_press": -1, "trial_type": "single-stim", "trial_index": 115, "time_elapsed": 550544, "internal_node_id": "0.0-79.0-9.0"}}, {"uniqueid": "MTK0753:3X4MXAO0BHVLOO6WWIB4NMUWCJMWRY", "current_trial": 116, "dateTime": 1512694121185, "trialdata": {"rt": -1, "stimulus": "<p id=\"stim\">+</p>", "key_press": -1, "type": "FIXATION", "trial_type": "single-stim", "trial_index": 116, "time_elapsed": 552050, "internal_node_id": "0.0-80.0-0.0"}}, {"uniqueid": "MTK0753:3X4MXAO0BHVLOO6WWIB4NMUWCJMWRY", "current_trial": 117, "dateTime": 1512694123631, "trialdata": {"rt": -1000, "stimulus": "/static/audio/wordpool/QUEEN.wav", "key_press": -1, "type": "PRES_AUD", "word": "queen", "wordID": 1148, "conditions": [12, 1600, "a", 24000], "trial": 3, "serialpos": 0, "trial_type": "single-audio", "trial_index": 117, "time_elapsed": 554496, "internal_node_id": "0.0-81.0"}}, {"uniqueid": "MTK0753:3X4MXAO0BHVLOO6WWIB4NMUWCJMWRY", "current_trial": 118, "dateTime": 1512694126285, "trialdata": {"rt": -1000, "stimulus": "/static/audio/wordpool/MOP.wav", "key_press": -1, "type": "PRES_AUD", "word": "mop", "wordID": 915, "conditions": [12, 1600, "a", 24000], "trial": 3, "serialpos": 1, "trial_type": "single-audio", "trial_index": 118, "time_elapsed": 557150, "internal_node_id": "0.0-82.0"}}, {"uniqueid": "MTK0753:3X4MXAO0BHVLOO6WWIB4NMUWCJMWRY", "current_trial": 119, "dateTime": 1512694128856, "trialdata": {"rt": -1000, "stimulus": "/static/audio/wordpool/CROSS.wav", "key_press": -1, "type": "PRES_AUD", "word": "cross", "wordID": 412, "conditions": [12, 1600, "a", 24000], "trial": 3, "serialpos": 2, "trial_type": "single-audio", "trial_index": 119, "time_elapsed": 559721, "internal_node_id": "0.0-83.0"}}, {"uniqueid": "MTK0753:3X4MXAO0BHVLOO6WWIB4NMUWCJMWRY", "current_trial": 120, "dateTime": 1512694131294, "trialdata": {"rt": -1000, "stimulus": "/static/audio/wordpool/EMPIRE.wav", "key_press": -1, "type": "PRES_AUD", "word": "empire", "wordID": 529, "conditions": [12, 1600, "a", 24000], "trial": 3, "serialpos": 3, "trial_type": "single-audio", "trial_index": 120, "time_elapsed": 562159, "internal_node_id": "0.0-84.0"}}, {"uniqueid": "MTK0753:3X4MXAO0BHVLOO6WWIB4NMUWCJMWRY", "current_trial": 121, "dateTime": 1512694133826, "trialdata": {"rt": -1000, "stimulus": "/static/audio/wordpool/OYSTER.wav", "key_press": -1, "type": "PRES_AUD", "word": "oyster", "wordID": 994, "conditions": [12, 1600, "a", 24000], "trial": 3, "serialpos": 4, "trial_type": "single-audio", "trial_index": 121, "time_elapsed": 564691, "internal_node_id": "0.0-85.0"}}, {"uniqueid": "MTK0753:3X4MXAO0BHVLOO6WWIB4NMUWCJMWRY", "current_trial": 122, "dateTime": 1512694136356, "trialdata": {"rt": -1000, "stimulus": "/static/audio/wordpool/COWBOY.wav", "key_press": -1, "type": "PRES_AUD", "word": "cowboy", "wordID": 394, "conditions": [12, 1600, "a", 24000], "trial": 3, "serialpos": 5, "trial_type": "single-audio", "trial_index": 122, "time_elapsed": 567221, "internal_node_id": "0.0-86.0"}}, {"uniqueid": "MTK0753:3X4MXAO0BHVLOO6WWIB4NMUWCJMWRY", "current_trial": 123, "dateTime": 1512694138796, "trialdata": {"rt": -1000, "stimulus": "/static/audio/wordpool/BEEF.wav", "key_press": -1, "type": "PRES_AUD", "word": "beef", "wordID": 112, "conditions": [12, 1600, "a", 24000], "trial": 3, "serialpos": 6, "trial_type": "single-audio", "trial_index": 123, "time_elapsed": 569661, "internal_node_id": "0.0-87.0"}}, {"uniqueid": "MTK0753:3X4MXAO0BHVLOO6WWIB4NMUWCJMWRY", "current_trial": 124, "dateTime": 1512694141416, "trialdata": {"rt": -1000, "stimulus": "/static/audio/wordpool/SPIDER.wav", "key_press": -1, "type": "PRES_AUD", "word": "spider", "wordID": 1350, "conditions": [12, 1600, "a", 24000], "trial": 3, "serialpos": 7, "trial_type": "single-audio", "trial_index": 124, "time_elapsed": 572281, "internal_node_id": "0.0-88.0"}}, {"uniqueid": "MTK0753:3X4MXAO0BHVLOO6WWIB4NMUWCJMWRY", "current_trial": 125, "dateTime": 1512694144003, "trialdata": {"rt": -1000, "stimulus": "/static/audio/wordpool/ARMY.wav", "key_press": -1, "type": "PRES_AUD", "word": "army", "wordID": 38, "conditions": [12, 1600, "a", 24000], "trial": 3, "serialpos": 8, "trial_type": "single-audio", "trial_index": 125, "time_elapsed": 574867, "internal_node_id": "0.0-89.0"}}, {"uniqueid": "MTK0753:3X4MXAO0BHVLOO6WWIB4NMUWCJMWRY", "current_trial": 126, "dateTime": 1512694146515, "trialdata": {"rt": -1000, "stimulus": "/static/audio/wordpool/SALMON.wav", "key_press": -1, "type": "PRES_AUD", "word": "salmon", "wordID": 1226, "conditions": [12, 1600, "a", 24000], "trial": 3, "serialpos": 9, "trial_type": "single-audio", "trial_index": 126, "time_elapsed": 577380, "internal_node_id": "0.0-90.0"}}, {"uniqueid": "MTK0753:3X4MXAO0BHVLOO6WWIB4NMUWCJMWRY", "current_trial": 127, "dateTime": 1512694149059, "trialdata": {"rt": -1000, "stimulus": "/static/audio/wordpool/PIANO.wav", "key_press": -1, "type": "PRES_AUD", "word": "piano", "wordID": 1056, "conditions": [12, 1600, "a", 24000], "trial": 3, "serialpos": 10, "trial_type": "single-audio", "trial_index": 127, "time_elapsed": 579923, "internal_node_id": "0.0-91.0"}}, {"uniqueid": "MTK0753:3X4MXAO0BHVLOO6WWIB4NMUWCJMWRY", "current_trial": 128, "dateTime": 1512694151529, "trialdata": {"rt": -1000, "stimulus": "/static/audio/wordpool/BANJO.wav", "key_press": -1, "type": "PRES_AUD", "word": "banjo", "wordID": 81, "conditions": [12, 1600, "a", 24000], "trial": 3, "serialpos": 11, "trial_type": "single-audio", "trial_index": 128, "time_elapsed": 582394, "internal_node_id": "0.0-92.0"}}, {"uniqueid": "MTK0753:3X4MXAO0BHVLOO6WWIB4NMUWCJMWRY", "current_trial": 129, "dateTime": 1512694152747, "trialdata": {"rt": -1, "stimulus": "", "key_press": -1, "type": "PRE_RECALL_DELAY", "trial_type": "single-stim", "trial_index": 129, "time_elapsed": 583612, "internal_node_id": "0.0-93.0-0.0"}}, {"uniqueid": "MTK0753:3X4MXAO0BHVLOO6WWIB4NMUWCJMWRY", "current_trial": 130, "dateTime": 1512694153255, "trialdata": {"rt": -1000, "stimulus": "/static/audio/400Hz.wav", "key_press": -1, "type": "PRE_RECALL_ALERT", "trial_type": "single-audio", "trial_index": 130, "time_elapsed": 584120, "internal_node_id": "0.0-94.0"}}, {"uniqueid": "MTK0753:3X4MXAO0BHVLOO6WWIB4NMUWCJMWRY", "current_trial": 131, "dateTime": 1512694213262, "trialdata": {"rt": [1776, 4488, 6560, 8628, 9760, 11648, 13264, 15456, 22900], "recwords": ["piano", "banjo", "queen", "empire", "army", "cowboy", "beef", "oyster", "mop"], "type": "FREE_RECALL", "conditions": [12, 1600, "a", 24000], "trial": 3, "trial_type": "free-recall", "trial_index": 131, "time_elapsed": 644125, "internal_node_id": "0.0-95.0-0.0"}}, {"uniqueid": "MTK0753:3X4MXAO0BHVLOO6WWIB4NMUWCJMWRY", "current_trial": 132, "dateTime": 1512694216087, "trialdata": {"rt": 823, "key_press": 32, "type": "INSTRUCTIONS", "trial_type": "text", "trial_index": 132, "time_elapsed": 646952, "internal_node_id": "0.0-96.0"}}, {"uniqueid": "MTK0753:3X4MXAO0BHVLOO6WWIB4NMUWCJMWRY", "current_trial": 133, "dateTime": 1512694242091, "trialdata": {"rt": [3793, 9101, 11557, 15005, 22000, 23728], "responses": ["11", "22", "13", "12", "22", "10"], "num1": [4, 6, 2, 8, 7, 1, 4], "num2": [5, 9, 9, 2, 9, 8, 7], "num3": [2, 7, 2, 2, 6, 1, 4], "type": "DISTRACTOR", "conditions": [24, 1600, "v", 24000], "trial": 4, "trial_type": "math-distractor", "trial_index": 133, "time_elapsed": 672956, "internal_node_id": "0.0-97.0"}}, {"uniqueid": "MTK0753:3X4MXAO0BHVLOO6WWIB4NMUWCJMWRY", "current_trial": 134, "dateTime": 1512694245097, "trialdata": {"rt": -1, "stimulus": "<p id=\"stim\">10</p>", "key_press": -1, "trial_type": "single-stim", "trial_index": 134, "time_elapsed": 675962, "internal_node_id": "0.0-98.0-0.0"}}, {"uniqueid": "MTK0753:3X4MXAO0BHVLOO6WWIB4NMUWCJMWRY", "current_trial": 135, "dateTime": 1512694246102, "trialdata": {"rt": -1, "stimulus": "<p id=\"stim\">9</p>", "key_press": -1, "trial_type": "single-stim", "trial_index": 135, "time_elapsed": 676966, "internal_node_id": "0.0-98.0-1.0"}}, {"uniqueid": "MTK0753:3X4MXAO0BHVLOO6WWIB4NMUWCJMWRY", "current_trial": 136, "dateTime": 1512694247106, "trialdata": {"rt": -1, "stimulus": "<p id=\"stim\">8</p>", "key_press": -1, "trial_type": "single-stim", "trial_index": 136, "time_elapsed": 677971, "internal_node_id": "0.0-98.0-2.0"}}, {"uniqueid": "MTK0753:3X4MXAO0BHVLOO6WWIB4NMUWCJMWRY", "current_trial": 137, "dateTime": 1512694248110, "trialdata": {"rt": -1, "stimulus": "<p id=\"stim\">7</p>", "key_press": -1, "trial_type": "single-stim", "trial_index": 137, "time_elapsed": 678975, "internal_node_id": "0.0-98.0-3.0"}}, {"uniqueid": "MTK0753:3X4MXAO0BHVLOO6WWIB4NMUWCJMWRY", "current_trial": 138, "dateTime": 1512694249111, "trialdata": {"rt": -1, "stimulus": "<p id=\"stim\">6</p>", "key_press": -1, "trial_type": "single-stim", "trial_index": 138, "time_elapsed": 679976, "internal_node_id": "0.0-98.0-4.0"}}, {"uniqueid": "MTK0753:3X4MXAO0BHVLOO6WWIB4NMUWCJMWRY", "current_trial": 139, "dateTime": 1512694250112, "trialdata": {"rt": -1, "stimulus": "<p id=\"stim\">5</p>", "key_press": -1, "trial_type": "single-stim", "trial_index": 139, "time_elapsed": 680977, "internal_node_id": "0.0-98.0-5.0"}}, {"uniqueid": "MTK0753:3X4MXAO0BHVLOO6WWIB4NMUWCJMWRY", "current_trial": 140, "dateTime": 1512694251116, "trialdata": {"rt": -1, "stimulus": "<p id=\"stim\">4</p>", "key_press": -1, "trial_type": "single-stim", "trial_index": 140, "time_elapsed": 681981, "internal_node_id": "0.0-98.0-6.0"}}, {"uniqueid": "MTK0753:3X4MXAO0BHVLOO6WWIB4NMUWCJMWRY", "current_trial": 141, "dateTime": 1512694252120, "trialdata": {"rt": -1, "stimulus": "<p id=\"stim\">3</p>", "key_press": -1, "trial_type": "single-stim", "trial_index": 141, "time_elapsed": 682985, "internal_node_id": "0.0-98.0-7.0"}}, {"uniqueid": "MTK0753:3X4MXAO0BHVLOO6WWIB4NMUWCJMWRY", "current_trial": 142, "dateTime": 1512694253124, "trialdata": {"rt": -1, "stimulus": "<p id=\"stim\">2</p>", "key_press": -1, "trial_type": "single-stim", "trial_index": 142, "time_elapsed": 683989, "internal_node_id": "0.0-98.0-8.0"}}, {"uniqueid": "MTK0753:3X4MXAO0BHVLOO6WWIB4NMUWCJMWRY", "current_trial": 143, "dateTime": 1512694254126, "trialdata": {"rt": -1, "stimulus": "<p id=\"stim\">1</p>", "key_press": -1, "trial_type": "single-stim", "trial_index": 143, "time_elapsed": 684991, "internal_node_id": "0.0-98.0-9.0"}}, {"uniqueid": "MTK0753:3X4MXAO0BHVLOO6WWIB4NMUWCJMWRY", "current_trial": 144, "dateTime": 1512694255629, "trialdata": {"rt": -1, "stimulus": "<p id=\"stim\">+</p>", "key_press": -1, "type": "FIXATION", "trial_type": "single-stim", "trial_index": 144, "time_elapsed": 686494, "internal_node_id": "0.0-99.0-0.0"}}, {"uniqueid": "MTK0753:3X4MXAO0BHVLOO6WWIB4NMUWCJMWRY", "current_trial": 145, "dateTime": 1512694257234, "trialdata": {"rt": -1, "stimulus": "<p id=\"stim\">VIRUS</p>", "key_press": -1, "type": "PRES_VIS", "word": "virus", "wordID": 1571, "conditions": [24, 1600, "v", 24000], "trial": 4, "serialpos": 0, "trial_type": "single-stim", "trial_index": 145, "time_elapsed": 688099, "internal_node_id": "0.0-100.0"}}, {"uniqueid": "MTK0753:3X4MXAO0BHVLOO6WWIB4NMUWCJMWRY", "current_trial": 146, "dateTime": 1512694259817, "trialdata": {"rt": -1, "stimulus": "<p id=\"stim\">PIMPLE</p>", "key_press": -1, "type": "PRES_VIS", "word": "pimple", "wordID": 1070, "conditions": [24, 1600, "v", 24000], "trial": 4, "serialpos": 1, "trial_type": "single-stim", "trial_index": 146, "time_elapsed": 690682, "internal_node_id": "0.0-101.0"}}, {"uniqueid": "MTK0753:3X4MXAO0BHVLOO6WWIB4NMUWCJMWRY", "current_trial": 147, "dateTime": 1512694262490, "trialdata": {"rt": -1, "stimulus": "<p id=\"stim\">VALVE</p>", "key_press": -1, "type": "PRES_VIS", "word": "valve", "wordID": 1545, "conditions": [24, 1600, "v", 24000], "trial": 4, "serialpos": 2, "trial_type": "single-stim", "trial_index": 147, "time_elapsed": 693355, "internal_node_id": "0.0-102.0"}}, {"uniqueid": "MTK0753:3X4MXAO0BHVLOO6WWIB4NMUWCJMWRY", "current_trial": 148, "dateTime": 1512694265244, "trialdata": {"rt": -1, "stimulus": "<p id=\"stim\">BACON</p>", "key_press": -1, "type": "PRES_VIS", "word": "bacon", "wordID": 66, "conditions": [24, 1600, "v", 24000], "trial": 4, "serialpos": 3, "trial_type": "single-stim", "trial_index": 148, "time_elapsed": 696109, "internal_node_id": "0.0-103.0"}}, {"uniqueid": "MTK0753:3X4MXAO0BHVLOO6WWIB4NMUWCJMWRY", "current_trial": 149, "dateTime": 1512694267838, "trialdata": {"rt": -1, "stimulus": "<p id=\"stim\">ROD</p>", "key_press": -1, "type": "PRES_VIS", "word": "rod", "wordID": 1202, "conditions": [24, 1600, "v", 24000], "trial": 4, "serialpos": 4, "trial_type": "single-stim", "trial_index": 149, "time_elapsed": 698703, "internal_node_id": "0.0-104.0"}}, {"uniqueid": "MTK0753:3X4MXAO0BHVLOO6WWIB4NMUWCJMWRY", "current_trial": 150, "dateTime": 1512694270458, "trialdata": {"rt": -1, "stimulus": "<p id=\"stim\">PLAZA</p>", "key_press": -1, "type": "PRES_VIS", "word": "plaza", "wordID": 1087, "conditions": [24, 1600, "v", 24000], "trial": 4, "serialpos": 5, "trial_type": "single-stim", "trial_index": 150, "time_elapsed": 701322, "internal_node_id": "0.0-105.0"}}, {"uniqueid": "MTK0753:3X4MXAO0BHVLOO6WWIB4NMUWCJMWRY", "current_trial": 151, "dateTime": 1512694273132, "trialdata": {"rt": -1, "stimulus": "<p id=\"stim\">SIDEWALK</p>", "key_press": -1, "type": "PRES_VIS", "word": "sidewalk", "wordID": 1302, "conditions": [24, 1600, "v", 24000], "trial": 4, "serialpos": 6, "trial_type": "single-stim", "trial_index": 151, "time_elapsed": 703996, "internal_node_id": "0.0-106.0"}}, {"uniqueid": "MTK0753:3X4MXAO0BHVLOO6WWIB4NMUWCJMWRY", "current_trial": 152, "dateTime": 1512694275807, "trialdata": {"rt": -1, "stimulus": "<p id=\"stim\">THIEF</p>", "key_press": -1, "type": "PRES_VIS", "word": "thief", "wordID": 1455, "conditions": [24, 1600, "v", 24000], "trial": 4, "serialpos": 7, "trial_type": "single-stim", "trial_index": 152, "time_elapsed": 706672, "internal_node_id": "0.0-107.0"}}, {"uniqueid": "MTK0753:3X4MXAO0BHVLOO6WWIB4NMUWCJMWRY", "current_trial": 153, "dateTime": 1512694278350, "trialdata": {"rt": -1, "stimulus": "<p id=\"stim\">FRECKLE</p>", "key_press": -1, "type": "PRES_VIS", "word": "freckle", "wordID": 601, "conditions": [24, 1600, "v", 24000], "trial": 4, "serialpos": 8, "trial_type": "single-stim", "trial_index": 153, "time_elapsed": 709214, "internal_node_id": "0.0-108.0"}}, {"uniqueid": "MTK0753:3X4MXAO0BHVLOO6WWIB4NMUWCJMWRY", "current_trial": 154, "dateTime": 1512694281014, "trialdata": {"rt": -1, "stimulus": "<p id=\"stim\">BUG</p>", "key_press": -1, "type": "PRES_VIS", "word": "bug", "wordID": 186, "conditions": [24, 1600, "v", 24000], "trial": 4, "serialpos": 9, "trial_type": "single-stim", "trial_index": 154, "time_elapsed": 711879, "internal_node_id": "0.0-109.0"}}, {"uniqueid": "MTK0753:3X4MXAO0BHVLOO6WWIB4NMUWCJMWRY", "current_trial": 155, "dateTime": 1512694283550, "trialdata": {"rt": -1, "stimulus": "<p id=\"stim\">FILM</p>", "key_press": -1, "type": "PRES_VIS", "word": "film", "wordID": 564, "conditions": [24, 1600, "v", 24000], "trial": 4, "serialpos": 10, "trial_type": "single-stim", "trial_index": 155, "time_elapsed": 714415, "internal_node_id": "0.0-110.0"}}, {"uniqueid": "MTK0753:3X4MXAO0BHVLOO6WWIB4NMUWCJMWRY", "current_trial": 156, "dateTime": 1512694286081, "trialdata": {"rt": -1, "stimulus": "<p id=\"stim\">COOKBOOK</p>", "key_press": -1, "type": "PRES_VIS", "word": "cookbook", "wordID": 372, "conditions": [24, 1600, "v", 24000], "trial": 4, "serialpos": 11, "trial_type": "single-stim", "trial_index": 156, "time_elapsed": 716946, "internal_node_id": "0.0-111.0"}}, {"uniqueid": "MTK0753:3X4MXAO0BHVLOO6WWIB4NMUWCJMWRY", "current_trial": 157, "dateTime": 1512694288542, "trialdata": {"rt": -1, "stimulus": "<p id=\"stim\">DOUGHNUT</p>", "key_press": -1, "type": "PRES_VIS", "word": "doughnut", "wordID": 489, "conditions": [24, 1600, "v", 24000], "trial": 4, "serialpos": 12, "trial_type": "single-stim", "trial_index": 157, "time_elapsed": 719407, "internal_node_id": "0.0-112.0"}}, {"uniqueid": "MTK0753:3X4MXAO0BHVLOO6WWIB4NMUWCJMWRY", "current_trial": 158, "dateTime": 1512694291080, "trialdata": {"rt": -1, "stimulus": "<p id=\"stim\">CABBAGE</p>", "key_press": -1, "type": "PRES_VIS", "word": "cabbage", "wordID": 209, "conditions": [24, 1600, "v", 24000], "trial": 4, "serialpos": 13, "trial_type": "single-stim", "trial_index": 158, "time_elapsed": 721945, "internal_node_id": "0.0-113.0"}}, {"uniqueid": "MTK0753:3X4MXAO0BHVLOO6WWIB4NMUWCJMWRY", "current_trial": 159, "dateTime": 1512694293705, "trialdata": {"rt": -1, "stimulus": "<p id=\"stim\">TROUT</p>", "key_press": -1, "type": "PRES_VIS", "word": "trout", "wordID": 1510, "conditions": [24, 1600, "v", 24000], "trial": 4, "serialpos": 14, "trial_type": "single-stim", "trial_index": 159, "time_elapsed": 724570, "internal_node_id": "0.0-114.0"}}, {"uniqueid": "MTK0753:3X4MXAO0BHVLOO6WWIB4NMUWCJMWRY", "current_trial": 160, "dateTime": 1512694296244, "trialdata": {"rt": -1, "stimulus": "<p id=\"stim\">HAMPER</p>", "key_press": -1, "type": "PRES_VIS", "word": "hamper", "wordID": 681, "conditions": [24, 1600, "v", 24000], "trial": 4, "serialpos": 15, "trial_type": "single-stim", "trial_index": 160, "time_elapsed": 727109, "internal_node_id": "0.0-115.0"}}, {"uniqueid": "MTK0753:3X4MXAO0BHVLOO6WWIB4NMUWCJMWRY", "current_trial": 161, "dateTime": 1512694298670, "trialdata": {"rt": -1, "stimulus": "<p id=\"stim\">CIGAR</p>", "key_press": -1, "type": "PRES_VIS", "word": "cigar", "wordID": 307, "conditions": [24, 1600, "v", 24000], "trial": 4, "serialpos": 16, "trial_type": "single-stim", "trial_index": 161, "time_elapsed": 729535, "internal_node_id": "0.0-116.0"}}, {"uniqueid": "MTK0753:3X4MXAO0BHVLOO6WWIB4NMUWCJMWRY", "current_trial": 162, "dateTime": 1512694301218, "trialdata": {"rt": -1, "stimulus": "<p id=\"stim\">MUFFIN</p>", "key_press": -1, "type": "PRES_VIS", "word": "muffin", "wordID": 928, "conditions": [24, 1600, "v", 24000], "trial": 4, "serialpos": 17, "trial_type": "single-stim", "trial_index": 162, "time_elapsed": 732083, "internal_node_id": "0.0-117.0"}}, {"uniqueid": "MTK0753:3X4MXAO0BHVLOO6WWIB4NMUWCJMWRY", "current_trial": 163, "dateTime": 1512694303644, "trialdata": {"rt": -1, "stimulus": "<p id=\"stim\">CLIMBER</p>", "key_press": -1, "type": "PRES_VIS", "word": "climber", "wordID": 322, "conditions": [24, 1600, "v", 24000], "trial": 4, "serialpos": 18, "trial_type": "single-stim", "trial_index": 163, "time_elapsed": 734509, "internal_node_id": "0.0-118.0"}}, {"uniqueid": "MTK0753:3X4MXAO0BHVLOO6WWIB4NMUWCJMWRY", "current_trial": 164, "dateTime": 1512694306303, "trialdata": {"rt": -1, "stimulus": "<p id=\"stim\">HIKER</p>", "key_press": -1, "type": "PRES_VIS", "word": "hiker", "wordID": 707, "conditions": [24, 1600, "v", 24000], "trial": 4, "serialpos": 19, "trial_type": "single-stim", "trial_index": 164, "time_elapsed": 737167, "internal_node_id": "0.0-119.0"}}, {"uniqueid": "MTK0753:3X4MXAO0BHVLOO6WWIB4NMUWCJMWRY", "current_trial": 165, "dateTime": 1512694308851, "trialdata": {"rt": -1, "stimulus": "<p id=\"stim\">CLOCK</p>", "key_press": -1, "type": "PRES_VIS", "word": "clock", "wordID": 324, "conditions": [24, 1600, "v", 24000], "trial": 4, "serialpos": 20, "trial_type": "single-stim", "trial_index": 165, "time_elapsed": 739716, "internal_node_id": "0.0-120.0"}}, {"uniqueid": "MTK0753:3X4MXAO0BHVLOO6WWIB4NMUWCJMWRY", "current_trial": 166, "dateTime": 1512694311294, "trialdata": {"rt": -1, "stimulus": "<p id=\"stim\">PECAN</p>", "key_press": -1, "type": "PRES_VIS", "word": "pecan", "wordID": 1035, "conditions": [24, 1600, "v", 24000], "trial": 4, "serialpos": 21, "trial_type": "single-stim", "trial_index": 166, "time_elapsed": 742159, "internal_node_id": "0.0-121.0"}}, {"uniqueid": "MTK0753:3X4MXAO0BHVLOO6WWIB4NMUWCJMWRY", "current_trial": 167, "dateTime": 1512694313900, "trialdata": {"rt": -1, "stimulus": "<p id=\"stim\">COMET</p>", "key_press": -1, "type": "PRES_VIS", "word": "comet", "wordID": 352, "conditions": [24, 1600, "v", 24000], "trial": 4, "serialpos": 22, "trial_type": "single-stim", "trial_index": 167, "time_elapsed": 744765, "internal_node_id": "0.0-122.0"}}, {"uniqueid": "MTK0753:3X4MXAO0BHVLOO6WWIB4NMUWCJMWRY", "current_trial": 168, "dateTime": 1512694316506, "trialdata": {"rt": -1, "stimulus": "<p id=\"stim\">RECEIPT</p>", "key_press": -1, "type": "PRES_VIS", "word": "receipt", "wordID": 1172, "conditions": [24, 1600, "v", 24000], "trial": 4, "serialpos": 23, "trial_type": "single-stim", "trial_index": 168, "time_elapsed": 747370, "internal_node_id": "0.0-123.0"}}, {"uniqueid": "MTK0753:3X4MXAO0BHVLOO6WWIB4NMUWCJMWRY", "current_trial": 169, "dateTime": 1512694318629, "trialdata": {"rt": -1, "stimulus": "", "key_press": -1, "type": "PRE_RECALL_DELAY", "trial_type": "single-stim", "trial_index": 169, "time_elapsed": 749494, "internal_node_id": "0.0-124.0-0.0"}}, {"uniqueid": "MTK0753:3X4MXAO0BHVLOO6WWIB4NMUWCJMWRY", "current_trial": 170, "dateTime": 1512694319130, "trialdata": {"rt": -1000, "stimulus": "/static/audio/400Hz.wav", "key_press": -1, "type": "PRE_RECALL_ALERT", "trial_type": "single-audio", "trial_index": 170, "time_elapsed": 749995, "internal_node_id": "0.0-125.0"}}, {"uniqueid": "MTK0753:3X4MXAO0BHVLOO6WWIB4NMUWCJMWRY", "current_trial": 171, "dateTime": 1512694379143, "trialdata": {"rt": [1851, 3994, 7170, 10346, 12626, 14083, 16267, 17675, 19179, 20499, 22315, 55351, 56638], "recwords": ["film", "cookbook", "cabbage", "doughut", "muffin", "virus", "pimple", "bacon", "valve", "rod", "trout", "hiker", "clock"], "type": "FREE_RECALL", "conditions": [24, 1600, "v", 24000], "trial": 4, "trial_type": "free-recall", "trial_index": 171, "time_elapsed": 810005, "internal_node_id": "0.0-126.0-0.0"}}, {"uniqueid": "MTK0753:3X4MXAO0BHVLOO6WWIB4NMUWCJMWRY", "current_trial": 172, "dateTime": 1512694382045, "trialdata": {"rt": 898, "key_press": 32, "type": "INSTRUCTIONS", "trial_type": "text", "trial_index": 172, "time_elapsed": 812910, "internal_node_id": "0.0-127.0"}}, {"uniqueid": "MTK0753:3X4MXAO0BHVLOO6WWIB4NMUWCJMWRY", "current_trial": 173, "dateTime": 1512694396054, "trialdata": {"rt": [4507, 6179, 9879], "responses": ["14", "14", "18"], "num1": [2, 1, 7, 9], "num2": [9, 9, 6, 6], "num3": [3, 4, 5, 8], "type": "DISTRACTOR", "conditions": [24, 1600, "v", 12000], "trial": 5, "trial_type": "math-distractor", "trial_index": 173, "time_elapsed": 826919, "internal_node_id": "0.0-128.0"}}, {"uniqueid": "MTK0753:3X4MXAO0BHVLOO6WWIB4NMUWCJMWRY", "current_trial": 174, "dateTime": 1512694399057, "trialdata": {"rt": -1, "stimulus": "<p id=\"stim\">10</p>", "key_press": -1, "trial_type": "single-stim", "trial_index": 174, "time_elapsed": 829922, "internal_node_id": "0.0-129.0-0.0"}}, {"uniqueid": "MTK0753:3X4MXAO0BHVLOO6WWIB4NMUWCJMWRY", "current_trial": 175, "dateTime": 1512694400059, "trialdata": {"rt": -1, "stimulus": "<p id=\"stim\">9</p>", "key_press": -1, "trial_type": "single-stim", "trial_index": 175, "time_elapsed": 830924, "internal_node_id": "0.0-129.0-1.0"}}, {"uniqueid": "MTK0753:3X4MXAO0BHVLOO6WWIB4NMUWCJMWRY", "current_trial": 176, "dateTime": 1512694401061, "trialdata": {"rt": -1, "stimulus": "<p id=\"stim\">8</p>", "key_press": -1, "trial_type": "single-stim", "trial_index": 176, "time_elapsed": 831926, "internal_node_id": "0.0-129.0-2.0"}}, {"uniqueid": "MTK0753:3X4MXAO0BHVLOO6WWIB4NMUWCJMWRY", "current_trial": 177, "dateTime": 1512694402064, "trialdata": {"rt": -1, "stimulus": "<p id=\"stim\">7</p>", "key_press": -1, "trial_type": "single-stim", "trial_index": 177, "time_elapsed": 832928, "internal_node_id": "0.0-129.0-3.0"}}, {"uniqueid": "MTK0753:3X4MXAO0BHVLOO6WWIB4NMUWCJMWRY", "current_trial": 178, "dateTime": 1512694403065, "trialdata": {"rt": -1, "stimulus": "<p id=\"stim\">6</p>", "key_press": -1, "trial_type": "single-stim", "trial_index": 178, "time_elapsed": 833930, "internal_node_id": "0.0-129.0-4.0"}}, {"uniqueid": "MTK0753:3X4MXAO0BHVLOO6WWIB4NMUWCJMWRY", "current_trial": 179, "dateTime": 1512694404070, "trialdata": {"rt": -1, "stimulus": "<p id=\"stim\">5</p>", "key_press": -1, "trial_type": "single-stim", "trial_index": 179, "time_elapsed": 834934, "internal_node_id": "0.0-129.0-5.0"}}, {"uniqueid": "MTK0753:3X4MXAO0BHVLOO6WWIB4NMUWCJMWRY", "current_trial": 180, "dateTime": 1512694405074, "trialdata": {"rt": -1, "stimulus": "<p id=\"stim\">4</p>", "key_press": -1, "trial_type": "single-stim", "trial_index": 180, "time_elapsed": 835939, "internal_node_id": "0.0-129.0-6.0"}}, {"uniqueid": "MTK0753:3X4MXAO0BHVLOO6WWIB4NMUWCJMWRY", "current_trial": 181, "dateTime": 1512694406078, "trialdata": {"rt": -1, "stimulus": "<p id=\"stim\">3</p>", "key_press": -1, "trial_type": "single-stim", "trial_index": 181, "time_elapsed": 836942, "internal_node_id": "0.0-129.0-7.0"}}, {"uniqueid": "MTK0753:3X4MXAO0BHVLOO6WWIB4NMUWCJMWRY", "current_trial": 182, "dateTime": 1512694407082, "trialdata": {"rt": -1, "stimulus": "<p id=\"stim\">2</p>", "key_press": -1, "trial_type": "single-stim", "trial_index": 182, "time_elapsed": 837947, "internal_node_id": "0.0-129.0-8.0"}}, {"uniqueid": "MTK0753:3X4MXAO0BHVLOO6WWIB4NMUWCJMWRY", "current_trial": 183, "dateTime": 1512694408086, "trialdata": {"rt": -1, "stimulus": "<p id=\"stim\">1</p>", "key_press": -1, "trial_type": "single-stim", "trial_index": 183, "time_elapsed": 838951, "internal_node_id": "0.0-129.0-9.0"}}, {"uniqueid": "MTK0753:3X4MXAO0BHVLOO6WWIB4NMUWCJMWRY", "current_trial": 184, "dateTime": 1512694409589, "trialdata": {"rt": -1, "stimulus": "<p id=\"stim\">+</p>", "key_press": -1, "type": "FIXATION", "trial_type": "single-stim", "trial_index": 184, "time_elapsed": 840454, "internal_node_id": "0.0-130.0-0.0"}}, {"uniqueid": "MTK0753:3X4MXAO0BHVLOO6WWIB4NMUWCJMWRY", "current_trial": 185, "dateTime": 1512694411193, "trialdata": {"rt": -1, "stimulus": "<p id=\"stim\">VALLEY</p>", "key_press": -1, "type": "PRES_VIS", "word": "valley", "wordID": 1544, "conditions": [24, 1600, "v", 12000], "trial": 5, "serialpos": 0, "trial_type": "single-stim", "trial_index": 185, "time_elapsed": 842058, "internal_node_id": "0.0-131.0"}}, {"uniqueid": "MTK0753:3X4MXAO0BHVLOO6WWIB4NMUWCJMWRY", "current_trial": 186, "dateTime": 1512694413710, "trialdata": {"rt": -1, "stimulus": "<p id=\"stim\">CANYON</p>", "key_press": -1, "type": "PRES_VIS", "word": "canyon", "wordID": 234, "conditions": [24, 1600, "v", 12000], "trial": 5, "serialpos": 1, "trial_type": "single-stim", "trial_index": 186, "time_elapsed": 844575, "internal_node_id": "0.0-132.0"}}, {"uniqueid": "MTK0753:3X4MXAO0BHVLOO6WWIB4NMUWCJMWRY", "current_trial": 187, "dateTime": 1512694416356, "trialdata": {"rt": -1, "stimulus": "<p id=\"stim\">WASHER</p>", "key_press": -1, "type": "PRES_VIS", "word": "washer", "wordID": 1591, "conditions": [24, 1600, "v", 12000], "trial": 5, "serialpos": 2, "trial_type": "single-stim", "trial_index": 187, "time_elapsed": 847221, "internal_node_id": "0.0-133.0"}}, {"uniqueid": "MTK0753:3X4MXAO0BHVLOO6WWIB4NMUWCJMWRY", "current_trial": 188, "dateTime": 1512694418765, "trialdata": {"rt": -1, "stimulus": "<p id=\"stim\">BANKER</p>", "key_press": -1, "type": "PRES_VIS", "word": "banker", "wordID": 83, "conditions": [24, 1600, "v", 12000], "trial": 5, "serialpos": 3, "trial_type": "single-stim", "trial_index": 188, "time_elapsed": 849629, "internal_node_id": "0.0-134.0"}}, {"uniqueid": "MTK0753:3X4MXAO0BHVLOO6WWIB4NMUWCJMWRY", "current_trial": 189, "dateTime": 1512694421366, "trialdata": {"rt": -1, "stimulus": "<p id=\"stim\">PLAID</p>", "key_press": -1, "type": "PRES_VIS", "word": "plaid", "wordID": 1079, "conditions": [24, 1600, "v", 12000], "trial": 5, "serialpos": 4, "trial_type": "single-stim", "trial_index": 189, "time_elapsed": 852231, "internal_node_id": "0.0-135.0"}}, {"uniqueid": "MTK0753:3X4MXAO0BHVLOO6WWIB4NMUWCJMWRY", "current_trial": 190, "dateTime": 1512694423850, "trialdata": {"rt": -1, "stimulus": "<p id=\"stim\">SISTER</p>", "key_press": -1, "type": "PRES_VIS", "word": "sister", "wordID": 1311, "conditions": [24, 1600, "v", 12000], "trial": 5, "serialpos": 5, "trial_type": "single-stim", "trial_index": 190, "time_elapsed": 854715, "internal_node_id": "0.0-136.0"}}, {"uniqueid": "MTK0753:3X4MXAO0BHVLOO6WWIB4NMUWCJMWRY", "current_trial": 191, "dateTime": 1512694426480, "trialdata": {"rt": -1, "stimulus": "<p id=\"stim\">ROBBER</p>", "key_press": -1, "type": "PRES_VIS", "word": "robber", "wordID": 1196, "conditions": [24, 1600, "v", 12000], "trial": 5, "serialpos": 6, "trial_type": "single-stim", "trial_index": 191, "time_elapsed": 857344, "internal_node_id": "0.0-137.0"}}, {"uniqueid": "MTK0753:3X4MXAO0BHVLOO6WWIB4NMUWCJMWRY", "current_trial": 192, "dateTime": 1512694429219, "trialdata": {"rt": -1, "stimulus": "<p id=\"stim\">MARS</p>", "key_press": -1, "type": "PRES_VIS", "word": "mars", "wordID": 872, "conditions": [24, 1600, "v", 12000], "trial": 5, "serialpos": 7, "trial_type": "single-stim", "trial_index": 192, "time_elapsed": 860084, "internal_node_id": "0.0-138.0"}}, {"uniqueid": "MTK0753:3X4MXAO0BHVLOO6WWIB4NMUWCJMWRY", "current_trial": 193, "dateTime": 1512694431808, "trialdata": {"rt": -1, "stimulus": "<p id=\"stim\">SIBLING</p>", "key_press": -1, "type": "PRES_VIS", "word": "sibling", "wordID": 1300, "conditions": [24, 1600, "v", 12000], "trial": 5, "serialpos": 8, "trial_type": "single-stim", "trial_index": 193, "time_elapsed": 862673, "internal_node_id": "0.0-139.0"}}, {"uniqueid": "MTK0753:3X4MXAO0BHVLOO6WWIB4NMUWCJMWRY", "current_trial": 194, "dateTime": 1512694434611, "trialdata": {"rt": -1, "stimulus": "<p id=\"stim\">WAITRESS</p>", "key_press": -1, "type": "PRES_VIS", "word": "waitress", "wordID": 1580, "conditions": [24, 1600, "v", 12000], "trial": 5, "serialpos": 9, "trial_type": "single-stim", "trial_index": 194, "time_elapsed": 865476, "internal_node_id": "0.0-140.0"}}, {"uniqueid": "MTK0753:3X4MXAO0BHVLOO6WWIB4NMUWCJMWRY", "current_trial": 195, "dateTime": 1512694437258, "trialdata": {"rt": -1, "stimulus": "<p id=\"stim\">FRIEND</p>", "key_press": -1, "type": "PRES_VIS", "word": "friend", "wordID": 605, "conditions": [24, 1600, "v", 12000], "trial": 5, "serialpos": 10, "trial_type": "single-stim", "trial_index": 195, "time_elapsed": 868123, "internal_node_id": "0.0-141.0"}}, {"uniqueid": "MTK0753:3X4MXAO0BHVLOO6WWIB4NMUWCJMWRY", "current_trial": 196, "dateTime": 1512694439911, "trialdata": {"rt": -1, "stimulus": "<p id=\"stim\">GUITAR</p>", "key_press": -1, "type": "PRES_VIS", "word": "guitar", "wordID": 669, "conditions": [24, 1600, "v", 12000], "trial": 5, "serialpos": 11, "trial_type": "single-stim", "trial_index": 196, "time_elapsed": 870776, "internal_node_id": "0.0-142.0"}}, {"uniqueid": "MTK0753:3X4MXAO0BHVLOO6WWIB4NMUWCJMWRY", "current_trial": 197, "dateTime": 1512694442447, "trialdata": {"rt": -1, "stimulus": "<p id=\"stim\">PENGUIN</p>", "key_press": -1, "type": "PRES_VIS", "word": "penguin", "wordID": 1043, "conditions": [24, 1600, "v", 12000], "trial": 5, "serialpos": 12, "trial_type": "single-stim", "trial_index": 197, "time_elapsed": 873312, "internal_node_id": "0.0-143.0"}}, {"uniqueid": "MTK0753:3X4MXAO0BHVLOO6WWIB4NMUWCJMWRY", "current_trial": 198, "dateTime": 1512694445140, "trialdata": {"rt": -1, "stimulus": "<p id=\"stim\">DRINK</p>", "key_press": -1, "type": "PRES_VIS", "word": "drink", "wordID": 497, "conditions": [24, 1600, "v", 12000], "trial": 5, "serialpos": 13, "trial_type": "single-stim", "trial_index": 198, "time_elapsed": 876005, "internal_node_id": "0.0-144.0"}}, {"uniqueid": "MTK0753:3X4MXAO0BHVLOO6WWIB4NMUWCJMWRY", "current_trial": 199, "dateTime": 1512694447613, "trialdata": {"rt": -1, "stimulus": "<p id=\"stim\">ACTRESS</p>", "key_press": -1, "type": "PRES_VIS", "word": "actress", "wordID": 5, "conditions": [24, 1600, "v", 12000], "trial": 5, "serialpos": 14, "trial_type": "single-stim", "trial_index": 199, "time_elapsed": 878478, "internal_node_id": "0.0-145.0"}}, {"uniqueid": "MTK0753:3X4MXAO0BHVLOO6WWIB4NMUWCJMWRY", "current_trial": 200, "dateTime": 1512694450219, "trialdata": {"rt": -1, "stimulus": "<p id=\"stim\">GIRL</p>", "key_press": -1, "type": "PRES_VIS", "word": "girl", "wordID": 636, "conditions": [24, 1600, "v", 12000], "trial": 5, "serialpos": 15, "trial_type": "single-stim", "trial_index": 200, "time_elapsed": 881084, "internal_node_id": "0.0-146.0"}}, {"uniqueid": "MTK0753:3X4MXAO0BHVLOO6WWIB4NMUWCJMWRY", "current_trial": 201, "dateTime": 1512694453005, "trialdata": {"rt": -1, "stimulus": "<p id=\"stim\">GOBLIN</p>", "key_press": -1, "type": "PRES_VIS", "word": "goblin", "wordID": 644, "conditions": [24, 1600, "v", 12000], "trial": 5, "serialpos": 16, "trial_type": "single-stim", "trial_index": 201, "time_elapsed": 883870, "internal_node_id": "0.0-147.0"}}, {"uniqueid": "MTK0753:3X4MXAO0BHVLOO6WWIB4NMUWCJMWRY", "current_trial": 202, "dateTime": 1512694455506, "trialdata": {"rt": -1, "stimulus": "<p id=\"stim\">ACTOR</p>", "key_press": -1, "type": "PRES_VIS", "word": "actor", "wordID": 4, "conditions": [24, 1600, "v", 12000], "trial": 5, "serialpos": 17, "trial_type": "single-stim", "trial_index": 202, "time_elapsed": 886371, "internal_node_id": "0.0-148.0"}}, {"uniqueid": "MTK0753:3X4MXAO0BHVLOO6WWIB4NMUWCJMWRY", "current_trial": 203, "dateTime": 1512694458025, "trialdata": {"rt": -1, "stimulus": "<p id=\"stim\">CANAL</p>", "key_press": -1, "type": "PRES_VIS", "word": "canal", "wordID": 225, "conditions": [24, 1600, "v", 12000], "trial": 5, "serialpos": 18, "trial_type": "single-stim", "trial_index": 203, "time_elapsed": 888890, "internal_node_id": "0.0-149.0"}}, {"uniqueid": "MTK0753:3X4MXAO0BHVLOO6WWIB4NMUWCJMWRY", "current_trial": 204, "dateTime": 1512694460755, "trialdata": {"rt": -1, "stimulus": "<p id=\"stim\">RIVER</p>", "key_press": -1, "type": "PRES_VIS", "word": "river", "wordID": 1193, "conditions": [24, 1600, "v", 12000], "trial": 5, "serialpos": 19, "trial_type": "single-stim", "trial_index": 204, "time_elapsed": 891619, "internal_node_id": "0.0-150.0"}}, {"uniqueid": "MTK0753:3X4MXAO0BHVLOO6WWIB4NMUWCJMWRY", "current_trial": 205, "dateTime": 1512694463290, "trialdata": {"rt": -1, "stimulus": "<p id=\"stim\">SUITCASE</p>", "key_press": -1, "type": "PRES_VIS", "word": "suitcase", "wordID": 1402, "conditions": [24, 1600, "v", 12000], "trial": 5, "serialpos": 20, "trial_type": "single-stim", "trial_index": 205, "time_elapsed": 894155, "internal_node_id": "0.0-151.0"}}, {"uniqueid": "MTK0753:3X4MXAO0BHVLOO6WWIB4NMUWCJMWRY", "current_trial": 206, "dateTime": 1512694465965, "trialdata": {"rt": -1, "stimulus": "<p id=\"stim\">MASK</p>", "key_press": -1, "type": "PRES_VIS", "word": "mask", "wordID": 875, "conditions": [24, 1600, "v", 12000], "trial": 5, "serialpos": 21, "trial_type": "single-stim", "trial_index": 206, "time_elapsed": 896830, "internal_node_id": "0.0-152.0"}}, {"uniqueid": "MTK0753:3X4MXAO0BHVLOO6WWIB4NMUWCJMWRY", "current_trial": 207, "dateTime": 1512694468391, "trialdata": {"rt": -1, "stimulus": "<p id=\"stim\">SUSPECT</p>", "key_press": -1, "type": "PRES_VIS", "word": "suspect", "wordID": 1414, "conditions": [24, 1600, "v", 12000], "trial": 5, "serialpos": 22, "trial_type": "single-stim", "trial_index": 207, "time_elapsed": 899256, "internal_node_id": "0.0-153.0"}}, {"uniqueid": "MTK0753:3X4MXAO0BHVLOO6WWIB4NMUWCJMWRY", "current_trial": 208, "dateTime": 1512694471171, "trialdata": {"rt": -1, "stimulus": "<p id=\"stim\">WINDOW</p>", "key_press": -1, "type": "PRES_VIS", "word": "window", "wordID": 1610, "conditions": [24, 1600, "v", 12000], "trial": 5, "serialpos": 23, "trial_type": "single-stim", "trial_index": 208, "time_elapsed": 902036, "internal_node_id": "0.0-154.0"}}, {"uniqueid": "MTK0753:3X4MXAO0BHVLOO6WWIB4NMUWCJMWRY", "current_trial": 209, "dateTime": 1512694473674, "trialdata": {"rt": -1, "stimulus": "", "key_press": -1, "type": "PRE_RECALL_DELAY", "trial_type": "single-stim", "trial_index": 209, "time_elapsed": 904538, "internal_node_id": "0.0-155.0-0.0"}}, {"uniqueid": "MTK0753:3X4MXAO0BHVLOO6WWIB4NMUWCJMWRY", "current_trial": 210, "dateTime": 1512694474175, "trialdata": {"rt": -1000, "stimulus": "/static/audio/400Hz.wav", "key_press": -1, "type": "PRE_RECALL_ALERT", "trial_type": "single-audio", "trial_index": 210, "time_elapsed": 905039, "internal_node_id": "0.0-156.0"}}, {"uniqueid": "MTK0753:3X4MXAO0BHVLOO6WWIB4NMUWCJMWRY", "current_trial": 211, "dateTime": 1512694534184, "trialdata": {"rt": [3488, 5456, 7376, 11097, 12873, 15392, 17920, 19025, 46296], "recwords": ["robber", "goblin", "valley", "banker", "sister", "actress", "waitress", "mask", "sibling"], "type": "FREE_RECALL", "conditions": [24, 1600, "v", 12000], "trial": 5, "trial_type": "free-recall", "trial_index": 211, "time_elapsed": 965046, "internal_node_id": "0.0-157.0-0.0"}}, {"uniqueid": "MTK0753:3X4MXAO0BHVLOO6WWIB4NMUWCJMWRY", "current_trial": 212, "dateTime": 1512694537615, "trialdata": {"rt": 1430, "key_press": 32, "type": "INSTRUCTIONS", "trial_type": "text", "trial_index": 212, "time_elapsed": 968480, "internal_node_id": "0.0-158.0"}}, {"uniqueid": "MTK0753:3X4MXAO0BHVLOO6WWIB4NMUWCJMWRY", "current_trial": 213, "dateTime": 1512694563622, "trialdata": {"rt": [3420, 6644, 13425, 17693, 19725, 22365], "responses": ["9", "12", "21", "22", "10", "16"], "num1": [4, 7, 6, 7, 2, 2, 3], "num2": [2, 4, 6, 9, 4, 9, 3], "num3": [3, 1, 9, 6, 4, 5, 4], "type": "DISTRACTOR", "conditions": [24, 1600, "a", 24000], "trial": 6, "trial_type": "math-distractor", "trial_index": 213, "time_elapsed": 994487, "internal_node_id": "0.0-159.0"}}, {"uniqueid": "MTK0753:3X4MXAO0BHVLOO6WWIB4NMUWCJMWRY", "current_trial": 214, "dateTime": 1512694566628, "trialdata": {"rt": -1, "stimulus": "<p id=\"stim\">10</p>", "key_press": -1, "trial_type": "single-stim", "trial_index": 214, "time_elapsed": 997493, "internal_node_id": "0.0-160.0-0.0"}}, {"uniqueid": "MTK0753:3X4MXAO0BHVLOO6WWIB4NMUWCJMWRY", "current_trial": 215, "dateTime": 1512694567632, "trialdata": {"rt": -1, "stimulus": "<p id=\"stim\">9</p>", "key_press": -1, "trial_type": "single-stim", "trial_index": 215, "time_elapsed": 998497, "internal_node_id": "0.0-160.0-1.0"}}, {"uniqueid": "MTK0753:3X4MXAO0BHVLOO6WWIB4NMUWCJMWRY", "current_trial": 216, "dateTime": 1512694568637, "trialdata": {"rt": -1, "stimulus": "<p id=\"stim\">8</p>", "key_press": -1, "trial_type": "single-stim", "trial_index": 216, "time_elapsed": 999501, "internal_node_id": "0.0-160.0-2.0"}}, {"uniqueid": "MTK0753:3X4MXAO0BHVLOO6WWIB4NMUWCJMWRY", "current_trial": 217, "dateTime": 1512694569641, "trialdata": {"rt": -1, "stimulus": "<p id=\"stim\">7</p>", "key_press": -1, "trial_type": "single-stim", "trial_index": 217, "time_elapsed": 1000506, "internal_node_id": "0.0-160.0-3.0"}}, {"uniqueid": "MTK0753:3X4MXAO0BHVLOO6WWIB4NMUWCJMWRY", "current_trial": 218, "dateTime": 1512694570899, "trialdata": {"rt": -1, "stimulus": "<p id=\"stim\">6</p>", "key_press": -1, "trial_type": "single-stim", "trial_index": 218, "time_elapsed": 1001764, "internal_node_id": "0.0-160.0-4.0"}}, {"uniqueid": "MTK0753:3X4MXAO0BHVLOO6WWIB4NMUWCJMWRY", "current_trial": 219, "dateTime": 1512694571902, "trialdata": {"rt": -1, "stimulus": "<p id=\"stim\">5</p>", "key_press": -1, "trial_type": "single-stim", "trial_index": 219, "time_elapsed": 1002767, "internal_node_id": "0.0-160.0-5.0"}}, {"uniqueid": "MTK0753:3X4MXAO0BHVLOO6WWIB4NMUWCJMWRY", "current_trial": 220, "dateTime": 1512694572903, "trialdata": {"rt": -1, "stimulus": "<p id=\"stim\">4</p>", "key_press": -1, "trial_type": "single-stim", "trial_index": 220, "time_elapsed": 1003768, "internal_node_id": "0.0-160.0-6.0"}}, {"uniqueid": "MTK0753:3X4MXAO0BHVLOO6WWIB4NMUWCJMWRY", "current_trial": 221, "dateTime": 1512694573904, "trialdata": {"rt": -1, "stimulus": "<p id=\"stim\">3</p>", "key_press": -1, "trial_type": "single-stim", "trial_index": 221, "time_elapsed": 1004769, "internal_node_id": "0.0-160.0-7.0"}}, {"uniqueid": "MTK0753:3X4MXAO0BHVLOO6WWIB4NMUWCJMWRY", "current_trial": 222, "dateTime": 1512694574910, "trialdata": {"rt": -1, "stimulus": "<p id=\"stim\">2</p>", "key_press": -1, "trial_type": "single-stim", "trial_index": 222, "time_elapsed": 1005775, "internal_node_id": "0.0-160.0-8.0"}}, {"uniqueid": "MTK0753:3X4MXAO0BHVLOO6WWIB4NMUWCJMWRY", "current_trial": 223, "dateTime": 1512694575911, "trialdata": {"rt": -1, "stimulus": "<p id=\"stim\">1</p>", "key_press": -1, "trial_type": "single-stim", "trial_index": 223, "time_elapsed": 1006776, "internal_node_id": "0.0-160.0-9.0"}}, {"uniqueid": "MTK0753:3X4MXAO0BHVLOO6WWIB4NMUWCJMWRY", "current_trial": 224, "dateTime": 1512694577415, "trialdata": {"rt": -1, "stimulus": "<p id=\"stim\">+</p>", "key_press": -1, "type": "FIXATION", "trial_type": "single-stim", "trial_index": 224, "time_elapsed": 1008280, "internal_node_id": "0.0-161.0-0.0"}}, {"uniqueid": "MTK0753:3X4MXAO0BHVLOO6WWIB4NMUWCJMWRY", "current_trial": 225, "dateTime": 1512694580077, "trialdata": {"rt": -1000, "stimulus": "/static/audio/wordpool/FLASK.wav", "key_press": -1, "type": "PRES_AUD", "word": "flask", "wordID": 575, "conditions": [24, 1600, "a", 24000], "trial": 6, "serialpos": 0, "trial_type": "single-audio", "trial_index": 225, "time_elapsed": 1010942, "internal_node_id": "0.0-162.0"}}, {"uniqueid": "MTK0753:3X4MXAO0BHVLOO6WWIB4NMUWCJMWRY", "current_trial": 226, "dateTime": 1512694582706, "trialdata": {"rt": -1000, "stimulus": "/static/audio/wordpool/SANDWICH.wav", "key_press": -1, "type": "PRES_AUD", "word": "sandwich", "wordID": 1231, "conditions": [24, 1600, "a", 24000], "trial": 6, "serialpos": 1, "trial_type": "single-audio", "trial_index": 226, "time_elapsed": 1013571, "internal_node_id": "0.0-163.0"}}, {"uniqueid": "MTK0753:3X4MXAO0BHVLOO6WWIB4NMUWCJMWRY", "current_trial": 227, "dateTime": 1512694585320, "trialdata": {"rt": -1000, "stimulus": "/static/audio/wordpool/FREEZER.wav", "key_press": -1, "type": "PRES_AUD", "word": "freezer", "wordID": 603, "conditions": [24, 1600, "a", 24000], "trial": 6, "serialpos": 2, "trial_type": "single-audio", "trial_index": 227, "time_elapsed": 1016185, "internal_node_id": "0.0-164.0"}}, {"uniqueid": "MTK0753:3X4MXAO0BHVLOO6WWIB4NMUWCJMWRY", "current_trial": 228, "dateTime": 1512694587845, "trialdata": {"rt": -1000, "stimulus": "/static/audio/wordpool/MAILBOX.wav", "key_press": -1, "type": "PRES_AUD", "word": "mailbox", "wordID": 856, "conditions": [24, 1600, "a", 24000], "trial": 6, "serialpos": 3, "trial_type": "single-audio", "trial_index": 228, "time_elapsed": 1018710, "internal_node_id": "0.0-165.0"}}, {"uniqueid": "MTK0753:3X4MXAO0BHVLOO6WWIB4NMUWCJMWRY", "current_trial": 229, "dateTime": 1512694590261, "trialdata": {"rt": -1000, "stimulus": "/static/audio/wordpool/HOSTESS.wav", "key_press": -1, "type": "PRES_AUD", "word": "hostess", "wordID": 722, "conditions": [24, 1600, "a", 24000], "trial": 6, "serialpos": 4, "trial_type": "single-audio", "trial_index": 229, "time_elapsed": 1021125, "internal_node_id": "0.0-166.0"}}, {"uniqueid": "MTK0753:3X4MXAO0BHVLOO6WWIB4NMUWCJMWRY", "current_trial": 230, "dateTime": 1512694592801, "trialdata": {"rt": -1000, "stimulus": "/static/audio/wordpool/ROOSTER.wav", "key_press": -1, "type": "PRES_AUD", "word": "rooster", "wordID": 1208, "conditions": [24, 1600, "a", 24000], "trial": 6, "serialpos": 5, "trial_type": "single-audio", "trial_index": 230, "time_elapsed": 1023666, "internal_node_id": "0.0-167.0"}}, {"uniqueid": "MTK0753:3X4MXAO0BHVLOO6WWIB4NMUWCJMWRY", "current_trial": 231, "dateTime": 1512694595378, "trialdata": {"rt": -1000, "stimulus": "/static/audio/wordpool/GARBAGE.wav", "key_press": -1, "type": "PRES_AUD", "word": "garbage", "wordID": 621, "conditions": [24, 1600, "a", 24000], "trial": 6, "serialpos": 6, "trial_type": "single-audio", "trial_index": 231, "time_elapsed": 1026243, "internal_node_id": "0.0-168.0"}}, {"uniqueid": "MTK0753:3X4MXAO0BHVLOO6WWIB4NMUWCJMWRY", "current_trial": 232, "dateTime": 1512694598042, "trialdata": {"rt": -1000, "stimulus": "/static/audio/wordpool/GLASS.wav", "key_press": -1, "type": "PRES_AUD", "word": "glass", "wordID": 638, "conditions": [24, 1600, "a", 24000], "trial": 6, "serialpos": 7, "trial_type": "single-audio", "trial_index": 232, "time_elapsed": 1028907, "internal_node_id": "0.0-169.0"}}, {"uniqueid": "MTK0753:3X4MXAO0BHVLOO6WWIB4NMUWCJMWRY", "current_trial": 233, "dateTime": 1512694600513, "trialdata": {"rt": -1000, "stimulus": "/static/audio/wordpool/SKILLET.wav", "key_press": -1, "type": "PRES_AUD", "word": "skillet", "wordID": 1316, "conditions": [24, 1600, "a", 24000], "trial": 6, "serialpos": 8, "trial_type": "single-audio", "trial_index": 233, "time_elapsed": 1031378, "internal_node_id": "0.0-170.0"}}, {"uniqueid": "MTK0753:3X4MXAO0BHVLOO6WWIB4NMUWCJMWRY", "current_trial": 234, "dateTime": 1512694603176, "trialdata": {"rt": -1000, "stimulus": "/static/audio/wordpool/BLENDER.wav", "key_press": -1, "type": "PRES_AUD", "word": "blender", "wordID": 135, "conditions": [24, 1600, "a", 24000], "trial": 6, "serialpos": 9, "trial_type": "single-audio", "trial_index": 234, "time_elapsed": 1034040, "internal_node_id": "0.0-171.0"}}, {"uniqueid": "MTK0753:3X4MXAO0BHVLOO6WWIB4NMUWCJMWRY", "current_trial": 235, "dateTime": 1512694605821, "trialdata": {"rt": -1000, "stimulus": "/static/audio/wordpool/STICKER.wav", "key_press": -1, "type": "PRES_AUD", "word": "sticker", "wordID": 1381, "conditions": [24, 1600, "a", 24000], "trial": 6, "serialpos": 10, "trial_type": "single-audio", "trial_index": 235, "time_elapsed": 1036686, "internal_node_id": "0.0-172.0"}}, {"uniqueid": "MTK0753:3X4MXAO0BHVLOO6WWIB4NMUWCJMWRY", "current_trial": 236, "dateTime": 1512694608405, "trialdata": {"rt": -1000, "stimulus": "/static/audio/wordpool/BEAKER.wav", "key_press": -1, "type": "PRES_AUD", "word": "beaker", "wordID": 103, "conditions": [24, 1600, "a", 24000], "trial": 6, "serialpos": 11, "trial_type": "single-audio", "trial_index": 236, "time_elapsed": 1039270, "internal_node_id": "0.0-173.0"}}, {"uniqueid": "MTK0753:3X4MXAO0BHVLOO6WWIB4NMUWCJMWRY", "current_trial": 237, "dateTime": 1512694610842, "trialdata": {"rt": -1000, "stimulus": "/static/audio/wordpool/SODA.wav", "key_press": -1, "type": "PRES_AUD", "word": "soda", "wordID": 1340, "conditions": [24, 1600, "a", 24000], "trial": 6, "serialpos": 12, "trial_type": "single-audio", "trial_index": 237, "time_elapsed": 1041707, "internal_node_id": "0.0-174.0"}}, {"uniqueid": "MTK0753:3X4MXAO0BHVLOO6WWIB4NMUWCJMWRY", "current_trial": 238, "dateTime": 1512694613497, "trialdata": {"rt": -1000, "stimulus": "/static/audio/wordpool/PARENT.wav", "key_press": -1, "type": "PRES_AUD", "word": "parent", "wordID": 1012, "conditions": [24, 1600, "a", 24000], "trial": 6, "serialpos": 13, "trial_type": "single-audio", "trial_index": 238, "time_elapsed": 1044362, "internal_node_id": "0.0-175.0"}}, {"uniqueid": "MTK0753:3X4MXAO0BHVLOO6WWIB4NMUWCJMWRY", "current_trial": 239, "dateTime": 1512694616173, "trialdata": {"rt": -1000, "stimulus": "/static/audio/wordpool/GARDEN.wav", "key_press": -1, "type": "PRES_AUD", "word": "garden", "wordID": 622, "conditions": [24, 1600, "a", 24000], "trial": 6, "serialpos": 14, "trial_type": "single-audio", "trial_index": 239, "time_elapsed": 1047038, "internal_node_id": "0.0-176.0"}}, {"uniqueid": "MTK0753:3X4MXAO0BHVLOO6WWIB4NMUWCJMWRY", "current_trial": 240, "dateTime": 1512694618931, "trialdata": {"rt": -1000, "stimulus": "/static/audio/wordpool/SHORTCAKE.wav", "key_press": -1, "type": "PRES_AUD", "word": "shortcake", "wordID": 1291, "conditions": [24, 1600, "a", 24000], "trial": 6, "serialpos": 15, "trial_type": "single-audio", "trial_index": 240, "time_elapsed": 1049796, "internal_node_id": "0.0-177.0"}}, {"uniqueid": "MTK0753:3X4MXAO0BHVLOO6WWIB4NMUWCJMWRY", "current_trial": 241, "dateTime": 1512694621403, "trialdata": {"rt": -1000, "stimulus": "/static/audio/wordpool/LONDON.wav", "key_press": -1, "type": "PRES_AUD", "word": "london", "wordID": 842, "conditions": [24, 1600, "a", 24000], "trial": 6, "serialpos": 16, "trial_type": "single-audio", "trial_index": 241, "time_elapsed": 1052268, "internal_node_id": "0.0-178.0"}}, {"uniqueid": "MTK0753:3X4MXAO0BHVLOO6WWIB4NMUWCJMWRY", "current_trial": 242, "dateTime": 1512694624119, "trialdata": {"rt": -1000, "stimulus": "/static/audio/wordpool/COFFEE.wav", "key_press": -1, "type": "PRES_AUD", "word": "coffee", "wordID": 340, "conditions": [24, 1600, "a", 24000], "trial": 6, "serialpos": 17, "trial_type": "single-audio", "trial_index": 242, "time_elapsed": 1054984, "internal_node_id": "0.0-179.0"}}, {"uniqueid": "MTK0753:3X4MXAO0BHVLOO6WWIB4NMUWCJMWRY", "current_trial": 243, "dateTime": 1512694626909, "trialdata": {"rt": -1000, "stimulus": "/static/audio/wordpool/TILE.wav", "key_press": -1, "type": "PRES_AUD", "word": "tile", "wordID": 1467, "conditions": [24, 1600, "a", 24000], "trial": 6, "serialpos": 18, "trial_type": "single-audio", "trial_index": 243, "time_elapsed": 1057773, "internal_node_id": "0.0-180.0"}}, {"uniqueid": "MTK0753:3X4MXAO0BHVLOO6WWIB4NMUWCJMWRY", "current_trial": 244, "dateTime": 1512694629661, "trialdata": {"rt": -1000, "stimulus": "/static/audio/wordpool/GLOBE.wav", "key_press": -1, "type": "PRES_AUD", "word": "globe", "wordID": 640, "conditions": [24, 1600, "a", 24000], "trial": 6, "serialpos": 19, "trial_type": "single-audio", "trial_index": 244, "time_elapsed": 1060526, "internal_node_id": "0.0-181.0"}}, {"uniqueid": "MTK0753:3X4MXAO0BHVLOO6WWIB4NMUWCJMWRY", "current_trial": 245, "dateTime": 1512694632432, "trialdata": {"rt": -1000, "stimulus": "/static/audio/wordpool/WORLD.wav", "key_press": -1, "type": "PRES_AUD", "word": "world", "wordID": 1621, "conditions": [24, 1600, "a", 24000], "trial": 6, "serialpos": 20, "trial_type": "single-audio", "trial_index": 245, "time_elapsed": 1063297, "internal_node_id": "0.0-182.0"}}, {"uniqueid": "MTK0753:3X4MXAO0BHVLOO6WWIB4NMUWCJMWRY", "current_trial": 246, "dateTime": 1512694634871, "trialdata": {"rt": -1000, "stimulus": "/static/audio/wordpool/TYPIST.wav", "key_press": -1, "type": "PRES_AUD", "word": "typist", "wordID": 1531, "conditions": [24, 1600, "a", 24000], "trial": 6, "serialpos": 21, "trial_type": "single-audio", "trial_index": 246, "time_elapsed": 1065736, "internal_node_id": "0.0-183.0"}}, {"uniqueid": "MTK0753:3X4MXAO0BHVLOO6WWIB4NMUWCJMWRY", "current_trial": 247, "dateTime": 1512694637407, "trialdata": {"rt": -1000, "stimulus": "/static/audio/wordpool/TEACHER.wav", "key_press": -1, "type": "PRES_AUD", "word": "teacher", "wordID": 1439, "conditions": [24, 1600, "a", 24000], "trial": 6, "serialpos": 22, "trial_type": "single-audio", "trial_index": 247, "time_elapsed": 1068272, "internal_node_id": "0.0-184.0"}}, {"uniqueid": "MTK0753:3X4MXAO0BHVLOO6WWIB4NMUWCJMWRY", "current_trial": 248, "dateTime": 1512694640185, "trialdata": {"rt": -1000, "stimulus": "/static/audio/wordpool/STATUE.wav", "key_press": -1, "type": "PRES_AUD", "word": "statue", "wordID": 1373, "conditions": [24, 1600, "a", 24000], "trial": 6, "serialpos": 23, "trial_type": "single-audio", "trial_index": 248, "time_elapsed": 1071050, "internal_node_id": "0.0-185.0"}}, {"uniqueid": "MTK0753:3X4MXAO0BHVLOO6WWIB4NMUWCJMWRY", "current_trial": 249, "dateTime": 1512694641408, "trialdata": {"rt": -1, "stimulus": "", "key_press": -1, "type": "PRE_RECALL_DELAY", "trial_type": "single-stim", "trial_index": 249, "time_elapsed": 1072273, "internal_node_id": "0.0-186.0-0.0"}}, {"uniqueid": "MTK0753:3X4MXAO0BHVLOO6WWIB4NMUWCJMWRY", "current_trial": 250, "dateTime": 1512694641910, "trialdata": {"rt": -1000, "stimulus": "/static/audio/400Hz.wav", "key_press": -1, "type": "PRE_RECALL_ALERT", "trial_type": "single-audio", "trial_index": 250, "time_elapsed": 1072774, "internal_node_id": "0.0-187.0"}}, {"uniqueid": "MTK0753:3X4MXAO0BHVLOO6WWIB4NMUWCJMWRY", "current_trial": 251, "dateTime": 1512694701918, "trialdata": {"rt": [2045, 4701, 6125, 8037, 9984, 11822, 13230, 14461, 18597, 19294, 25798], "recwords": ["statue", "globe", "world", "teacher", "typist", "blender", "sticker", "skillet", "beaker", "soda", "statue"], "type": "FREE_RECALL", "conditions": [24, 1600, "a", 24000], "trial": 6, "trial_type": "free-recall", "trial_index": 251, "time_elapsed": 1132779, "internal_node_id": "0.0-188.0-0.0"}}, {"uniqueid": "MTK0753:3X4MXAO0BHVLOO6WWIB4NMUWCJMWRY", "current_trial": 252, "dateTime": 1512694704997, "trialdata": {"rt": 1078, "key_press": 32, "type": "INSTRUCTIONS", "trial_type": "text", "trial_index": 252, "time_elapsed": 1135862, "internal_node_id": "0.0-189.0"}}, {"uniqueid": "MTK0753:3X4MXAO0BHVLOO6WWIB4NMUWCJMWRY", "current_trial": 253, "dateTime": 1512694719005, "trialdata": {"rt": [2587, 4931, 6894, 11773], "responses": ["12", "18", "17", "17"], "num1": [2, 9, 7, 3, 3], "num2": [7, 6, 2, 8, 3], "num3": [3, 3, 8, 6, 1], "type": "DISTRACTOR", "conditions": [24, 800, "v", 12000], "trial": 7, "trial_type": "math-distractor", "trial_index": 253, "time_elapsed": 1149870, "internal_node_id": "0.0-190.0"}}, {"uniqueid": "MTK0753:3X4MXAO0BHVLOO6WWIB4NMUWCJMWRY", "current_trial": 254, "dateTime": 1512694722011, "trialdata": {"rt": -1, "stimulus": "<p id=\"stim\">10</p>", "key_press": -1, "trial_type": "single-stim", "trial_index": 254, "time_elapsed": 1152876, "internal_node_id": "0.0-191.0-0.0"}}, {"uniqueid": "MTK0753:3X4MXAO0BHVLOO6WWIB4NMUWCJMWRY", "current_trial": 255, "dateTime": 1512694723013, "trialdata": {"rt": -1, "stimulus": "<p id=\"stim\">9</p>", "key_press": -1, "trial_type": "single-stim", "trial_index": 255, "time_elapsed": 1153878, "internal_node_id": "0.0-191.0-1.0"}}, {"uniqueid": "MTK0753:3X4MXAO0BHVLOO6WWIB4NMUWCJMWRY", "current_trial": 256, "dateTime": 1512694724014, "trialdata": {"rt": -1, "stimulus": "<p id=\"stim\">8</p>", "key_press": -1, "trial_type": "single-stim", "trial_index": 256, "time_elapsed": 1154879, "internal_node_id": "0.0-191.0-2.0"}}, {"uniqueid": "MTK0753:3X4MXAO0BHVLOO6WWIB4NMUWCJMWRY", "current_trial": 257, "dateTime": 1512694725016, "trialdata": {"rt": -1, "stimulus": "<p id=\"stim\">7</p>", "key_press": -1, "trial_type": "single-stim", "trial_index": 257, "time_elapsed": 1155880, "internal_node_id": "0.0-191.0-3.0"}}, {"uniqueid": "MTK0753:3X4MXAO0BHVLOO6WWIB4NMUWCJMWRY", "current_trial": 258, "dateTime": 1512694726018, "trialdata": {"rt": -1, "stimulus": "<p id=\"stim\">6</p>", "key_press": -1, "trial_type": "single-stim", "trial_index": 258, "time_elapsed": 1156883, "internal_node_id": "0.0-191.0-4.0"}}, {"uniqueid": "MTK0753:3X4MXAO0BHVLOO6WWIB4NMUWCJMWRY", "current_trial": 259, "dateTime": 1512694727019, "trialdata": {"rt": -1, "stimulus": "<p id=\"stim\">5</p>", "key_press": -1, "trial_type": "single-stim", "trial_index": 259, "time_elapsed": 1157884, "internal_node_id": "0.0-191.0-5.0"}}, {"uniqueid": "MTK0753:3X4MXAO0BHVLOO6WWIB4NMUWCJMWRY", "current_trial": 260, "dateTime": 1512694728022, "trialdata": {"rt": -1, "stimulus": "<p id=\"stim\">4</p>", "key_press": -1, "trial_type": "single-stim", "trial_index": 260, "time_elapsed": 1158887, "internal_node_id": "0.0-191.0-6.0"}}, {"uniqueid": "MTK0753:3X4MXAO0BHVLOO6WWIB4NMUWCJMWRY", "current_trial": 261, "dateTime": 1512694729026, "trialdata": {"rt": -1, "stimulus": "<p id=\"stim\">3</p>", "key_press": -1, "trial_type": "single-stim", "trial_index": 261, "time_elapsed": 1159891, "internal_node_id": "0.0-191.0-7.0"}}, {"uniqueid": "MTK0753:3X4MXAO0BHVLOO6WWIB4NMUWCJMWRY", "current_trial": 262, "dateTime": 1512694730031, "trialdata": {"rt": -1, "stimulus": "<p id=\"stim\">2</p>", "key_press": -1, "trial_type": "single-stim", "trial_index": 262, "time_elapsed": 1160896, "internal_node_id": "0.0-191.0-8.0"}}, {"uniqueid": "MTK0753:3X4MXAO0BHVLOO6WWIB4NMUWCJMWRY", "current_trial": 263, "dateTime": 1512694731036, "trialdata": {"rt": -1, "stimulus": "<p id=\"stim\">1</p>", "key_press": -1, "trial_type": "single-stim", "trial_index": 263, "time_elapsed": 1161901, "internal_node_id": "0.0-191.0-9.0"}}, {"uniqueid": "MTK0753:3X4MXAO0BHVLOO6WWIB4NMUWCJMWRY", "current_trial": 264, "dateTime": 1512694732540, "trialdata": {"rt": -1, "stimulus": "<p id=\"stim\">+</p>", "key_press": -1, "type": "FIXATION", "trial_type": "single-stim", "trial_index": 264, "time_elapsed": 1163405, "internal_node_id": "0.0-192.0-0.0"}}, {"uniqueid": "MTK0753:3X4MXAO0BHVLOO6WWIB4NMUWCJMWRY", "current_trial": 265, "dateTime": 1512694733346, "trialdata": {"rt": -1, "stimulus": "<p id=\"stim\">SWIMMER</p>", "key_press": -1, "type": "PRES_VIS", "word": "swimmer", "wordID": 1419, "conditions": [24, 800, "v", 12000], "trial": 7, "serialpos": 0, "trial_type": "single-stim", "trial_index": 265, "time_elapsed": 1164211, "internal_node_id": "0.0-193.0"}}, {"uniqueid": "MTK0753:3X4MXAO0BHVLOO6WWIB4NMUWCJMWRY", "current_trial": 266, "dateTime": 1512694735325, "trialdata": {"rt": -1, "stimulus": "<p id=\"stim\">LUGGAGE</p>", "key_press": -1, "type": "PRES_VIS", "word": "luggage", "wordID": 846, "conditions": [24, 800, "v", 12000], "trial": 7, "serialpos": 1, "trial_type": "single-stim", "trial_index": 266, "time_elapsed": 1166190, "internal_node_id": "0.0-194.0"}}, {"uniqueid": "MTK0753:3X4MXAO0BHVLOO6WWIB4NMUWCJMWRY", "current_trial": 267, "dateTime": 1512694737131, "trialdata": {"rt": -1, "stimulus": "<p id=\"stim\">MAPLE</p>", "key_press": -1, "type": "PRES_VIS", "word": "maple", "wordID": 865, "conditions": [24, 800, "v", 12000], "trial": 7, "serialpos": 2, "trial_type": "single-stim", "trial_index": 267, "time_elapsed": 1167996, "internal_node_id": "0.0-195.0"}}, {"uniqueid": "MTK0753:3X4MXAO0BHVLOO6WWIB4NMUWCJMWRY", "current_trial": 268, "dateTime": 1512694738948, "trialdata": {"rt": -1, "stimulus": "<p id=\"stim\">EAGLE</p>", "key_press": -1, "type": "PRES_VIS", "word": "eagle", "wordID": 511, "conditions": [24, 800, "v", 12000], "trial": 7, "serialpos": 3, "trial_type": "single-stim", "trial_index": 268, "time_elapsed": 1169813, "internal_node_id": "0.0-196.0"}}, {"uniqueid": "MTK0753:3X4MXAO0BHVLOO6WWIB4NMUWCJMWRY", "current_trial": 269, "dateTime": 1512694740869, "trialdata": {"rt": -1, "stimulus": "<p id=\"stim\">FLOWER</p>", "key_press": -1, "type": "PRES_VIS", "word": "flower", "wordID": 583, "conditions": [24, 800, "v", 12000], "trial": 7, "serialpos": 4, "trial_type": "single-stim", "trial_index": 269, "time_elapsed": 1171734, "internal_node_id": "0.0-197.0"}}, {"uniqueid": "MTK0753:3X4MXAO0BHVLOO6WWIB4NMUWCJMWRY", "current_trial": 270, "dateTime": 1512694742628, "trialdata": {"rt": -1, "stimulus": "<p id=\"stim\">CONVICT</p>", "key_press": -1, "type": "PRES_VIS", "word": "convict", "wordID": 370, "conditions": [24, 800, "v", 12000], "trial": 7, "serialpos": 5, "trial_type": "single-stim", "trial_index": 270, "time_elapsed": 1173492, "internal_node_id": "0.0-198.0"}}, {"uniqueid": "MTK0753:3X4MXAO0BHVLOO6WWIB4NMUWCJMWRY", "current_trial": 271, "dateTime": 1512694744601, "trialdata": {"rt": -1, "stimulus": "<p id=\"stim\">GIFT</p>", "key_press": -1, "type": "PRES_VIS", "word": "gift", "