{"condition": 0, "counterbalance": 2359, "assignmentId": "3SEPORI8WO6XJ2PK5U9PR0Z4TFTZA6", "workerId": "MTK0726", "hitId": "301KG0KX9CSK0UWSWR51WRGH5XD2H6", "currenttrial": 626, "bonus": 0, "data": [{"uniqueid": "MTK0726:3SEPORI8WO6XJ2PK5U9PR0Z4TFTZA6", "current_trial": 0, "dateTime": 1512677448842, "trialdata": {"rt": 2300, "key_press": 32, "type": "INSTRUCTIONS", "trial_type": "text", "trial_index": 0, "time_elapsed": 2302, "internal_node_id": "0.0-0.0"}}, {"uniqueid": "MTK0726:3SEPORI8WO6XJ2PK5U9PR0Z4TFTZA6", "current_trial": 1, "dateTime": 1512677493492, "trialdata": {"rt": 44645, "key_press": 32, "type": "INSTRUCTIONS", "trial_type": "text", "trial_index": 1, "time_elapsed": 46952, "internal_node_id": "0.0-1.0"}}, {"uniqueid": "MTK0726:3SEPORI8WO6XJ2PK5U9PR0Z4TFTZA6", "current_trial": 2, "dateTime": 1512677502363, "trialdata": {"rt": [8847], "responses": ["ocean"], "type": "AUDIO_TEST", "trial_type": "audio-test", "trial_index": 2, "time_elapsed": 55824, "internal_node_id": "0.0-2.0"}}, {"uniqueid": "MTK0726:3SEPORI8WO6XJ2PK5U9PR0Z4TFTZA6", "current_trial": 3, "dateTime": 1512677529284, "trialdata": {"rt": [26907], "responses": ["crystal"], "type": "AUDIO_TEST", "trial_type": "audio-test", "trial_index": 3, "time_elapsed": 82744, "internal_node_id": "0.0-3.0"}}, {"uniqueid": "MTK0726:3SEPORI8WO6XJ2PK5U9PR0Z4TFTZA6", "current_trial": 4, "dateTime": 1512677538828, "trialdata": {"rt": [9534], "responses": ["spice"], "type": "AUDIO_TEST", "trial_type": "audio-test", "trial_index": 4, "time_elapsed": 92289, "internal_node_id": "0.0-4.0"}}, {"uniqueid": "MTK0726:3SEPORI8WO6XJ2PK5U9PR0Z4TFTZA6", "current_trial": 5, "dateTime": 1512677575872, "trialdata": {"rt": 36288, "responses": "{\"Q0\":\"1:00 am\",\"Q1\":\"9:00 am\",\"Q2\":\"5\"}", "type": "SLEEP_SURVEY", "trial_type": "survey-text", "trial_index": 5, "time_elapsed": 129333, "internal_node_id": "0.0-5.0"}}, {"uniqueid": "MTK0726:3SEPORI8WO6XJ2PK5U9PR0Z4TFTZA6", "current_trial": 6, "dateTime": 1512677615033, "trialdata": {"rt": 38160, "key_press": 17, "type": "INSTRUCTIONS", "trial_type": "text", "trial_index": 6, "time_elapsed": 168494, "internal_node_id": "0.0-6.0"}}, {"uniqueid": "MTK0726:3SEPORI8WO6XJ2PK5U9PR0Z4TFTZA6", "current_trial": 7, "dateTime": 1512677632286, "trialdata": {"rt": 16752, "key_press": 32, "type": "INSTRUCTIONS", "trial_type": "text", "trial_index": 7, "time_elapsed": 185747, "internal_node_id": "0.0-7.0"}}, {"uniqueid": "MTK0726:3SEPORI8WO6XJ2PK5U9PR0Z4TFTZA6", "current_trial": 8, "dateTime": 1512677644236, "trialdata": {"rt": 11448, "key_press": 32, "type": "INSTRUCTIONS", "trial_type": "text", "trial_index": 8, "time_elapsed": 197696, "internal_node_id": "0.0-8.0"}}, {"uniqueid": "MTK0726:3SEPORI8WO6XJ2PK5U9PR0Z4TFTZA6", "current_trial": 9, "dateTime": 1512677663246, "trialdata": {"rt": [6882, 15064], "responses": ["23", "18"], "num1": [9, 5, 5], "num2": [5, 7, 1], "num3": [9, 6, 7], "type": "DISTRACTOR", "conditions": [18, 1200, "a", 18000], "trial": 0, "trial_type": "math-distractor", "trial_index": 9, "time_elapsed": 216707, "internal_node_id": "0.0-9.0"}}, {"uniqueid": "MTK0726:3SEPORI8WO6XJ2PK5U9PR0Z4TFTZA6", "current_trial": 10, "dateTime": 1512677666249, "trialdata": {"rt": -1, "stimulus": "<p id=\"stim\">10</p>", "key_press": -1, "trial_type": "single-stim", "trial_index": 10, "time_elapsed": 219710, "internal_node_id": "0.0-10.0-0.0"}}, {"uniqueid": "MTK0726:3SEPORI8WO6XJ2PK5U9PR0Z4TFTZA6", "current_trial": 11, "dateTime": 1512677667250, "trialdata": {"rt": -1, "stimulus": "<p id=\"stim\">9</p>", "key_press": -1, "trial_type": "single-stim", "trial_index": 11, "time_elapsed": 220711, "internal_node_id": "0.0-10.0-1.0"}}, {"uniqueid": "MTK0726:3SEPORI8WO6XJ2PK5U9PR0Z4TFTZA6", "current_trial": 12, "dateTime": 1512677668252, "trialdata": {"rt": -1, "stimulus": "<p id=\"stim\">8</p>", "key_press": -1, "trial_type": "single-stim", "trial_index": 12, "time_elapsed": 221713, "internal_node_id": "0.0-10.0-2.0"}}, {"uniqueid": "MTK0726:3SEPORI8WO6XJ2PK5U9PR0Z4TFTZA6", "current_trial": 13, "dateTime": 1512677669254, "trialdata": {"rt": -1, "stimulus": "<p id=\"stim\">7</p>", "key_press": -1, "trial_type": "single-stim", "trial_index": 13, "time_elapsed": 222715, "internal_node_id": "0.0-10.0-3.0"}}, {"uniqueid": "MTK0726:3SEPORI8WO6XJ2PK5U9PR0Z4TFTZA6", "current_trial": 14, "dateTime": 1512677670256, "trialdata": {"rt": -1, "stimulus": "<p id=\"stim\">6</p>", "key_press": -1, "trial_type": "single-stim", "trial_index": 14, "time_elapsed": 223717, "internal_node_id": "0.0-10.0-4.0"}}, {"uniqueid": "MTK0726:3SEPORI8WO6XJ2PK5U9PR0Z4TFTZA6", "current_trial": 15, "dateTime": 1512677671258, "trialdata": {"rt": -1, "stimulus": "<p id=\"stim\">5</p>", "key_press": -1, "trial_type": "single-stim", "trial_index": 15, "time_elapsed": 224719, "internal_node_id": "0.0-10.0-5.0"}}, {"uniqueid": "MTK0726:3SEPORI8WO6XJ2PK5U9PR0Z4TFTZA6", "current_trial": 16, "dateTime": 1512677672259, "trialdata": {"rt": -1, "stimulus": "<p id=\"stim\">4</p>", "key_press": -1, "trial_type": "single-stim", "trial_index": 16, "time_elapsed": 225720, "internal_node_id": "0.0-10.0-6.0"}}, {"uniqueid": "MTK0726:3SEPORI8WO6XJ2PK5U9PR0Z4TFTZA6", "current_trial": 17, "dateTime": 1512677673264, "trialdata": {"rt": -1, "stimulus": "<p id=\"stim\">3</p>", "key_press": -1, "trial_type": "single-stim", "trial_index": 17, "time_elapsed": 226724, "internal_node_id": "0.0-10.0-7.0"}}, {"uniqueid": "MTK0726:3SEPORI8WO6XJ2PK5U9PR0Z4TFTZA6", "current_trial": 18, "dateTime": 1512677674265, "trialdata": {"rt": -1, "stimulus": "<p id=\"stim\">2</p>", "key_press": -1, "trial_type": "single-stim", "trial_index": 18, "time_elapsed": 227726, "internal_node_id": "0.0-10.0-8.0"}}, {"uniqueid": "MTK0726:3SEPORI8WO6XJ2PK5U9PR0Z4TFTZA6", "current_trial": 19, "dateTime": 1512677675266, "trialdata": {"rt": -1, "stimulus": "<p id=\"stim\">1</p>", "key_press": -1, "trial_type": "single-stim", "trial_index": 19, "time_elapsed": 228727, "internal_node_id": "0.0-10.0-9.0"}}, {"uniqueid": "MTK0726:3SEPORI8WO6XJ2PK5U9PR0Z4TFTZA6", "current_trial": 20, "dateTime": 1512677676767, "trialdata": {"rt": -1, "stimulus": "<p id=\"stim\">+</p>", "key_press": -1, "type": "FIXATION", "trial_type": "single-stim", "trial_index": 20, "time_elapsed": 230228, "internal_node_id": "0.0-11.0-0.0"}}, {"uniqueid": "MTK0726:3SEPORI8WO6XJ2PK5U9PR0Z4TFTZA6", "current_trial": 21, "dateTime": 1512677678838, "trialdata": {"rt": -1000, "stimulus": "/static/audio/wordpool/LIZARD.wav", "key_press": -1, "type": "PRES_AUD", "word": "lizard", "wordID": 833, "conditions": [18, 1200, "a", 18000], "trial": 0, "serialpos": 0, "trial_type": "single-audio", "trial_index": 21, "time_elapsed": 232299, "internal_node_id": "0.0-12.0"}}, {"uniqueid": "MTK0726:3SEPORI8WO6XJ2PK5U9PR0Z4TFTZA6", "current_trial": 22, "dateTime": 1512677681118, "trialdata": {"rt": -1000, "stimulus": "/static/audio/wordpool/PEANUT.wav", "key_press": -1, "type": "PRES_AUD", "word": "peanut", "wordID": 1031, "conditions": [18, 1200, "a", 18000], "trial": 0, "serialpos": 1, "trial_type": "single-audio", "trial_index": 22, "time_elapsed": 234579, "internal_node_id": "0.0-13.0"}}, {"uniqueid": "MTK0726:3SEPORI8WO6XJ2PK5U9PR0Z4TFTZA6", "current_trial": 23, "dateTime": 1512677683365, "trialdata": {"rt": -1000, "stimulus": "/static/audio/wordpool/EYELASH.wav", "key_press": -1, "type": "PRES_AUD", "word": "eyelash", "wordID": 545, "conditions": [18, 1200, "a", 18000], "trial": 0, "serialpos": 2, "trial_type": "single-audio", "trial_index": 23, "time_elapsed": 236826, "internal_node_id": "0.0-14.0"}}, {"uniqueid": "MTK0726:3SEPORI8WO6XJ2PK5U9PR0Z4TFTZA6", "current_trial": 24, "dateTime": 1512677685386, "trialdata": {"rt": -1000, "stimulus": "/static/audio/wordpool/OINTMENT.wav", "key_press": -1, "type": "PRES_AUD", "word": "ointment", "wordID": 973, "conditions": [18, 1200, "a", 18000], "trial": 0, "serialpos": 3, "trial_type": "single-audio", "trial_index": 24, "time_elapsed": 238847, "internal_node_id": "0.0-15.0"}}, {"uniqueid": "MTK0726:3SEPORI8WO6XJ2PK5U9PR0Z4TFTZA6", "current_trial": 25, "dateTime": 1512677687611, "trialdata": {"rt": -1000, "stimulus": "/static/audio/wordpool/PERFUME.wav", "key_press": -1, "type": "PRES_AUD", "word": "perfume", "wordID": 1048, "conditions": [18, 1200, "a", 18000], "trial": 0, "serialpos": 4, "trial_type": "single-audio", "trial_index": 25, "time_elapsed": 241072, "internal_node_id": "0.0-16.0"}}, {"uniqueid": "MTK0726:3SEPORI8WO6XJ2PK5U9PR0Z4TFTZA6", "current_trial": 26, "dateTime": 1512677689691, "trialdata": {"rt": -1000, "stimulus": "/static/audio/wordpool/SPOOL.wav", "key_press": -1, "type": "PRES_AUD", "word": "spool", "wordID": 1355, "conditions": [18, 1200, "a", 18000], "trial": 0, "serialpos": 5, "trial_type": "single-audio", "trial_index": 26, "time_elapsed": 243152, "internal_node_id": "0.0-17.0"}}, {"uniqueid": "MTK0726:3SEPORI8WO6XJ2PK5U9PR0Z4TFTZA6", "current_trial": 27, "dateTime": 1512677692093, "trialdata": {"rt": -1000, "stimulus": "/static/audio/wordpool/LODGE.wav", "key_press": -1, "type": "PRES_AUD", "word": "lodge", "wordID": 838, "conditions": [18, 1200, "a", 18000], "trial": 0, "serialpos": 6, "trial_type": "single-audio", "trial_index": 27, "time_elapsed": 245554, "internal_node_id": "0.0-18.0"}}, {"uniqueid": "MTK0726:3SEPORI8WO6XJ2PK5U9PR0Z4TFTZA6", "current_trial": 28, "dateTime": 1512677694347, "trialdata": {"rt": -1000, "stimulus": "/static/audio/wordpool/CAFE.wav", "key_press": -1, "type": "PRES_AUD", "word": "cafe", "wordID": 215, "conditions": [18, 1200, "a", 18000], "trial": 0, "serialpos": 7, "trial_type": "single-audio", "trial_index": 28, "time_elapsed": 247808, "internal_node_id": "0.0-19.0"}}, {"uniqueid": "MTK0726:3SEPORI8WO6XJ2PK5U9PR0Z4TFTZA6", "current_trial": 29, "dateTime": 1512677696753, "trialdata": {"rt": -1000, "stimulus": "/static/audio/wordpool/BANQUET.wav", "key_press": -1, "type": "PRES_AUD", "word": "banquet", "wordID": 85, "conditions": [18, 1200, "a", 18000], "trial": 0, "serialpos": 8, "trial_type": "single-audio", "trial_index": 29, "time_elapsed": 250214, "internal_node_id": "0.0-20.0"}}, {"uniqueid": "MTK0726:3SEPORI8WO6XJ2PK5U9PR0Z4TFTZA6", "current_trial": 30, "dateTime": 1512677699107, "trialdata": {"rt": -1000, "stimulus": "/static/audio/wordpool/SNAIL.wav", "key_press": -1, "type": "PRES_AUD", "word": "snail", "wordID": 1331, "conditions": [18, 1200, "a", 18000], "trial": 0, "serialpos": 9, "trial_type": "single-audio", "trial_index": 30, "time_elapsed": 252568, "internal_node_id": "0.0-21.0"}}, {"uniqueid": "MTK0726:3SEPORI8WO6XJ2PK5U9PR0Z4TFTZA6", "current_trial": 31, "dateTime": 1512677701211, "trialdata": {"rt": -1000, "stimulus": "/static/audio/wordpool/CAPTIVE.wav", "key_press": -1, "type": "PRES_AUD", "word": "captive", "wordID": 239, "conditions": [18, 1200, "a", 18000], "trial": 0, "serialpos": 10, "trial_type": "single-audio", "trial_index": 31, "time_elapsed": 254672, "internal_node_id": "0.0-22.0"}}, {"uniqueid": "MTK0726:3SEPORI8WO6XJ2PK5U9PR0Z4TFTZA6", "current_trial": 32, "dateTime": 1512677703507, "trialdata": {"rt": -1000, "stimulus": "/static/audio/wordpool/BALLOON.wav", "key_press": -1, "type": "PRES_AUD", "word": "balloon", "wordID": 74, "conditions": [18, 1200, "a", 18000], "trial": 0, "serialpos": 11, "trial_type": "single-audio", "trial_index": 32, "time_elapsed": 256968, "internal_node_id": "0.0-23.0"}}, {"uniqueid": "MTK0726:3SEPORI8WO6XJ2PK5U9PR0Z4TFTZA6", "current_trial": 33, "dateTime": 1512677705888, "trialdata": {"rt": -1000, "stimulus": "/static/audio/wordpool/SNACK.wav", "key_press": -1, "type": "PRES_AUD", "word": "snack", "wordID": 1330, "conditions": [18, 1200, "a", 18000], "trial": 0, "serialpos": 12, "trial_type": "single-audio", "trial_index": 33, "time_elapsed": 259349, "internal_node_id": "0.0-24.0"}}, {"uniqueid": "MTK0726:3SEPORI8WO6XJ2PK5U9PR0Z4TFTZA6", "current_trial": 34, "dateTime": 1512677707906, "trialdata": {"rt": -1000, "stimulus": "/static/audio/wordpool/STAMP.wav", "key_press": -1, "type": "PRES_AUD", "word": "stamp", "wordID": 1369, "conditions": [18, 1200, "a", 18000], "trial": 0, "serialpos": 13, "trial_type": "single-audio", "trial_index": 34, "time_elapsed": 261367, "internal_node_id": "0.0-25.0"}}, {"uniqueid": "MTK0726:3SEPORI8WO6XJ2PK5U9PR0Z4TFTZA6", "current_trial": 35, "dateTime": 1512677710220, "trialdata": {"rt": -1000, "stimulus": "/static/audio/wordpool/TRENCH.wav", "key_press": -1, "type": "PRES_AUD", "word": "trench", "wordID": 1502, "conditions": [18, 1200, "a", 18000], "trial": 0, "serialpos": 14, "trial_type": "single-audio", "trial_index": 35, "time_elapsed": 263681, "internal_node_id": "0.0-26.0"}}, {"uniqueid": "MTK0726:3SEPORI8WO6XJ2PK5U9PR0Z4TFTZA6", "current_trial": 36, "dateTime": 1512677712559, "trialdata": {"rt": -1000, "stimulus": "/static/audio/wordpool/COUNTY.wav", "key_press": -1, "type": "PRES_AUD", "word": "county", "wordID": 388, "conditions": [18, 1200, "a", 18000], "trial": 0, "serialpos": 15, "trial_type": "single-audio", "trial_index": 36, "time_elapsed": 266019, "internal_node_id": "0.0-27.0"}}, {"uniqueid": "MTK0726:3SEPORI8WO6XJ2PK5U9PR0Z4TFTZA6", "current_trial": 37, "dateTime": 1512677714631, "trialdata": {"rt": -1000, "stimulus": "/static/audio/wordpool/WIFE.wav", "key_press": -1, "type": "PRES_AUD", "word": "wife", "wordID": 1608, "conditions": [18, 1200, "a", 18000], "trial": 0, "serialpos": 16, "trial_type": "single-audio", "trial_index": 37, "time_elapsed": 268092, "internal_node_id": "0.0-28.0"}}, {"uniqueid": "MTK0726:3SEPORI8WO6XJ2PK5U9PR0Z4TFTZA6", "current_trial": 38, "dateTime": 1512677717030, "trialdata": {"rt": -1000, "stimulus": "/static/audio/wordpool/SKILLET.wav", "key_press": -1, "type": "PRES_AUD", "word": "skillet", "wordID": 1316, "conditions": [18, 1200, "a", 18000], "trial": 0, "serialpos": 17, "trial_type": "single-audio", "trial_index": 38, "time_elapsed": 270491, "internal_node_id": "0.0-29.0"}}, {"uniqueid": "MTK0726:3SEPORI8WO6XJ2PK5U9PR0Z4TFTZA6", "current_trial": 39, "dateTime": 1512677718327, "trialdata": {"rt": -1, "stimulus": "", "key_press": -1, "type": "PRE_RECALL_DELAY", "trial_type": "single-stim", "trial_index": 39, "time_elapsed": 271788, "internal_node_id": "0.0-30.0-0.0"}}, {"uniqueid": "MTK0726:3SEPORI8WO6XJ2PK5U9PR0Z4TFTZA6", "current_trial": 40, "dateTime": 1512677718828, "trialdata": {"rt": -1000, "stimulus": "/static/audio/400Hz.wav", "key_press": -1, "type": "PRE_RECALL_ALERT", "trial_type": "single-audio", "trial_index": 40, "time_elapsed": 272289, "internal_node_id": "0.0-31.0"}}, {"uniqueid": "MTK0726:3SEPORI8WO6XJ2PK5U9PR0Z4TFTZA6", "current_trial": 41, "dateTime": 1512677778839, "trialdata": {"rt": [3751, 10702, 16177, 18098, 23051, 27212], "recwords": ["lizard", "skillet", "peanut", "cafe", "county", "spool"], "type": "FREE_RECALL", "conditions": [18, 1200, "a", 18000], "trial": 0, "trial_type": "free-recall", "trial_index": 41, "time_elapsed": 332294, "internal_node_id": "0.0-32.0-0.0"}}, {"uniqueid": "MTK0726:3SEPORI8WO6XJ2PK5U9PR0Z4TFTZA6", "current_trial": 42, "dateTime": 1512677786766, "trialdata": {"rt": 5926, "key_press": 32, "type": "INSTRUCTIONS", "trial_type": "text", "trial_index": 42, "time_elapsed": 340227, "internal_node_id": "0.0-33.0"}}, {"uniqueid": "MTK0726:3SEPORI8WO6XJ2PK5U9PR0Z4TFTZA6", "current_trial": 43, "dateTime": 1512677806770, "trialdata": {"rt": [5717, 16268], "responses": ["13", "13"], "num1": [5, 5, 1], "num2": [4, 2, 4], "num3": [4, 6, 7], "type": "DISTRACTOR", "conditions": [18, 1200, "v", 18000], "trial": 1, "trial_type": "math-distractor", "trial_index": 43, "time_elapsed": 360230, "internal_node_id": "0.0-34.0"}}, {"uniqueid": "MTK0726:3SEPORI8WO6XJ2PK5U9PR0Z4TFTZA6", "current_trial": 44, "dateTime": 1512677809771, "trialdata": {"rt": -1, "stimulus": "<p id=\"stim\">10</p>", "key_press": -1, "trial_type": "single-stim", "trial_index": 44, "time_elapsed": 363232, "internal_node_id": "0.0-35.0-0.0"}}, {"uniqueid": "MTK0726:3SEPORI8WO6XJ2PK5U9PR0Z4TFTZA6", "current_trial": 45, "dateTime": 1512677810772, "trialdata": {"rt": -1, "stimulus": "<p id=\"stim\">9</p>", "key_press": -1, "trial_type": "single-stim", "trial_index": 45, "time_elapsed": 364233, "internal_node_id": "0.0-35.0-1.0"}}, {"uniqueid": "MTK0726:3SEPORI8WO6XJ2PK5U9PR0Z4TFTZA6", "current_trial": 46, "dateTime": 1512677811773, "trialdata": {"rt": -1, "stimulus": "<p id=\"stim\">8</p>", "key_press": -1, "trial_type": "single-stim", "trial_index": 46, "time_elapsed": 365234, "internal_node_id": "0.0-35.0-2.0"}}, {"uniqueid": "MTK0726:3SEPORI8WO6XJ2PK5U9PR0Z4TFTZA6", "current_trial": 47, "dateTime": 1512677812774, "trialdata": {"rt": -1, "stimulus": "<p id=\"stim\">7</p>", "key_press": -1, "trial_type": "single-stim", "trial_index": 47, "time_elapsed": 366235, "internal_node_id": "0.0-35.0-3.0"}}, {"uniqueid": "MTK0726:3SEPORI8WO6XJ2PK5U9PR0Z4TFTZA6", "current_trial": 48, "dateTime": 1512677813775, "trialdata": {"rt": -1, "stimulus": "<p id=\"stim\">6</p>", "key_press": -1, "trial_type": "single-stim", "trial_index": 48, "time_elapsed": 367236, "internal_node_id": "0.0-35.0-4.0"}}, {"uniqueid": "MTK0726:3SEPORI8WO6XJ2PK5U9PR0Z4TFTZA6", "current_trial": 49, "dateTime": 1512677814777, "trialdata": {"rt": -1, "stimulus": "<p id=\"stim\">5</p>", "key_press": -1, "trial_type": "single-stim", "trial_index": 49, "time_elapsed": 368238, "internal_node_id": "0.0-35.0-5.0"}}, {"uniqueid": "MTK0726:3SEPORI8WO6XJ2PK5U9PR0Z4TFTZA6", "current_trial": 50, "dateTime": 1512677815778, "trialdata": {"rt": -1, "stimulus": "<p id=\"stim\">4</p>", "key_press": -1, "trial_type": "single-stim", "trial_index": 50, "time_elapsed": 369239, "internal_node_id": "0.0-35.0-6.0"}}, {"uniqueid": "MTK0726:3SEPORI8WO6XJ2PK5U9PR0Z4TFTZA6", "current_trial": 51, "dateTime": 1512677816779, "trialdata": {"rt": -1, "stimulus": "<p id=\"stim\">3</p>", "key_press": -1, "trial_type": "single-stim", "trial_index": 51, "time_elapsed": 370240, "internal_node_id": "0.0-35.0-7.0"}}, {"uniqueid": "MTK0726:3SEPORI8WO6XJ2PK5U9PR0Z4TFTZA6", "current_trial": 52, "dateTime": 1512677817780, "trialdata": {"rt": -1, "stimulus": "<p id=\"stim\">2</p>", "key_press": -1, "trial_type": "single-stim", "trial_index": 52, "time_elapsed": 371241, "internal_node_id": "0.0-35.0-8.0"}}, {"uniqueid": "MTK0726:3SEPORI8WO6XJ2PK5U9PR0Z4TFTZA6", "current_trial": 53, "dateTime": 1512677818782, "trialdata": {"rt": -1, "stimulus": "<p id=\"stim\">1</p>", "key_press": -1, "trial_type": "single-stim", "trial_index": 53, "time_elapsed": 372243, "internal_node_id": "0.0-35.0-9.0"}}, {"uniqueid": "MTK0726:3SEPORI8WO6XJ2PK5U9PR0Z4TFTZA6", "current_trial": 54, "dateTime": 1512677820283, "trialdata": {"rt": -1, "stimulus": "<p id=\"stim\">+</p>", "key_press": -1, "type": "FIXATION", "trial_type": "single-stim", "trial_index": 54, "time_elapsed": 373744, "internal_node_id": "0.0-36.0-0.0"}}, {"uniqueid": "MTK0726:3SEPORI8WO6XJ2PK5U9PR0Z4TFTZA6", "current_trial": 55, "dateTime": 1512677821484, "trialdata": {"rt": -1, "stimulus": "<p id=\"stim\">FEMALE</p>", "key_press": -1, "type": "PRES_VIS", "word": "female", "wordID": 558, "conditions": [18, 1200, "v", 18000], "trial": 1, "serialpos": 0, "trial_type": "single-stim", "trial_index": 55, "time_elapsed": 374945, "internal_node_id": "0.0-37.0"}}, {"uniqueid": "MTK0726:3SEPORI8WO6XJ2PK5U9PR0Z4TFTZA6", "current_trial": 56, "dateTime": 1512677823546, "trialdata": {"rt": -1, "stimulus": "<p id=\"stim\">OMELET</p>", "key_press": -1, "type": "PRES_VIS", "word": "omelet", "wordID": 975, "conditions": [18, 1200, "v", 18000], "trial": 1, "serialpos": 1, "trial_type": "single-stim", "trial_index": 56, "time_elapsed": 377007, "internal_node_id": "0.0-38.0"}}, {"uniqueid": "MTK0726:3SEPORI8WO6XJ2PK5U9PR0Z4TFTZA6", "current_trial": 57, "dateTime": 1512677825829, "trialdata": {"rt": -1, "stimulus": "<p id=\"stim\">COMET</p>", "key_press": -1, "type": "PRES_VIS", "word": "comet", "wordID": 352, "conditions": [18, 1200, "v", 18000], "trial": 1, "serialpos": 2, "trial_type": "single-stim", "trial_index": 57, "time_elapsed": 379290, "internal_node_id": "0.0-39.0"}}, {"uniqueid": "MTK0726:3SEPORI8WO6XJ2PK5U9PR0Z4TFTZA6", "current_trial": 58, "dateTime": 1512677828149, "trialdata": {"rt": -1, "stimulus": "<p id=\"stim\">MASK</p>", "key_press": -1, "type": "PRES_VIS", "word": "mask", "wordID": 875, "conditions": [18, 1200, "v", 18000], "trial": 1, "serialpos": 3, "trial_type": "single-stim", "trial_index": 58, "time_elapsed": 381606, "internal_node_id": "0.0-40.0"}}, {"uniqueid": "MTK0726:3SEPORI8WO6XJ2PK5U9PR0Z4TFTZA6", "current_trial": 59, "dateTime": 1512677830363, "trialdata": {"rt": -1, "stimulus": "<p id=\"stim\">ZIPPER</p>", "key_press": -1, "type": "PRES_VIS", "word": "zipper", "wordID": 1635, "conditions": [18, 1200, "v", 18000], "trial": 1, "serialpos": 4, "trial_type": "single-stim", "trial_index": 59, "time_elapsed": 383824, "internal_node_id": "0.0-41.0"}}, {"uniqueid": "MTK0726:3SEPORI8WO6XJ2PK5U9PR0Z4TFTZA6", "current_trial": 60, "dateTime": 1512677832514, "trialdata": {"rt": -1, "stimulus": "<p id=\"stim\">VALVE</p>", "key_press": -1, "type": "PRES_VIS", "word": "valve", "wordID": 1545, "conditions": [18, 1200, "v", 18000], "trial": 1, "serialpos": 5, "trial_type": "single-stim", "trial_index": 60, "time_elapsed": 385975, "internal_node_id": "0.0-42.0"}}, {"uniqueid": "MTK0726:3SEPORI8WO6XJ2PK5U9PR0Z4TFTZA6", "current_trial": 61, "dateTime": 1512677834870, "trialdata": {"rt": -1, "stimulus": "<p id=\"stim\">NEUTRON</p>", "key_press": -1, "type": "PRES_VIS", "word": "neutron", "wordID": 946, "conditions": [18, 1200, "v", 18000], "trial": 1, "serialpos": 6, "trial_type": "single-stim", "trial_index": 61, "time_elapsed": 388331, "internal_node_id": "0.0-43.0"}}, {"uniqueid": "MTK0726:3SEPORI8WO6XJ2PK5U9PR0Z4TFTZA6", "current_trial": 62, "dateTime": 1512677837184, "trialdata": {"rt": -1, "stimulus": "<p id=\"stim\">WHISTLE</p>", "key_press": -1, "type": "PRES_VIS", "word": "whistle", "wordID": 1605, "conditions": [18, 1200, "v", 18000], "trial": 1, "serialpos": 7, "trial_type": "single-stim", "trial_index": 62, "time_elapsed": 390645, "internal_node_id": "0.0-44.0"}}, {"uniqueid": "MTK0726:3SEPORI8WO6XJ2PK5U9PR0Z4TFTZA6", "current_trial": 63, "dateTime": 1512677839415, "trialdata": {"rt": -1, "stimulus": "<p id=\"stim\">AGENT</p>", "key_press": -1, "type": "PRES_VIS", "word": "agent", "wordID": 9, "conditions": [18, 1200, "v", 18000], "trial": 1, "serialpos": 8, "trial_type": "single-stim", "trial_index": 63, "time_elapsed": 392876, "internal_node_id": "0.0-45.0"}}, {"uniqueid": "MTK0726:3SEPORI8WO6XJ2PK5U9PR0Z4TFTZA6", "current_trial": 64, "dateTime": 1512677841568, "trialdata": {"rt": -1, "stimulus": "<p id=\"stim\">LACE</p>", "key_press": -1, "type": "PRES_VIS", "word": "lace", "wordID": 791, "conditions": [18, 1200, "v", 18000], "trial": 1, "serialpos": 9, "trial_type": "single-stim", "trial_index": 64, "time_elapsed": 395029, "internal_node_id": "0.0-46.0"}}, {"uniqueid": "MTK0726:3SEPORI8WO6XJ2PK5U9PR0Z4TFTZA6", "current_trial": 65, "dateTime": 1512677843657, "trialdata": {"rt": -1, "stimulus": "<p id=\"stim\">JURY</p>", "key_press": -1, "type": "PRES_VIS", "word": "jury", "wordID": 765, "conditions": [18, 1200, "v", 18000], "trial": 1, "serialpos": 10, "trial_type": "single-stim", "trial_index": 65, "time_elapsed": 397117, "internal_node_id": "0.0-47.0"}}, {"uniqueid": "MTK0726:3SEPORI8WO6XJ2PK5U9PR0Z4TFTZA6", "current_trial": 66, "dateTime": 1512677845982, "trialdata": {"rt": -1, "stimulus": "<p id=\"stim\">HOUND</p>", "key_press": -1, "type": "PRES_VIS", "word": "hound", "wordID": 723, "conditions": [18, 1200, "v", 18000], "trial": 1, "serialpos": 11, "trial_type": "single-stim", "trial_index": 66, "time_elapsed": 399443, "internal_node_id": "0.0-48.0"}}, {"uniqueid": "MTK0726:3SEPORI8WO6XJ2PK5U9PR0Z4TFTZA6", "current_trial": 67, "dateTime": 1512677848209, "trialdata": {"rt": -1, "stimulus": "<p id=\"stim\">CONCERT</p>", "key_press": -1, "type": "PRES_VIS", "word": "concert", "wordID": 359, "conditions": [18, 1200, "v", 18000], "trial": 1, "serialpos": 12, "trial_type": "single-stim", "trial_index": 67, "time_elapsed": 401670, "internal_node_id": "0.0-49.0"}}, {"uniqueid": "MTK0726:3SEPORI8WO6XJ2PK5U9PR0Z4TFTZA6", "current_trial": 68, "dateTime": 1512677850527, "trialdata": {"rt": -1, "stimulus": "<p id=\"stim\">POISON</p>", "key_press": -1, "type": "PRES_VIS", "word": "poison", "wordID": 1095, "conditions": [18, 1200, "v", 18000], "trial": 1, "serialpos": 13, "trial_type": "single-stim", "trial_index": 68, "time_elapsed": 403982, "internal_node_id": "0.0-50.0"}}, {"uniqueid": "MTK0726:3SEPORI8WO6XJ2PK5U9PR0Z4TFTZA6", "current_trial": 69, "dateTime": 1512677852761, "trialdata": {"rt": -1, "stimulus": "<p id=\"stim\">AIRPORT</p>", "key_press": -1, "type": "PRES_VIS", "word": "airport", "wordID": 12, "conditions": [18, 1200, "v", 18000], "trial": 1, "serialpos": 14, "trial_type": "single-stim", "trial_index": 69, "time_elapsed": 406222, "internal_node_id": "0.0-51.0"}}, {"uniqueid": "MTK0726:3SEPORI8WO6XJ2PK5U9PR0Z4TFTZA6", "current_trial": 70, "dateTime": 1512677855147, "trialdata": {"rt": -1, "stimulus": "<p id=\"stim\">MATCH</p>", "key_press": -1, "type": "PRES_VIS", "word": "match", "wordID": 877, "conditions": [18, 1200, "v", 18000], "trial": 1, "serialpos": 15, "trial_type": "single-stim", "trial_index": 70, "time_elapsed": 408608, "internal_node_id": "0.0-52.0"}}, {"uniqueid": "MTK0726:3SEPORI8WO6XJ2PK5U9PR0Z4TFTZA6", "current_trial": 71, "dateTime": 1512677857198, "trialdata": {"rt": -1, "stimulus": "<p id=\"stim\">SKIRT</p>", "key_press": -1, "type": "PRES_VIS", "word": "skirt", "wordID": 1318, "conditions": [18, 1200, "v", 18000], "trial": 1, "serialpos": 16, "trial_type": "single-stim", "trial_index": 71, "time_elapsed": 410659, "internal_node_id": "0.0-53.0"}}, {"uniqueid": "MTK0726:3SEPORI8WO6XJ2PK5U9PR0Z4TFTZA6", "current_trial": 72, "dateTime": 1512677859289, "trialdata": {"rt": -1, "stimulus": "<p id=\"stim\">GUITAR</p>", "key_press": -1, "type": "PRES_VIS", "word": "guitar", "wordID": 669, "conditions": [18, 1200, "v", 18000], "trial": 1, "serialpos": 17, "trial_type": "single-stim", "trial_index": 72, "time_elapsed": 412750, "internal_node_id": "0.0-54.0"}}, {"uniqueid": "MTK0726:3SEPORI8WO6XJ2PK5U9PR0Z4TFTZA6", "current_trial": 73, "dateTime": 1512677861656, "trialdata": {"rt": -1, "stimulus": "", "key_press": -1, "type": "PRE_RECALL_DELAY", "trial_type": "single-stim", "trial_index": 73, "time_elapsed": 415117, "internal_node_id": "0.0-55.0-0.0"}}, {"uniqueid": "MTK0726:3SEPORI8WO6XJ2PK5U9PR0Z4TFTZA6", "current_trial": 74, "dateTime": 1512677862162, "trialdata": {"rt": -1000, "stimulus": "/static/audio/400Hz.wav", "key_press": -1, "type": "PRE_RECALL_ALERT", "trial_type": "single-audio", "trial_index": 74, "time_elapsed": 415623, "internal_node_id": "0.0-56.0"}}, {"uniqueid": "MTK0726:3SEPORI8WO6XJ2PK5U9PR0Z4TFTZA6", "current_trial": 75, "dateTime": 1512677922168, "trialdata": {"rt": [5922, 6422, 9128, 11975, 13920, 16540, 19060, 20189, 23531, 32010, 44033], "recwords": ["hound", "", "concert", "match", "skirt", "guitar", "whistle", "lace", "comer", "female", "omelet"], "type": "FREE_RECALL", "conditions": [18, 1200, "v", 18000], "trial": 1, "trial_type": "free-recall", "trial_index": 75, "time_elapsed": 475623, "internal_node_id": "0.0-57.0-0.0"}}, {"uniqueid": "MTK0726:3SEPORI8WO6XJ2PK5U9PR0Z4TFTZA6", "current_trial": 76, "dateTime": 1512677956735, "trialdata": {"rt": 32557, "key_press": 32, "type": "INSTRUCTIONS", "trial_type": "text", "trial_index": 76, "time_elapsed": 510187, "internal_node_id": "0.0-58.0"}}, {"uniqueid": "MTK0726:3SEPORI8WO6XJ2PK5U9PR0Z4TFTZA6", "current_trial": 77, "dateTime": 1512677981739, "trialdata": {"rt": [4410, 7908, 10515, 13771, 16966, 19931, 22160], "responses": ["16", "24", "8", "7", "14", "14", "13"], "num1": [4, 9, 1, 3, 1, 1, 7, 4], "num2": [8, 9, 3, 2, 5, 7, 5, 9], "num3": [4, 6, 4, 2, 8, 6, 1, 7], "type": "DISTRACTOR", "conditions": [24, 1600, "a", 24000], "trial": 2, "trial_type": "math-distractor", "trial_index": 77, "time_elapsed": 535200, "internal_node_id": "0.0-59.0"}}, {"uniqueid": "MTK0726:3SEPORI8WO6XJ2PK5U9PR0Z4TFTZA6", "current_trial": 78, "dateTime": 1512677984740, "trialdata": {"rt": -1, "stimulus": "<p id=\"stim\">10</p>", "key_press": -1, "trial_type": "single-stim", "trial_index": 78, "time_elapsed": 538201, "internal_node_id": "0.0-60.0-0.0"}}, {"uniqueid": "MTK0726:3SEPORI8WO6XJ2PK5U9PR0Z4TFTZA6", "current_trial": 79, "dateTime": 1512677985741, "trialdata": {"rt": -1, "stimulus": "<p id=\"stim\">9</p>", "key_press": -1, "trial_type": "single-stim", "trial_index": 79, "time_elapsed": 539202, "internal_node_id": "0.0-60.0-1.0"}}, {"uniqueid": "MTK0726:3SEPORI8WO6XJ2PK5U9PR0Z4TFTZA6", "current_trial": 80, "dateTime": 1512677986742, "trialdata": {"rt": -1, "stimulus": "<p id=\"stim\">8</p>", "key_press": -1, "trial_type": "single-stim", "trial_index": 80, "time_elapsed": 540203, "internal_node_id": "0.0-60.0-2.0"}}, {"uniqueid": "MTK0726:3SEPORI8WO6XJ2PK5U9PR0Z4TFTZA6", "current_trial": 81, "dateTime": 1512677987743, "trialdata": {"rt": -1, "stimulus": "<p id=\"stim\">7</p>", "key_press": -1, "trial_type": "single-stim", "trial_index": 81, "time_elapsed": 541204, "internal_node_id": "0.0-60.0-3.0"}}, {"uniqueid": "MTK0726:3SEPORI8WO6XJ2PK5U9PR0Z4TFTZA6", "current_trial": 82, "dateTime": 1512677988744, "trialdata": {"rt": -1, "stimulus": "<p id=\"stim\">6</p>", "key_press": -1, "trial_type": "single-stim", "trial_index": 82, "time_elapsed": 542204, "internal_node_id": "0.0-60.0-4.0"}}, {"uniqueid": "MTK0726:3SEPORI8WO6XJ2PK5U9PR0Z4TFTZA6", "current_trial": 83, "dateTime": 1512677989745, "trialdata": {"rt": -1, "stimulus": "<p id=\"stim\">5</p>", "key_press": -1, "trial_type": "single-stim", "trial_index": 83, "time_elapsed": 543206, "internal_node_id": "0.0-60.0-5.0"}}, {"uniqueid": "MTK0726:3SEPORI8WO6XJ2PK5U9PR0Z4TFTZA6", "current_trial": 84, "dateTime": 1512677990746, "trialdata": {"rt": -1, "stimulus": "<p id=\"stim\">4</p>", "key_press": -1, "trial_type": "single-stim", "trial_index": 84, "time_elapsed": 544207, "internal_node_id": "0.0-60.0-6.0"}}, {"uniqueid": "MTK0726:3SEPORI8WO6XJ2PK5U9PR0Z4TFTZA6", "current_trial": 85, "dateTime": 1512677991747, "trialdata": {"rt": -1, "stimulus": "<p id=\"stim\">3</p>", "key_press": -1, "trial_type": "single-stim", "trial_index": 85, "time_elapsed": 545208, "internal_node_id": "0.0-60.0-7.0"}}, {"uniqueid": "MTK0726:3SEPORI8WO6XJ2PK5U9PR0Z4TFTZA6", "current_trial": 86, "dateTime": 1512677992749, "trialdata": {"rt": -1, "stimulus": "<p id=\"stim\">2</p>", "key_press": -1, "trial_type": "single-stim", "trial_index": 86, "time_elapsed": 546210, "internal_node_id": "0.0-60.0-8.0"}}, {"uniqueid": "MTK0726:3SEPORI8WO6XJ2PK5U9PR0Z4TFTZA6", "current_trial": 87, "dateTime": 1512677993750, "trialdata": {"rt": -1, "stimulus": "<p id=\"stim\">1</p>", "key_press": -1, "trial_type": "single-stim", "trial_index": 87, "time_elapsed": 547211, "internal_node_id": "0.0-60.0-9.0"}}, {"uniqueid": "MTK0726:3SEPORI8WO6XJ2PK5U9PR0Z4TFTZA6", "current_trial": 88, "dateTime": 1512677995251, "trialdata": {"rt": -1, "stimulus": "<p id=\"stim\">+</p>", "key_press": -1, "type": "FIXATION", "trial_type": "single-stim", "trial_index": 88, "time_elapsed": 548712, "internal_node_id": "0.0-61.0-0.0"}}, {"uniqueid": "MTK0726:3SEPORI8WO6XJ2PK5U9PR0Z4TFTZA6", "current_trial": 89, "dateTime": 1512677997734, "trialdata": {"rt": -1000, "stimulus": "/static/audio/wordpool/NIGHTGOWN.wav", "key_press": -1, "type": "PRES_AUD", "word": "nightgown", "wordID": 952, "conditions": [24, 1600, "a", 24000], "trial": 2, "serialpos": 0, "trial_type": "single-audio", "trial_index": 89, "time_elapsed": 551195, "internal_node_id": "0.0-62.0"}}, {"uniqueid": "MTK0726:3SEPORI8WO6XJ2PK5U9PR0Z4TFTZA6", "current_trial": 90, "dateTime": 1512678000229, "trialdata": {"rt": -1000, "stimulus": "/static/audio/wordpool/TURKEY.wav", "key_press": -1, "type": "PRES_AUD", "word": "turkey", "wordID": 1519, "conditions": [24, 1600, "a", 24000], "trial": 2, "serialpos": 1, "trial_type": "single-audio", "trial_index": 90, "time_elapsed": 553690, "internal_node_id": "0.0-63.0"}}, {"uniqueid": "MTK0726:3SEPORI8WO6XJ2PK5U9PR0Z4TFTZA6", "current_trial": 91, "dateTime": 1512678002671, "trialdata": {"rt": -1000, "stimulus": "/static/audio/wordpool/BACON.wav", "key_press": -1, "type": "PRES_AUD", "word": "bacon", "wordID": 66, "conditions": [24, 1600, "a", 24000], "trial": 2, "serialpos": 2, "trial_type": "single-audio", "trial_index": 91, "time_elapsed": 556132, "internal_node_id": "0.0-64.0"}}, {"uniqueid": "MTK0726:3SEPORI8WO6XJ2PK5U9PR0Z4TFTZA6", "current_trial": 92, "dateTime": 1512678005238, "trialdata": {"rt": -1000, "stimulus": "/static/audio/wordpool/MARSH.wav", "key_press": -1, "type": "PRES_AUD", "word": "marsh", "wordID": 873, "conditions": [24, 1600, "a", 24000], "trial": 2, "serialpos": 3, "trial_type": "single-audio", "trial_index": 92, "time_elapsed": 558699, "internal_node_id": "0.0-65.0"}}, {"uniqueid": "MTK0726:3SEPORI8WO6XJ2PK5U9PR0Z4TFTZA6", "current_trial": 93, "dateTime": 1512678007810, "trialdata": {"rt": -1000, "stimulus": "/static/audio/wordpool/PERMIT.wav", "key_press": -1, "type": "PRES_AUD", "word": "permit", "wordID": 1050, "conditions": [24, 1600, "a", 24000], "trial": 2, "serialpos": 4, "trial_type": "single-audio", "trial_index": 93, "time_elapsed": 561270, "internal_node_id": "0.0-66.0"}}, {"uniqueid": "MTK0726:3SEPORI8WO6XJ2PK5U9PR0Z4TFTZA6", "current_trial": 94, "dateTime": 1512678010242, "trialdata": {"rt": -1000, "stimulus": "/static/audio/wordpool/COUNTRY.wav", "key_press": -1, "type": "PRES_AUD", "word": "country", "wordID": 387, "conditions": [24, 1600, "a", 24000], "trial": 2, "serialpos": 5, "trial_type": "single-audio", "trial_index": 94, "time_elapsed": 563703, "internal_node_id": "0.0-67.0"}}, {"uniqueid": "MTK0726:3SEPORI8WO6XJ2PK5U9PR0Z4TFTZA6", "current_trial": 95, "dateTime": 1512678012985, "trialdata": {"rt": -1000, "stimulus": "/static/audio/wordpool/GLOBE.wav", "key_press": -1, "type": "PRES_AUD", "word": "globe", "wordID": 640, "conditions": [24, 1600, "a", 24000], "trial": 2, "serialpos": 6, "trial_type": "single-audio", "trial_index": 95, "time_elapsed": 566446, "internal_node_id": "0.0-68.0"}}, {"uniqueid": "MTK0726:3SEPORI8WO6XJ2PK5U9PR0Z4TFTZA6", "current_trial": 96, "dateTime": 1512678015658, "trialdata": {"rt": -1000, "stimulus": "/static/audio/wordpool/CONTRACT.wav", "key_press": -1, "type": "PRES_AUD", "word": "contract", "wordID": 367, "conditions": [24, 1600, "a", 24000], "trial": 2, "serialpos": 7, "trial_type": "single-audio", "trial_index": 96, "time_elapsed": 569119, "internal_node_id": "0.0-69.0"}}, {"uniqueid": "MTK0726:3SEPORI8WO6XJ2PK5U9PR0Z4TFTZA6", "current_trial": 97, "dateTime": 1512678018437, "trialdata": {"rt": -1000, "stimulus": "/static/audio/wordpool/BARREL.wav", "key_press": -1, "type": "PRES_AUD", "word": "barrel", "wordID": 90, "conditions": [24, 1600, "a", 24000], "trial": 2, "serialpos": 8, "trial_type": "single-audio", "trial_index": 97, "time_elapsed": 571898, "internal_node_id": "0.0-70.0"}}, {"uniqueid": "MTK0726:3SEPORI8WO6XJ2PK5U9PR0Z4TFTZA6", "current_trial": 98, "dateTime": 1512678021053, "trialdata": {"rt": -1000, "stimulus": "/static/audio/wordpool/SEAL.wav", "key_press": -1, "type": "PRES_AUD", "word": "seal", "wordID": 1261, "conditions": [24, 1600, "a", 24000], "trial": 2, "serialpos": 9, "trial_type": "single-audio", "trial_index": 98, "time_elapsed": 574514, "internal_node_id": "0.0-71.0"}}, {"uniqueid": "MTK0726:3SEPORI8WO6XJ2PK5U9PR0Z4TFTZA6", "current_trial": 99, "dateTime": 1512678023768, "trialdata": {"rt": -1000, "stimulus": "/static/audio/wordpool/FRANCE.wav", "key_press": -1, "type": "PRES_AUD", "word": "france", "wordID": 600, "conditions": [24, 1600, "a", 24000], "trial": 2, "serialpos": 10, "trial_type": "single-audio", "trial_index": 99, "time_elapsed": 577229, "internal_node_id": "0.0-72.0"}}, {"uniqueid": "MTK0726:3SEPORI8WO6XJ2PK5U9PR0Z4TFTZA6", "current_trial": 100, "dateTime": 1512678026229, "trialdata": {"rt": -1000, "stimulus": "/static/audio/wordpool/GALLON.wav", "key_press": -1, "type": "PRES_AUD", "word": "gallon", "wordID": 617, "conditions": [24, 1600, "a", 24000], "trial": 2, "serialpos": 11, "trial_type": "single-audio", "trial_index": 100, "time_elapsed": 579690, "internal_node_id": "0.0-73.0"}}, {"uniqueid": "MTK0726:3SEPORI8WO6XJ2PK5U9PR0Z4TFTZA6", "current_trial": 101, "dateTime": 1512678028847, "trialdata": {"rt": -1000, "stimulus": "/static/audio/wordpool/WOMAN.wav", "key_press": -1, "type": "PRES_AUD", "word": "woman", "wordID": 1619, "conditions": [24, 1600, "a", 24000], "trial": 2, "serialpos": 12, "trial_type": "single-audio", "trial_index": 101, "time_elapsed": 582307, "internal_node_id": "0.0-74.0"}}, {"uniqueid": "MTK0726:3SEPORI8WO6XJ2PK5U9PR0Z4TFTZA6", "current_trial": 102, "dateTime": 1512678031372, "trialdata": {"rt": -1000, "stimulus": "/static/audio/wordpool/HORNET.wav", "key_press": -1, "type": "PRES_AUD", "word": "hornet", "wordID": 717, "conditions": [24, 1600, "a", 24000], "trial": 2, "serialpos": 13, "trial_type": "single-audio", "trial_index": 102, "time_elapsed": 584833, "internal_node_id": "0.0-75.0"}}, {"uniqueid": "MTK0726:3SEPORI8WO6XJ2PK5U9PR0Z4TFTZA6", "current_trial": 103, "dateTime": 1512678034141, "trialdata": {"rt": -1000, "stimulus": "/static/audio/wordpool/ACTRESS.wav", "key_press": -1, "type": "PRES_AUD", "word": "actress", "wordID": 5, "conditions": [24, 1600, "a", 24000], "trial": 2, "serialpos": 14, "trial_type": "single-audio", "trial_index": 103, "time_elapsed": 587602, "internal_node_id": "0.0-76.0"}}, {"uniqueid": "MTK0726:3SEPORI8WO6XJ2PK5U9PR0Z4TFTZA6", "current_trial": 104, "dateTime": 1512678036621, "trialdata": {"rt": -1000, "stimulus": "/static/audio/wordpool/COD.wav", "key_press": -1, "type": "PRES_AUD", "word": "cod", "wordID": 339, "conditions": [24, 1600, "a", 24000], "trial": 2, "serialpos": 15, "trial_type": "single-audio", "trial_index": 104, "time_elapsed": 590082, "internal_node_id": "0.0-77.0"}}, {"uniqueid": "MTK0726:3SEPORI8WO6XJ2PK5U9PR0Z4TFTZA6", "current_trial": 105, "dateTime": 1512678039373, "trialdata": {"rt": -1000, "stimulus": "/static/audio/wordpool/LADY.wav", "key_press": -1, "type": "PRES_AUD", "word": "lady", "wordID": 793, "conditions": [24, 1600, "a", 24000], "trial": 2, "serialpos": 16, "trial_type": "single-audio", "trial_index": 105, "time_elapsed": 592833, "internal_node_id": "0.0-78.0"}}, {"uniqueid": "MTK0726:3SEPORI8WO6XJ2PK5U9PR0Z4TFTZA6", "current_trial": 106, "dateTime": 1512678041868, "trialdata": {"rt": -1000, "stimulus": "/static/audio/wordpool/SHARK.wav", "key_press": -1, "type": "PRES_AUD", "word": "shark", "wordID": 1274, "conditions": [24, 1600, "a", 24000], "trial": 2, "serialpos": 17, "trial_type": "single-audio", "trial_index": 106, "time_elapsed": 595328, "internal_node_id": "0.0-79.0"}}, {"uniqueid": "MTK0726:3SEPORI8WO6XJ2PK5U9PR0Z4TFTZA6", "current_trial": 107, "dateTime": 1512678044387, "trialdata": {"rt": -1000, "stimulus": "/static/audio/wordpool/CREATURE.wav", "key_press": -1, "type": "PRES_AUD", "word": "creature", "wordID": 402, "conditions": [24, 1600, "a", 24000], "trial": 2, "serialpos": 18, "trial_type": "single-audio", "trial_index": 107, "time_elapsed": 597848, "internal_node_id": "0.0-80.0"}}, {"uniqueid": "MTK0726:3SEPORI8WO6XJ2PK5U9PR0Z4TFTZA6", "current_trial": 108, "dateTime": 1512678046857, "trialdata": {"rt": -1000, "stimulus": "/static/audio/wordpool/BEAST.wav", "key_press": -1, "type": "PRES_AUD", "word": "beast", "wordID": 107, "conditions": [24, 1600, "a", 24000], "trial": 2, "serialpos": 19, "trial_type": "single-audio", "trial_index": 108, "time_elapsed": 600318, "internal_node_id": "0.0-81.0"}}, {"uniqueid": "MTK0726:3SEPORI8WO6XJ2PK5U9PR0Z4TFTZA6", "current_trial": 109, "dateTime": 1512678049613, "trialdata": {"rt": -1000, "stimulus": "/static/audio/wordpool/RABBIT.wav", "key_press": -1, "type": "PRES_AUD", "word": "rabbit", "wordID": 1151, "conditions": [24, 1600, "a", 24000], "trial": 2, "serialpos": 20, "trial_type": "single-audio", "trial_index": 109, "time_elapsed": 603074, "internal_node_id": "0.0-82.0"}}, {"uniqueid": "MTK0726:3SEPORI8WO6XJ2PK5U9PR0Z4TFTZA6", "current_trial": 110, "dateTime": 1512678052333, "trialdata": {"rt": -1000, "stimulus": "/static/audio/wordpool/PLIERS.wav", "key_press": -1, "type": "PRES_AUD", "word": "pliers", "wordID": 1088, "conditions": [24, 1600, "a", 24000], "trial": 2, "serialpos": 21, "trial_type": "single-audio", "trial_index": 110, "time_elapsed": 605794, "internal_node_id": "0.0-83.0"}}, {"uniqueid": "MTK0726:3SEPORI8WO6XJ2PK5U9PR0Z4TFTZA6", "current_trial": 111, "dateTime": 1512678055022, "trialdata": {"rt": -1000, "stimulus": "/static/audio/wordpool/HELMET.wav", "key_press": -1, "type": "PRES_AUD", "word": "helmet", "wordID": 701, "conditions": [24, 1600, "a", 24000], "trial": 2, "serialpos": 22, "trial_type": "single-audio", "trial_index": 111, "time_elapsed": 608483, "internal_node_id": "0.0-84.0"}}, {"uniqueid": "MTK0726:3SEPORI8WO6XJ2PK5U9PR0Z4TFTZA6", "current_trial": 112, "dateTime": 1512678057513, "trialdata": {"rt": -1000, "stimulus": "/static/audio/wordpool/FOOTBALL.wav", "key_press": -1, "type": "PRES_AUD", "word": "football", "wordID": 590, "conditions": [24, 1600, "a", 24000], "trial": 2, "serialpos": 23, "trial_type": "single-audio", "trial_index": 112, "time_elapsed": 610974, "internal_node_id": "0.0-85.0"}}, {"uniqueid": "MTK0726:3SEPORI8WO6XJ2PK5U9PR0Z4TFTZA6", "current_trial": 113, "dateTime": 1512678058725, "trialdata": {"rt": -1, "stimulus": "", "key_press": -1, "type": "PRE_RECALL_DELAY", "trial_type": "single-stim", "trial_index": 113, "time_elapsed": 612186, "internal_node_id": "0.0-86.0-0.0"}}, {"uniqueid": "MTK0726:3SEPORI8WO6XJ2PK5U9PR0Z4TFTZA6", "current_trial": 114, "dateTime": 1512678059230, "trialdata": {"rt": -1000, "stimulus": "/static/audio/400Hz.wav", "key_press": -1, "type": "PRE_RECALL_ALERT", "trial_type": "single-audio", "trial_index": 114, "time_elapsed": 612691, "internal_node_id": "0.0-87.0"}}, {"uniqueid": "MTK0726:3SEPORI8WO6XJ2PK5U9PR0Z4TFTZA6", "current_trial": 115, "dateTime": 1512678119237, "trialdata": {"rt": [5440, 8132, 13474, 15268, 23268, 28994, 30806, 36767, 50158, 59062], "recwords": ["football", "helmet", "bacon", "turkey", "beast", "seal", "shark", "creature", "globe", "woman"], "type": "FREE_RECALL", "conditions": [24, 1600, "a", 24000], "trial": 2, "trial_type": "free-recall", "trial_index": 115, "time_elapsed": 672692, "internal_node_id": "0.0-88.0-0.0"}}, {"uniqueid": "MTK0726:3SEPORI8WO6XJ2PK5U9PR0Z4TFTZA6", "current_trial": 116, "dateTime": 1512678123141, "trialdata": {"rt": 1903, "key_press": 17, "type": "INSTRUCTIONS", "trial_type": "text", "trial_index": 116, "time_elapsed": 676602, "internal_node_id": "0.0-89.0"}}, {"uniqueid": "MTK0726:3SEPORI8WO6XJ2PK5U9PR0Z4TFTZA6", "current_trial": 117, "dateTime": 1512678137144, "trialdata": {"rt": [3909, 6835, 11375], "responses": ["18", "14", "14"], "num1": [5, 8, 5, 8], "num2": [5, 1, 3, 6], "num3": [8, 5, 6, 4], "type": "DISTRACTOR", "conditions": [12, 800, "a", 12000], "trial": 3, "trial_type": "math-distractor", "trial_index": 117, "time_elapsed": 690605, "internal_node_id": "0.0-90.0"}}, {"uniqueid": "MTK0726:3SEPORI8WO6XJ2PK5U9PR0Z4TFTZA6", "current_trial": 118, "dateTime": 1512678140145, "trialdata": {"rt": -1, "stimulus": "<p id=\"stim\">10</p>", "key_press": -1, "trial_type": "single-stim", "trial_index": 118, "time_elapsed": 693606, "internal_node_id": "0.0-91.0-0.0"}}, {"uniqueid": "MTK0726:3SEPORI8WO6XJ2PK5U9PR0Z4TFTZA6", "current_trial": 119, "dateTime": 1512678141146, "trialdata": {"rt": -1, "stimulus": "<p id=\"stim\">9</p>", "key_press": -1, "trial_type": "single-stim", "trial_index": 119, "time_elapsed": 694607, "internal_node_id": "0.0-91.0-1.0"}}, {"uniqueid": "MTK0726:3SEPORI8WO6XJ2PK5U9PR0Z4TFTZA6", "current_trial": 120, "dateTime": 1512678142148, "trialdata": {"rt": -1, "stimulus": "<p id=\"stim\">8</p>", "key_press": -1, "trial_type": "single-stim", "trial_index": 120, "time_elapsed": 695609, "internal_node_id": "0.0-91.0-2.0"}}, {"uniqueid": "MTK0726:3SEPORI8WO6XJ2PK5U9PR0Z4TFTZA6", "current_trial": 121, "dateTime": 1512678143149, "trialdata": {"rt": -1, "stimulus": "<p id=\"stim\">7</p>", "key_press": -1, "trial_type": "single-stim", "trial_index": 121, "time_elapsed": 696610, "internal_node_id": "0.0-91.0-3.0"}}, {"uniqueid": "MTK0726:3SEPORI8WO6XJ2PK5U9PR0Z4TFTZA6", "current_trial": 122, "dateTime": 1512678144150, "trialdata": {"rt": -1, "stimulus": "<p id=\"stim\">6</p>", "key_press": -1, "trial_type": "single-stim", "trial_index": 122, "time_elapsed": 697611, "internal_node_id": "0.0-91.0-4.0"}}, {"uniqueid": "MTK0726:3SEPORI8WO6XJ2PK5U9PR0Z4TFTZA6", "current_trial": 123, "dateTime": 1512678145152, "trialdata": {"rt": -1, "stimulus": "<p id=\"stim\">5</p>", "key_press": -1, "trial_type": "single-stim", "trial_index": 123, "time_elapsed": 698613, "internal_node_id": "0.0-91.0-5.0"}}, {"uniqueid": "MTK0726:3SEPORI8WO6XJ2PK5U9PR0Z4TFTZA6", "current_trial": 124, "dateTime": 1512678146154, "trialdata": {"rt": -1, "stimulus": "<p id=\"stim\">4</p>", "key_press": -1, "trial_type": "single-stim", "trial_index": 124, "time_elapsed": 699615, "internal_node_id": "0.0-91.0-6.0"}}, {"uniqueid": "MTK0726:3SEPORI8WO6XJ2PK5U9PR0Z4TFTZA6", "current_trial": 125, "dateTime": 1512678147155, "trialdata": {"rt": -1, "stimulus": "<p id=\"stim\">3</p>", "key_press": -1, "trial_type": "single-stim", "trial_index": 125, "time_elapsed": 700616, "internal_node_id": "0.0-91.0-7.0"}}, {"uniqueid": "MTK0726:3SEPORI8WO6XJ2PK5U9PR0Z4TFTZA6", "current_trial": 126, "dateTime": 1512678148156, "trialdata": {"rt": -1, "stimulus": "<p id=\"stim\">2</p>", "key_press": -1, "trial_type": "single-stim", "trial_index": 126, "time_elapsed": 701617, "internal_node_id": "0.0-91.0-8.0"}}, {"uniqueid": "MTK0726:3SEPORI8WO6XJ2PK5U9PR0Z4TFTZA6", "current_trial": 127, "dateTime": 1512678149157, "trialdata": {"rt": -1, "stimulus": "<p id=\"stim\">1</p>", "key_press": -1, "trial_type": "single-stim", "trial_index": 127, "time_elapsed": 702618, "internal_node_id": "0.0-91.0-9.0"}}, {"uniqueid": "MTK0726:3SEPORI8WO6XJ2PK5U9PR0Z4TFTZA6", "current_trial": 128, "dateTime": 1512678150658, "trialdata": {"rt": -1, "stimulus": "<p id=\"stim\">+</p>", "key_press": -1, "type": "FIXATION", "trial_type": "single-stim", "trial_index": 128, "time_elapsed": 704119, "internal_node_id": "0.0-92.0-0.0"}}, {"uniqueid": "MTK0726:3SEPORI8WO6XJ2PK5U9PR0Z4TFTZA6", "current_trial": 129, "dateTime": 1512678152443, "trialdata": {"rt": -1000, "stimulus": "/static/audio/wordpool/POCKET.wav", "key_press": -1, "type": "PRES_AUD", "word": "pocket", "wordID": 1092, "conditions": [12, 800, "a", 12000], "trial": 3, "serialpos": 0, "trial_type": "single-audio", "trial_index": 129, "time_elapsed": 705904, "internal_node_id": "0.0-93.0"}}, {"uniqueid": "MTK0726:3SEPORI8WO6XJ2PK5U9PR0Z4TFTZA6", "current_trial": 130, "dateTime": 1512678154289, "trialdata": {"rt": -1000, "stimulus": "/static/audio/wordpool/SISTER.wav", "key_press": -1, "type": "PRES_AUD", "word": "sister", "wordID": 1311, "conditions": [12, 800, "a", 12000], "trial": 3, "serialpos": 1, "trial_type": "single-audio", "trial_index": 130, "time_elapsed": 707750, "internal_node_id": "0.0-94.0"}}, {"uniqueid": "MTK0726:3SEPORI8WO6XJ2PK5U9PR0Z4TFTZA6", "current_trial": 131, "dateTime": 1512678156099, "trialdata": {"rt": -1000, "stimulus": "/static/audio/wordpool/BADGE.wav", "key_press": -1, "type": "PRES_AUD", "word": "badge", "wordID": 67, "conditions": [12, 800, "a", 12000], "trial": 3, "serialpos": 2, "trial_type": "single-audio", "trial_index": 131, "time_elapsed": 709560, "internal_node_id": "0.0-95.0"}}, {"uniqueid": "MTK0726:3SEPORI8WO6XJ2PK5U9PR0Z4TFTZA6", "current_trial": 132, "dateTime": 1512678157746, "trialdata": {"rt": -1000, "stimulus": "/static/audio/wordpool/PUPPY.wav", "key_press": -1, "type": "PRES_AUD", "word": "puppy", "wordID": 1143, "conditions": [12, 800, "a", 12000], "trial": 3, "serialpos": 3, "trial_type": "single-audio", "trial_index": 132, "time_elapsed": 711207, "internal_node_id": "0.0-96.0"}}, {"uniqueid": "MTK0726:3SEPORI8WO6XJ2PK5U9PR0Z4TFTZA6", "current_trial": 133, "dateTime": 1512678159368, "trialdata": {"rt": -1000, "stimulus": "/static/audio/wordpool/BREAST.wav", "key_press": -1, "type": "PRES_AUD", "word": "breast", "wordID": 170, "conditions": [12, 800, "a", 12000], "trial": 3, "serialpos": 4, "trial_type": "single-audio", "trial_index": 133, "time_elapsed": 712829, "internal_node_id": "0.0-97.0"}}, {"uniqueid": "MTK0726:3SEPORI8WO6XJ2PK5U9PR0Z4TFTZA6", "current_trial": 134, "dateTime": 1512678161113, "trialdata": {"rt": -1000, "stimulus": "/static/audio/wordpool/BRIEFCASE.wav", "key_press": -1, "type": "PRES_AUD", "word": "briefcase", "wordID": 174, "conditions": [12, 800, "a", 12000], "trial": 3, "serialpos": 5, "trial_type": "single-audio", "trial_index": 134, "time_elapsed": 714573, "internal_node_id": "0.0-98.0"}}, {"uniqueid": "MTK0726:3SEPORI8WO6XJ2PK5U9PR0Z4TFTZA6", "current_trial": 135, "dateTime": 1512678162972, "trialdata": {"rt": -1000, "stimulus": "/static/audio/wordpool/ASIA.wav", "key_press": -1, "type": "PRES_AUD", "word": "asia", "wordID": 45, "conditions": [12, 800, "a", 12000], "trial": 3, "serialpos": 6, "trial_type": "single-audio", "trial_index": 135, "time_elapsed": 716433, "internal_node_id": "0.0-99.0"}}, {"uniqueid": "MTK0726:3SEPORI8WO6XJ2PK5U9PR0Z4TFTZA6", "current_trial": 136, "dateTime": 1512678164932, "trialdata": {"rt": -1000, "stimulus": "/static/audio/wordpool/EUROPE.wav", "key_press": -1, "type": "PRES_AUD", "word": "europe", "wordID": 540, "conditions": [12, 800, "a", 12000], "trial": 3, "serialpos": 7, "trial_type": "single-audio", "trial_index": 136, "time_elapsed": 718393, "internal_node_id": "0.0-100.0"}}, {"uniqueid": "MTK0726:3SEPORI8WO6XJ2PK5U9PR0Z4TFTZA6", "current_trial": 137, "dateTime": 1512678166612, "trialdata": {"rt": -1000, "stimulus": "/static/audio/wordpool/SANDWICH.wav", "key_press": -1, "type": "PRES_AUD", "word": "sandwich", "wordID": 1231, "conditions": [12, 800, "a", 12000], "trial": 3, "serialpos": 8, "trial_type": "single-audio", "trial_index": 137, "time_elapsed": 720073, "internal_node_id": "0.0-101.0"}}, {"uniqueid": "MTK0726:3SEPORI8WO6XJ2PK5U9PR0Z4TFTZA6", "current_trial": 138, "dateTime": 1512678168492, "trialdata": {"rt": -1000, "stimulus": "/static/audio/wordpool/COMPASS.wav", "key_press": -1, "type": "PRES_AUD", "word": "compass", "wordID": 357, "conditions": [12, 800, "a", 12000], "trial": 3, "serialpos": 9, "trial_type": "single-audio", "trial_index": 138, "time_elapsed": 721953, "internal_node_id": "0.0-102.0"}}, {"uniqueid": "MTK0726:3SEPORI8WO6XJ2PK5U9PR0Z4TFTZA6", "current_trial": 139, "dateTime": 1512678170208, "trialdata": {"rt": -1000, "stimulus": "/static/audio/wordpool/HOSTESS.wav", "key_press": -1, "type": "PRES_AUD", "word": "hostess", "wordID": 722, "conditions": [12, 800, "a", 12000], "trial": 3, "serialpos": 10, "trial_type": "single-audio", "trial_index": 139, "time_elapsed": 723669, "internal_node_id": "0.0-103.0"}}, {"uniqueid": "MTK0726:3SEPORI8WO6XJ2PK5U9PR0Z4TFTZA6", "current_trial": 140, "dateTime": 1512678172081, "trialdata": {"rt": -1000, "stimulus": "/static/audio/wordpool/CARRIAGE.wav", "key_press": -1, "type": "PRES_AUD", "word": "carriage", "wordID": 247, "conditions": [12, 800, "a", 12000], "trial": 3, "serialpos": 11, "trial_type": "single-audio", "trial_index": 140, "time_elapsed": 725542, "internal_node_id": "0.0-104.0"}}, {"uniqueid": "MTK0726:3SEPORI8WO6XJ2PK5U9PR0Z4TFTZA6", "current_trial": 141, "dateTime": 1512678173384, "trialdata": {"rt": -1, "stimulus": "", "key_press": -1, "type": "PRE_RECALL_DELAY", "trial_type": "single-stim", "trial_index": 141, "time_elapsed": 726845, "internal_node_id": "0.0-105.0-0.0"}}, {"uniqueid": "MTK0726:3SEPORI8WO6XJ2PK5U9PR0Z4TFTZA6", "current_trial": 142, "dateTime": 1512678173892, "trialdata": {"rt": -1000, "stimulus": "/static/audio/400Hz.wav", "key_press": -1, "type": "PRE_RECALL_ALERT", "trial_type": "single-audio", "trial_index": 142, "time_elapsed": 727353, "internal_node_id": "0.0-106.0"}}, {"uniqueid": "MTK0726:3SEPORI8WO6XJ2PK5U9PR0Z4TFTZA6", "current_trial": 143, "dateTime": 1512678233900, "trialdata": {"rt": [8745, 18051, 23141, 26232, 30776, 35687, 43091], "recwords": ["carriage", "hostess", "sandich", "pocket", "puppy", "asia", "puppy"], "type": "FREE_RECALL", "conditions": [12, 800, "a", 12000], "trial": 3, "trial_type": "free-recall", "trial_index": 143, "time_elapsed": 787355, "internal_node_id": "0.0-107.0-0.0"}}, {"uniqueid": "MTK0726:3SEPORI8WO6XJ2PK5U9PR0Z4TFTZA6", "current_trial": 144, "dateTime": 1512678237349, "trialdata": {"rt": 1448, "key_press": 32, "type": "INSTRUCTIONS", "trial_type": "text", "trial_index": 144, "time_elapsed": 790810, "internal_node_id": "0.0-108.0"}}, {"uniqueid": "MTK0726:3SEPORI8WO6XJ2PK5U9PR0Z4TFTZA6", "current_trial": 145, "dateTime": 1512678251354, "trialdata": {"rt": [5217, 8571], "responses": ["18", "16"], "num1": [8, 7, 5], "num2": [6, 6, 9], "num3": [4, 3, 1], "type": "DISTRACTOR", "conditions": [12, 1600, "v", 12000], "trial": 4, "trial_type": "math-distractor", "trial_index": 145, "time_elapsed": 804814, "internal_node_id": "0.0-109.0"}}, {"uniqueid": "MTK0726:3SEPORI8WO6XJ2PK5U9PR0Z4TFTZA6", "current_trial": 146, "dateTime": 1512678254355, "trialdata": {"rt": -1, "stimulus": "<p id=\"stim\">10</p>", "key_press": -1, "trial_type": "single-stim", "trial_index": 146, "time_elapsed": 807816, "internal_node_id": "0.0-110.0-0.0"}}, {"uniqueid": "MTK0726:3SEPORI8WO6XJ2PK5U9PR0Z4TFTZA6", "current_trial": 147, "dateTime": 1512678255356, "trialdata": {"rt": -1, "stimulus": "<p id=\"stim\">9</p>", "key_press": -1, "trial_type": "single-stim", "trial_index": 147, "time_elapsed": 808817, "internal_node_id": "0.0-110.0-1.0"}}, {"uniqueid": "MTK0726:3SEPORI8WO6XJ2PK5U9PR0Z4TFTZA6", "current_trial": 148, "dateTime": 1512678256357, "trialdata": {"rt": -1, "stimulus": "<p id=\"stim\">8</p>", "key_press": -1, "trial_type": "single-stim", "trial_index": 148, "time_elapsed": 809818, "internal_node_id": "0.0-110.0-2.0"}}, {"uniqueid": "MTK0726:3SEPORI8WO6XJ2PK5U9PR0Z4TFTZA6", "current_trial": 149, "dateTime": 1512678257358, "trialdata": {"rt": -1, "stimulus": "<p id=\"stim\">7</p>", "key_press": -1, "trial_type": "single-stim", "trial_index": 149, "time_elapsed": 810819, "internal_node_id": "0.0-110.0-3.0"}}, {"uniqueid": "MTK0726:3SEPORI8WO6XJ2PK5U9PR0Z4TFTZA6", "current_trial": 150, "dateTime": 1512678258359, "trialdata": {"rt": -1, "stimulus": "<p id=\"stim\">6</p>", "key_press": -1, "trial_type": "single-stim", "trial_index": 150, "time_elapsed": 811820, "internal_node_id": "0.0-110.0-4.0"}}, {"uniqueid": "MTK0726:3SEPORI8WO6XJ2PK5U9PR0Z4TFTZA6", "current_trial": 151, "dateTime": 1512678259360, "trialdata": {"rt": -1, "stimulus": "<p id=\"stim\">5</p>", "key_press": -1, "trial_type": "single-stim", "trial_index": 151, "time_elapsed": 812821, "internal_node_id": "0.0-110.0-5.0"}}, {"uniqueid": "MTK0726:3SEPORI8WO6XJ2PK5U9PR0Z4TFTZA6", "current_trial": 152, "dateTime": 1512678260362, "trialdata": {"rt": -1, "stimulus": "<p id=\"stim\">4</p>", "key_press": -1, "trial_type": "single-stim", "trial_index": 152, "time_elapsed": 813823, "internal_node_id": "0.0-110.0-6.0"}}, {"uniqueid": "MTK0726:3SEPORI8WO6XJ2PK5U9PR0Z4TFTZA6", "current_trial": 153, "dateTime": 1512678261363, "trialdata": {"rt": -1, "stimulus": "<p id=\"stim\">3</p>", "key_press": -1, "trial_type": "single-stim", "trial_index": 153, "time_elapsed": 814824, "internal_node_id": "0.0-110.0-7.0"}}, {"uniqueid": "MTK0726:3SEPORI8WO6XJ2PK5U9PR0Z4TFTZA6", "current_trial": 154, "dateTime": 1512678262364, "trialdata": {"rt": -1, "stimulus": "<p id=\"stim\">2</p>", "key_press": -1, "trial_type": "single-stim", "trial_index": 154, "time_elapsed": 815824, "internal_node_id": "0.0-110.0-8.0"}}, {"uniqueid": "MTK0726:3SEPORI8WO6XJ2PK5U9PR0Z4TFTZA6", "current_trial": 155, "dateTime": 1512678263365, "trialdata": {"rt": -1, "stimulus": "<p id=\"stim\">1</p>", "key_press": -1, "trial_type": "single-stim", "trial_index": 155, "time_elapsed": 816826, "internal_node_id": "0.0-110.0-9.0"}}, {"uniqueid": "MTK0726:3SEPORI8WO6XJ2PK5U9PR0Z4TFTZA6", "current_trial": 156, "dateTime": 1512678264866, "trialdata": {"rt": -1, "stimulus": "<p id=\"stim\">+</p>", "key_press": -1, "type": "FIXATION", "trial_type": "single-stim", "trial_index": 156, "time_elapsed": 818327, "internal_node_id": "0.0-111.0-0.0"}}, {"uniqueid": "MTK0726:3SEPORI8WO6XJ2PK5U9PR0Z4TFTZA6", "current_trial": 157, "dateTime": 1512678266468, "trialdata": {"rt": -1, "stimulus": "<p id=\"stim\">CATTLE</p>", "key_press": -1, "type": "PRES_VIS", "word": "cattle", "wordID": 260, "conditions": [12, 1600, "v", 12000], "trial": 4, "serialpos": 0, "trial_type": "single-stim", "trial_index": 157, "time_elapsed": 819929, "internal_node_id": "0.0-112.0"}}, {"uniqueid": "MTK0726:3SEPORI8WO6XJ2PK5U9PR0Z4TFTZA6", "current_trial": 158, "dateTime": 1512678268964, "trialdata": {"rt": -1, "stimulus": "<p id=\"stim\">CHILD</p>", "key_press": -1, "type": "PRES_VIS", "word": "child", "wordID": 298, "conditions": [12, 1600, "v", 12000], "trial": 4, "serialpos": 1, "trial_type": "single-stim", "trial_index": 158, "time_elapsed": 822425, "internal_node_id": "0.0-113.0"}}, {"uniqueid": "MTK0726:3SEPORI8WO6XJ2PK5U9PR0Z4TFTZA6", "current_trial": 159, "dateTime": 1512678271715, "trialdata": {"rt": -1, "stimulus": "<p id=\"stim\">SHORTS</p>", "key_press": -1, "type": "PRES_VIS", "word": "shorts", "wordID": 1292, "conditions": [12, 1600, "v", 12000], "trial": 4, "serialpos": 2, "trial_type": "single-stim", "trial_index": 159, "time_elapsed": 825176, "internal_node_id": "0.0-114.0"}}, {"uniqueid": "MTK0726:3SEPORI8WO6XJ2PK5U9PR0Z4TFTZA6", "current_trial": 160, "dateTime": 1512678274119, "trialdata": {"rt": -1, "stimulus": "<p id=\"stim\">GLOVE</p>", "key_press": -1, "type": "PRES_VIS", "word": "glove", "wordID": 641, "conditions": [12, 1600, "v", 12000], "trial": 4, "serialpos": 3, "trial_type": "single-stim", "trial_index": 160, "time_elapsed": 827580, "internal_node_id": "0.0-115.0"}}, {"uniqueid": "MTK0726:3SEPORI8WO6XJ2PK5U9PR0Z4TFTZA6", "current_trial": 161, "dateTime": 1512678276632, "trialdata": {"rt": -1, "stimulus": "<p id=\"stim\">RADISH</p>", "key_press": -1, "type": "PRES_VIS", "word": "radish", "wordID": 1157, "conditions": [12, 1600, "v", 12000], "trial": 4, "serialpos": 4, "trial_type": "single-stim", "trial_index": 161, "time_elapsed": 830093, "internal_node_id": "0.0-116.0"}}, {"uniqueid": "MTK0726:3SEPORI8WO6XJ2PK5U9PR0Z4TFTZA6", "current_trial": 162, "dateTime": 1512678279102, "trialdata": {"rt": -1, "stimulus": "<p id=\"stim\">DAUGHTER</p>", "key_press": -1, "type": "PRES_VIS", "word": "daughter", "wordID": 441, "conditions": [12, 1600, "v", 12000], "trial": 4, "serialpos": 5, "trial_type": "single-stim", "trial_index": 162, "time_elapsed": 832563, "internal_node_id": "0.0-117.0"}}, {"uniqueid": "MTK0726:3SEPORI8WO6XJ2PK5U9PR0Z4TFTZA6", "current_trial": 163, "dateTime": 1512678281661, "trialdata": {"rt": -1, "stimulus": "<p id=\"stim\">CLIMBER</p>", "key_press": -1, "type": "PRES_VIS", "word": "climber", "wordID": 322, "conditions": [12, 1600, "v", 12000], "trial": 4, "serialpos": 6, "trial_type": "single-stim", "trial_index": 163, "time_elapsed": 835122, "internal_node_id": "0.0-118.0"}}, {"uniqueid": "MTK0726:3SEPORI8WO6XJ2PK5U9PR0Z4TFTZA6", "current_trial": 164, "dateTime": 1512678284078, "trialdata": {"rt": -1, "stimulus": "<p id=\"stim\">HIKER</p>", "key_press": -1, "type": "PRES_VIS", "word": "hiker", "wordID": 707, "conditions": [12, 1600, "v", 12000], "trial": 4, "serialpos": 7, "trial_type": "single-stim", "trial_index": 164, "time_elapsed": 837539, "internal_node_id": "0.0-119.0"}}, {"uniqueid": "MTK0726:3SEPORI8WO6XJ2PK5U9PR0Z4TFTZA6", "current_trial": 165, "dateTime": 1512678286523, "trialdata": {"rt": -1, "stimulus": "<p id=\"stim\">NURSE</p>", "key_press": -1, "type": "PRES_VIS", "word": "nurse", "wordID": 962, "conditions": [12, 1600, "v", 12000], "trial": 4, "serialpos": 8, "trial_type": "single-stim", "trial_index": 165, "time_elapsed": 839984, "internal_node_id": "0.0-120.0"}}, {"uniqueid": "MTK0726:3SEPORI8WO6XJ2PK5U9PR0Z4TFTZA6", "current_trial": 166, "dateTime": 1512678288988, "trialdata": {"rt": -1, "stimulus": "<p id=\"stim\">DONOR</p>", "key_press": -1, "type": "PRES_VIS", "word": "donor", "wordID": 484, "conditions": [12, 1600, "v", 12000], "trial": 4, "serialpos": 9, "trial_type": "single-stim", "trial_index": 166, "time_elapsed": 842449, "internal_node_id": "0.0-121.0"}}, {"uniqueid": "MTK0726:3SEPORI8WO6XJ2PK5U9PR0Z4TFTZA6", "current_trial": 167, "dateTime": 1512678291602, "trialdata": {"rt": -1, "stimulus": "<p id=\"stim\">SILK</p>", "key_press": -1, "type": "PRES_VIS", "word": "silk", "wordID": 1306, "conditions": [12, 1600, "v", 12000], "trial": 4, "serialpos": 10, "trial_type": "single-stim", "trial_index": 167, "time_elapsed": 845063, "internal_node_id": "0.0-122.0"}}, {"uniqueid": "MTK0726:3SEPORI8WO6XJ2PK5U9PR0Z4TFTZA6", "current_trial": 168, "dateTime": 1512678294106, "trialdata": {"rt": -1, "stimulus": "<p id=\"stim\">RUST</p>", "key_press": -1, "type": "PRES_VIS", "word": "rust", "wordID": 1218, "conditions": [12, 1600, "v", 12000], "trial": 4, "serialpos": 11, "trial_type": "single-stim", "trial_index": 168, "time_elapsed": 847567, "internal_node_id": "0.0-123.0"}}, {"uniqueid": "MTK0726:3SEPORI8WO6XJ2PK5U9PR0Z4TFTZA6", "current_trial": 169, "dateTime": 1512678296388, "trialdata": {"rt": -1, "stimulus": "", "key_press": -1, "type": "PRE_RECALL_DELAY", "trial_type": "single-stim", "trial_index": 169, "time_elapsed": 849848, "internal_node_id": "0.0-124.0-0.0"}}, {"uniqueid": "MTK0726:3SEPORI8WO6XJ2PK5U9PR0Z4TFTZA6", "current_trial": 170, "dateTime": 1512678296897, "trialdata": {"rt": -1000, "stimulus": "/static/audio/400Hz.wav", "key_press": -1, "type": "PRE_RECALL_ALERT", "trial_type": "single-audio", "trial_index": 170, "time_elapsed": 850358, "internal_node_id": "0.0-125.0"}}, {"uniqueid": "MTK0726:3SEPORI8WO6XJ2PK5U9PR0Z4TFTZA6", "current_trial": 171, "dateTime": 1512678356906, "trialdata": {"rt": [6501, 9621, 12440, 17590, 22022, 28204, 36280], "recwords": ["rust", "silk", "donor", "cattle", "child", "donor", "glove"], "type": "FREE_RECALL", "conditions": [12, 1600, "v", 12000], "trial": 4, "trial_type": "free-recall", "trial_index": 171, "time_elapsed": 910359, "internal_node_id": "0.0-126.0-0.0"}}, {"uniqueid": "MTK0726:3SEPORI8WO6XJ2PK5U9PR0Z4TFTZA6", "current_trial": 172, "dateTime": 1512678360610, "trialdata": {"rt": 1703, "key_press": 32, "type": "INSTRUCTIONS", "trial_type": "text", "trial_index": 172, "time_elapsed": 914071, "internal_node_id": "0.0-127.0"}}, {"uniqueid": "MTK0726:3SEPORI8WO6XJ2PK5U9PR0Z4TFTZA6", "current_trial": 173, "dateTime": 1512678386614, "trialdata": {"rt": [3323, 7104, 10195, 14249, 16610, 19435, 22043], "responses": ["12", "22", "16", "16", "17", "17", "16"], "num1": [2, 6, 1, 6, 8, 7, 9, 6], "num2": [2, 8, 9, 2, 8, 1, 6, 7], "num3": [8, 8, 6, 8, 1, 9, 1, 6], "type": "DISTRACTOR", "conditions": [24, 800, "v", 24000], "trial": 5, "trial_type": "math-distractor", "trial_index": 173, "time_elapsed": 940075, "internal_node_id": "0.0-128.0"}}, {"uniqueid": "MTK0726:3SEPORI8WO6XJ2PK5U9PR0Z4TFTZA6", "current_trial": 174, "dateTime": 1512678389616, "trialdata": {"rt": -1, "stimulus": "<p id=\"stim\">10</p>", "key_press": -1, "trial_type": "single-stim", "trial_index": 174, "time_elapsed": 943077, "internal_node_id": "0.0-129.0-0.0"}}, {"uniqueid": "MTK0726:3SEPORI8WO6XJ2PK5U9PR0Z4TFTZA6", "current_trial": 175, "dateTime": 1512678390617, "trialdata": {"rt": -1, "stimulus": "<p id=\"stim\">9</p>", "key_press": -1, "trial_type": "single-stim", "trial_index": 175, "time_elapsed": 944078, "internal_node_id": "0.0-129.0-1.0"}}, {"uniqueid": "MTK0726:3SEPORI8WO6XJ2PK5U9PR0Z4TFTZA6", "current_trial": 176, "dateTime": 1512678391619, "trialdata": {"rt": -1, "stimulus": "<p id=\"stim\">8</p>", "key_press": -1, "trial_type": "single-stim", "trial_index": 176, "time_elapsed": 945080, "internal_node_id": "0.0-129.0-2.0"}}, {"uniqueid": "MTK0726:3SEPORI8WO6XJ2PK5U9PR0Z4TFTZA6", "current_trial": 177, "dateTime": 1512678392620, "trialdata": {"rt": -1, "stimulus": "<p id=\"stim\">7</p>", "key_press": -1, "trial_type": "single-stim", "trial_index": 177, "time_elapsed": 946081, "internal_node_id": "0.0-129.0-3.0"}}, {"uniqueid": "MTK0726:3SEPORI8WO6XJ2PK5U9PR0Z4TFTZA6", "current_trial": 178, "dateTime": 1512678393621, "trialdata": {"rt": -1, "stimulus": "<p id=\"stim\">6</p>", "key_press": -1, "trial_type": "single-stim", "trial_index": 178, "time_elapsed": 947082, "internal_node_id": "0.0-129.0-4.0"}}, {"uniqueid": "MTK0726:3SEPORI8WO6XJ2PK5U9PR0Z4TFTZA6", "current_trial": 179, "dateTime": 1512678394622, "trialdata": {"rt": -1, "stimulus": "<p id=\"stim\">5</p>", "key_press": -1, "trial_type": "single-stim", "trial_index": 179, "time_elapsed": 948083, "internal_node_id": "0.0-129.0-5.0"}}, {"uniqueid": "MTK0726:3SEPORI8WO6XJ2PK5U9PR0Z4TFTZA6", "current_trial": 180, "dateTime": 1512678395624, "trialdata": {"rt": -1, "stimulus": "<p id=\"stim\">4</p>", "key_press": -1, "trial_type": "single-stim", "trial_index": 180, "time_elapsed": 949085, "internal_node_id": "0.0-129.0-6.0"}}, {"uniqueid": "MTK0726:3SEPORI8WO6XJ2PK5U9PR0Z4TFTZA6", "current_trial": 181, "dateTime": 1512678396624, "trialdata": {"rt": -1, "stimulus": "<p id=\"stim\">3</p>", "key_press": -1, "trial_type": "single-stim", "trial_index": 181, "time_elapsed": 950085, "internal_node_id": "0.0-129.0-7.0"}}, {"uniqueid": "MTK0726:3SEPORI8WO6XJ2PK5U9PR0Z4TFTZA6", "current_trial": 182, "dateTime": 1512678397626, "trialdata": {"rt": -1, "stimulus": "<p id=\"stim\">2</p>", "key_press": -1, "trial_type": "single-stim", "trial_index": 182, "time_elapsed": 951087, "internal_node_id": "0.0-129.0-8.0"}}, {"uniqueid": "MTK0726:3SEPORI8WO6XJ2PK5U9PR0Z4TFTZA6", "current_trial": 183, "dateTime": 1512678398628, "trialdata": {"rt": -1, "stimulus": "<p id=\"stim\">1</p>", "key_press": -1, "trial_type": "single-stim", "trial_index": 183, "time_elapsed": 952089, "internal_node_id": "0.0-129.0-9.0"}}, {"uniqueid": "MTK0726:3SEPORI8WO6XJ2PK5U9PR0Z4TFTZA6", "current_trial": 184, "dateTime": 1512678400128, "trialdata": {"rt": -1, "stimulus": "<p id=\"stim\">+</p>", "key_press": -1, "type": "FIXATION", "trial_type": "single-stim", "trial_index": 184, "time_elapsed": 953589, "internal_node_id": "0.0-130.0-0.0"}}, {"uniqueid": "MTK0726:3SEPORI8WO6XJ2PK5U9PR0Z4TFTZA6", "current_trial": 185, "dateTime": 1512678400929, "trialdata": {"rt": -1, "stimulus": "<p id=\"stim\">PISTOL</p>", "key_press": -1, "type": "PRES_VIS", "word": "pistol", "wordID": 1074, "conditions": [24, 800, "v", 24000], "trial": 5, "serialpos": 0, "trial_type": "single-stim", "trial_index": 185, "time_elapsed": 954390, "internal_node_id": "0.0-131.0"}}, {"uniqueid": "MTK0726:3SEPORI8WO6XJ2PK5U9PR0Z4TFTZA6", "current_trial": 186, "dateTime": 1512678402701, "trialdata": {"rt": -1, "stimulus": "<p id=\"stim\">KNIFE</p>", "key_press": -1, "type": "PRES_VIS", "word": "knife", "wordID": 784, "conditions": [24, 800, "v", 24000], "trial": 5, "serialpos": 1, "trial_type": "single-stim", "trial_index": 186, "time_elapsed": 956162, "internal_node_id": "0.0-132.0"}}, {"uniqueid": "MTK0726:3SEPORI8WO6XJ2PK5U9PR0Z4TFTZA6", "current_trial": 187, "dateTime": 1512678404317, "trialdata": {"rt": -1, "stimulus": "<p id=\"stim\">FARMER</p>", "key_press": -1, "type": "PRES_VIS", "word": "farmer", "wordID": 552, "conditions": [24, 800, "v", 24000], "trial": 5, "serialpos": 2, "trial_type": "single-stim", "trial_index": 187, "time_elapsed": 957778, "internal_node_id": "0.0-133.0"}}, {"uniqueid": "MTK0726:3SEPORI8WO6XJ2PK5U9PR0Z4TFTZA6", "current_trial": 188, "dateTime": 1512678406182, "trialdata": {"rt": -1, "stimulus": "<p id=\"stim\">SERVANT</p>", "key_press": -1, "type": "PRES_VIS", "word": "servant", "wordID": 1270, "conditions": [24, 800, "v", 24000], "trial": 5, "serialpos": 3, "trial_type": "single-stim", "trial_index": 188, "time_elapsed": 959643, "internal_node_id": "0.0-134.0"}}, {"uniqueid": "MTK0726:3SEPORI8WO6XJ2PK5U9PR0Z4TFTZA6", "current_trial": 189, "dateTime": 1512678407899, "trialdata": {"rt": -1, "stimulus": "<p id=\"stim\">JELLY</p>", "key_press": -1, "type": "PRES_VIS", "word": "jelly", "wordID": 754, "conditions": [24, 800, "v", 24000], "trial": 5, "serialpos": 4, "trial_type": "single-stim", "trial_index": 189, "time_elapsed": 961360, "internal_node_id": "0.0-135.0"}}, {"uniqueid": "MTK0726:3SEPORI8WO6XJ2PK5U9PR0Z4TFTZA6", "current_trial": 190, "dateTime": 1512678409832, "trialdata": {"rt": -1, "stimulus": "<p id=\"stim\">TOASTER</p>", "key_press": -1, "type": "PRES_VIS", "word": "toaster", "wordID": 1471, "conditions": [24, 800, "v", 24000], "trial": 5, "serialpos": 5, "trial_type": "single-stim", "trial_index": 190, "time_elapsed": 963293, "internal_node_id": "0.0-136.0"}}, {"uniqueid": "MTK0726:3SEPORI8WO6XJ2PK5U9PR0Z4TFTZA6", "current_trial": 191, "dateTime": 1512678411524, "trialdata": {"rt": -1, "stimulus": "<p id=\"stim\">DIVER</p>", "key_press": -1, "type": "PRES_VIS", "word": "diver", "wordID": 475, "conditions": [24, 800, "v", 24000], "trial": 5, "serialpos": 6, "trial_type": "single-stim", "trial_index": 191, "time_elapsed": 964984, "internal_node_id": "0.0-137.0"}}, {"uniqueid": "MTK0726:3SEPORI8WO6XJ2PK5U9PR0Z4TFTZA6", "current_trial": 192, "dateTime": 1512678413306, "trialdata": {"rt": -1, "stimulus": "<p id=\"stim\">VIRUS</p>", "key_press": -1, "type": "PRES_VIS", "word": "virus", "wordID": 1571, "conditions": [24, 800, "v", 24000], "trial": 5, "serialpos": 7, "trial_type": "single-stim", "trial_index": 192, "time_elapsed": 966767, "internal_node_id": "0.0-138.0"}}, {"uniqueid": "MTK0726:3SEPORI8WO6XJ2PK5U9PR0Z4TFTZA6", "current_trial": 193, "dateTime": 1512678415139, "trialdata": {"rt": -1, "stimulus": "<p id=\"stim\">INMATE</p>", "key_press": -1, "type": "PRES_VIS", "word": "inmate", "wordID": 737, "conditions": [24, 800, "v", 24000], "trial": 5, "serialpos": 8, "trial_type": "single-stim", "trial_index": 193, "time_elapsed": 968600, "internal_node_id": "0.0-139.0"}}, {"uniqueid": "MTK0726:3SEPORI8WO6XJ2PK5U9PR0Z4TFTZA6", "current_trial": 194, "dateTime": 1512678417128, "trialdata": {"rt": -1, "stimulus": "<p id=\"stim\">NAPKIN</p>", "key_press": -1, "type": "PRES_VIS", "word": "napkin", "wordID": 936, "conditions": [24, 800, "v", 24000], "trial": 5, "serialpos": 9, "trial_type": "single-stim", "trial_index": 194, "time_elapsed": 970589, "internal_node_id": "0.0-140.0"}}, {"uniqueid": "MTK0726:3SEPORI8WO6XJ2PK5U9PR0Z4TFTZA6", "current_trial": 195, "dateTime": 1512678418897, "trialdata": {"rt": -1, "stimulus": "<p id=\"stim\">CIGAR</p>", "key_press": -1, "type": "PRES_VIS", "word": "cigar", "wordID": 307, "conditions": [24, 800, "v", 24000], "trial": 5, "serialpos": 10, "trial_type": "single-stim", "trial_index": 195, "time_elapsed": 972358, "internal_node_id": "0.0-141.0"}}, {"uniqueid": "MTK0726:3SEPORI8WO6XJ2PK5U9PR0Z4TFTZA6", "current_trial": 196, "dateTime": 1512678420833, "trialdata": {"rt": -1, "stimulus": "<p id=\"stim\">SWIMMER</p>", "key_press": -1, "type": "PRES_VIS", "word": "swimmer", "wordID": 1419, "conditions": [24, 800, "v", 24000], "trial": 5, "serialpos": 11, "trial_type": "single-stim", "trial_index": 196, "time_elapsed": 974294, "internal_node_id": "0.0-142.0"}}, {"uniqueid": "MTK0726:3SEPORI8WO6XJ2PK5U9PR0Z4TFTZA6", "current_trial": 197, "dateTime": 1512678422493, "trialdata": {"rt": -1, "stimulus": "<p id=\"stim\">PIMPLE</p>", "key_press": -1, "type": "PRES_VIS", "word": "pimple", "wordID": 1070, "conditions": [24, 800, "v", 24000], "trial": 5, "serialpos": 12, "trial_type": "single-stim", "trial_index": 197, "time_elapsed": 975954, "internal_node_id": "0.0-143.0"}}, {"uniqueid": "MTK0726:3SEPORI8WO6XJ2PK5U9PR0Z4TFTZA6", "current_trial": 198, "dateTime": 1512678424101, "trialdata": {"rt": -1, "stimulus": "<p id=\"stim\">SUMMIT</p>", "key_press": -1, "type": "PRES_VIS", "word": "summit", "wordID": 1404, "conditions": [24, 800, "v", 24000], "trial": 5, "serialpos": 13, "trial_type": "single-stim", "trial_index": 198, "time_elapsed": 977562, "internal_node_id": "0.0-144.0"}}, {"uniqueid": "MTK0726:3SEPORI8WO6XJ2PK5U9PR0Z4TFTZA6", "current_trial": 199, "dateTime": 1512678425893, "trialdata": {"rt": -1, "stimulus": "<p id=\"stim\">BLUEPRINT</p>", "key_press": -1, "type": "PRES_VIS", "word": "blueprint", "wordID": 141, "conditions": [24, 800, "v", 24000], "trial": 5, "serialpos": 14, "trial_type": "single-stim", "trial_index": 199, "time_elapsed": 979354, "internal_node_id": "0.0-145.0"}}, {"uniqueid": "MTK0726:3SEPORI8WO6XJ2PK5U9PR0Z4TFTZA6", "current_trial": 200, "dateTime": 1512678427570, "trialdata": {"rt": -1, "stimulus": "<p id=\"stim\">SADDLE</p>", "key_press": -1, "type": "PRES_VIS", "word": "saddle", "wordID": 1220, "conditions": [24, 800, "v", 24000], "trial": 5, "serialpos": 15, "trial_type": "single-stim", "trial_index": 200, "time_elapsed": 981031, "internal_node_id": "0.0-146.0"}}, {"uniqueid": "MTK0726:3SEPORI8WO6XJ2PK5U9PR0Z4TFTZA6", "current_trial": 201, "dateTime": 1512678429555, "trialdata": {"rt": -1, "stimulus": "<p id=\"stim\">DONKEY</p>", "key_press": -1, "type": "PRES_VIS", "word": "donkey", "wordID": 483, "conditions": [24, 800, "v", 24000], "trial": 5, "serialpos": 16, "trial_type": "single-stim", "trial_index": 201, "time_elapsed": 983016, "internal_node_id": "0.0-147.0"}}, {"uniqueid": "MTK0726:3SEPORI8WO6XJ2PK5U9PR0Z4TFTZA6", "current_trial": 202, "dateTime": 1512678431469, "trialdata": {"rt": -1, "stimulus": "<p id=\"stim\">MILDEW</p>", "key_press": -1, "type": "PRES_VIS", "word": "mildew", "wordID": 892, "conditions": [24, 800, "v", 24000], "trial": 5, "serialpos": 17, "trial_type": "single-stim", "trial_index": 202, "time_elapsed": 984930, "internal_node_id": "0.0-148.0"}}, {"uniqueid": "MTK0726:3SEPORI8WO6XJ2PK5U9PR0Z4TFTZA6", "current_trial": 203, "dateTime": 1512678433397, "trialdata": {"rt": -1, "stimulus": "<p id=\"stim\">FUNGUS</p>", "key_press": -1, "type": "PRES_VIS", "word": "fungus", "wordID": 613, "conditions": [24, 800, "v", 24000], "trial": 5, "serialpos": 18, "trial_type": "single-stim", "trial_index": 203, "time_elapsed": 986858, "internal_node_id": "0.0-149.0"}}, {"uniqueid": "MTK0726:3SEPORI8WO6XJ2PK5U9PR0Z4TFTZA6", "current_trial": 204, "dateTime": 1512678435086, "trialdata": {"rt": -1, "stimulus": "<p id=\"stim\">BRACES</p>", "key_press": -1, "type": "PRES_VIS", "word": "braces", "wordID": 163, "conditions": [24, 800, "v", 24000], "trial": 5, "serialpos": 19, "trial_type": "single-stim", "trial_index": 204, "time_elapsed": 988547, "internal_node_id": "0.0-150.0"}}, {"uniqueid": "MTK0726:3SEPORI8WO6XJ2PK5U9PR0Z4TFTZA6", "current_trial": 205, "dateTime": 1512678436895, "trialdata": {"rt": -1, "stimulus": "<p id=\"stim\">PLATE</p>", "key_press": -1, "type": "PRES_VIS", "word": "plate", "wordID": 1085, "conditions": [24, 800, "v", 24000], "trial": 5, "serialpos": 20, "trial_type": "single-stim", "trial_index": 205, "time_elapsed": 990356, "internal_node_id": "0.0-151.0"}}, {"uniqueid": "MTK0726:3SEPORI8WO6XJ2PK5U9PR0Z4TFTZA6", "current_trial": 206, "dateTime": 1512678438710, "trialdata": {"rt": -1, "stimulus": "<p id=\"stim\">FREEZER</p>", "key_press": -1, "type": "PRES_VIS", "word": "freezer", "wordID": 603, "conditions": [24, 800, "v", 24000], "trial": 5, "serialpos": 21, "trial_type": "single-stim", "trial_index": 206, "time_elapsed": 992171, "internal_node_id": "0.0-152.0"}}, {"uniqueid": "MTK0726:3SEPORI8WO6XJ2PK5U9PR0Z4TFTZA6", "current_trial": 207, "dateTime": 1512678440461, "trialdata": {"rt": -1, "stimulus": "<p id=\"stim\">QUEEN</p>", "key_press": -1, "type": "PRES_VIS", "word": "queen", "wordID": 1148, "conditions": [24, 800, "v", 24000], "trial": 5, "serialpos": 22, "trial_type": "single-stim", "trial_index": 207, "time_elapsed": 993922, "internal_node_id": "0.0-153.0"}}, {"uniqueid": "MTK0726:3SEPORI8WO6XJ2PK5U9PR0Z4TFTZA6", "current_trial": 208, "dateTime": 1512678442088, "trialdata": {"rt": -1, "stimulus": "<p id=\"stim\">CAMEL</p>", "key_press": -1, "type": "PRES_VIS", "word": "camel", "wordID": 222, "conditions": [24, 800, "v", 24000], "trial": 5, "serialpos": 23, "trial_type": "single-stim", "trial_index": 208, "time_elapsed": 995549, "internal_node_id": "0.0-154.0"}}, {"uniqueid": "MTK0726:3SEPORI8WO6XJ2PK5U9PR0Z4TFTZA6", "current_trial": 209, "dateTime": 1512678444457, "trialdata": {"rt": 917, "stimulus": "", "key_press": 67, "type": "PRE_RECALL_DELAY", "trial_type": "single-stim", "trial_index": 209, "time_elapsed": 997918, "internal_node_id": "0.0-155.0-0.0"}}, {"uniqueid": "MTK0726:3SEPORI8WO6XJ2PK5U9PR0Z4TFTZA6", "current_trial": 210, "dateTime": 1512678444959, "trialdata": {"rt": -1000, "stimulus": "/static/audio/400Hz.wav", "key_press": -1, "type": "PRE_RECALL_ALERT", "trial_type": "single-audio", "trial_index": 210, "time_elapsed": 998420, "internal_node_id": "0.0-156.0"}}, {"uniqueid": "MTK0726:3SEPORI8WO6XJ2PK5U9PR0Z4TFTZA6", "current_trial": 211, "dateTime": 1512678504970, "trialdata": {"rt": [1748, 3578, 6518, 8636, 11763, 18717, 25430, 31880, 42259], "recwords": ["camel", "virus", "donkey", "saddle", "farmer", "diver", "plate", "radish", "pimple"], "type": "FREE_RECALL", "conditions": [24, 800, "v", 24000], "trial": 5, "trial_type": "free-recall", "trial_index": 211, "time_elapsed": 1058422, "internal_node_id": "0.0-157.0-0.0"}}, {"uniqueid": "MTK0726:3SEPORI8WO6XJ2PK5U9PR0Z4TFTZA6", "current_trial": 212, "dateTime": 1512678508689, "trialdata": {"rt": 1717, "key_press": 32, "type": "INSTRUCTIONS", "trial_type": "text", "trial_index": 212, "time_elapsed": 1062149, "internal_node_id": "0.0-158.0"}}, {"uniqueid": "MTK0726:3SEPORI8WO6XJ2PK5U9PR0Z4TFTZA6", "current_trial": 213, "dateTime": 1512678534693, "trialdata": {"rt": [2436, 4774, 9479, 11646, 13977, 16413, 19946, 22226], "responses": ["14", "17", "16", "8", "17", "7", "16", "24"], "num1": [5, 2, 7, 2, 8, 2, 7, 9, 9], "num2": [8, 8, 5, 5, 2, 3, 6, 8, 3], "num3": [1, 7, 4, 1, 7, 2, 3, 7, 6], "type": "DISTRACTOR", "conditions": [12, 1600, "v", 24000], "trial": 6, "trial_type": "math-distractor", "trial_index": 213, "time_elapsed": 1088154, "internal_node_id": "0.0-159.0"}}, {"uniqueid": "MTK0726:3SEPORI8WO6XJ2PK5U9PR0Z4TFTZA6", "current_trial": 214, "dateTime": 1512678537694, "trialdata": {"rt": -1, "stimulus": "<p id=\"stim\">10</p>", "key_press": -1, "trial_type": "single-stim", "trial_index": 214, "time_elapsed": 1091155, "internal_node_id": "0.0-160.0-0.0"}}, {"uniqueid": "MTK0726:3SEPORI8WO6XJ2PK5U9PR0Z4TFTZA6", "current_trial": 215, "dateTime": 1512678538699, "trialdata": {"rt": -1, "stimulus": "<p id=\"stim\">9</p>", "key_press": -1, "trial_type": "single-stim", "trial_index": 215, "time_elapsed": 1092160, "internal_node_id": "0.0-160.0-1.0"}}, {"uniqueid": "MTK0726:3SEPORI8WO6XJ2PK5U9PR0Z4TFTZA6", "current_trial": 216, "dateTime": 1512678539699, "trialdata": {"rt": -1, "stimulus": "<p id=\"stim\">8</p>", "key_press": -1, "trial_type": "single-stim", "trial_index": 216, "time_elapsed": 1093160, "internal_node_id": "0.0-160.0-2.0"}}, {"uniqueid": "MTK0726:3SEPORI8WO6XJ2PK5U9PR0Z4TFTZA6", "current_trial": 217, "dateTime": 1512678540701, "trialdata": {"rt": -1, "stimulus": "<p id=\"stim\">7</p>", "key_press": -1, "trial_type": "single-stim", "trial_index": 217, "time_elapsed": 1094162, "internal_node_id": "0.0-160.0-3.0"}}, {"uniqueid": "MTK0726:3SEPORI8WO6XJ2PK5U9PR0Z4TFTZA6", "current_trial": 218, "dateTime": 1512678541702, "trialdata": {"rt": -1, "stimulus": "<p id=\"stim\">6</p>", "key_press": -1, "trial_type": "single-stim", "trial_index": 218, "time_elapsed": 1095163, "internal_node_id": "0.0-160.0-4.0"}}, {"uniqueid": "MTK0726:3SEPORI8WO6XJ2PK5U9PR0Z4TFTZA6", "current_trial": 219, "dateTime": 1512678542703, "trialdata": {"rt": -1, "stimulus": "<p id=\"stim\">5</p>", "key_press": -1, "trial_type": "single-stim", "trial_index": 219, "time_elapsed": 1096164, "internal_node_id": "0.0-160.0-5.0"}}, {"uniqueid": "MTK0726:3SEPORI8WO6XJ2PK5U9PR0Z4TFTZA6", "current_trial": 220, "dateTime": 1512678543704, "trialdata": {"rt": -1, "stimulus": "<p id=\"stim\">4</p>", "key_press": -1, "trial_type": "single-stim", "trial_index": 220, "time_elapsed": 1097165, "internal_node_id": "0.0-160.0-6.0"}}, {"uniqueid": "MTK0726:3SEPORI8WO6XJ2PK5U9PR0Z4TFTZA6", "current_trial": 221, "dateTime": 1512678544705, "trialdata": {"rt": -1, "stimulus": "<p id=\"stim\">3</p>", "key_press": -1, "trial_type": "single-stim", "trial_index": 221, "time_elapsed": 1098166, "internal_node_id": "0.0-160.0-7.0"}}, {"uniqueid": "MTK0726:3SEPORI8WO6XJ2PK5U9PR0Z4TFTZA6", "current_trial": 222, "dateTime": 1512678545707, "trialdata": {"rt": -1, "stimulus": "<p id=\"stim\">2</p>", "key_press": -1, "trial_type": "single-stim", "trial_index": 222, "time_elapsed": 1099168, "internal_node_id": "0.0-160.0-8.0"}}, {"uniqueid": "MTK0726:3SEPORI8WO6XJ2PK5U9PR0Z4TFTZA6", "current_trial": 223, "dateTime": 1512678546707, "trialdata": {"rt": -1, "stimulus": "<p id=\"stim\">1</p>", "key_press": -1, "trial_type": "single-stim", "trial_index": 223, "time_elapsed": 1100168, "internal_node_id": "0.0-160.0-9.0"}}, {"uniqueid": "MTK0726:3SEPORI8WO6XJ2PK5U9PR0Z4TFTZA6", "current_trial": 224, "dateTime": 1512678548209, "trialdata": {"rt": -1, "stimulus": "<p id=\"stim\">+</p>", "key_press": -1, "type": "FIXATION", "trial_type": "single-stim", "trial_index": 224, "time_elapsed": 1101670, "internal_node_id": "0.0-161.0-0.0"}}, {"uniqueid": "MTK0726:3SEPORI8WO6XJ2PK5U9PR0Z4TFTZA6", "current_trial": 225, "dateTime": 1512678549811, "trialdata": {"rt": -1, "stimulus": "<p id=\"stim\">SCOTCH</p>", "key_press": -1, "type": "PRES_VIS", "word": "scotch", "wordID": 1250, "conditions": [12, 1600, "v", 24000], "trial": 6, "serialpos": 0, "trial_type": "single-stim", "trial_index": 225, "time_elapsed": 1103272, "internal_node_id": "0.0-162.0"}}, {"uniqueid": "MTK0726:3SEPORI8WO6XJ2PK5U9PR0Z4TFTZA6", "current_trial": 226, "dateTime": 1512678552382, "trialdata": {"rt": -1, "stimulus": "<p id=\"stim\">CATCHER</p>", "key_press": -1, "type": "PRES_VIS", "word": "catcher", "wordID": 257, "conditions": [12, 1600, "v", 24000], "trial": 6, "serialpos": 1, "trial_type": "single-stim", "trial_index": 226, "time_elapsed": 1105843, "internal_node_id": "0.0-163.0"}}, {"uniqueid": "MTK0726:3SEPORI8WO6XJ2PK5U9PR0Z4TFTZA6", "current_trial": 227, "dateTime": 1512678554941, "trialdata": {"rt": -1, "stimulus": "<p id=\"stim\">SHORTCAKE</p>", "key_press": -1, "type": "PRES_VIS", "word": "shortcake", "wordID": 1291, "conditions": [12, 1600, "v", 24000], "trial": 6, "serialpos": 2, "trial_type": "single-stim", "trial_index": 227, "time_elapsed": 1108402, "internal_node_id": "0.0-164.0"}}, {"uniqueid": "MTK0726:3SEPORI8WO6XJ2PK5U9PR0Z4TFTZA6", "current_trial": 228, "dateTime": 1512678557568, "trialdata": {"rt": -1, "stimulus": "<p id=\"stim\">SLOPE</p>", "key_press": -1, "type": "PRES_VIS", "word": "slope", "wordID": 1327, "conditions": [12, 1600, "v", 24000], "trial": 6, "serialpos": 3, "trial_type": "single-stim", "trial_index": 228, "time_elapsed": 1111029, "internal_node_id": "0.0-165.0"}}, {"uniqueid": "MTK0726:3SEPORI8WO6XJ2PK5U9PR0Z4TFTZA6", "current_trial": 229, "dateTime": 1512678560031, "trialdata": {"rt": -1, "stimulus": "<p id=\"stim\">LIGHTNING</p>", "key_press": -1, "type": "PRES_VIS", "word": "lightning", "wordID": 819, "conditions": [12, 1600, "v", 24000], "trial": 6, "serialpos": 4, "trial_type": "single-stim", "trial_index": 229, "time_elapsed": 1113492, "internal_node_id": "0.0-166.0"}}, {"uniqueid": "MTK0726:3SEPORI8WO6XJ2PK5U9PR0Z4TFTZA6", "current_trial": 230, "dateTime": 1512678562444, "trialdata": {"rt": -1, "stimulus": "<p id=\"stim\">LONDON</p>", "key_press": -1, "type": "PRES_VIS", "word": "london", "wordID": 842, "conditions": [12, 1600, "v", 24000], "trial": 6, "serialpos": 5, "trial_type": "single-stim", "trial_index": 230, "time_elapsed": 1115905, "internal_node_id": "0.0-167.0"}}, {"uniqueid": "MTK0726:3SEPORI8WO6XJ2PK5U9PR0Z4TFTZA6", "current_trial": 231, "dateTime": 1512678565160, "trialdata": {"rt": -1, "stimulus": "<p id=\"stim\">PATROL</p>", "key_press": -1, "type": "PRES_VIS", "word": "patrol", "wordID": 1026, "conditions": [12, 1600, "v", 24000], "trial": 6, "serialpos": 6, "trial_type": "single-stim", "trial_index": 231, "time_elapsed": 1118621, "internal_node_id": "0.0-168.0"}}, {"uniqueid": "MTK0726:3SEPORI8WO6XJ2PK5U9PR0Z4TFTZA6", "current_trial": 232, "dateTime": 1512678567570, "trialdata": {"rt": -1, "stimulus": "<p id=\"stim\">STOMACH</p>", "key_press": -1, "type": "PRES_VIS", "word": "stomach", "wordID": 1383, "conditions": [12, 1600, "v", 24000], "trial": 6, "serialpos": 7, "trial_type": "single-stim", "trial_index": 232, "time_elapsed": 1121031, "internal_node_id": "0.0-169.0"}}, {"uniqueid": "MTK0726:3SEPORI8WO6XJ2PK5U9PR0Z4TFTZA6", "current_trial": 233, "dateTime": 1512678570203, "trialdata": {"rt": -1, "stimulus": "<p id=\"stim\">BRANDY</p>", "key_press": -1, "type": "PRES_VIS", "word": "brandy", "wordID": 168, "conditions": [12, 1600, "v", 24000], "trial": 6, "serialpos": 8, "trial_type": "single-stim", "trial_index": 233, "time_elapsed": 1123664, "internal_node_id": "0.0-170.0"}}, {"uniqueid": "MTK0726:3SEPORI8WO6XJ2PK5U9PR0Z4TFTZA6", "current_trial": 234, "dateTime": 1512678572762, "trialdata": {"rt": -1, "stimulus": "<p id=\"stim\">CANAL</p>", "key_press": -1, "type": "PRES_VIS", "word": "canal", "wordID": 225, "conditions": [12, 1600, "v", 24000], "trial": 6, "serialpos": 9, "trial_type": "single-stim", "trial_index": 234, "time_elapsed": 1126223, "internal_node_id": "0.0-171.0"}}, {"uniqueid": "MTK0726:3SEPORI8WO6XJ2PK5U9PR0Z4TFTZA6", "current_trial": 235, "dateTime": 1512678575341, "trialdata": {"rt": -1, "stimulus": "<p id=\"stim\">LOVER</p>", "key_press": -1, "type": "PRES_VIS", "word": "lover", "wordID": 845, "conditions": [12, 1600, "v", 24000], "trial": 6, "serialpos": 10, "trial_type": "single-stim", "trial_index": 235, "time_elapsed": 1128802, "internal_node_id": "0.0-172.0"}}, {"uniqueid": "MTK0726:3SEPORI8WO6XJ2PK5U9PR0Z4TFTZA6", "current_trial": 236, "dateTime": 1512678578133, "trialdata": {"rt": -1, "stimulus": "<p id=\"stim\">HUSBAND</p>", "key_press": -1, "type": "PRES_VIS", "word": "husband", "wordID": 727, "conditions": [12, 1600, "v", 24000], "trial": 6, "serialpos": 11, "trial_type": "single-stim", "trial_index": 236, "time_elapsed": 1131594, "internal_node_id": "0.0-173.0"}}, {"uniqueid": "MTK0726:3SEPORI8WO6XJ2PK5U9PR0Z4TFTZA6", "current_trial": 237, "dateTime": 1512678580480, "trialdata": {"rt": -1, "stimulus": "", "key_press": -1, "type": "PRE_RECALL_DELAY", "trial_type": "single-stim", "trial_index": 237, "time_elapsed": 1133940, "internal_node_id": "0.0-174.0-0.0"}}, {"uniqueid": "MTK0726:3SEPORI8WO6XJ2PK5U9PR0Z4TFTZA6", "current_trial": 238, "dateTime": 1512678580989, "trialdata": {"rt": -1000, "stimulus": "/static/audio/400Hz.wav", "key_press": -1, "type": "PRE_RECALL_ALERT", "trial_type": "single-audio", "trial_index": 238, "time_elapsed": 1134450, "internal_node_id": "0.0-175.0"}}, {"uniqueid": "MTK0726:3SEPORI8WO6XJ2PK5U9PR0Z4TFTZA6", "current_trial": 239, "dateTime": 1512678641003, "trialdata": {"rt": [7858, 9535, 16577, 18848, 27491, 32146, 37112, 53907], "recwords": ["husband", "lover", "brandy", "scotch", "stomach", "shortcake", "canal", "lightning"], "type": "FREE_RECALL", "conditions": [12, 1600, "v", 24000], "trial": 6, "trial_type": "free-recall", "trial_index": 239, "time_elapsed": 1194451, "internal_node_id": "0.0-176.0-0.0"}}, {"uniqueid": "MTK0726:3SEPORI8WO6XJ2PK5U9PR0Z4TFTZA6", "current_trial": 240, "dateTime": 1512678644023, "trialdata": {"rt": 1019, "key_press": 32, "type": "INSTRUCTIONS", "trial_type": "text", "trial_index": 240, "time_elapsed": 1197484, "internal_node_id": "0.0-177.0"}}, {"uniqueid": "MTK0726:3SEPORI8WO6XJ2PK5U9PR0Z4TFTZA6", "current_trial": 241, "dateTime": 1512678670027, "trialdata": {"rt": [2948, 5849, 8673, 13751, 16532, 20168, 22283], "responses": ["70", "19", "18", "24", "14", "13", "11"], "num1": [2, 4, 2, 8, 7, 3, 1, 6], "num2": [5, 6, 7, 7, 5, 4, 9, 5], "num3": [3, 9, 9, 9, 2, 6, 1, 8], "type": "DISTRACTOR", "conditions": [24, 1600, "v", 24000], "trial": 7, "trial_type": "math-distractor", "trial_index": 241, "time_elapsed": 1223488, "internal_node_id": "0.0-178.0"}}, {"uniqueid": "MTK0726:3SEPORI8WO6XJ2PK5U9PR0Z4TFTZA6", "current_trial": 242, "dateTime": 1512678673029, "trialdata": {"rt": -1, "stimulus": "<p id=\"stim\">10</p>", "key_press": -1, "trial_type": "single-stim", "trial_index": 242, "time_elapsed": 1226490, "internal_node_id": "0.0-179.0-0.0"}}, {"uniqueid": "MTK0726:3SEPORI8WO6XJ2PK5U9PR0Z4TFTZA6", "current_trial": 243, "dateTime": 1512678674031, "trialdata": {"rt": -1, "stimulus": "<p id=\"stim\">9</p>", "key_press": -1, "trial_type": "single-stim", "trial_index": 243, "time_elapsed": 1227492, "internal_node_id": "0.0-179.0-1.0"}}, {"uniqueid": "MTK0726:3SEPORI8WO6XJ2PK5U9PR0Z4TFTZA6", "current_trial": 244, "dateTime": 1512678675032, "trialdata": {"rt": -1, "stimulus": "<p id=\"stim\">8</p>", "key_press": -1, "trial_type": "single-stim", "trial_index": 244, "time_elapsed": 1228493, "internal_node_id": "0.0-179.0-2.0"}}, {"uniqueid": "MTK0726:3SEPORI8WO6XJ2PK5U9PR0Z4TFTZA6", "current_trial": 245, "dateTime": 1512678676033, "trialdata": {"rt": -1, "stimulus": "<p id=\"stim\">7</p>", "key_press": -1, "trial_type": "single-stim", "trial_index": 245, "time_elapsed": 1229494, "internal_node_id": "0.0-179.0-3.0"}}, {"uniqueid": "MTK0726:3SEPORI8WO6XJ2PK5U9PR0Z4TFTZA6", "current_trial": 246, "dateTime": 1512678677034, "trialdata": {"rt": -1, "stimulus": "<p id=\"stim\">6</p>", "key_press": -1, "trial_type": "single-stim", "trial_index": 246, "time_elapsed": 1230495, "internal_node_id": "0.0-179.0-4.0"}}, {"uniqueid": "MTK0726:3SEPORI8WO6XJ2PK5U9PR0Z4TFTZA6", "current_trial": 247, "dateTime": 1512678678035, "trialdata": {"rt": -1, "stimulus": "<p id=\"stim\">5</p>", "key_press": -1, "trial_type": "single-stim", "trial_index": 247, "time_elapsed": 1231496, "internal_node_id": "0.0-179.0-5.0"}}, {"uniqueid": "MTK0726:3SEPORI8WO6XJ2PK5U9PR0Z4TFTZA6", "current_trial": 248, "dateTime": 1512678679037, "trialdata": {"rt": -1, "stimulus": "<p id=\"stim\">4</p>", "key_press": -1, "trial_type": "single-stim", "trial_index": 248, "time_elapsed": 1232498, "internal_node_id": "0.0-179.0-6.0"}}, {"uniqueid": "MTK0726:3SEPORI8WO6XJ2PK5U9PR0Z4TFTZA6", "current_trial": 249, "dateTime": 1512678680038, "trialdata": {"rt": -1, "stimulus": "<p id=\"stim\">3</p>", "key_press": -1, "trial_type": "single-stim", "trial_index": 249, "time_elapsed": 1233499, "internal_node_id": "0.0-179.0-7.0"}}, {"uniqueid": "MTK0726:3SEPORI8WO6XJ2PK5U9PR0Z4TFTZA6", "current_trial": 250, "dateTime": 1512678681039, "trialdata": {"rt": -1, "stimulus": "<p id=\"stim\">2</p>", "key_press": -1, "trial_type": "single-stim", "trial_index": 250, "time_elapsed": 1234500, "internal_node_id": "0.0-179.0-8.0"}}, {"uniqueid": "MTK0726:3SEPORI8WO6XJ2PK5U9PR0Z4TFTZA6", "current_trial": 251, "dateTime": 1512678682040, "trialdata": {"rt": -1, "stimulus": "<p id=\"stim\">1</p>", "key_press": -1, "trial_type": "single-stim", "trial_index": 251, "time_elapsed": 1235501, "internal_node_id": "0.0-179.0-9.0"}}, {"uniqueid": "MTK0726:3SEPORI8WO6XJ2PK5U9PR0Z4TFTZA6", "current_trial": 252, "dateTime": 1512678683541, "trialdata": {"rt": -1, "stimulus": "<p id=\"stim\">+</p>", "key_press": -1, "type": "FIXATION", "trial_type": "single-stim", "trial_index": 252, "time_elapsed": 1237002, "internal_node_id": "0.0-180.0-0.0"}}, {"uniqueid": "MTK0726:3SEPORI8WO6XJ2PK5U9PR0Z4TFTZA6", "current_trial": 253, "dateTime": 1512678685142, "trialdata": {"rt": -1, "stimulus": "<p id=\"stim\">CRIB</p>", "key_press": -1, "type": "PRES_VIS", "word": "crib", "wordID": 406, "conditions": [24, 1600, "v", 24000], "trial": 7, "serialpos": 0, "trial_type": "single-stim", "trial_index": 253, "time_elapsed": 1238603, "internal_node_id": "0.0-181.0"}}, {"uniqueid": "MTK0726:3SEPORI8WO6XJ2PK5U9PR0Z4TFTZA6", "current_trial": 254, "dateTime": 1512678687681, "trialdata": {"rt": -1, "stimulus": "<p id=\"stim\">ONION</p>", "key_press": -1, "type": "PRES_VIS", "word": "onion", "wordID": 976, "conditions": [24, 1600, "v", 24000], "trial": 7, "serialpos": 1, "trial_type": "single-stim", "trial_index": 254, "time_elapsed": 1241142, "internal_node_id": "0.0-182.0"}}, {"uniqueid": "MTK0726:3SEPORI8WO6XJ2PK5U9PR0Z4TFTZA6", "current_trial": 255, "dateTime": 1512678690282, "trialdata": {"rt": -1, "stimulus": "<p id=\"stim\">RIVER</p>", "key_press": -1, "type": "PRES_VIS", "word": "river", "wordID": 1193, "conditions": [24, 1600, "v", 24000], "trial": 7, "serialpos": 2, "trial_type": "single-stim", "trial_index": 255, "time_elapsed": 1243743, "internal_node_id": "0.0-183.0"}}, {"uniqueid": "MTK0726:3SEPORI8WO6XJ2PK5U9PR0Z4TFTZA6", "current_trial": 256, "dateTime": 1512678692775, "trialdata": {"rt": -1, "stimulus": "<p id=\"stim\">BROOK</p>", "key_press": -1, "type": "PRES_VIS", "word": "brook", "wordID": 176, "conditions": [24, 1600, "v", 24000], "trial": 7, "serialpos": 3, "trial_type": "single-stim", "trial_index": 256, "time_elapsed": 1246236, "internal_node_id": "0.0-184.0"}}, {"uniqueid": "MTK0726:3SEPORI8WO6XJ2PK5U9PR0Z4TFTZA6", "current_trial": 257, "dateTime": 1512678695547, "trialdata": {"rt": -1, "stimulus": "<p id=\"stim\">MOP</p>", "key_press": -1, "type": "PRES_VIS", "word": "mop", "wordID": 915, "conditions": [24, 1600, "v", 24000], "trial": 7, "serialpos": 4, "trial_type": "single-stim", "trial_index": 257, "time_elapsed": 1249008, "internal_node_id": "0.0-185.0"}}, {"uniqueid": "MTK0726:3SEPORI8WO6XJ2PK5U9PR0Z4TFTZA6", "current_trial": 258, "dateTime": 1512678698222, "trialdata": {"rt": -1, "stimulus": "<p id=\"stim\">MONSTER</p>", "key_press": -1, "type": "PRES_VIS", "word": "monster", "wordID": 911, "conditions": [24, 1600, "v", 24000], "trial": 7, "serialpos": 5, "trial_type": "single-stim", "trial_index": 258, "time_elapsed": 1251683, "internal_node_id": "0.0-186.0"}}, {"uniqueid": "MTK0726:3SEPORI8WO6XJ2PK5U9PR0Z4TFTZA6", "current_trial": 259, "dateTime": 1512678700893, "trialdata": {"rt": -1, "stimulus": "<p id=\"stim\">OYSTER</p>", "key_press": -1, "type": "PRES_VIS", "word": "oyster", "wordID": 994, "conditions": [24, 1600, "v", 24000], "trial": 7, "serialpos": 6, "trial_type": "single-stim", "trial_index": 259, "time_elapsed": 1254354, "internal_node_id": "0.0-187.0"}}, {"uniqueid": "MTK0726:3SEPORI8WO6XJ2PK5U9PR0Z4TFTZA6", "current_trial": 260, "dateTime": 1512678703455, "trialdata": {"rt": -1, "stimulus": "<p id=\"stim\">WRIST</p>", "key_press": -1, "type": "PRES_VIS", "word": "wrist", "wordID": 1625, "conditions": [24, 1600, "v", 24000], "trial": 7, "serialpos": 7, "trial_type": "single-stim", "trial_index": 260, "time_elapsed": 1256915, "internal_node_id": "0.0-188.0"}}, {"uniqueid": "MTK0726:3SEPORI8WO6XJ2PK5U9PR0Z4TFTZA6", "current_trial": 261, "dateTime": 1512678706123, "trialdata": {"rt": -1, "stimulus": "<p id=\"stim\">LETTUCE</p>", "key_press": -1, "type": "PRES_VIS", "word": "lettuce", "wordID": 813, "conditions": [24, 1600, "v", 24000], "trial": 7, "serialpos": 8, "trial_type": "single-stim", "trial_index": 261, "time_elapsed": 1259584, "internal_node_id": "0.0-189.0"}}, {"uniqueid": "MTK0726:3SEPORI8WO6XJ2PK5U9PR0Z4TFTZA6", "current_trial": 262, "dateTime": 1512678708670, "trialdata": {"rt": -1, "stimulus": "<p id=\"stim\">GRAPE</p>", "key_press": -1, "type": "PRES_VIS", "word": "grape", "wordID": 653, "conditions": [24, 1600, "v", 24000], "trial": 7, "serialpos": 9, "trial_type": "single-stim", "trial_index": 262, "time_elapsed": 1262131, "internal_node_id": "0.0-190.0"}}, {"uniqueid": "MTK0726:3SEPORI8WO6XJ2PK5U9PR0Z4TFTZA6", "current_trial": 263, "dateTime": 1512678711284, "trialdata": {"rt": -1, "stimulus": "<p id=\"stim\">FRAGRANCE</p>", "key_press": -1, "type": "PRES_VIS", "word": "fragrance", "wordID": 598, "conditions": [24, 1600, "v", 24000], "trial": 7, "serialpos": 10, "trial_type": "single-stim", "trial_index": 263, "time_elapsed": 1264745, "internal_node_id": "0.0-191.0"}}, {"uniqueid": "MTK0726:3SEPORI8WO6XJ2PK5U9PR0Z4TFTZA6", "current_trial": 264, "dateTime": 1512678714051, "trialdata": {"rt": -1, "stimulus": "<p id=\"stim\">SPACE</p>", "key_press": -1, "type": "PRES_VIS", "word": "space", "wordID": 1344, "conditions": [24, 1600, "v", 24000], "trial": 7, "serialpos": 11, "trial_type": "single-stim", "trial_index": 264, "time_elapsed": 1267512, "internal_node_id": "0.0-192.0"}}, {"uniqueid": "MTK0726:3SEPORI8WO6XJ2PK5U9PR0Z4TFTZA6", "current_trial": 265, "dateTime": 1512678716642, "trialdata": {"rt": -1, "stimulus": "<p id=\"stim\">KITCHEN</p>", "key_press": -1, "type": "PRES_VIS", "word": "kitchen", "wordID": 777, "conditions": [24, 1600, "v", 24000], "trial": 7, "serialpos": 12, "trial_type": "single-stim", "trial_index": 265, "time_elapsed": 1270103, "internal_node_id": "0.0-193.0"}}, {"uniqueid": "MTK0726:3SEPORI8WO6XJ2PK5U9PR0Z4TFTZA6", "current_trial": 266, "dateTime": 1512678719279, "trialdata": {"rt": -1, "stimulus": "<p id=\"stim\">PIANO</p>", "key_press": -1, "type": "PRES_VIS", "word": "piano", "wordID": 1056, "conditions": [24, 1600, "v", 24000], "trial": 7, "serialpos": 13, "trial_type": "single-stim", "trial_index": 266, "time_elapsed": 1272740, "internal_node_id": "0.0-194.0"}}, {"uniqueid": "MTK0726:3SEPORI8WO6XJ2PK5U9PR0Z4TFTZA6", "current_trial": 267, "dateTime": 1512678721982, "trialdata": {"rt": -1, "stimulus": "<p id=\"stim\">MUFFIN</p>", "key_press": -1, "type": "PRES_VIS", "word": "muffin", "wordID": 928, "conditions": [24, 1600, "v", 24000], "trial": 7, "serialpos": 14, "trial_type": "single-stim", "trial_index": 267, "time_elapsed": 1275443, "internal_node_id": "0.0-195.0"}}, {"uniqueid": "MTK0726:3SEPORI8WO6XJ2PK5U9PR0Z4TFTZA6", "current_trial": 268, "dateTime": 1512678724519, "trialdata": {"rt": -1, "stimulus": "<p id=\"stim\">CRATER</p>", "key_press": -1, "type": "PRES_VIS", "word": "crater", "wordID": 399, "conditions": [24, 1600, "v", 24000], "trial": 7, "serialpos": 15, "trial_type": "single-stim", "trial_index": 268, "time_elapsed": 1277980, "internal_node_id": "0.0-196.0"}}, {"uniqueid": "MTK0726:3SEPORI8WO6XJ2PK5U9PR0Z4TFTZA6", "current_trial": 269, "dateTime": 1512678727228, "trialdata": {"rt": -1, "stimulus": "<p id=\"stim\">LAVA</p>", "key_press": -1, "type": "PRES_VIS", "word": "lava", "wordID": 803, "conditions": [24, 1600, "v", 24000], "trial": 7, "serialpos": 16, "trial_type": "single-stim", "trial_index": 269, "time_elapsed": 1280689, "internal_node_id": "0.0-197.0"}}, {"uniqueid": "MTK0726:3SEPORI8WO6XJ2PK5U9PR0Z4TFTZA6", "current_trial": 270, "dateTime": 1512678729977, "trialdata": {"rt": -1, "stimulus": "<p id=\"stim\">BARLEY</p>", "key_press": -1, "type": "PRES_VIS", "word": "barley", "wordID": 87, "conditions": [24, 1600, "v", 24000], "trial": 7, "serialpos": 17, "trial_type": "single-stim", "trial_index": 270, "time_elapsed": 1283438, "internal_node_id": "0.0-198.0"}}, {"uniqueid": "MTK0726:3SEPORI8WO6XJ2PK5U9PR0Z4TFTZA6", "current_trial": 271, "dateTime": 1512678732483, "trialdata": {"rt": -1, "stimulus": "<p id=\"stim\">SUSPECT</p>", "key_press": -1, "type": "PRES_VIS", "word": "suspect", "wordID": 1414, "conditions": [24, 1600, "v", 24000], "trial": 7, "serialpos": 18, "trial_type": "single-stim", "trial_index": 271, "time_elapsed": 1285940, "internal_node_id": "0.0-199.0"}}, {"uniqueid": "MTK0726:3SEPORI8WO6XJ2PK5U9PR0Z4TFTZA6", "current_trial": 272, "dateTime": 1512678735257, "trialdata": {"rt": -1, "stimulus": "<p id=\"stim\">GANGSTER</p>", "key_press": -1, "type": "PRES_VIS", "word": "gangster", "wordID": 619, "conditions": [24, 1600, "v", 24000], "trial":