{"condition": 0, "counterbalance": 1698, "assignmentId": "39GXDJN2OUL2RURV7Z08A3GDFJ58VZ", "workerId": "MTK0774", "hitId": "3VGZ74AYTGNJYGTJ9ECPN4D22PXGCG", "currenttrial": 626, "bonus": 0, "data": [{"uniqueid": "MTK0774:39GXDJN2OUL2RURV7Z08A3GDFJ58VZ", "current_trial": 0, "dateTime": 1512750424094, "trialdata": {"rt": 7147, "key_press": 32, "type": "INSTRUCTIONS", "trial_type": "text", "trial_index": 0, "time_elapsed": 7150, "internal_node_id": "0.0-0.0"}}, {"uniqueid": "MTK0774:39GXDJN2OUL2RURV7Z08A3GDFJ58VZ", "current_trial": 1, "dateTime": 1512750464569, "trialdata": {"rt": 40472, "key_press": 32, "type": "INSTRUCTIONS", "trial_type": "text", "trial_index": 1, "time_elapsed": 47626, "internal_node_id": "0.0-1.0"}}, {"uniqueid": "MTK0774:39GXDJN2OUL2RURV7Z08A3GDFJ58VZ", "current_trial": 2, "dateTime": 1512750473642, "trialdata": {"rt": [9007], "responses": ["ocean"], "type": "AUDIO_TEST", "trial_type": "audio-test", "trial_index": 2, "time_elapsed": 56699, "internal_node_id": "0.0-2.0"}}, {"uniqueid": "MTK0774:39GXDJN2OUL2RURV7Z08A3GDFJ58VZ", "current_trial": 3, "dateTime": 1512750478553, "trialdata": {"rt": [4891], "responses": ["crystal"], "type": "AUDIO_TEST", "trial_type": "audio-test", "trial_index": 3, "time_elapsed": 61610, "internal_node_id": "0.0-3.0"}}, {"uniqueid": "MTK0774:39GXDJN2OUL2RURV7Z08A3GDFJ58VZ", "current_trial": 4, "dateTime": 1512750485657, "trialdata": {"rt": [7084], "responses": ["spice"], "type": "AUDIO_TEST", "trial_type": "audio-test", "trial_index": 4, "time_elapsed": 68713, "internal_node_id": "0.0-4.0"}}, {"uniqueid": "MTK0774:39GXDJN2OUL2RURV7Z08A3GDFJ58VZ", "current_trial": 5, "dateTime": 1512750506795, "trialdata": {"rt": 20378, "responses": "{\"Q0\":\"2 AM\",\"Q1\":\"8 AM\",\"Q2\":\"3.2\"}", "type": "SLEEP_SURVEY", "trial_type": "survey-text", "trial_index": 5, "time_elapsed": 89851, "internal_node_id": "0.0-5.0"}}, {"uniqueid": "MTK0774:39GXDJN2OUL2RURV7Z08A3GDFJ58VZ", "current_trial": 6, "dateTime": 1512750693389, "trialdata": {"rt": 185593, "key_press": 32, "type": "INSTRUCTIONS", "trial_type": "text", "trial_index": 6, "time_elapsed": 276446, "internal_node_id": "0.0-6.0"}}, {"uniqueid": "MTK0774:39GXDJN2OUL2RURV7Z08A3GDFJ58VZ", "current_trial": 7, "dateTime": 1512750719163, "trialdata": {"rt": 25272, "key_press": 32, "type": "INSTRUCTIONS", "trial_type": "text", "trial_index": 7, "time_elapsed": 302220, "internal_node_id": "0.0-7.0"}}, {"uniqueid": "MTK0774:39GXDJN2OUL2RURV7Z08A3GDFJ58VZ", "current_trial": 8, "dateTime": 1512750779177, "trialdata": {"rt": 59507, "key_press": 32, "type": "INSTRUCTIONS", "trial_type": "text", "trial_index": 8, "time_elapsed": 362233, "internal_node_id": "0.0-8.0"}}, {"uniqueid": "MTK0774:39GXDJN2OUL2RURV7Z08A3GDFJ58VZ", "current_trial": 9, "dateTime": 1512750798193, "trialdata": {"rt": [4667, 7867, 10571, 12635, 15626], "responses": ["15", "12", "11", "7", "18"], "num1": [2, 9, 1, 1, 6, 4], "num2": [8, 1, 8, 1, 7, 5], "num3": [5, 2, 2, 5, 5, 8], "type": "DISTRACTOR", "conditions": [18, 1200, "v", 18000], "trial": 0, "trial_type": "math-distractor", "trial_index": 9, "time_elapsed": 381250, "internal_node_id": "0.0-9.0"}}, {"uniqueid": "MTK0774:39GXDJN2OUL2RURV7Z08A3GDFJ58VZ", "current_trial": 10, "dateTime": 1512750801213, "trialdata": {"rt": -1, "stimulus": "<p id=\"stim\">10</p>", "key_press": -1, "trial_type": "single-stim", "trial_index": 10, "time_elapsed": 384270, "internal_node_id": "0.0-10.0-0.0"}}, {"uniqueid": "MTK0774:39GXDJN2OUL2RURV7Z08A3GDFJ58VZ", "current_trial": 11, "dateTime": 1512750802224, "trialdata": {"rt": -1, "stimulus": "<p id=\"stim\">9</p>", "key_press": -1, "trial_type": "single-stim", "trial_index": 11, "time_elapsed": 385280, "internal_node_id": "0.0-10.0-1.0"}}, {"uniqueid": "MTK0774:39GXDJN2OUL2RURV7Z08A3GDFJ58VZ", "current_trial": 12, "dateTime": 1512750803233, "trialdata": {"rt": -1, "stimulus": "<p id=\"stim\">8</p>", "key_press": -1, "trial_type": "single-stim", "trial_index": 12, "time_elapsed": 386290, "internal_node_id": "0.0-10.0-2.0"}}, {"uniqueid": "MTK0774:39GXDJN2OUL2RURV7Z08A3GDFJ58VZ", "current_trial": 13, "dateTime": 1512750804243, "trialdata": {"rt": -1, "stimulus": "<p id=\"stim\">7</p>", "key_press": -1, "trial_type": "single-stim", "trial_index": 13, "time_elapsed": 387299, "internal_node_id": "0.0-10.0-3.0"}}, {"uniqueid": "MTK0774:39GXDJN2OUL2RURV7Z08A3GDFJ58VZ", "current_trial": 14, "dateTime": 1512750805252, "trialdata": {"rt": -1, "stimulus": "<p id=\"stim\">6</p>", "key_press": -1, "trial_type": "single-stim", "trial_index": 14, "time_elapsed": 388309, "internal_node_id": "0.0-10.0-4.0"}}, {"uniqueid": "MTK0774:39GXDJN2OUL2RURV7Z08A3GDFJ58VZ", "current_trial": 15, "dateTime": 1512750806262, "trialdata": {"rt": -1, "stimulus": "<p id=\"stim\">5</p>", "key_press": -1, "trial_type": "single-stim", "trial_index": 15, "time_elapsed": 389319, "internal_node_id": "0.0-10.0-5.0"}}, {"uniqueid": "MTK0774:39GXDJN2OUL2RURV7Z08A3GDFJ58VZ", "current_trial": 16, "dateTime": 1512750807272, "trialdata": {"rt": -1, "stimulus": "<p id=\"stim\">4</p>", "key_press": -1, "trial_type": "single-stim", "trial_index": 16, "time_elapsed": 390329, "internal_node_id": "0.0-10.0-6.0"}}, {"uniqueid": "MTK0774:39GXDJN2OUL2RURV7Z08A3GDFJ58VZ", "current_trial": 17, "dateTime": 1512750808282, "trialdata": {"rt": -1, "stimulus": "<p id=\"stim\">3</p>", "key_press": -1, "trial_type": "single-stim", "trial_index": 17, "time_elapsed": 391339, "internal_node_id": "0.0-10.0-7.0"}}, {"uniqueid": "MTK0774:39GXDJN2OUL2RURV7Z08A3GDFJ58VZ", "current_trial": 18, "dateTime": 1512750809292, "trialdata": {"rt": -1, "stimulus": "<p id=\"stim\">2</p>", "key_press": -1, "trial_type": "single-stim", "trial_index": 18, "time_elapsed": 392349, "internal_node_id": "0.0-10.0-8.0"}}, {"uniqueid": "MTK0774:39GXDJN2OUL2RURV7Z08A3GDFJ58VZ", "current_trial": 19, "dateTime": 1512750810302, "trialdata": {"rt": -1, "stimulus": "<p id=\"stim\">1</p>", "key_press": -1, "trial_type": "single-stim", "trial_index": 19, "time_elapsed": 393359, "internal_node_id": "0.0-10.0-9.0"}}, {"uniqueid": "MTK0774:39GXDJN2OUL2RURV7Z08A3GDFJ58VZ", "current_trial": 20, "dateTime": 1512750811813, "trialdata": {"rt": -1, "stimulus": "<p id=\"stim\">+</p>", "key_press": -1, "type": "FIXATION", "trial_type": "single-stim", "trial_index": 20, "time_elapsed": 394869, "internal_node_id": "0.0-11.0-0.0"}}, {"uniqueid": "MTK0774:39GXDJN2OUL2RURV7Z08A3GDFJ58VZ", "current_trial": 21, "dateTime": 1512750813022, "trialdata": {"rt": -1, "stimulus": "<p id=\"stim\">CLOUD</p>", "key_press": -1, "type": "PRES_VIS", "word": "cloud", "wordID": 327, "conditions": [18, 1200, "v", 18000], "trial": 0, "serialpos": 0, "trial_type": "single-stim", "trial_index": 21, "time_elapsed": 396079, "internal_node_id": "0.0-12.0"}}, {"uniqueid": "MTK0774:39GXDJN2OUL2RURV7Z08A3GDFJ58VZ", "current_trial": 22, "dateTime": 1512750815152, "trialdata": {"rt": -1, "stimulus": "<p id=\"stim\">ITEM</p>", "key_press": -1, "type": "PRES_VIS", "word": "item", "wordID": 745, "conditions": [18, 1200, "v", 18000], "trial": 0, "serialpos": 1, "trial_type": "single-stim", "trial_index": 22, "time_elapsed": 398208, "internal_node_id": "0.0-13.0"}}, {"uniqueid": "MTK0774:39GXDJN2OUL2RURV7Z08A3GDFJ58VZ", "current_trial": 23, "dateTime": 1512750817471, "trialdata": {"rt": -1, "stimulus": "<p id=\"stim\">ACTRESS</p>", "key_press": -1, "type": "PRES_VIS", "word": "actress", "wordID": 5, "conditions": [18, 1200, "v", 18000], "trial": 0, "serialpos": 2, "trial_type": "single-stim", "trial_index": 23, "time_elapsed": 400528, "internal_node_id": "0.0-14.0"}}, {"uniqueid": "MTK0774:39GXDJN2OUL2RURV7Z08A3GDFJ58VZ", "current_trial": 24, "dateTime": 1512750819771, "trialdata": {"rt": -1, "stimulus": "<p id=\"stim\">SCRIBBLE</p>", "key_press": -1, "type": "PRES_VIS", "word": "scribble", "wordID": 1255, "conditions": [18, 1200, "v", 18000], "trial": 0, "serialpos": 3, "trial_type": "single-stim", "trial_index": 24, "time_elapsed": 402828, "internal_node_id": "0.0-15.0"}}, {"uniqueid": "MTK0774:39GXDJN2OUL2RURV7Z08A3GDFJ58VZ", "current_trial": 25, "dateTime": 1512750822121, "trialdata": {"rt": -1, "stimulus": "<p id=\"stim\">SALT</p>", "key_press": -1, "type": "PRES_VIS", "word": "salt", "wordID": 1228, "conditions": [18, 1200, "v", 18000], "trial": 0, "serialpos": 4, "trial_type": "single-stim", "trial_index": 25, "time_elapsed": 405178, "internal_node_id": "0.0-16.0"}}, {"uniqueid": "MTK0774:39GXDJN2OUL2RURV7Z08A3GDFJ58VZ", "current_trial": 26, "dateTime": 1512750824531, "trialdata": {"rt": -1, "stimulus": "<p id=\"stim\">TWEEZERS</p>", "key_press": -1, "type": "PRES_VIS", "word": "tweezers", "wordID": 1525, "conditions": [18, 1200, "v", 18000], "trial": 0, "serialpos": 5, "trial_type": "single-stim", "trial_index": 26, "time_elapsed": 407588, "internal_node_id": "0.0-17.0"}}, {"uniqueid": "MTK0774:39GXDJN2OUL2RURV7Z08A3GDFJ58VZ", "current_trial": 27, "dateTime": 1512750826831, "trialdata": {"rt": -1, "stimulus": "<p id=\"stim\">HORNET</p>", "key_press": -1, "type": "PRES_VIS", "word": "hornet", "wordID": 717, "conditions": [18, 1200, "v", 18000], "trial": 0, "serialpos": 6, "trial_type": "single-stim", "trial_index": 27, "time_elapsed": 409888, "internal_node_id": "0.0-18.0"}}, {"uniqueid": "MTK0774:39GXDJN2OUL2RURV7Z08A3GDFJ58VZ", "current_trial": 28, "dateTime": 1512750829201, "trialdata": {"rt": -1, "stimulus": "<p id=\"stim\">COSTUME</p>", "key_press": -1, "type": "PRES_VIS", "word": "costume", "wordID": 382, "conditions": [18, 1200, "v", 18000], "trial": 0, "serialpos": 7, "trial_type": "single-stim", "trial_index": 28, "time_elapsed": 412257, "internal_node_id": "0.0-19.0"}}, {"uniqueid": "MTK0774:39GXDJN2OUL2RURV7Z08A3GDFJ58VZ", "current_trial": 29, "dateTime": 1512750831460, "trialdata": {"rt": -1, "stimulus": "<p id=\"stim\">GIRL</p>", "key_press": -1, "type": "PRES_VIS", "word": "girl", "wordID": 636, "conditions": [18, 1200, "v", 18000], "trial": 0, "serialpos": 8, "trial_type": "single-stim", "trial_index": 29, "time_elapsed": 414517, "internal_node_id": "0.0-20.0"}}, {"uniqueid": "MTK0774:39GXDJN2OUL2RURV7Z08A3GDFJ58VZ", "current_trial": 30, "dateTime": 1512750833760, "trialdata": {"rt": -1, "stimulus": "<p id=\"stim\">LIGHTNING</p>", "key_press": -1, "type": "PRES_VIS", "word": "lightning", "wordID": 819, "conditions": [18, 1200, "v", 18000], "trial": 0, "serialpos": 9, "trial_type": "single-stim", "trial_index": 30, "time_elapsed": 416817, "internal_node_id": "0.0-21.0"}}, {"uniqueid": "MTK0774:39GXDJN2OUL2RURV7Z08A3GDFJ58VZ", "current_trial": 31, "dateTime": 1512750836120, "trialdata": {"rt": -1, "stimulus": "<p id=\"stim\">KETCHUP</p>", "key_press": -1, "type": "PRES_VIS", "word": "ketchup", "wordID": 770, "conditions": [18, 1200, "v", 18000], "trial": 0, "serialpos": 10, "trial_type": "single-stim", "trial_index": 31, "time_elapsed": 419177, "internal_node_id": "0.0-22.0"}}, {"uniqueid": "MTK0774:39GXDJN2OUL2RURV7Z08A3GDFJ58VZ", "current_trial": 32, "dateTime": 1512750838190, "trialdata": {"rt": -1, "stimulus": "<p id=\"stim\">NOVEL</p>", "key_press": -1, "type": "PRES_VIS", "word": "novel", "wordID": 959, "conditions": [18, 1200, "v", 18000], "trial": 0, "serialpos": 11, "trial_type": "single-stim", "trial_index": 32, "time_elapsed": 421247, "internal_node_id": "0.0-23.0"}}, {"uniqueid": "MTK0774:39GXDJN2OUL2RURV7Z08A3GDFJ58VZ", "current_trial": 33, "dateTime": 1512750840340, "trialdata": {"rt": -1, "stimulus": "<p id=\"stim\">CASHIER</p>", "key_press": -1, "type": "PRES_VIS", "word": "cashier", "wordID": 253, "conditions": [18, 1200, "v", 18000], "trial": 0, "serialpos": 12, "trial_type": "single-stim", "trial_index": 33, "time_elapsed": 423396, "internal_node_id": "0.0-24.0"}}, {"uniqueid": "MTK0774:39GXDJN2OUL2RURV7Z08A3GDFJ58VZ", "current_trial": 34, "dateTime": 1512750842669, "trialdata": {"rt": -1, "stimulus": "<p id=\"stim\">QUEEN</p>", "key_press": -1, "type": "PRES_VIS", "word": "queen", "wordID": 1148, "conditions": [18, 1200, "v", 18000], "trial": 0, "serialpos": 13, "trial_type": "single-stim", "trial_index": 34, "time_elapsed": 425726, "internal_node_id": "0.0-25.0"}}, {"uniqueid": "MTK0774:39GXDJN2OUL2RURV7Z08A3GDFJ58VZ", "current_trial": 35, "dateTime": 1512750844889, "trialdata": {"rt": -1, "stimulus": "<p id=\"stim\">LACE</p>", "key_press": -1, "type": "PRES_VIS", "word": "lace", "wordID": 791, "conditions": [18, 1200, "v", 18000], "trial": 0, "serialpos": 14, "trial_type": "single-stim", "trial_index": 35, "time_elapsed": 427946, "internal_node_id": "0.0-26.0"}}, {"uniqueid": "MTK0774:39GXDJN2OUL2RURV7Z08A3GDFJ58VZ", "current_trial": 36, "dateTime": 1512750847229, "trialdata": {"rt": -1, "stimulus": "<p id=\"stim\">ROOSTER</p>", "key_press": -1, "type": "PRES_VIS", "word": "rooster", "wordID": 1208, "conditions": [18, 1200, "v", 18000], "trial": 0, "serialpos": 15, "trial_type": "single-stim", "trial_index": 36, "time_elapsed": 430286, "internal_node_id": "0.0-27.0"}}, {"uniqueid": "MTK0774:39GXDJN2OUL2RURV7Z08A3GDFJ58VZ", "current_trial": 37, "dateTime": 1512750849299, "trialdata": {"rt": -1, "stimulus": "<p id=\"stim\">PEANUT</p>", "key_press": -1, "type": "PRES_VIS", "word": "peanut", "wordID": 1031, "conditions": [18, 1200, "v", 18000], "trial": 0, "serialpos": 16, "trial_type": "single-stim", "trial_index": 37, "time_elapsed": 432356, "internal_node_id": "0.0-28.0"}}, {"uniqueid": "MTK0774:39GXDJN2OUL2RURV7Z08A3GDFJ58VZ", "current_trial": 38, "dateTime": 1512750851329, "trialdata": {"rt": -1, "stimulus": "<p id=\"stim\">EUROPE</p>", "key_press": -1, "type": "PRES_VIS", "word": "europe", "wordID": 540, "conditions": [18, 1200, "v", 18000], "trial": 0, "serialpos": 17, "trial_type": "single-stim", "trial_index": 38, "time_elapsed": 434386, "internal_node_id": "0.0-29.0"}}, {"uniqueid": "MTK0774:39GXDJN2OUL2RURV7Z08A3GDFJ58VZ", "current_trial": 39, "dateTime": 1512750853489, "trialdata": {"rt": -1, "stimulus": "", "key_press": -1, "type": "PRE_RECALL_DELAY", "trial_type": "single-stim", "trial_index": 39, "time_elapsed": 436545, "internal_node_id": "0.0-30.0-0.0"}}, {"uniqueid": "MTK0774:39GXDJN2OUL2RURV7Z08A3GDFJ58VZ", "current_trial": 40, "dateTime": 1512750853999, "trialdata": {"rt": -1000, "stimulus": "/static/audio/400Hz.wav", "key_press": -1, "type": "PRE_RECALL_ALERT", "trial_type": "single-audio", "trial_index": 40, "time_elapsed": 437056, "internal_node_id": "0.0-31.0"}}, {"uniqueid": "MTK0774:39GXDJN2OUL2RURV7Z08A3GDFJ58VZ", "current_trial": 41, "dateTime": 1512750914044, "trialdata": {"rt": [5554, 7746, 9762, 12130, 13122, 15282, 17554, 26817, 35889, 38097, 39105, 40049, 40752, 41408, 42000, 42528, 43088, 46800, 48768, 55599, 56735, 57535, 58623, 59183, 59551], "recwords": ["cloud", "item", "actress", "scribble", "salt", "tweezers", "hornet", "costume", "girl", "", "", "", "", "", "", "", "", "i", "don't", "a", "b", "c", "d", "e", "f"], "type": "FREE_RECALL", "conditions": [18, 1200, "v", 18000], "trial": 0, "trial_type": "free-recall", "trial_index": 41, "time_elapsed": 497094, "internal_node_id": "0.0-32.0-0.0"}}, {"uniqueid": "MTK0774:39GXDJN2OUL2RURV7Z08A3GDFJ58VZ", "current_trial": 42, "dateTime": 1512750918065, "trialdata": {"rt": 2020, "key_press": 32, "type": "INSTRUCTIONS", "trial_type": "text", "trial_index": 42, "time_elapsed": 501122, "internal_node_id": "0.0-33.0"}}, {"uniqueid": "MTK0774:39GXDJN2OUL2RURV7Z08A3GDFJ58VZ", "current_trial": 43, "dateTime": 1512750938075, "trialdata": {"rt": [5802, 8042, 12906, 15562, 17914], "responses": ["19", "15", "8", "9", "15"], "num1": [8, 6, 6, 1, 7, 9], "num2": [9, 7, 1, 5, 3, 8], "num3": [2, 2, 1, 3, 5, 9], "type": "DISTRACTOR", "conditions": [18, 1200, "a", 18000], "trial": 1, "trial_type": "math-distractor", "trial_index": 43, "time_elapsed": 521132, "internal_node_id": "0.0-34.0"}}, {"uniqueid": "MTK0774:39GXDJN2OUL2RURV7Z08A3GDFJ58VZ", "current_trial": 44, "dateTime": 1512750941095, "trialdata": {"rt": -1, "stimulus": "<p id=\"stim\">10</p>", "key_press": -1, "trial_type": "single-stim", "trial_index": 44, "time_elapsed": 524152, "internal_node_id": "0.0-35.0-0.0"}}, {"uniqueid": "MTK0774:39GXDJN2OUL2RURV7Z08A3GDFJ58VZ", "current_trial": 45, "dateTime": 1512750942105, "trialdata": {"rt": -1, "stimulus": "<p id=\"stim\">9</p>", "key_press": -1, "trial_type": "single-stim", "trial_index": 45, "time_elapsed": 525162, "internal_node_id": "0.0-35.0-1.0"}}, {"uniqueid": "MTK0774:39GXDJN2OUL2RURV7Z08A3GDFJ58VZ", "current_trial": 46, "dateTime": 1512750943115, "trialdata": {"rt": -1, "stimulus": "<p id=\"stim\">8</p>", "key_press": -1, "trial_type": "single-stim", "trial_index": 46, "time_elapsed": 526172, "internal_node_id": "0.0-35.0-2.0"}}, {"uniqueid": "MTK0774:39GXDJN2OUL2RURV7Z08A3GDFJ58VZ", "current_trial": 47, "dateTime": 1512750944125, "trialdata": {"rt": -1, "stimulus": "<p id=\"stim\">7</p>", "key_press": -1, "trial_type": "single-stim", "trial_index": 47, "time_elapsed": 527182, "internal_node_id": "0.0-35.0-3.0"}}, {"uniqueid": "MTK0774:39GXDJN2OUL2RURV7Z08A3GDFJ58VZ", "current_trial": 48, "dateTime": 1512750945135, "trialdata": {"rt": -1, "stimulus": "<p id=\"stim\">6</p>", "key_press": -1, "trial_type": "single-stim", "trial_index": 48, "time_elapsed": 528192, "internal_node_id": "0.0-35.0-4.0"}}, {"uniqueid": "MTK0774:39GXDJN2OUL2RURV7Z08A3GDFJ58VZ", "current_trial": 49, "dateTime": 1512750946145, "trialdata": {"rt": -1, "stimulus": "<p id=\"stim\">5</p>", "key_press": -1, "trial_type": "single-stim", "trial_index": 49, "time_elapsed": 529201, "internal_node_id": "0.0-35.0-5.0"}}, {"uniqueid": "MTK0774:39GXDJN2OUL2RURV7Z08A3GDFJ58VZ", "current_trial": 50, "dateTime": 1512750947155, "trialdata": {"rt": -1, "stimulus": "<p id=\"stim\">4</p>", "key_press": -1, "trial_type": "single-stim", "trial_index": 50, "time_elapsed": 530211, "internal_node_id": "0.0-35.0-6.0"}}, {"uniqueid": "MTK0774:39GXDJN2OUL2RURV7Z08A3GDFJ58VZ", "current_trial": 51, "dateTime": 1512750948164, "trialdata": {"rt": -1, "stimulus": "<p id=\"stim\">3</p>", "key_press": -1, "trial_type": "single-stim", "trial_index": 51, "time_elapsed": 531221, "internal_node_id": "0.0-35.0-7.0"}}, {"uniqueid": "MTK0774:39GXDJN2OUL2RURV7Z08A3GDFJ58VZ", "current_trial": 52, "dateTime": 1512750949174, "trialdata": {"rt": -1, "stimulus": "<p id=\"stim\">2</p>", "key_press": -1, "trial_type": "single-stim", "trial_index": 52, "time_elapsed": 532231, "internal_node_id": "0.0-35.0-8.0"}}, {"uniqueid": "MTK0774:39GXDJN2OUL2RURV7Z08A3GDFJ58VZ", "current_trial": 53, "dateTime": 1512750950184, "trialdata": {"rt": -1, "stimulus": "<p id=\"stim\">1</p>", "key_press": -1, "trial_type": "single-stim", "trial_index": 53, "time_elapsed": 533241, "internal_node_id": "0.0-35.0-9.0"}}, {"uniqueid": "MTK0774:39GXDJN2OUL2RURV7Z08A3GDFJ58VZ", "current_trial": 54, "dateTime": 1512750951694, "trialdata": {"rt": -1, "stimulus": "<p id=\"stim\">+</p>", "key_press": -1, "type": "FIXATION", "trial_type": "single-stim", "trial_index": 54, "time_elapsed": 534751, "internal_node_id": "0.0-36.0-0.0"}}, {"uniqueid": "MTK0774:39GXDJN2OUL2RURV7Z08A3GDFJ58VZ", "current_trial": 55, "dateTime": 1512750954094, "trialdata": {"rt": -1000, "stimulus": "/static/audio/wordpool/HEADBAND.wav", "key_press": -1, "type": "PRES_AUD", "word": "headband", "wordID": 695, "conditions": [18, 1200, "a", 18000], "trial": 1, "serialpos": 0, "trial_type": "single-audio", "trial_index": 55, "time_elapsed": 537151, "internal_node_id": "0.0-37.0"}}, {"uniqueid": "MTK0774:39GXDJN2OUL2RURV7Z08A3GDFJ58VZ", "current_trial": 56, "dateTime": 1512750956294, "trialdata": {"rt": -1000, "stimulus": "/static/audio/wordpool/COBRA.wav", "key_press": -1, "type": "PRES_AUD", "word": "cobra", "wordID": 335, "conditions": [18, 1200, "a", 18000], "trial": 1, "serialpos": 1, "trial_type": "single-audio", "trial_index": 56, "time_elapsed": 539351, "internal_node_id": "0.0-38.0"}}, {"uniqueid": "MTK0774:39GXDJN2OUL2RURV7Z08A3GDFJ58VZ", "current_trial": 57, "dateTime": 1512750958304, "trialdata": {"rt": -1000, "stimulus": "/static/audio/wordpool/ROBIN.wav", "key_press": -1, "type": "PRES_AUD", "word": "robin", "wordID": 1198, "conditions": [18, 1200, "a", 18000], "trial": 1, "serialpos": 2, "trial_type": "single-audio", "trial_index": 57, "time_elapsed": 541361, "internal_node_id": "0.0-39.0"}}, {"uniqueid": "MTK0774:39GXDJN2OUL2RURV7Z08A3GDFJ58VZ", "current_trial": 58, "dateTime": 1512750960484, "trialdata": {"rt": -1000, "stimulus": "/static/audio/wordpool/TABLET.wav", "key_press": -1, "type": "PRES_AUD", "word": "tablet", "wordID": 1426, "conditions": [18, 1200, "a", 18000], "trial": 1, "serialpos": 3, "trial_type": "single-audio", "trial_index": 58, "time_elapsed": 543540, "internal_node_id": "0.0-40.0"}}, {"uniqueid": "MTK0774:39GXDJN2OUL2RURV7Z08A3GDFJ58VZ", "current_trial": 59, "dateTime": 1512750962673, "trialdata": {"rt": -1000, "stimulus": "/static/audio/wordpool/STOVE.wav", "key_press": -1, "type": "PRES_AUD", "word": "stove", "wordID": 1387, "conditions": [18, 1200, "a", 18000], "trial": 1, "serialpos": 4, "trial_type": "single-audio", "trial_index": 59, "time_elapsed": 545730, "internal_node_id": "0.0-41.0"}}, {"uniqueid": "MTK0774:39GXDJN2OUL2RURV7Z08A3GDFJ58VZ", "current_trial": 60, "dateTime": 1512750964753, "trialdata": {"rt": -1000, "stimulus": "/static/audio/wordpool/HOSTESS.wav", "key_press": -1, "type": "PRES_AUD", "word": "hostess", "wordID": 722, "conditions": [18, 1200, "a", 18000], "trial": 1, "serialpos": 5, "trial_type": "single-audio", "trial_index": 60, "time_elapsed": 547810, "internal_node_id": "0.0-42.0"}}, {"uniqueid": "MTK0774:39GXDJN2OUL2RURV7Z08A3GDFJ58VZ", "current_trial": 61, "dateTime": 1512750966873, "trialdata": {"rt": -1000, "stimulus": "/static/audio/wordpool/SWAMP.wav", "key_press": -1, "type": "PRES_AUD", "word": "swamp", "wordID": 1415, "conditions": [18, 1200, "a", 18000], "trial": 1, "serialpos": 6, "trial_type": "single-audio", "trial_index": 61, "time_elapsed": 549930, "internal_node_id": "0.0-43.0"}}, {"uniqueid": "MTK0774:39GXDJN2OUL2RURV7Z08A3GDFJ58VZ", "current_trial": 62, "dateTime": 1512750969163, "trialdata": {"rt": -1000, "stimulus": "/static/audio/wordpool/TOASTER.wav", "key_press": -1, "type": "PRES_AUD", "word": "toaster", "wordID": 1471, "conditions": [18, 1200, "a", 18000], "trial": 1, "serialpos": 7, "trial_type": "single-audio", "trial_index": 62, "time_elapsed": 552220, "internal_node_id": "0.0-44.0"}}, {"uniqueid": "MTK0774:39GXDJN2OUL2RURV7Z08A3GDFJ58VZ", "current_trial": 63, "dateTime": 1512750971423, "trialdata": {"rt": -1000, "stimulus": "/static/audio/wordpool/UNCLE.wav", "key_press": -1, "type": "PRES_AUD", "word": "uncle", "wordID": 1535, "conditions": [18, 1200, "a", 18000], "trial": 1, "serialpos": 8, "trial_type": "single-audio", "trial_index": 63, "time_elapsed": 554480, "internal_node_id": "0.0-45.0"}}, {"uniqueid": "MTK0774:39GXDJN2OUL2RURV7Z08A3GDFJ58VZ", "current_trial": 64, "dateTime": 1512750973463, "trialdata": {"rt": -1000, "stimulus": "/static/audio/wordpool/OX.wav", "key_press": -1, "type": "PRES_AUD", "word": "ox", "wordID": 993, "conditions": [18, 1200, "a", 18000], "trial": 1, "serialpos": 9, "trial_type": "single-audio", "trial_index": 64, "time_elapsed": 556520, "internal_node_id": "0.0-46.0"}}, {"uniqueid": "MTK0774:39GXDJN2OUL2RURV7Z08A3GDFJ58VZ", "current_trial": 65, "dateTime": 1512750975592, "trialdata": {"rt": -1000, "stimulus": "/static/audio/wordpool/DOUGHNUT.wav", "key_press": -1, "type": "PRES_AUD", "word": "doughnut", "wordID": 489, "conditions": [18, 1200, "a", 18000], "trial": 1, "serialpos": 10, "trial_type": "single-audio", "trial_index": 65, "time_elapsed": 558649, "internal_node_id": "0.0-47.0"}}, {"uniqueid": "MTK0774:39GXDJN2OUL2RURV7Z08A3GDFJ58VZ", "current_trial": 66, "dateTime": 1512750977972, "trialdata": {"rt": -1000, "stimulus": "/static/audio/wordpool/SEAGULL.wav", "key_press": -1, "type": "PRES_AUD", "word": "seagull", "wordID": 1260, "conditions": [18, 1200, "a", 18000], "trial": 1, "serialpos": 11, "trial_type": "single-audio", "trial_index": 66, "time_elapsed": 561029, "internal_node_id": "0.0-48.0"}}, {"uniqueid": "MTK0774:39GXDJN2OUL2RURV7Z08A3GDFJ58VZ", "current_trial": 67, "dateTime": 1512750980052, "trialdata": {"rt": -1000, "stimulus": "/static/audio/wordpool/MARINE.wav", "key_press": -1, "type": "PRES_AUD", "word": "marine", "wordID": 868, "conditions": [18, 1200, "a", 18000], "trial": 1, "serialpos": 12, "trial_type": "single-audio", "trial_index": 67, "time_elapsed": 563109, "internal_node_id": "0.0-49.0"}}, {"uniqueid": "MTK0774:39GXDJN2OUL2RURV7Z08A3GDFJ58VZ", "current_trial": 68, "dateTime": 1512750982252, "trialdata": {"rt": -1000, "stimulus": "/static/audio/wordpool/JUDGE.wav", "key_press": -1, "type": "PRES_AUD", "word": "judge", "wordID": 760, "conditions": [18, 1200, "a", 18000], "trial": 1, "serialpos": 13, "trial_type": "single-audio", "trial_index": 68, "time_elapsed": 565309, "internal_node_id": "0.0-50.0"}}, {"uniqueid": "MTK0774:39GXDJN2OUL2RURV7Z08A3GDFJ58VZ", "current_trial": 69, "dateTime": 1512750984642, "trialdata": {"rt": -1000, "stimulus": "/static/audio/wordpool/MOTEL.wav", "key_press": -1, "type": "PRES_AUD", "word": "motel", "wordID": 918, "conditions": [18, 1200, "a", 18000], "trial": 1, "serialpos": 14, "trial_type": "single-audio", "trial_index": 69, "time_elapsed": 567698, "internal_node_id": "0.0-51.0"}}, {"uniqueid": "MTK0774:39GXDJN2OUL2RURV7Z08A3GDFJ58VZ", "current_trial": 70, "dateTime": 1512750986741, "trialdata": {"rt": -1000, "stimulus": "/static/audio/wordpool/MOTOR.wav", "key_press": -1, "type": "PRES_AUD", "word": "motor", "wordID": 921, "conditions": [18, 1200, "a", 18000], "trial": 1, "serialpos": 15, "trial_type": "single-audio", "trial_index": 70, "time_elapsed": 569798, "internal_node_id": "0.0-52.0"}}, {"uniqueid": "MTK0774:39GXDJN2OUL2RURV7Z08A3GDFJ58VZ", "current_trial": 71, "dateTime": 1512750989011, "trialdata": {"rt": -1000, "stimulus": "/static/audio/wordpool/PLUTO.wav", "key_press": -1, "type": "PRES_AUD", "word": "pluto", "wordID": 1091, "conditions": [18, 1200, "a", 18000], "trial": 1, "serialpos": 16, "trial_type": "single-audio", "trial_index": 71, "time_elapsed": 572068, "internal_node_id": "0.0-53.0"}}, {"uniqueid": "MTK0774:39GXDJN2OUL2RURV7Z08A3GDFJ58VZ", "current_trial": 72, "dateTime": 1512750991051, "trialdata": {"rt": -1000, "stimulus": "/static/audio/wordpool/EYELASH.wav", "key_press": -1, "type": "PRES_AUD", "word": "eyelash", "wordID": 545, "conditions": [18, 1200, "a", 18000], "trial": 1, "serialpos": 17, "trial_type": "single-audio", "trial_index": 72, "time_elapsed": 574108, "internal_node_id": "0.0-54.0"}}, {"uniqueid": "MTK0774:39GXDJN2OUL2RURV7Z08A3GDFJ58VZ", "current_trial": 73, "dateTime": 1512750992331, "trialdata": {"rt": -1, "stimulus": "", "key_press": -1, "type": "PRE_RECALL_DELAY", "trial_type": "single-stim", "trial_index": 73, "time_elapsed": 575388, "internal_node_id": "0.0-55.0-0.0"}}, {"uniqueid": "MTK0774:39GXDJN2OUL2RURV7Z08A3GDFJ58VZ", "current_trial": 74, "dateTime": 1512750992841, "trialdata": {"rt": -1000, "stimulus": "/static/audio/400Hz.wav", "key_press": -1, "type": "PRE_RECALL_ALERT", "trial_type": "single-audio", "trial_index": 74, "time_elapsed": 575898, "internal_node_id": "0.0-56.0"}}, {"uniqueid": "MTK0774:39GXDJN2OUL2RURV7Z08A3GDFJ58VZ", "current_trial": 75, "dateTime": 1512751052850, "trialdata": {"rt": [4242, 6402, 7538, 10562, 13042, 16449, 25153, 28033, 29873, 30641, 31313, 31889, 32673, 33329, 37648, 40400, 42272, 43328, 43856, 44384, 45056, 46144, 47232, 48176, 49072, 49792, 51168, 53056], "recwords": ["headband", "cobra", "robin", "tablet", "stove", "uncle", "seagull", "pluto", "", "", "", "", "", "", "a", "b", "c", "d", "e", "f", "g", "h", "i", "j", "k", "l", "m", "n"], "type": "FREE_RECALL", "conditions": [18, 1200, "a", 18000], "trial": 1, "trial_type": "free-recall", "trial_index": 75, "time_elapsed": 635903, "internal_node_id": "0.0-57.0-0.0"}}, {"uniqueid": "MTK0774:39GXDJN2OUL2RURV7Z08A3GDFJ58VZ", "current_trial": 76, "dateTime": 1512751064993, "trialdata": {"rt": 10130, "key_press": 32, "type": "INSTRUCTIONS", "trial_type": "text", "trial_index": 76, "time_elapsed": 648043, "internal_node_id": "0.0-58.0"}}, {"uniqueid": "MTK0774:39GXDJN2OUL2RURV7Z08A3GDFJ58VZ", "current_trial": 77, "dateTime": 1512751090004, "trialdata": {"rt": [4205, 6668, 9420, 12588, 14892, 17148, 19820, 21948], "responses": ["20", "14", "12", "10", "11", "19", "16", "7"], "num1": [5, 4, 7, 1, 5, 7, 7, 5, 9], "num2": [6, 7, 1, 7, 4, 5, 3, 1, 9], "num3": [9, 3, 4, 2, 2, 7, 6, 1, 4], "type": "DISTRACTOR", "conditions": [12, 1600, "v", 24000], "trial": 2, "trial_type": "math-distractor", "trial_index": 77, "time_elapsed": 673061, "internal_node_id": "0.0-59.0"}}, {"uniqueid": "MTK0774:39GXDJN2OUL2RURV7Z08A3GDFJ58VZ", "current_trial": 78, "dateTime": 1512751093023, "trialdata": {"rt": -1, "stimulus": "<p id=\"stim\">10</p>", "key_press": -1, "trial_type": "single-stim", "trial_index": 78, "time_elapsed": 676080, "internal_node_id": "0.0-60.0-0.0"}}, {"uniqueid": "MTK0774:39GXDJN2OUL2RURV7Z08A3GDFJ58VZ", "current_trial": 79, "dateTime": 1512751094033, "trialdata": {"rt": -1, "stimulus": "<p id=\"stim\">9</p>", "key_press": -1, "trial_type": "single-stim", "trial_index": 79, "time_elapsed": 677090, "internal_node_id": "0.0-60.0-1.0"}}, {"uniqueid": "MTK0774:39GXDJN2OUL2RURV7Z08A3GDFJ58VZ", "current_trial": 80, "dateTime": 1512751095043, "trialdata": {"rt": -1, "stimulus": "<p id=\"stim\">8</p>", "key_press": -1, "trial_type": "single-stim", "trial_index": 80, "time_elapsed": 678100, "internal_node_id": "0.0-60.0-2.0"}}, {"uniqueid": "MTK0774:39GXDJN2OUL2RURV7Z08A3GDFJ58VZ", "current_trial": 81, "dateTime": 1512751096053, "trialdata": {"rt": -1, "stimulus": "<p id=\"stim\">7</p>", "key_press": -1, "trial_type": "single-stim", "trial_index": 81, "time_elapsed": 679110, "internal_node_id": "0.0-60.0-3.0"}}, {"uniqueid": "MTK0774:39GXDJN2OUL2RURV7Z08A3GDFJ58VZ", "current_trial": 82, "dateTime": 1512751097063, "trialdata": {"rt": -1, "stimulus": "<p id=\"stim\">6</p>", "key_press": -1, "trial_type": "single-stim", "trial_index": 82, "time_elapsed": 680120, "internal_node_id": "0.0-60.0-4.0"}}, {"uniqueid": "MTK0774:39GXDJN2OUL2RURV7Z08A3GDFJ58VZ", "current_trial": 83, "dateTime": 1512751098073, "trialdata": {"rt": -1, "stimulus": "<p id=\"stim\">5</p>", "key_press": -1, "trial_type": "single-stim", "trial_index": 83, "time_elapsed": 681130, "internal_node_id": "0.0-60.0-5.0"}}, {"uniqueid": "MTK0774:39GXDJN2OUL2RURV7Z08A3GDFJ58VZ", "current_trial": 84, "dateTime": 1512751099083, "trialdata": {"rt": -1, "stimulus": "<p id=\"stim\">4</p>", "key_press": -1, "trial_type": "single-stim", "trial_index": 84, "time_elapsed": 682139, "internal_node_id": "0.0-60.0-6.0"}}, {"uniqueid": "MTK0774:39GXDJN2OUL2RURV7Z08A3GDFJ58VZ", "current_trial": 85, "dateTime": 1512751100093, "trialdata": {"rt": -1, "stimulus": "<p id=\"stim\">3</p>", "key_press": -1, "trial_type": "single-stim", "trial_index": 85, "time_elapsed": 683149, "internal_node_id": "0.0-60.0-7.0"}}, {"uniqueid": "MTK0774:39GXDJN2OUL2RURV7Z08A3GDFJ58VZ", "current_trial": 86, "dateTime": 1512751101103, "trialdata": {"rt": -1, "stimulus": "<p id=\"stim\">2</p>", "key_press": -1, "trial_type": "single-stim", "trial_index": 86, "time_elapsed": 684159, "internal_node_id": "0.0-60.0-8.0"}}, {"uniqueid": "MTK0774:39GXDJN2OUL2RURV7Z08A3GDFJ58VZ", "current_trial": 87, "dateTime": 1512751102112, "trialdata": {"rt": -1, "stimulus": "<p id=\"stim\">1</p>", "key_press": -1, "trial_type": "single-stim", "trial_index": 87, "time_elapsed": 685169, "internal_node_id": "0.0-60.0-9.0"}}, {"uniqueid": "MTK0774:39GXDJN2OUL2RURV7Z08A3GDFJ58VZ", "current_trial": 88, "dateTime": 1512751103622, "trialdata": {"rt": -1, "stimulus": "<p id=\"stim\">+</p>", "key_press": -1, "type": "FIXATION", "trial_type": "single-stim", "trial_index": 88, "time_elapsed": 686679, "internal_node_id": "0.0-61.0-0.0"}}, {"uniqueid": "MTK0774:39GXDJN2OUL2RURV7Z08A3GDFJ58VZ", "current_trial": 89, "dateTime": 1512751105232, "trialdata": {"rt": -1, "stimulus": "<p id=\"stim\">CROSS</p>", "key_press": -1, "type": "PRES_VIS", "word": "cross", "wordID": 412, "conditions": [12, 1600, "v", 24000], "trial": 2, "serialpos": 0, "trial_type": "single-stim", "trial_index": 89, "time_elapsed": 688289, "internal_node_id": "0.0-62.0"}}, {"uniqueid": "MTK0774:39GXDJN2OUL2RURV7Z08A3GDFJ58VZ", "current_trial": 90, "dateTime": 1512751107972, "trialdata": {"rt": -1, "stimulus": "<p id=\"stim\">PANTHER</p>", "key_press": -1, "type": "PRES_VIS", "word": "panther", "wordID": 1008, "conditions": [12, 1600, "v", 24000], "trial": 2, "serialpos": 1, "trial_type": "single-stim", "trial_index": 90, "time_elapsed": 691029, "internal_node_id": "0.0-63.0"}}, {"uniqueid": "MTK0774:39GXDJN2OUL2RURV7Z08A3GDFJ58VZ", "current_trial": 91, "dateTime": 1512751110722, "trialdata": {"rt": -1, "stimulus": "<p id=\"stim\">DRILL</p>", "key_press": -1, "type": "PRES_VIS", "word": "drill", "wordID": 496, "conditions": [12, 1600, "v", 24000], "trial": 2, "serialpos": 2, "trial_type": "single-stim", "trial_index": 91, "time_elapsed": 693779, "internal_node_id": "0.0-64.0"}}, {"uniqueid": "MTK0774:39GXDJN2OUL2RURV7Z08A3GDFJ58VZ", "current_trial": 92, "dateTime": 1512751113222, "trialdata": {"rt": -1, "stimulus": "<p id=\"stim\">ROBBER</p>", "key_press": -1, "type": "PRES_VIS", "word": "robber", "wordID": 1196, "conditions": [12, 1600, "v", 24000], "trial": 2, "serialpos": 3, "trial_type": "single-stim", "trial_index": 92, "time_elapsed": 696278, "internal_node_id": "0.0-65.0"}}, {"uniqueid": "MTK0774:39GXDJN2OUL2RURV7Z08A3GDFJ58VZ", "current_trial": 93, "dateTime": 1512751115941, "trialdata": {"rt": -1, "stimulus": "<p id=\"stim\">HIKER</p>", "key_press": -1, "type": "PRES_VIS", "word": "hiker", "wordID": 707, "conditions": [12, 1600, "v", 24000], "trial": 2, "serialpos": 4, "trial_type": "single-stim", "trial_index": 93, "time_elapsed": 698998, "internal_node_id": "0.0-66.0"}}, {"uniqueid": "MTK0774:39GXDJN2OUL2RURV7Z08A3GDFJ58VZ", "current_trial": 94, "dateTime": 1512751118451, "trialdata": {"rt": -1, "stimulus": "<p id=\"stim\">CLIMBER</p>", "key_press": -1, "type": "PRES_VIS", "word": "climber", "wordID": 322, "conditions": [12, 1600, "v", 24000], "trial": 2, "serialpos": 5, "trial_type": "single-stim", "trial_index": 94, "time_elapsed": 701508, "internal_node_id": "0.0-67.0"}}, {"uniqueid": "MTK0774:39GXDJN2OUL2RURV7Z08A3GDFJ58VZ", "current_trial": 95, "dateTime": 1512751121181, "trialdata": {"rt": -1, "stimulus": "<p id=\"stim\">HIGHWAY</p>", "key_press": -1, "type": "PRES_VIS", "word": "highway", "wordID": 706, "conditions": [12, 1600, "v", 24000], "trial": 2, "serialpos": 6, "trial_type": "single-stim", "trial_index": 95, "time_elapsed": 704238, "internal_node_id": "0.0-68.0"}}, {"uniqueid": "MTK0774:39GXDJN2OUL2RURV7Z08A3GDFJ58VZ", "current_trial": 96, "dateTime": 1512751123961, "trialdata": {"rt": -1, "stimulus": "<p id=\"stim\">APPLE</p>", "key_press": -1, "type": "PRES_VIS", "word": "apple", "wordID": 32, "conditions": [12, 1600, "v", 24000], "trial": 2, "serialpos": 7, "trial_type": "single-stim", "trial_index": 96, "time_elapsed": 707018, "internal_node_id": "0.0-69.0"}}, {"uniqueid": "MTK0774:39GXDJN2OUL2RURV7Z08A3GDFJ58VZ", "current_trial": 97, "dateTime": 1512751126671, "trialdata": {"rt": -1, "stimulus": "<p id=\"stim\">POSSUM</p>", "key_press": -1, "type": "PRES_VIS", "word": "possum", "wordID": 1111, "conditions": [12, 1600, "v", 24000], "trial": 2, "serialpos": 8, "trial_type": "single-stim", "trial_index": 97, "time_elapsed": 709727, "internal_node_id": "0.0-70.0"}}, {"uniqueid": "MTK0774:39GXDJN2OUL2RURV7Z08A3GDFJ58VZ", "current_trial": 98, "dateTime": 1512751129330, "trialdata": {"rt": -1, "stimulus": "<p id=\"stim\">BURGLAR</p>", "key_press": -1, "type": "PRES_VIS", "word": "burglar", "wordID": 199, "conditions": [12, 1600, "v", 24000], "trial": 2, "serialpos": 9, "trial_type": "single-stim", "trial_index": 98, "time_elapsed": 712387, "internal_node_id": "0.0-71.0"}}, {"uniqueid": "MTK0774:39GXDJN2OUL2RURV7Z08A3GDFJ58VZ", "current_trial": 99, "dateTime": 1512751131880, "trialdata": {"rt": -1, "stimulus": "<p id=\"stim\">SNAKE</p>", "key_press": -1, "type": "PRES_VIS", "word": "snake", "wordID": 1332, "conditions": [12, 1600, "v", 24000], "trial": 2, "serialpos": 10, "trial_type": "single-stim", "trial_index": 99, "time_elapsed": 714937, "internal_node_id": "0.0-72.0"}}, {"uniqueid": "MTK0774:39GXDJN2OUL2RURV7Z08A3GDFJ58VZ", "current_trial": 100, "dateTime": 1512751134490, "trialdata": {"rt": -1, "stimulus": "<p id=\"stim\">SCISSORS</p>", "key_press": -1, "type": "PRES_VIS", "word": "scissors", "wordID": 1249, "conditions": [12, 1600, "v", 24000], "trial": 2, "serialpos": 11, "trial_type": "single-stim", "trial_index": 100, "time_elapsed": 717547, "internal_node_id": "0.0-73.0"}}, {"uniqueid": "MTK0774:39GXDJN2OUL2RURV7Z08A3GDFJ58VZ", "current_trial": 101, "dateTime": 1512751136740, "trialdata": {"rt": -1, "stimulus": "", "key_press": -1, "type": "PRE_RECALL_DELAY", "trial_type": "single-stim", "trial_index": 101, "time_elapsed": 719797, "internal_node_id": "0.0-74.0-0.0"}}, {"uniqueid": "MTK0774:39GXDJN2OUL2RURV7Z08A3GDFJ58VZ", "current_trial": 102, "dateTime": 1512751137250, "trialdata": {"rt": -1000, "stimulus": "/static/audio/400Hz.wav", "key_press": -1, "type": "PRE_RECALL_ALERT", "trial_type": "single-audio", "trial_index": 102, "time_elapsed": 720307, "internal_node_id": "0.0-75.0"}}, {"uniqueid": "MTK0774:39GXDJN2OUL2RURV7Z08A3GDFJ58VZ", "current_trial": 103, "dateTime": 1512751197259, "trialdata": {"rt": [6130, 7458, 9346, 10850, 12146, 18161, 19857, 22977, 52160, 53232, 53920, 54640, 55120, 55344, 55600, 55776, 55968, 56288], "recwords": ["cross", "panther", "drill", "robber", "hiker", "apple", "snake", "scissors", "", "", "", "", "", "", "", "", "", ""], "type": "FREE_RECALL", "conditions": [12, 1600, "v", 24000], "trial": 2, "trial_type": "free-recall", "trial_index": 103, "time_elapsed": 780312, "internal_node_id": "0.0-76.0-0.0"}}, {"uniqueid": "MTK0774:39GXDJN2OUL2RURV7Z08A3GDFJ58VZ", "current_trial": 104, "dateTime": 1512751201524, "trialdata": {"rt": 2258, "key_press": 32, "type": "INSTRUCTIONS", "trial_type": "text", "trial_index": 104, "time_elapsed": 784581, "internal_node_id": "0.0-77.0"}}, {"uniqueid": "MTK0774:39GXDJN2OUL2RURV7Z08A3GDFJ58VZ", "current_trial": 105, "dateTime": 1512751227533, "trialdata": {"rt": [6557, 8637, 10685, 12813, 15244, 18300, 21020, 23356], "responses": ["14", "11", "10", "16", "15", "19", "20", "14"], "num1": [2, 2, 2, 3, 4, 8, 9, 4, 3], "num2": [3, 8, 6, 8, 9, 3, 4, 6, 7], "num3": [9, 1, 2, 5, 2, 8, 7, 6, 5], "type": "DISTRACTOR", "conditions": [24, 800, "a", 24000], "trial": 3, "trial_type": "math-distractor", "trial_index": 105, "time_elapsed": 810590, "internal_node_id": "0.0-78.0"}}, {"uniqueid": "MTK0774:39GXDJN2OUL2RURV7Z08A3GDFJ58VZ", "current_trial": 106, "dateTime": 1512751230552, "trialdata": {"rt": -1, "stimulus": "<p id=\"stim\">10</p>", "key_press": -1, "trial_type": "single-stim", "trial_index": 106, "time_elapsed": 813609, "internal_node_id": "0.0-79.0-0.0"}}, {"uniqueid": "MTK0774:39GXDJN2OUL2RURV7Z08A3GDFJ58VZ", "current_trial": 107, "dateTime": 1512751231562, "trialdata": {"rt": -1, "stimulus": "<p id=\"stim\">9</p>", "key_press": -1, "trial_type": "single-stim", "trial_index": 107, "time_elapsed": 814619, "internal_node_id": "0.0-79.0-1.0"}}, {"uniqueid": "MTK0774:39GXDJN2OUL2RURV7Z08A3GDFJ58VZ", "current_trial": 108, "dateTime": 1512751232572, "trialdata": {"rt": -1, "stimulus": "<p id=\"stim\">8</p>", "key_press": -1, "trial_type": "single-stim", "trial_index": 108, "time_elapsed": 815629, "internal_node_id": "0.0-79.0-2.0"}}, {"uniqueid": "MTK0774:39GXDJN2OUL2RURV7Z08A3GDFJ58VZ", "current_trial": 109, "dateTime": 1512751233582, "trialdata": {"rt": -1, "stimulus": "<p id=\"stim\">7</p>", "key_press": -1, "trial_type": "single-stim", "trial_index": 109, "time_elapsed": 816639, "internal_node_id": "0.0-79.0-3.0"}}, {"uniqueid": "MTK0774:39GXDJN2OUL2RURV7Z08A3GDFJ58VZ", "current_trial": 110, "dateTime": 1512751234592, "trialdata": {"rt": -1, "stimulus": "<p id=\"stim\">6</p>", "key_press": -1, "trial_type": "single-stim", "trial_index": 110, "time_elapsed": 817649, "internal_node_id": "0.0-79.0-4.0"}}, {"uniqueid": "MTK0774:39GXDJN2OUL2RURV7Z08A3GDFJ58VZ", "current_trial": 111, "dateTime": 1512751235602, "trialdata": {"rt": -1, "stimulus": "<p id=\"stim\">5</p>", "key_press": -1, "trial_type": "single-stim", "trial_index": 111, "time_elapsed": 818659, "internal_node_id": "0.0-79.0-5.0"}}, {"uniqueid": "MTK0774:39GXDJN2OUL2RURV7Z08A3GDFJ58VZ", "current_trial": 112, "dateTime": 1512751236612, "trialdata": {"rt": -1, "stimulus": "<p id=\"stim\">4</p>", "key_press": -1, "trial_type": "single-stim", "trial_index": 112, "time_elapsed": 819669, "internal_node_id": "0.0-79.0-6.0"}}, {"uniqueid": "MTK0774:39GXDJN2OUL2RURV7Z08A3GDFJ58VZ", "current_trial": 113, "dateTime": 1512751237622, "trialdata": {"rt": -1, "stimulus": "<p id=\"stim\">3</p>", "key_press": -1, "trial_type": "single-stim", "trial_index": 113, "time_elapsed": 820679, "internal_node_id": "0.0-79.0-7.0"}}, {"uniqueid": "MTK0774:39GXDJN2OUL2RURV7Z08A3GDFJ58VZ", "current_trial": 114, "dateTime": 1512751238632, "trialdata": {"rt": -1, "stimulus": "<p id=\"stim\">2</p>", "key_press": -1, "trial_type": "single-stim", "trial_index": 114, "time_elapsed": 821689, "internal_node_id": "0.0-79.0-8.0"}}, {"uniqueid": "MTK0774:39GXDJN2OUL2RURV7Z08A3GDFJ58VZ", "current_trial": 115, "dateTime": 1512751239642, "trialdata": {"rt": -1, "stimulus": "<p id=\"stim\">1</p>", "key_press": -1, "trial_type": "single-stim", "trial_index": 115, "time_elapsed": 822699, "internal_node_id": "0.0-79.0-9.0"}}, {"uniqueid": "MTK0774:39GXDJN2OUL2RURV7Z08A3GDFJ58VZ", "current_trial": 116, "dateTime": 1512751241152, "trialdata": {"rt": -1, "stimulus": "<p id=\"stim\">+</p>", "key_press": -1, "type": "FIXATION", "trial_type": "single-stim", "trial_index": 116, "time_elapsed": 824208, "internal_node_id": "0.0-80.0-0.0"}}, {"uniqueid": "MTK0774:39GXDJN2OUL2RURV7Z08A3GDFJ58VZ", "current_trial": 117, "dateTime": 1512751242851, "trialdata": {"rt": -1000, "stimulus": "/static/audio/wordpool/BABY.wav", "key_press": -1, "type": "PRES_AUD", "word": "baby", "wordID": 63, "conditions": [24, 800, "a", 24000], "trial": 3, "serialpos": 0, "trial_type": "single-audio", "trial_index": 117, "time_elapsed": 825908, "internal_node_id": "0.0-81.0"}}, {"uniqueid": "MTK0774:39GXDJN2OUL2RURV7Z08A3GDFJ58VZ", "current_trial": 118, "dateTime": 1512751244741, "trialdata": {"rt": -1000, "stimulus": "/static/audio/wordpool/FOX.wav", "key_press": -1, "type": "PRES_AUD", "word": "fox", "wordID": 597, "conditions": [24, 800, "a", 24000], "trial": 3, "serialpos": 1, "trial_type": "single-audio", "trial_index": 118, "time_elapsed": 827798, "internal_node_id": "0.0-82.0"}}, {"uniqueid": "MTK0774:39GXDJN2OUL2RURV7Z08A3GDFJ58VZ", "current_trial": 119, "dateTime": 1512751246631, "trialdata": {"rt": -1000, "stimulus": "/static/audio/wordpool/WAITER.wav", "key_press": -1, "type": "PRES_AUD", "word": "waiter", "wordID": 1579, "conditions": [24, 800, "a", 24000], "trial": 3, "serialpos": 2, "trial_type": "single-audio", "trial_index": 119, "time_elapsed": 829688, "internal_node_id": "0.0-83.0"}}, {"uniqueid": "MTK0774:39GXDJN2OUL2RURV7Z08A3GDFJ58VZ", "current_trial": 120, "dateTime": 1512751248271, "trialdata": {"rt": -1000, "stimulus": "/static/audio/wordpool/TWIG.wav", "key_press": -1, "type": "PRES_AUD", "word": "twig", "wordID": 1526, "conditions": [24, 800, "a", 24000], "trial": 3, "serialpos": 3, "trial_type": "single-audio", "trial_index": 120, "time_elapsed": 831328, "internal_node_id": "0.0-84.0"}}, {"uniqueid": "MTK0774:39GXDJN2OUL2RURV7Z08A3GDFJ58VZ", "current_trial": 121, "dateTime": 1512751250161, "trialdata": {"rt": -1000, "stimulus": "/static/audio/wordpool/SHRUB.wav", "key_press": -1, "type": "PRES_AUD", "word": "shrub", "wordID": 1298, "conditions": [24, 800, "a", 24000], "trial": 3, "serialpos": 4, "trial_type": "single-audio", "trial_index": 121, "time_elapsed": 833218, "internal_node_id": "0.0-85.0"}}, {"uniqueid": "MTK0774:39GXDJN2OUL2RURV7Z08A3GDFJ58VZ", "current_trial": 122, "dateTime": 1512751252131, "trialdata": {"rt": -1000, "stimulus": "/static/audio/wordpool/GARDEN.wav", "key_press": -1, "type": "PRES_AUD", "word": "garden", "wordID": 622, "conditions": [24, 800, "a", 24000], "trial": 3, "serialpos": 5, "trial_type": "single-audio", "trial_index": 122, "time_elapsed": 835187, "internal_node_id": "0.0-86.0"}}, {"uniqueid": "MTK0774:39GXDJN2OUL2RURV7Z08A3GDFJ58VZ", "current_trial": 123, "dateTime": 1512751254130, "trialdata": {"rt": -1000, "stimulus": "/static/audio/wordpool/COUSIN.wav", "key_press": -1, "type": "PRES_AUD", "word": "cousin", "wordID": 391, "conditions": [24, 800, "a", 24000], "trial": 3, "serialpos": 6, "trial_type": "single-audio", "trial_index": 123, "time_elapsed": 837187, "internal_node_id": "0.0-87.0"}}, {"uniqueid": "MTK0774:39GXDJN2OUL2RURV7Z08A3GDFJ58VZ", "current_trial": 124, "dateTime": 1512751255770, "trialdata": {"rt": -1000, "stimulus": "/static/audio/wordpool/PLAID.wav", "key_press": -1, "type": "PRES_AUD", "word": "plaid", "wordID": 1079, "conditions": [24, 800, "a", 24000], "trial": 3, "serialpos": 7, "trial_type": "single-audio", "trial_index": 124, "time_elapsed": 838827, "internal_node_id": "0.0-88.0"}}, {"uniqueid": "MTK0774:39GXDJN2OUL2RURV7Z08A3GDFJ58VZ", "current_trial": 125, "dateTime": 1512751257520, "trialdata": {"rt": -1000, "stimulus": "/static/audio/wordpool/SAUSAGE.wav", "key_press": -1, "type": "PRES_AUD", "word": "sausage", "wordID": 1237, "conditions": [24, 800, "a", 24000], "trial": 3, "serialpos": 8, "trial_type": "single-audio", "trial_index": 125, "time_elapsed": 840577, "internal_node_id": "0.0-89.0"}}, {"uniqueid": "MTK0774:39GXDJN2OUL2RURV7Z08A3GDFJ58VZ", "current_trial": 126, "dateTime": 1512751259240, "trialdata": {"rt": -1000, "stimulus": "/static/audio/wordpool/PADDLE.wav", "key_press": -1, "type": "PRES_AUD", "word": "paddle", "wordID": 999, "conditions": [24, 800, "a", 24000], "trial": 3, "serialpos": 9, "trial_type": "single-audio", "trial_index": 126, "time_elapsed": 842297, "internal_node_id": "0.0-90.0"}}, {"uniqueid": "MTK0774:39GXDJN2OUL2RURV7Z08A3GDFJ58VZ", "current_trial": 127, "dateTime": 1512751260890, "trialdata": {"rt": -1000, "stimulus": "/static/audio/wordpool/CHILD.wav", "key_press": -1, "type": "PRES_AUD", "word": "child", "wordID": 298, "conditions": [24, 800, "a", 24000], "trial": 3, "serialpos": 10, "trial_type": "single-audio", "trial_index": 127, "time_elapsed": 843947, "internal_node_id": "0.0-91.0"}}, {"uniqueid": "MTK0774:39GXDJN2OUL2RURV7Z08A3GDFJ58VZ", "current_trial": 128, "dateTime": 1512751262890, "trialdata": {"rt": -1000, "stimulus": "/static/audio/wordpool/OUTDOORS.wav", "key_press": -1, "type": "PRES_AUD", "word": "outdoors", "wordID": 986, "conditions": [24, 800, "a", 24000], "trial": 3, "serialpos": 11, "trial_type": "single-audio", "trial_index": 128, "time_elapsed": 845947, "internal_node_id": "0.0-92.0"}}, {"uniqueid": "MTK0774:39GXDJN2OUL2RURV7Z08A3GDFJ58VZ", "current_trial": 129, "dateTime": 1512751264690, "trialdata": {"rt": -1000, "stimulus": "/static/audio/wordpool/SKILLET.wav", "key_press": -1, "type": "PRES_AUD", "word": "skillet", "wordID": 1316, "conditions": [24, 800, "a", 24000], "trial": 3, "serialpos": 12, "trial_type": "single-audio", "trial_index": 129, "time_elapsed": 847746, "internal_node_id": "0.0-93.0"}}, {"uniqueid": "MTK0774:39GXDJN2OUL2RURV7Z08A3GDFJ58VZ", "current_trial": 130, "dateTime": 1512751266600, "trialdata": {"rt": -1000, "stimulus": "/static/audio/wordpool/SPOON.wav", "key_press": -1, "type": "PRES_AUD", "word": "spoon", "wordID": 1356, "conditions": [24, 800, "a", 24000], "trial": 3, "serialpos": 13, "trial_type": "single-audio", "trial_index": 130, "time_elapsed": 849656, "internal_node_id": "0.0-94.0"}}, {"uniqueid": "MTK0774:39GXDJN2OUL2RURV7Z08A3GDFJ58VZ", "current_trial": 131, "dateTime": 1512751268519, "trialdata": {"rt": -1000, "stimulus": "/static/audio/wordpool/SODA.wav", "key_press": -1, "type": "PRES_AUD", "word": "soda", "wordID": 1340, "conditions": [24, 800, "a", 24000], "trial": 3, "serialpos": 14, "trial_type": "single-audio", "trial_index": 131, "time_elapsed": 851576, "internal_node_id": "0.0-95.0"}}, {"uniqueid": "MTK0774:39GXDJN2OUL2RURV7Z08A3GDFJ58VZ", "current_trial": 132, "dateTime": 1512751270229, "trialdata": {"rt": -1000, "stimulus": "/static/audio/wordpool/TEACHER.wav", "key_press": -1, "type": "PRES_AUD", "word": "teacher", "wordID": 1439, "conditions": [24, 800, "a", 24000], "trial": 3, "serialpos": 15, "trial_type": "single-audio", "trial_index": 132, "time_elapsed": 853286, "internal_node_id": "0.0-96.0"}}, {"uniqueid": "MTK0774:39GXDJN2OUL2RURV7Z08A3GDFJ58VZ", "current_trial": 133, "dateTime": 1512751272229, "trialdata": {"rt": -1000, "stimulus": "/static/audio/wordpool/BACON.wav", "key_press": -1, "type": "PRES_AUD", "word": "bacon", "wordID": 66, "conditions": [24, 800, "a", 24000], "trial": 3, "serialpos": 16, "trial_type": "single-audio", "trial_index": 133, "time_elapsed": 855286, "internal_node_id": "0.0-97.0"}}, {"uniqueid": "MTK0774:39GXDJN2OUL2RURV7Z08A3GDFJ58VZ", "current_trial": 134, "dateTime": 1512751273859, "trialdata": {"rt": -1000, "stimulus": "/static/audio/wordpool/PISTOL.wav", "key_press": -1, "type": "PRES_AUD", "word": "pistol", "wordID": 1074, "conditions": [24, 800, "a", 24000], "trial": 3, "serialpos": 17, "trial_type": "single-audio", "trial_index": 134, "time_elapsed": 856916, "internal_node_id": "0.0-98.0"}}, {"uniqueid": "MTK0774:39GXDJN2OUL2RURV7Z08A3GDFJ58VZ", "current_trial": 135, "dateTime": 1512751275539, "trialdata": {"rt": -1000, "stimulus": "/static/audio/wordpool/CANDY.wav", "key_press": -1, "type": "PRES_AUD", "word": "candy", "wordID": 229, "conditions": [24, 800, "a", 24000], "trial": 3, "serialpos": 18, "trial_type": "single-audio", "trial_index": 135, "time_elapsed": 858596, "internal_node_id": "0.0-99.0"}}, {"uniqueid": "MTK0774:39GXDJN2OUL2RURV7Z08A3GDFJ58VZ", "current_trial": 136, "dateTime": 1512751277519, "trialdata": {"rt": -1000, "stimulus": "/static/audio/wordpool/CHURCH.wav", "key_press": -1, "type": "PRES_AUD", "word": "church", "wordID": 306, "conditions": [24, 800, "a", 24000], "trial": 3, "serialpos": 19, "trial_type": "single-audio", "trial_index": 136, "time_elapsed": 860575, "internal_node_id": "0.0-100.0"}}, {"uniqueid": "MTK0774:39GXDJN2OUL2RURV7Z08A3GDFJ58VZ", "current_trial": 137, "dateTime": 1512751279439, "trialdata": {"rt": -1000, "stimulus": "/static/audio/wordpool/STUDENT.wav", "key_press": -1, "type": "PRES_AUD", "word": "student", "wordID": 1394, "conditions": [24, 800, "a", 24000], "trial": 3, "serialpos": 20, "trial_type": "single-audio", "trial_index": 137, "time_elapsed": 862495, "internal_node_id": "0.0-101.0"}}, {"uniqueid": "MTK0774:39GXDJN2OUL2RURV7Z08A3GDFJ58VZ", "current_trial": 138, "dateTime": 1512751281378, "trialdata": {"rt": -1000, "stimulus": "/static/audio/wordpool/KNIFE.wav", "key_press": -1, "type": "PRES_AUD", "word": "knife", "wordID": 784, "conditions": [24, 800, "a", 24000], "trial": 3, "serialpos": 21, "trial_type": "single-audio", "trial_index": 138, "time_elapsed": 864435, "internal_node_id": "0.0-102.0"}}, {"uniqueid": "MTK0774:39GXDJN2OUL2RURV7Z08A3GDFJ58VZ", "current_trial": 139, "dateTime": 1512751283208, "trialdata": {"rt": -1000, "stimulus": "/static/audio/wordpool/GRILL.wav", "key_press": -1, "type": "PRES_AUD", "word": "grill", "wordID": 660, "conditions": [24, 800, "a", 24000], "trial": 3, "serialpos": 22, "trial_type": "single-audio", "trial_index": 139, "time_elapsed": 866265, "internal_node_id": "0.0-103.0"}}, {"uniqueid": "MTK0774:39GXDJN2OUL2RURV7Z08A3GDFJ58VZ", "current_trial": 140, "dateTime": 1512751285209, "trialdata": {"rt": -1000, "stimulus": "/static/audio/wordpool/QUARTER.wav", "key_press": -1, "type": "PRES_AUD", "word": "quarter", "wordID": 1147, "conditions": [24, 800, "a", 24000], "trial": 3, "serialpos": 23, "trial_type": "single-audio", "trial_index": 140, "time_elapsed": 868266, "internal_node_id": "0.0-104.0"}}, {"uniqueid": "MTK0774:39GXDJN2OUL2RURV7Z08A3GDFJ58VZ", "current_trial": 141, "dateTime": 1512751286419, "trialdata": {"rt": -1, "stimulus": "", "key_press": -1, "type": "PRE_RECALL_DELAY", "trial_type": "single-stim", "trial_index": 141, "time_elapsed": 869476, "internal_node_id": "0.0-105.0-0.0"}}, {"uniqueid": "MTK0774:39GXDJN2OUL2RURV7Z08A3GDFJ58VZ", "current_trial": 142, "dateTime": 1512751286929, "trialdata": {"rt": -1000, "stimulus": "/static/audio/400Hz.wav", "key_press": -1, "type": "PRE_RECALL_ALERT", "trial_type": "single-audio", "trial_index": 142, "time_elapsed": 869986, "internal_node_id": "0.0-106.0"}}, {"uniqueid": "MTK0774:39GXDJN2OUL2RURV7Z08A3GDFJ58VZ", "current_trial": 143, "dateTime": 1512751346971, "trialdata": {"rt": [4684, 5372, 8653, 9756, 12171, 14667, 19739, 24731, 29674, 35098, 37706, 39962], "recwords": ["baby", "fox", "waiter", "twig", "shrub", "garden", "child", "spoon", "soada", "church", "student", "quarter"], "type": "FREE_RECALL", "conditions": [24, 800, "a", 24000], "trial": 3, "trial_type": "free-recall", "trial_index": 143, "time_elapsed": 930024, "internal_node_id": "0.0-107.0-0.0"}}, {"uniqueid": "MTK0774:39GXDJN2OUL2RURV7Z08A3GDFJ58VZ", "current_trial": 144, "dateTime": 1512751352668, "trialdata": {"rt": 3692, "key_press": 32, "type": "INSTRUCTIONS", "trial_type": "text", "trial_index": 144, "time_elapsed": 935725, "internal_node_id": "0.0-108.0"}}, {"uniqueid": "MTK0774:39GXDJN2OUL2RURV7Z08A3GDFJ58VZ", "current_trial": 145, "dateTime": 1512751366685, "trialdata": {"rt": [2789, 4901, 7557, 9717, 11957], "responses": ["21", "14", "20", "12", "7"], "num1": [6, 7, 6, 5, 2, 8], "num2": [9, 2, 9, 4, 2, 9], "num3": [6, 5, 5, 3, 3, 9], "type": "DISTRACTOR", "conditions": [24, 1600, "a", 12000], "trial": 4, "trial_type": "math-distractor", "trial_index": 145, "time_elapsed": 949742, "internal_node_id": "0.0-109.0"}}, {"uniqueid": "MTK0774:39GXDJN2OUL2RURV7Z08A3GDFJ58VZ", "current_trial": 146, "dateTime": 1512751369705, "trialdata": {"rt": -1, "stimulus": "<p id=\"stim\">10</p>", "key_press": -1, "trial_type": "single-stim", "trial_index": 146, "time_elapsed": 952762, "internal_node_id": "0.0-110.0-0.0"}}, {"uniqueid": "MTK0774:39GXDJN2OUL2RURV7Z08A3GDFJ58VZ", "current_trial": 147, "dateTime": 1512751370715, "trialdata": {"rt": -1, "stimulus": "<p id=\"stim\">9</p>", "key_press": -1, "trial_type": "single-stim", "trial_index": 147, "time_elapsed": 953772, "internal_node_id": "0.0-110.0-1.0"}}, {"uniqueid": "MTK0774:39GXDJN2OUL2RURV7Z08A3GDFJ58VZ", "current_trial": 148, "dateTime": 1512751371725, "trialdata": {"rt": -1, "stimulus": "<p id=\"stim\">8</p>", "key_press": -1, "trial_type": "single-stim", "trial_index": 148, "time_elapsed": 954782, "internal_node_id": "0.0-110.0-2.0"}}, {"uniqueid": "MTK0774:39GXDJN2OUL2RURV7Z08A3GDFJ58VZ", "current_trial": 149, "dateTime": 1512751372735, "trialdata": {"rt": -1, "stimulus": "<p id=\"stim\">7</p>", "key_press": -1, "trial_type": "single-stim", "trial_index": 149, "time_elapsed": 955791, "internal_node_id": "0.0-110.0-3.0"}}, {"uniqueid": "MTK0774:39GXDJN2OUL2RURV7Z08A3GDFJ58VZ", "current_trial": 150, "dateTime": 1512751373745, "trialdata": {"rt": -1, "stimulus": "<p id=\"stim\">6</p>", "key_press": -1, "trial_type": "single-stim", "trial_index": 150, "time_elapsed": 956801, "internal_node_id": "0.0-110.0-4.0"}}, {"uniqueid": "MTK0774:39GXDJN2OUL2RURV7Z08A3GDFJ58VZ", "current_trial": 151, "dateTime": 1512751374755, "trialdata": {"rt": -1, "stimulus": "<p id=\"stim\">5</p>", "key_press": -1, "trial_type": "single-stim", "trial_index": 151, "time_elapsed": 957811, "internal_node_id": "0.0-110.0-5.0"}}, {"uniqueid": "MTK0774:39GXDJN2OUL2RURV7Z08A3GDFJ58VZ", "current_trial": 152, "dateTime": 1512751375765, "trialdata": {"rt": -1, "stimulus": "<p id=\"stim\">4</p>", "key_press": -1, "trial_type": "single-stim", "trial_index": 152, "time_elapsed": 958821, "internal_node_id": "0.0-110.0-6.0"}}, {"uniqueid": "MTK0774:39GXDJN2OUL2RURV7Z08A3GDFJ58VZ", "current_trial": 153, "dateTime": 1512751376774, "trialdata": {"rt": -1, "stimulus": "<p id=\"stim\">3</p>", "key_press": -1, "trial_type": "single-stim", "trial_index": 153, "time_elapsed": 959831, "internal_node_id": "0.0-110.0-7.0"}}, {"uniqueid": "MTK0774:39GXDJN2OUL2RURV7Z08A3GDFJ58VZ", "current_trial": 154, "dateTime": 1512751377784, "trialdata": {"rt": -1, "stimulus": "<p id=\"stim\">2</p>", "key_press": -1, "trial_type": "single-stim", "trial_index": 154, "time_elapsed": 960841, "internal_node_id": "0.0-110.0-8.0"}}, {"uniqueid": "MTK0774:39GXDJN2OUL2RURV7Z08A3GDFJ58VZ", "current_trial": 155, "dateTime": 1512751378794, "trialdata": {"rt": -1, "stimulus": "<p id=\"stim\">1</p>", "key_press": -1, "trial_type": "single-stim", "trial_index": 155, "time_elapsed": 961851, "internal_node_id": "0.0-110.0-9.0"}}, {"uniqueid": "MTK0774:39GXDJN2OUL2RURV7Z08A3GDFJ58VZ", "current_trial": 156, "dateTime": 1512751380304, "trialdata": {"rt": -1, "stimulus": "<p id=\"stim\">+</p>", "key_press": -1, "type": "FIXATION", "trial_type": "single-stim", "trial_index": 156, "time_elapsed": 963361, "internal_node_id": "0.0-111.0-0.0"}}, {"uniqueid": "MTK0774:39GXDJN2OUL2RURV7Z08A3GDFJ58VZ", "current_trial": 157, "dateTime": 1512751382954, "trialdata": {"rt": -1000, "stimulus": "/static/audio/wordpool/OINTMENT.wav", "key_press": -1, "type": "PRES_AUD", "word": "ointment", "wordID": 973, "conditions": [24, 1600, "a", 12000], "trial": 4, "serialpos": 0, "trial_type": "single-audio", "trial_index": 157, "time_elapsed": 966011, "internal_node_id": "0.0-112.0"}}, {"uniqueid": "MTK0774:39GXDJN2OUL2RURV7Z08A3GDFJ58VZ", "current_trial": 158, "dateTime": 1512751385524, "trialdata": {"rt": -1000, "stimulus": "/static/audio/wordpool/DAISY.wav", "key_press": -1, "type": "PRES_AUD", "word": "daisy", "wordID": 434, "conditions": [24, 1600, "a", 12000], "trial": 4, "serialpos": 1, "trial_type": "single-audio", "trial_index": 158, "time_elapsed": 968580, "internal_node_id": "0.0-113.0"}}, {"uniqueid": "MTK0774:39GXDJN2OUL2RURV7Z08A3GDFJ58VZ", "current_trial": 159, "dateTime": 1512751388303, "trialdata": {"rt": -1000, "stimulus": "/static/audio/wordpool/RAZOR.wav", "key_press": -1, "type": "PRES_AUD", "word": "razor", "wordID": 1170, "conditions": [24, 1600, "a", 12000], "trial": 4, "serialpos": 2, "trial_type": "single-audio", "trial_index": 159, "time_elapsed": 971360, "internal_node_id": "0.0-114.0"}}, {"uniqueid": "MTK0774:39GXDJN2OUL2RURV7Z08A3GDFJ58VZ", "current_trial": 160, "dateTime": 1512751390913, "trialdata": {"rt": -1000, "stimulus": "/static/audio/wordpool/ANTLER.wav", "key_press": -1, "type": "PRES_AUD", "word": "antler", "wordID": 28, "conditions": [24, 1600, "a", 12000], "trial": 4, "serialpos": 3, "trial_type": "single-audio", "trial_index": 160, "time_elapsed": 973970, "internal_node_id": "0.0-115.0"}}, {"uniqueid": "MTK0774:39GXDJN2OUL2RURV7Z08A3GDFJ58VZ", "current_trial": 161, "dateTime": 1512751393473, "trialdata": {"rt": -1000, "stimulus": "/static/audio/wordpool/DAUGHTER.wav", "key_press": -1, "type": "PRES_AUD", "word": "daughter", "wordID": 441, "conditions": [24, 1600, "a", 12000], "trial": 4, "serialpos": 4, "trial_type": "single-audio", "trial_index": 161, "time_elapsed": 976530, "internal_node_id": "0.0-116.0"}}, {"uniqueid": "MTK0774:39GXDJN2OUL2RURV7Z08A3GDFJ58VZ", "current_trial": 162, "dateTime": 1512751396233, "trialdata": {"rt": -1000, "stimulus": "/static/audio/wordpool/WAGON.wav", "key_press": -1, "type": "PRES_AUD", "word": "wagon", "wordID": 1577, "conditions": [24, 1600, "a", 12000], "trial": 4, "serialpos": 5, "trial_type": "single-audio", "trial_index": 162, "time_elapsed": 979290, "internal_node_id": "0.0-117.0"}}, {"uniqueid": "MTK0774:39GXDJN2OUL2RURV7Z08A3GDFJ58VZ", "current_trial": 163, "dateTime": 1512751399003, "trialdata": {"rt": -1000, "stimulus": "/static/audio/wordpool/TRACTOR.wav", "key_press": -1, "type": "PRES_AUD", "word": "tractor", "wordID": 1492, "conditions": [24, 1600, "a", 12000], "trial": 4, "serialpos": 6, "trial_type": "single-audio", "trial_index": 163, "time_elapsed": 982059, "internal_node_id": "0.0-118.0"}}, {"uniqueid": "MTK0774:39GXDJN2OUL2RURV7Z08A3GDFJ58VZ", "current_trial": 164, "dateTime": 1512751401493, "trialdata": {"rt": -1000, "stimulus": "/static/audio/wordpool/SNACK.wav", "key_press": -1, "type": "PRES_AUD", "word": "snack", "wordID": 1330, "conditions": [24, 1600, "a", 12000], "trial": 4, "serialpos": 7, "trial_type": "single-audio", "trial_index": 164, "time_elapsed": 984550, "internal_node_id": "0.0-119.0"}}, {"uniqueid": "MTK0774:39GXDJN2OUL2RURV7Z08A3GDFJ58VZ", "current_trial": 165, "dateTime": 1512751403912, "trialdata": {"rt": -1000, "stimulus": "/static/audio/wordpool/SLIME.wav", "key_press": -1, "type": "PRES_AUD", "word": "slime", "wordID": 1326, "conditions": [24, 1600, "a", 12000], "trial": 4, "serialpos": 8, "trial_type": "single-audio", "trial_index": 165, "time_elapsed": 986969, "internal_node_id": "0.0-120.0"}}, {"uniqueid": "MTK0774:39GXDJN2OUL2RURV7Z08A3GDFJ58VZ", "current_trial": 166, "dateTime": 1512751406442, "trialdata": {"rt": -1000, "stimulus": "/static/audio/wordpool/MATTRESS.wav", "key_press": -1, "type": "PRES_AUD", "word": "mattress", "wordID": 878, "conditions": [24, 1600, "a", 12000], "trial": 4, "serialpos": 9, "trial_type": "single-audio", "trial_index": 166, "time_elapsed": 989499, "internal_node_id": "0.0-121.0"}}, {"uniqueid": "MTK0774:39GXDJN2OUL2RURV7Z08A3GDFJ58VZ", "current_trial": 167, "dateTime": 1512751409192, "trialdata": {"rt": -1000, "stimulus": "/static/audio/wordpool/YACHT.wav", "key_press": -1, "type": "PRES_AUD", "word": "yacht", "wordID": 1628, "conditions": [24, 1600, "a", 12000], "trial": 4, "serialpos": 10, "trial_type": "single-audio", "trial_index": 167, "time_elapsed": 992249, "internal_node_id": "0.0-122.0"}}, {"uniqueid": "MTK0774:39GXDJN2OUL2RURV7Z08A3GDFJ58VZ", "current_trial": 168, "dateTime": 1512751411932, "trialdata": {"rt": -1000, "stimulus": "/static/audio/wordpool/SCALPEL.wav", "key_press": -1, "type": "PRES_AUD", "word": "scalpel", "wordID": 1242, "conditions": [24, 1600, "a", 12000], "trial": 4, "serialpos": 11, "trial_type": "single-audio", "trial_index": 168, "time_elapsed": 994988, "internal_node_id": "0.0-123.0"}}, {"uniqueid": "MTK0774:39GXDJN2OUL2RURV7Z08A3GDFJ58VZ", "current_trial": 169, "dateTime": 1512751414711, "trialdata": {"rt": -1000, "stimulus": "/static/audio/wordpool/TORTOISE.wav", "key_press": -1, "type": "PRES_AUD", "word": "tortoise", "wordID": 1485, "conditions": [24, 1600, "a", 12000], "trial": 4, "serialpos": 12, "trial_type": "single-audio", "trial_index": 169, "time_elapsed": 997768, "internal_node_id": "0.0-124.0"}}, {"uniqueid": "MTK0774:39GXDJN2OUL2RURV7Z08A3GDFJ58VZ", "current_trial": 170, "dateTime": 1512751417331, "trialdata": {"rt": -1000, "stimulus": "/static/audio/wordpool/COMET.wav", "key_press": -1, "type": "PRES_AUD", "word": "comet", "wordID": 352, "conditions": [24, 1600, "a", 12000], "trial": 4, "serialpos": 13, "trial_type": "single-audio", "trial_index": 170, "time_elapsed": 1000388, "internal_node_id": "0.0-125.0"}}, {"uniqueid": "MTK0774:39GXDJN2OUL2RURV7Z08A3GDFJ58VZ", "current_trial": 171, "dateTime": 1512751419941, "trialdata": {"rt": -1000, "stimulus": "/static/audio/wordpool/SERVANT.wav", "key_press": -1, "type": "PRES_AUD", "word": "servant", "wordID": 1270, "conditions": [24, 1600, "a", 12000], "trial": 4, "serialpos": 14, "trial_type": "single-audio", "trial_index": 171, "time_elapsed": 1002998, "internal_node_id": "0.0-126.0"}}, {"uniqueid": "MTK0774:39GXDJN2OUL2RURV7Z08A3GDFJ58VZ", "current_trial": 172, "dateTime": 1512751422731, "trialdata": {"rt": -1000, "stimulus": "/static/audio/wordpool/FLOWER.wav", "key_press": -1, "type": "PRES_AUD", "word": "flower", "wordID": 583, "conditions": [24, 1600, "a", 12000], "trial": 4, "serialpos": 15, "trial_type": "single-audio", "trial_index": 172, "time_elapsed": 1005788, "internal_node_id": "0.0-127.0"}}, {"uniqueid": "MTK0774:39GXDJN2OUL2RURV7Z08A3GDFJ58VZ", "current_trial": 173, "dateTime": 1512751425301, "trialdata": {"rt": -1000, "stimulus": "/static/audio/wordpool/GRAVEL.wav", "key_press": -1, "type": "PRES_AUD", "word": "gravel", "wordID": 658, "conditions": [24, 1600, "a", 12000], "trial": 4, "serialpos": 16, "trial_type": "single-audio", "trial_index": 173, "time_elapsed": 1008357, "internal_node_id": "0.0-128.0"}}, {"uniqueid": "MTK0774:39GXDJN2OUL2RURV7Z08A3GDFJ58VZ", "current_trial": 174, "dateTime": 1512751428100, "trialdata": {"rt": -1000, "stimulus": "/static/audio/wordpool/SUBWAY.wav", "key_press": -1, "type": "PRES_AUD", "word": "subway", "wordID": 1399, "conditions": [24, 1600, "a", 12000], "trial": 4, "serialpos": 17, "trial_type": "single-audio", "trial_index": 174, "time_elapsed": 1011157, "internal_node_id": "0.0-129.0"}}, {"uniqueid": "MTK0774:39GXDJN2OUL2RURV7Z08A3GDFJ58VZ", "current_trial": 175, "dateTime": 1512751430630, "trialdata": {"rt": -1000, "stimulus": "/static/audio/wordpool/PORK.wav", "key_press": -1, "type": "PRES_AUD", "word": "pork", "wordID": 1107, "conditions": [24, 1600, "a", 12000], "trial": 4, "serialpos": 18, "trial_type": "single-audio", "trial_index": 175, "time_elapsed": 1013687, "internal_node_id": "0.0-130.0"}}, {"uniqueid": "MTK0774:39GXDJN2OUL2RURV7Z08A3GDFJ58VZ", "current_trial": 176, "dateTime": 1512751433270, "trialdata": {"rt": -1000, "stimulus": "/static/audio/wordpool/FOREHEAD.wav", "key_press": -1, "type": "PRES_AUD", "word": "forehead", "wordID": 591, "conditions": [24, 1600, "a", 12000], "trial": 4, "serialpos": 19, "trial_type": "single-audio", "trial_index": 176, "time_elapsed": 1016327, "internal_node_id": "0.0-131.0"}}, {"uniqueid": "MTK0774:39GXDJN2OUL2RURV7Z08A3GDFJ58VZ", "current_trial": 177, "dateTime": 1512751436030, "trialdata": {"rt": -1000, "stimulus": "/static/audio/wordpool/CHEST.wav", "key_press": -1, "type": "PRES_AUD", "word": "chest", "wordID": 294, "conditions": [24, 1600, "a", 12000], "trial": 4, "serialpos": 20, "trial_type": "single-audio", "trial_index": 177, "time_elapsed": 1019086, "internal_node_id": "0.0-132.0"}}, {"uniqueid": "MTK0774:39GXDJN2OUL2RURV7Z08A3GDFJ58VZ", "current_trial": 178, "dateTime": 1512751438809, "trialdata": {"rt": -1000, "stimulus": "/static/audio/wordpool/LILY.wav", "key_press": -1, "type": "PRES_AUD", "word": "lily", "wordID": 820, "conditions": [24, 1600, "a", 12000], "trial": 4, "serialpos": 21, "trial_type": "single-audio", "trial_index": 178, "time_elapsed": 1021866, "internal_node_id": "0.0-133.0"}}, {"uniqueid": "MTK0774:39GXDJN2OUL2RURV7Z08A3GDFJ58VZ", "current_trial": 179, "dateTime": 1512751441569, "trialdata": {"rt": -1000, "stimulus": "/static/audio/wordpool/COOKBOOK.wav", "key_press": -1, "type": "PRES_AUD", "word": "cookbook", "wordID": 372, "conditions": [24, 1600, "a", 12000], "trial": 4, "serialpos": 22, "trial_type": "single-audio", "trial_index": 179, "time_elapsed": 1024626, "internal_node_id": "0.0-134.0"}}, {"uniqueid": "MTK0774:39GXDJN2OUL2RURV7Z08A3GDFJ58VZ", "current_trial": 180, "dateTime": 1512751444089, "trialdata": {"rt": -1000, "stimulus": "/static/audio/wordpool/SHOVEL.wav", "key_press": -1, "type": "PRES_AUD", "word": "shovel", "wordID": 1294, "conditions": [24, 1600, "a", 12000], "trial": 4, "serialpos": 23, "trial_type": "single-audio", "trial_index": 180, "time_elapsed": 1027146, "internal_node_id": "0.0-135.0"}}, {"uniqueid": "MTK0774:39GXDJN2OUL2RURV7Z08A3GDFJ58VZ", "current_trial": 181, "dateTime": 1512751445389, "trialdata": {"rt": -1, "stimulus": "", "key_press": -1, "type": "PRE_RECALL_DELAY", "trial_type": "single-stim", "trial_index": 181, "time_elapsed": 1028446, "internal_node_id": "0.0-136.0-0.0"}}, {"uniqueid": "MTK0774:39GXDJN2OUL2RURV7Z08A3GDFJ58VZ", "current_trial": 182, "dateTime": 1512751445899, "trialdata": {"rt": -1000, "stimulus": "/static/audio/400Hz.wav", "key_press": -1, "type": "PRE_RECALL_ALERT", "trial_type": "single-audio", "trial_index": 182, "time_elapsed": 1028956, "internal_node_id": "0.0-137.0"}}, {"uniqueid": "MTK0774:39GXDJN2OUL2RURV7Z08A3GDFJ58VZ", "current_trial": 183, "dateTime": 1512751505908, "trialdata": {"rt": [4682, 6922, 9498, 12218, 14457, 25881, 33113, 37128, 40392, 44888, 46568], "recwords": ["ointment", "daisy", "razor", "antler", "daughter", "matress", "snack", "comet", "pork", "lilly", "shovel"], "type": "FREE_RECALL", "conditions": [24, 1600, "a", 12000], "trial": 4, "trial_type": "free-recall", "trial_index": 183, "time_elapsed": 1088961, "internal_node_id": "0.0-138.0-0.0"}}, {"uniqueid": "MTK0774:39GXDJN2OUL2RURV7Z08A3GDFJ58VZ", "current_trial": 184, "dateTime": 1512751513189, "trialdata": {"rt": 5274, "key_press": 32, "type": "INSTRUCTIONS", "trial_type": "text", "trial_index": 184, "time_elapsed": 1096245, "internal_node_id": "0.0-139.0"}}, {"uniqueid": "MTK0774:39GXDJN2OUL2RURV7Z08A3GDFJ58VZ", "current_trial": 185, "dateTime": 1512751539202, "trialdata": {"rt": [3257, 5417, 7768, 9560, 12088, 14232, 16168, 18680, 21720], "responses": ["14", "21", "17", "7", "14", "19", "15", "8", "12"], "num1": [8, 9, 2, 2, 3, 4, 5, 3, 5, 1], "num2": [1, 6, 4, 3, 4, 8, 6, 1, 3, 2], "num3": [5, 6, 9, 2, 7, 7, 4, 4, 4, 8], "type": "DISTRACTOR", "conditions": [12, 1600, "a", 24000], "trial": 5, "trial_type": "math-distractor", "trial_index": 185, "time_elapsed": 1122259, "internal_node_id": "0.0-140.0"}}, {"uniqueid": "MTK0774:39GXDJN2OUL2RURV7Z08A3GDFJ58VZ", "current_trial": 186, "dateTime": 1512751542221, "trialdata": {"rt": -1, "stimulus": "<p id=\"stim\">10</p>", "key_press": -1, "trial_type": "single-stim", "trial_index": 186, "time_elapsed": 1125278, "internal_node_id": "0.0-141.0-0.0"}}, {"uniqueid": "MTK0774:39GXDJN2OUL2RURV7Z08A3GDFJ58VZ", "current_trial": 187, "dateTime": 1512751543231, "trialdata": {"rt": -1, "stimulus": "<p id=\"stim\">9</p>", "key_press": -1, "trial_type": "single-stim", "trial_index": 187, "time_elapsed": 1126288, "internal_node_id": "0.0-141.0-1.0"}}, {"uniqueid": "MTK0774:39GXDJN2OUL2RURV7Z08A3GDFJ58VZ", "current_trial": 188, "dateTime": 1512751544241, "trialdata": {"rt": -1, "stimulus": "<p id=\"stim\">8</p>", "key_press": -1, "trial_type": "single-stim", "trial_index": 188, "time_elapsed": 1127298, "internal_node_id": "0.0-141.0-2.0"}}, {"uniqueid": "MTK0774:39GXDJN2OUL2RURV7Z08A3GDFJ58VZ", "current_trial": 189, "dateTime": 1512751545251, "trialdata": {"rt": -1, "stimulus": "<p id=\"stim\">7</p>", "key_press": -1, "trial_type": "single-stim", "trial_index": 189, "time_elapsed": 1128308, "internal_node_id": "0.0-141.0-3.0"}}, {"uniqueid": "MTK0774:39GXDJN2OUL2RURV7Z08A3GDFJ58VZ", "current_trial": 190, "dateTime": 1512751546261, "trialdata": {"rt": -1, "stimulus": "<p id=\"stim\">6</p>", "key_press": -1, "trial_type": "single-stim", "trial_index": 190, "time_elapsed": 1129318, "internal_node_id": "0.0-141.0-4.0"}}, {"uniqueid": "MTK0774:39GXDJN2OUL2RURV7Z08A3GDFJ58VZ", "current_trial": 191, "dateTime": 1512751547271, "trialdata": {"rt": -1, "stimulus": "<p id=\"stim\">5</p>", "key_press": -1, "trial_type": "single-stim", "trial_index": 191, "time_elapsed": 1130328, "internal_node_id": "0.0-141.0-5.0"}}, {"uniqueid": "MTK0774:39GXDJN2OUL2RURV7Z08A3GDFJ58VZ", "current_trial": 192, "dateTime": 1512751548281, "trialdata": {"rt": -1, "stimulus": "<p id=\"stim\">4</p>", "key_press": -1, "trial_type": "single-stim", "trial_index": 192, "time_elapsed": 1131338, "internal_node_id": "0.0-141.0-6.0"}}, {"uniqueid": "MTK0774:39GXDJN2OUL2RURV7Z08A3GDFJ58VZ", "current_trial": 193, "dateTime": 1512751549291, "trialdata": {"rt": -1, "stimulus": "<p id=\"stim\">3</p>", "key_press": -1, "trial_type": "single-stim", "trial_index": 193, "time_elapsed": 1132348, "internal_node_id": "0.0-141.0-7.0"}}, {"uniqueid": "MTK0774:39GXDJN2OUL2RURV7Z08A3GDFJ58VZ", "current_trial": 194, "dateTime": 1512751550301, "trialdata": {"rt": -1, "stimulus": "<p id=\"stim\">2</p>", "key_press": -1, "trial_type": "single-stim", "trial_index": 194, "time_elapsed": 1133358, "internal_node_id": "0.0-141.0-8.0"}}, {"uniqueid": "MTK0774:39GXDJN2OUL2RURV7Z08A3GDFJ58VZ", "current_trial": 195, "dateTime": 1512751551311, "trialdata": {"rt": -1, "stimulus": "<p id=\"stim\">1</p>", "key_press": -1, "trial_type": "single-stim", "trial_index": 195, "time_elapsed": 1134368, "internal_node_id": "0.0-141.0-9.0"}}, {"uniqueid": "MTK0774:39GXDJN2OUL2RURV7Z08A3GDFJ58VZ", "current_trial": 196, "dateTime": 1512751552821, "trialdata": {"rt": -1, "stimulus": "<p id=\"stim\">+</p>", "key_press": -1, "type": "FIXATION", "trial_type": "single-stim", "trial_index": 196, "time_elapsed": 1135877, "internal_node_id": "0.0-142.0-0.0"}}, {"uniqueid": "MTK0774:39GXDJN2OUL2RURV7Z08A3GDFJ58VZ", "current_trial": 197, "dateTime": 1512751555370, "trialdata": {"rt": -1000, "stimulus": "/static/audio/wordpool/AIRPLANE.wav", "key_press": -1, "type": "PRES_AUD", "word": "airplane", "wordID": 11, "conditions": [12, 1600, "a", 24000], "trial": 5, "serialpos": 0, "trial_type": "single-audio", "trial_index": 197, "time_elapsed": 1138427, "internal_node_id": "0.0-143.0"}}, {"uniqueid": "MTK0774:39GXDJN2OUL2RURV7Z08A3GDFJ58VZ", "current_trial": 198, "dateTime": 1512751557870, "trialdata": {"rt": -1000, "stimulus": "/static/audio/wordpool/WASHER.wav", "key_press": -1, "type": "PRES_AUD", "word": "washer", "wordID": 1591, "conditions": [12, 1600, "a", 24000], "trial": 5, "serialpos": 1, "trial_type": "single-audio", "trial_index": 198, "time_elapsed": 1140927, "internal_node_id": "0.0-144.0"}}, {"uniqueid": "MTK0774:39GXDJN2OUL2RURV7Z08A3GDFJ58VZ", "current_trial": 199, "dateTime": 1512751560440, "trialdata": {"rt": -1000, "stimulus": "/static/audio/wordpool/TOURIST.wav", "key_press": -1, "type": "PRES_AUD", "word": "tourist", "wordID": 1487, "conditions": [12, 1600, "a", 24000], "trial": 5, "serialpos": 2, "trial_type": "single-audio", "trial_index": 199, "time_elapsed": 1143497, "internal_node_id": "0.0-145.0"}}, {"uniqueid": "MTK0774:39GXDJN2OUL2RURV7Z08A3GDFJ58VZ", "current_trial": 200, "dateTime": 1512751562980, "trialdata": {"rt": -1000, "stimulus": "/static/audio/wordpool/CURTAIN.wav", "key_press": -1, "type": "PRES_AUD", "word": "curtain", "wordID": 426, "conditions": [12, 1600, "a", 24000], "trial": 5, "serialpos": 3, "trial_type": "single-audio", "trial_index": 200, "time_elapsed": 1146037, "internal_node_id": "0.0-146.0"}}, {"uniqueid": "MTK0774:39GXDJN2OUL2RURV7Z08A3GDFJ58VZ", "current_trial": 201, "dateTime": 1512751565560, "trialdata": {"rt": -1000, "stimulus": "/static/audio/wordpool/ONION.wav", "key_press": -1, "type": "PRES_AUD", "word": "onion", "wordID": 976, "conditions": [12, 1600, "a", 24000], "trial": 5, "serialpos": 4, "trial_type": "single-audio", "trial_index": 201, "time_elapsed": 1148616, "internal_node_id": "0.0-147.0"}}, {"uniqueid": "MTK0774:39GXDJN2OUL2RURV7Z08A3GDFJ58VZ", "current_trial": 202, "dateTime": 1512751568199, "trialdata": {"rt": -1000, "stimulus": "/static/audio/wordpool/FIREMAN.wav", "key_press": -1, "type": "PRES_AUD", "word": "fireman", "wordID": 568, "conditions": [12, 1600, "a", 24000], "trial": 5, "serialpos": 5, "trial_type": "single-audio", "trial_index": 202, "time_elapsed": 1151256, "internal_node_id": "0.0-148.0"}}, {"uniqueid": "MTK0774:39GXDJN2OUL2RURV7Z08A3GDFJ58VZ", "current_trial": 203, "dateTime": 1512751570689, "trialdata": {"rt": -1000, "stimulus": "/static/audio/wordpool/KEEPER.wav", "key_press": -1, "type": "PRES_AUD", "word": "keeper", "wordID": 768, "conditions": [12, 1600, "a", 24000], "trial": 5, "serialpos": 6, "trial_type": "single-audio", "trial_index": 203, "time_elapsed": 1153746, "internal_node_id": "0.0-149.0"}}, {"uniqueid": "MTK0774:39GXDJN2OUL2RURV7Z08A3GDFJ58VZ", "current_trial": 204, "dateTime": 1512751573259, "trialdata": {"rt": -1000, "stimulus": "/static/audio/wordpool/BEAVER.wav", "key_press": -1, "type": "PRES_AUD", "word": "beaver", "wordID": 108, "conditions": [12, 1600, "a", 24000], "trial": 5, "serialpos": 7, "trial_type": "single-audio", "trial_index": 204, "time_elapsed": 1156316, "internal_node_id": "0.0-150.0"}}, {"uniqueid": "MTK0774:39GXDJN2OUL2RURV7Z08A3GDFJ58VZ", "current_trial": 205, "dateTime": 1512751575949, "trialdata": {"rt": -1000, "stimulus": "/static/audio/wordpool/FILM.wav", "key_press": -1, "type": "PRES_AUD", "word": "film", "wordID": 564, "conditions": [12, 1600, "a", 24000], "trial": 5, "serialpos": 8, "trial_type": "single-audio", "trial_index": 205, "time_elapsed": 1159006, "internal_node_id": "0.0-151.0"}}, {"uniqueid": "MTK0774:39GXDJN2OUL2RURV7Z08A3GDFJ58VZ", "current_trial": 206, "dateTime": 1512751578669, "trialdata": {"rt": -1000, "stimulus": "/static/audio/wordpool/ACTOR.wav", "key_press": -1, "type": "PRES_AUD", "word": "actor", "wordID": 4, "conditions": [12, 1600, "a", 24000], "trial": 5, "serialpos": 9, "trial_type": "single-audio", "trial_index": 206, "time_elapsed": 1161725, "internal_node_id": "0.0-152.0"}}, {"uniqueid": "MTK0774:39GXDJN2OUL2RURV7Z08A3GDFJ58VZ", "current_trial": 207, "dateTime": 1512751581118, "trialdata": {"rt": -1000, "stimulus": "/static/audio/wordpool/COTTAGE.wav", "key_press": -1, "type": "PRES_AUD", "word": "cottage", "wordID": 383, "conditions": [12, 1600, "a", 24000], "trial": 5, "serialpos": 10, "trial_type": "single-audio", "trial_index": 207, "time_elapsed": 1164175, "internal_node_id": "0.0-153.0"}}, {"uniqueid": "MTK0774:39GXDJN2OUL2RURV7Z08A3GDFJ58VZ", "current_trial": 208, "dateTime": 1512751583638, "trialdata": {"rt": -1000, "stimulus": "/static/audio/wordpool/RADISH.wav", "key_press": -1, "type": "PRES_AUD", "word": "radish", "wordID": 1157, "conditions": [12, 1600, "a", 24000], "trial": 5, "serialpos": 11, "trial_type": "single-audio", "trial_index": 208, "time_elapsed": 1166695, "internal_node_id": "0.0-154.0"}}, {"uniqueid": "MTK0774:39GXDJN2OUL2RURV7Z08A3GDFJ58VZ", "current_trial": 209, "dateTime": 1512751584848, "trialdata": {"rt": -1, "stimulus": "", "key_press": -1, "type": "PRE_RECALL_DELAY", "trial_type": "single-stim", "trial_index": 209, "time_elapsed": 1167905, "internal_node_id": "0.0-155.0-0.0"}}, {"uniqueid": "MTK0774:39GXDJN2OUL2RURV7Z08A3GDFJ58VZ", "current_trial": 210, "dateTime": 1512751585358, "trialdata": {"rt": -1000, "stimulus": "/static/audio/400Hz.wav", "key_press": -1, "type": "PRE_RECALL_ALERT", "trial_type": "single-audio", "trial_index": 210, "time_elapsed": 1168415, "internal_node_id": "0.0-156.0"}}, {"uniqueid": "MTK0774:39GXDJN2OUL2RURV7Z08A3GDFJ58VZ", "current_trial": 211, "dateTime": 1512751645368, "trialdata": {"rt": [5024, 7424, 12945, 21344, 25919, 31775], "recwords": ["airplane", "washer", "curtain", "beaver", "onion", "raddish"], "type": "FREE_RECALL", "conditions": [12, 1600, "a", 24000], "trial": 5, "trial_type": "free-recall", "trial_index": 211, "time_elapsed": 1228420, "internal_node_id": "0.0-157.0-0.0"}}, {"uniqueid": "MTK0774:39GXDJN2OUL2RURV7Z08A3GDFJ58VZ", "current_trial": 212, "dateTime": 1512751650382, "trialdata": {"rt": 3008, "key_press": 32, "type": "INSTRUCTIONS", "trial_type": "text", "trial_index": 212, "time_elapsed": 1233439, "internal_node_id": "0.0-158.0"}}, {"uniqueid": "MTK0774:39GXDJN2OUL2RURV7Z08A3GDFJ58VZ", "current_trial": 213, "dateTime": 1512751676391, "trialdata": {"rt": [2269, 4285, 6253, 10941, 13661, 15997, 18300, 20908, 23820], "responses": ["20", "13", "12", "26", "13", "16", "12", "16", "14"], "num1": [3, 3, 1, 9, 2, 6, 4, 6, 8, 8], "num2": [9, 1, 5, 8, 4, 7, 2, 6, 3, 7], "num3": [8, 9, 6, 9, 7, 3, 6, 4, 3, 8], "type": "DISTRACTOR", "conditions": [24, 1600, "v", 24000], "trial": 6, "trial_type": "math-distractor", "trial_index": 213, "time_elapsed": 1259448, "internal_node_id": "0.0-159.0"}}, {"uniqueid": "MTK0774:39GXDJN2OUL2RURV7Z08A3GDFJ58VZ", "current_trial": 214, "dateTime": 1512751679411, "trialdata": {"rt": -1, "stimulus": "<p id=\"stim\">10</p>", "key_press": -1, "trial_type": "single-stim", "trial_index": 214, "time_elapsed": 1262467, "internal_node_id": "0.0-160.0-0.0"}}, {"uniqueid": "MTK0774:39GXDJN2OUL2RURV7Z08A3GDFJ58VZ", "current_trial": 215, "dateTime": 1512751680421, "trialdata": {"rt": -1, "stimulus": "<p id=\"stim\">9</p>", "key_press": -1, "trial_type": "single-stim", "trial_index": 215, "time_elapsed": 1263477, "internal_node_id": "0.0-160.0-1.0"}}, {"uniqueid": "MTK0774:39GXDJN2OUL2RURV7Z08A3GDFJ58VZ", "current_trial": 216, "dateTime": 1512751681430, "trialdata": {"rt": -1, "stimulus": "<p id=\"stim\">8</p>", "key_press": -1, "trial_type": "single-stim", "trial_index": 216, "time_elapsed": 1264487, "internal_node_id": "0.0-160.0-2.0"}}, {"uniqueid": "MTK0774:39GXDJN2OUL2RURV7Z08A3GDFJ58VZ", "current_trial": 217, "dateTime": 1512751682440, "trialdata": {"rt": -1, "stimulus": "<p id=\"stim\">7</p>", "key_press": -1, "trial_type": "single-stim", "trial_index": 217, "time_elapsed": 1265497, "internal_node_id": "0.0-160.0-3.0"}}, {"uniqueid": "MTK0774:39GXDJN2OUL2RURV7Z08A3GDFJ58VZ", "current_trial": 218, "dateTime": 1512751683450, "trialdata": {"rt": -1, "stimulus": "<p id=\"stim\">6</p>", "key_press": -1, "trial_type": "single-stim", "trial_index": 218, "time_elapsed": 1266507, "internal_node_id": "0.0-160.0-4.0"}}, {"uniqueid": "MTK0774:39GXDJN2OUL2RURV7Z08A3GDFJ58VZ", "current_trial": 219, "dateTime": 1512751684460, "trialdata": {"rt": -1, "stimulus": "<p id=\"stim\">5</p>", "key_press": -1, "trial_type": "single-stim", "trial_index": 219, "time_elapsed": 1267517, "internal_node_id": "0.0-160.0-5.0"}}, {"uniqueid": "MTK0774:39GXDJN2OUL2RURV7Z08A3GDFJ58VZ", "current_trial": 220, "dateTime": 1512751685470, "trialdata": {"rt": -1, "stimulus": "<p id=\"stim\">4</p>", "key_press": -1, "trial_type": "single-stim", "trial_index": 220, "time_elapsed": 1268527, "internal_node_id": "0.0-160.0-6.0"}}, {"uniqueid": "MTK0774:39GXDJN2OUL2RURV7Z08A3GDFJ58VZ", "current_trial": 221, "dateTime": 1512751686471, "trialdata": {"rt": -1, "stimulus": "<p id=\"stim\">3</p>", "key_press": -1, "trial_type": "single-stim", "trial_index": 221, "time_elapsed": 1269528, "internal_node_id": "0.0-160.0-7.0"}}, {"uniqueid": "MTK0774:39GXDJN2OUL2RURV7Z08A3GDFJ58VZ", "current_trial": 222, "dateTime": 1512751687481, "trialdata": {"rt": -1, "stimulus": "<p id=\"stim\">2</p>", "key_press": -1, "trial_type": "single-stim", "trial_index": 222, "time_elapsed": 1270538, "internal_node_id": "0.0-160.0-8.0"}}, {"uniqueid": "MTK0774:39GXDJN2OUL2RURV7Z08A3GDFJ58VZ", "current_trial": 223, "dateTime": 1512751688491, "trialdata": {"rt": -1, "stimulus": "<p id=\"stim\">1</p>", "key_press": -1, "trial_type": "single-stim", "trial_index": 223, "time_elapsed": 1271548, "internal_node_id": "0.0-160.0-9.0"}}, {"uniqueid": "MTK0774:39GXDJN2OUL2RURV7Z08A3GDFJ58VZ", "current_trial": 224, "dateTime": 1512751690001, "trialdata": {"rt": -1, "stimulus": "<p id=\"stim\">+</p>", "key_press": -1, "type": "FIXATION", "trial_type": "single-stim", "trial_index": 224, "time_elapsed": 1273058, "internal_node_id": "0.0-161.0-0.0"}}, {"uniqueid": "MTK0774:39GXDJN2OUL2RURV7Z08A3GDFJ58VZ", "current_trial": 225, "dateTime": 1512751691633, "trialdata": {"rt": -1, "stimulus": "<p id=\"stim\">MESSAGE</p>", "key_press": -1, "type": "PRES_VIS", "word": "message", "wordID": 887, "conditions": [24, 1600, "v", 24000], "trial": 6, "serialpos": 0, "trial_type": "single-stim", "trial_index": 225, "time_elapsed": 1274690, "internal_node_id": "0.0-162.0"}}, {"uniqueid": "MTK0774:39GXDJN2OUL2RURV7Z08A3GDFJ58VZ", "current_trial": 226, "dateTime": 1512751694153, "trialdata": {"rt": -1, "stimulus": "<p id=\"stim\">MAPLE</p>", "key_press": -1, "type": "PRES_VIS", "word": "maple", "wordID": 865, "conditions": [24, 1600, "v", 24000], "trial": 6, "serialpos": 1, "trial_type": "single-stim", "trial_index": 226, "time_elapsed": 1277210, "internal_node_id": "0.0-163.0"}}, {"uniqueid": "MTK0774:39GXDJN2OUL2RURV7Z08A3GDFJ58VZ", "current_trial": 227, "dateTime": 1512751696683, "trialdata": {"rt": -1, "stimulus": "<p id=\"stim\">GUARD</p>", "key_press": -1, "type": "PRES_VIS", "word": "guard", "wordID": 666, "conditions": [24, 1600, "v", 24000], "trial": 6, "serialpos": 2, "trial_type": "single-stim", "trial_index": 227, "time_elapsed": 1279740, "internal_node_id": "0.0-164.0"}}, {"uniqueid": "MTK0774:39GXDJN2OUL2RURV7Z08A3GDFJ58VZ", "current_trial": 228, "dateTime": 1512751699472, "trialdata": {"rt": -1, "stimulus": "<p id=\"stim\">INMATE</p>", "key_press": -1, "type": "PRES_VIS", "word": "inmate", "wordID": 737, "conditions": [24, 1600, "v", 24000], "trial": 6, "serialpos": 3, "trial_type": "single-stim", "trial_index": 228, "time_elapsed": 1282529, "internal_node_id": "0.0-165.0"}}, {"uniqueid": "MTK0774:39GXDJN2OUL2RURV7Z08A3GDFJ58VZ", "current_trial": 229, "dateTime": 1512751702272, "trialdata": {"rt": -1, "stimulus": "<p id=\"stim\">SANDWICH</p>", "key_press": -1, "type": "PRES_VIS", "word": "sandwich", "wordID": 1231, "conditions": [24, 1600, "v", 24000], "trial": 6, "serialpos": 4, "trial_type": "single-stim", "trial_index": 229, "time_elapsed": 1285329, "internal_node_id": "0.0-166.0"}}, {"uniqueid": "MTK0774:39GXDJN2OUL2RURV7Z08A3GDFJ58VZ", "current_trial": 230, "dateTime": 1512751705072, "trialdata": {"rt": -1, "stimulus": "<p id=\"stim\">PIANO</p>", "key_press": -1, "type": "PRES_VIS", "word": "piano", "wordID": 1056, "conditions": [24, 1600, "v", 24000], "trial": 6, "serialpos": 5, "trial_type": "single-stim", "trial_index": 230, "time_elapsed": 1288129, "internal_node_id": "0.0-167.0"}}, {"uniqueid": "MTK0774:39GXDJN2OUL2RURV7Z08A3GDFJ58VZ", "current_trial": 231, "dateTime": 1512751707582, "trialdata": {"rt": -1, "stimulus": "<p id=\"stim\">LAGOON</p>", "key_press": -1, "type": "PRES_VIS", "word": "lagoon", "wordID": 794, "conditions": [24, 1600, "v", 24000], "trial": 6, "serialpos": 6, "trial_type": "single-stim", "trial_index": 231, "time_elapsed": 1290639, "internal_node_id": "0.0-168.0"}}, {"uniqueid": "MTK0774:39GXDJN2OUL2RURV7Z08A3GDFJ58VZ", "current_trial": 232, "dateTime": 1512751710342, "trialdata": {"rt": -1, "stimulus": "<p id=\"stim\">STATUE</p>", "key_press": -1, "type": "PRES_VIS", "word": "statue", "wordID": 1373, "conditions": [24, 1600, "v", 24000], "trial": 6, "serialpos": 7, "trial_type": "single-stim", "trial_index": 232, "time_elapsed": 1293398, "internal_node_id": "0.0-169.0"}}, {"uniqueid": "MTK0774:39GXDJN2OUL2RURV7Z08A3GDFJ58VZ", "current_trial": 233, "dateTime": 1512751712981, "trialdata": {"rt": -1, "stimulus": "<p id=\"stim\">OUTFIT</p>", "key_press": -1, "type": "PRES_VIS", "word": "outfit", "wordID": 987, "conditions": [24, 1600, "v", 24000], "trial": 6, "serialpos": 8, "trial_type": "single-stim", "trial_index": 233, "time_elapsed": 1296038, "internal_node_id": "0.0-170.0"}}, {"uniqueid": "MTK0774:39GXDJN2OUL2RURV7Z08A3GDFJ58VZ", "current_trial": 234, "dateTime": 1512751715412, "trialdata": {"rt": -1, "stimulus": "<p id=\"stim\">BADGE</p>", "key_press": -1, "type": "PRES_VIS", "word": "badge", "wordID": 67, "conditions": [24, 1600, "v", 24000], "trial": 6, "serialpos": 9, "trial_type": "single-stim", "trial_index": 234, "time_elapsed": 1298468, "internal_node_id": "0.0-171.0"}}, {"uniqueid": "MTK0774:39GXDJN2OUL2RURV7Z08A3GDFJ58VZ", "current_trial": 235, "dateTime": 1512751718221, "trialdata": {"rt": -1, "stimulus": "<p id=\"stim\">STICKER</p>", "key_press": -1, "type": "PRES_VIS", "word": "sticker", "wordID": 1381, "conditions": [24, 1600, "v", 24000], "trial": 6, "serialpos": 10, "trial_type": "single-stim", "trial_index": 235, "time_elapsed": 1301278, "internal_node_id": "0.0-172.0"}}, {"uniqueid": "MTK0774:39GXDJN2OUL2RURV7Z08A3GDFJ58VZ", "current_trial": 236, "dateTime": 1512751720931, "trialdata": {"rt": -1, "stimulus": "<p id=\"stim\">CANAL</p>", "key_press": -1, "type": "PRES_VIS", "word": "canal", "wordID": 225, "conditions": [24, 1600, "v", 24000], "trial": 6, "serialpos": 11, "trial_type": "single-stim", "trial_index": 236, "time_elapsed": 1303988, "internal_node_id": "0.0-173.0"}}, {"uniqueid": "MTK0774:39GXDJN2OUL2RURV7Z08A3GDFJ58VZ", "current_trial": 237, "dateTime": 1512751723511, "trialdata": {"rt": -1, "stimulus": "<p id=\"stim\">SCOTCH</p>", "key_press": -1, "type": "PRES_VIS", "word": "scotch", "wordID": 1250, "conditions": [24, 1600, "v", 24000], "trial": 6, "serialpos": 12, "trial_type": "single-stim", "trial_index": 237, "time_elapsed": 1306567, "internal_node_id": "0.0-174.0"}}, {"uniqueid": "MTK0774:39GXDJN2OUL2RURV7Z08A3GDFJ58VZ", "current_trial": 238, "dateTime": 1512751726270, "trialdata": {"rt": -1, "stimulus": "<p id=\"stim\">OYSTER</p>", "key_press": -1, "type": "PRES_VIS", "word": "oyster", "wordID": 994, "conditions": [24, 1600, "v", 24000], "trial": 6, "serialpos": 13, "trial_type": "single-stim", "trial_index": 238, "time_elapsed": 1309327, "internal_node_id": "0.0-175.0"}}, {"uniqueid": "MTK0774:39GXDJN2OUL2RURV7Z08A3GDFJ58VZ", "current_trial": 239, "dateTime": 1512751729000, "trialdata": {"rt": -1, "stimulus": "<p id=\"stim\">SUPPER</p>", "key_press": -1, "type": "PRES_VIS", "word": "supper", "wordID": 1410, "conditions": [24, 1600, "v", 24000], "trial": 6, "serialpos": 14, "trial_type": "single-stim", "trial_index": 239, "time_elapsed": 1312057, "internal_node_id": "0.0-176.0"}}, {"uniqueid": "MTK0774:39GXDJN2OUL2RURV7Z08A3GDFJ58VZ", "current_trial": 240, "dateTime": 1512751731750, "trialdata": {"rt": -1, "stimulus": "<p id=\"stim\">SHERIFF</p>", "key_press": -1, "type": "PRES_VIS", "word": "sheriff", "wordID": 1283, "conditions": [24, 1600, "v", 24000], "trial": 6, "serialpos": 15, "trial_type": "single-stim", "trial_index": 240, "time_elapsed": 1314807, "internal_node_id": "0.0-177.0"}}, {"uniqueid": "MTK0774:39GXDJN2OUL2RURV7Z08A3GDFJ58VZ", "current_trial": 241, "dateTime": 1512751734180, "trialdata": {"rt": -1, "stimulus": "<p id=\"stim\">POLICE</p>", "key_press": -1, "type": "PRES_VIS", "word": "police", "wordID": 1097, "conditions": [24, 1600, "v", 24000], "trial": 6, "serialpos": 16, "trial_type": "single-stim", "trial_index": 241, "time_elapsed": 1317237, "internal_node_id": "0.0-178.0"}}, {"uniqueid": "MTK0774:39GXDJN2OUL2RURV7Z08A3GDFJ58VZ", "current_trial": 242, "dateTime": 1512751736900, "trialdata": {"rt": -1, "stimulus": "<p id=\"stim\">RECORD</p>", "key_press": -1, "type": "PRES_VIS", "word": "record", "wordID": 1175, "conditions": [24, 1600, "v", 24000], "trial": 6, "serialpos": 17, "trial_type": "single-stim", "trial_index": 242, "time_elapsed": 1319956, "internal_node_id": "0.0-179.0"}}, {"uniqueid": "MTK0774:39GXDJN2OUL2RURV7Z08A3GDFJ58VZ", "current_trial": 243, "dateTime": 1512751739339, "trialdata": {"rt": -1, "stimulus": "<p id=\"stim\">WIDOW</p>", "key_press": -1, "type": "PRES_VIS", "word": "widow", "wordID": 1607, "conditions": [24, 1600, "v", 24000], "trial": 6, "serialpos": 18, "trial_type": "single-stim", "trial_index": 243, "time_elapsed": 1322396, "internal_node_id": "0.0-180.0"}}, {"uniqueid": "MTK0774:39GXDJN2OUL2RURV7Z08A3GDFJ58VZ", "current_trial": 244, "dateTime": 1512751741869, "trialdata": {"rt": -1, "stimulus": "<p id=\"stim\">BEAST</p>", "key_press": -1, "type": "PRES_VIS", "word": "beast", "wordID": 107, "conditions": [24, 1600, "v", 24000], "trial": 6, "serialpos": 19, "trial_type": "single-stim", "trial_index": 244, "time_elapsed": 1324926, "internal_node_id": "0.0-181.0"}}, {"uniqueid": "MTK0774:39GXDJN2OUL2RURV7Z08A3GDFJ58VZ", "current_trial": 245, "dateTime": 1512751744479, "trialdata": {"rt": -1, "stimulus": "<p id=\"stim\">CREATURE</p>", "key_press": -1, "type": "PRES_VIS", "word": "creature", "wordID": 402, "conditions": [24, 1600, "v", 24000], "trial": 6, "serialpos": 20, "trial_type": "single-stim", "trial_index": 245, "time_elapsed": 1327536, "internal_node_id": "0.0-182.0"}}, {"uniqueid": "MTK0774:39GXDJN2OUL2RURV7Z08A3GDFJ58VZ", "current_trial": 246, "dateTime": 1512751747089, "trialdata": {"rt": -1, "stimulus": "<p id=\"stim\">LUNCH</p>", "key_press": -1, "type": "PRES_VIS", "word": "lunch", "wordID": 848, "conditions": [24, 1600, "v", 24000], "trial": 6, "serialpos": 21, "trial_type": "single-stim", "trial_index": 246, "time_elapsed": 1330146, "internal_node_id": "0.0-183.0"}}, {"uniqueid": "MTK0774:39GXDJN2OUL2RURV7Z08A3GDFJ58VZ", "current_trial": 247, "dateTime": 1512751749659, "trialdata": {"rt": -1, "stimulus": "<p id=\"stim\">OMELET</p>", "key_press": -1, "type": "PRES_VIS", "word": "omelet", "wordID": 975, "conditions": [24, 1600, "v", 24000], "trial": 6, "serialpos": 22, "trial_type": "single-stim", "trial_index": 247, "time_elapsed": 1332715, "internal_node_id": "0.0-184.0"}}, {"uniqueid": "MTK0774:39GXDJN2OUL2RURV7Z08A3GDFJ58VZ", "current_trial": 248, "dateTime": 1512751752128, "trialdata": {"rt": -1, "stimulus": "<p id=\"stim\">PEPPER</p>", "key_press": -1, "type": "PRES_VIS", "word": "pepper", "wordID": 1046, "conditions": [24, 1600, "v", 24000], "trial": 6, "serialpos": 23, "trial_type": "single-stim", "trial_index": 248, "time_elapsed": 1335185, "internal_node_id": "0.0-185.0"}}, {"uniqueid": "MTK0774:39GXDJN2OUL2RURV7Z08A3GDFJ58VZ", "current_trial": 249, "dateTime": 1512751754218, "trialdata": {"rt": -1, "stimulus": "", "key_press": -1, "type": "PRE_RECALL_DELAY", "trial_type": "single-stim", "trial_index": 249, "time_elapsed": 1337275, "internal_node_id": "0.0-186.0-0.0"}}, {"uniqueid": "MTK0774:39GXDJN2OUL2RURV7Z08A3GDFJ58VZ", "current_trial": 250, "dateTime": 1512751754728, "trialdata": {"rt": -1000, "stimulus": "/static/audio/400Hz.wav", "key_press": -1, "type": "PRE_RECALL_ALERT", "trial_type": "single-audio", "trial_index": 250, "time_elapsed": 1337785, "internal_node_id": "0.0-187.0"}}, {"uniqueid": "MTK0774:39GXDJN2OUL2RURV7Z08A3GDFJ58VZ", "current_trial": 251, "dateTime": 1512751814739, "trialdata": {"rt": [9549, 11229, 14813, 24941, 41132, 43276, 49660, 55099], "recwords": ["message", "maple", "guard", "badge", "sheriff", "police", "beast", "pepper"], "type": "FREE_RECALL", "conditions": [24, 1600, "v", 24000], "trial": 6, "trial_type": "free-recall", "trial_index": 251, "time_elapsed": 1397790, "internal_node_id": "0.0-188.0-0.0"}}, {"uniqueid": "MTK0774:39GXDJN2OUL2RURV7Z08A3GDFJ58VZ", "current_trial": 252, "dateTime": 1512751823174, "trialdata": {"rt": 6430, "key_press": 32, "type": "INSTRUCTIONS", "trial_type": "text", "trial_index": 252, "time_elapsed": 1406230, "internal_node_id": "0.0-189.0"}}, {"uniqueid": "MTK0774:39GXDJN2OUL2RURV7Z08A3GDFJ58VZ", "current_trial": 253, "dateTime": 1512751837192, "trialdata": {"rt": [2260, 4500, 6356, 8180, 10660], "responses": ["17", "12", "18", "12", "15"], "num1": [9, 3, 5, 4, 4, 9], "num2": [6, 1, 5, 7, 7, 6], "num3": [2, 8, 8, 1, 3, 8], "type": "DISTRACTOR", "conditions": [12, 1600, "a", 12000], "trial": 7, "trial_type": "math-distractor", "trial_index": 253, "time_elapsed": 1420249, "internal_node_id": "0.0-190.0"}}, {"uniqueid": "MTK0774:39GXDJN2OUL2RURV7Z08A3GDFJ58VZ", "current_trial": 254, "dateTime": 1512751840211, "trialdata": {"rt": -1, "stimulus": "<p id=\"stim\">10</p>", "key_press": -1, "trial_type": "single-stim", "trial_index": 254, "time_elapsed": 1423268, "internal_node_id": "0.0-191.0-0.0"}}, {"uniqueid": "MTK0774:39GXDJN2OUL2RURV7Z08A3GDFJ58VZ", "current_trial": 255, "dateTime": 1512751841221, "trialdata": {"rt": -1, "stimulus": "<p id=\"stim\">9</p>", "key_press": -1, "trial_type": "single-stim", "trial_index": 255, "time_elapsed": 1424278, "internal_node_id": "0.0-191.0-1.0"}}, {"uniqueid": "MTK0774:39GXDJN2OUL2RURV7Z08A3GDFJ58VZ", "current_trial": 256, "dateTime": 1512751842231, "trialdata": {"rt": -1, "stimulus": "<p id=\"stim\">8</p>", "key_press": -1, "trial_type": "single-stim", "trial_index": 256, "time_elapsed": 1425288, "internal_node_id": "0.0-191.0-2.0"}}, {"uniqueid": "MTK0774:39GXDJN2OUL2RURV7Z08A3GDFJ58VZ", "current_trial": 257, "dateTime": 1512751843241, "trialdata": {"rt": -1, "stimulus": "<p id=\"stim\">7</p>", "key_press": -1, "trial_type": "single-stim", "trial_index": 257, "time_elapsed": 1426298, "internal_node_id": "0.0-191.0-3.0"}}, {"uniqueid": "MTK0774:39GXDJN2OUL2RURV7Z08A3GDFJ58VZ", "current_trial": 258, "dateTime": 1512751844251, "trialdata": {"rt": -1, "stimulus": "<p id=\"stim\">6</p>", "key_press": -1, "trial_type": "single-stim", "trial_index": 258, "time_elapsed": 1427308, "internal_node_id": "0.0-191.0-4.0"}}, {"uniqueid": "MTK0774:39GXDJN2OUL2RURV7Z08A3GDFJ58VZ", "current_trial": 259, "dateTime": 1512751845261, "trialdata": {"rt": -1, "stimulus": "<p id=\"stim\">5</p>", "key_press": -1, "trial_type": "single-stim", "trial_index": 259, "time_elapsed": 1428318, "internal_node_id": "0.0-191.0-5.0"}}, {"uniqueid": "MTK0774:39GXDJN2OUL2RURV7Z08A3GDFJ58VZ", "current_trial": 260, "dateTime": 1512751846271, "trialdata": {"rt": -1, "stimulus": "<p id=\"stim\">4</p>", "key_press": -1, "trial_type": "single-stim", "trial_index": 260, "time_elapsed": 1429328, "internal_node_id": "0.0-191.0-6.0"}}, {"uniqueid": "MTK0774:39GXDJN2OUL2RURV7Z08A3GDFJ58VZ", "current_trial": 261, "dateTime": 1512751847281, "trialdata": {"rt": -1, "stimulus": "<p id=\"stim\">3</p>", "key_press": -1, "trial_type": "single-stim", "trial_index": 261, "time_elapsed": 1430338, "internal_node_id": "0.0-191.0-7.0"}}, {"uniqueid": "MTK0774:39GXDJN2OUL2RURV7Z08A3GDFJ58VZ", "current_trial": 262, "dateTime": 1512751848291, "trialdata": {"rt": -1, "stimulus": "<p id=\"stim\">2</p>", "key_press": -1, "trial_type": "single-stim", "trial_index": 262, "time_elapsed": 1431348, "internal_node_id": "0.0-191.0-8.0"}}, {"uniqueid": "MTK0774:39GXDJN2OUL2RURV7Z08A3GDFJ58VZ", "current_trial": 263, "dateTime": 1512751849301, "trialdata": {"rt": -1, "stimulus": "<p id=\"stim\">1</p>", "key_press": -1, "trial_type": "single-stim", "trial_index": 263, "time_elapsed": 1432357, "internal_node_id": "0.0-191.0-9.0"}}, {"uniqueid": "MTK0774:39GXDJN2OUL2RURV7Z08A3GDFJ58VZ", "current_trial": 264, "dateTime": 1512751850811, "trialdata": {"rt": -1, "stimulus": "<p id=\"stim\">+</p>", "key_press": -1, "type": "FIXATION", "trial_type": "single-stim", "trial_index": 264, "time_elapsed": 1433867, "internal_node_id": "0.0-192.0-0.0"}}, {"uniqueid": "MTK0774:39GXDJN2OUL2RURV7Z08A3GDFJ58VZ", "current_trial": 265, "dateTime": 1512751853370, "trialdata": {"rt": -1000, "stimulus": "/static/audio/wordpool/PIMPLE.wav", "key_press": -1, "type": "PRES_AUD", "word": "pimple", "wordID": 1070, "conditions": [12, 1600, "a", 12000], "trial": 7, "serialpos": 0, "trial_type": "single-audio", "trial_index": 265, "time_elapsed": 1436427, "internal_node_id": "0.0-193.0"}}, {"uniqueid": "MTK0774:39GXDJN2OUL2RURV7Z08A3GDFJ58VZ", "current_trial": 266, "dateTime": 1512751856030, "trialdata": {"rt": -1000, "stimulus": "/static/audio/wordpool/FRECKLE.wav", "key_press": -1, "type": "PRES_AUD", "word": "freckle", "wordID": 601, "conditions": [12, 1600, "a", 12000], "trial": 7, "serialpos": 1, "trial_type": "single-audio", "trial_index": 266, "time_elapsed": 1439087, "internal_node_id": "0.0-194.0"}}, {"uniqueid": "MTK0774:39GXDJN2OUL2RURV7Z08A3GDFJ58VZ", "current_trial": 267, "dateTime": 1512751858640, "trialdata": {"rt": -1000, "stimulus": "/static/audio/wordpool/BRIEFCASE.wav", "key_press": -1, "type": "PRES_AUD", "word": "briefcase", "wordID": 174, "conditions": [12, 1600, "a", 12000], "trial": 7, "serialpos": 2, "trial_type": "single-audio", "trial_index": 267, "time_elapsed": 1441697, "internal_node_id": "0.0-195.0"}}, {"uniqueid": "MTK0774:39GXDJN2OUL2RURV7Z08A3GDFJ58VZ", "current_trial": 268, "dateTime": 1512751861440, "trialdata": {"rt": -1000, "stimulus": "/static/audio/wordpool/VIRUS.wav", "key_press": -1, "type": "PRES_AUD", "word": "virus", "wordID": 1571, "conditions": [12, 1600, "a", 12000], "trial": 7, "serialpos": 3, "trial_type": "single-audio", "trial_index": 268, "time_elapsed": 1444496, "internal_node_id": "0.0-196.0"}}, {"uniqueid": "MTK0774:39GXDJN2OUL2RURV7Z08A3GDFJ58VZ", "current_trial": 269, "dateTime": 1512751864030, "trialdata": {"rt": -1000, "stimulus": "/static/audio/wordpool/WHIST