{"condition": 0, "counterbalance": 1904, "assignmentId": "3WI0P0II62ZMFI65FN6EVY5B519RD9", "workerId": "MTK0718", "hitId": "3HXK2V1N4KM60Y1HCLNJBR4GQX02G7", "currenttrial": 626, "bonus": 0, "data": [{"uniqueid": "MTK0718:3WI0P0II62ZMFI65FN6EVY5B519RD9", "current_trial": 0, "dateTime": 1512676110395, "trialdata": {"rt": 7228, "key_press": 32, "type": "INSTRUCTIONS", "trial_type": "text", "trial_index": 0, "time_elapsed": 7233, "internal_node_id": "0.0-0.0"}}, {"uniqueid": "MTK0718:3WI0P0II62ZMFI65FN6EVY5B519RD9", "current_trial": 1, "dateTime": 1512676131568, "trialdata": {"rt": 21170, "key_press": 32, "type": "INSTRUCTIONS", "trial_type": "text", "trial_index": 1, "time_elapsed": 28408, "internal_node_id": "0.0-1.0"}}, {"uniqueid": "MTK0718:3WI0P0II62ZMFI65FN6EVY5B519RD9", "current_trial": 2, "dateTime": 1512676135288, "trialdata": {"rt": [3714], "responses": ["ocean"], "type": "AUDIO_TEST", "trial_type": "audio-test", "trial_index": 2, "time_elapsed": 32128, "internal_node_id": "0.0-2.0"}}, {"uniqueid": "MTK0718:3WI0P0II62ZMFI65FN6EVY5B519RD9", "current_trial": 3, "dateTime": 1512676142868, "trialdata": {"rt": [1336, 7577], "responses": ["", "crystal"], "type": "AUDIO_TEST", "trial_type": "audio-test", "trial_index": 3, "time_elapsed": 39708, "internal_node_id": "0.0-3.0"}}, {"uniqueid": "MTK0718:3WI0P0II62ZMFI65FN6EVY5B519RD9", "current_trial": 4, "dateTime": 1512676146608, "trialdata": {"rt": [3736], "responses": ["spice"], "type": "AUDIO_TEST", "trial_type": "audio-test", "trial_index": 4, "time_elapsed": 43447, "internal_node_id": "0.0-4.0"}}, {"uniqueid": "MTK0718:3WI0P0II62ZMFI65FN6EVY5B519RD9", "current_trial": 5, "dateTime": 1512676185677, "trialdata": {"rt": 38316, "responses": "{\"Q0\":\"10 AM Mountain\",\"Q1\":\"8 AM\",\"Q2\":\"5\"}", "type": "SLEEP_SURVEY", "trial_type": "survey-text", "trial_index": 5, "time_elapsed": 82516, "internal_node_id": "0.0-5.0"}}, {"uniqueid": "MTK0718:3WI0P0II62ZMFI65FN6EVY5B519RD9", "current_trial": 6, "dateTime": 1512676207120, "trialdata": {"rt": 20442, "key_press": 32, "type": "INSTRUCTIONS", "trial_type": "text", "trial_index": 6, "time_elapsed": 103960, "internal_node_id": "0.0-6.0"}}, {"uniqueid": "MTK0718:3WI0P0II62ZMFI65FN6EVY5B519RD9", "current_trial": 7, "dateTime": 1512676218989, "trialdata": {"rt": 11366, "key_press": 32, "type": "INSTRUCTIONS", "trial_type": "text", "trial_index": 7, "time_elapsed": 115829, "internal_node_id": "0.0-7.0"}}, {"uniqueid": "MTK0718:3WI0P0II62ZMFI65FN6EVY5B519RD9", "current_trial": 8, "dateTime": 1512676221685, "trialdata": {"rt": 2194, "key_press": 32, "type": "INSTRUCTIONS", "trial_type": "text", "trial_index": 8, "time_elapsed": 118525, "internal_node_id": "0.0-8.0"}}, {"uniqueid": "MTK0718:3WI0P0II62ZMFI65FN6EVY5B519RD9", "current_trial": 9, "dateTime": 1512676240693, "trialdata": {"rt": [3293, 6014, 8191, 12591, 14511, 17579], "responses": ["10", "15", "12", "17", "15", "8"], "num1": [3, 9, 3, 2, 7, 2, 4], "num2": [5, 5, 3, 8, 3, 3, 8], "num3": [2, 1, 6, 7, 5, 3, 9], "type": "DISTRACTOR", "conditions": [18, 1200, "a", 18000], "trial": 0, "trial_type": "math-distractor", "trial_index": 9, "time_elapsed": 137533, "internal_node_id": "0.0-9.0"}}, {"uniqueid": "MTK0718:3WI0P0II62ZMFI65FN6EVY5B519RD9", "current_trial": 10, "dateTime": 1512676243696, "trialdata": {"rt": -1, "stimulus": "<p id=\"stim\">10</p>", "key_press": -1, "trial_type": "single-stim", "trial_index": 10, "time_elapsed": 140536, "internal_node_id": "0.0-10.0-0.0"}}, {"uniqueid": "MTK0718:3WI0P0II62ZMFI65FN6EVY5B519RD9", "current_trial": 11, "dateTime": 1512676244699, "trialdata": {"rt": -1, "stimulus": "<p id=\"stim\">9</p>", "key_press": -1, "trial_type": "single-stim", "trial_index": 11, "time_elapsed": 141538, "internal_node_id": "0.0-10.0-1.0"}}, {"uniqueid": "MTK0718:3WI0P0II62ZMFI65FN6EVY5B519RD9", "current_trial": 12, "dateTime": 1512676245700, "trialdata": {"rt": -1, "stimulus": "<p id=\"stim\">8</p>", "key_press": -1, "trial_type": "single-stim", "trial_index": 12, "time_elapsed": 142540, "internal_node_id": "0.0-10.0-2.0"}}, {"uniqueid": "MTK0718:3WI0P0II62ZMFI65FN6EVY5B519RD9", "current_trial": 13, "dateTime": 1512676246701, "trialdata": {"rt": -1, "stimulus": "<p id=\"stim\">7</p>", "key_press": -1, "trial_type": "single-stim", "trial_index": 13, "time_elapsed": 143541, "internal_node_id": "0.0-10.0-3.0"}}, {"uniqueid": "MTK0718:3WI0P0II62ZMFI65FN6EVY5B519RD9", "current_trial": 14, "dateTime": 1512676247703, "trialdata": {"rt": -1, "stimulus": "<p id=\"stim\">6</p>", "key_press": -1, "trial_type": "single-stim", "trial_index": 14, "time_elapsed": 144543, "internal_node_id": "0.0-10.0-4.0"}}, {"uniqueid": "MTK0718:3WI0P0II62ZMFI65FN6EVY5B519RD9", "current_trial": 15, "dateTime": 1512676248705, "trialdata": {"rt": -1, "stimulus": "<p id=\"stim\">5</p>", "key_press": -1, "trial_type": "single-stim", "trial_index": 15, "time_elapsed": 145545, "internal_node_id": "0.0-10.0-5.0"}}, {"uniqueid": "MTK0718:3WI0P0II62ZMFI65FN6EVY5B519RD9", "current_trial": 16, "dateTime": 1512676249707, "trialdata": {"rt": -1, "stimulus": "<p id=\"stim\">4</p>", "key_press": -1, "trial_type": "single-stim", "trial_index": 16, "time_elapsed": 146547, "internal_node_id": "0.0-10.0-6.0"}}, {"uniqueid": "MTK0718:3WI0P0II62ZMFI65FN6EVY5B519RD9", "current_trial": 17, "dateTime": 1512676250708, "trialdata": {"rt": -1, "stimulus": "<p id=\"stim\">3</p>", "key_press": -1, "trial_type": "single-stim", "trial_index": 17, "time_elapsed": 147548, "internal_node_id": "0.0-10.0-7.0"}}, {"uniqueid": "MTK0718:3WI0P0II62ZMFI65FN6EVY5B519RD9", "current_trial": 18, "dateTime": 1512676251710, "trialdata": {"rt": -1, "stimulus": "<p id=\"stim\">2</p>", "key_press": -1, "trial_type": "single-stim", "trial_index": 18, "time_elapsed": 148550, "internal_node_id": "0.0-10.0-8.0"}}, {"uniqueid": "MTK0718:3WI0P0II62ZMFI65FN6EVY5B519RD9", "current_trial": 19, "dateTime": 1512676252712, "trialdata": {"rt": -1, "stimulus": "<p id=\"stim\">1</p>", "key_press": -1, "trial_type": "single-stim", "trial_index": 19, "time_elapsed": 149552, "internal_node_id": "0.0-10.0-9.0"}}, {"uniqueid": "MTK0718:3WI0P0II62ZMFI65FN6EVY5B519RD9", "current_trial": 20, "dateTime": 1512676254214, "trialdata": {"rt": -1, "stimulus": "<p id=\"stim\">+</p>", "key_press": -1, "type": "FIXATION", "trial_type": "single-stim", "trial_index": 20, "time_elapsed": 151054, "internal_node_id": "0.0-11.0-0.0"}}, {"uniqueid": "MTK0718:3WI0P0II62ZMFI65FN6EVY5B519RD9", "current_trial": 21, "dateTime": 1512676256567, "trialdata": {"rt": 441.3333333333469, "stimulus": "/static/audio/wordpool/LAMP.wav", "key_press": 175, "type": "PRES_AUD", "word": "lamp", "wordID": 797, "conditions": [18, 1200, "a", 18000], "trial": 0, "serialpos": 0, "trial_type": "single-audio", "trial_index": 21, "time_elapsed": 153407, "internal_node_id": "0.0-12.0"}}, {"uniqueid": "MTK0718:3WI0P0II62ZMFI65FN6EVY5B519RD9", "current_trial": 22, "dateTime": 1512676258579, "trialdata": {"rt": 798.6666666666622, "stimulus": "/static/audio/wordpool/SNAKE.wav", "key_press": 175, "type": "PRES_AUD", "word": "snake", "wordID": 1332, "conditions": [18, 1200, "a", 18000], "trial": 0, "serialpos": 1, "trial_type": "single-audio", "trial_index": 22, "time_elapsed": 155419, "internal_node_id": "0.0-13.0"}}, {"uniqueid": "MTK0718:3WI0P0II62ZMFI65FN6EVY5B519RD9", "current_trial": 23, "dateTime": 1512676260910, "trialdata": {"rt": -1000, "stimulus": "/static/audio/wordpool/PLAYGROUND.wav", "key_press": -1, "type": "PRES_AUD", "word": "playground", "wordID": 1086, "conditions": [18, 1200, "a", 18000], "trial": 0, "serialpos": 2, "trial_type": "single-audio", "trial_index": 23, "time_elapsed": 157750, "internal_node_id": "0.0-14.0"}}, {"uniqueid": "MTK0718:3WI0P0II62ZMFI65FN6EVY5B519RD9", "current_trial": 24, "dateTime": 1512676263253, "trialdata": {"rt": -1000, "stimulus": "/static/audio/wordpool/BUCKET.wav", "key_press": -1, "type": "PRES_AUD", "word": "bucket", "wordID": 183, "conditions": [18, 1200, "a", 18000], "trial": 0, "serialpos": 3, "trial_type": "single-audio", "trial_index": 24, "time_elapsed": 160093, "internal_node_id": "0.0-15.0"}}, {"uniqueid": "MTK0718:3WI0P0II62ZMFI65FN6EVY5B519RD9", "current_trial": 25, "dateTime": 1512676265255, "trialdata": {"rt": -1000, "stimulus": "/static/audio/wordpool/CHEST.wav", "key_press": -1, "type": "PRES_AUD", "word": "chest", "wordID": 294, "conditions": [18, 1200, "a", 18000], "trial": 0, "serialpos": 4, "trial_type": "single-audio", "trial_index": 25, "time_elapsed": 162095, "internal_node_id": "0.0-16.0"}}, {"uniqueid": "MTK0718:3WI0P0II62ZMFI65FN6EVY5B519RD9", "current_trial": 26, "dateTime": 1512676267631, "trialdata": {"rt": -1000, "stimulus": "/static/audio/wordpool/DRESS.wav", "key_press": -1, "type": "PRES_AUD", "word": "dress", "wordID": 494, "conditions": [18, 1200, "a", 18000], "trial": 0, "serialpos": 5, "trial_type": "single-audio", "trial_index": 26, "time_elapsed": 164471, "internal_node_id": "0.0-17.0"}}, {"uniqueid": "MTK0718:3WI0P0II62ZMFI65FN6EVY5B519RD9", "current_trial": 27, "dateTime": 1512676269863, "trialdata": {"rt": -1000, "stimulus": "/static/audio/wordpool/WINDOW.wav", "key_press": -1, "type": "PRES_AUD", "word": "window", "wordID": 1610, "conditions": [18, 1200, "a", 18000], "trial": 0, "serialpos": 6, "trial_type": "single-audio", "trial_index": 27, "time_elapsed": 166703, "internal_node_id": "0.0-18.0"}}, {"uniqueid": "MTK0718:3WI0P0II62ZMFI65FN6EVY5B519RD9", "current_trial": 28, "dateTime": 1512676272208, "trialdata": {"rt": -1000, "stimulus": "/static/audio/wordpool/LAVA.wav", "key_press": -1, "type": "PRES_AUD", "word": "lava", "wordID": 803, "conditions": [18, 1200, "a", 18000], "trial": 0, "serialpos": 7, "trial_type": "single-audio", "trial_index": 28, "time_elapsed": 169048, "internal_node_id": "0.0-19.0"}}, {"uniqueid": "MTK0718:3WI0P0II62ZMFI65FN6EVY5B519RD9", "current_trial": 29, "dateTime": 1512676274348, "trialdata": {"rt": -1000, "stimulus": "/static/audio/wordpool/DAISY.wav", "key_press": -1, "type": "PRES_AUD", "word": "daisy", "wordID": 434, "conditions": [18, 1200, "a", 18000], "trial": 0, "serialpos": 8, "trial_type": "single-audio", "trial_index": 29, "time_elapsed": 171188, "internal_node_id": "0.0-20.0"}}, {"uniqueid": "MTK0718:3WI0P0II62ZMFI65FN6EVY5B519RD9", "current_trial": 30, "dateTime": 1512676276640, "trialdata": {"rt": -1000, "stimulus": "/static/audio/wordpool/CROWN.wav", "key_press": -1, "type": "PRES_AUD", "word": "crown", "wordID": 414, "conditions": [18, 1200, "a", 18000], "trial": 0, "serialpos": 9, "trial_type": "single-audio", "trial_index": 30, "time_elapsed": 173480, "internal_node_id": "0.0-21.0"}}, {"uniqueid": "MTK0718:3WI0P0II62ZMFI65FN6EVY5B519RD9", "current_trial": 31, "dateTime": 1512676278822, "trialdata": {"rt": -1000, "stimulus": "/static/audio/wordpool/AWARD.wav", "key_press": -1, "type": "PRES_AUD", "word": "award", "wordID": 62, "conditions": [18, 1200, "a", 18000], "trial": 0, "serialpos": 10, "trial_type": "single-audio", "trial_index": 31, "time_elapsed": 175662, "internal_node_id": "0.0-22.0"}}, {"uniqueid": "MTK0718:3WI0P0II62ZMFI65FN6EVY5B519RD9", "current_trial": 32, "dateTime": 1512676281128, "trialdata": {"rt": -1000, "stimulus": "/static/audio/wordpool/BLENDER.wav", "key_press": -1, "type": "PRES_AUD", "word": "blender", "wordID": 135, "conditions": [18, 1200, "a", 18000], "trial": 0, "serialpos": 11, "trial_type": "single-audio", "trial_index": 32, "time_elapsed": 177968, "internal_node_id": "0.0-23.0"}}, {"uniqueid": "MTK0718:3WI0P0II62ZMFI65FN6EVY5B519RD9", "current_trial": 33, "dateTime": 1512676283463, "trialdata": {"rt": -1000, "stimulus": "/static/audio/wordpool/SCALPEL.wav", "key_press": -1, "type": "PRES_AUD", "word": "scalpel", "wordID": 1242, "conditions": [18, 1200, "a", 18000], "trial": 0, "serialpos": 12, "trial_type": "single-audio", "trial_index": 33, "time_elapsed": 180303, "internal_node_id": "0.0-24.0"}}, {"uniqueid": "MTK0718:3WI0P0II62ZMFI65FN6EVY5B519RD9", "current_trial": 34, "dateTime": 1512676285560, "trialdata": {"rt": -1000, "stimulus": "/static/audio/wordpool/LIPSTICK.wav", "key_press": -1, "type": "PRES_AUD", "word": "lipstick", "wordID": 828, "conditions": [18, 1200, "a", 18000], "trial": 0, "serialpos": 13, "trial_type": "single-audio", "trial_index": 34, "time_elapsed": 182400, "internal_node_id": "0.0-25.0"}}, {"uniqueid": "MTK0718:3WI0P0II62ZMFI65FN6EVY5B519RD9", "current_trial": 35, "dateTime": 1512676287570, "trialdata": {"rt": -1000, "stimulus": "/static/audio/wordpool/CLOCK.wav", "key_press": -1, "type": "PRES_AUD", "word": "clock", "wordID": 324, "conditions": [18, 1200, "a", 18000], "trial": 0, "serialpos": 14, "trial_type": "single-audio", "trial_index": 35, "time_elapsed": 184410, "internal_node_id": "0.0-26.0"}}, {"uniqueid": "MTK0718:3WI0P0II62ZMFI65FN6EVY5B519RD9", "current_trial": 36, "dateTime": 1512676289688, "trialdata": {"rt": -1000, "stimulus": "/static/audio/wordpool/RUG.wav", "key_press": -1, "type": "PRES_AUD", "word": "rug", "wordID": 1214, "conditions": [18, 1200, "a", 18000], "trial": 0, "serialpos": 15, "trial_type": "single-audio", "trial_index": 36, "time_elapsed": 186528, "internal_node_id": "0.0-27.0"}}, {"uniqueid": "MTK0718:3WI0P0II62ZMFI65FN6EVY5B519RD9", "current_trial": 37, "dateTime": 1512676291966, "trialdata": {"rt": -1000, "stimulus": "/static/audio/wordpool/DASHBOARD.wav", "key_press": -1, "type": "PRES_AUD", "word": "dashboard", "wordID": 440, "conditions": [18, 1200, "a", 18000], "trial": 0, "serialpos": 16, "trial_type": "single-audio", "trial_index": 37, "time_elapsed": 188806, "internal_node_id": "0.0-28.0"}}, {"uniqueid": "MTK0718:3WI0P0II62ZMFI65FN6EVY5B519RD9", "current_trial": 38, "dateTime": 1512676294156, "trialdata": {"rt": -1000, "stimulus": "/static/audio/wordpool/PREACHER.wav", "key_press": -1, "type": "PRES_AUD", "word": "preacher", "wordID": 1118, "conditions": [18, 1200, "a", 18000], "trial": 0, "serialpos": 17, "trial_type": "single-audio", "trial_index": 38, "time_elapsed": 190996, "internal_node_id": "0.0-29.0"}}, {"uniqueid": "MTK0718:3WI0P0II62ZMFI65FN6EVY5B519RD9", "current_trial": 39, "dateTime": 1512676295506, "trialdata": {"rt": -1, "stimulus": "", "key_press": -1, "type": "PRE_RECALL_DELAY", "trial_type": "single-stim", "trial_index": 39, "time_elapsed": 192346, "internal_node_id": "0.0-30.0-0.0"}}, {"uniqueid": "MTK0718:3WI0P0II62ZMFI65FN6EVY5B519RD9", "current_trial": 40, "dateTime": 1512676296007, "trialdata": {"rt": -1000, "stimulus": "/static/audio/400Hz.wav", "key_press": -1, "type": "PRE_RECALL_ALERT", "trial_type": "single-audio", "trial_index": 40, "time_elapsed": 192847, "internal_node_id": "0.0-31.0"}}, {"uniqueid": "MTK0718:3WI0P0II62ZMFI65FN6EVY5B519RD9", "current_trial": 41, "dateTime": 1512676356583, "trialdata": {"rt": [1898, 2866, 4552, 6678, 10113, 10651, 10782, 10898, 11029, 11155, 11380, 11529, 11851, 11997, 12083, 12229, 14914, 15066, 15182, 15318, 15454, 15559, 19098], "recwords": ["lamp", "snake", "playground", "preacher", "", "", "", "", "", "", "", "", "", "", "", "", "", "", "", "", "", "", "bucket"], "type": "FREE_RECALL", "conditions": [18, 1200, "a", 18000], "trial": 0, "trial_type": "free-recall", "trial_index": 41, "time_elapsed": 253419, "internal_node_id": "0.0-32.0-0.0"}}, {"uniqueid": "MTK0718:3WI0P0II62ZMFI65FN6EVY5B519RD9", "current_trial": 42, "dateTime": 1512676363943, "trialdata": {"rt": 4364, "key_press": 32, "type": "INSTRUCTIONS", "trial_type": "text", "trial_index": 42, "time_elapsed": 260783, "internal_node_id": "0.0-33.0"}}, {"uniqueid": "MTK0718:3WI0P0II62ZMFI65FN6EVY5B519RD9", "current_trial": 43, "dateTime": 1512676383946, "trialdata": {"rt": [3696, 7040, 9136, 15068, 17027], "responses": ["6", "5", "12", "15", "8"], "num1": [3, 2, 2, 4, 1, 8], "num2": [2, 1, 2, 9, 5, 6], "num3": [1, 2, 8, 6, 2, 8], "type": "DISTRACTOR", "conditions": [18, 1200, "v", 18000], "trial": 1, "trial_type": "math-distractor", "trial_index": 43, "time_elapsed": 280786, "internal_node_id": "0.0-34.0"}}, {"uniqueid": "MTK0718:3WI0P0II62ZMFI65FN6EVY5B519RD9", "current_trial": 44, "dateTime": 1512676386947, "trialdata": {"rt": -1, "stimulus": "<p id=\"stim\">10</p>", "key_press": -1, "trial_type": "single-stim", "trial_index": 44, "time_elapsed": 283787, "internal_node_id": "0.0-35.0-0.0"}}, {"uniqueid": "MTK0718:3WI0P0II62ZMFI65FN6EVY5B519RD9", "current_trial": 45, "dateTime": 1512676387949, "trialdata": {"rt": -1, "stimulus": "<p id=\"stim\">9</p>", "key_press": -1, "trial_type": "single-stim", "trial_index": 45, "time_elapsed": 284789, "internal_node_id": "0.0-35.0-1.0"}}, {"uniqueid": "MTK0718:3WI0P0II62ZMFI65FN6EVY5B519RD9", "current_trial": 46, "dateTime": 1512676388950, "trialdata": {"rt": -1, "stimulus": "<p id=\"stim\">8</p>", "key_press": -1, "trial_type": "single-stim", "trial_index": 46, "time_elapsed": 285790, "internal_node_id": "0.0-35.0-2.0"}}, {"uniqueid": "MTK0718:3WI0P0II62ZMFI65FN6EVY5B519RD9", "current_trial": 47, "dateTime": 1512676389952, "trialdata": {"rt": -1, "stimulus": "<p id=\"stim\">7</p>", "key_press": -1, "trial_type": "single-stim", "trial_index": 47, "time_elapsed": 286792, "internal_node_id": "0.0-35.0-3.0"}}, {"uniqueid": "MTK0718:3WI0P0II62ZMFI65FN6EVY5B519RD9", "current_trial": 48, "dateTime": 1512676390953, "trialdata": {"rt": -1, "stimulus": "<p id=\"stim\">6</p>", "key_press": -1, "trial_type": "single-stim", "trial_index": 48, "time_elapsed": 287793, "internal_node_id": "0.0-35.0-4.0"}}, {"uniqueid": "MTK0718:3WI0P0II62ZMFI65FN6EVY5B519RD9", "current_trial": 49, "dateTime": 1512676391954, "trialdata": {"rt": -1, "stimulus": "<p id=\"stim\">5</p>", "key_press": -1, "trial_type": "single-stim", "trial_index": 49, "time_elapsed": 288794, "internal_node_id": "0.0-35.0-5.0"}}, {"uniqueid": "MTK0718:3WI0P0II62ZMFI65FN6EVY5B519RD9", "current_trial": 50, "dateTime": 1512676392956, "trialdata": {"rt": -1, "stimulus": "<p id=\"stim\">4</p>", "key_press": -1, "trial_type": "single-stim", "trial_index": 50, "time_elapsed": 289796, "internal_node_id": "0.0-35.0-6.0"}}, {"uniqueid": "MTK0718:3WI0P0II62ZMFI65FN6EVY5B519RD9", "current_trial": 51, "dateTime": 1512676393957, "trialdata": {"rt": -1, "stimulus": "<p id=\"stim\">3</p>", "key_press": -1, "trial_type": "single-stim", "trial_index": 51, "time_elapsed": 290797, "internal_node_id": "0.0-35.0-7.0"}}, {"uniqueid": "MTK0718:3WI0P0II62ZMFI65FN6EVY5B519RD9", "current_trial": 52, "dateTime": 1512676394959, "trialdata": {"rt": -1, "stimulus": "<p id=\"stim\">2</p>", "key_press": -1, "trial_type": "single-stim", "trial_index": 52, "time_elapsed": 291799, "internal_node_id": "0.0-35.0-8.0"}}, {"uniqueid": "MTK0718:3WI0P0II62ZMFI65FN6EVY5B519RD9", "current_trial": 53, "dateTime": 1512676396578, "trialdata": {"rt": -1, "stimulus": "<p id=\"stim\">1</p>", "key_press": -1, "trial_type": "single-stim", "trial_index": 53, "time_elapsed": 293418, "internal_node_id": "0.0-35.0-9.0"}}, {"uniqueid": "MTK0718:3WI0P0II62ZMFI65FN6EVY5B519RD9", "current_trial": 54, "dateTime": 1512676398578, "trialdata": {"rt": -1, "stimulus": "<p id=\"stim\">+</p>", "key_press": -1, "type": "FIXATION", "trial_type": "single-stim", "trial_index": 54, "time_elapsed": 295418, "internal_node_id": "0.0-36.0-0.0"}}, {"uniqueid": "MTK0718:3WI0P0II62ZMFI65FN6EVY5B519RD9", "current_trial": 55, "dateTime": 1512676400578, "trialdata": {"rt": -1, "stimulus": "<p id=\"stim\">GARBAGE</p>", "key_press": -1, "type": "PRES_VIS", "word": "garbage", "wordID": 621, "conditions": [18, 1200, "v", 18000], "trial": 1, "serialpos": 0, "trial_type": "single-stim", "trial_index": 55, "time_elapsed": 297418, "internal_node_id": "0.0-37.0"}}, {"uniqueid": "MTK0718:3WI0P0II62ZMFI65FN6EVY5B519RD9", "current_trial": 56, "dateTime": 1512676402779, "trialdata": {"rt": -1, "stimulus": "<p id=\"stim\">NAPKIN</p>", "key_press": -1, "type": "PRES_VIS", "word": "napkin", "wordID": 936, "conditions": [18, 1200, "v", 18000], "trial": 1, "serialpos": 1, "trial_type": "single-stim", "trial_index": 56, "time_elapsed": 299619, "internal_node_id": "0.0-38.0"}}, {"uniqueid": "MTK0718:3WI0P0II62ZMFI65FN6EVY5B519RD9", "current_trial": 57, "dateTime": 1512676405161, "trialdata": {"rt": -1, "stimulus": "<p id=\"stim\">SEAGULL</p>", "key_press": -1, "type": "PRES_VIS", "word": "seagull", "wordID": 1260, "conditions": [18, 1200, "v", 18000], "trial": 1, "serialpos": 2, "trial_type": "single-stim", "trial_index": 57, "time_elapsed": 302001, "internal_node_id": "0.0-39.0"}}, {"uniqueid": "MTK0718:3WI0P0II62ZMFI65FN6EVY5B519RD9", "current_trial": 58, "dateTime": 1512676407557, "trialdata": {"rt": -1, "stimulus": "<p id=\"stim\">LAKE</p>", "key_press": -1, "type": "PRES_VIS", "word": "lake", "wordID": 795, "conditions": [18, 1200, "v", 18000], "trial": 1, "serialpos": 3, "trial_type": "single-stim", "trial_index": 58, "time_elapsed": 304397, "internal_node_id": "0.0-40.0"}}, {"uniqueid": "MTK0718:3WI0P0II62ZMFI65FN6EVY5B519RD9", "current_trial": 59, "dateTime": 1512676409830, "trialdata": {"rt": -1, "stimulus": "<p id=\"stim\">PISTOL</p>", "key_press": -1, "type": "PRES_VIS", "word": "pistol", "wordID": 1074, "conditions": [18, 1200, "v", 18000], "trial": 1, "serialpos": 4, "trial_type": "single-stim", "trial_index": 59, "time_elapsed": 306670, "internal_node_id": "0.0-41.0"}}, {"uniqueid": "MTK0718:3WI0P0II62ZMFI65FN6EVY5B519RD9", "current_trial": 60, "dateTime": 1512676411880, "trialdata": {"rt": -1, "stimulus": "<p id=\"stim\">FLASK</p>", "key_press": -1, "type": "PRES_VIS", "word": "flask", "wordID": 575, "conditions": [18, 1200, "v", 18000], "trial": 1, "serialpos": 5, "trial_type": "single-stim", "trial_index": 60, "time_elapsed": 308720, "internal_node_id": "0.0-42.0"}}, {"uniqueid": "MTK0718:3WI0P0II62ZMFI65FN6EVY5B519RD9", "current_trial": 61, "dateTime": 1512676414151, "trialdata": {"rt": -1, "stimulus": "<p id=\"stim\">RAFT</p>", "key_press": -1, "type": "PRES_VIS", "word": "raft", "wordID": 1158, "conditions": [18, 1200, "v", 18000], "trial": 1, "serialpos": 6, "trial_type": "single-stim", "trial_index": 61, "time_elapsed": 310991, "internal_node_id": "0.0-43.0"}}, {"uniqueid": "MTK0718:3WI0P0II62ZMFI65FN6EVY5B519RD9", "current_trial": 62, "dateTime": 1512676416438, "trialdata": {"rt": -1, "stimulus": "<p id=\"stim\">OYSTER</p>", "key_press": -1, "type": "PRES_VIS", "word": "oyster", "wordID": 994, "conditions": [18, 1200, "v", 18000], "trial": 1, "serialpos": 7, "trial_type": "single-stim", "trial_index": 62, "time_elapsed": 313278, "internal_node_id": "0.0-44.0"}}, {"uniqueid": "MTK0718:3WI0P0II62ZMFI65FN6EVY5B519RD9", "current_trial": 63, "dateTime": 1512676418801, "trialdata": {"rt": -1, "stimulus": "<p id=\"stim\">STAMP</p>", "key_press": -1, "type": "PRES_VIS", "word": "stamp", "wordID": 1369, "conditions": [18, 1200, "v", 18000], "trial": 1, "serialpos": 8, "trial_type": "single-stim", "trial_index": 63, "time_elapsed": 315641, "internal_node_id": "0.0-45.0"}}, {"uniqueid": "MTK0718:3WI0P0II62ZMFI65FN6EVY5B519RD9", "current_trial": 64, "dateTime": 1512676420925, "trialdata": {"rt": -1, "stimulus": "<p id=\"stim\">TERMITE</p>", "key_press": -1, "type": "PRES_VIS", "word": "termite", "wordID": 1450, "conditions": [18, 1200, "v", 18000], "trial": 1, "serialpos": 9, "trial_type": "single-stim", "trial_index": 64, "time_elapsed": 317765, "internal_node_id": "0.0-46.0"}}, {"uniqueid": "MTK0718:3WI0P0II62ZMFI65FN6EVY5B519RD9", "current_trial": 65, "dateTime": 1512676423160, "trialdata": {"rt": -1, "stimulus": "<p id=\"stim\">PLIERS</p>", "key_press": -1, "type": "PRES_VIS", "word": "pliers", "wordID": 1088, "conditions": [18, 1200, "v", 18000], "trial": 1, "serialpos": 10, "trial_type": "single-stim", "trial_index": 65, "time_elapsed": 320000, "internal_node_id": "0.0-47.0"}}, {"uniqueid": "MTK0718:3WI0P0II62ZMFI65FN6EVY5B519RD9", "current_trial": 66, "dateTime": 1512676425368, "trialdata": {"rt": -1, "stimulus": "<p id=\"stim\">BUG</p>", "key_press": -1, "type": "PRES_VIS", "word": "bug", "wordID": 186, "conditions": [18, 1200, "v", 18000], "trial": 1, "serialpos": 11, "trial_type": "single-stim", "trial_index": 66, "time_elapsed": 322208, "internal_node_id": "0.0-48.0"}}, {"uniqueid": "MTK0718:3WI0P0II62ZMFI65FN6EVY5B519RD9", "current_trial": 67, "dateTime": 1512676427547, "trialdata": {"rt": -1, "stimulus": "<p id=\"stim\">SCOTCH</p>", "key_press": -1, "type": "PRES_VIS", "word": "scotch", "wordID": 1250, "conditions": [18, 1200, "v", 18000], "trial": 1, "serialpos": 12, "trial_type": "single-stim", "trial_index": 67, "time_elapsed": 324387, "internal_node_id": "0.0-49.0"}}, {"uniqueid": "MTK0718:3WI0P0II62ZMFI65FN6EVY5B519RD9", "current_trial": 68, "dateTime": 1512676429589, "trialdata": {"rt": -1, "stimulus": "<p id=\"stim\">CANYON</p>", "key_press": -1, "type": "PRES_VIS", "word": "canyon", "wordID": 234, "conditions": [18, 1200, "v", 18000], "trial": 1, "serialpos": 13, "trial_type": "single-stim", "trial_index": 68, "time_elapsed": 326424, "internal_node_id": "0.0-50.0"}}, {"uniqueid": "MTK0718:3WI0P0II62ZMFI65FN6EVY5B519RD9", "current_trial": 69, "dateTime": 1512676431800, "trialdata": {"rt": -1, "stimulus": "<p id=\"stim\">UNCLE</p>", "key_press": -1, "type": "PRES_VIS", "word": "uncle", "wordID": 1535, "conditions": [18, 1200, "v", 18000], "trial": 1, "serialpos": 14, "trial_type": "single-stim", "trial_index": 69, "time_elapsed": 328640, "internal_node_id": "0.0-51.0"}}, {"uniqueid": "MTK0718:3WI0P0II62ZMFI65FN6EVY5B519RD9", "current_trial": 70, "dateTime": 1512676434140, "trialdata": {"rt": -1, "stimulus": "<p id=\"stim\">MUMMY</p>", "key_press": -1, "type": "PRES_VIS", "word": "mummy", "wordID": 931, "conditions": [18, 1200, "v", 18000], "trial": 1, "serialpos": 15, "trial_type": "single-stim", "trial_index": 70, "time_elapsed": 330980, "internal_node_id": "0.0-52.0"}}, {"uniqueid": "MTK0718:3WI0P0II62ZMFI65FN6EVY5B519RD9", "current_trial": 71, "dateTime": 1512676436341, "trialdata": {"rt": -1, "stimulus": "<p id=\"stim\">LEG</p>", "key_press": -1, "type": "PRES_VIS", "word": "leg", "wordID": 808, "conditions": [18, 1200, "v", 18000], "trial": 1, "serialpos": 16, "trial_type": "single-stim", "trial_index": 71, "time_elapsed": 333181, "internal_node_id": "0.0-53.0"}}, {"uniqueid": "MTK0718:3WI0P0II62ZMFI65FN6EVY5B519RD9", "current_trial": 72, "dateTime": 1512676438549, "trialdata": {"rt": -1, "stimulus": "<p id=\"stim\">PASTRY</p>", "key_press": -1, "type": "PRES_VIS", "word": "pastry", "wordID": 1021, "conditions": [18, 1200, "v", 18000], "trial": 1, "serialpos": 17, "trial_type": "single-stim", "trial_index": 72, "time_elapsed": 335389, "internal_node_id": "0.0-54.0"}}, {"uniqueid": "MTK0718:3WI0P0II62ZMFI65FN6EVY5B519RD9", "current_trial": 73, "dateTime": 1512676440957, "trialdata": {"rt": -1, "stimulus": "", "key_press": -1, "type": "PRE_RECALL_DELAY", "trial_type": "single-stim", "trial_index": 73, "time_elapsed": 337797, "internal_node_id": "0.0-55.0-0.0"}}, {"uniqueid": "MTK0718:3WI0P0II62ZMFI65FN6EVY5B519RD9", "current_trial": 74, "dateTime": 1512676441464, "trialdata": {"rt": -1000, "stimulus": "/static/audio/400Hz.wav", "key_press": -1, "type": "PRE_RECALL_ALERT", "trial_type": "single-audio", "trial_index": 74, "time_elapsed": 338304, "internal_node_id": "0.0-56.0"}}, {"uniqueid": "MTK0718:3WI0P0II62ZMFI65FN6EVY5B519RD9", "current_trial": 75, "dateTime": 1512676501588, "trialdata": {"rt": [3778, 5850, 8534, 9613, 12236, 14222, 17700, 19025, 19945], "recwords": ["napkin", "seagull", "lake", "flask", "oyster", "bug", "stamp", "termite", "pliers"], "type": "FREE_RECALL", "conditions": [18, 1200, "v", 18000], "trial": 1, "trial_type": "free-recall", "trial_index": 75, "time_elapsed": 398419, "internal_node_id": "0.0-57.0-0.0"}}, {"uniqueid": "MTK0718:3WI0P0II62ZMFI65FN6EVY5B519RD9", "current_trial": 76, "dateTime": 1512676513516, "trialdata": {"rt": 8930, "key_press": 32, "type": "INSTRUCTIONS", "trial_type": "text", "trial_index": 76, "time_elapsed": 410349, "internal_node_id": "0.0-58.0"}}, {"uniqueid": "MTK0718:3WI0P0II62ZMFI65FN6EVY5B519RD9", "current_trial": 77, "dateTime": 1512676526520, "trialdata": {"rt": [2755, 9989], "responses": ["8", "13"], "num1": [5, 3, 1], "num2": [1, 9, 7], "num3": [2, 1, 9], "type": "DISTRACTOR", "conditions": [24, 1600, "a", 12000], "trial": 2, "trial_type": "math-distractor", "trial_index": 77, "time_elapsed": 423359, "internal_node_id": "0.0-59.0"}}, {"uniqueid": "MTK0718:3WI0P0II62ZMFI65FN6EVY5B519RD9", "current_trial": 78, "dateTime": 1512676529521, "trialdata": {"rt": -1, "stimulus": "<p id=\"stim\">10</p>", "key_press": -1, "trial_type": "single-stim", "trial_index": 78, "time_elapsed": 426361, "internal_node_id": "0.0-60.0-0.0"}}, {"uniqueid": "MTK0718:3WI0P0II62ZMFI65FN6EVY5B519RD9", "current_trial": 79, "dateTime": 1512676530523, "trialdata": {"rt": -1, "stimulus": "<p id=\"stim\">9</p>", "key_press": -1, "trial_type": "single-stim", "trial_index": 79, "time_elapsed": 427363, "internal_node_id": "0.0-60.0-1.0"}}, {"uniqueid": "MTK0718:3WI0P0II62ZMFI65FN6EVY5B519RD9", "current_trial": 80, "dateTime": 1512676531525, "trialdata": {"rt": -1, "stimulus": "<p id=\"stim\">8</p>", "key_press": -1, "trial_type": "single-stim", "trial_index": 80, "time_elapsed": 428365, "internal_node_id": "0.0-60.0-2.0"}}, {"uniqueid": "MTK0718:3WI0P0II62ZMFI65FN6EVY5B519RD9", "current_trial": 81, "dateTime": 1512676532526, "trialdata": {"rt": -1, "stimulus": "<p id=\"stim\">7</p>", "key_press": -1, "trial_type": "single-stim", "trial_index": 81, "time_elapsed": 429366, "internal_node_id": "0.0-60.0-3.0"}}, {"uniqueid": "MTK0718:3WI0P0II62ZMFI65FN6EVY5B519RD9", "current_trial": 82, "dateTime": 1512676533528, "trialdata": {"rt": -1, "stimulus": "<p id=\"stim\">6</p>", "key_press": -1, "trial_type": "single-stim", "trial_index": 82, "time_elapsed": 430368, "internal_node_id": "0.0-60.0-4.0"}}, {"uniqueid": "MTK0718:3WI0P0II62ZMFI65FN6EVY5B519RD9", "current_trial": 83, "dateTime": 1512676534529, "trialdata": {"rt": -1, "stimulus": "<p id=\"stim\">5</p>", "key_press": -1, "trial_type": "single-stim", "trial_index": 83, "time_elapsed": 431369, "internal_node_id": "0.0-60.0-5.0"}}, {"uniqueid": "MTK0718:3WI0P0II62ZMFI65FN6EVY5B519RD9", "current_trial": 84, "dateTime": 1512676535531, "trialdata": {"rt": -1, "stimulus": "<p id=\"stim\">4</p>", "key_press": -1, "trial_type": "single-stim", "trial_index": 84, "time_elapsed": 432371, "internal_node_id": "0.0-60.0-6.0"}}, {"uniqueid": "MTK0718:3WI0P0II62ZMFI65FN6EVY5B519RD9", "current_trial": 85, "dateTime": 1512676536531, "trialdata": {"rt": -1, "stimulus": "<p id=\"stim\">3</p>", "key_press": -1, "trial_type": "single-stim", "trial_index": 85, "time_elapsed": 433371, "internal_node_id": "0.0-60.0-7.0"}}, {"uniqueid": "MTK0718:3WI0P0II62ZMFI65FN6EVY5B519RD9", "current_trial": 86, "dateTime": 1512676537532, "trialdata": {"rt": -1, "stimulus": "<p id=\"stim\">2</p>", "key_press": -1, "trial_type": "single-stim", "trial_index": 86, "time_elapsed": 434372, "internal_node_id": "0.0-60.0-8.0"}}, {"uniqueid": "MTK0718:3WI0P0II62ZMFI65FN6EVY5B519RD9", "current_trial": 87, "dateTime": 1512676538534, "trialdata": {"rt": -1, "stimulus": "<p id=\"stim\">1</p>", "key_press": -1, "trial_type": "single-stim", "trial_index": 87, "time_elapsed": 435374, "internal_node_id": "0.0-60.0-9.0"}}, {"uniqueid": "MTK0718:3WI0P0II62ZMFI65FN6EVY5B519RD9", "current_trial": 88, "dateTime": 1512676540035, "trialdata": {"rt": -1, "stimulus": "<p id=\"stim\">+</p>", "key_press": -1, "type": "FIXATION", "trial_type": "single-stim", "trial_index": 88, "time_elapsed": 436875, "internal_node_id": "0.0-61.0-0.0"}}, {"uniqueid": "MTK0718:3WI0P0II62ZMFI65FN6EVY5B519RD9", "current_trial": 89, "dateTime": 1512676542570, "trialdata": {"rt": -1000, "stimulus": "/static/audio/wordpool/PORK.wav", "key_press": -1, "type": "PRES_AUD", "word": "pork", "wordID": 1107, "conditions": [24, 1600, "a", 12000], "trial": 2, "serialpos": 0, "trial_type": "single-audio", "trial_index": 89, "time_elapsed": 439410, "internal_node_id": "0.0-62.0"}}, {"uniqueid": "MTK0718:3WI0P0II62ZMFI65FN6EVY5B519RD9", "current_trial": 90, "dateTime": 1512676545348, "trialdata": {"rt": -1000, "stimulus": "/static/audio/wordpool/WIDOW.wav", "key_press": -1, "type": "PRES_AUD", "word": "widow", "wordID": 1607, "conditions": [24, 1600, "a", 12000], "trial": 2, "serialpos": 1, "trial_type": "single-audio", "trial_index": 90, "time_elapsed": 442188, "internal_node_id": "0.0-63.0"}}, {"uniqueid": "MTK0718:3WI0P0II62ZMFI65FN6EVY5B519RD9", "current_trial": 91, "dateTime": 1512676548142, "trialdata": {"rt": -1000, "stimulus": "/static/audio/wordpool/CRIB.wav", "key_press": -1, "type": "PRES_AUD", "word": "crib", "wordID": 406, "conditions": [24, 1600, "a", 12000], "trial": 2, "serialpos": 2, "trial_type": "single-audio", "trial_index": 91, "time_elapsed": 444982, "internal_node_id": "0.0-64.0"}}, {"uniqueid": "MTK0718:3WI0P0II62ZMFI65FN6EVY5B519RD9", "current_trial": 92, "dateTime": 1512676550937, "trialdata": {"rt": -1000, "stimulus": "/static/audio/wordpool/INFANT.wav", "key_press": -1, "type": "PRES_AUD", "word": "infant", "wordID": 736, "conditions": [24, 1600, "a", 12000], "trial": 2, "serialpos": 3, "trial_type": "single-audio", "trial_index": 92, "time_elapsed": 447777, "internal_node_id": "0.0-65.0"}}, {"uniqueid": "MTK0718:3WI0P0II62ZMFI65FN6EVY5B519RD9", "current_trial": 93, "dateTime": 1512676553389, "trialdata": {"rt": -1000, "stimulus": "/static/audio/wordpool/BRICK.wav", "key_press": -1, "type": "PRES_AUD", "word": "brick", "wordID": 171, "conditions": [24, 1600, "a", 12000], "trial": 2, "serialpos": 4, "trial_type": "single-audio", "trial_index": 93, "time_elapsed": 450229, "internal_node_id": "0.0-66.0"}}, {"uniqueid": "MTK0718:3WI0P0II62ZMFI65FN6EVY5B519RD9", "current_trial": 94, "dateTime": 1512676556053, "trialdata": {"rt": -1000, "stimulus": "/static/audio/wordpool/ARMY.wav", "key_press": -1, "type": "PRES_AUD", "word": "army", "wordID": 38, "conditions": [24, 1600, "a", 12000], "trial": 2, "serialpos": 5, "trial_type": "single-audio", "trial_index": 94, "time_elapsed": 452893, "internal_node_id": "0.0-67.0"}}, {"uniqueid": "MTK0718:3WI0P0II62ZMFI65FN6EVY5B519RD9", "current_trial": 95, "dateTime": 1512676558617, "trialdata": {"rt": -1000, "stimulus": "/static/audio/wordpool/FLESH.wav", "key_press": -1, "type": "PRES_AUD", "word": "flesh", "wordID": 578, "conditions": [24, 1600, "a", 12000], "trial": 2, "serialpos": 6, "trial_type": "single-audio", "trial_index": 95, "time_elapsed": 455457, "internal_node_id": "0.0-68.0"}}, {"uniqueid": "MTK0718:3WI0P0II62ZMFI65FN6EVY5B519RD9", "current_trial": 96, "dateTime": 1512676561264, "trialdata": {"rt": -1000, "stimulus": "/static/audio/wordpool/BACON.wav", "key_press": -1, "type": "PRES_AUD", "word": "bacon", "wordID": 66, "conditions": [24, 1600, "a", 12000], "trial": 2, "serialpos": 7, "trial_type": "single-audio", "trial_index": 96, "time_elapsed": 458104, "internal_node_id": "0.0-69.0"}}, {"uniqueid": "MTK0718:3WI0P0II62ZMFI65FN6EVY5B519RD9", "current_trial": 97, "dateTime": 1512676563912, "trialdata": {"rt": -1000, "stimulus": "/static/audio/wordpool/SPACE.wav", "key_press": -1, "type": "PRES_AUD", "word": "space", "wordID": 1344, "conditions": [24, 1600, "a", 12000], "trial": 2, "serialpos": 8, "trial_type": "single-audio", "trial_index": 97, "time_elapsed": 460752, "internal_node_id": "0.0-70.0"}}, {"uniqueid": "MTK0718:3WI0P0II62ZMFI65FN6EVY5B519RD9", "current_trial": 98, "dateTime": 1512676566319, "trialdata": {"rt": -1000, "stimulus": "/static/audio/wordpool/STOVE.wav", "key_press": -1, "type": "PRES_AUD", "word": "stove", "wordID": 1387, "conditions": [24, 1600, "a", 12000], "trial": 2, "serialpos": 9, "trial_type": "single-audio", "trial_index": 98, "time_elapsed": 463159, "internal_node_id": "0.0-71.0"}}, {"uniqueid": "MTK0718:3WI0P0II62ZMFI65FN6EVY5B519RD9", "current_trial": 99, "dateTime": 1512676568844, "trialdata": {"rt": -1000, "stimulus": "/static/audio/wordpool/FLIPPER.wav", "key_press": -1, "type": "PRES_AUD", "word": "flipper", "wordID": 579, "conditions": [24, 1600, "a", 12000], "trial": 2, "serialpos": 10, "trial_type": "single-audio", "trial_index": 99, "time_elapsed": 465684, "internal_node_id": "0.0-72.0"}}, {"uniqueid": "MTK0718:3WI0P0II62ZMFI65FN6EVY5B519RD9", "current_trial": 100, "dateTime": 1512676571562, "trialdata": {"rt": -1000, "stimulus": "/static/audio/wordpool/BEEF.wav", "key_press": -1, "type": "PRES_AUD", "word": "beef", "wordID": 112, "conditions": [24, 1600, "a", 12000], "trial": 2, "serialpos": 11, "trial_type": "single-audio", "trial_index": 100, "time_elapsed": 468402, "internal_node_id": "0.0-73.0"}}, {"uniqueid": "MTK0718:3WI0P0II62ZMFI65FN6EVY5B519RD9", "current_trial": 101, "dateTime": 1512676574319, "trialdata": {"rt": -1000, "stimulus": "/static/audio/wordpool/ROBIN.wav", "key_press": -1, "type": "PRES_AUD", "word": "robin", "wordID": 1198, "conditions": [24, 1600, "a", 12000], "trial": 2, "serialpos": 12, "trial_type": "single-audio", "trial_index": 101, "time_elapsed": 471159, "internal_node_id": "0.0-74.0"}}, {"uniqueid": "MTK0718:3WI0P0II62ZMFI65FN6EVY5B519RD9", "current_trial": 102, "dateTime": 1512676576965, "trialdata": {"rt": -1000, "stimulus": "/static/audio/wordpool/WASP.wav", "key_press": -1, "type": "PRES_AUD", "word": "wasp", "wordID": 1592, "conditions": [24, 1600, "a", 12000], "trial": 2, "serialpos": 13, "trial_type": "single-audio", "trial_index": 102, "time_elapsed": 473805, "internal_node_id": "0.0-75.0"}}, {"uniqueid": "MTK0718:3WI0P0II62ZMFI65FN6EVY5B519RD9", "current_trial": 103, "dateTime": 1512676579678, "trialdata": {"rt": -1000, "stimulus": "/static/audio/wordpool/MILDEW.wav", "key_press": -1, "type": "PRES_AUD", "word": "mildew", "wordID": 892, "conditions": [24, 1600, "a", 12000], "trial": 2, "serialpos": 14, "trial_type": "single-audio", "trial_index": 103, "time_elapsed": 476518, "internal_node_id": "0.0-76.0"}}, {"uniqueid": "MTK0718:3WI0P0II62ZMFI65FN6EVY5B519RD9", "current_trial": 104, "dateTime": 1512676582192, "trialdata": {"rt": -1000, "stimulus": "/static/audio/wordpool/SWORD.wav", "key_press": -1, "type": "PRES_AUD", "word": "sword", "wordID": 1422, "conditions": [24, 1600, "a", 12000], "trial": 2, "serialpos": 15, "trial_type": "single-audio", "trial_index": 104, "time_elapsed": 479032, "internal_node_id": "0.0-77.0"}}, {"uniqueid": "MTK0718:3WI0P0II62ZMFI65FN6EVY5B519RD9", "current_trial": 105, "dateTime": 1512676584874, "trialdata": {"rt": -1000, "stimulus": "/static/audio/wordpool/HARP.wav", "key_press": -1, "type": "PRES_AUD", "word": "harp", "wordID": 688, "conditions": [24, 1600, "a", 12000], "trial": 2, "serialpos": 16, "trial_type": "single-audio", "trial_index": 105, "time_elapsed": 481714, "internal_node_id": "0.0-78.0"}}, {"uniqueid": "MTK0718:3WI0P0II62ZMFI65FN6EVY5B519RD9", "current_trial": 106, "dateTime": 1512676587651, "trialdata": {"rt": -1000, "stimulus": "/static/audio/wordpool/PUDDING.wav", "key_press": -1, "type": "PRES_AUD", "word": "pudding", "wordID": 1138, "conditions": [24, 1600, "a", 12000], "trial": 2, "serialpos": 17, "trial_type": "single-audio", "trial_index": 106, "time_elapsed": 484491, "internal_node_id": "0.0-79.0"}}, {"uniqueid": "MTK0718:3WI0P0II62ZMFI65FN6EVY5B519RD9", "current_trial": 107, "dateTime": 1512676590258, "trialdata": {"rt": -1000, "stimulus": "/static/audio/wordpool/NIGHTGOWN.wav", "key_press": -1, "type": "PRES_AUD", "word": "nightgown", "wordID": 952, "conditions": [24, 1600, "a", 12000], "trial": 2, "serialpos": 18, "trial_type": "single-audio", "trial_index": 107, "time_elapsed": 487098, "internal_node_id": "0.0-80.0"}}, {"uniqueid": "MTK0718:3WI0P0II62ZMFI65FN6EVY5B519RD9", "current_trial": 108, "dateTime": 1512676592707, "trialdata": {"rt": -1000, "stimulus": "/static/audio/wordpool/ROCKET.wav", "key_press": -1, "type": "PRES_AUD", "word": "rocket", "wordID": 1201, "conditions": [24, 1600, "a", 12000], "trial": 2, "serialpos": 19, "trial_type": "single-audio", "trial_index": 108, "time_elapsed": 489546, "internal_node_id": "0.0-81.0"}}, {"uniqueid": "MTK0718:3WI0P0II62ZMFI65FN6EVY5B519RD9", "current_trial": 109, "dateTime": 1512676595449, "trialdata": {"rt": -1000, "stimulus": "/static/audio/wordpool/CANDY.wav", "key_press": -1, "type": "PRES_AUD", "word": "candy", "wordID": 229, "conditions": [24, 1600, "a", 12000], "trial": 2, "serialpos": 20, "trial_type": "single-audio", "trial_index": 109, "time_elapsed": 492289, "internal_node_id": "0.0-82.0"}}, {"uniqueid": "MTK0718:3WI0P0II62ZMFI65FN6EVY5B519RD9", "current_trial": 110, "dateTime": 1512676597946, "trialdata": {"rt": -1000, "stimulus": "/static/audio/wordpool/TURKEY.wav", "key_press": -1, "type": "PRES_AUD", "word": "turkey", "wordID": 1519, "conditions": [24, 1600, "a", 12000], "trial": 2, "serialpos": 21, "trial_type": "single-audio", "trial_index": 110, "time_elapsed": 494786, "internal_node_id": "0.0-83.0"}}, {"uniqueid": "MTK0718:3WI0P0II62ZMFI65FN6EVY5B519RD9", "current_trial": 111, "dateTime": 1512676600646, "trialdata": {"rt": -1000, "stimulus": "/static/audio/wordpool/TUTU.wav", "key_press": -1, "type": "PRES_AUD", "word": "tutu", "wordID": 1523, "conditions": [24, 1600, "a", 12000], "trial": 2, "serialpos": 22, "trial_type": "single-audio", "trial_index": 111, "time_elapsed": 497486, "internal_node_id": "0.0-84.0"}}, {"uniqueid": "MTK0718:3WI0P0II62ZMFI65FN6EVY5B519RD9", "current_trial": 112, "dateTime": 1512676603400, "trialdata": {"rt": -1000, "stimulus": "/static/audio/wordpool/CANAL.wav", "key_press": -1, "type": "PRES_AUD", "word": "canal", "wordID": 225, "conditions": [24, 1600, "a", 12000], "trial": 2, "serialpos": 23, "trial_type": "single-audio", "trial_index": 112, "time_elapsed": 500240, "internal_node_id": "0.0-85.0"}}, {"uniqueid": "MTK0718:3WI0P0II62ZMFI65FN6EVY5B519RD9", "current_trial": 113, "dateTime": 1512676604637, "trialdata": {"rt": -1, "stimulus": "", "key_press": -1, "type": "PRE_RECALL_DELAY", "trial_type": "single-stim", "trial_index": 113, "time_elapsed": 501477, "internal_node_id": "0.0-86.0-0.0"}}, {"uniqueid": "MTK0718:3WI0P0II62ZMFI65FN6EVY5B519RD9", "current_trial": 114, "dateTime": 1512676605138, "trialdata": {"rt": -1000, "stimulus": "/static/audio/400Hz.wav", "key_press": -1, "type": "PRE_RECALL_ALERT", "trial_type": "single-audio", "trial_index": 114, "time_elapsed": 501978, "internal_node_id": "0.0-87.0"}}, {"uniqueid": "MTK0718:3WI0P0II62ZMFI65FN6EVY5B519RD9", "current_trial": 115, "dateTime": 1512676665149, "trialdata": {"rt": [39410, 42588, 43383, 44453, 47766, 48421, 51713, 52497, 53379], "recwords": ["pork", "widow", "crib", "infant", "brick", "army", "flesh", "bacon", "space"], "type": "FREE_RECALL", "conditions": [24, 1600, "a", 12000], "trial": 2, "trial_type": "free-recall", "trial_index": 115, "time_elapsed": 561981, "internal_node_id": "0.0-88.0-0.0"}}, {"uniqueid": "MTK0718:3WI0P0II62ZMFI65FN6EVY5B519RD9", "current_trial": 116, "dateTime": 1512679382974, "trialdata": {"rt": 2715823, "key_press": 32, "type": "INSTRUCTIONS", "trial_type": "text", "trial_index": 116, "time_elapsed": 3279813, "internal_node_id": "0.0-89.0"}}, {"uniqueid": "MTK0718:3WI0P0II62ZMFI65FN6EVY5B519RD9", "current_trial": 117, "dateTime": 1512679408978, "trialdata": {"rt": [5554, 12298, 13960, 17942], "responses": ["17", "20", "11", "16"], "num1": [5, 5, 3, 6, 8], "num2": [7, 8, 1, 4, 5], "num3": [9, 7, 7, 6, 6], "type": "DISTRACTOR", "conditions": [12, 1600, "v", 24000], "trial": 3, "trial_type": "math-distractor", "trial_index": 117, "time_elapsed": 3305818, "internal_node_id": "0.0-90.0"}}, {"uniqueid": "MTK0718:3WI0P0II62ZMFI65FN6EVY5B519RD9", "current_trial": 118, "dateTime": 1512679411979, "trialdata": {"rt": -1, "stimulus": "<p id=\"stim\">10</p>", "key_press": -1, "trial_type": "single-stim", "trial_index": 118, "time_elapsed": 3308819, "internal_node_id": "0.0-91.0-0.0"}}, {"uniqueid": "MTK0718:3WI0P0II62ZMFI65FN6EVY5B519RD9", "current_trial": 119, "dateTime": 1512679412981, "trialdata": {"rt": -1, "stimulus": "<p id=\"stim\">9</p>", "key_press": -1, "trial_type": "single-stim", "trial_index": 119, "time_elapsed": 3309821, "internal_node_id": "0.0-91.0-1.0"}}, {"uniqueid": "MTK0718:3WI0P0II62ZMFI65FN6EVY5B519RD9", "current_trial": 120, "dateTime": 1512679413983, "trialdata": {"rt": -1, "stimulus": "<p id=\"stim\">8</p>", "key_press": -1, "trial_type": "single-stim", "trial_index": 120, "time_elapsed": 3310823, "internal_node_id": "0.0-91.0-2.0"}}, {"uniqueid": "MTK0718:3WI0P0II62ZMFI65FN6EVY5B519RD9", "current_trial": 121, "dateTime": 1512679414984, "trialdata": {"rt": -1, "stimulus": "<p id=\"stim\">7</p>", "key_press": -1, "trial_type": "single-stim", "trial_index": 121, "time_elapsed": 3311824, "internal_node_id": "0.0-91.0-3.0"}}, {"uniqueid": "MTK0718:3WI0P0II62ZMFI65FN6EVY5B519RD9", "current_trial": 122, "dateTime": 1512679415984, "trialdata": {"rt": -1, "stimulus": "<p id=\"stim\">6</p>", "key_press": -1, "trial_type": "single-stim", "trial_index": 122, "time_elapsed": 3312824, "internal_node_id": "0.0-91.0-4.0"}}, {"uniqueid": "MTK0718:3WI0P0II62ZMFI65FN6EVY5B519RD9", "current_trial": 123, "dateTime": 1512679416985, "trialdata": {"rt": -1, "stimulus": "<p id=\"stim\">5</p>", "key_press": -1, "trial_type": "single-stim", "trial_index": 123, "time_elapsed": 3313825, "internal_node_id": "0.0-91.0-5.0"}}, {"uniqueid": "MTK0718:3WI0P0II62ZMFI65FN6EVY5B519RD9", "current_trial": 124, "dateTime": 1512679417986, "trialdata": {"rt": -1, "stimulus": "<p id=\"stim\">4</p>", "key_press": -1, "trial_type": "single-stim", "trial_index": 124, "time_elapsed": 3314826, "internal_node_id": "0.0-91.0-6.0"}}, {"uniqueid": "MTK0718:3WI0P0II62ZMFI65FN6EVY5B519RD9", "current_trial": 125, "dateTime": 1512679418986, "trialdata": {"rt": -1, "stimulus": "<p id=\"stim\">3</p>", "key_press": -1, "trial_type": "single-stim", "trial_index": 125, "time_elapsed": 3315826, "internal_node_id": "0.0-91.0-7.0"}}, {"uniqueid": "MTK0718:3WI0P0II62ZMFI65FN6EVY5B519RD9", "current_trial": 126, "dateTime": 1512679419988, "trialdata": {"rt": -1, "stimulus": "<p id=\"stim\">2</p>", "key_press": -1, "trial_type": "single-stim", "trial_index": 126, "time_elapsed": 3316828, "internal_node_id": "0.0-91.0-8.0"}}, {"uniqueid": "MTK0718:3WI0P0II62ZMFI65FN6EVY5B519RD9", "current_trial": 127, "dateTime": 1512679420989, "trialdata": {"rt": -1, "stimulus": "<p id=\"stim\">1</p>", "key_press": -1, "trial_type": "single-stim", "trial_index": 127, "time_elapsed": 3317829, "internal_node_id": "0.0-91.0-9.0"}}, {"uniqueid": "MTK0718:3WI0P0II62ZMFI65FN6EVY5B519RD9", "current_trial": 128, "dateTime": 1512679422490, "trialdata": {"rt": -1, "stimulus": "<p id=\"stim\">+</p>", "key_press": -1, "type": "FIXATION", "trial_type": "single-stim", "trial_index": 128, "time_elapsed": 3319330, "internal_node_id": "0.0-92.0-0.0"}}, {"uniqueid": "MTK0718:3WI0P0II62ZMFI65FN6EVY5B519RD9", "current_trial": 129, "dateTime": 1512679424091, "trialdata": {"rt": -1, "stimulus": "<p id=\"stim\">KIDNEY</p>", "key_press": -1, "type": "PRES_VIS", "word": "kidney", "wordID": 775, "conditions": [12, 1600, "v", 24000], "trial": 3, "serialpos": 0, "trial_type": "single-stim", "trial_index": 129, "time_elapsed": 3320931, "internal_node_id": "0.0-93.0"}}, {"uniqueid": "MTK0718:3WI0P0II62ZMFI65FN6EVY5B519RD9", "current_trial": 130, "dateTime": 1512679426857, "trialdata": {"rt": -1, "stimulus": "<p id=\"stim\">TWIG</p>", "key_press": -1, "type": "PRES_VIS", "word": "twig", "wordID": 1526, "conditions": [12, 1600, "v", 24000], "trial": 3, "serialpos": 1, "trial_type": "single-stim", "trial_index": 130, "time_elapsed": 3323697, "internal_node_id": "0.0-94.0"}}, {"uniqueid": "MTK0718:3WI0P0II62ZMFI65FN6EVY5B519RD9", "current_trial": 131, "dateTime": 1512679429473, "trialdata": {"rt": -1, "stimulus": "<p id=\"stim\">BRIEFCASE</p>", "key_press": -1, "type": "PRES_VIS", "word": "briefcase", "wordID": 174, "conditions": [12, 1600, "v", 24000], "trial": 3, "serialpos": 2, "trial_type": "single-stim", "trial_index": 131, "time_elapsed": 3326313, "internal_node_id": "0.0-95.0"}}, {"uniqueid": "MTK0718:3WI0P0II62ZMFI65FN6EVY5B519RD9", "current_trial": 132, "dateTime": 1512679432155, "trialdata": {"rt": -1, "stimulus": "<p id=\"stim\">HANDBAG</p>", "key_press": -1, "type": "PRES_VIS", "word": "handbag", "wordID": 683, "conditions": [12, 1600, "v", 24000], "trial": 3, "serialpos": 3, "trial_type": "single-stim", "trial_index": 132, "time_elapsed": 3328995, "internal_node_id": "0.0-96.0"}}, {"uniqueid": "MTK0718:3WI0P0II62ZMFI65FN6EVY5B519RD9", "current_trial": 133, "dateTime": 1512679434568, "trialdata": {"rt": -1, "stimulus": "<p id=\"stim\">TRANSPLANT</p>", "key_press": -1, "type": "PRES_VIS", "word": "transplant", "wordID": 1495, "conditions": [12, 1600, "v", 24000], "trial": 3, "serialpos": 4, "trial_type": "single-stim", "trial_index": 133, "time_elapsed": 3331408, "internal_node_id": "0.0-97.0"}}, {"uniqueid": "MTK0718:3WI0P0II62ZMFI65FN6EVY5B519RD9", "current_trial": 134, "dateTime": 1512679437304, "trialdata": {"rt": -1, "stimulus": "<p id=\"stim\">DENTIST</p>", "key_press": -1, "type": "PRES_VIS", "word": "dentist", "wordID": 446, "conditions": [12, 1600, "v", 24000], "trial": 3, "serialpos": 5, "trial_type": "single-stim", "trial_index": 134, "time_elapsed": 3334140, "internal_node_id": "0.0-98.0"}}, {"uniqueid": "MTK0718:3WI0P0II62ZMFI65FN6EVY5B519RD9", "current_trial": 135, "dateTime": 1512679440008, "trialdata": {"rt": -1, "stimulus": "<p id=\"stim\">BULLET</p>", "key_press": -1, "type": "PRES_VIS", "word": "bullet", "wordID": 193, "conditions": [12, 1600, "v", 24000], "trial": 3, "serialpos": 6, "trial_type": "single-stim", "trial_index": 135, "time_elapsed": 3336848, "internal_node_id": "0.0-99.0"}}, {"uniqueid": "MTK0718:3WI0P0II62ZMFI65FN6EVY5B519RD9", "current_trial": 136, "dateTime": 1512679442809, "trialdata": {"rt": -1, "stimulus": "<p id=\"stim\">HOOD</p>", "key_press": -1, "type": "PRES_VIS", "word": "hood", "wordID": 713, "conditions": [12, 1600, "v", 24000], "trial": 3, "serialpos": 7, "trial_type": "single-stim", "trial_index": 136, "time_elapsed": 3339649, "internal_node_id": "0.0-100.0"}}, {"uniqueid": "MTK0718:3WI0P0II62ZMFI65FN6EVY5B519RD9", "current_trial": 137, "dateTime": 1512679445244, "trialdata": {"rt": -1, "stimulus": "<p id=\"stim\">SCISSORS</p>", "key_press": -1, "type": "PRES_VIS", "word": "scissors", "wordID": 1249, "conditions": [12, 1600, "v", 24000], "trial": 3, "serialpos": 8, "trial_type": "single-stim", "trial_index": 137, "time_elapsed": 3342084, "internal_node_id": "0.0-101.0"}}, {"uniqueid": "MTK0718:3WI0P0II62ZMFI65FN6EVY5B519RD9", "current_trial": 138, "dateTime": 1512679447996, "trialdata": {"rt": -1, "stimulus": "<p id=\"stim\">MASK</p>", "key_press": -1, "type": "PRES_VIS", "word": "mask", "wordID": 875, "conditions": [12, 1600, "v", 24000], "trial": 3, "serialpos": 9, "trial_type": "single-stim", "trial_index": 138, "time_elapsed": 3344836, "internal_node_id": "0.0-102.0"}}, {"uniqueid": "MTK0718:3WI0P0II62ZMFI65FN6EVY5B519RD9", "current_trial": 139, "dateTime": 1512679450589, "trialdata": {"rt": -1, "stimulus": "<p id=\"stim\">FINGER</p>", "key_press": -1, "type": "PRES_VIS", "word": "finger", "wordID": 566, "conditions": [12, 1600, "v", 24000], "trial": 3, "serialpos": 10, "trial_type": "single-stim", "trial_index": 139, "time_elapsed": 3347429, "internal_node_id": "0.0-103.0"}}, {"uniqueid": "MTK0718:3WI0P0II62ZMFI65FN6EVY5B519RD9", "current_trial": 140, "dateTime": 1512679453319, "trialdata": {"rt": -1, "stimulus": "<p id=\"stim\">SKIRT</p>", "key_press": -1, "type": "PRES_VIS", "word": "skirt", "wordID": 1318, "conditions": [12, 1600, "v", 24000], "trial": 3, "serialpos": 11, "trial_type": "single-stim", "trial_index": 140, "time_elapsed": 3350159, "internal_node_id": "0.0-104.0"}}, {"uniqueid": "MTK0718:3WI0P0II62ZMFI65FN6EVY5B519RD9", "current_trial": 141, "dateTime": 1512679455497, "trialdata": {"rt": -1, "stimulus": "", "key_press": -1, "type": "PRE_RECALL_DELAY", "trial_type": "single-stim", "trial_index": 141, "time_elapsed": 3352337, "internal_node_id": "0.0-105.0-0.0"}}, {"uniqueid": "MTK0718:3WI0P0II62ZMFI65FN6EVY5B519RD9", "current_trial": 142, "dateTime": 1512679455999, "trialdata": {"rt": -1000, "stimulus": "/static/audio/400Hz.wav", "key_press": -1, "type": "PRE_RECALL_ALERT", "trial_type": "single-audio", "trial_index": 142, "time_elapsed": 3352839, "internal_node_id": "0.0-106.0"}}, {"uniqueid": "MTK0718:3WI0P0II62ZMFI65FN6EVY5B519RD9", "current_trial": 143, "dateTime": 1512679516008, "trialdata": {"rt": [2828, 4445, 8422, 10129, 14024, 15220, 15836, 20602, 21845, 23187], "recwords": ["twig", "briefcase", "handbag", "transplant", "dentist", "bullet", "twig", "hood", "mask", "scissors"], "type": "FREE_RECALL", "conditions": [12, 1600, "v", 24000], "trial": 3, "trial_type": "free-recall", "trial_index": 143, "time_elapsed": 3412842, "internal_node_id": "0.0-107.0-0.0"}}, {"uniqueid": "MTK0718:3WI0P0II62ZMFI65FN6EVY5B519RD9", "current_trial": 144, "dateTime": 1512679518487, "trialdata": {"rt": 476, "key_press": 32, "type": "INSTRUCTIONS", "trial_type": "text", "trial_index": 144, "time_elapsed": 3415327, "internal_node_id": "0.0-108.0"}}, {"uniqueid": "MTK0718:3WI0P0II62ZMFI65FN6EVY5B519RD9", "current_trial": 145, "dateTime": 1512679544491, "trialdata": {"rt": [7485, 11637, 13600, 16186, 19813], "responses": ["12", "19", "13", "16", "15"], "num1": [3, 6, 6, 4, 3, 5], "num2": [1, 7, 6, 6, 4, 1], "num3": [8, 6, 1, 6, 8, 6], "type": "DISTRACTOR", "conditions": [24, 800, "v", 24000], "trial": 4, "trial_type": "math-distractor", "trial_index": 145, "time_elapsed": 3441331, "internal_node_id": "0.0-109.0"}}, {"uniqueid": "MTK0718:3WI0P0II62ZMFI65FN6EVY5B519RD9", "current_trial": 146, "dateTime": 1512679547493, "trialdata": {"rt": -1, "stimulus": "<p id=\"stim\">10</p>", "key_press": -1, "trial_type": "single-stim", "trial_index": 146, "time_elapsed": 3444333, "internal_node_id": "0.0-110.0-0.0"}}, {"uniqueid": "MTK0718:3WI0P0II62ZMFI65FN6EVY5B519RD9", "current_trial": 147, "dateTime": 1512679548495, "trialdata": {"rt": -1, "stimulus": "<p id=\"stim\">9</p>", "key_press": -1, "trial_type": "single-stim", "trial_index": 147, "time_elapsed": 3445335, "internal_node_id": "0.0-110.0-1.0"}}, {"uniqueid": "MTK0718:3WI0P0II62ZMFI65FN6EVY5B519RD9", "current_trial": 148, "dateTime": 1512679549495, "trialdata": {"rt": -1, "stimulus": "<p id=\"stim\">8</p>", "key_press": -1, "trial_type": "single-stim", "trial_index": 148, "time_elapsed": 3446335, "internal_node_id": "0.0-110.0-2.0"}}, {"uniqueid": "MTK0718:3WI0P0II62ZMFI65FN6EVY5B519RD9", "current_trial": 149, "dateTime": 1512679550496, "trialdata": {"rt": -1, "stimulus": "<p id=\"stim\">7</p>", "key_press": -1, "trial_type": "single-stim", "trial_index": 149, "time_elapsed": 3447336, "internal_node_id": "0.0-110.0-3.0"}}, {"uniqueid": "MTK0718:3WI0P0II62ZMFI65FN6EVY5B519RD9", "current_trial": 150, "dateTime": 1512679551497, "trialdata": {"rt": -1, "stimulus": "<p id=\"stim\">6</p>", "key_press": -1, "trial_type": "single-stim", "trial_index": 150, "time_elapsed": 3448337, "internal_node_id": "0.0-110.0-4.0"}}, {"uniqueid": "MTK0718:3WI0P0II62ZMFI65FN6EVY5B519RD9", "current_trial": 151, "dateTime": 1512679552498, "trialdata": {"rt": -1, "stimulus": "<p id=\"stim\">5</p>", "key_press": -1, "trial_type": "single-stim", "trial_index": 151, "time_elapsed": 3449338, "internal_node_id": "0.0-110.0-5.0"}}, {"uniqueid": "MTK0718:3WI0P0II62ZMFI65FN6EVY5B519RD9", "current_trial": 152, "dateTime": 1512679553500, "trialdata": {"rt": -1, "stimulus": "<p id=\"stim\">4</p>", "key_press": -1, "trial_type": "single-stim", "trial_index": 152, "time_elapsed": 3450340, "internal_node_id": "0.0-110.0-6.0"}}, {"uniqueid": "MTK0718:3WI0P0II62ZMFI65FN6EVY5B519RD9", "current_trial": 153, "dateTime": 1512679554502, "trialdata": {"rt": -1, "stimulus": "<p id=\"stim\">3</p>", "key_press": -1, "trial_type": "single-stim", "trial_index": 153, "time_elapsed": 3451342, "internal_node_id": "0.0-110.0-7.0"}}, {"uniqueid": "MTK0718:3WI0P0II62ZMFI65FN6EVY5B519RD9", "current_trial": 154, "dateTime": 1512679555504, "trialdata": {"rt": -1, "stimulus": "<p id=\"stim\">2</p>", "key_press": -1, "trial_type": "single-stim", "trial_index": 154, "time_elapsed": 3452344, "internal_node_id": "0.0-110.0-8.0"}}, {"uniqueid": "MTK0718:3WI0P0II62ZMFI65FN6EVY5B519RD9", "current_trial": 155, "dateTime": 1512679556506, "trialdata": {"rt": -1, "stimulus": "<p id=\"stim\">1</p>", "key_press": -1, "trial_type": "single-stim", "trial_index": 155, "time_elapsed": 3453345, "internal_node_id": "0.0-110.0-9.0"}}, {"uniqueid": "MTK0718:3WI0P0II62ZMFI65FN6EVY5B519RD9", "current_trial": 156, "dateTime": 1512679558007, "trialdata": {"rt": -1, "stimulus": "<p id=\"stim\">+</p>", "key_press": -1, "type": "FIXATION", "trial_type": "single-stim", "trial_index": 156, "time_elapsed": 3454847, "internal_node_id": "0.0-111.0-0.0"}}, {"uniqueid": "MTK0718:3WI0P0II62ZMFI65FN6EVY5B519RD9", "current_trial": 157, "dateTime": 1512679558809, "trialdata": {"rt": -1, "stimulus": "<p id=\"stim\">SNAIL</p>", "key_press": -1, "type": "PRES_VIS", "word": "snail", "wordID": 1331, "conditions": [24, 800, "v", 24000], "trial": 4, "serialpos": 0, "trial_type": "single-stim", "trial_index": 157, "time_elapsed": 3455649, "internal_node_id": "0.0-112.0"}}, {"uniqueid": "MTK0718:3WI0P0II62ZMFI65FN6EVY5B519RD9", "current_trial": 158, "dateTime": 1512679560499, "trialdata": {"rt": -1, "stimulus": "<p id=\"stim\">TROUT</p>", "key_press": -1, "type": "PRES_VIS", "word": "trout", "wordID": 1510, "conditions": [24, 800, "v", 24000], "trial": 4, "serialpos": 1, "trial_type": "single-stim", "trial_index": 158, "time_elapsed": 3457339, "internal_node_id": "0.0-113.0"}}, {"uniqueid": "MTK0718:3WI0P0II62ZMFI65FN6EVY5B519RD9", "current_trial": 159, "dateTime": 1512679562417, "trialdata": {"rt": -1, "stimulus": "<p id=\"stim\">BABY</p>", "key_press": -1, "type": "PRES_VIS", "word": "baby", "wordID": 63, "conditions": [24, 800, "v", 24000], "trial": 4, "serialpos": 2, "trial_type": "single-stim", "trial_index": 159, "time_elapsed": 3459256, "internal_node_id": "0.0-114.0"}}, {"uniqueid": "MTK0718:3WI0P0II62ZMFI65FN6EVY5B519RD9", "current_trial": 160, "dateTime": 1512679564241, "trialdata": {"rt": -1, "stimulus": "<p id=\"stim\">LIZARD</p>", "key_press": -1, "type": "PRES_VIS", "word": "lizard", "wordID": 833, "conditions": [24, 800, "v", 24000], "trial": 4, "serialpos": 3, "trial_type": "single-stim", "trial_index": 160, "time_elapsed": 3461081, "internal_node_id": "0.0-115.0"}}, {"uniqueid": "MTK0718:3WI0P0II62ZMFI65FN6EVY5B519RD9", "current_trial": 161, "dateTime": 1512679566019, "trialdata": {"rt": -1, "stimulus": "<p id=\"stim\">BLADE</p>", "key_press": -1, "type": "PRES_VIS", "word": "blade", "wordID": 133, "conditions": [24, 800, "v", 24000], "trial": 4, "serialpos": 4, "trial_type": "single-stim", "trial_index": 161, "time_elapsed": 3462859, "internal_node_id": "0.0-116.0"}}, {"uniqueid": "MTK0718:3WI0P0II62ZMFI65FN6EVY5B519RD9", "current_trial": 162, "dateTime": 1512679567934, "trialdata": {"rt": -1, "stimulus": "<p id=\"stim\">RAZOR</p>", "key_press": -1, "type": "PRES_VIS", "word": "razor", "wordID": 1170, "conditions": [24, 800, "v", 24000], "trial": 4, "serialpos": 5, "trial_type": "single-stim", "trial_index": 162, "time_elapsed": 3464774, "internal_node_id": "0.0-117.0"}}, {"uniqueid": "MTK0718:3WI0P0II62ZMFI65FN6EVY5B519RD9", "current_trial": 163, "dateTime": 1512679569669, "trialdata": {"rt": -1, "stimulus": "<p id=\"stim\">COOK</p>", "key_press": -1, "type": "PRES_VIS", "word": "cook", "wordID": 371, "conditions": [24, 800, "v", 24000], "trial": 4, "serialpos": 6, "trial_type": "single-stim", "trial_index": 163, "time_elapsed": 3466509, "internal_node_id": "0.0-118.0"}}, {"uniqueid": "MTK0718:3WI0P0II62ZMFI65FN6EVY5B519RD9", "current_trial": 164, "dateTime": 1512679571272, "trialdata": {"rt": -1, "stimulus": "<p id=\"stim\">DIVER</p>", "key_press": -1, "type": "PRES_VIS", "word": "diver", "wordID": 475, "conditions": [24, 800, "v", 24000], "trial": 4, "serialpos": 7, "trial_type": "single-stim", "trial_index": 164, "time_elapsed": 3468112, "internal_node_id": "0.0-119.0"}}, {"uniqueid": "MTK0718:3WI0P0II62ZMFI65FN6EVY5B519RD9", "current_trial": 165, "dateTime": 1512679573153, "trialdata": {"rt": -1, "stimulus": "<p id=\"stim\">BASEMENT</p>", "key_press": -1, "type": "PRES_VIS", "word": "basement", "wordID": 93, "conditions": [24, 800, "v", 24000], "trial": 4, "serialpos": 8, "trial_type": "single-stim", "trial_index": 165, "time_elapsed": 3469993, "internal_node_id": "0.0-120.0"}}, {"uniqueid": "MTK0718:3WI0P0II62ZMFI65FN6EVY5B519RD9", "current_trial": 166, "dateTime": 1512679575047, "trialdata": {"rt": -1, "stimulus": "<p id=\"stim\">KNIFE</p>", "key_press": -1, "type": "PRES_VIS", "word": "knife", "wordID": 784, "conditions": [24, 800, "v", 24000], "trial": 4, "serialpos": 9, "trial_type": "single-stim", "trial_index": 166, "time_elapsed": 3471887, "internal_node_id": "0.0-121.0"}}, {"uniqueid": "MTK0718:3WI0P0II62ZMFI65FN6EVY5B519RD9", "current_trial": 167, "dateTime": 1512679577034, "trialdata": {"rt": -1, "stimulus": "<p id=\"stim\">GRILL</p>", "key_press": -1, "type": "PRES_VIS", "word": "grill", "wordID": 660, "conditions": [24, 800, "v", 24000], "trial": 4, "serialpos": 10, "trial_type": "single-stim", "trial_index": 167, "time_elapsed": 3473874, "internal_node_id": "0.0-122.0"}}, {"uniqueid": "MTK0718:3WI0P0II62ZMFI65FN6EVY5B519RD9", "current_trial": 168, "dateTime": 1512679578869, "trialdata": {"rt": -1, "stimulus": "<p id=\"stim\">COUNTRY</p>", "key_press": -1, "type": "PRES_VIS", "word": "country", "wordID": 387, "conditions": [24, 800, "v", 24000], "trial": 4, "serialpos": 11, "trial_type": "single-stim", "trial_index": 168, "time_elapsed": 3475709, "internal_node_id": "0.0-123.0"}}, {"uniqueid": "MTK0718:3WI0P0II62ZMFI65FN6EVY5B519RD9", "current_trial": 169, "dateTime": 1512679580799, "trialdata": {"rt": -1, "stimulus": "<p id=\"stim\">JUDGE</p>", "key_press": -1, "type": "PRES_VIS", "word": "judge", "wordID": 760, "conditions": [24, 800, "v", 24000], "trial": 4, "serialpos": 12, "trial_type": "single-stim", "trial_index": 169, "time_elapsed": 3477639, "internal_node_id": "0.0-124.0"}}, {"uniqueid": "MTK0718:3WI0P0II62ZMFI65FN6EVY5B519RD9", "current_trial": 170, "dateTime": 1512679582405, "trialdata": {"rt": -1, "stimulus": "<p id=\"stim\">REBEL</p>", "key_press": -1, "type": "PRES_VIS", "word": "rebel", "wordID": 1171, "conditions": [24, 800, "v", 24000], "trial": 4, "serialpos": 13, "trial_type": "single-stim", "trial_index": 170, "time_elapsed": 3479245, "internal_node_id": "0.0-125.0"}}, {"uniqueid": "MTK0718:3WI0P0II62ZMFI65FN6EVY5B519RD9", "current_trial": 171, "dateTime": 1512679584030, "trialdata": {"rt": -1, "stimulus": "<p id=\"stim\">CLAM</p>", "key_press": -1, "type": "PRES_VIS", "word": "clam", "wordID": 314, "conditions": [24, 800, "v", 24000], "trial": 4, "serialpos": 14, "trial_type": "single-stim", "trial_index": 171, "time_elapsed": 3480870, "internal_node_id": "0.0-126.0"}}, {"uniqueid": "MTK0718:3WI0P0II62ZMFI65FN6EVY5B519RD9", "current_trial": 172, "dateTime": 1512679585927, "trialdata": {"rt": -1, "stimulus": "<p id=\"stim\">CRAB</p>", "key_press": -1, "type": "PRES_VIS", "word": "crab", "wordID": 396, "conditions": [24, 800, "v", 24000], "trial": 4, "serialpos": 15, "trial_type": "single-stim", "trial_index": 172, "time_elapsed": 3482767, "internal_node_id": "0.0-127.0"}}, {"uniqueid": "MTK0718:3WI0P0II62ZMFI65FN6EVY5B519RD9", "current_trial": 173, "dateTime": 1512679587874, "trialdata": {"rt": -1, "stimulus": "<p id=\"stim\">LOFT</p>", "key_press": -1, "type": "PRES_VIS", "word": "loft", "wordID": 839, "conditions": [24, 800, "v", 24000], "trial": 4, "serialpos": 16, "trial_type": "single-stim", "trial_index": 173, "time_elapsed": 3484714, "internal_node_id": "0.0-128.0"}}, {"uniqueid": "MTK0718:3WI0P0II62ZMFI65FN6EVY5B519RD9", "current_trial": 174, "dateTime": 1512679589747, "trialdata": {"rt": -1, "stimulus": "<p id=\"stim\">SODA</p>", "key_press": -1, "type": "PRES_VIS", "word": "soda", "wordID": 1340, "conditions": [24, 800, "v", 24000], "trial": 4, "serialpos": 17, "trial_type": "single-stim", "trial_index": 174, "time_elapsed": 3486587, "internal_node_id": "0.0-129.0"}}, {"uniqueid": "MTK0718:3WI0P0II62ZMFI65FN6EVY5B519RD9", "current_trial": 175, "dateTime": 1512679591539, "trialdata": {"rt": -1, "stimulus": "<p id=\"stim\">COMPASS</p>", "key_press": -1, "type": "PRES_VIS", "word": "compass", "wordID": 357, "conditions": [24, 800, "v", 24000], "trial": 4, "serialpos": 18, "trial_type": "single-stim", "trial_index": 175, "time_elapsed": 3488379, "internal_node_id": "0.0-130.0"}}, {"uniqueid": "MTK0718:3WI0P0II62ZMFI65FN6EVY5B519RD9", "current_trial": 176, "dateTime": 1512679593220, "trialdata": {"rt": -1, "stimulus": "<p id=\"stim\">PUPPY</p>", "key_press": -1, "type": "PRES_VIS", "word": "puppy", "wordID": 1143, "conditions": [24, 800, "v", 24000], "trial": 4, "serialpos": 19, "trial_type": "single-stim", "trial_index": 176, "time_elapsed": 3490060, "internal_node_id": "0.0-131.0"}}, {"uniqueid": "MTK0718:3WI0P0II62ZMFI65FN6EVY5B519RD9", "current_trial": 177, "dateTime": 1512679594862, "trialdata": {"rt": -1, "stimulus": "<p id=\"stim\">WOMAN</p>", "key_press": -1, "type": "PRES_VIS", "word": "woman", "wordID": 1619, "conditions": [24, 800, "v", 24000], "trial": 4, "serialpos": 20, "trial_type": "single-stim", "trial_index": 177, "time_elapsed": 3491702, "internal_node_id": "0.0-132.0"}}, {"uniqueid": "MTK0718:3WI0P0II62ZMFI65FN6EVY5B519RD9", "current_trial": 178, "dateTime": 1512679596492, "trialdata": {"rt": -1, "stimulus": "<p id=\"stim\">DRAGON</p>", "key_press": -1, "type": "PRES_VIS", "word": "dragon", "wordID": 491, "conditions": [24, 800, "v", 24000], "trial": 4, "serialpos": 21, "trial_type": "single-stim", "trial_index": 178, "time_elapsed": 3493332, "internal_node_id": "0.0-133.0"}}, {"uniqueid": "MTK0718:3WI0P0II62ZMFI65FN6EVY5B519RD9", "current_trial": 179, "dateTime": 1512679598245, "trialdata": {"rt": -1, "stimulus": "<p id=\"stim\">POCKET</p>", "key_press": -1, "type": "PRES_VIS", "word": "pocket", "wordID": 1092, "conditions": [24, 800, "v", 24000], "trial": 4, "serialpos": 22, "trial_type": "single-stim", "trial_index": 179, "time_elapsed": 3495085, "internal_node_id": "0.0-134.0"}}, {"uniqueid": "MTK0718:3WI0P0II62ZMFI65FN6EVY5B519RD9", "current_trial": 180, "dateTime": 1512679599892, "trialdata": {"rt": -1, "stimulus": "<p id=\"stim\">DRINK</p>", "key_press": -1, "type": "PRES_VIS", "word": "drink", "wordID": 497, "conditions": [24, 800, "v", 24000], "trial": 4, "serialpos": 23, "trial_type": "single-stim", "trial_index": 180, "time_elapsed": 3496732, "internal_node_id": "0.0-135.0"}}, {"uniqueid": "MTK0718:3WI0P0II62ZMFI65FN6EVY5B519RD9", "current_trial": 181, "dateTime": 1512679602237, "trialdata": {"rt": -1, "stimulus": "", "key_press": -1, "type": "PRE_RECALL_DELAY", "trial_type": "single-stim", "trial_index": 181, "time_elapsed": 3499077, "internal_node_id": "0.0-136.0-0.0"}}, {"uniqueid": "MTK0718:3WI0P0II62ZMFI65FN6EVY5B519RD9", "current_trial": 182, "dateTime": 1512679602738, "trialdata": {"rt": -1000, "stimulus": "/static/audio/400Hz.wav", "key_press": -1, "type": "PRE_RECALL_ALERT", "trial_type": "single-audio", "trial_index": 182, "time_elapsed": 3499578, "internal_node_id": "0.0-137.0"}}, {"uniqueid": "MTK0718:3WI0P0II62ZMFI65FN6EVY5B519RD9", "current_trial": 183, "dateTime": 1512679662751, "trialdata": {"rt": [30618, 33866, 34808, 38665, 39420, 40522, 44950, 46544, 48507], "recwords": ["lizards", "blade", "razor", "cook", "diver", "basement", "knife", "grill", "country"], "type": "FREE_RECALL", "conditions": [24, 800, "v", 24000], "trial": 4, "trial_type": "free-recall", "trial_index": 183, "time_elapsed": 3559583, "internal_node_id": "0.0-138.0-0.0"}}, {"uniqueid": "MTK0718:3WI0P0II62ZMFI65FN6EVY5B519RD9", "current_trial": 184, "dateTime": 1512679696698, "trialdata": {"rt": 31946, "key_press": 32, "type": "INSTRUCTIONS", "trial_type": "text", "trial_index": 184, "time_elapsed": 3593538, "internal_node_id": "0.0-139.0"}}, {"uniqueid": "MTK0718:3WI0P0II62ZMFI65FN6EVY5B519RD9", "current_trial": 185, "dateTime": 1512679710703, "trialdata": {"rt": [3551, 11187], "responses": ["13", "20"], "num1": [2, 5, 5], "num2": [9, 7, 4], "num3": [2, 8, 4], "type": "DISTRACTOR", "conditions": [12, 800, "v", 12000], "trial": 5, "trial_type": "math-distractor", "trial_index": 185, "time_elapsed": 3607542, "internal_node_id": "0.0-140.0"}}, {"uniqueid": "MTK0718:3WI0P0II62ZMFI65FN6EVY5B519RD9", "current_trial": 186, "dateTime": 1512679713704, "trialdata": {"rt": -1, "stimulus": "<p id=\"stim\">10</p>", "key_press": -1, "trial_type": "single-stim", "trial_index": 186, "time_elapsed": 3610544, "internal_node_id": "0.0-141.0-0.0"}}, {"uniqueid": "MTK0718:3WI0P0II62ZMFI65FN6EVY5B519RD9", "current_trial": 187, "dateTime": 1512679714706, "trialdata": {"rt": -1, "stimulus": "<p id=\"stim\">9</p>", "key_press": -1, "trial_type": "single-stim", "trial_index": 187, "time_elapsed": 3611546, "internal_node_id": "0.0-141.0-1.0"}}, {"uniqueid": "MTK0718:3WI0P0II62ZMFI65FN6EVY5B519RD9", "current_trial": 188, "dateTime": 1512679715708, "trialdata": {"rt": -1, "stimulus": "<p id=\"stim\">8</p>", "key_press": -1, "trial_type": "single-stim", "trial_index": 188, "time_elapsed": 3612548, "internal_node_id": "0.0-141.0-2.0"}}, {"uniqueid": "MTK0718:3WI0P0II62ZMFI65FN6EVY5B519RD9", "current_trial": 189, "dateTime": 1512679716710, "trialdata": {"rt": -1, "stimulus": "<p id=\"stim\">7</p>", "key_press": -1, "trial_type": "single-stim", "trial_index": 189, "time_elapsed": 3613550, "internal_node_id": "0.0-141.0-3.0"}}, {"uniqueid": "MTK0718:3WI0P0II62ZMFI65FN6EVY5B519RD9", "current_trial": 190, "dateTime": 1512679717713, "trialdata": {"rt": -1, "stimulus": "<p id=\"stim\">6</p>", "key_press": -1, "trial_type": "single-stim", "trial_index": 190, "time_elapsed": 3614552, "internal_node_id": "0.0-141.0-4.0"}}, {"uniqueid": "MTK0718:3WI0P0II62ZMFI65FN6EVY5B519RD9", "current_trial": 191, "dateTime": 1512679718714, "trialdata": {"rt": -1, "stimulus": "<p id=\"stim\">5</p>", "key_press": -1, "trial_type": "single-stim", "trial_index": 191, "time_elapsed": 3615554, "internal_node_id": "0.0-141.0-5.0"}}, {"uniqueid": "MTK0718:3WI0P0II62ZMFI65FN6EVY5B519RD9", "current_trial": 192, "dateTime": 1512679719716, "trialdata": {"rt": -1, "stimulus": "<p id=\"stim\">4</p>", "key_press": -1, "trial_type": "single-stim", "trial_index": 192, "time_elapsed": 3616556, "internal_node_id": "0.0-141.0-6.0"}}, {"uniqueid": "MTK0718:3WI0P0II62ZMFI65FN6EVY5B519RD9", "current_trial": 193, "dateTime": 1512679720718, "trialdata": {"rt": -1, "stimulus": "<p id=\"stim\">3</p>", "key_press": -1, "trial_type": "single-stim", "trial_index": 193, "time_elapsed": 3617558, "internal_node_id": "0.0-141.0-7.0"}}, {"uniqueid": "MTK0718:3WI0P0II62ZMFI65FN6EVY5B519RD9", "current_trial": 194, "dateTime": 1512679721721, "trialdata": {"rt": -1, "stimulus": "<p id=\"stim\">2</p>", "key_press": -1, "trial_type": "single-stim", "trial_index": 194, "time_elapsed": 3618561, "internal_node_id": "0.0-141.0-8.0"}}, {"uniqueid": "MTK0718:3WI0P0II62ZMFI65FN6EVY5B519RD9", "current_trial": 195, "dateTime": 1512679722722, "trialdata": {"rt": -1, "stimulus": "<p id=\"stim\">1</p>", "key_press": -1, "trial_type": "single-stim", "trial_index": 195, "time_elapsed": 3619562, "internal_node_id": "0.0-141.0-9.0"}}, {"uniqueid": "MTK0718:3WI0P0II62ZMFI65FN6EVY5B519RD9", "current_trial": 196, "dateTime": 1512679724223, "trialdata": {"rt": -1, "stimulus": "<p id=\"stim\">+</p>", "key_press": -1, "type": "FIXATION", "trial_type": "single-stim", "trial_index": 196, "time_elapsed": 3621063, "internal_node_id": "0.0-142.0-0.0"}}, {"uniqueid": "MTK0718:3WI0P0II62ZMFI65FN6EVY5B519RD9", "current_trial": 197, "dateTime": 1512679725024, "trialdata": {"rt": -1, "stimulus": "<p id=\"stim\">BEAST</p>", "key_press": -1, "type": "PRES_VIS", "word": "beast", "wordID": 107, "conditions": [12, 800, "v", 12000], "trial": 5, "serialpos": 0, "trial_type": "single-stim", "trial_index": 197, "time_elapsed": 3621864, "internal_node_id": "0.0-143.0"}}, {"uniqueid": "MTK0718:3WI0P0II62ZMFI65FN6EVY5B519RD9", "current_trial": 198, "dateTime": 1512679726936, "trialdata": {"rt": -1, "stimulus": "<p id=\"stim\">MONSTER</p>", "key_press": -1, "type": "PRES_VIS", "word": "monster", "wordID": 911, "conditions": [12, 800, "v", 12000], "trial": 5, "serialpos": 1, "trial_type": "single-stim", "trial_index": 198, "time_elapsed": 3623776, "internal_node_id": "0.0-144.0"}}, {"uniqueid": "MTK0718:3WI0P0II62ZMFI65FN6EVY5B519RD9", "current_trial": 199, "dateTime": 1512679728650, "trialdata": {"rt": -1, "stimulus": "<p id=\"stim\">STATUE</p>", "key_press": -1, "type": "PRES_VIS", "word": "statue", "wordID": 1373, "conditions": [12, 800, "v", 12000], "trial": 5, "serialpos": 2, "trial_type": "single-stim", "trial_index": 199, "time_elapsed": 3625490, "internal_node_id": "0.0-145.0"}}, {"uniqueid": "MTK0718:3WI0P0II62ZMFI65FN6EVY5B519RD9", "current_trial": 200, "dateTime": 1512679730355, "trialdata": {"rt": -1, "stimulus": "<p id=\"stim\">GIFT</p>", "key_press": -1, "type": "PRES_VIS", "word": "gift", "wordID": 634, "conditions": [12, 800, "v", 12000], "trial": 5, "serialpos": 3, "trial_type": "single-stim", "trial_index": 200, "time_elapsed": 3627195, "internal_node_id": "0.0-146.0"}}, {"uniqueid": "MTK0718:3WI0P0II62ZMFI65FN6EVY5B519RD9", "current_trial": 201, "dateTime": 1512679732004, "trialdata": {"rt": -1, "stimulus": "<p id=\"stim\">FRECKLE</p>", "key_press": -1, "type": "PRES_VIS", "word": "freckle", "wordID": 601, "conditions": [12, 800, "v", 12000], "trial": 5, "serialpos": 4, "trial_type": "single-stim", "trial_index": 201, "time_elapsed": 3628844, "internal_node_id": "0.0-147.0"}}, {"uniqueid": "MTK0718:3WI0P0II62ZMFI65FN6EVY5B519RD9", "current_trial": 202, "dateTime": 1512679733714, "trialdata": {"rt": -1, "stimulus": "<p id=\"stim\">LUGGAGE</p>", "key_press": -1, "type": "PRES_VIS", "word": "luggage", "wordID": 846, "conditions": [12, 800, "v", 12000], "trial": 5, "serialpos": 5, "trial_type": "single-stim", "trial_index": 202, "time_elapsed": 3630554, "internal_node_id": "0.0-148.0"}}, {"uniqueid": "MTK0718:3WI0P0II62ZMFI65FN6EVY5B519RD9", "current_trial": 203, "dateTime": 1512679735393, "trialdata": {"rt": -1, "stimulus": "<p id=\"stim\">STAR</p>", "key_press": -1, "type": "PRES_VIS", "word": "star", "wordID": 1372, "conditions": [12, 800, "v", 12000], "trial": 5, "serialpos": 6, "trial_type": "single-stim", "trial_index": 203, "time_elapsed": 3632233, "internal_node_id": "0.0-149.0"}}, {"uniqueid": "MTK0718:3WI0P0II62ZMFI65FN6EVY5B519RD9", "current_trial": 204, "dateTime": 1512679737374, "trialdata": {"rt": -1, "stimulus": "<p id=\"stim\">POPCORN</p>", "key_press": -1, "type": "PRES_VIS", "word": "popcorn", "wordID": 1103, "conditions": [12, 800, "v", 12000], "trial": 5, "serialpos": 7, "trial_type": "single-stim", "trial_index": 204, "time_elapsed": 3634214, "internal_node_id": "0.0-150.0"}}, {"uniqueid": "MTK0718:3WI0P0II62ZMFI65FN6EVY5B519RD9", "current_trial": 205, "dateTime": 1512679739046, "trialdata": {"rt": -1, "stimulus": "<p id=\"stim\">ACTOR</p>", "key_press": -1, "type": "PRES_VIS", "word": "actor", "wordID": 4, "conditions": [12, 800, "v", 12000], "trial": 5, "serialpos": 8, "trial_type": "single-stim", "trial_index": 205, "time_elapsed": 3635886, "internal_node_id": "0.0-151.0"}}, {"uniqueid": "MTK0718:3WI0P0II62ZMFI65FN6EVY5B519RD9", "current_trial": 206, "dateTime": 1512679741023, "trialdata": {"rt": -1, "stimulus": "<p id=\"stim\">TOMBSTONE</p>", "key_press": -1, "type": "PRES_VIS", "word": "tombstone", "wordID": 1477, "conditions": [12, 800, "v", 12000], "trial": 5, "serialpos": 9, "trial_type": "single-stim", "trial_index": 206, "time_elapsed": 3637863, "internal_node_id": "0.0-152.0"}}, {"uniqueid": "MTK0718:3WI0P0II62ZMFI65FN6EVY5B519RD9", "current_trial": 207, "dateTime": 1512679742722, "trialdata": {"rt": -1, "stimulus": "<p id=\"stim\">PIMPLE</p>", "key_press": -1, "type": "PRES_VIS", "word": "pimple", "wordID": 1070, "conditions": [12, 800, "v", 12000], "trial": 5, "serialpos": 10, "trial_type": "single-stim", "trial_index": 207, "time_elapsed": 3639562, "internal_node_id": "0.0-153.0"}}, {"uniqueid": "MTK0718:3WI0P0II62ZMFI65FN6EVY5B519RD9", "current_trial": 208, "dateTime": 1512679744336, "trialdata": {"rt": -1, "stimulus": "<p id=\"stim\">RADISH</p>", "key_press": -1, "type": "PRES_VIS", "word": "radish", "wordID": 1157, "conditions": [12, 800, "v", 12000], "trial": 5, "serialpos": 11, "trial_type": "single-stim", "trial_index": 208, "time_elapsed": 3641176, "internal_node_id": "0.0-154.0"}}, {"uniqueid": "MTK0718:3WI0P0II62ZMFI65FN6EVY5B519RD9", "current_trial": 209, "dateTime": 1512679746695, "trialdata": {"rt": -1, "stimulus": "", "key_press": -1, "type": "PRE_RECALL_DELAY", "trial_type": "single-stim", "trial_index": 209, "time_elapsed": 3643535, "internal_node_id": "0.0-155.0-0.0"}}, {"uniqueid": "MTK0718:3WI0P0II62ZMFI65FN6EVY5B519RD9", "current_trial": 210, "dateTime": 1512679747197, "trialdata": {"rt": -1000, "stimulus": "/static/audio/400Hz.wav", "key_press": -1, "type": "PRE_RECALL_ALERT", "trial_type": "single-audio", "trial_index": 210, "time_elapsed": 3644037, "internal_node_id": "0.0-156.0"}}, {"uniqueid": "MTK0718:3WI0P0II62ZMFI65FN6EVY5B519RD9", "current_trial": 211, "dateTime": 1512679807206, "trialdata": {"rt": [53369, 56376, 57069], "recwords": ["beast", "monster", "gift"], "type": "FREE_RECALL", "conditions": [12, 800, "v", 12000], "trial": 5, "trial_type": "free-recall", "trial_index": 211, "time_elapsed": 3704040, "internal_node_id": "0.0-157.0-0.0"}}, {"uniqueid": "MTK0718:3WI0P0II62ZMFI65FN6EVY5B519RD9", "current_trial": 212, "dateTime": 1512679810313, "trialdata": {"rt": 1104, "key_press": 32, "type": "INSTRUCTIONS", "trial_type": "text", "trial_index": 212, "time_elapsed": 3707152, "internal_node_id": "0.0-158.0"}}, {"uniqueid": "MTK0718:3WI0P0II62ZMFI65FN6EVY5B519RD9", "current_trial": 213, "dateTime": 1512679824317, "trialdata": {"rt": [1930, 5749, 9750], "responses": ["14", "15", "19"], "num1": [4, 8, 8, 2], "num2": [7, 1, 3, 5], "num3": [3, 6, 8, 6], "type": "DISTRACTOR", "conditions": [12, 1600, "v", 12000], "trial": 6, "trial_type": "math-distractor", "trial_index": 213, "time_elapsed": 3721156, "internal_node_id": "0.0-159.0"}}, {"uniqueid": "MTK0718:3WI0P0II62ZMFI65FN6EVY5B519RD9", "current_trial": 214, "dateTime": 1512679827319, "trialdata": {"rt": -1, "stimulus": "<p id=\"stim\">10</p>", "key_press": -1, "trial_type": "single-stim", "trial_index": 214, "time_elapsed": 3724159, "internal_node_id": "0.0-160.0-0.0"}}, {"uniqueid": "MTK0718:3WI0P0II62ZMFI65FN6EVY5B519RD9", "current_trial": 215, "dateTime": 1512679828320, "trialdata": {"rt": -1, "stimulus": "<p id=\"stim\">9</p>", "key_press": -1, "trial_type": "single-stim", "trial_index": 215, "time_elapsed": 3725160, "internal_node_id": "0.0-160.0-1.0"}}, {"uniqueid": "MTK0718:3WI0P0II62ZMFI65FN6EVY5B519RD9", "current_trial": 216, "dateTime": 1512679829322, "trialdata": {"rt": -1, "stimulus": "<p id=\"stim\">8</p>", "key_press": -1, "trial_type": "single-stim", "trial_index": 216, "time_elapsed": 3726162, "internal_node_id": "0.0-160.0-2.0"}}, {"uniqueid": "MTK0718:3WI0P0II62ZMFI65FN6EVY5B519RD9", "current_trial": 217, "dateTime": 1512679830324, "trialdata": {"rt": -1, "stimulus": "<p id=\"stim\">7</p>", "key_press": -1, "trial_type": "single-stim", "trial_index": 217, "time_elapsed": 3727164, "internal_node_id": "0.0-160.0-3.0"}}, {"uniqueid": "MTK0718:3WI0P0II62ZMFI65FN6EVY5B519RD9", "current_trial": 218, "dateTime": 1512679831325, "trialdata": {"rt": -1, "stimulus": "<p id=\"stim\">6</p>", "key_press": -1, "trial_type": "single-stim", "trial_index": 218, "time_elapsed": 3728165, "internal_node_id": "0.0-160.0-4.0"}}, {"uniqueid": "MTK0718:3WI0P0II62ZMFI65FN6EVY5B519RD9", "current_trial": 219, "dateTime": 1512679832327, "trialdata": {"rt": -1, "stimulus": "<p id=\"stim\">5</p>", "key_press": -1, "trial_type": "single-stim", "trial_index": 219, "time_elapsed": 3729167, "internal_node_id": "0.0-160.0-5.0"}}, {"uniqueid": "MTK0718:3WI0P0II62ZMFI65FN6EVY5B519RD9", "current_trial": 220, "dateTime": 1512679833329, "trialdata": {"rt": -1, "stimulus": "<p id=\"stim\">4</p>", "key_press": -1, "trial_type": "single-stim", "trial_index": 220, "time_elapsed": 3730169, "internal_node_id": "0.0-160.0-6.0"}}, {"uniqueid": "MTK0718:3WI0P0II62ZMFI65FN6EVY5B519RD9", "current_trial": 221, "dateTime": 1512679834332, "trialdata": {"rt": -1, "stimulus": "<p id=\"stim\">3</p>", "key_press": -1, "trial_type": "single-stim", "trial_index": 221, "time_elapsed": 3731171, "internal_node_id": "0.0-160.0-7.0"}}, {"uniqueid": "MTK0718:3WI0P0II62ZMFI65FN6EVY5B519RD9", "current_trial": 222, "dateTime": 1512679835332, "trialdata": {"rt": -1, "stimulus": "<p id=\"stim\">2</p>", "key_press": -1, "trial_type": "single-stim", "trial_index": 222, "time_elapsed": 3732172, "internal_node_id": "0.0-160.0-8.0"}}, {"uniqueid": "MTK0718:3WI0P0II62ZMFI65FN6EVY5B519RD9", "current_trial": 223, "dateTime": 1512679836334, "trialdata": {"rt": -1, "stimulus": "<p id=\"stim\">1</p>", "key_press": -1, "trial_type": "single-stim", "trial_index": 223, "time_elapsed": 3733174, "internal_node_id": "0.0-160.0-9.0"}}, {"uniqueid": "MTK0718:3WI0P0II62ZMFI65FN6EVY5B519RD9", "current_trial": 224, "dateTime": 1512679837836, "trialdata": {"rt": -1, "stimulus": "<p id=\"stim\">+</p>", "key_press": -1, "type": "FIXATION", "trial_type": "single-stim", "trial_index": 224, "time_elapsed": 3734676, "internal_node_id": "0.0-161.0-0.0"}}, {"uniqueid": "MTK0718:3WI0P0II62ZMFI65FN6EVY5B519RD9", "current_trial": 225, "dateTime": 1512679839437, "trialdata": {"rt": -1, "stimulus": "<p id=\"stim\">DENIM</p>", "key_press": -1, "type": "PRES_VIS", "word": "denim", "wordID": 445, "conditions": [12, 1600, "v", 12000], "trial": 6, "serialpos": 0, "trial_type": "single-stim", "trial_index": 225, "time_elapsed": 3736277, "internal_node_id": "0.0-162.0"}}, {"uniqueid": "MTK0718:3WI0P0II62ZMFI65FN6EVY5B519RD9", "current_trial": 226, "dateTime": 1512679842229, "trialdata": {"rt": -1, "stimulus": "<p id=\"stim\">LUMBER</p>", "key_press": -1, "type": "PRES_VIS", "word": "lumber", "wordID": 847, "conditions": [12, 1600, "v", 12000], "trial": 6, "serialpos": 1, "trial_type": "single-stim", "trial_index": 226, "time_elapsed": 3739069, "internal_node_id": "0.0-163.0"}}, {"uniqueid": "MTK0718:3WI0P0II62ZMFI65FN6EVY5B519RD9", "current_trial": 227, "dateTime": 1512679844793, "trialdata": {"rt": -1, "stimulus": "<p id=\"stim\">RECEIPT</p>", "key_press": -1, "type": "PRES_VIS", "word": "receipt", "wordID": 1172, "conditions": [12, 1600, "v", 12000], "trial": 6, "serialpos": 2, "trial_type": "single-stim", "trial_index": 227, "time_elapsed": 3741633, "internal_node_id": "0.0-164.0"}}, {"uniqueid": "MTK0718:3WI0P0II62ZMFI65FN6EVY5B519RD9", "current_trial": 228, "dateTime": 1512679847401, "trialdata": {"rt": -1, "stimulus": "<p id=\"stim\">BLOUSE</p>", "key_press": -1, "type": "PRES_VIS", "word": "blouse", "wordID": 138, "conditions": [12, 1600, "v", 12000], "trial": 6, "serialpos": 3, "trial_type": "single-stim", "trial_index": 228, "time_elapsed": 3744241, "internal_node_id": "0.0-165.0"}}, {"uniqueid": "MTK0718:3WI0P0II62ZMFI65FN6EVY5B519RD9", "current_trial": 229, "dateTime": 1512679850149, "trialdata": {"rt": -1, "stimulus": "<p id=\"stim\">FIREPLACE</p>", "key_press": -1, "type": "PRES_VIS", "word": "fireplace", "wordID": 569, "conditions": [12, 1600, "v", 12000], "trial": 6, "serialpos": 4, "trial_type": "single-stim", "trial_index": 229, "time_elapsed": 3746989, "internal_node_id": "0.0-166.0"}}, {"uniqueid": "MTK0718:3WI0P0II62ZMFI65FN6EVY5B519RD9", "current_trial": 230, "dateTime": 1512679852795, "trialdata": {"rt": -1, "stimulus": "<p id=\"stim\">SUNSET</p>", "key_press": -1, "type": "PRES_VIS", "word": "sunset", "wordID": 1407, "conditions": [12, 1600, "v", 12000], "trial": 6, "serialpos": 5, "trial_type": "single-stim", "trial_index": 230, "time_elapsed": 3749635, "internal_node_id": "0.0-167.0"}}, {"uniqueid": "MTK0718:3WI0P0II62ZMFI65FN6EVY5B519RD9", "current_trial": 231, "dateTime": 1512679855474, "trialdata": {"rt": -1, "stimulus": "<p id=\"stim\">SUNRISE</p>", "key_press": -1, "type": "PRES_VIS", "word": "sunrise", "wordID": 1406, "conditions": [12, 1600, "v", 12000], "trial": 6, "serialpos": 6, "trial_type": "single-stim", "trial_index": 231, "time_elapsed": 3752314, "internal_node_id": "0.0-168.0"}}, {"uniqueid": "MTK0718:3WI0P0II62ZMFI65FN6EVY5B519RD9", "current_trial": 232, "dateTime": 1512679858234, "trialdata": {"rt": -1, "stimulus": "<p id=\"stim\">CHAMPAGNE</p>", "key_press": -1, "type": "PRES_VIS", "word": "champagne", "wordID": 277, "conditions": [12, 1600, "v", 12000], "trial": 6, "serialpos": 7, "trial_type": "single-stim", "trial_index": 232, "time_elapsed": 3755074, "internal_node_id": "0.0-169.0"}}, {"uniqueid": "MTK0718:3WI0P0II62ZMFI65FN6EVY5B519RD9", "current_trial": 233, "dateTime": 1512679860751, "trialdata": {"rt": -1, "stimulus": "<p id=\"stim\">SPIDER</p>", "key_press": -1, "type": "PRES_VIS", "word": "spider", "wordID": 1350, "conditions": [12, 1600, "v", 12000], "trial": 6, "serialpos": 8, "trial_type": "single-stim", "trial_index": 233, "time_elapsed": 3757591, "internal_node_id": "0.0-170.0"}}, {"uniqueid": "MTK0718:3WI0P0II62ZMFI65FN6EVY5B519RD9", "current_trial": 234, "dateTime": 1512679863246, "trialdata": {"rt": -1, "stimulus": "<p id=\"stim\">CHIPMUNK</p>", "key_press": -1, "type": "PRES_VIS", "word": "chipmunk", "wordID": 303, "conditions": [12, 1600, "v", 12000], "trial": 6, "serialpos": 9, "trial_type": "single-stim", "trial_index": 234, "time_elapsed": 3760086, "internal_node_id": "0.0-171.0"}}, {"uniqueid": "MTK0718:3WI0P0II62ZMFI65FN6EVY5B519RD9", "current_trial": 235, "dateTime": 1512679865978, "trialdata": {"rt": -1, "stimulus": "<p id=\"stim\">SALT</p>", "key_press": -1, "type": "PRES_VIS", "word": "salt", "wordID": 1228, "conditions": [12, 1600, "v", 12000], "trial": 6, "serialpos": 10, "trial_type": "single-stim", "trial_index": 235, "time_elapsed": 3762815, "internal_node_id": "0.0-172.0"}}, {"uniqueid": "MTK0718:3WI0P0II62ZMFI65FN6EVY5B519RD9", "current_trial": 236, "dateTime": 1512679868728, "trialdata": {"rt": -1, "stimulus": "<p id=\"stim\">EYELASH</p>", "key_press": -1, "type": "PRES_VIS", "word": "eyelash", "wordID": 545, "conditions": [12, 1600, "v", 12000], "trial": 6, "serialpos": 11, "trial_type": "single-stim", "trial_index": 236, "time_elapsed": 3765568, "internal_node_id": "0.0-173.0"}}, {"uniqueid": "MTK0718:3WI0P0II62ZMFI65FN6EVY5B519RD9", "current_trial": 237, "dateTime": 1512679870967, "trialdata": {"rt": -1, "stimulus": "", "key_press": -1, "type": "PRE_RECALL_DELAY", "trial_type": "single-stim", "trial_index": 237, "time_elapsed": 3767806, "internal_node_id": "0.0-174.0-0.0"}}, {"uniqueid": "MTK0718:3WI0P0II62ZMFI65FN6EVY5B519RD9", "current_trial": 238, "dateTime": 1512679871468, "trialdata": {"rt": -1000, "stimulus": "/static/audio/400Hz.wav", "key_press": -1, "type": "PRE_RECALL_ALERT", "trial_type": "single-audio", "trial_index": 238, "time_elapsed": 3768308, "internal_node_id": "0.0-175.0"}}, {"uniqueid": "MTK0718:3WI0P0II62ZMFI65FN6EVY5B519RD9", "current_trial": 239, "dateTime": 1512679931473, "trialdata": {"rt": [24756, 28074, 29753, 32132, 34765, 36222, 39507, 40434, 44978, 46688], "recwords": ["denim", "lumber", "receipt", "champagne", "bl", "blouse", "sunset", "sunrise", "spider", "chipmunk"], "type": "FREE_RECALL", "conditions": [12, 1600, "v", 12000], "trial": 6, "trial_type": "free-recall", "trial_index": 239, "time_elapsed": 3828310, "internal_node_id": "0.0-176.0-0.0"}}, {"uniqueid": "MTK0718:3WI0P0II62ZMFI65FN6EVY5B519RD9", "current_trial": 240, "dateTime": 1512680142035, "trialdata": {"rt": 208559, "key_press": 32, "type": "INSTRUCTIONS", "trial_type": "text", "trial_index": 240, "time_elapsed": 4038874, "internal_node_id": "0.0-177.0"}}, {"uniqueid": "MTK0718:3WI0P0II62ZMFI65FN6EVY5B519RD9", "current_trial": 241, "dateTime": 1512680168037, "trialdata": {"rt": [4288, 6010, 8328, 10614, 11918, 13312, 15001, 17404, 19712], "responses": ["13", "15", "27", "21", "8", "12", "12", "17", "21"], "num1": [9, 5, 9, 8, 1, 7, 2, 7, 8, 3], "num2": [3, 4, 9, 5, 1, 2, 1, 5, 8, 6], "num3": [2, 9, 9, 8, 6, 3, 9, 5, 5, 8], "type": "DISTRACTOR", "conditions": [12, 800, "a", 24000], "trial": 7, "trial_type": "math-distractor", "trial_index": 241, "time_elapsed": 4064877, "internal_node_id": "0.0-178.0"}}, {"uniqueid": "MTK0718:3WI0P0II62ZMFI65FN6EVY5B519RD9", "current_trial": 242, "dateTime": 1512680171039, "trialdata": {"rt": -1, "stimulus": "<p id=\"stim\">10</p>", "key_press": -1, "trial_type": "single-stim", "trial_index": 242, "time_elapsed": 4067879, "internal_node_id": "0.0-179.0-0.0"}}, {"uniqueid": "MTK0718:3WI0P0II62ZMFI65FN6EVY5B519RD9", "current_trial": 243, "dateTime": 1512680172041, "trialdata": {"rt": -1, "stimulus": "<p id=\"stim\">9</p>", "key_press": -1, "trial_type": "single-stim", "trial_index": 243, "time_elapsed": 4068881, "internal_node_id": "0.0-179.0-1.0"}}, {"uniqueid": "MTK0718:3WI0P0II62ZMFI65FN6EVY5B519RD9", "current_trial": 244, "dateTime": 1512680173041, "trialdata": {"rt": -1, "stimulus": "<p id=\"stim\">8</p>", "key_press": -1, "trial_type": "single-stim", "trial_index": 244, "time_elapsed": 4069881, "internal_node_id": "0.0-179.0-2.0"}}, {"uniqueid": "MTK0718:3WI0P0II62ZMFI65FN6EVY5B519RD9", "current_trial": 245, "dateTime": 1512680174043, "trialdata": {"rt": -1, "stimulus": "<p id=\"stim\">7</p>", "key_press": -1, "trial_type": "single-stim", "trial_index": 245, "time_elapsed": 4070882, "internal_node_id": "0.0-179.0-3.0"}}, {"uniqueid": "MTK0718:3WI0P0II62ZMFI65FN6EVY5B519RD9", "current_trial": 246, "dateTime": 1512680175044, "trialdata": {"rt": -1, "stimulus": "<p id=\"stim\">6</p>", "key_press": -1, "trial_type": "single-stim", "trial_index": 246, "time_elapsed": 4071884, "internal_node_id": "0.0-179.0-4.0"}}, {"uniqueid": "MTK0718:3WI0P0II62ZMFI65FN6EVY5B519RD9", "current_trial": 247, "dateTime": 1512680176045, "trialdata": {"rt": -1, "stimulus": "<p id=\"stim\">5</p>", "key_press": -1, "trial_type": "single-stim", "trial_index": 247, "time_elapsed": 4072885, "internal_node_id": "0.0-179.0-5.0"}}, {"uniqueid": "MTK0718:3WI0P0II62ZMFI65FN6EVY5B519RD9", "current_trial": 248, "dateTime": 1512680177045, "trialdata": {"rt": -1, "stimulus": "<p id=\"stim\">4</p>", "key_press": -1, "trial_type": "single-stim", "trial_index": 248, "time_elapsed": 4073885, "internal_node_id": "0.0-179.0-6.0"}}, {"uniqueid": "MTK0718:3WI0P0II62ZMFI65FN6EVY5B519RD9", "current_trial": 249, "dateTime": 1512680178046, "trialdata": {"rt": -1, "stimulus": "<p id=\"stim\">3</p>", "key_press": -1, "trial_type": "single-stim", "trial_index": 249, "time_elapsed": 4074886, "internal_node_id": "0.0-179.0-7.0"}}, {"uniqueid": "MTK0718:3WI0P0II62ZMFI65FN6EVY5B519RD9", "current_trial": 250, "dateTime": 1512680179048, "trialdata": {"rt": -1, "stimulus": "<p id=\"stim\">2</p>", "key_press": -1, "trial_type": "single-stim", "trial_index": 250, "time_elapsed": 4075888, "internal_node_id": "0.0-179.0-8.0"}}, {"uniqueid": "MTK0718:3WI0P0II62ZMFI65FN6EVY5B519RD9", "current_trial": 251, "dateTime": 1512680180049, "trialdata": {"rt": -1, "stimulus": "<p id=\"stim\">1</p>", "key_press": -1, "trial_type": "single-stim", "trial_index": 251, "time_elapsed": 4076888, "internal_node_id": "0.0-179.0-9.0"}}, {"uniqueid": "MTK0718:3WI0P0II62ZMFI65FN6EVY5B519RD9", "current_trial": 252, "dateTime": 1512680181550, "trialdata": {"rt": -1, "stimulus": "<p id=\"stim\">+</p>", "key_press": -1, "type": "FIXATION", "trial_type": "single-stim", "trial_index": 252, "time_elapsed": 4078390, "internal_node_id": "0.0-180.0-0.0"}}, {"uniqueid": "MTK0718:3WI0P0II62ZMFI65FN6EVY5B519RD9", "current_trial": 253, "dateTime": 1512680183268, "trialdata": {"rt": -1000, "stimulus": "/static/audio/wordpool/TRENCH.wav", "key_press": -1, "type": "PRES_AUD", "word": "trench", "wordID": 1502, "conditions": [12, 800, "a", 24000], "trial": 7, "serialpos": 0, "trial_type": "single-audio", "trial_index": 253, "time_elapsed": 4080108, "internal_node_id": "0.0-181.0"}}, {"uniqueid": "MTK0718:3WI0P0II62ZMFI65FN6EVY5B519RD9", "current_trial": 254, "dateTime": 1512680185258, "trialdata": {"rt": -1000, "stimulus": "/static/audio/wordpool/CUSTARD.wav", "key_press": -1, "type": "PRES_AUD", "word": "custard", "wordID": 428, "conditions": [12, 800, "a", 24000], "trial": 7, "serialpos": 1, "trial_type": "single-audio", "trial_index": 254, "time_elapsed": 4082098, "internal_node_id": "0.0-182.0"}}, {"uniqueid": "MTK0718:3WI0P0II62ZMFI65FN6EVY5B519RD9", "current_trial": 255, "dateTime": 1512680186902, "trialdata": {"rt": -1000, "stimulus": "/static/audio/wordpool/SIDEWALK.wav", "key_press": -1, "type": "PRES_AUD", "word": "sidewalk", "wordID": 1302, "conditions": [12, 800, "a", 24000], "trial": 7, "serialpos": 2, "trial_type": "single-audio", "trial_index": 255, "time_elapsed": 4083742, "internal_node_id": "0.0-183.0"}}, {"uniqueid": "MTK0718:3WI0P0II62ZMFI65FN6EVY5B519RD9", "current_trial": 256, "dateTime": 1512680188580, "trialdata": {"rt": -1000, "stimulus": "/static/audio/wordpool/RIFLE.wav", "key_press": -1, "type": "PRES_AUD", "word": "rifle", "wordID": 1191, "conditions": [12, 800, "a", 24000], "trial": 7, "serialpos": 3, "trial_type": "single-audio", "trial_index": 256, "time_elapsed": 4085420, "internal_node_id": "0.0-184.0"}}, {"uniqueid": "MTK0718:3WI0P0II62ZMFI65FN6EVY5B519RD9", "current_trial": 257, "dateTime": 1512680190276, "trialdata": {"rt": -1000, "stimulus": "/static/audio/wordpool/PEBBLE.wav", "key_press": -1, "type": "PRES_AUD", "word": "pebble", "wordID": 1034, "conditions": [12, 800, "a", 24000], "trial": 7, "serialpos": 4, "trial_type": "single-audio", "trial_index": 257, "time_elapsed": 4087116, "internal_node_id": "0.0-185.0"}}, {"uniqueid": "MTK0718:3WI0P0II62ZMFI65FN6EVY5B519RD9", "current_trial": 258, "dateTime": 1512680192179, "trialdata": {"rt": -1000, "stimulus": "/static/audio/wordpool/SHORTCAKE.wav", "key_press": -1, "type": "PRES_AUD", "word": "shortcake", "wordID": 1291, "conditions": [12, 800, "a", 24000], "trial": 7, "serialpos": 5, "trial_type": "single-audio", "trial_index": 258, "time_elapsed": 4089019, "internal_node_id": "0.0-186.0"}}, {"uniqueid": "MTK0718:3WI0P0II62ZMFI65FN6EVY5B519RD9", "current_trial": 259, "dateTime": 1512680193888, "trialdata": {"rt": -1000, "stimulus": "/static/audio/wordpool/POLICE.wav", "key_press": -1, "type": "PRES_AUD", "word": "police", "wordID": 1097, "conditions": [12, 800, "a", 24000], "trial": 7, "serialpos": 6, "trial_type": "single-audio", "trial_index": 259, "time_elapsed": 4090728, "internal_node_id": "0.0-187.0"}}, {"uniqueid": "MTK0718:3WI0P0II62ZMFI65FN6EVY5B519RD9", "current_trial": 260, "dateTime": 1512680195535, "trialdata": {"rt": -1000, "stimulus": "/static/audio/wordpool/NURSE.wav", "key_press": -1, "type": "PRES_AUD", "word": "nurse", "wordID": 962, "conditions": [12, 800, "a", 24000], "trial": 7, "serialpos": 7, "trial_type": "single-audio", "trial_index": 260, "time_elapsed": 4092375, "internal_node_id": "0.0-188.0"}}, {"uniqueid": "MTK0718:3WI0P0II62ZMFI65FN6EVY5B519RD9", "current_trial": 261, "dateTime": 1512680197476, "trialdata": {"rt": -1000, "stimulus": "/static/audio/wordpool/FLOWER.wav", "key_press": -1, "type": "PRES_AUD", "word": "flower", "wordID": 583, "conditions": [12, 800, "a", 24000], "trial": 7, "serialpos": 8, "trial_type": "single-audio", "trial_index": 261, "time_elapsed": 4094316, "internal_node_id": "0.0-189.0"}}, {"uniqueid": "MTK0718:3WI0P0II62ZMFI65FN6EVY5B519RD9", "current_trial": 262, "dateTime": 1512680199420, "trialdata": {"rt": -1000, "stimulus": "/static/audio/wordpool/COUCH.wav", "key_press": -1, "type": "PRES_AUD", "word": "couch", "wordID": 385, "conditions": [12, 800, "a", 24000], "trial": 7, "serialpos": 9, "trial_type": "single-audio", "trial_index": 262, "time_elapsed": 4096260, "internal_node_id": "0.0-190.0"}}, {"uniqueid": "MTK0718:3WI0P0II62ZMFI65FN6EVY5B519RD9", "current_trial": 263, "dateTime": 1512680201133, "trialdata": {"rt": -1000, "stimulus": "/static/audio/wordpool/MATTRESS.wav", "key_press": -1, "type": "PRES_AUD", "word": "mattress", "wordID": 878, "conditions": [12, 800, "a", 24000], "trial": 7, "serialpos": 10, "trial_type": "single-audio", "trial_index": 263, "time_elapsed": 4097973, "internal_node_id": "0.0-191.0"}}, {"uniqueid": "MTK0718:3WI0P0II62ZMFI65FN6EVY5B519RD9", "current_trial": 264, "dateTime": 1512680202767, "trialdata": {"rt": -1000, "stimulus": "/static/audio/wordpool/SHOULDER.wav", "key_press": -1, "type": "PRES_AUD", "word": "shoulder", "wordID": 1293, "conditions": [12, 800, "a", 24000], "trial": 7, "serialpos": 11, "trial_type": "single-audio", "trial_index": 264, "time_elapsed": 4099607, "internal_node_id": "0.0-192.0"}}, {"uniqueid": "MTK0718:3WI0P0II62ZMFI65FN6EVY5B519RD9", "current_trial": 265, "dateTime": 1512680204029, "trialdata": {"rt": -1, "stimulus": "", "key_press": -1, "type": "PRE_RECALL_DELAY", "trial_type": "single-stim", "trial_index": 265, "time_elapsed": 4100869, "internal_node_id": "0.0-193.0-0.0"}}, {"uniqueid": "MTK0718:3WI0P0II62ZMFI65FN6EVY5B519RD9", "current_trial": 266, "dateTime": 1512680204531, "trialdata": {"rt": -1000, "stimulus": "/static/audio/400Hz.wav", "key_press": -1, "type": "PRE_RECALL_ALERT", "trial_type": "single-audio", "trial_index": 266, "time_elapsed": 4101371, "internal_node_id": "0.0-194.0"}}, {"uniqueid": "MTK0718:3WI0P0II62ZMFI65FN6EVY5B519RD9", "current_trial": 267, "dateTime": 1512680264583, "trialdata": {"rt": [1977, 3824, 7473, 8276, 12089, 16691, 17494, 18213, 21848, 22697, 24151, 28959, 30045], "recwords": ["trench", "sidewalk", "custard", "rifle", "pebble", "shortcake", "lease", "nurse", "flower", "courch", "couch", "matress", "shoulder"], "type": "FREE_RECALL", "conditions": [12, 800, "a", 24000], "trial": 7, "trial_type": "free-recall", "trial_index": 267, "time_elapsed": 4161418, "internal_node_id": "0.0-195.0-0.0"}}, {"uniqueid": "MTK0718:3WI0P0II62ZMFI65FN6EVY5B519RD9", "current_trial": 268, "dateTime": 1512680272313, "trialdata": {"rt": 4735, "key_press": 32, "type": "INSTRUCTIONS", "trial_type": "text", "trial_index": 268, "time_elapsed": 4169153, "internal_node_id": "0.0-196.0"}}, {"uniqueid": "MTK0718:3WI0P0II62ZMFI65FN6EVY5B519RD9", "current_trial": 269, "dateTime": 1512680298317, "trialdata": {"rt": [1533, 2777, 6000, 7977, 9213, 11971, 14851, 20475], "responses": ["6", "12", "16", "17", "11", "15", "11", "18"], "num1": [1, 2, 2, 9, 1, 2, 4, 9, 7], "num2": [2, 6, 6, 9, 4, 6, 3, 7, 5], "num3": [3, 4, 8, 8, 6, 7, 4, 2, 7], "type": "DISTRACTOR", "conditions": [24, 1600, "v", 24000], "trial": 8, "trial_type": "math-distractor", "trial_index": 269, "time_elapsed": 4195156, "internal_node_id": "0.0-197.0"}}, {"uniqueid": "MTK0718:3WI0P0II62ZMFI65FN6EVY5B519RD9", "current_trial": 270, "dateTime": 1512680301319, "trialdata": {"rt": -1, "stimulus": "<p id=\"stim\">10</p>", "key_press": -1, "trial_type": "single-stim", "trial_index": 270, "time_elapsed": 4198159, "internal_node_id": "0.0-198.0-0.0"}}, {"uniqueid": "MTK0718:3WI0P0II62ZMFI65FN6EVY5B519RD9", "current_trial": 271, "dateTime": 1512680302320, "trialdata": {"rt": -1, "stimulus": "<p id=\"stim\">9</p>", "key_press": -1, "trial_type": "single-stim", "trial_index": 271, "time_elapsed": 4199160, "internal_node_id": "0.0-198.0-1.0"}}, {"uniqueid": "MTK0718:3WI0P0II62ZMFI65FN6EVY5B519RD9", "current_trial": 272, "dateTime": 1512680303322, "trialdata": {"rt": -1, "stimulus": "<p id=\"stim\">8</p>", "key_press": -1, "trial_type": "single-stim", "trial_index": 272, "time_elapsed": 4200162, "internal_node_id": "0.0-198.0-2.0"}}, {"uniqueid": "MTK0718:3WI0P0II62ZMFI65FN6EVY5B519RD9", "current_trial": 273, "dateTime": 1512680304324, "trialdata": 