{"condition": 0, "counterbalance": 586, "assignmentId": "3IRIK4HM3BRJO727N3850XWXLBH6CF", "workerId": "MTK0323", "hitId": "3TZDZ3Y0JSDKW3WDFBHVER8OUVX192", "currenttrial": 626, "bonus": 0, "data": [{"uniqueid": "MTK0323:3IRIK4HM3BRJO727N3850XWXLBH6CF", "current_trial": 0, "dateTime": 1510707441958, "trialdata": {"rt": 432, "key_press": 17, "type": "INSTRUCTIONS", "trial_type": "text", "trial_index": 0, "time_elapsed": 436, "internal_node_id": "0.0-0.0"}}, {"uniqueid": "MTK0323:3IRIK4HM3BRJO727N3850XWXLBH6CF", "current_trial": 1, "dateTime": 1510707531865, "trialdata": {"rt": 89906, "key_press": 13, "type": "INSTRUCTIONS", "trial_type": "text", "trial_index": 1, "time_elapsed": 90343, "internal_node_id": "0.0-1.0"}}, {"uniqueid": "MTK0323:3IRIK4HM3BRJO727N3850XWXLBH6CF", "current_trial": 2, "dateTime": 1510707545175, "trialdata": {"rt": [13305], "responses": ["ocean"], "type": "AUDIO_TEST", "trial_type": "audio-test", "trial_index": 2, "time_elapsed": 103653, "internal_node_id": "0.0-2.0"}}, {"uniqueid": "MTK0323:3IRIK4HM3BRJO727N3850XWXLBH6CF", "current_trial": 3, "dateTime": 1510707550255, "trialdata": {"rt": [5077], "responses": ["crystal"], "type": "AUDIO_TEST", "trial_type": "audio-test", "trial_index": 3, "time_elapsed": 108733, "internal_node_id": "0.0-3.0"}}, {"uniqueid": "MTK0323:3IRIK4HM3BRJO727N3850XWXLBH6CF", "current_trial": 4, "dateTime": 1510707555420, "trialdata": {"rt": [5161], "responses": ["spice"], "type": "AUDIO_TEST", "trial_type": "audio-test", "trial_index": 4, "time_elapsed": 113898, "internal_node_id": "0.0-4.0"}}, {"uniqueid": "MTK0323:3IRIK4HM3BRJO727N3850XWXLBH6CF", "current_trial": 5, "dateTime": 1510707579244, "trialdata": {"rt": 23063, "responses": "{\"Q0\":\"10:30\",\"Q1\":\"5:30\",\"Q2\":\"5\"}", "type": "SLEEP_SURVEY", "trial_type": "survey-text", "trial_index": 5, "time_elapsed": 137722, "internal_node_id": "0.0-5.0"}}, {"uniqueid": "MTK0323:3IRIK4HM3BRJO727N3850XWXLBH6CF", "current_trial": 6, "dateTime": 1510707600354, "trialdata": {"rt": 20103, "key_press": 32, "type": "INSTRUCTIONS", "trial_type": "text", "trial_index": 6, "time_elapsed": 158832, "internal_node_id": "0.0-6.0"}}, {"uniqueid": "MTK0323:3IRIK4HM3BRJO727N3850XWXLBH6CF", "current_trial": 7, "dateTime": 1510707612388, "trialdata": {"rt": 11530, "key_press": 13, "type": "INSTRUCTIONS", "trial_type": "text", "trial_index": 7, "time_elapsed": 170866, "internal_node_id": "0.0-7.0"}}, {"uniqueid": "MTK0323:3IRIK4HM3BRJO727N3850XWXLBH6CF", "current_trial": 8, "dateTime": 1510707616511, "trialdata": {"rt": 3617, "key_press": 13, "type": "INSTRUCTIONS", "trial_type": "text", "trial_index": 8, "time_elapsed": 174989, "internal_node_id": "0.0-8.0"}}, {"uniqueid": "MTK0323:3IRIK4HM3BRJO727N3850XWXLBH6CF", "current_trial": 9, "dateTime": 1510707635556, "trialdata": {"rt": [3571, 7172, 10134, 13012, 15154, 17329], "responses": ["14", "6", "15", "19", "18", "14"], "num1": [2, 1, 3, 9, 8, 7, 1], "num2": [5, 3, 4, 8, 2, 4, 7], "num3": [7, 2, 8, 2, 8, 3, 7], "type": "DISTRACTOR", "conditions": [18, 1200, "v", 18000], "trial": 0, "trial_type": "math-distractor", "trial_index": 9, "time_elapsed": 194034, "internal_node_id": "0.0-9.0"}}, {"uniqueid": "MTK0323:3IRIK4HM3BRJO727N3850XWXLBH6CF", "current_trial": 10, "dateTime": 1510707638565, "trialdata": {"rt": -1, "stimulus": "<p id=\"stim\">10</p>", "key_press": -1, "trial_type": "single-stim", "trial_index": 10, "time_elapsed": 197043, "internal_node_id": "0.0-10.0-0.0"}}, {"uniqueid": "MTK0323:3IRIK4HM3BRJO727N3850XWXLBH6CF", "current_trial": 11, "dateTime": 1510707639570, "trialdata": {"rt": -1, "stimulus": "<p id=\"stim\">9</p>", "key_press": -1, "trial_type": "single-stim", "trial_index": 11, "time_elapsed": 198048, "internal_node_id": "0.0-10.0-1.0"}}, {"uniqueid": "MTK0323:3IRIK4HM3BRJO727N3850XWXLBH6CF", "current_trial": 12, "dateTime": 1510707640574, "trialdata": {"rt": -1, "stimulus": "<p id=\"stim\">8</p>", "key_press": -1, "trial_type": "single-stim", "trial_index": 12, "time_elapsed": 199052, "internal_node_id": "0.0-10.0-2.0"}}, {"uniqueid": "MTK0323:3IRIK4HM3BRJO727N3850XWXLBH6CF", "current_trial": 13, "dateTime": 1510707641577, "trialdata": {"rt": -1, "stimulus": "<p id=\"stim\">7</p>", "key_press": -1, "trial_type": "single-stim", "trial_index": 13, "time_elapsed": 200055, "internal_node_id": "0.0-10.0-3.0"}}, {"uniqueid": "MTK0323:3IRIK4HM3BRJO727N3850XWXLBH6CF", "current_trial": 14, "dateTime": 1510707642583, "trialdata": {"rt": -1, "stimulus": "<p id=\"stim\">6</p>", "key_press": -1, "trial_type": "single-stim", "trial_index": 14, "time_elapsed": 201061, "internal_node_id": "0.0-10.0-4.0"}}, {"uniqueid": "MTK0323:3IRIK4HM3BRJO727N3850XWXLBH6CF", "current_trial": 15, "dateTime": 1510707643591, "trialdata": {"rt": -1, "stimulus": "<p id=\"stim\">5</p>", "key_press": -1, "trial_type": "single-stim", "trial_index": 15, "time_elapsed": 202069, "internal_node_id": "0.0-10.0-5.0"}}, {"uniqueid": "MTK0323:3IRIK4HM3BRJO727N3850XWXLBH6CF", "current_trial": 16, "dateTime": 1510707644596, "trialdata": {"rt": -1, "stimulus": "<p id=\"stim\">4</p>", "key_press": -1, "trial_type": "single-stim", "trial_index": 16, "time_elapsed": 203074, "internal_node_id": "0.0-10.0-6.0"}}, {"uniqueid": "MTK0323:3IRIK4HM3BRJO727N3850XWXLBH6CF", "current_trial": 17, "dateTime": 1510707645601, "trialdata": {"rt": -1, "stimulus": "<p id=\"stim\">3</p>", "key_press": -1, "trial_type": "single-stim", "trial_index": 17, "time_elapsed": 204079, "internal_node_id": "0.0-10.0-7.0"}}, {"uniqueid": "MTK0323:3IRIK4HM3BRJO727N3850XWXLBH6CF", "current_trial": 18, "dateTime": 1510707646605, "trialdata": {"rt": -1, "stimulus": "<p id=\"stim\">2</p>", "key_press": -1, "trial_type": "single-stim", "trial_index": 18, "time_elapsed": 205083, "internal_node_id": "0.0-10.0-8.0"}}, {"uniqueid": "MTK0323:3IRIK4HM3BRJO727N3850XWXLBH6CF", "current_trial": 19, "dateTime": 1510707647609, "trialdata": {"rt": -1, "stimulus": "<p id=\"stim\">1</p>", "key_press": -1, "trial_type": "single-stim", "trial_index": 19, "time_elapsed": 206087, "internal_node_id": "0.0-10.0-9.0"}}, {"uniqueid": "MTK0323:3IRIK4HM3BRJO727N3850XWXLBH6CF", "current_trial": 20, "dateTime": 1510707649115, "trialdata": {"rt": -1, "stimulus": "<p id=\"stim\">+</p>", "key_press": -1, "type": "FIXATION", "trial_type": "single-stim", "trial_index": 20, "time_elapsed": 207593, "internal_node_id": "0.0-11.0-0.0"}}, {"uniqueid": "MTK0323:3IRIK4HM3BRJO727N3850XWXLBH6CF", "current_trial": 21, "dateTime": 1510707650318, "trialdata": {"rt": -1, "stimulus": "<p id=\"stim\">ACTOR</p>", "key_press": -1, "type": "PRES_VIS", "word": "actor", "wordID": 4, "conditions": [18, 1200, "v", 18000], "trial": 0, "serialpos": 0, "trial_type": "single-stim", "trial_index": 21, "time_elapsed": 208796, "internal_node_id": "0.0-12.0"}}, {"uniqueid": "MTK0323:3IRIK4HM3BRJO727N3850XWXLBH6CF", "current_trial": 22, "dateTime": 1510707652398, "trialdata": {"rt": -1, "stimulus": "<p id=\"stim\">BABY</p>", "key_press": -1, "type": "PRES_VIS", "word": "baby", "wordID": 63, "conditions": [18, 1200, "v", 18000], "trial": 0, "serialpos": 1, "trial_type": "single-stim", "trial_index": 22, "time_elapsed": 210876, "internal_node_id": "0.0-13.0"}}, {"uniqueid": "MTK0323:3IRIK4HM3BRJO727N3850XWXLBH6CF", "current_trial": 23, "dateTime": 1510707654688, "trialdata": {"rt": -1, "stimulus": "<p id=\"stim\">KIDNEY</p>", "key_press": -1, "type": "PRES_VIS", "word": "kidney", "wordID": 775, "conditions": [18, 1200, "v", 18000], "trial": 0, "serialpos": 2, "trial_type": "single-stim", "trial_index": 23, "time_elapsed": 213166, "internal_node_id": "0.0-14.0"}}, {"uniqueid": "MTK0323:3IRIK4HM3BRJO727N3850XWXLBH6CF", "current_trial": 24, "dateTime": 1510707656941, "trialdata": {"rt": -1, "stimulus": "<p id=\"stim\">VELVET</p>", "key_press": -1, "type": "PRES_VIS", "word": "velvet", "wordID": 1554, "conditions": [18, 1200, "v", 18000], "trial": 0, "serialpos": 3, "trial_type": "single-stim", "trial_index": 24, "time_elapsed": 215419, "internal_node_id": "0.0-15.0"}}, {"uniqueid": "MTK0323:3IRIK4HM3BRJO727N3850XWXLBH6CF", "current_trial": 25, "dateTime": 1510707659064, "trialdata": {"rt": -1, "stimulus": "<p id=\"stim\">POSSUM</p>", "key_press": -1, "type": "PRES_VIS", "word": "possum", "wordID": 1111, "conditions": [18, 1200, "v", 18000], "trial": 0, "serialpos": 4, "trial_type": "single-stim", "trial_index": 25, "time_elapsed": 217542, "internal_node_id": "0.0-16.0"}}, {"uniqueid": "MTK0323:3IRIK4HM3BRJO727N3850XWXLBH6CF", "current_trial": 26, "dateTime": 1510707661274, "trialdata": {"rt": -1, "stimulus": "<p id=\"stim\">CATTLE</p>", "key_press": -1, "type": "PRES_VIS", "word": "cattle", "wordID": 260, "conditions": [18, 1200, "v", 18000], "trial": 0, "serialpos": 5, "trial_type": "single-stim", "trial_index": 26, "time_elapsed": 219752, "internal_node_id": "0.0-17.0"}}, {"uniqueid": "MTK0323:3IRIK4HM3BRJO727N3850XWXLBH6CF", "current_trial": 27, "dateTime": 1510707663409, "trialdata": {"rt": -1, "stimulus": "<p id=\"stim\">SCULPTURE</p>", "key_press": -1, "type": "PRES_VIS", "word": "sculpture", "wordID": 1257, "conditions": [18, 1200, "v", 18000], "trial": 0, "serialpos": 6, "trial_type": "single-stim", "trial_index": 27, "time_elapsed": 221887, "internal_node_id": "0.0-18.0"}}, {"uniqueid": "MTK0323:3IRIK4HM3BRJO727N3850XWXLBH6CF", "current_trial": 28, "dateTime": 1510707665546, "trialdata": {"rt": -1, "stimulus": "<p id=\"stim\">FREEZER</p>", "key_press": -1, "type": "PRES_VIS", "word": "freezer", "wordID": 603, "conditions": [18, 1200, "v", 18000], "trial": 0, "serialpos": 7, "trial_type": "single-stim", "trial_index": 28, "time_elapsed": 224024, "internal_node_id": "0.0-19.0"}}, {"uniqueid": "MTK0323:3IRIK4HM3BRJO727N3850XWXLBH6CF", "current_trial": 29, "dateTime": 1510707667581, "trialdata": {"rt": -1, "stimulus": "<p id=\"stim\">PLASTER</p>", "key_press": -1, "type": "PRES_VIS", "word": "plaster", "wordID": 1084, "conditions": [18, 1200, "v", 18000], "trial": 0, "serialpos": 8, "trial_type": "single-stim", "trial_index": 29, "time_elapsed": 226059, "internal_node_id": "0.0-20.0"}}, {"uniqueid": "MTK0323:3IRIK4HM3BRJO727N3850XWXLBH6CF", "current_trial": 30, "dateTime": 1510707669866, "trialdata": {"rt": -1, "stimulus": "<p id=\"stim\">PARTNER</p>", "key_press": -1, "type": "PRES_VIS", "word": "partner", "wordID": 1016, "conditions": [18, 1200, "v", 18000], "trial": 0, "serialpos": 9, "trial_type": "single-stim", "trial_index": 30, "time_elapsed": 228344, "internal_node_id": "0.0-21.0"}}, {"uniqueid": "MTK0323:3IRIK4HM3BRJO727N3850XWXLBH6CF", "current_trial": 31, "dateTime": 1510707671926, "trialdata": {"rt": -1, "stimulus": "<p id=\"stim\">COSTUME</p>", "key_press": -1, "type": "PRES_VIS", "word": "costume", "wordID": 382, "conditions": [18, 1200, "v", 18000], "trial": 0, "serialpos": 10, "trial_type": "single-stim", "trial_index": 31, "time_elapsed": 230404, "internal_node_id": "0.0-22.0"}}, {"uniqueid": "MTK0323:3IRIK4HM3BRJO727N3850XWXLBH6CF", "current_trial": 32, "dateTime": 1510707674033, "trialdata": {"rt": -1, "stimulus": "<p id=\"stim\">AWARD</p>", "key_press": -1, "type": "PRES_VIS", "word": "award", "wordID": 62, "conditions": [18, 1200, "v", 18000], "trial": 0, "serialpos": 11, "trial_type": "single-stim", "trial_index": 32, "time_elapsed": 232511, "internal_node_id": "0.0-23.0"}}, {"uniqueid": "MTK0323:3IRIK4HM3BRJO727N3850XWXLBH6CF", "current_trial": 33, "dateTime": 1510707676202, "trialdata": {"rt": -1, "stimulus": "<p id=\"stim\">PORK</p>", "key_press": -1, "type": "PRES_VIS", "word": "pork", "wordID": 1107, "conditions": [18, 1200, "v", 18000], "trial": 0, "serialpos": 12, "trial_type": "single-stim", "trial_index": 33, "time_elapsed": 234680, "internal_node_id": "0.0-24.0"}}, {"uniqueid": "MTK0323:3IRIK4HM3BRJO727N3850XWXLBH6CF", "current_trial": 34, "dateTime": 1510707678434, "trialdata": {"rt": -1, "stimulus": "<p id=\"stim\">CROSS</p>", "key_press": -1, "type": "PRES_VIS", "word": "cross", "wordID": 412, "conditions": [18, 1200, "v", 18000], "trial": 0, "serialpos": 13, "trial_type": "single-stim", "trial_index": 34, "time_elapsed": 236912, "internal_node_id": "0.0-25.0"}}, {"uniqueid": "MTK0323:3IRIK4HM3BRJO727N3850XWXLBH6CF", "current_trial": 35, "dateTime": 1510707680776, "trialdata": {"rt": -1, "stimulus": "<p id=\"stim\">KNIFE</p>", "key_press": -1, "type": "PRES_VIS", "word": "knife", "wordID": 784, "conditions": [18, 1200, "v", 18000], "trial": 0, "serialpos": 14, "trial_type": "single-stim", "trial_index": 35, "time_elapsed": 239254, "internal_node_id": "0.0-26.0"}}, {"uniqueid": "MTK0323:3IRIK4HM3BRJO727N3850XWXLBH6CF", "current_trial": 36, "dateTime": 1510707682919, "trialdata": {"rt": -1, "stimulus": "<p id=\"stim\">LUGGAGE</p>", "key_press": -1, "type": "PRES_VIS", "word": "luggage", "wordID": 846, "conditions": [18, 1200, "v", 18000], "trial": 0, "serialpos": 15, "trial_type": "single-stim", "trial_index": 36, "time_elapsed": 241397, "internal_node_id": "0.0-27.0"}}, {"uniqueid": "MTK0323:3IRIK4HM3BRJO727N3850XWXLBH6CF", "current_trial": 37, "dateTime": 1510707685291, "trialdata": {"rt": -1, "stimulus": "<p id=\"stim\">SIBLING</p>", "key_press": -1, "type": "PRES_VIS", "word": "sibling", "wordID": 1300, "conditions": [18, 1200, "v", 18000], "trial": 0, "serialpos": 16, "trial_type": "single-stim", "trial_index": 37, "time_elapsed": 243769, "internal_node_id": "0.0-28.0"}}, {"uniqueid": "MTK0323:3IRIK4HM3BRJO727N3850XWXLBH6CF", "current_trial": 38, "dateTime": 1510707687662, "trialdata": {"rt": -1, "stimulus": "<p id=\"stim\">SNACK</p>", "key_press": -1, "type": "PRES_VIS", "word": "snack", "wordID": 1330, "conditions": [18, 1200, "v", 18000], "trial": 0, "serialpos": 17, "trial_type": "single-stim", "trial_index": 38, "time_elapsed": 246140, "internal_node_id": "0.0-29.0"}}, {"uniqueid": "MTK0323:3IRIK4HM3BRJO727N3850XWXLBH6CF", "current_trial": 39, "dateTime": 1510707690009, "trialdata": {"rt": -1, "stimulus": "", "key_press": -1, "type": "PRE_RECALL_DELAY", "trial_type": "single-stim", "trial_index": 39, "time_elapsed": 248487, "internal_node_id": "0.0-30.0-0.0"}}, {"uniqueid": "MTK0323:3IRIK4HM3BRJO727N3850XWXLBH6CF", "current_trial": 40, "dateTime": 1510707690517, "trialdata": {"rt": -1000, "stimulus": "/static/audio/400Hz.wav", "key_press": -1, "type": "PRE_RECALL_ALERT", "trial_type": "single-audio", "trial_index": 40, "time_elapsed": 248995, "internal_node_id": "0.0-31.0"}}, {"uniqueid": "MTK0323:3IRIK4HM3BRJO727N3850XWXLBH6CF", "current_trial": 41, "dateTime": 1510707750535, "trialdata": {"rt": [3077, 5592, 7578, 9274, 11603, 14223, 19823, 21757, 23225, 27593, 30813, 33686, 38109, 44698, 47537, 50321, 52106, 59785], "recwords": ["actor", "baby", "kidney", "velvet", "possum", "cattle", "scupture", "cross", "knife", "snack", "freeze", "plaster", "costume", "partner", "award", "pork", "luggage", "sibling"], "type": "FREE_RECALL", "conditions": [18, 1200, "v", 18000], "trial": 0, "trial_type": "free-recall", "trial_index": 41, "time_elapsed": 309005, "internal_node_id": "0.0-32.0-0.0"}}, {"uniqueid": "MTK0323:3IRIK4HM3BRJO727N3850XWXLBH6CF", "current_trial": 42, "dateTime": 1510707755076, "trialdata": {"rt": 2535, "key_press": 13, "type": "INSTRUCTIONS", "trial_type": "text", "trial_index": 42, "time_elapsed": 313554, "internal_node_id": "0.0-33.0"}}, {"uniqueid": "MTK0323:3IRIK4HM3BRJO727N3850XWXLBH6CF", "current_trial": 43, "dateTime": 1510707775085, "trialdata": {"rt": [3366, 8116, 10126, 12196, 14165, 16788], "responses": ["21", "18", "18", "9", "11", "16"], "num1": [9, 5, 3, 7, 1, 9, 4], "num2": [8, 8, 7, 1, 9, 5, 9], "num3": [4, 4, 8, 1, 9, 2, 1], "type": "DISTRACTOR", "conditions": [18, 1200, "a", 18000], "trial": 1, "trial_type": "math-distractor", "trial_index": 43, "time_elapsed": 333563, "internal_node_id": "0.0-34.0"}}, {"uniqueid": "MTK0323:3IRIK4HM3BRJO727N3850XWXLBH6CF", "current_trial": 44, "dateTime": 1510707778092, "trialdata": {"rt": -1, "stimulus": "<p id=\"stim\">10</p>", "key_press": -1, "trial_type": "single-stim", "trial_index": 44, "time_elapsed": 336570, "internal_node_id": "0.0-35.0-0.0"}}, {"uniqueid": "MTK0323:3IRIK4HM3BRJO727N3850XWXLBH6CF", "current_trial": 45, "dateTime": 1510707779095, "trialdata": {"rt": -1, "stimulus": "<p id=\"stim\">9</p>", "key_press": -1, "trial_type": "single-stim", "trial_index": 45, "time_elapsed": 337573, "internal_node_id": "0.0-35.0-1.0"}}, {"uniqueid": "MTK0323:3IRIK4HM3BRJO727N3850XWXLBH6CF", "current_trial": 46, "dateTime": 1510707780096, "trialdata": {"rt": -1, "stimulus": "<p id=\"stim\">8</p>", "key_press": -1, "trial_type": "single-stim", "trial_index": 46, "time_elapsed": 338574, "internal_node_id": "0.0-35.0-2.0"}}, {"uniqueid": "MTK0323:3IRIK4HM3BRJO727N3850XWXLBH6CF", "current_trial": 47, "dateTime": 1510707781099, "trialdata": {"rt": -1, "stimulus": "<p id=\"stim\">7</p>", "key_press": -1, "trial_type": "single-stim", "trial_index": 47, "time_elapsed": 339577, "internal_node_id": "0.0-35.0-3.0"}}, {"uniqueid": "MTK0323:3IRIK4HM3BRJO727N3850XWXLBH6CF", "current_trial": 48, "dateTime": 1510707782102, "trialdata": {"rt": -1, "stimulus": "<p id=\"stim\">6</p>", "key_press": -1, "trial_type": "single-stim", "trial_index": 48, "time_elapsed": 340580, "internal_node_id": "0.0-35.0-4.0"}}, {"uniqueid": "MTK0323:3IRIK4HM3BRJO727N3850XWXLBH6CF", "current_trial": 49, "dateTime": 1510707783105, "trialdata": {"rt": -1, "stimulus": "<p id=\"stim\">5</p>", "key_press": -1, "trial_type": "single-stim", "trial_index": 49, "time_elapsed": 341583, "internal_node_id": "0.0-35.0-5.0"}}, {"uniqueid": "MTK0323:3IRIK4HM3BRJO727N3850XWXLBH6CF", "current_trial": 50, "dateTime": 1510707784110, "trialdata": {"rt": -1, "stimulus": "<p id=\"stim\">4</p>", "key_press": -1, "trial_type": "single-stim", "trial_index": 50, "time_elapsed": 342588, "internal_node_id": "0.0-35.0-6.0"}}, {"uniqueid": "MTK0323:3IRIK4HM3BRJO727N3850XWXLBH6CF", "current_trial": 51, "dateTime": 1510707785114, "trialdata": {"rt": -1, "stimulus": "<p id=\"stim\">3</p>", "key_press": -1, "trial_type": "single-stim", "trial_index": 51, "time_elapsed": 343592, "internal_node_id": "0.0-35.0-7.0"}}, {"uniqueid": "MTK0323:3IRIK4HM3BRJO727N3850XWXLBH6CF", "current_trial": 52, "dateTime": 1510707786118, "trialdata": {"rt": -1, "stimulus": "<p id=\"stim\">2</p>", "key_press": -1, "trial_type": "single-stim", "trial_index": 52, "time_elapsed": 344596, "internal_node_id": "0.0-35.0-8.0"}}, {"uniqueid": "MTK0323:3IRIK4HM3BRJO727N3850XWXLBH6CF", "current_trial": 53, "dateTime": 1510707787120, "trialdata": {"rt": -1, "stimulus": "<p id=\"stim\">1</p>", "key_press": -1, "trial_type": "single-stim", "trial_index": 53, "time_elapsed": 345598, "internal_node_id": "0.0-35.0-9.0"}}, {"uniqueid": "MTK0323:3IRIK4HM3BRJO727N3850XWXLBH6CF", "current_trial": 54, "dateTime": 1510707788626, "trialdata": {"rt": -1, "stimulus": "<p id=\"stim\">+</p>", "key_press": -1, "type": "FIXATION", "trial_type": "single-stim", "trial_index": 54, "time_elapsed": 347104, "internal_node_id": "0.0-36.0-0.0"}}, {"uniqueid": "MTK0323:3IRIK4HM3BRJO727N3850XWXLBH6CF", "current_trial": 55, "dateTime": 1510707790730, "trialdata": {"rt": -1000, "stimulus": "/static/audio/wordpool/WAGON.wav", "key_press": -1, "type": "PRES_AUD", "word": "wagon", "wordID": 1577, "conditions": [18, 1200, "a", 18000], "trial": 1, "serialpos": 0, "trial_type": "single-audio", "trial_index": 55, "time_elapsed": 349207, "internal_node_id": "0.0-37.0"}}, {"uniqueid": "MTK0323:3IRIK4HM3BRJO727N3850XWXLBH6CF", "current_trial": 56, "dateTime": 1510707792951, "trialdata": {"rt": -1000, "stimulus": "/static/audio/wordpool/TORTOISE.wav", "key_press": -1, "type": "PRES_AUD", "word": "tortoise", "wordID": 1485, "conditions": [18, 1200, "a", 18000], "trial": 1, "serialpos": 1, "trial_type": "single-audio", "trial_index": 56, "time_elapsed": 351429, "internal_node_id": "0.0-38.0"}}, {"uniqueid": "MTK0323:3IRIK4HM3BRJO727N3850XWXLBH6CF", "current_trial": 57, "dateTime": 1510707795290, "trialdata": {"rt": -1000, "stimulus": "/static/audio/wordpool/NAPKIN.wav", "key_press": -1, "type": "PRES_AUD", "word": "napkin", "wordID": 936, "conditions": [18, 1200, "a", 18000], "trial": 1, "serialpos": 2, "trial_type": "single-audio", "trial_index": 57, "time_elapsed": 353768, "internal_node_id": "0.0-39.0"}}, {"uniqueid": "MTK0323:3IRIK4HM3BRJO727N3850XWXLBH6CF", "current_trial": 58, "dateTime": 1510707797330, "trialdata": {"rt": -1000, "stimulus": "/static/audio/wordpool/NECKLACE.wav", "key_press": -1, "type": "PRES_AUD", "word": "necklace", "wordID": 939, "conditions": [18, 1200, "a", 18000], "trial": 1, "serialpos": 3, "trial_type": "single-audio", "trial_index": 58, "time_elapsed": 355808, "internal_node_id": "0.0-40.0"}}, {"uniqueid": "MTK0323:3IRIK4HM3BRJO727N3850XWXLBH6CF", "current_trial": 59, "dateTime": 1510707799571, "trialdata": {"rt": -1000, "stimulus": "/static/audio/wordpool/CAFE.wav", "key_press": -1, "type": "PRES_AUD", "word": "cafe", "wordID": 215, "conditions": [18, 1200, "a", 18000], "trial": 1, "serialpos": 4, "trial_type": "single-audio", "trial_index": 59, "time_elapsed": 358048, "internal_node_id": "0.0-41.0"}}, {"uniqueid": "MTK0323:3IRIK4HM3BRJO727N3850XWXLBH6CF", "current_trial": 60, "dateTime": 1510707801797, "trialdata": {"rt": -1000, "stimulus": "/static/audio/wordpool/WASP.wav", "key_press": -1, "type": "PRES_AUD", "word": "wasp", "wordID": 1592, "conditions": [18, 1200, "a", 18000], "trial": 1, "serialpos": 5, "trial_type": "single-audio", "trial_index": 60, "time_elapsed": 360275, "internal_node_id": "0.0-42.0"}}, {"uniqueid": "MTK0323:3IRIK4HM3BRJO727N3850XWXLBH6CF", "current_trial": 61, "dateTime": 1510707803941, "trialdata": {"rt": -1000, "stimulus": "/static/audio/wordpool/POWDER.wav", "key_press": -1, "type": "PRES_AUD", "word": "powder", "wordID": 1116, "conditions": [18, 1200, "a", 18000], "trial": 1, "serialpos": 6, "trial_type": "single-audio", "trial_index": 61, "time_elapsed": 362419, "internal_node_id": "0.0-43.0"}}, {"uniqueid": "MTK0323:3IRIK4HM3BRJO727N3850XWXLBH6CF", "current_trial": 62, "dateTime": 1510707806216, "trialdata": {"rt": -1000, "stimulus": "/static/audio/wordpool/HEADBAND.wav", "key_press": -1, "type": "PRES_AUD", "word": "headband", "wordID": 695, "conditions": [18, 1200, "a", 18000], "trial": 1, "serialpos": 7, "trial_type": "single-audio", "trial_index": 62, "time_elapsed": 364693, "internal_node_id": "0.0-44.0"}}, {"uniqueid": "MTK0323:3IRIK4HM3BRJO727N3850XWXLBH6CF", "current_trial": 63, "dateTime": 1510707808617, "trialdata": {"rt": -1000, "stimulus": "/static/audio/wordpool/FOOTBALL.wav", "key_press": -1, "type": "PRES_AUD", "word": "football", "wordID": 590, "conditions": [18, 1200, "a", 18000], "trial": 1, "serialpos": 8, "trial_type": "single-audio", "trial_index": 63, "time_elapsed": 367095, "internal_node_id": "0.0-45.0"}}, {"uniqueid": "MTK0323:3IRIK4HM3BRJO727N3850XWXLBH6CF", "current_trial": 64, "dateTime": 1510707810771, "trialdata": {"rt": -1000, "stimulus": "/static/audio/wordpool/SALMON.wav", "key_press": -1, "type": "PRES_AUD", "word": "salmon", "wordID": 1226, "conditions": [18, 1200, "a", 18000], "trial": 1, "serialpos": 9, "trial_type": "single-audio", "trial_index": 64, "time_elapsed": 369249, "internal_node_id": "0.0-46.0"}}, {"uniqueid": "MTK0323:3IRIK4HM3BRJO727N3850XWXLBH6CF", "current_trial": 65, "dateTime": 1510707813101, "trialdata": {"rt": -1000, "stimulus": "/static/audio/wordpool/GYMNAST.wav", "key_press": -1, "type": "PRES_AUD", "word": "gymnast", "wordID": 674, "conditions": [18, 1200, "a", 18000], "trial": 1, "serialpos": 10, "trial_type": "single-audio", "trial_index": 65, "time_elapsed": 371578, "internal_node_id": "0.0-47.0"}}, {"uniqueid": "MTK0323:3IRIK4HM3BRJO727N3850XWXLBH6CF", "current_trial": 66, "dateTime": 1510707815175, "trialdata": {"rt": -1000, "stimulus": "/static/audio/wordpool/SNAKE.wav", "key_press": -1, "type": "PRES_AUD", "word": "snake", "wordID": 1332, "conditions": [18, 1200, "a", 18000], "trial": 1, "serialpos": 11, "trial_type": "single-audio", "trial_index": 66, "time_elapsed": 373653, "internal_node_id": "0.0-48.0"}}, {"uniqueid": "MTK0323:3IRIK4HM3BRJO727N3850XWXLBH6CF", "current_trial": 67, "dateTime": 1510707817243, "trialdata": {"rt": -1000, "stimulus": "/static/audio/wordpool/PANTHER.wav", "key_press": -1, "type": "PRES_AUD", "word": "panther", "wordID": 1008, "conditions": [18, 1200, "a", 18000], "trial": 1, "serialpos": 12, "trial_type": "single-audio", "trial_index": 67, "time_elapsed": 375720, "internal_node_id": "0.0-49.0"}}, {"uniqueid": "MTK0323:3IRIK4HM3BRJO727N3850XWXLBH6CF", "current_trial": 68, "dateTime": 1510707819535, "trialdata": {"rt": -1000, "stimulus": "/static/audio/wordpool/PIANO.wav", "key_press": -1, "type": "PRES_AUD", "word": "piano", "wordID": 1056, "conditions": [18, 1200, "a", 18000], "trial": 1, "serialpos": 13, "trial_type": "single-audio", "trial_index": 68, "time_elapsed": 377991, "internal_node_id": "0.0-50.0"}}, {"uniqueid": "MTK0323:3IRIK4HM3BRJO727N3850XWXLBH6CF", "current_trial": 69, "dateTime": 1510707821777, "trialdata": {"rt": -1000, "stimulus": "/static/audio/wordpool/SPOOL.wav", "key_press": -1, "type": "PRES_AUD", "word": "spool", "wordID": 1355, "conditions": [18, 1200, "a", 18000], "trial": 1, "serialpos": 14, "trial_type": "single-audio", "trial_index": 69, "time_elapsed": 380255, "internal_node_id": "0.0-51.0"}}, {"uniqueid": "MTK0323:3IRIK4HM3BRJO727N3850XWXLBH6CF", "current_trial": 70, "dateTime": 1510707823795, "trialdata": {"rt": -1000, "stimulus": "/static/audio/wordpool/AIRPLANE.wav", "key_press": -1, "type": "PRES_AUD", "word": "airplane", "wordID": 11, "conditions": [18, 1200, "a", 18000], "trial": 1, "serialpos": 15, "trial_type": "single-audio", "trial_index": 70, "time_elapsed": 382273, "internal_node_id": "0.0-52.0"}}, {"uniqueid": "MTK0323:3IRIK4HM3BRJO727N3850XWXLBH6CF", "current_trial": 71, "dateTime": 1510707825839, "trialdata": {"rt": -1000, "stimulus": "/static/audio/wordpool/VAGRANT.wav", "key_press": -1, "type": "PRES_AUD", "word": "vagrant", "wordID": 1543, "conditions": [18, 1200, "a", 18000], "trial": 1, "serialpos": 16, "trial_type": "single-audio", "trial_index": 71, "time_elapsed": 384317, "internal_node_id": "0.0-53.0"}}, {"uniqueid": "MTK0323:3IRIK4HM3BRJO727N3850XWXLBH6CF", "current_trial": 72, "dateTime": 1510707827896, "trialdata": {"rt": -1000, "stimulus": "/static/audio/wordpool/MATCH.wav", "key_press": -1, "type": "PRES_AUD", "word": "match", "wordID": 877, "conditions": [18, 1200, "a", 18000], "trial": 1, "serialpos": 17, "trial_type": "single-audio", "trial_index": 72, "time_elapsed": 386374, "internal_node_id": "0.0-54.0"}}, {"uniqueid": "MTK0323:3IRIK4HM3BRJO727N3850XWXLBH6CF", "current_trial": 73, "dateTime": 1510707829121, "trialdata": {"rt": -1, "stimulus": "", "key_press": -1, "type": "PRE_RECALL_DELAY", "trial_type": "single-stim", "trial_index": 73, "time_elapsed": 387598, "internal_node_id": "0.0-55.0-0.0"}}, {"uniqueid": "MTK0323:3IRIK4HM3BRJO727N3850XWXLBH6CF", "current_trial": 74, "dateTime": 1510707829625, "trialdata": {"rt": -1000, "stimulus": "/static/audio/400Hz.wav", "key_press": -1, "type": "PRE_RECALL_ALERT", "trial_type": "single-audio", "trial_index": 74, "time_elapsed": 388103, "internal_node_id": "0.0-56.0"}}, {"uniqueid": "MTK0323:3IRIK4HM3BRJO727N3850XWXLBH6CF", "current_trial": 75, "dateTime": 1510707889645, "trialdata": {"rt": [6983, 13127, 18275, 21115, 24032, 26371, 27396, 40559, 45624, 50357, 53149, 55389, 58389], "recwords": ["wagon", "tortoise", "mster", "necklace", "powder", "cafe", "wasp", "salmon", "panther", "piano", "school", "airplane", "match"], "type": "FREE_RECALL", "conditions": [18, 1200, "a", 18000], "trial": 1, "trial_type": "free-recall", "trial_index": 75, "time_elapsed": 448115, "internal_node_id": "0.0-57.0-0.0"}}, {"uniqueid": "MTK0323:3IRIK4HM3BRJO727N3850XWXLBH6CF", "current_trial": 76, "dateTime": 1510707893271, "trialdata": {"rt": 1623, "key_press": 13, "type": "INSTRUCTIONS", "trial_type": "text", "trial_index": 76, "time_elapsed": 451749, "internal_node_id": "0.0-58.0"}}, {"uniqueid": "MTK0323:3IRIK4HM3BRJO727N3850XWXLBH6CF", "current_trial": 77, "dateTime": 1510707906286, "trialdata": {"rt": [4795, 8682, 11061], "responses": ["23", "20", "8"], "num1": [6, 4, 2, 7], "num2": [9, 7, 4, 9], "num3": [8, 9, 2, 1], "type": "DISTRACTOR", "conditions": [24, 800, "v", 12000], "trial": 2, "trial_type": "math-distractor", "trial_index": 77, "time_elapsed": 464763, "internal_node_id": "0.0-59.0"}}, {"uniqueid": "MTK0323:3IRIK4HM3BRJO727N3850XWXLBH6CF", "current_trial": 78, "dateTime": 1510707909292, "trialdata": {"rt": -1, "stimulus": "<p id=\"stim\">10</p>", "key_press": -1, "trial_type": "single-stim", "trial_index": 78, "time_elapsed": 467770, "internal_node_id": "0.0-60.0-0.0"}}, {"uniqueid": "MTK0323:3IRIK4HM3BRJO727N3850XWXLBH6CF", "current_trial": 79, "dateTime": 1510707910297, "trialdata": {"rt": -1, "stimulus": "<p id=\"stim\">9</p>", "key_press": -1, "trial_type": "single-stim", "trial_index": 79, "time_elapsed": 468775, "internal_node_id": "0.0-60.0-1.0"}}, {"uniqueid": "MTK0323:3IRIK4HM3BRJO727N3850XWXLBH6CF", "current_trial": 80, "dateTime": 1510707911301, "trialdata": {"rt": -1, "stimulus": "<p id=\"stim\">8</p>", "key_press": -1, "trial_type": "single-stim", "trial_index": 80, "time_elapsed": 469779, "internal_node_id": "0.0-60.0-2.0"}}, {"uniqueid": "MTK0323:3IRIK4HM3BRJO727N3850XWXLBH6CF", "current_trial": 81, "dateTime": 1510707912304, "trialdata": {"rt": -1, "stimulus": "<p id=\"stim\">7</p>", "key_press": -1, "trial_type": "single-stim", "trial_index": 81, "time_elapsed": 470782, "internal_node_id": "0.0-60.0-3.0"}}, {"uniqueid": "MTK0323:3IRIK4HM3BRJO727N3850XWXLBH6CF", "current_trial": 82, "dateTime": 1510707913307, "trialdata": {"rt": -1, "stimulus": "<p id=\"stim\">6</p>", "key_press": -1, "trial_type": "single-stim", "trial_index": 82, "time_elapsed": 471785, "internal_node_id": "0.0-60.0-4.0"}}, {"uniqueid": "MTK0323:3IRIK4HM3BRJO727N3850XWXLBH6CF", "current_trial": 83, "dateTime": 1510707914310, "trialdata": {"rt": -1, "stimulus": "<p id=\"stim\">5</p>", "key_press": -1, "trial_type": "single-stim", "trial_index": 83, "time_elapsed": 472788, "internal_node_id": "0.0-60.0-5.0"}}, {"uniqueid": "MTK0323:3IRIK4HM3BRJO727N3850XWXLBH6CF", "current_trial": 84, "dateTime": 1510707915316, "trialdata": {"rt": -1, "stimulus": "<p id=\"stim\">4</p>", "key_press": -1, "trial_type": "single-stim", "trial_index": 84, "time_elapsed": 473794, "internal_node_id": "0.0-60.0-6.0"}}, {"uniqueid": "MTK0323:3IRIK4HM3BRJO727N3850XWXLBH6CF", "current_trial": 85, "dateTime": 1510707916322, "trialdata": {"rt": -1, "stimulus": "<p id=\"stim\">3</p>", "key_press": -1, "trial_type": "single-stim", "trial_index": 85, "time_elapsed": 474800, "internal_node_id": "0.0-60.0-7.0"}}, {"uniqueid": "MTK0323:3IRIK4HM3BRJO727N3850XWXLBH6CF", "current_trial": 86, "dateTime": 1510707917328, "trialdata": {"rt": -1, "stimulus": "<p id=\"stim\">2</p>", "key_press": -1, "trial_type": "single-stim", "trial_index": 86, "time_elapsed": 475806, "internal_node_id": "0.0-60.0-8.0"}}, {"uniqueid": "MTK0323:3IRIK4HM3BRJO727N3850XWXLBH6CF", "current_trial": 87, "dateTime": 1510707918332, "trialdata": {"rt": -1, "stimulus": "<p id=\"stim\">1</p>", "key_press": -1, "trial_type": "single-stim", "trial_index": 87, "time_elapsed": 476810, "internal_node_id": "0.0-60.0-9.0"}}, {"uniqueid": "MTK0323:3IRIK4HM3BRJO727N3850XWXLBH6CF", "current_trial": 88, "dateTime": 1510707919838, "trialdata": {"rt": -1, "stimulus": "<p id=\"stim\">+</p>", "key_press": -1, "type": "FIXATION", "trial_type": "single-stim", "trial_index": 88, "time_elapsed": 478316, "internal_node_id": "0.0-61.0-0.0"}}, {"uniqueid": "MTK0323:3IRIK4HM3BRJO727N3850XWXLBH6CF", "current_trial": 89, "dateTime": 1510707920643, "trialdata": {"rt": -1, "stimulus": "<p id=\"stim\">PISTON</p>", "key_press": -1, "type": "PRES_VIS", "word": "piston", "wordID": 1075, "conditions": [24, 800, "v", 12000], "trial": 2, "serialpos": 0, "trial_type": "single-stim", "trial_index": 89, "time_elapsed": 479121, "internal_node_id": "0.0-62.0"}}, {"uniqueid": "MTK0323:3IRIK4HM3BRJO727N3850XWXLBH6CF", "current_trial": 90, "dateTime": 1510707922573, "trialdata": {"rt": -1, "stimulus": "<p id=\"stim\">COD</p>", "key_press": -1, "type": "PRES_VIS", "word": "cod", "wordID": 339, "conditions": [24, 800, "v", 12000], "trial": 2, "serialpos": 1, "trial_type": "single-stim", "trial_index": 90, "time_elapsed": 481051, "internal_node_id": "0.0-63.0"}}, {"uniqueid": "MTK0323:3IRIK4HM3BRJO727N3850XWXLBH6CF", "current_trial": 91, "dateTime": 1510707924188, "trialdata": {"rt": -1, "stimulus": "<p id=\"stim\">PORTRAIT</p>", "key_press": -1, "type": "PRES_VIS", "word": "portrait", "wordID": 1110, "conditions": [24, 800, "v", 12000], "trial": 2, "serialpos": 2, "trial_type": "single-stim", "trial_index": 91, "time_elapsed": 482666, "internal_node_id": "0.0-64.0"}}, {"uniqueid": "MTK0323:3IRIK4HM3BRJO727N3850XWXLBH6CF", "current_trial": 92, "dateTime": 1510707925853, "trialdata": {"rt": -1, "stimulus": "<p id=\"stim\">AUTHOR</p>", "key_press": -1, "type": "PRES_VIS", "word": "author", "wordID": 60, "conditions": [24, 800, "v", 12000], "trial": 2, "serialpos": 3, "trial_type": "single-stim", "trial_index": 92, "time_elapsed": 484331, "internal_node_id": "0.0-65.0"}}, {"uniqueid": "MTK0323:3IRIK4HM3BRJO727N3850XWXLBH6CF", "current_trial": 93, "dateTime": 1510707927564, "trialdata": {"rt": -1, "stimulus": "<p id=\"stim\">CHEMIST</p>", "key_press": -1, "type": "PRES_VIS", "word": "chemist", "wordID": 291, "conditions": [24, 800, "v", 12000], "trial": 2, "serialpos": 4, "trial_type": "single-stim", "trial_index": 93, "time_elapsed": 486042, "internal_node_id": "0.0-66.0"}}, {"uniqueid": "MTK0323:3IRIK4HM3BRJO727N3850XWXLBH6CF", "current_trial": 94, "dateTime": 1510707929285, "trialdata": {"rt": -1, "stimulus": "<p id=\"stim\">FRAGRANCE</p>", "key_press": -1, "type": "PRES_VIS", "word": "fragrance", "wordID": 598, "conditions": [24, 800, "v", 12000], "trial": 2, "serialpos": 5, "trial_type": "single-stim", "trial_index": 94, "time_elapsed": 487763, "internal_node_id": "0.0-67.0"}}, {"uniqueid": "MTK0323:3IRIK4HM3BRJO727N3850XWXLBH6CF", "current_trial": 95, "dateTime": 1510707931138, "trialdata": {"rt": -1, "stimulus": "<p id=\"stim\">CANAL</p>", "key_press": -1, "type": "PRES_VIS", "word": "canal", "wordID": 225, "conditions": [24, 800, "v", 12000], "trial": 2, "serialpos": 6, "trial_type": "single-stim", "trial_index": 95, "time_elapsed": 489616, "internal_node_id": "0.0-68.0"}}, {"uniqueid": "MTK0323:3IRIK4HM3BRJO727N3850XWXLBH6CF", "current_trial": 96, "dateTime": 1510707932904, "trialdata": {"rt": -1, "stimulus": "<p id=\"stim\">RIVER</p>", "key_press": -1, "type": "PRES_VIS", "word": "river", "wordID": 1193, "conditions": [24, 800, "v", 12000], "trial": 2, "serialpos": 7, "trial_type": "single-stim", "trial_index": 96, "time_elapsed": 491382, "internal_node_id": "0.0-69.0"}}, {"uniqueid": "MTK0323:3IRIK4HM3BRJO727N3850XWXLBH6CF", "current_trial": 97, "dateTime": 1510707934804, "trialdata": {"rt": -1, "stimulus": "<p id=\"stim\">HUSBAND</p>", "key_press": -1, "type": "PRES_VIS", "word": "husband", "wordID": 727, "conditions": [24, 800, "v", 12000], "trial": 2, "serialpos": 8, "trial_type": "single-stim", "trial_index": 97, "time_elapsed": 493282, "internal_node_id": "0.0-70.0"}}, {"uniqueid": "MTK0323:3IRIK4HM3BRJO727N3850XWXLBH6CF", "current_trial": 98, "dateTime": 1510707936556, "trialdata": {"rt": -1, "stimulus": "<p id=\"stim\">SHOULDER</p>", "key_press": -1, "type": "PRES_VIS", "word": "shoulder", "wordID": 1293, "conditions": [24, 800, "v", 12000], "trial": 2, "serialpos": 9, "trial_type": "single-stim", "trial_index": 98, "time_elapsed": 495034, "internal_node_id": "0.0-71.0"}}, {"uniqueid": "MTK0323:3IRIK4HM3BRJO727N3850XWXLBH6CF", "current_trial": 99, "dateTime": 1510707938354, "trialdata": {"rt": -1, "stimulus": "<p id=\"stim\">BANKER</p>", "key_press": -1, "type": "PRES_VIS", "word": "banker", "wordID": 83, "conditions": [24, 800, "v", 12000], "trial": 2, "serialpos": 10, "trial_type": "single-stim", "trial_index": 99, "time_elapsed": 496832, "internal_node_id": "0.0-72.0"}}, {"uniqueid": "MTK0323:3IRIK4HM3BRJO727N3850XWXLBH6CF", "current_trial": 100, "dateTime": 1510707940334, "trialdata": {"rt": -1, "stimulus": "<p id=\"stim\">LOVER</p>", "key_press": -1, "type": "PRES_VIS", "word": "lover", "wordID": 845, "conditions": [24, 800, "v", 12000], "trial": 2, "serialpos": 11, "trial_type": "single-stim", "trial_index": 100, "time_elapsed": 498812, "internal_node_id": "0.0-73.0"}}, {"uniqueid": "MTK0323:3IRIK4HM3BRJO727N3850XWXLBH6CF", "current_trial": 101, "dateTime": 1510707942157, "trialdata": {"rt": -1, "stimulus": "<p id=\"stim\">CAMEL</p>", "key_press": -1, "type": "PRES_VIS", "word": "camel", "wordID": 222, "conditions": [24, 800, "v", 12000], "trial": 2, "serialpos": 12, "trial_type": "single-stim", "trial_index": 101, "time_elapsed": 500631, "internal_node_id": "0.0-74.0"}}, {"uniqueid": "MTK0323:3IRIK4HM3BRJO727N3850XWXLBH6CF", "current_trial": 102, "dateTime": 1510707943889, "trialdata": {"rt": -1, "stimulus": "<p id=\"stim\">SALT</p>", "key_press": -1, "type": "PRES_VIS", "word": "salt", "wordID": 1228, "conditions": [24, 800, "v", 12000], "trial": 2, "serialpos": 13, "trial_type": "single-stim", "trial_index": 102, "time_elapsed": 502367, "internal_node_id": "0.0-75.0"}}, {"uniqueid": "MTK0323:3IRIK4HM3BRJO727N3850XWXLBH6CF", "current_trial": 103, "dateTime": 1510707945728, "trialdata": {"rt": -1, "stimulus": "<p id=\"stim\">POET</p>", "key_press": -1, "type": "PRES_VIS", "word": "poet", "wordID": 1094, "conditions": [24, 800, "v", 12000], "trial": 2, "serialpos": 14, "trial_type": "single-stim", "trial_index": 103, "time_elapsed": 504206, "internal_node_id": "0.0-76.0"}}, {"uniqueid": "MTK0323:3IRIK4HM3BRJO727N3850XWXLBH6CF", "current_trial": 104, "dateTime": 1510707947725, "trialdata": {"rt": -1, "stimulus": "<p id=\"stim\">OYSTER</p>", "key_press": -1, "type": "PRES_VIS", "word": "oyster", "wordID": 994, "conditions": [24, 800, "v", 12000], "trial": 2, "serialpos": 15, "trial_type": "single-stim", "trial_index": 104, "time_elapsed": 506202, "internal_node_id": "0.0-77.0"}}, {"uniqueid": "MTK0323:3IRIK4HM3BRJO727N3850XWXLBH6CF", "current_trial": 105, "dateTime": 1510707949704, "trialdata": {"rt": -1, "stimulus": "<p id=\"stim\">CRATER</p>", "key_press": -1, "type": "PRES_VIS", "word": "crater", "wordID": 399, "conditions": [24, 800, "v", 12000], "trial": 2, "serialpos": 16, "trial_type": "single-stim", "trial_index": 105, "time_elapsed": 508182, "internal_node_id": "0.0-78.0"}}, {"uniqueid": "MTK0323:3IRIK4HM3BRJO727N3850XWXLBH6CF", "current_trial": 106, "dateTime": 1510707951458, "trialdata": {"rt": -1, "stimulus": "<p id=\"stim\">DONKEY</p>", "key_press": -1, "type": "PRES_VIS", "word": "donkey", "wordID": 483, "conditions": [24, 800, "v", 12000], "trial": 2, "serialpos": 17, "trial_type": "single-stim", "trial_index": 106, "time_elapsed": 509936, "internal_node_id": "0.0-79.0"}}, {"uniqueid": "MTK0323:3IRIK4HM3BRJO727N3850XWXLBH6CF", "current_trial": 107, "dateTime": 1510707953129, "trialdata": {"rt": -1, "stimulus": "<p id=\"stim\">STALLION</p>", "key_press": -1, "type": "PRES_VIS", "word": "stallion", "wordID": 1368, "conditions": [24, 800, "v", 12000], "trial": 2, "serialpos": 18, "trial_type": "single-stim", "trial_index": 107, "time_elapsed": 511607, "internal_node_id": "0.0-80.0"}}, {"uniqueid": "MTK0323:3IRIK4HM3BRJO727N3850XWXLBH6CF", "current_trial": 108, "dateTime": 1510707955127, "trialdata": {"rt": -1, "stimulus": "<p id=\"stim\">CLAMP</p>", "key_press": -1, "type": "PRES_VIS", "word": "clamp", "wordID": 315, "conditions": [24, 800, "v", 12000], "trial": 2, "serialpos": 19, "trial_type": "single-stim", "trial_index": 108, "time_elapsed": 513605, "internal_node_id": "0.0-81.0"}}, {"uniqueid": "MTK0323:3IRIK4HM3BRJO727N3850XWXLBH6CF", "current_trial": 109, "dateTime": 1510707956781, "trialdata": {"rt": -1, "stimulus": "<p id=\"stim\">SCALPEL</p>", "key_press": -1, "type": "PRES_VIS", "word": "scalpel", "wordID": 1242, "conditions": [24, 800, "v", 12000], "trial": 2, "serialpos": 20, "trial_type": "single-stim", "trial_index": 109, "time_elapsed": 515259, "internal_node_id": "0.0-82.0"}}, {"uniqueid": "MTK0323:3IRIK4HM3BRJO727N3850XWXLBH6CF", "current_trial": 110, "dateTime": 1510707958535, "trialdata": {"rt": -1, "stimulus": "<p id=\"stim\">TOMBSTONE</p>", "key_press": -1, "type": "PRES_VIS", "word": "tombstone", "wordID": 1477, "conditions": [24, 800, "v", 12000], "trial": 2, "serialpos": 21, "trial_type": "single-stim", "trial_index": 110, "time_elapsed": 517013, "internal_node_id": "0.0-83.0"}}, {"uniqueid": "MTK0323:3IRIK4HM3BRJO727N3850XWXLBH6CF", "current_trial": 111, "dateTime": 1510707960512, "trialdata": {"rt": -1, "stimulus": "<p id=\"stim\">DAISY</p>", "key_press": -1, "type": "PRES_VIS", "word": "daisy", "wordID": 434, "conditions": [24, 800, "v", 12000], "trial": 2, "serialpos": 22, "trial_type": "single-stim", "trial_index": 111, "time_elapsed": 518990, "internal_node_id": "0.0-84.0"}}, {"uniqueid": "MTK0323:3IRIK4HM3BRJO727N3850XWXLBH6CF", "current_trial": 112, "dateTime": 1510707962437, "trialdata": {"rt": -1, "stimulus": "<p id=\"stim\">FLOWER</p>", "key_press": -1, "type": "PRES_VIS", "word": "flower", "wordID": 583, "conditions": [24, 800, "v", 12000], "trial": 2, "serialpos": 23, "trial_type": "single-stim", "trial_index": 112, "time_elapsed": 520915, "internal_node_id": "0.0-85.0"}}, {"uniqueid": "MTK0323:3IRIK4HM3BRJO727N3850XWXLBH6CF", "current_trial": 113, "dateTime": 1510707964754, "trialdata": {"rt": -1, "stimulus": "", "key_press": -1, "type": "PRE_RECALL_DELAY", "trial_type": "single-stim", "trial_index": 113, "time_elapsed": 523232, "internal_node_id": "0.0-86.0-0.0"}}, {"uniqueid": "MTK0323:3IRIK4HM3BRJO727N3850XWXLBH6CF", "current_trial": 114, "dateTime": 1510707965260, "trialdata": {"rt": -1000, "stimulus": "/static/audio/400Hz.wav", "key_press": -1, "type": "PRE_RECALL_ALERT", "trial_type": "single-audio", "trial_index": 114, "time_elapsed": 523737, "internal_node_id": "0.0-87.0"}}, {"uniqueid": "MTK0323:3IRIK4HM3BRJO727N3850XWXLBH6CF", "current_trial": 115, "dateTime": 1510708025277, "trialdata": {"rt": [9896, 12457, 15690, 19049, 21983, 30904, 38055, 50064, 52309, 54104, 56575], "recwords": ["piston", "cod", "shoulder", "daisy", "tombstone", "clamp", "scalpal", "portrait", "actor", "chemist", "fragrance"], "type": "FREE_RECALL", "conditions": [24, 800, "v", 12000], "trial": 2, "trial_type": "free-recall", "trial_index": 115, "time_elapsed": 583747, "internal_node_id": "0.0-88.0-0.0"}}, {"uniqueid": "MTK0323:3IRIK4HM3BRJO727N3850XWXLBH6CF", "current_trial": 116, "dateTime": 1510708038976, "trialdata": {"rt": 11694, "key_press": 13, "type": "INSTRUCTIONS", "trial_type": "text", "trial_index": 116, "time_elapsed": 597454, "internal_node_id": "0.0-89.0"}}, {"uniqueid": "MTK0323:3IRIK4HM3BRJO727N3850XWXLBH6CF", "current_trial": 117, "dateTime": 1510708064987, "trialdata": {"rt": [2432, 5956, 8745, 11075, 13744, 16568, 19033], "responses": ["18", "18", "7", "15", "15", "21", "18"], "num1": [7, 3, 2, 6, 6, 4, 7, 2], "num2": [9, 8, 3, 4, 3, 9, 8, 2], "num3": [1, 7, 2, 5, 6, 8, 3, 3], "type": "DISTRACTOR", "conditions": [12, 800, "a", 24000], "trial": 3, "trial_type": "math-distractor", "trial_index": 117, "time_elapsed": 623465, "internal_node_id": "0.0-90.0"}}, {"uniqueid": "MTK0323:3IRIK4HM3BRJO727N3850XWXLBH6CF", "current_trial": 118, "dateTime": 1510708067990, "trialdata": {"rt": -1, "stimulus": "<p id=\"stim\">10</p>", "key_press": -1, "trial_type": "single-stim", "trial_index": 118, "time_elapsed": 626468, "internal_node_id": "0.0-91.0-0.0"}}, {"uniqueid": "MTK0323:3IRIK4HM3BRJO727N3850XWXLBH6CF", "current_trial": 119, "dateTime": 1510708068994, "trialdata": {"rt": -1, "stimulus": "<p id=\"stim\">9</p>", "key_press": -1, "trial_type": "single-stim", "trial_index": 119, "time_elapsed": 627472, "internal_node_id": "0.0-91.0-1.0"}}, {"uniqueid": "MTK0323:3IRIK4HM3BRJO727N3850XWXLBH6CF", "current_trial": 120, "dateTime": 1510708069999, "trialdata": {"rt": -1, "stimulus": "<p id=\"stim\">8</p>", "key_press": -1, "trial_type": "single-stim", "trial_index": 120, "time_elapsed": 628477, "internal_node_id": "0.0-91.0-2.0"}}, {"uniqueid": "MTK0323:3IRIK4HM3BRJO727N3850XWXLBH6CF", "current_trial": 121, "dateTime": 1510708071006, "trialdata": {"rt": -1, "stimulus": "<p id=\"stim\">7</p>", "key_press": -1, "trial_type": "single-stim", "trial_index": 121, "time_elapsed": 629484, "internal_node_id": "0.0-91.0-3.0"}}, {"uniqueid": "MTK0323:3IRIK4HM3BRJO727N3850XWXLBH6CF", "current_trial": 122, "dateTime": 1510708072015, "trialdata": {"rt": -1, "stimulus": "<p id=\"stim\">6</p>", "key_press": -1, "trial_type": "single-stim", "trial_index": 122, "time_elapsed": 630493, "internal_node_id": "0.0-91.0-4.0"}}, {"uniqueid": "MTK0323:3IRIK4HM3BRJO727N3850XWXLBH6CF", "current_trial": 123, "dateTime": 1510708073019, "trialdata": {"rt": -1, "stimulus": "<p id=\"stim\">5</p>", "key_press": -1, "trial_type": "single-stim", "trial_index": 123, "time_elapsed": 631497, "internal_node_id": "0.0-91.0-5.0"}}, {"uniqueid": "MTK0323:3IRIK4HM3BRJO727N3850XWXLBH6CF", "current_trial": 124, "dateTime": 1510708074027, "trialdata": {"rt": -1, "stimulus": "<p id=\"stim\">4</p>", "key_press": -1, "trial_type": "single-stim", "trial_index": 124, "time_elapsed": 632505, "internal_node_id": "0.0-91.0-6.0"}}, {"uniqueid": "MTK0323:3IRIK4HM3BRJO727N3850XWXLBH6CF", "current_trial": 125, "dateTime": 1510708075037, "trialdata": {"rt": -1, "stimulus": "<p id=\"stim\">3</p>", "key_press": -1, "trial_type": "single-stim", "trial_index": 125, "time_elapsed": 633515, "internal_node_id": "0.0-91.0-7.0"}}, {"uniqueid": "MTK0323:3IRIK4HM3BRJO727N3850XWXLBH6CF", "current_trial": 126, "dateTime": 1510708076042, "trialdata": {"rt": -1, "stimulus": "<p id=\"stim\">2</p>", "key_press": -1, "trial_type": "single-stim", "trial_index": 126, "time_elapsed": 634520, "internal_node_id": "0.0-91.0-8.0"}}, {"uniqueid": "MTK0323:3IRIK4HM3BRJO727N3850XWXLBH6CF", "current_trial": 127, "dateTime": 1510708077048, "trialdata": {"rt": -1, "stimulus": "<p id=\"stim\">1</p>", "key_press": -1, "trial_type": "single-stim", "trial_index": 127, "time_elapsed": 635526, "internal_node_id": "0.0-91.0-9.0"}}, {"uniqueid": "MTK0323:3IRIK4HM3BRJO727N3850XWXLBH6CF", "current_trial": 128, "dateTime": 1510708078550, "trialdata": {"rt": -1, "stimulus": "<p id=\"stim\">+</p>", "key_press": -1, "type": "FIXATION", "trial_type": "single-stim", "trial_index": 128, "time_elapsed": 637028, "internal_node_id": "0.0-92.0-0.0"}}, {"uniqueid": "MTK0323:3IRIK4HM3BRJO727N3850XWXLBH6CF", "current_trial": 129, "dateTime": 1510708080440, "trialdata": {"rt": -1000, "stimulus": "/static/audio/wordpool/ANKLE.wav", "key_press": -1, "type": "PRES_AUD", "word": "ankle", "wordID": 23, "conditions": [12, 800, "a", 24000], "trial": 3, "serialpos": 0, "trial_type": "single-audio", "trial_index": 129, "time_elapsed": 638918, "internal_node_id": "0.0-93.0"}}, {"uniqueid": "MTK0323:3IRIK4HM3BRJO727N3850XWXLBH6CF", "current_trial": 130, "dateTime": 1510708082060, "trialdata": {"rt": -1000, "stimulus": "/static/audio/wordpool/OUTLAW.wav", "key_press": -1, "type": "PRES_AUD", "word": "outlaw", "wordID": 988, "conditions": [12, 800, "a", 24000], "trial": 3, "serialpos": 1, "trial_type": "single-audio", "trial_index": 130, "time_elapsed": 640538, "internal_node_id": "0.0-94.0"}}, {"uniqueid": "MTK0323:3IRIK4HM3BRJO727N3850XWXLBH6CF", "current_trial": 131, "dateTime": 1510708084001, "trialdata": {"rt": -1000, "stimulus": "/static/audio/wordpool/OINTMENT.wav", "key_press": -1, "type": "PRES_AUD", "word": "ointment", "wordID": 973, "conditions": [12, 800, "a", 24000], "trial": 3, "serialpos": 2, "trial_type": "single-audio", "trial_index": 131, "time_elapsed": 642479, "internal_node_id": "0.0-95.0"}}, {"uniqueid": "MTK0323:3IRIK4HM3BRJO727N3850XWXLBH6CF", "current_trial": 132, "dateTime": 1510708085792, "trialdata": {"rt": -1000, "stimulus": "/static/audio/wordpool/PLATE.wav", "key_press": -1, "type": "PRES_AUD", "word": "plate", "wordID": 1085, "conditions": [12, 800, "a", 24000], "trial": 3, "serialpos": 3, "trial_type": "single-audio", "trial_index": 132, "time_elapsed": 644270, "internal_node_id": "0.0-96.0"}}, {"uniqueid": "MTK0323:3IRIK4HM3BRJO727N3850XWXLBH6CF", "current_trial": 133, "dateTime": 1510708087726, "trialdata": {"rt": -1000, "stimulus": "/static/audio/wordpool/DASHBOARD.wav", "key_press": -1, "type": "PRES_AUD", "word": "dashboard", "wordID": 440, "conditions": [12, 800, "a", 24000], "trial": 3, "serialpos": 4, "trial_type": "single-audio", "trial_index": 133, "time_elapsed": 646204, "internal_node_id": "0.0-97.0"}}, {"uniqueid": "MTK0323:3IRIK4HM3BRJO727N3850XWXLBH6CF", "current_trial": 134, "dateTime": 1510708089430, "trialdata": {"rt": -1000, "stimulus": "/static/audio/wordpool/TREAT.wav", "key_press": -1, "type": "PRES_AUD", "word": "treat", "wordID": 1500, "conditions": [12, 800, "a", 24000], "trial": 3, "serialpos": 5, "trial_type": "single-audio", "trial_index": 134, "time_elapsed": 647908, "internal_node_id": "0.0-98.0"}}, {"uniqueid": "MTK0323:3IRIK4HM3BRJO727N3850XWXLBH6CF", "current_trial": 135, "dateTime": 1510708091277, "trialdata": {"rt": -1000, "stimulus": "/static/audio/wordpool/PATIENT.wav", "key_press": -1, "type": "PRES_AUD", "word": "patient", "wordID": 1023, "conditions": [12, 800, "a", 24000], "trial": 3, "serialpos": 6, "trial_type": "single-audio", "trial_index": 135, "time_elapsed": 649755, "internal_node_id": "0.0-99.0"}}, {"uniqueid": "MTK0323:3IRIK4HM3BRJO727N3850XWXLBH6CF", "current_trial": 136, "dateTime": 1510708093252, "trialdata": {"rt": -1000, "stimulus": "/static/audio/wordpool/BLOUSE.wav", "key_press": -1, "type": "PRES_AUD", "word": "blouse", "wordID": 138, "conditions": [12, 800, "a", 24000], "trial": 3, "serialpos": 7, "trial_type": "single-audio", "trial_index": 136, "time_elapsed": 651730, "internal_node_id": "0.0-100.0"}}, {"uniqueid": "MTK0323:3IRIK4HM3BRJO727N3850XWXLBH6CF", "current_trial": 137, "dateTime": 1510708094895, "trialdata": {"rt": -1000, "stimulus": "/static/audio/wordpool/SANDWICH.wav", "key_press": -1, "type": "PRES_AUD", "word": "sandwich", "wordID": 1231, "conditions": [12, 800, "a", 24000], "trial": 3, "serialpos": 8, "trial_type": "single-audio", "trial_index": 137, "time_elapsed": 653373, "internal_node_id": "0.0-101.0"}}, {"uniqueid": "MTK0323:3IRIK4HM3BRJO727N3850XWXLBH6CF", "current_trial": 138, "dateTime": 1510708096822, "trialdata": {"rt": -1000, "stimulus": "/static/audio/wordpool/ELBOW.wav", "key_press": -1, "type": "PRES_AUD", "word": "elbow", "wordID": 519, "conditions": [12, 800, "a", 24000], "trial": 3, "serialpos": 9, "trial_type": "single-audio", "trial_index": 138, "time_elapsed": 655299, "internal_node_id": "0.0-102.0"}}, {"uniqueid": "MTK0323:3IRIK4HM3BRJO727N3850XWXLBH6CF", "current_trial": 139, "dateTime": 1510708098755, "trialdata": {"rt": -1000, "stimulus": "/static/audio/wordpool/SUPPER.wav", "key_press": -1, "type": "PRES_AUD", "word": "supper", "wordID": 1410, "conditions": [12, 800, "a", 24000], "trial": 3, "serialpos": 10, "trial_type": "single-audio", "trial_index": 139, "time_elapsed": 657232, "internal_node_id": "0.0-103.0"}}, {"uniqueid": "MTK0323:3IRIK4HM3BRJO727N3850XWXLBH6CF", "current_trial": 140, "dateTime": 1510708100497, "trialdata": {"rt": -1000, "stimulus": "/static/audio/wordpool/BANQUET.wav", "key_press": -1, "type": "PRES_AUD", "word": "banquet", "wordID": 85, "conditions": [12, 800, "a", 24000], "trial": 3, "serialpos": 11, "trial_type": "single-audio", "trial_index": 140, "time_elapsed": 658975, "internal_node_id": "0.0-104.0"}}, {"uniqueid": "MTK0323:3IRIK4HM3BRJO727N3850XWXLBH6CF", "current_trial": 141, "dateTime": 1510708101751, "trialdata": {"rt": -1, "stimulus": "", "key_press": -1, "type": "PRE_RECALL_DELAY", "trial_type": "single-stim", "trial_index": 141, "time_elapsed": 660229, "internal_node_id": "0.0-105.0-0.0"}}, {"uniqueid": "MTK0323:3IRIK4HM3BRJO727N3850XWXLBH6CF", "current_trial": 142, "dateTime": 1510708102256, "trialdata": {"rt": -1000, "stimulus": "/static/audio/400Hz.wav", "key_press": -1, "type": "PRE_RECALL_ALERT", "trial_type": "single-audio", "trial_index": 142, "time_elapsed": 660734, "internal_node_id": "0.0-106.0"}}, {"uniqueid": "MTK0323:3IRIK4HM3BRJO727N3850XWXLBH6CF", "current_trial": 143, "dateTime": 1510708162270, "trialdata": {"rt": [6826, 10534, 14993, 16870, 20103, 22034, 23665, 31143, 36182, 38304, 40336, 43954], "recwords": ["banquet", "supper", "outlaw", "ankle", "elbow", "sandwich", "blose", "paient", "treat", "dashboard", "plate", "ointment"], "type": "FREE_RECALL", "conditions": [12, 800, "a", 24000], "trial": 3, "trial_type": "free-recall", "trial_index": 143, "time_elapsed": 720740, "internal_node_id": "0.0-107.0-0.0"}}, {"uniqueid": "MTK0323:3IRIK4HM3BRJO727N3850XWXLBH6CF", "current_trial": 144, "dateTime": 1510708165889, "trialdata": {"rt": 1613, "key_press": 13, "type": "INSTRUCTIONS", "trial_type": "text", "trial_index": 144, "time_elapsed": 724367, "internal_node_id": "0.0-108.0"}}, {"uniqueid": "MTK0323:3IRIK4HM3BRJO727N3850XWXLBH6CF", "current_trial": 145, "dateTime": 1510708191899, "trialdata": {"rt": [3126, 10828, 15682, 17717, 19923, 22103], "responses": ["16", "19", "15", "14", "15", "20"], "num1": [5, 8, 7, 3, 2, 6, 3], "num2": [4, 7, 4, 6, 8, 6, 5], "num3": [7, 4, 4, 5, 5, 8, 7], "type": "DISTRACTOR", "conditions": [12, 1600, "v", 24000], "trial": 4, "trial_type": "math-distractor", "trial_index": 145, "time_elapsed": 750377, "internal_node_id": "0.0-109.0"}}, {"uniqueid": "MTK0323:3IRIK4HM3BRJO727N3850XWXLBH6CF", "current_trial": 146, "dateTime": 1510708194903, "trialdata": {"rt": -1, "stimulus": "<p id=\"stim\">10</p>", "key_press": -1, "trial_type": "single-stim", "trial_index": 146, "time_elapsed": 753381, "internal_node_id": "0.0-110.0-0.0"}}, {"uniqueid": "MTK0323:3IRIK4HM3BRJO727N3850XWXLBH6CF", "current_trial": 147, "dateTime": 1510708195905, "trialdata": {"rt": -1, "stimulus": "<p id=\"stim\">9</p>", "key_press": -1, "trial_type": "single-stim", "trial_index": 147, "time_elapsed": 754383, "internal_node_id": "0.0-110.0-1.0"}}, {"uniqueid": "MTK0323:3IRIK4HM3BRJO727N3850XWXLBH6CF", "current_trial": 148, "dateTime": 1510708196910, "trialdata": {"rt": -1, "stimulus": "<p id=\"stim\">8</p>", "key_press": -1, "trial_type": "single-stim", "trial_index": 148, "time_elapsed": 755388, "internal_node_id": "0.0-110.0-2.0"}}, {"uniqueid": "MTK0323:3IRIK4HM3BRJO727N3850XWXLBH6CF", "current_trial": 149, "dateTime": 1510708197916, "trialdata": {"rt": -1, "stimulus": "<p id=\"stim\">7</p>", "key_press": -1, "trial_type": "single-stim", "trial_index": 149, "time_elapsed": 756394, "internal_node_id": "0.0-110.0-3.0"}}, {"uniqueid": "MTK0323:3IRIK4HM3BRJO727N3850XWXLBH6CF", "current_trial": 150, "dateTime": 1510708198918, "trialdata": {"rt": -1, "stimulus": "<p id=\"stim\">6</p>", "key_press": -1, "trial_type": "single-stim", "trial_index": 150, "time_elapsed": 757396, "internal_node_id": "0.0-110.0-4.0"}}, {"uniqueid": "MTK0323:3IRIK4HM3BRJO727N3850XWXLBH6CF", "current_trial": 151, "dateTime": 1510708199924, "trialdata": {"rt": -1, "stimulus": "<p id=\"stim\">5</p>", "key_press": -1, "trial_type": "single-stim", "trial_index": 151, "time_elapsed": 758402, "internal_node_id": "0.0-110.0-5.0"}}, {"uniqueid": "MTK0323:3IRIK4HM3BRJO727N3850XWXLBH6CF", "current_trial": 152, "dateTime": 1510708200929, "trialdata": {"rt": -1, "stimulus": "<p id=\"stim\">4</p>", "key_press": -1, "trial_type": "single-stim", "trial_index": 152, "time_elapsed": 759407, "internal_node_id": "0.0-110.0-6.0"}}, {"uniqueid": "MTK0323:3IRIK4HM3BRJO727N3850XWXLBH6CF", "current_trial": 153, "dateTime": 1510708201936, "trialdata": {"rt": -1, "stimulus": "<p id=\"stim\">3</p>", "key_press": -1, "trial_type": "single-stim", "trial_index": 153, "time_elapsed": 760413, "internal_node_id": "0.0-110.0-7.0"}}, {"uniqueid": "MTK0323:3IRIK4HM3BRJO727N3850XWXLBH6CF", "current_trial": 154, "dateTime": 1510708202938, "trialdata": {"rt": -1, "stimulus": "<p id=\"stim\">2</p>", "key_press": -1, "trial_type": "single-stim", "trial_index": 154, "time_elapsed": 761416, "internal_node_id": "0.0-110.0-8.0"}}, {"uniqueid": "MTK0323:3IRIK4HM3BRJO727N3850XWXLBH6CF", "current_trial": 155, "dateTime": 1510708203945, "trialdata": {"rt": -1, "stimulus": "<p id=\"stim\">1</p>", "key_press": -1, "trial_type": "single-stim", "trial_index": 155, "time_elapsed": 762423, "internal_node_id": "0.0-110.0-9.0"}}, {"uniqueid": "MTK0323:3IRIK4HM3BRJO727N3850XWXLBH6CF", "current_trial": 156, "dateTime": 1510708205450, "trialdata": {"rt": -1, "stimulus": "<p id=\"stim\">+</p>", "key_press": -1, "type": "FIXATION", "trial_type": "single-stim", "trial_index": 156, "time_elapsed": 763928, "internal_node_id": "0.0-111.0-0.0"}}, {"uniqueid": "MTK0323:3IRIK4HM3BRJO727N3850XWXLBH6CF", "current_trial": 157, "dateTime": 1510708207051, "trialdata": {"rt": -1, "stimulus": "<p id=\"stim\">TUNNEL</p>", "key_press": -1, "type": "PRES_VIS", "word": "tunnel", "wordID": 1518, "conditions": [12, 1600, "v", 24000], "trial": 4, "serialpos": 0, "trial_type": "single-stim", "trial_index": 157, "time_elapsed": 765529, "internal_node_id": "0.0-112.0"}}, {"uniqueid": "MTK0323:3IRIK4HM3BRJO727N3850XWXLBH6CF", "current_trial": 158, "dateTime": 1510708209808, "trialdata": {"rt": -1, "stimulus": "<p id=\"stim\">SUSPECT</p>", "key_press": -1, "type": "PRES_VIS", "word": "suspect", "wordID": 1414, "conditions": [12, 1600, "v", 24000], "trial": 4, "serialpos": 1, "trial_type": "single-stim", "trial_index": 158, "time_elapsed": 768286, "internal_node_id": "0.0-113.0"}}, {"uniqueid": "MTK0323:3IRIK4HM3BRJO727N3850XWXLBH6CF", "current_trial": 159, "dateTime": 1510708212363, "trialdata": {"rt": -1, "stimulus": "<p id=\"stim\">LACE</p>", "key_press": -1, "type": "PRES_VIS", "word": "lace", "wordID": 791, "conditions": [12, 1600, "v", 24000], "trial": 4, "serialpos": 2, "trial_type": "single-stim", "trial_index": 159, "time_elapsed": 770841, "internal_node_id": "0.0-114.0"}}, {"uniqueid": "MTK0323:3IRIK4HM3BRJO727N3850XWXLBH6CF", "current_trial": 160, "dateTime": 1510708214894, "trialdata": {"rt": -1, "stimulus": "<p id=\"stim\">BOX</p>", "key_press": -1, "type": "PRES_VIS", "word": "box", "wordID": 158, "conditions": [12, 1600, "v", 24000], "trial": 4, "serialpos": 3, "trial_type": "single-stim", "trial_index": 160, "time_elapsed": 773372, "internal_node_id": "0.0-115.0"}}, {"uniqueid": "MTK0323:3IRIK4HM3BRJO727N3850XWXLBH6CF", "current_trial": 161, "dateTime": 1510708217585, "trialdata": {"rt": -1, "stimulus": "<p id=\"stim\">POPCORN</p>", "key_press": -1, "type": "PRES_VIS", "word": "popcorn", "wordID": 1103, "conditions": [12, 1600, "v", 24000], "trial": 4, "serialpos": 4, "trial_type": "single-stim", "trial_index": 161, "time_elapsed": 776063, "internal_node_id": "0.0-116.0"}}, {"uniqueid": "MTK0323:3IRIK4HM3BRJO727N3850XWXLBH6CF", "current_trial": 162, "dateTime": 1510708220234, "trialdata": {"rt": -1, "stimulus": "<p id=\"stim\">XEROX</p>", "key_press": -1, "type": "PRES_VIS", "word": "xerox", "wordID": 1627, "conditions": [12, 1600, "v", 24000], "trial": 4, "serialpos": 5, "trial_type": "single-stim", "trial_index": 162, "time_elapsed": 778712, "internal_node_id": "0.0-117.0"}}, {"uniqueid": "MTK0323:3IRIK4HM3BRJO727N3850XWXLBH6CF", "current_trial": 163, "dateTime": 1510708222832, "trialdata": {"rt": -1, "stimulus": "<p id=\"stim\">MILK</p>", "key_press": -1, "type": "PRES_VIS", "word": "milk", "wordID": 894, "conditions": [12, 1600, "v", 24000], "trial": 4, "serialpos": 6, "trial_type": "single-stim", "trial_index": 163, "time_elapsed": 781309, "internal_node_id": "0.0-118.0"}}, {"uniqueid": "MTK0323:3IRIK4HM3BRJO727N3850XWXLBH6CF", "current_trial": 164, "dateTime": 1510708225466, "trialdata": {"rt": -1, "stimulus": "<p id=\"stim\">EYELASH</p>", "key_press": -1, "type": "PRES_VIS", "word": "eyelash", "wordID": 545, "conditions": [12, 1600, "v", 24000], "trial": 4, "serialpos": 7, "trial_type": "single-stim", "trial_index": 164, "time_elapsed": 783944, "internal_node_id": "0.0-119.0"}}, {"uniqueid": "MTK0323:3IRIK4HM3BRJO727N3850XWXLBH6CF", "current_trial": 165, "dateTime": 1510708228030, "trialdata": {"rt": -1, "stimulus": "<p id=\"stim\">MACHINE</p>", "key_press": -1, "type": "PRES_VIS", "word": "machine", "wordID": 851, "conditions": [12, 1600, "v", 24000], "trial": 4, "serialpos": 8, "trial_type": "single-stim", "trial_index": 165, "time_elapsed": 786508, "internal_node_id": "0.0-120.0"}}, {"uniqueid": "MTK0323:3IRIK4HM3BRJO727N3850XWXLBH6CF", "current_trial": 166, "dateTime": 1510708230530, "trialdata": {"rt": -1, "stimulus": "<p id=\"stim\">KITCHEN</p>", "key_press": -1, "type": "PRES_VIS", "word": "kitchen", "wordID": 777, "conditions": [12, 1600, "v", 24000], "trial": 4, "serialpos": 9, "trial_type": "single-stim", "trial_index": 166, "time_elapsed": 789008, "internal_node_id": "0.0-121.0"}}, {"uniqueid": "MTK0323:3IRIK4HM3BRJO727N3850XWXLBH6CF", "current_trial": 167, "dateTime": 1510708233041, "trialdata": {"rt": -1, "stimulus": "<p id=\"stim\">STOVE</p>", "key_press": -1, "type": "PRES_VIS", "word": "stove", "wordID": 1387, "conditions": [12, 1600, "v", 24000], "trial": 4, "serialpos": 10, "trial_type": "single-stim", "trial_index": 167, "time_elapsed": 791519, "internal_node_id": "0.0-122.0"}}, {"uniqueid": "MTK0323:3IRIK4HM3BRJO727N3850XWXLBH6CF", "current_trial": 168, "dateTime": 1510708235824, "trialdata": {"rt": -1, "stimulus": "<p id=\"stim\">SILK</p>", "key_press": -1, "type": "PRES_VIS", "word": "silk", "wordID": 1306, "conditions": [12, 1600, "v", 24000], "trial": 4, "serialpos": 11, "trial_type": "single-stim", "trial_index": 168, "time_elapsed": 794302, "internal_node_id": "0.0-123.0"}}, {"uniqueid": "MTK0323:3IRIK4HM3BRJO727N3850XWXLBH6CF", "current_trial": 169, "dateTime": 1510708238077, "trialdata": {"rt": -1, "stimulus": "", "key_press": -1, "type": "PRE_RECALL_DELAY", "trial_type": "single-stim", "trial_index": 169, "time_elapsed": 796555, "internal_node_id": "0.0-124.0-0.0"}}, {"uniqueid": "MTK0323:3IRIK4HM3BRJO727N3850XWXLBH6CF", "current_trial": 170, "dateTime": 1510708238584, "trialdata": {"rt": -1000, "stimulus": "/static/audio/400Hz.wav", "key_press": -1, "type": "PRE_RECALL_ALERT", "trial_type": "single-audio", "trial_index": 170, "time_elapsed": 797061, "internal_node_id": "0.0-125.0"}}, {"uniqueid": "MTK0323:3IRIK4HM3BRJO727N3850XWXLBH6CF", "current_trial": 171, "dateTime": 1510708298604, "trialdata": {"rt": [4419, 5459, 8312, 10526, 11981, 13413, 18955, 20560, 25907, 27829, 29115, 30809], "recwords": ["silk", "milk", "tunel", "suspect", "box", "lace", "popcorn", "xerox", "eyelash", "machine", "kitchen", "stove"], "type": "FREE_RECALL", "conditions": [12, 1600, "v", 24000], "trial": 4, "trial_type": "free-recall", "trial_index": 171, "time_elapsed": 857066, "internal_node_id": "0.0-126.0-0.0"}}, {"uniqueid": "MTK0323:3IRIK4HM3BRJO727N3850XWXLBH6CF", "current_trial": 172, "dateTime": 1510708302185, "trialdata": {"rt": 1577, "key_press": 13, "type": "INSTRUCTIONS", "trial_type": "text", "trial_index": 172, "time_elapsed": 860663, "internal_node_id": "0.0-127.0"}}, {"uniqueid": "MTK0323:3IRIK4HM3BRJO727N3850XWXLBH6CF", "current_trial": 173, "dateTime": 1510708328191, "trialdata": {"rt": [2108, 3897, 6016, 7512, 10811, 13895, 16053, 20390, 23329], "responses": ["16", "16", "11", "11", "12", "21", "17", "27", "11"], "num1": [8, 7, 3, 1, 4, 8, 7, 9, 3, 3], "num2": [3, 1, 3, 4, 7, 8, 9, 9, 4, 3], "num3": [5, 8, 5, 6, 1, 5, 1, 9, 4, 6], "type": "DISTRACTOR", "conditions": [24, 1600, "a", 24000], "trial": 5, "trial_type": "math-distractor", "trial_index": 173, "time_elapsed": 886669, "internal_node_id": "0.0-128.0"}}, {"uniqueid": "MTK0323:3IRIK4HM3BRJO727N3850XWXLBH6CF", "current_trial": 174, "dateTime": 1510708331204, "trialdata": {"rt": -1, "stimulus": "<p id=\"stim\">10</p>", "key_press": -1, "trial_type": "single-stim", "trial_index": 174, "time_elapsed": 889682, "internal_node_id": "0.0-129.0-0.0"}}, {"uniqueid": "MTK0323:3IRIK4HM3BRJO727N3850XWXLBH6CF", "current_trial": 175, "dateTime": 1510708332209, "trialdata": {"rt": -1, "stimulus": "<p id=\"stim\">9</p>", "key_press": -1, "trial_type": "single-stim", "trial_index": 175, "time_elapsed": 890686, "internal_node_id": "0.0-129.0-1.0"}}, {"uniqueid": "MTK0323:3IRIK4HM3BRJO727N3850XWXLBH6CF", "current_trial": 176, "dateTime": 1510708333214, "trialdata": {"rt": -1, "stimulus": "<p id=\"stim\">8</p>", "key_press": -1, "trial_type": "single-stim", "trial_index": 176, "time_elapsed": 891692, "internal_node_id": "0.0-129.0-2.0"}}, {"uniqueid": "MTK0323:3IRIK4HM3BRJO727N3850XWXLBH6CF", "current_trial": 177, "dateTime": 1510708334218, "trialdata": {"rt": -1, "stimulus": "<p id=\"stim\">7</p>", "key_press": -1, "trial_type": "single-stim", "trial_index": 177, "time_elapsed": 892695, "internal_node_id": "0.0-129.0-3.0"}}, {"uniqueid": "MTK0323:3IRIK4HM3BRJO727N3850XWXLBH6CF", "current_trial": 178, "dateTime": 1510708335219, "trialdata": {"rt": -1, "stimulus": "<p id=\"stim\">6</p>", "key_press": -1, "trial_type": "single-stim", "trial_index": 178, "time_elapsed": 893697, "internal_node_id": "0.0-129.0-4.0"}}, {"uniqueid": "MTK0323:3IRIK4HM3BRJO727N3850XWXLBH6CF", "current_trial": 179, "dateTime": 1510708336224, "trialdata": {"rt": -1, "stimulus": "<p id=\"stim\">5</p>", "key_press": -1, "trial_type": "single-stim", "trial_index": 179, "time_elapsed": 894702, "internal_node_id": "0.0-129.0-5.0"}}, {"uniqueid": "MTK0323:3IRIK4HM3BRJO727N3850XWXLBH6CF", "current_trial": 180, "dateTime": 1510708337225, "trialdata": {"rt": -1, "stimulus": "<p id=\"stim\">4</p>", "key_press": -1, "trial_type": "single-stim", "trial_index": 180, "time_elapsed": 895703, "internal_node_id": "0.0-129.0-6.0"}}, {"uniqueid": "MTK0323:3IRIK4HM3BRJO727N3850XWXLBH6CF", "current_trial": 181, "dateTime": 1510708338227, "trialdata": {"rt": -1, "stimulus": "<p id=\"stim\">3</p>", "key_press": -1, "trial_type": "single-stim", "trial_index": 181, "time_elapsed": 896704, "internal_node_id": "0.0-129.0-7.0"}}, {"uniqueid": "MTK0323:3IRIK4HM3BRJO727N3850XWXLBH6CF", "current_trial": 182, "dateTime": 1510708339228, "trialdata": {"rt": -1, "stimulus": "<p id=\"stim\">2</p>", "key_press": -1, "trial_type": "single-stim", "trial_index": 182, "time_elapsed": 897706, "internal_node_id": "0.0-129.0-8.0"}}, {"uniqueid": "MTK0323:3IRIK4HM3BRJO727N3850XWXLBH6CF", "current_trial": 183, "dateTime": 1510708340232, "trialdata": {"rt": -1, "stimulus": "<p id=\"stim\">1</p>", "key_press": -1, "trial_type": "single-stim", "trial_index": 183, "time_elapsed": 898710, "internal_node_id": "0.0-129.0-9.0"}}, {"uniqueid": "MTK0323:3IRIK4HM3BRJO727N3850XWXLBH6CF", "current_trial": 184, "dateTime": 1510708341736, "trialdata": {"rt": -1, "stimulus": "<p id=\"stim\">+</p>", "key_press": -1, "type": "FIXATION", "trial_type": "single-stim", "trial_index": 184, "time_elapsed": 900213, "internal_node_id": "0.0-130.0-0.0"}}, {"uniqueid": "MTK0323:3IRIK4HM3BRJO727N3850XWXLBH6CF", "current_trial": 185, "dateTime": 1510708344357, "trialdata": {"rt": -1000, "stimulus": "/static/audio/wordpool/ROOSTER.wav", "key_press": -1, "type": "PRES_AUD", "word": "rooster", "wordID": 1208, "conditions": [24, 1600, "a", 24000], "trial": 5, "serialpos": 0, "trial_type": "single-audio", "trial_index": 185, "time_elapsed": 902835, "internal_node_id": "0.0-131.0"}}, {"uniqueid": "MTK0323:3IRIK4HM3BRJO727N3850XWXLBH6CF", "current_trial": 186, "dateTime": 1510708347086, "trialdata": {"rt": -1000, "stimulus": "/static/audio/wordpool/GAVEL.wav", "key_press": -1, "type": "PRES_AUD", "word": "gavel", "wordID": 626, "conditions": [24, 1600, "a", 24000], "trial": 5, "serialpos": 1, "trial_type": "single-audio", "trial_index": 186, "time_elapsed": 905564, "internal_node_id": "0.0-132.0"}}, {"uniqueid": "MTK0323:3IRIK4HM3BRJO727N3850XWXLBH6CF", "current_trial": 187, "dateTime": 1510708349840, "trialdata": {"rt": -1000, "stimulus": "/static/audio/wordpool/JUNGLE.wav", "key_press": -1, "type": "PRES_AUD", "word": "jungle", "wordID": 763, "conditions": [24, 1600, "a", 24000], "trial": 5, "serialpos": 2, "trial_type": "single-audio", "trial_index": 187, "time_elapsed": 908318, "internal_node_id": "0.0-133.0"}}, {"uniqueid": "MTK0323:3IRIK4HM3BRJO727N3850XWXLBH6CF", "current_trial": 188, "dateTime": 1510708352607, "trialdata": {"rt": -1000, "stimulus": "/static/audio/wordpool/COOKBOOK.wav", "key_press": -1, "type": "PRES_AUD", "word": "cookbook", "wordID": 372, "conditions": [24, 1600, "a", 24000], "trial": 5, "serialpos": 3, "trial_type": "single-audio", "trial_index": 188, "time_elapsed": 911084, "internal_node_id": "0.0-134.0"}}, {"uniqueid": "MTK0323:3IRIK4HM3BRJO727N3850XWXLBH6CF", "current_trial": 189, "dateTime": 1510708355293, "trialdata": {"rt": -1000, "stimulus": "/static/audio/wordpool/FLEET.wav", "key_press": -1, "type": "PRES_AUD", "word": "fleet", "wordID": 577, "conditions": [24, 1600, "a", 24000], "trial": 5, "serialpos": 4, "trial_type": "single-audio", "trial_index": 189, "time_elapsed": 913771, "internal_node_id": "0.0-135.0"}}, {"uniqueid": "MTK0323:3IRIK4HM3BRJO727N3850XWXLBH6CF", "current_trial": 190, "dateTime": 1510708357731, "trialdata": {"rt": -1000, "stimulus": "/static/audio/wordpool/PRINCESS.wav", "key_press": -1, "type": "PRES_AUD", "word": "princess", "wordID": 1124, "conditions": [24, 1600, "a", 24000], "trial": 5, "serialpos": 5, "trial_type": "single-audio", "trial_index": 190, "time_elapsed": 916208, "internal_node_id": "0.0-136.0"}}, {"uniqueid": "MTK0323:3IRIK4HM3BRJO727N3850XWXLBH6CF", "current_trial": 191, "dateTime": 1510708360245, "trialdata": {"rt": -1000, "stimulus": "/static/audio/wordpool/BROTHER.wav", "key_press": -1, "type": "PRES_AUD", "word": "brother", "wordID": 178, "conditions": [24, 1600, "a", 24000], "trial": 5, "serialpos": 6, "trial_type": "single-audio", "trial_index": 191, "time_elapsed": 918723, "internal_node_id": "0.0-137.0"}}, {"uniqueid": "MTK0323:3IRIK4HM3BRJO727N3850XWXLBH6CF", "current_trial": 192, "dateTime": 1510708362835, "trialdata": {"rt": -1000, "stimulus": "/static/audio/wordpool/MAILMAN.wav", "key_press": -1, "type": "PRES_AUD", "word": "mailman", "wordID": 857, "conditions": [24, 1600, "a", 24000], "trial": 5, "serialpos": 7, "trial_type": "single-audio", "trial_index": 192, "time_elapsed": 921313, "internal_node_id": "0.0-138.0"}}, {"uniqueid": "MTK0323:3IRIK4HM3BRJO727N3850XWXLBH6CF", "current_trial": 193, "dateTime": 1510708365375, "trialdata": {"rt": -1000, "stimulus": "/static/audio/wordpool/MAILBOX.wav", "key_press": -1, "type": "PRES_AUD", "word": "mailbox", "wordID": 856, "conditions": [24, 1600, "a", 24000], "trial": 5, "serialpos": 8, "trial_type": "single-audio", "trial_index": 193, "time_elapsed": 923853, "internal_node_id": "0.0-139.0"}}, {"uniqueid": "MTK0323:3IRIK4HM3BRJO727N3850XWXLBH6CF", "current_trial": 194, "dateTime": 1510708368032, "trialdata": {"rt": -1000, "stimulus": "/static/audio/wordpool/QUEEN.wav", "key_press": -1, "type": "PRES_AUD", "word": "queen", "wordID": 1148, "conditions": [24, 1600, "a", 24000], "trial": 5, "serialpos": 9, "trial_type": "single-audio", "trial_index": 194, "time_elapsed": 926510, "internal_node_id": "0.0-140.0"}}, {"uniqueid": "MTK0323:3IRIK4HM3BRJO727N3850XWXLBH6CF", "current_trial": 195, "dateTime": 1510708370799, "trialdata": {"rt": -1000, "stimulus": "/static/audio/wordpool/ATLAS.wav", "key_press": -1, "type": "PRES_AUD", "word": "atlas", "wordID": 52, "conditions": [24, 1600, "a", 24000], "trial": 5, "serialpos": 10, "trial_type": "single-audio", "trial_index": 195, "time_elapsed": 929276, "internal_node_id": "0.0-141.0"}}, {"uniqueid": "MTK0323:3IRIK4HM3BRJO727N3850XWXLBH6CF", "current_trial": 196, "dateTime": 1510708373311, "trialdata": {"rt": -1000, "stimulus": "/static/audio/wordpool/SKETCH.wav", "key_press": -1, "type": "PRES_AUD", "word": "sketch", "wordID": 1314, "conditions": [24, 1600, "a", 24000], "trial": 5, "serialpos": 11, "trial_type": "single-audio", "trial_index": 196, "time_elapsed": 931789, "internal_node_id": "0.0-142.0"}}, {"uniqueid": "MTK0323:3IRIK4HM3BRJO727N3850XWXLBH6CF", "current_trial": 197, "dateTime": 1510708375803, "trialdata": {"rt": -1000, "stimulus": "/static/audio/wordpool/SCARF.wav", "key_press": -1, "type": "PRES_AUD", "word": "scarf", "wordID": 1245, "conditions": [24, 1600, "a", 24000], "trial": 5, "serialpos": 12, "trial_type": "single-audio", "trial_index": 197, "time_elapsed": 934280, "internal_node_id": "0.0-143.0"}}, {"uniqueid": "MTK0323:3IRIK4HM3BRJO727N3850XWXLBH6CF", "current_trial": 198, "dateTime": 1510708378321, "trialdata": {"rt": -1000, "stimulus": "/static/audio/wordpool/CHURCH.wav", "key_press": -1, "type": "PRES_AUD", "word": "church", "wordID": 306, "conditions": [24, 1600, "a", 24000], "trial": 5, "serialpos": 13, "trial_type": "single-audio", "trial_index": 198, "time_elapsed": 936799, "internal_node_id": "0.0-144.0"}}, {"uniqueid": "MTK0323:3IRIK4HM3BRJO727N3850XWXLBH6CF", "current_trial": 199, "dateTime": 1510708380874, "trialdata": {"rt": -1000, "stimulus": "/static/audio/wordpool/STAPLE.wav", "key_press": -1, "type": "PRES_AUD", "word": "staple", "wordID": 1370, "conditions": [24, 1600, "a", 24000], "trial": 5, "serialpos": 14, "trial_type": "single-audio", "trial_index": 199, "time_elapsed": 939351, "internal_node_id": "0.0-145.0"}}, {"uniqueid": "MTK0323:3IRIK4HM3BRJO727N3850XWXLBH6CF", "current_trial": 200, "dateTime": 1510708383460, "trialdata": {"rt": -1000, "stimulus": "/static/audio/wordpool/BASEMENT.wav", "key_press": -1, "type": "PRES_AUD", "word": "basement", "wordID": 93, "conditions": [24, 1600, "a", 24000], "trial": 5, "serialpos": 15, "trial_type": "single-audio", "trial_index": 200, "time_elapsed": 941937, "internal_node_id": "0.0-146.0"}}, {"uniqueid": "MTK0323:3IRIK4HM3BRJO727N3850XWXLBH6CF", "current_trial": 201, "dateTime": 1510708385929, "trialdata": {"rt": -1000, "stimulus": "/static/audio/wordpool/PARSLEY.wav", "key_press": -1, "type": "PRES_AUD", "word": "parsley", "wordID": 1015, "conditions": [24, 1600, "a", 24000], "trial": 5, "serialpos": 16, "trial_type": "single-audio", "trial_index": 201, "time_elapsed": 944407, "internal_node_id": "0.0-147.0"}}, {"uniqueid": "MTK0323:3IRIK4HM3BRJO727N3850XWXLBH6CF", "current_trial": 202, "dateTime": 1510708388566, "trialdata": {"rt": -1000, "stimulus": "/static/audio/wordpool/THREAD.wav", "key_press": -1, "type": "PRES_AUD", "word": "thread", "wordID": 1459, "conditions": [24, 1600, "a", 24000], "trial": 5, "serialpos": 17, "trial_type": "single-audio", "trial_index": 202, "time_elapsed": 947044, "internal_node_id": "0.0-148.0"}}, {"uniqueid": "MTK0323:3IRIK4HM3BRJO727N3850XWXLBH6CF", "current_trial": 203, "dateTime": 1510708391350, "trialdata": {"rt": -1000, "stimulus": "/static/audio/wordpool/TWEEZERS.wav", "key_press": -1, "type": "PRES_AUD", "word": "tweezers", "wordID": 1525, "conditions": [24, 1600, "a", 24000], "trial": 5, "serialpos": 18, "trial_type": "single-audio", "trial_index": 203, "time_elapsed": 949828, "internal_node_id": "0.0-149.0"}}, {"uniqueid": "MTK0323:3IRIK4HM3BRJO727N3850XWXLBH6CF", "current_trial": 204, "dateTime": 1510708393974, "trialdata": {"rt": -1000, "stimulus": "/static/audio/wordpool/GARLIC.wav", "key_press": -1, "type": "PRES_AUD", "word": "garlic", "wordID": 623, "conditions": [24, 1600, "a", 24000], "trial": 5, "serialpos": 19, "trial_type": "single-audio", "trial_index": 204, "time_elapsed": 952451, "internal_node_id": "0.0-150.0"}}, {"uniqueid": "MTK0323:3IRIK4HM3BRJO727N3850XWXLBH6CF", "current_trial": 205, "dateTime": 1510708396511, "trialdata": {"rt": -1000, "stimulus": "/static/audio/wordpool/ONION.wav", "key_press": -1, "type": "PRES_AUD", "word": "onion", "wordID": 976, "conditions": [24, 1600, "a", 24000], "trial": 5, "serialpos": 20, "trial_type": "single-audio", "trial_index": 205, "time_elapsed": 954989, "internal_node_id": "0.0-151.0"}}, {"uniqueid": "MTK0323:3IRIK4HM3BRJO727N3850XWXLBH6CF", "current_trial": 206, "dateTime": 1510708399233, "trialdata": {"rt": -1000, "stimulus": "/static/audio/wordpool/PLIERS.wav", "key_press": -1, "type": "PRES_AUD", "word": "pliers", "wordID": 1088, "conditions": [24, 1600, "a", 24000], "trial": 5, "serialpos": 21, "trial_type": "single-audio", "trial_index": 206, "time_elapsed": 957710, "internal_node_id": "0.0-152.0"}}, {"uniqueid": "MTK0323:3IRIK4HM3BRJO727N3850XWXLBH6CF", "current_trial": 207, "dateTime": 1510708401908, "trialdata": {"rt": -1000, "stimulus": "/static/audio/wordpool/CABBAGE.wav", "key_press": -1, "type": "PRES_AUD", "word": "cabbage", "wordID": 209, "conditions": [24, 1600, "a", 24000], "trial": 5, "serialpos": 22, "trial_type": "single-audio", "trial_index": 207, "time_elapsed": 960386, "internal_node_id": "0.0-153.0"}}, {"uniqueid": "MTK0323:3IRIK4HM3BRJO727N3850XWXLBH6CF", "current_trial": 208, "dateTime": 1510708404351, "trialdata": {"rt": -1000, "stimulus": "/static/audio/wordpool/BELLY.wav", "key_press": -1, "type": "PRES_AUD", "word": "belly", "wordID": 118, "conditions": [24, 1600, "a", 24000], "trial": 5, "serialpos": 23, "trial_type": "single-audio", "trial_index": 208, "time_elapsed": 962829, "internal_node_id": "0.0-154.0"}}, {"uniqueid": "MTK0323:3IRIK4HM3BRJO727N3850XWXLBH6CF", "current_trial": 209, "dateTime": 1510708405563, "trialdata": {"rt": -1, "stimulus": "", "key_press": -1, "type": "PRE_RECALL_DELAY", "trial_type": "single-stim", "trial_index": 209, "time_elapsed": 964041, "internal_node_id": "0.0-155.0-0.0"}}, {"uniqueid": "MTK0323:3IRIK4HM3BRJO727N3850XWXLBH6CF", "current_trial": 210, "dateTime": 1510708406066, "trialdata": {"rt": -1000, "stimulus": "/static/audio/400Hz.wav", "key_press": -1, "type": "PRE_RECALL_ALERT", "trial_type": "single-audio", "trial_index": 210, "time_elapsed": 964544, "internal_node_id": "0.0-156.0"}}, {"uniqueid": "MTK0323:3IRIK4HM3BRJO727N3850XWXLBH6CF", "current_trial": 211, "dateTime": 1510708466082, "trialdata": {"rt": [6519, 9897, 11848, 13855, 17938, 19879, 21323, 23697, 26649, 30077, 42809, 46085, 52045], "recwords": ["belly", "rooster", "gavel", "jungle", "football", "fleet", "jungle", "mailbox", "mailman", "atlas", "spark", "church", "carseat"], "type": "FREE_RECALL", "conditions": [24, 1600, "a", 24000], "trial": 5, "trial_type": "free-recall", "trial_index": 211, "time_elapsed": 1024552, "internal_node_id": "0.0-157.0-0.0"}}, {"uniqueid": "MTK0323:3IRIK4HM3BRJO727N3850XWXLBH6CF", "current_trial": 212, "dateTime": 1510708543776, "trialdata": {"rt": 75689, "key_press": 13, "type": "INSTRUCTIONS", "trial_type": "text", "trial_index": 212, "time_elapsed": 1102254, "internal_node_id": "0.0-158.0"}}, {"uniqueid": "MTK0323:3IRIK4HM3BRJO727N3850XWXLBH6CF", "current_trial": 213, "dateTime": 1510708557793, "trialdata": {"rt": [2613, 4664, 7113, 8819], "responses": ["14", "18", "17", "12"], "num1": [4, 6, 7, 5, 8], "num2": [2, 4, 4, 1, 3], "num3": [8, 8, 6, 6, 9], "type": "DISTRACTOR", "conditions": [12, 800, "v", 12000], "trial": 6, "trial_type": "math-distractor", "trial_index": 213, "time_elapsed": 1116271, "internal_node_id": "0.0-159.0"}}, {"uniqueid": "MTK0323:3IRIK4HM3BRJO727N3850XWXLBH6CF", "current_trial": 214, "dateTime": 1510708560800, "trialdata": {"rt": -1, "stimulus": "<p id=\"stim\">10</p>", "key_press": -1, "trial_type": "single-stim", "trial_index": 214, "time_elapsed": 1119278, "internal_node_id": "0.0-160.0-0.0"}}, {"uniqueid": "MTK0323:3IRIK4HM3BRJO727N3850XWXLBH6CF", "current_trial": 215, "dateTime": 1510708561803, "trialdata": {"rt": -1, "stimulus": "<p id=\"stim\">9</p>", "key_press": -1, "trial_type": "single-stim", "trial_index": 215, "time_elapsed": 1120281, "internal_node_id": "0.0-160.0-1.0"}}, {"uniqueid": "MTK0323:3IRIK4HM3BRJO727N3850XWXLBH6CF", "current_trial": 216, "dateTime": 1510708562809, "trialdata": {"rt": -1, "stimulus": "<p id=\"stim\">8</p>", "key_press": -1, "trial_type": "single-stim", "trial_index": 216, "time_elapsed": 1121287, "internal_node_id": "0.0-160.0-2.0"}}, {"uniqueid": "MTK0323:3IRIK4HM3BRJO727N3850XWXLBH6CF", "current_trial": 217, "dateTime": 1510708563815, "trialdata": {"rt": -1, "stimulus": "<p id=\"stim\">7</p>", "key_press": -1, "trial_type": "single-stim", "trial_index": 217, "time_elapsed": 1122293, "internal_node_id": "0.0-160.0-3.0"}}, {"uniqueid": "MTK0323:3IRIK4HM3BRJO727N3850XWXLBH6CF", "current_trial": 218, "dateTime": 1510708564819, "trialdata": {"rt": -1, "stimulus": "<p id=\"stim\">6</p>", "key_press": -1, "trial_type": "single-stim", "trial_index": 218, "time_elapsed": 1123297, "internal_node_id": "0.0-160.0-4.0"}}, {"uniqueid": "MTK0323:3IRIK4HM3BRJO727N3850XWXLBH6CF", "current_trial": 219, "dateTime": 1510708565823, "trialdata": {"rt": -1, "stimulus": "<p id=\"stim\">5</p>", "key_press": -1, "trial_type": "single-stim", "trial_index": 219, "time_elapsed": 1124301, "internal_node_id": "0.0-160.0-5.0"}}, {"uniqueid": "MTK0323:3IRIK4HM3BRJO727N3850XWXLBH6CF", "current_trial": 220, "dateTime": 1510708566828, "trialdata": {"rt": -1, "stimulus": "<p id=\"stim\">4</p>", "key_press": -1, "trial_type": "single-stim", "trial_index": 220, "time_elapsed": 1125306, "internal_node_id": "0.0-160.0-6.0"}}, {"uniqueid": "MTK0323:3IRIK4HM3BRJO727N3850XWXLBH6CF", "current_trial": 221, "dateTime": 1510708567830, "trialdata": {"rt": -1, "stimulus": "<p id=\"stim\">3</p>", "key_press": -1, "trial_type": "single-stim", "trial_index": 221, "time_elapsed": 1126308, "internal_node_id": "0.0-160.0-7.0"}}, {"uniqueid": "MTK0323:3IRIK4HM3BRJO727N3850XWXLBH6CF", "current_trial": 222, "dateTime": 1510708568833, "trialdata": {"rt": -1, "stimulus": "<p id=\"stim\">2</p>", "key_press": -1, "trial_type": "single-stim", "trial_index": 222, "time_elapsed": 1127311, "internal_node_id": "0.0-160.0-8.0"}}, {"uniqueid": "MTK0323:3IRIK4HM3BRJO727N3850XWXLBH6CF", "current_trial": 223, "dateTime": 1510708569837, "trialdata": {"rt": -1, "stimulus": "<p id=\"stim\">1</p>", "key_press": -1, "trial_type": "single-stim", "trial_index": 223, "time_elapsed": 1128315, "internal_node_id": "0.0-160.0-9.0"}}, {"uniqueid": "MTK0323:3IRIK4HM3BRJO727N3850XWXLBH6CF", "current_trial": 224, "dateTime": 1510708571344, "trialdata": {"rt": -1, "stimulus": "<p id=\"stim\">+</p>", "key_press": -1, "type": "FIXATION", "trial_type": "single-stim", "trial_index": 224, "time_elapsed": 1129821, "internal_node_id": "0.0-161.0-0.0"}}, {"uniqueid": "MTK0323:3IRIK4HM3BRJO727N3850XWXLBH6CF", "current_trial": 225, "dateTime": 1510708572146, "trialdata": {"rt": -1, "stimulus": "<p id=\"stim\">SHELF</p>", "key_press": -1, "type": "PRES_VIS", "word": "shelf", "wordID": 1279, "conditions": [12, 800, "v", 12000], "trial": 6, "serialpos": 0, "trial_type": "single-stim", "trial_index": 225, "time_elapsed": 1130624, "internal_node_id": "0.0-162.0"}}, {"uniqueid": "MTK0323:3IRIK4HM3BRJO727N3850XWXLBH6CF", "current_trial": 226, "dateTime": 1510708573836, "trialdata": {"rt": -1, "stimulus": "<p id=\"stim\">LOFT</p>", "key_press": -1, "type": "PRES_VIS", "word": "loft", "wordID": 839, "conditions": [12, 800, "v", 12000], "trial": 6, "serialpos": 1, "trial_type": "single-stim", "trial_index": 226, "time_elapsed": 1132310, "internal_node_id": "0.0-163.0"}}, {"uniqueid": "MTK0323:3IRIK4HM3BRJO727N3850XWXLBH6CF", "current_trial": 227, "dateTime": 1510708575713, "trialdata": {"rt": -1, "stimulus": "<p id=\"stim\">FOREHEAD</p>", "key_press": -1, "type": "PRES_VIS", "word": "forehead", "wordID": 591, "conditions": [12, 800, "v", 12000], "trial": 6, "serialpos": 2, "trial_type": "single-stim", "trial_index": 227, "time_elapsed": 1134191, "internal_node_id": "0.0-164.0"}}, {"uniqueid": "MTK0323:3IRIK4HM3BRJO727N3850XWXLBH6CF", "current_trial": 228, "dateTime": 1510708577552, "trialdata": {"rt": -1, "stimulus": "<p id=\"stim\">WINDOW</p>", "key_press": -1, "type": "PRES_VIS", "word": "window", "wordID": 1610, "conditions": [12, 800, "v", 12000], "trial": 6, "serialpos": 3, "trial_type": "single-stim", "trial_index": 228, "time_elapsed": 1136030, "internal_node_id": "0.0-165.0"}}, {"uniqueid": "MTK0323:3IRIK4HM3BRJO727N3850XWXLBH6CF", "current_trial": 229, "dateTime": 1510708579159, "trialdata": {"rt": -1, "stimulus": "<p id=\"stim\">MILDEW</p>", "key_press": -1, "type": "PRES_VIS", "word": "mildew", "wordID": 892, "conditions": [12, 800, "v", 12000], "trial": 6, "serialpos": 4, "trial_type": "single-stim", "trial_index": 229, "time_elapsed": 1137637, "internal_node_id": "0.0-166.0"}}, {"uniqueid": "MTK0323:3IRIK4HM3BRJO727N3850XWXLBH6CF", "current_trial": 230, "dateTime": 1510708580867, "trialdata": {"rt": -1, "stimulus": "<p id=\"stim\">SPARROW</p>", "key_press": -1, "type": "PRES_VIS", "word": "sparrow", "wordID": 1346, "conditions": [12, 800, "v", 12000], "trial": 6, "serialpos": 5, "trial_type": "single-stim", "trial_index": 230, "time_elapsed": 1139345, "internal_node_id": "0.0-167.0"}}, {"uniqueid": "MTK0323:3IRIK4HM3BRJO727N3850XWXLBH6CF", "current_trial": 231, "dateTime": 1510708582621, "trialdata": {"rt": -1, "stimulus": "<p id=\"stim\">SHARK</p>", "key_press": -1, "type": "PRES_VIS", "word": "shark", "wordID": 1274, "conditions": [12, 800, "v", 12000], "trial": 6, "serialpos": 6, "trial_type": "single-stim", "trial_index": 231, "time_elapsed": 1141099, "internal_node_id": "0.0-168.0"}}, {"uniqueid": "MTK0323:3IRIK4HM3BRJO727N3850XWXLBH6CF", "current_trial": 232, "dateTime": 1510708584416, "trialdata": {"rt": -1, "stimulus": "<p id=\"stim\">FOX</p>", "key_press": -1, "type": "PRES_VIS", "word": "fox", "wordID": 597, "conditions": [12, 800, "v", 12000], "trial": 6, "serialpos": 7, "trial_type": "single-stim", "trial_index": 232, "time_elapsed": 1142894, "internal_node_id": "0.0-169.0"}}, {"uniqueid": "MTK0323:3IRIK4HM3BRJO727N3850XWXLBH6CF", "current_trial": 233, "dateTime": 1510708586400, "trialdata": {"rt": -1, "stimulus": "<p id=\"stim\">COMPASS</p>", "key_press": -1, "type": "PRES_VIS", "word": "compass", "wordID": 357, "conditions": [12, 800, "v", 12000], "trial": 6, "serialpos": 8, "trial_type": "single-stim", "trial_index": 233, "time_elapsed": 1144878, "internal_node_id": "0.0-170.0"}}, {"uniqueid": "MTK0323:3IRIK4HM3BRJO727N3850XWXLBH6CF", "current_trial": 234, "dateTime": 1510708588183, "trialdata": {"rt": -1, "stimulus": "<p id=\"stim\">CREATURE</p>", "key_press": -1, "type": "PRES_VIS", "word": "creature", "wordID": 402, "conditions": [12, 800, "v", 12000], "trial": 6, "serialpos": 9, "trial_type": "single-stim", "trial_index": 234, "time_elapsed": 1146661, "internal_node_id": "0.0-171.0"}}, {"uniqueid": "MTK0323:3IRIK4HM3BRJO727N3850XWXLBH6CF", "current_trial": 235, "dateTime": 1510708589984, "trialdata": {"rt": -1, "stimulus": "<p id=\"stim\">BEAST</p>", "key_press": -1, "type": "PRES_VIS", "word": "beast", "wordID": 107, "conditions": [12, 800, "v", 12000], "trial": 6, "serialpos": 10, "trial_type": "single-stim", "trial_index": 235, "time_elapsed": 1148462, "internal_node_id": "0.0-172.0"}}, {"uniqueid": "MTK0323:3IRIK4HM3BRJO727N3850XWXLBH6CF", "current_trial": 236, "dateTime": 1510708591759, "trialdata": {"rt": -1, "stimulus": "<p id=\"stim\">ROBIN</p>", "key_press": -1, "type": "PRES_VIS", "word": "robin", "wordID": 1198, "conditions": [12, 800, "v", 12000], "trial": 6, "serialpos": 11, "trial_type": "single-stim", "trial_index": 236, "time_elapsed": 1150237, "internal_node_id": "0.0-173.0"}}, {"uniqueid": "MTK0323:3IRIK4HM3BRJO727N3850XWXLBH6CF", "current_trial": 237, "dateTime": 1510708594081, "trialdata": {"rt": -1, "stimulus": "", "key_press": -1, "type": "PRE_RECALL_DELAY", "trial_type": "single-stim", "trial_index": 237, "time_elapsed": 1152559, "internal_node_id": "0.0-174.0-0.0"}}, {"uniqueid": "MTK0323:3IRIK4HM3BRJO727N3850XWXLBH6CF", "current_trial": 238, "dateTime": 1510708594589, "trialdata": {"rt": -1000, "stimulus": "/static/audio/400Hz.wav", "key_press": -1, "type": "PRE_RECALL_ALERT", "trial_type": "single-audio", "trial_index": 238, "time_elapsed": 1153066, "internal_node_id": "0.0-175.0"}}, {"uniqueid": "MTK0323:3IRIK4HM3BRJO727N3850XWXLBH6CF", "current_trial": 239, "dateTime": 1510708654614, "trialdata": {"rt": [3984, 5476, 17739], "recwords": ["robin", "shelf", "creature"], "type": "FREE_RECALL", "conditions": [12, 800, "v", 12000], "trial": 6, "trial_type": "free-recall", "trial_index": 239, "time_elapsed": 1213076, "internal_node_id": "0.0-176.0-0.0"}}, {"uniqueid": "MTK0323:3IRIK4HM3BRJO727N3850XWXLBH6CF", "current_trial": 240, "dateTime": 1510708658347, "trialdata": {"rt": 1728, "key_press": 13, "type": "INSTRUCTIONS", "trial_type": "text", "trial_index": 240, "time_elapsed": 1216825, "internal_node_id": "0.0-177.0"}}, {"uniqueid": "MTK0323:3IRIK4HM3BRJO727N3850XWXLBH6CF", "current_trial": 241, "dateTime": 1510708672364, "trialdata": {"rt": [2443, 6637, 9257, 10980], "responses": ["19", "12", "10", "11"], "num1": [9, 4, 2, 5, 2], "num2": [8, 7, 5, 4, 6], "num3": [2, 1, 3, 2, 4], "type": "DISTRACTOR", "conditions": [12, 800, "a", 12000], "trial": 7, "trial_type": "math-distractor", "trial_index": 241, "time_elapsed": 1230842, "internal_node_id": "0.0-178.0"}}, {"uniqueid": "MTK0323:3IRIK4HM3BRJO727N3850XWXLBH6CF", "current_trial": 242, "dateTime": 1510708675373, "trialdata": {"rt": -1, "stimulus": "<p id=\"stim\">10</p>", "key_press": -1, "trial_type": "single-stim", "trial_index": 242, "time_elapsed": 1233851, "internal_node_id": "0.0-179.0-0.0"}}, {"uniqueid": "MTK0323:3IRIK4HM3BRJO727N3850XWXLBH6CF", "current_trial": 243, "dateTime": 1510708676377, "trialdata": {"rt": -1, "stimulus": "<p id=\"stim\">9</p>", "key_press": -1, "trial_type": "single-stim", "trial_index": 243, "time_elapsed": 1234855, "internal_node_id": "0.0-179.0-1.0"}}, {"uniqueid": "MTK0323:3IRIK4HM3BRJO727N3850XWXLBH6CF", "current_trial": 244, "dateTime": 1510708677380, "trialdata": {"rt": -1, "stimulus": "<p id=\"stim\">8</p>", "key_press": -1, "trial_type": "single-stim", "trial_index": 244, "time_elapsed": 1235858, "internal_node_id": "0.0-179.0-2.0"}}, {"uniqueid": "MTK0323:3IRIK4HM3BRJO727N3850XWXLBH6CF", "current_trial": 245, "dateTime": 1510708678384, "trialdata": {"rt": -1, "stimulus": "<p id=\"stim\">7</p>", "key_press": -1, "trial_type": "single-stim", "trial_index": 245, "time_elapsed": 1236862, "internal_node_id": "0.0-179.0-3.0"}}, {"uniqueid": "MTK0323:3IRIK4HM3BRJO727N3850XWXLBH6CF", "current_trial": 246, "dateTime": 1510708679387, "trialdata": {"rt": -1, "stimulus": "<p id=\"stim\">6</p>", "key_press": -1, "trial_type": "single-stim", "trial_index": 246, "time_elapsed": 1237865, "internal_node_id": "0.0-179.0-4.0"}}, {"uniqueid": "MTK0323:3IRIK4HM3BRJO727N3850XWXLBH6CF", "current_trial": 247, "dateTime": 1510708680392, "trialdata": {"rt": -1, "stimulus": "<p id=\"stim\">5</p>", "key_press": -1, "trial_type": "single-stim", "trial_index": 247, "time_elapsed": 1238870, "internal_node_id": "0.0-179.0-5.0"}}, {"uniqueid": "MTK0323:3IRIK4HM3BRJO727N3850XWXLBH6CF", "current_trial": 248, "dateTime": 1510708681397, "trialdata": {"rt": -1, "stimulus": "<p id=\"stim\">4</p>", "key_press": -1, "trial_type": "single-stim", "trial_index": 248, "time_elapsed": 1239875, "internal_node_id": "0.0-179.0-6.0"}}, {"uniqueid": "MTK0323:3IRIK4HM3BRJO727N3850XWXLBH6CF", "current_trial": 249, "dateTime": 1510708682401, "trialdata": {"rt": -1, "stimulus": "<p id=\"stim\">3</p>", "key_press": -1, "trial_type": "single-stim", "trial_index": 249, "time_elapsed": 1240879, "internal_node_id": "0.0-179.0-7.0"}}, {"uniqueid": "MTK0323:3IRIK4HM3BRJO727N3850XWXLBH6CF", "current_trial": 250, "dateTime": 1510708683405, "trialdata": {"rt": -1, "stimulus": "<p id=\"stim\">2</p>", "key_press": -1, "trial_type": "single-stim", "trial_index": 250, "time_elapsed": 1241883, "internal_node_id": "0.0-179.0-8.0"}}, {"uniqueid": "MTK0323:3IRIK4HM3BRJO727N3850XWXLBH6CF", "current_trial": 251, "dateTime": 1510708684409, "trialdata": {"rt": -1, "stimulus": "<p id=\"stim\">1</p>", "key_press": -1, "trial_type": "single-stim", "trial_index": 251, "time_elapsed": 1242887, "internal_node_id": "0.0-179.0-9.0"}}, {"uniqueid": "MTK0323:3IRIK4HM3BRJO727N3850XWXLBH6CF", "current_trial": 252, "dateTime": 1510708685913, "trialdata": {"rt": -1, "stimulus": "<p id=\"stim\">+</p>", "key_press": -1, "type": "FIXATION", "trial_type": "single-stim", "trial_index": 252, "time_elapsed": 1244391, "internal_node_id": "0.0-180.0-0.0"}}, {"uniqueid": "MTK0323:3IRIK4HM3BRJO727N3850XWXLBH6CF", "current_trial": 253, "dateTime": 1510708687642, "trialdata": {"rt": -1000, "stimulus": "/static/audio/wordpool/FLASK.wav", "key_press": -1, "type": "PRES_AUD", "word": "flask", "wordID": 575, "conditions": [12, 800, "a", 12000], "trial": 7, "serialpos": 0, "trial_type": "single-audio", "trial_index": 253, "time_elapsed": 1246120, "internal_node_id": "0.0-181.0"}}, {"uniqueid": "MTK0323:3IRIK4HM3BRJO727N3850XWXLBH6CF", "current_trial": 254, "dateTime": 1510708689571, "trialdata": {"rt": -1000, "stimulus": "/static/audio/wordpool/DRIVER.wav", "key_press": -1, "type": "PRES_AUD", "word": "driver", "wordID": 498, "conditions": [12, 800, "a", 12000], "trial": 7, "serialpos": 1, "trial_type": "single-audio", "trial_index": 254, "time_elapsed": 1248049, "internal_node_id": "0.0-182.0"}}, {"uniqueid": "MTK0323:3IRIK4HM3BRJO727N3850XWXLBH6CF", "current_trial": 255, "dateTime": 1510708691228, "trialdata": {"rt": -1000, "stimulus": "/static/audio/wordpool/PIGEON.wav", "key_press": -1, "type": "PRES_AUD", "word": "pigeon", "wordID": 1064, "conditions": [12, 800, "a", 12000], "trial": 7, "serialpos": 2, "trial_type": "single-audio", "trial_index": 255, "time_elapsed": 1249706, "internal_node_id": "0.0-183.0"}}, {"uniqueid": "MTK0323:3IRIK4HM3BRJO727N3850XWXLBH6CF", "current_trial": 256, "dateTime": 1510708692954, "trialdata": {"rt": -1000, "stimulus": "/static/audio/wordpool/FIREPLACE.wav", "key_press": -1, "type": "PRES_AUD", "word": "fireplace", "wordID": 569, "conditions": [12, 800, "a", 12000], "trial": 7, "serialpos": 3, "trial_type": "single-audio", "trial_index": 256, "time_elapsed": 1251432, "internal_node_id": "0.0-184.0"}}, {"uniqueid": "MTK0323:3IRIK4HM3BRJO727N3850XWXLBH6CF", "current_trial": 257, "dateTime": 1510708694913, "trialdata": {"rt": -1000, "stimulus": "/static/audio/wordpool/FLASHLIGHT.wav", "key_press": -1, "type": "PRES_AUD", "word": "flashlight", "wordID": 574, "conditions": [12, 800, "a", 12000], "trial": 7, "serialpos": 4, "trial_type": "single-audio", "trial_index": 257, "time_elapsed": 1253391, "internal_node_id": "0.0-185.0"}}, {"uniqueid": "MTK0323:3IRIK4HM3BRJO727N3850XWXLBH6CF", "current_trial": 258, "dateTime": 1510708696650, "trialdata": {"rt": -1000, "stimulus": "/static/audio/wordpool/LABEL.wav", "key_press": -1, "type": "PRES_AUD", "word": "label", "wordID": 789, "conditions": [12, 800, "a", 12000], "trial": 7, "serialpos": 5, "trial_type": "single-audio", "trial_index": 258, "time_elapsed": 1255128, "internal_node_id": "0.0-186.0"}}, {"uniqueid": "MTK0323:3IRIK4HM3BRJO727N3850XWXLBH6CF", "current_trial": 259, "dateTime": 1510708698489, "trialdata": {"rt": -1000, "stimulus": "/static/audio/wordpool/RABBIT.wav", "key_press": -1, "type": "PRES_AUD", "word": "rabbit", "wordID": 1151, "conditions": [12, 800, "a", 12000], "trial": 7, "serialpos": 6, "trial_type": "single-audio", "trial_index": 259, "time_elapsed": 1256967, "internal_node_id": "0.0-187.0"}}, {"uniqueid": "MTK0323:3IRIK4HM3BRJO727N3850XWXLBH6CF", "current_trial": 260, "dateTime": 1510708700155, "trialdata": {"rt": -1000, "stimulus": "/static/audio/wordpool/MUSTARD.wav", "key_press": -1, "type": "PRES_AUD", "word": "mustard", "wordID": 934, "conditions": [12, 800, "a", 12000], "trial": 7, "serialpos": 7, "trial_type": "single-audio", "trial_index": 260, "time_elapsed": 1258633, "internal_node_id": "0.0-188.0"}}, {"uniqueid": "MTK0323:3IRIK4HM3BRJO727N3850XWXLBH6CF", "current_trial": 261, "dateTime": 1510708701826, "trialdata": {"rt": -1000, "stimulus": "/static/audio/wordpool/BLACKBOARD.wav", "key_press": -1, "type": "PRES_AUD", "word": "blackboard", "wordID": 132, "conditions": [12, 800, "a", 12000], "trial": 7, "serialpos": 8, "trial_type": "single-audio", "trial_index": 261, "time_elapsed": 1260304, "internal_node_id": "0.0-189.0"}}, {"uniqueid": "MTK0323:3IRIK4HM3BRJO727N3850XWXLBH6CF", "current_trial": 262, "dateTime": 1510708703786, "trialdata": {"rt": -1000, "stimulus": "/static/audio/wordpool/TRENCH.wav", "key_press": -1, "type": "PRES_AUD", "word": "trench", "wordID": 1502, "conditions": [12, 800, "a", 12000], "trial": 7, "serialpos": 9, "trial_type": "single-audio", "trial_index": 262, "time_elapsed": 1262263, "internal_node_id": "0.0-190.0"}}, {"uniqueid": "MTK0323:3IRIK4HM3BRJO727N3850XWXLBH6CF", "current_trial": 263, "dateTime": 1510708705639, "trialdata": {"rt": -1000, "stimulus": "/static/audio/wordpool/LAGOON.wav", "key_press": -1, "type": "PRES_AUD", "word": "lagoon", "wordID": 794, "conditions": [12, 800, "a", 12000], "trial": 7, "serialpos": 10, "trial_type": "single-audio", "trial_index": 263, "time_elapsed": 1264117, "internal_node_id": "0.0-191.0"}}, {"uniqueid": "MTK0323:3IRIK4HM3BRJO727N3850XWXLBH6CF", "current_trial": 264, "dateTime": 1510708707617, "trialdata": {"rt": -1000, "stimulus": "/static/audio/wordpool/MARSH.wav", "key_press": -1, "type": "PRES_AUD", "word": "marsh", "wordID": 873, "conditions": [12, 800, "a", 12000], "trial": 7, "serialpos": 11, "trial_type": "single-audio", "trial_index": 264, "time_elapsed": 1266095, "internal_node_id": "0.0-192.0"}}, {"uniqueid": "MTK0323:3IRIK4HM3BRJO727N3850XWXLBH6CF", "current_trial": 265, "dateTime": 1510708708984, "trialdata": {"rt": -1, "stimulus": "", "key_press": -1, "type": "PRE_RECALL_DELAY", "trial_type": "single-stim", "trial_index": 265, "time_elapsed": 1267462, "internal_node_id": "0.0-193.0-0.0"}}, {"uniqueid": "MTK0323:3IRIK4HM3BRJO727N3850XWXLBH6CF", "current_trial": 266, "dateTime": 1510708709493, "trialdata": {"rt": -1000, "stimulus": "/static/audio/400Hz.wav", "key_press": -1, "type": "PRE_RECALL_ALERT", "trial_type": "single-audio", "trial_index": 266, "time_elapsed": 1267971, "internal_node_id": "0.0-194.0"}}, {"uniqueid": "MTK0323:3IRIK4HM3BRJO727N3850XWXLBH6CF", "current_trial": 267, "dateTime": 1510708769501, "trialdata": {"rt": [15579, 17195, 18425], "recwords": ["lagoon", "marsh", "flask"], "type": "FREE_RECALL", "conditions": [12, 800, "a", 12000], "trial": 7, "trial_type": "free-recall", "trial_index": 267, "time_elapsed": 1327976, "internal_node_id": "0.0-195.0-0.0"}}, {"uniqueid": "MTK0323:3IRIK4HM3BRJO727N3850XWXLBH6CF", "current_trial": 268, "dateTime": 1510708776366, "trialdata": {"rt": 4862, "key_press": 13, "type": "INSTRUCTIONS", "trial_type": "text", "trial_index": 268, "time_elapsed": 1334844, "internal_node_id": "0.0-196.0"}}, {"uniqueid": "MTK0323:3IRIK4HM3BRJO727N3850XWXLBH6CF", "current_trial": 269, "dateTime": 1510708790377, "trialdata": {"rt": [2105, 10148, 11767], "responses": ["7", "trdg16", "16"], "num1": [1, 9, 5, 5], "num2": [4, 3, 6, 5], "num3": [2, 3, 5, 2], "type": "DISTRACTOR", "conditions": [24, 800, "a", 12000], "trial": 8, "trial_type": "math-distractor", "trial_index": 269, "time_elapsed": 1348855, "internal_node_id": "0.0-197.0"}}, {"uniqueid": "MTK0323:3IRIK4HM3BRJO727N3850XWXLBH6CF", "current_trial": 270, "dateTime": 1510708793383, "trialdata": {"rt": -1, "stimulus": "<p id=\"stim\">10</p>", "key_press": -1, "trial_type": "single-stim", "trial_index": 270, "time_elapsed": 1351861, "internal_node_id": "0.0-198.0-0.0"}}, {"uniqueid": "MTK0323:3IRIK4HM3BRJO727N3850XWXLBH6CF", "current_trial": 271, "dateTime": 1510708794387, "trialdata": {"rt": -1, "stimulus": "<p id=\"stim\">9</p>", "key_press": -1, "trial_type": "single-stim", "trial_index": 271, "time_elapsed": 1352865, "internal_node_id": "0.0-198.0-1.0"}}, {"uniqueid": "MTK0323:3IRIK4HM3BRJO727N3850XWXLBH6CF", "current_trial": 272, "dateTime": 1510708795391, "trialdata": {"rt": -1, "stimulus