{"condition": 0, "counterbalance": 381, "assignmentId": "3DQQ64TANHS0CBQHJQ7FIRUH77UWPA", "workerId": "MTK0041", "hitId": "3S1WOPCJFG08MG3YDB3NA55LEPNJE3", "currenttrial": 625, "bonus": 0, "data": [{"uniqueid": "MTK0041:3DQQ64TANHS0CBQHJQ7FIRUH77UWPA", "current_trial": 0, "dateTime": 1509048304632, "trialdata": {"rt": 4783, "key_press": 32, "type": "INSTRUCTIONS", "trial_type": "text", "trial_index": 0, "time_elapsed": 4797, "internal_node_id": "0.0-0.0"}}, {"uniqueid": "MTK0041:3DQQ64TANHS0CBQHJQ7FIRUH77UWPA", "current_trial": 1, "dateTime": 1509048421284, "trialdata": {"rt": 116647, "key_press": 39, "type": "INSTRUCTIONS", "trial_type": "text", "trial_index": 1, "time_elapsed": 121452, "internal_node_id": "0.0-1.0"}}, {"uniqueid": "MTK0041:3DQQ64TANHS0CBQHJQ7FIRUH77UWPA", "current_trial": 2, "dateTime": 1509048438625, "trialdata": {"rt": [17291], "responses": ["ocean"], "type": "AUDIO_TEST", "trial_type": "audio-test", "trial_index": 2, "time_elapsed": 138793, "internal_node_id": "0.0-2.0"}}, {"uniqueid": "MTK0041:3DQQ64TANHS0CBQHJQ7FIRUH77UWPA", "current_trial": 3, "dateTime": 1509048449367, "trialdata": {"rt": [10734], "responses": ["crystal"], "type": "AUDIO_TEST", "trial_type": "audio-test", "trial_index": 3, "time_elapsed": 149535, "internal_node_id": "0.0-3.0"}}, {"uniqueid": "MTK0041:3DQQ64TANHS0CBQHJQ7FIRUH77UWPA", "current_trial": 4, "dateTime": 1509048466522, "trialdata": {"rt": [17146], "responses": ["spice"], "type": "AUDIO_TEST", "trial_type": "audio-test", "trial_index": 4, "time_elapsed": 166690, "internal_node_id": "0.0-4.0"}}, {"uniqueid": "MTK0041:3DQQ64TANHS0CBQHJQ7FIRUH77UWPA", "current_trial": 5, "dateTime": 1509048503945, "trialdata": {"rt": 36671, "key_press": 13, "type": "INSTRUCTIONS", "trial_type": "text", "trial_index": 5, "time_elapsed": 204113, "internal_node_id": "0.0-5.0"}}, {"uniqueid": "MTK0041:3DQQ64TANHS0CBQHJQ7FIRUH77UWPA", "current_trial": 6, "dateTime": 1509048605337, "trialdata": {"rt": 101391, "key_press": 13, "type": "INSTRUCTIONS", "trial_type": "text", "trial_index": 6, "time_elapsed": 305504, "internal_node_id": "0.0-6.0"}}, {"uniqueid": "MTK0041:3DQQ64TANHS0CBQHJQ7FIRUH77UWPA", "current_trial": 7, "dateTime": 1509048639124, "trialdata": {"rt": 33785, "key_press": 32, "type": "INSTRUCTIONS", "trial_type": "text", "trial_index": 7, "time_elapsed": 339292, "internal_node_id": "0.0-7.0"}}, {"uniqueid": "MTK0041:3DQQ64TANHS0CBQHJQ7FIRUH77UWPA", "current_trial": 8, "dateTime": 1509048700403, "trialdata": {"rt": 61276, "key_press": 13, "type": "INSTRUCTIONS", "trial_type": "text", "trial_index": 8, "time_elapsed": 400571, "internal_node_id": "0.0-8.0"}}, {"uniqueid": "MTK0041:3DQQ64TANHS0CBQHJQ7FIRUH77UWPA", "current_trial": 9, "dateTime": 1509048719415, "trialdata": {"rt": [6807, 13284, 17353], "responses": ["20", "16", "18"], "num1": [7, 3, 4, 6], "num2": [6, 6, 7, 5], "num3": [7, 7, 7, 2], "type": "DISTRACTOR", "conditions": [18, 1200, "v", 18000], "trial": 0, "trial_type": "math-distractor", "trial_index": 9, "time_elapsed": 419583, "internal_node_id": "0.0-9.0"}}, {"uniqueid": "MTK0041:3DQQ64TANHS0CBQHJQ7FIRUH77UWPA", "current_trial": 10, "dateTime": 1509048722426, "trialdata": {"rt": -1, "stimulus": "<p id=\"stim\">10</p>", "key_press": -1, "trial_type": "single-stim", "trial_index": 10, "time_elapsed": 422594, "internal_node_id": "0.0-10.0-0.0"}}, {"uniqueid": "MTK0041:3DQQ64TANHS0CBQHJQ7FIRUH77UWPA", "current_trial": 11, "dateTime": 1509048723432, "trialdata": {"rt": -1, "stimulus": "<p id=\"stim\">9</p>", "key_press": -1, "trial_type": "single-stim", "trial_index": 11, "time_elapsed": 423600, "internal_node_id": "0.0-10.0-1.0"}}, {"uniqueid": "MTK0041:3DQQ64TANHS0CBQHJQ7FIRUH77UWPA", "current_trial": 12, "dateTime": 1509048724437, "trialdata": {"rt": -1, "stimulus": "<p id=\"stim\">8</p>", "key_press": -1, "trial_type": "single-stim", "trial_index": 12, "time_elapsed": 424605, "internal_node_id": "0.0-10.0-2.0"}}, {"uniqueid": "MTK0041:3DQQ64TANHS0CBQHJQ7FIRUH77UWPA", "current_trial": 13, "dateTime": 1509048725441, "trialdata": {"rt": -1, "stimulus": "<p id=\"stim\">7</p>", "key_press": -1, "trial_type": "single-stim", "trial_index": 13, "time_elapsed": 425608, "internal_node_id": "0.0-10.0-3.0"}}, {"uniqueid": "MTK0041:3DQQ64TANHS0CBQHJQ7FIRUH77UWPA", "current_trial": 14, "dateTime": 1509048726444, "trialdata": {"rt": -1, "stimulus": "<p id=\"stim\">6</p>", "key_press": -1, "trial_type": "single-stim", "trial_index": 14, "time_elapsed": 426612, "internal_node_id": "0.0-10.0-4.0"}}, {"uniqueid": "MTK0041:3DQQ64TANHS0CBQHJQ7FIRUH77UWPA", "current_trial": 15, "dateTime": 1509048727451, "trialdata": {"rt": -1, "stimulus": "<p id=\"stim\">5</p>", "key_press": -1, "trial_type": "single-stim", "trial_index": 15, "time_elapsed": 427619, "internal_node_id": "0.0-10.0-5.0"}}, {"uniqueid": "MTK0041:3DQQ64TANHS0CBQHJQ7FIRUH77UWPA", "current_trial": 16, "dateTime": 1509048728455, "trialdata": {"rt": -1, "stimulus": "<p id=\"stim\">4</p>", "key_press": -1, "trial_type": "single-stim", "trial_index": 16, "time_elapsed": 428622, "internal_node_id": "0.0-10.0-6.0"}}, {"uniqueid": "MTK0041:3DQQ64TANHS0CBQHJQ7FIRUH77UWPA", "current_trial": 17, "dateTime": 1509048729459, "trialdata": {"rt": -1, "stimulus": "<p id=\"stim\">3</p>", "key_press": -1, "trial_type": "single-stim", "trial_index": 17, "time_elapsed": 429626, "internal_node_id": "0.0-10.0-7.0"}}, {"uniqueid": "MTK0041:3DQQ64TANHS0CBQHJQ7FIRUH77UWPA", "current_trial": 18, "dateTime": 1509048730464, "trialdata": {"rt": -1, "stimulus": "<p id=\"stim\">2</p>", "key_press": -1, "trial_type": "single-stim", "trial_index": 18, "time_elapsed": 430631, "internal_node_id": "0.0-10.0-8.0"}}, {"uniqueid": "MTK0041:3DQQ64TANHS0CBQHJQ7FIRUH77UWPA", "current_trial": 19, "dateTime": 1509048731467, "trialdata": {"rt": -1, "stimulus": "<p id=\"stim\">1</p>", "key_press": -1, "trial_type": "single-stim", "trial_index": 19, "time_elapsed": 431635, "internal_node_id": "0.0-10.0-9.0"}}, {"uniqueid": "MTK0041:3DQQ64TANHS0CBQHJQ7FIRUH77UWPA", "current_trial": 20, "dateTime": 1509048732971, "trialdata": {"rt": -1, "stimulus": "<p id=\"stim\">+</p>", "key_press": -1, "type": "FIXATION", "trial_type": "single-stim", "trial_index": 20, "time_elapsed": 433138, "internal_node_id": "0.0-11.0-0.0"}}, {"uniqueid": "MTK0041:3DQQ64TANHS0CBQHJQ7FIRUH77UWPA", "current_trial": 21, "dateTime": 1509048734176, "trialdata": {"rt": -1, "stimulus": "<p id=\"stim\">SALMON</p>", "key_press": -1, "type": "PRES_VIS", "word": "salmon", "wordID": 1226, "conditions": [18, 1200, "v", 18000], "trial": 0, "serialpos": 0, "trial_type": "single-stim", "trial_index": 21, "time_elapsed": 434343, "internal_node_id": "0.0-12.0"}}, {"uniqueid": "MTK0041:3DQQ64TANHS0CBQHJQ7FIRUH77UWPA", "current_trial": 22, "dateTime": 1509048736247, "trialdata": {"rt": -1, "stimulus": "<p id=\"stim\">DASHBOARD</p>", "key_press": -1, "type": "PRES_VIS", "word": "dashboard", "wordID": 440, "conditions": [18, 1200, "v", 18000], "trial": 0, "serialpos": 1, "trial_type": "single-stim", "trial_index": 22, "time_elapsed": 436415, "internal_node_id": "0.0-13.0"}}, {"uniqueid": "MTK0041:3DQQ64TANHS0CBQHJQ7FIRUH77UWPA", "current_trial": 23, "dateTime": 1509048738340, "trialdata": {"rt": -1, "stimulus": "<p id=\"stim\">HOSTESS</p>", "key_press": -1, "type": "PRES_VIS", "word": "hostess", "wordID": 722, "conditions": [18, 1200, "v", 18000], "trial": 0, "serialpos": 2, "trial_type": "single-stim", "trial_index": 23, "time_elapsed": 438507, "internal_node_id": "0.0-14.0"}}, {"uniqueid": "MTK0041:3DQQ64TANHS0CBQHJQ7FIRUH77UWPA", "current_trial": 24, "dateTime": 1509048740531, "trialdata": {"rt": -1, "stimulus": "<p id=\"stim\">PUDDLE</p>", "key_press": -1, "type": "PRES_VIS", "word": "puddle", "wordID": 1139, "conditions": [18, 1200, "v", 18000], "trial": 0, "serialpos": 3, "trial_type": "single-stim", "trial_index": 24, "time_elapsed": 440698, "internal_node_id": "0.0-15.0"}}, {"uniqueid": "MTK0041:3DQQ64TANHS0CBQHJQ7FIRUH77UWPA", "current_trial": 25, "dateTime": 1509048742559, "trialdata": {"rt": -1, "stimulus": "<p id=\"stim\">LUNCH</p>", "key_press": -1, "type": "PRES_VIS", "word": "lunch", "wordID": 848, "conditions": [18, 1200, "v", 18000], "trial": 0, "serialpos": 4, "trial_type": "single-stim", "trial_index": 25, "time_elapsed": 442726, "internal_node_id": "0.0-16.0"}}, {"uniqueid": "MTK0041:3DQQ64TANHS0CBQHJQ7FIRUH77UWPA", "current_trial": 26, "dateTime": 1509048744676, "trialdata": {"rt": -1, "stimulus": "<p id=\"stim\">MARROW</p>", "key_press": -1, "type": "PRES_VIS", "word": "marrow", "wordID": 871, "conditions": [18, 1200, "v", 18000], "trial": 0, "serialpos": 5, "trial_type": "single-stim", "trial_index": 26, "time_elapsed": 444843, "internal_node_id": "0.0-17.0"}}, {"uniqueid": "MTK0041:3DQQ64TANHS0CBQHJQ7FIRUH77UWPA", "current_trial": 27, "dateTime": 1509048746703, "trialdata": {"rt": -1, "stimulus": "<p id=\"stim\">WORKER</p>", "key_press": -1, "type": "PRES_VIS", "word": "worker", "wordID": 1620, "conditions": [18, 1200, "v", 18000], "trial": 0, "serialpos": 6, "trial_type": "single-stim", "trial_index": 27, "time_elapsed": 446869, "internal_node_id": "0.0-18.0"}}, {"uniqueid": "MTK0041:3DQQ64TANHS0CBQHJQ7FIRUH77UWPA", "current_trial": 28, "dateTime": 1509048749059, "trialdata": {"rt": -1, "stimulus": "<p id=\"stim\">LION</p>", "key_press": -1, "type": "PRES_VIS", "word": "lion", "wordID": 826, "conditions": [18, 1200, "v", 18000], "trial": 0, "serialpos": 7, "trial_type": "single-stim", "trial_index": 28, "time_elapsed": 449226, "internal_node_id": "0.0-19.0"}}, {"uniqueid": "MTK0041:3DQQ64TANHS0CBQHJQ7FIRUH77UWPA", "current_trial": 29, "dateTime": 1509048751263, "trialdata": {"rt": -1, "stimulus": "<p id=\"stim\">COIN</p>", "key_press": -1, "type": "PRES_VIS", "word": "coin", "wordID": 342, "conditions": [18, 1200, "v", 18000], "trial": 0, "serialpos": 8, "trial_type": "single-stim", "trial_index": 29, "time_elapsed": 451431, "internal_node_id": "0.0-20.0"}}, {"uniqueid": "MTK0041:3DQQ64TANHS0CBQHJQ7FIRUH77UWPA", "current_trial": 30, "dateTime": 1509048753394, "trialdata": {"rt": -1, "stimulus": "<p id=\"stim\">NOMAD</p>", "key_press": -1, "type": "PRES_VIS", "word": "nomad", "wordID": 954, "conditions": [18, 1200, "v", 18000], "trial": 0, "serialpos": 9, "trial_type": "single-stim", "trial_index": 30, "time_elapsed": 453561, "internal_node_id": "0.0-21.0"}}, {"uniqueid": "MTK0041:3DQQ64TANHS0CBQHJQ7FIRUH77UWPA", "current_trial": 31, "dateTime": 1509048755549, "trialdata": {"rt": -1, "stimulus": "<p id=\"stim\">ITEM</p>", "key_press": -1, "type": "PRES_VIS", "word": "item", "wordID": 745, "conditions": [18, 1200, "v", 18000], "trial": 0, "serialpos": 10, "trial_type": "single-stim", "trial_index": 31, "time_elapsed": 455716, "internal_node_id": "0.0-22.0"}}, {"uniqueid": "MTK0041:3DQQ64TANHS0CBQHJQ7FIRUH77UWPA", "current_trial": 32, "dateTime": 1509048757593, "trialdata": {"rt": -1, "stimulus": "<p id=\"stim\">TORTOISE</p>", "key_press": -1, "type": "PRES_VIS", "word": "tortoise", "wordID": 1485, "conditions": [18, 1200, "v", 18000], "trial": 0, "serialpos": 11, "trial_type": "single-stim", "trial_index": 32, "time_elapsed": 457760, "internal_node_id": "0.0-23.0"}}, {"uniqueid": "MTK0041:3DQQ64TANHS0CBQHJQ7FIRUH77UWPA", "current_trial": 33, "dateTime": 1509048759833, "trialdata": {"rt": -1, "stimulus": "<p id=\"stim\">VIRUS</p>", "key_press": -1, "type": "PRES_VIS", "word": "virus", "wordID": 1571, "conditions": [18, 1200, "v", 18000], "trial": 0, "serialpos": 12, "trial_type": "single-stim", "trial_index": 33, "time_elapsed": 460000, "internal_node_id": "0.0-24.0"}}, {"uniqueid": "MTK0041:3DQQ64TANHS0CBQHJQ7FIRUH77UWPA", "current_trial": 34, "dateTime": 1509048761980, "trialdata": {"rt": -1, "stimulus": "<p id=\"stim\">RELISH</p>", "key_press": -1, "type": "PRES_VIS", "word": "relish", "wordID": 1182, "conditions": [18, 1200, "v", 18000], "trial": 0, "serialpos": 13, "trial_type": "single-stim", "trial_index": 34, "time_elapsed": 462147, "internal_node_id": "0.0-25.0"}}, {"uniqueid": "MTK0041:3DQQ64TANHS0CBQHJQ7FIRUH77UWPA", "current_trial": 35, "dateTime": 1509048764335, "trialdata": {"rt": -1, "stimulus": "<p id=\"stim\">ARM</p>", "key_press": -1, "type": "PRES_VIS", "word": "arm", "wordID": 37, "conditions": [18, 1200, "v", 18000], "trial": 0, "serialpos": 14, "trial_type": "single-stim", "trial_index": 35, "time_elapsed": 464502, "internal_node_id": "0.0-26.0"}}, {"uniqueid": "MTK0041:3DQQ64TANHS0CBQHJQ7FIRUH77UWPA", "current_trial": 36, "dateTime": 1509048766414, "trialdata": {"rt": -1, "stimulus": "<p id=\"stim\">WASHER</p>", "key_press": -1, "type": "PRES_VIS", "word": "washer", "wordID": 1591, "conditions": [18, 1200, "v", 18000], "trial": 0, "serialpos": 15, "trial_type": "single-stim", "trial_index": 36, "time_elapsed": 466581, "internal_node_id": "0.0-27.0"}}, {"uniqueid": "MTK0041:3DQQ64TANHS0CBQHJQ7FIRUH77UWPA", "current_trial": 37, "dateTime": 1509048768666, "trialdata": {"rt": -1, "stimulus": "<p id=\"stim\">FRAME</p>", "key_press": -1, "type": "PRES_VIS", "word": "frame", "wordID": 599, "conditions": [18, 1200, "v", 18000], "trial": 0, "serialpos": 16, "trial_type": "single-stim", "trial_index": 37, "time_elapsed": 468834, "internal_node_id": "0.0-28.0"}}, {"uniqueid": "MTK0041:3DQQ64TANHS0CBQHJQ7FIRUH77UWPA", "current_trial": 38, "dateTime": 1509048771054, "trialdata": {"rt": -1, "stimulus": "<p id=\"stim\">SHRUB</p>", "key_press": -1, "type": "PRES_VIS", "word": "shrub", "wordID": 1298, "conditions": [18, 1200, "v", 18000], "trial": 0, "serialpos": 17, "trial_type": "single-stim", "trial_index": 38, "time_elapsed": 471221, "internal_node_id": "0.0-29.0"}}, {"uniqueid": "MTK0041:3DQQ64TANHS0CBQHJQ7FIRUH77UWPA", "current_trial": 39, "dateTime": 1509048773406, "trialdata": {"rt": -1, "stimulus": "", "key_press": -1, "type": "PRE_RECALL_DELAY", "trial_type": "single-stim", "trial_index": 39, "time_elapsed": 473573, "internal_node_id": "0.0-30.0-0.0"}}, {"uniqueid": "MTK0041:3DQQ64TANHS0CBQHJQ7FIRUH77UWPA", "current_trial": 40, "dateTime": 1509048773922, "trialdata": {"rt": -1000, "stimulus": "/static/audio/400Hz.wav", "key_press": -1, "type": "PRE_RECALL_ALERT", "trial_type": "single-audio", "trial_index": 40, "time_elapsed": 474090, "internal_node_id": "0.0-31.0"}}, {"uniqueid": "MTK0041:3DQQ64TANHS0CBQHJQ7FIRUH77UWPA", "current_trial": 41, "dateTime": 1509048833937, "trialdata": {"rt": [6845, 11418, 14448, 18752, 26527, 28716, 32387, 35334], "recwords": ["shrub", "tortoise", "nomad", "dashboard", "coin", "lion", "salmon", "puddle"], "type": "FREE_RECALL", "conditions": [18, 1200, "v", 18000], "trial": 0, "trial_type": "free-recall", "trial_index": 41, "time_elapsed": 534104, "internal_node_id": "0.0-32.0-0.0"}}, {"uniqueid": "MTK0041:3DQQ64TANHS0CBQHJQ7FIRUH77UWPA", "current_trial": 42, "dateTime": 1509048840484, "trialdata": {"rt": 4546, "key_press": 13, "type": "INSTRUCTIONS", "trial_type": "text", "trial_index": 42, "time_elapsed": 540652, "internal_node_id": "0.0-33.0"}}, {"uniqueid": "MTK0041:3DQQ64TANHS0CBQHJQ7FIRUH77UWPA", "current_trial": 43, "dateTime": 1509048860499, "trialdata": {"rt": [3203, 5475, 8033, 11425, 13795, 16515], "responses": ["8", "14", "19", "16", "16", "19"], "num1": [2, 4, 9, 2, 7, 7, 7], "num2": [4, 8, 5, 8, 5, 7, 6], "num3": [2, 2, 5, 6, 4, 5, 2], "type": "DISTRACTOR", "conditions": [18, 1200, "a", 18000], "trial": 1, "trial_type": "math-distractor", "trial_index": 43, "time_elapsed": 560666, "internal_node_id": "0.0-34.0"}}, {"uniqueid": "MTK0041:3DQQ64TANHS0CBQHJQ7FIRUH77UWPA", "current_trial": 44, "dateTime": 1509048863504, "trialdata": {"rt": -1, "stimulus": "<p id=\"stim\">10</p>", "key_press": -1, "trial_type": "single-stim", "trial_index": 44, "time_elapsed": 563672, "internal_node_id": "0.0-35.0-0.0"}}, {"uniqueid": "MTK0041:3DQQ64TANHS0CBQHJQ7FIRUH77UWPA", "current_trial": 45, "dateTime": 1509048864506, "trialdata": {"rt": -1, "stimulus": "<p id=\"stim\">9</p>", "key_press": -1, "trial_type": "single-stim", "trial_index": 45, "time_elapsed": 564674, "internal_node_id": "0.0-35.0-1.0"}}, {"uniqueid": "MTK0041:3DQQ64TANHS0CBQHJQ7FIRUH77UWPA", "current_trial": 46, "dateTime": 1509048865510, "trialdata": {"rt": -1, "stimulus": "<p id=\"stim\">8</p>", "key_press": -1, "trial_type": "single-stim", "trial_index": 46, "time_elapsed": 565677, "internal_node_id": "0.0-35.0-2.0"}}, {"uniqueid": "MTK0041:3DQQ64TANHS0CBQHJQ7FIRUH77UWPA", "current_trial": 47, "dateTime": 1509048866515, "trialdata": {"rt": -1, "stimulus": "<p id=\"stim\">7</p>", "key_press": -1, "trial_type": "single-stim", "trial_index": 47, "time_elapsed": 566682, "internal_node_id": "0.0-35.0-3.0"}}, {"uniqueid": "MTK0041:3DQQ64TANHS0CBQHJQ7FIRUH77UWPA", "current_trial": 48, "dateTime": 1509048867519, "trialdata": {"rt": -1, "stimulus": "<p id=\"stim\">6</p>", "key_press": -1, "trial_type": "single-stim", "trial_index": 48, "time_elapsed": 567686, "internal_node_id": "0.0-35.0-4.0"}}, {"uniqueid": "MTK0041:3DQQ64TANHS0CBQHJQ7FIRUH77UWPA", "current_trial": 49, "dateTime": 1509048868522, "trialdata": {"rt": -1, "stimulus": "<p id=\"stim\">5</p>", "key_press": -1, "trial_type": "single-stim", "trial_index": 49, "time_elapsed": 568690, "internal_node_id": "0.0-35.0-5.0"}}, {"uniqueid": "MTK0041:3DQQ64TANHS0CBQHJQ7FIRUH77UWPA", "current_trial": 50, "dateTime": 1509048869526, "trialdata": {"rt": -1, "stimulus": "<p id=\"stim\">4</p>", "key_press": -1, "trial_type": "single-stim", "trial_index": 50, "time_elapsed": 569693, "internal_node_id": "0.0-35.0-6.0"}}, {"uniqueid": "MTK0041:3DQQ64TANHS0CBQHJQ7FIRUH77UWPA", "current_trial": 51, "dateTime": 1509048870530, "trialdata": {"rt": -1, "stimulus": "<p id=\"stim\">3</p>", "key_press": -1, "trial_type": "single-stim", "trial_index": 51, "time_elapsed": 570697, "internal_node_id": "0.0-35.0-7.0"}}, {"uniqueid": "MTK0041:3DQQ64TANHS0CBQHJQ7FIRUH77UWPA", "current_trial": 52, "dateTime": 1509048871535, "trialdata": {"rt": -1, "stimulus": "<p id=\"stim\">2</p>", "key_press": -1, "trial_type": "single-stim", "trial_index": 52, "time_elapsed": 571702, "internal_node_id": "0.0-35.0-8.0"}}, {"uniqueid": "MTK0041:3DQQ64TANHS0CBQHJQ7FIRUH77UWPA", "current_trial": 53, "dateTime": 1509048872539, "trialdata": {"rt": -1, "stimulus": "<p id=\"stim\">1</p>", "key_press": -1, "trial_type": "single-stim", "trial_index": 53, "time_elapsed": 572706, "internal_node_id": "0.0-35.0-9.0"}}, {"uniqueid": "MTK0041:3DQQ64TANHS0CBQHJQ7FIRUH77UWPA", "current_trial": 54, "dateTime": 1509048874044, "trialdata": {"rt": -1, "stimulus": "<p id=\"stim\">+</p>", "key_press": -1, "type": "FIXATION", "trial_type": "single-stim", "trial_index": 54, "time_elapsed": 574211, "internal_node_id": "0.0-36.0-0.0"}}, {"uniqueid": "MTK0041:3DQQ64TANHS0CBQHJQ7FIRUH77UWPA", "current_trial": 55, "dateTime": 1509048876274, "trialdata": {"rt": -1000, "stimulus": "/static/audio/wordpool/PORTRAIT.wav", "key_press": -1, "type": "PRES_AUD", "word": "portrait", "wordID": 1110, "conditions": [18, 1200, "a", 18000], "trial": 1, "serialpos": 0, "trial_type": "single-audio", "trial_index": 55, "time_elapsed": 576441, "internal_node_id": "0.0-37.0"}}, {"uniqueid": "MTK0041:3DQQ64TANHS0CBQHJQ7FIRUH77UWPA", "current_trial": 56, "dateTime": 1509048878547, "trialdata": {"rt": -1000, "stimulus": "/static/audio/wordpool/OFFICE.wav", "key_press": -1, "type": "PRES_AUD", "word": "office", "wordID": 971, "conditions": [18, 1200, "a", 18000], "trial": 1, "serialpos": 1, "trial_type": "single-audio", "trial_index": 56, "time_elapsed": 578714, "internal_node_id": "0.0-38.0"}}, {"uniqueid": "MTK0041:3DQQ64TANHS0CBQHJQ7FIRUH77UWPA", "current_trial": 57, "dateTime": 1509048880647, "trialdata": {"rt": -1000, "stimulus": "/static/audio/wordpool/GHETTO.wav", "key_press": -1, "type": "PRES_AUD", "word": "ghetto", "wordID": 632, "conditions": [18, 1200, "a", 18000], "trial": 1, "serialpos": 2, "trial_type": "single-audio", "trial_index": 57, "time_elapsed": 580815, "internal_node_id": "0.0-39.0"}}, {"uniqueid": "MTK0041:3DQQ64TANHS0CBQHJQ7FIRUH77UWPA", "current_trial": 58, "dateTime": 1509048882889, "trialdata": {"rt": -1000, "stimulus": "/static/audio/wordpool/APPLE.wav", "key_press": -1, "type": "PRES_AUD", "word": "apple", "wordID": 32, "conditions": [18, 1200, "a", 18000], "trial": 1, "serialpos": 3, "trial_type": "single-audio", "trial_index": 58, "time_elapsed": 583057, "internal_node_id": "0.0-40.0"}}, {"uniqueid": "MTK0041:3DQQ64TANHS0CBQHJQ7FIRUH77UWPA", "current_trial": 59, "dateTime": 1509048885141, "trialdata": {"rt": -1000, "stimulus": "/static/audio/wordpool/FRAGRANCE.wav", "key_press": -1, "type": "PRES_AUD", "word": "fragrance", "wordID": 598, "conditions": [18, 1200, "a", 18000], "trial": 1, "serialpos": 4, "trial_type": "single-audio", "trial_index": 59, "time_elapsed": 585309, "internal_node_id": "0.0-41.0"}}, {"uniqueid": "MTK0041:3DQQ64TANHS0CBQHJQ7FIRUH77UWPA", "current_trial": 60, "dateTime": 1509048887322, "trialdata": {"rt": -1000, "stimulus": "/static/audio/wordpool/PARENT.wav", "key_press": -1, "type": "PRES_AUD", "word": "parent", "wordID": 1012, "conditions": [18, 1200, "a", 18000], "trial": 1, "serialpos": 5, "trial_type": "single-audio", "trial_index": 60, "time_elapsed": 587490, "internal_node_id": "0.0-42.0"}}, {"uniqueid": "MTK0041:3DQQ64TANHS0CBQHJQ7FIRUH77UWPA", "current_trial": 61, "dateTime": 1509048889412, "trialdata": {"rt": -1000, "stimulus": "/static/audio/wordpool/LETTUCE.wav", "key_press": -1, "type": "PRES_AUD", "word": "lettuce", "wordID": 813, "conditions": [18, 1200, "a", 18000], "trial": 1, "serialpos": 6, "trial_type": "single-audio", "trial_index": 61, "time_elapsed": 589580, "internal_node_id": "0.0-43.0"}}, {"uniqueid": "MTK0041:3DQQ64TANHS0CBQHJQ7FIRUH77UWPA", "current_trial": 62, "dateTime": 1509048891447, "trialdata": {"rt": -1000, "stimulus": "/static/audio/wordpool/TURKEY.wav", "key_press": -1, "type": "PRES_AUD", "word": "turkey", "wordID": 1519, "conditions": [18, 1200, "a", 18000], "trial": 1, "serialpos": 7, "trial_type": "single-audio", "trial_index": 62, "time_elapsed": 591615, "internal_node_id": "0.0-44.0"}}, {"uniqueid": "MTK0041:3DQQ64TANHS0CBQHJQ7FIRUH77UWPA", "current_trial": 63, "dateTime": 1509048893465, "trialdata": {"rt": -1000, "stimulus": "/static/audio/wordpool/DRUG.wav", "key_press": -1, "type": "PRES_AUD", "word": "drug", "wordID": 500, "conditions": [18, 1200, "a", 18000], "trial": 1, "serialpos": 8, "trial_type": "single-audio", "trial_index": 63, "time_elapsed": 593633, "internal_node_id": "0.0-45.0"}}, {"uniqueid": "MTK0041:3DQQ64TANHS0CBQHJQ7FIRUH77UWPA", "current_trial": 64, "dateTime": 1509048895750, "trialdata": {"rt": -1000, "stimulus": "/static/audio/wordpool/WIDOW.wav", "key_press": -1, "type": "PRES_AUD", "word": "widow", "wordID": 1607, "conditions": [18, 1200, "a", 18000], "trial": 1, "serialpos": 9, "trial_type": "single-audio", "trial_index": 64, "time_elapsed": 595918, "internal_node_id": "0.0-46.0"}}, {"uniqueid": "MTK0041:3DQQ64TANHS0CBQHJQ7FIRUH77UWPA", "current_trial": 65, "dateTime": 1509048897843, "trialdata": {"rt": -1000, "stimulus": "/static/audio/wordpool/AUTHOR.wav", "key_press": -1, "type": "PRES_AUD", "word": "author", "wordID": 60, "conditions": [18, 1200, "a", 18000], "trial": 1, "serialpos": 10, "trial_type": "single-audio", "trial_index": 65, "time_elapsed": 598011, "internal_node_id": "0.0-47.0"}}, {"uniqueid": "MTK0041:3DQQ64TANHS0CBQHJQ7FIRUH77UWPA", "current_trial": 66, "dateTime": 1509048899879, "trialdata": {"rt": -1000, "stimulus": "/static/audio/wordpool/LEOPARD.wav", "key_press": -1, "type": "PRES_AUD", "word": "leopard", "wordID": 811, "conditions": [18, 1200, "a", 18000], "trial": 1, "serialpos": 11, "trial_type": "single-audio", "trial_index": 66, "time_elapsed": 600046, "internal_node_id": "0.0-48.0"}}, {"uniqueid": "MTK0041:3DQQ64TANHS0CBQHJQ7FIRUH77UWPA", "current_trial": 67, "dateTime": 1509048902132, "trialdata": {"rt": -1000, "stimulus": "/static/audio/wordpool/RACKET.wav", "key_press": -1, "type": "PRES_AUD", "word": "racket", "wordID": 1154, "conditions": [18, 1200, "a", 18000], "trial": 1, "serialpos": 12, "trial_type": "single-audio", "trial_index": 67, "time_elapsed": 602300, "internal_node_id": "0.0-49.0"}}, {"uniqueid": "MTK0041:3DQQ64TANHS0CBQHJQ7FIRUH77UWPA", "current_trial": 68, "dateTime": 1509048904495, "trialdata": {"rt": -1000, "stimulus": "/static/audio/wordpool/FOREST.wav", "key_press": -1, "type": "PRES_AUD", "word": "forest", "wordID": 592, "conditions": [18, 1200, "a", 18000], "trial": 1, "serialpos": 13, "trial_type": "single-audio", "trial_index": 68, "time_elapsed": 604663, "internal_node_id": "0.0-50.0"}}, {"uniqueid": "MTK0041:3DQQ64TANHS0CBQHJQ7FIRUH77UWPA", "current_trial": 69, "dateTime": 1509048906695, "trialdata": {"rt": -1000, "stimulus": "/static/audio/wordpool/CELLAR.wav", "key_press": -1, "type": "PRES_AUD", "word": "cellar", "wordID": 266, "conditions": [18, 1200, "a", 18000], "trial": 1, "serialpos": 14, "trial_type": "single-audio", "trial_index": 69, "time_elapsed": 606863, "internal_node_id": "0.0-51.0"}}, {"uniqueid": "MTK0041:3DQQ64TANHS0CBQHJQ7FIRUH77UWPA", "current_trial": 70, "dateTime": 1509048908882, "trialdata": {"rt": -1000, "stimulus": "/static/audio/wordpool/BRANDY.wav", "key_press": -1, "type": "PRES_AUD", "word": "brandy", "wordID": 168, "conditions": [18, 1200, "a", 18000], "trial": 1, "serialpos": 15, "trial_type": "single-audio", "trial_index": 70, "time_elapsed": 609050, "internal_node_id": "0.0-52.0"}}, {"uniqueid": "MTK0041:3DQQ64TANHS0CBQHJQ7FIRUH77UWPA", "current_trial": 71, "dateTime": 1509048911091, "trialdata": {"rt": -1000, "stimulus": "/static/audio/wordpool/LACE.wav", "key_press": -1, "type": "PRES_AUD", "word": "lace", "wordID": 791, "conditions": [18, 1200, "a", 18000], "trial": 1, "serialpos": 16, "trial_type": "single-audio", "trial_index": 71, "time_elapsed": 611259, "internal_node_id": "0.0-53.0"}}, {"uniqueid": "MTK0041:3DQQ64TANHS0CBQHJQ7FIRUH77UWPA", "current_trial": 72, "dateTime": 1509048913368, "trialdata": {"rt": -1000, "stimulus": "/static/audio/wordpool/DIME.wav", "key_press": -1, "type": "PRES_AUD", "word": "dime", "wordID": 465, "conditions": [18, 1200, "a", 18000], "trial": 1, "serialpos": 17, "trial_type": "single-audio", "trial_index": 72, "time_elapsed": 613536, "internal_node_id": "0.0-54.0"}}, {"uniqueid": "MTK0041:3DQQ64TANHS0CBQHJQ7FIRUH77UWPA", "current_trial": 73, "dateTime": 1509048914686, "trialdata": {"rt": -1, "stimulus": "", "key_press": -1, "type": "PRE_RECALL_DELAY", "trial_type": "single-stim", "trial_index": 73, "time_elapsed": 614853, "internal_node_id": "0.0-55.0-0.0"}}, {"uniqueid": "MTK0041:3DQQ64TANHS0CBQHJQ7FIRUH77UWPA", "current_trial": 74, "dateTime": 1509048915196, "trialdata": {"rt": -1000, "stimulus": "/static/audio/400Hz.wav", "key_press": -1, "type": "PRE_RECALL_ALERT", "trial_type": "single-audio", "trial_index": 74, "time_elapsed": 615364, "internal_node_id": "0.0-56.0"}}, {"uniqueid": "MTK0041:3DQQ64TANHS0CBQHJQ7FIRUH77UWPA", "current_trial": 75, "dateTime": 1509048975206, "trialdata": {"rt": [3464, 6145, 9829, 14277, 23352, 34650, 38412, 47457], "recwords": ["dime", "forest", "lettuce", "fortress", "apple", "turke", "lettuce", "racket"], "type": "FREE_RECALL", "conditions": [18, 1200, "a", 18000], "trial": 1, "trial_type": "free-recall", "trial_index": 75, "time_elapsed": 675374, "internal_node_id": "0.0-57.0-0.0"}}, {"uniqueid": "MTK0041:3DQQ64TANHS0CBQHJQ7FIRUH77UWPA", "current_trial": 76, "dateTime": 1509048993838, "trialdata": {"rt": 16630, "key_press": 13, "type": "INSTRUCTIONS", "trial_type": "text", "trial_index": 76, "time_elapsed": 694006, "internal_node_id": "0.0-58.0"}}, {"uniqueid": "MTK0041:3DQQ64TANHS0CBQHJQ7FIRUH77UWPA", "current_trial": 77, "dateTime": 1509049018848, "trialdata": {"rt": [2296, 6717, 9100, 11702, 14327, 17923, 20958, 23259], "responses": ["14", "22", "17", "12", "16", "17", "16", "18"], "num1": [8, 7, 6, 9, 4, 3, 5, 7, 4], "num2": [4, 7, 7, 1, 6, 8, 2, 6, 3], "num3": [2, 8, 4, 2, 6, 6, 9, 5, 5], "type": "DISTRACTOR", "conditions": [24, 800, "a", 24000], "trial": 2, "trial_type": "math-distractor", "trial_index": 77, "time_elapsed": 719016, "internal_node_id": "0.0-59.0"}}, {"uniqueid": "MTK0041:3DQQ64TANHS0CBQHJQ7FIRUH77UWPA", "current_trial": 78, "dateTime": 1509049021853, "trialdata": {"rt": -1, "stimulus": "<p id=\"stim\">10</p>", "key_press": -1, "trial_type": "single-stim", "trial_index": 78, "time_elapsed": 722021, "internal_node_id": "0.0-60.0-0.0"}}, {"uniqueid": "MTK0041:3DQQ64TANHS0CBQHJQ7FIRUH77UWPA", "current_trial": 79, "dateTime": 1509049022857, "trialdata": {"rt": -1, "stimulus": "<p id=\"stim\">9</p>", "key_press": -1, "trial_type": "single-stim", "trial_index": 79, "time_elapsed": 723025, "internal_node_id": "0.0-60.0-1.0"}}, {"uniqueid": "MTK0041:3DQQ64TANHS0CBQHJQ7FIRUH77UWPA", "current_trial": 80, "dateTime": 1509049023861, "trialdata": {"rt": -1, "stimulus": "<p id=\"stim\">8</p>", "key_press": -1, "trial_type": "single-stim", "trial_index": 80, "time_elapsed": 724029, "internal_node_id": "0.0-60.0-2.0"}}, {"uniqueid": "MTK0041:3DQQ64TANHS0CBQHJQ7FIRUH77UWPA", "current_trial": 81, "dateTime": 1509049024864, "trialdata": {"rt": -1, "stimulus": "<p id=\"stim\">7</p>", "key_press": -1, "trial_type": "single-stim", "trial_index": 81, "time_elapsed": 725032, "internal_node_id": "0.0-60.0-3.0"}}, {"uniqueid": "MTK0041:3DQQ64TANHS0CBQHJQ7FIRUH77UWPA", "current_trial": 82, "dateTime": 1509049025868, "trialdata": {"rt": -1, "stimulus": "<p id=\"stim\">6</p>", "key_press": -1, "trial_type": "single-stim", "trial_index": 82, "time_elapsed": 726036, "internal_node_id": "0.0-60.0-4.0"}}, {"uniqueid": "MTK0041:3DQQ64TANHS0CBQHJQ7FIRUH77UWPA", "current_trial": 83, "dateTime": 1509049026872, "trialdata": {"rt": -1, "stimulus": "<p id=\"stim\">5</p>", "key_press": -1, "trial_type": "single-stim", "trial_index": 83, "time_elapsed": 727039, "internal_node_id": "0.0-60.0-5.0"}}, {"uniqueid": "MTK0041:3DQQ64TANHS0CBQHJQ7FIRUH77UWPA", "current_trial": 84, "dateTime": 1509049027875, "trialdata": {"rt": -1, "stimulus": "<p id=\"stim\">4</p>", "key_press": -1, "trial_type": "single-stim", "trial_index": 84, "time_elapsed": 728043, "internal_node_id": "0.0-60.0-6.0"}}, {"uniqueid": "MTK0041:3DQQ64TANHS0CBQHJQ7FIRUH77UWPA", "current_trial": 85, "dateTime": 1509049028879, "trialdata": {"rt": -1, "stimulus": "<p id=\"stim\">3</p>", "key_press": -1, "trial_type": "single-stim", "trial_index": 85, "time_elapsed": 729047, "internal_node_id": "0.0-60.0-7.0"}}, {"uniqueid": "MTK0041:3DQQ64TANHS0CBQHJQ7FIRUH77UWPA", "current_trial": 86, "dateTime": 1509049029883, "trialdata": {"rt": -1, "stimulus": "<p id=\"stim\">2</p>", "key_press": -1, "trial_type": "single-stim", "trial_index": 86, "time_elapsed": 730050, "internal_node_id": "0.0-60.0-8.0"}}, {"uniqueid": "MTK0041:3DQQ64TANHS0CBQHJQ7FIRUH77UWPA", "current_trial": 87, "dateTime": 1509049030886, "trialdata": {"rt": -1, "stimulus": "<p id=\"stim\">1</p>", "key_press": -1, "trial_type": "single-stim", "trial_index": 87, "time_elapsed": 731054, "internal_node_id": "0.0-60.0-9.0"}}, {"uniqueid": "MTK0041:3DQQ64TANHS0CBQHJQ7FIRUH77UWPA", "current_trial": 88, "dateTime": 1509049032390, "trialdata": {"rt": -1, "stimulus": "<p id=\"stim\">+</p>", "key_press": -1, "type": "FIXATION", "trial_type": "single-stim", "trial_index": 88, "time_elapsed": 732557, "internal_node_id": "0.0-61.0-0.0"}}, {"uniqueid": "MTK0041:3DQQ64TANHS0CBQHJQ7FIRUH77UWPA", "current_trial": 89, "dateTime": 1509049034191, "trialdata": {"rt": -1000, "stimulus": "/static/audio/wordpool/LIZARD.wav", "key_press": -1, "type": "PRES_AUD", "word": "lizard", "wordID": 833, "conditions": [24, 800, "a", 24000], "trial": 2, "serialpos": 0, "trial_type": "single-audio", "trial_index": 89, "time_elapsed": 734359, "internal_node_id": "0.0-62.0"}}, {"uniqueid": "MTK0041:3DQQ64TANHS0CBQHJQ7FIRUH77UWPA", "current_trial": 90, "dateTime": 1509049035848, "trialdata": {"rt": -1000, "stimulus": "/static/audio/wordpool/NURSE.wav", "key_press": -1, "type": "PRES_AUD", "word": "nurse", "wordID": 962, "conditions": [24, 800, "a", 24000], "trial": 2, "serialpos": 1, "trial_type": "single-audio", "trial_index": 90, "time_elapsed": 736016, "internal_node_id": "0.0-63.0"}}, {"uniqueid": "MTK0041:3DQQ64TANHS0CBQHJQ7FIRUH77UWPA", "current_trial": 91, "dateTime": 1509049037726, "trialdata": {"rt": -1000, "stimulus": "/static/audio/wordpool/GARDEN.wav", "key_press": -1, "type": "PRES_AUD", "word": "garden", "wordID": 622, "conditions": [24, 800, "a", 24000], "trial": 2, "serialpos": 2, "trial_type": "single-audio", "trial_index": 91, "time_elapsed": 737894, "internal_node_id": "0.0-64.0"}}, {"uniqueid": "MTK0041:3DQQ64TANHS0CBQHJQ7FIRUH77UWPA", "current_trial": 92, "dateTime": 1509049039351, "trialdata": {"rt": -1000, "stimulus": "/static/audio/wordpool/QUEEN.wav", "key_press": -1, "type": "PRES_AUD", "word": "queen", "wordID": 1148, "conditions": [24, 800, "a", 24000], "trial": 2, "serialpos": 3, "trial_type": "single-audio", "trial_index": 92, "time_elapsed": 739519, "internal_node_id": "0.0-65.0"}}, {"uniqueid": "MTK0041:3DQQ64TANHS0CBQHJQ7FIRUH77UWPA", "current_trial": 93, "dateTime": 1509049041257, "trialdata": {"rt": -1000, "stimulus": "/static/audio/wordpool/PATIENT.wav", "key_press": -1, "type": "PRES_AUD", "word": "patient", "wordID": 1023, "conditions": [24, 800, "a", 24000], "trial": 2, "serialpos": 4, "trial_type": "single-audio", "trial_index": 93, "time_elapsed": 741425, "internal_node_id": "0.0-66.0"}}, {"uniqueid": "MTK0041:3DQQ64TANHS0CBQHJQ7FIRUH77UWPA", "current_trial": 94, "dateTime": 1509049043040, "trialdata": {"rt": -1000, "stimulus": "/static/audio/wordpool/BRIEFCASE.wav", "key_press": -1, "type": "PRES_AUD", "word": "briefcase", "wordID": 174, "conditions": [24, 800, "a", 24000], "trial": 2, "serialpos": 5, "trial_type": "single-audio", "trial_index": 94, "time_elapsed": 743208, "internal_node_id": "0.0-67.0"}}, {"uniqueid": "MTK0041:3DQQ64TANHS0CBQHJQ7FIRUH77UWPA", "current_trial": 95, "dateTime": 1509049044697, "trialdata": {"rt": -1000, "stimulus": "/static/audio/wordpool/FOOTBALL.wav", "key_press": -1, "type": "PRES_AUD", "word": "football", "wordID": 590, "conditions": [24, 800, "a", 24000], "trial": 2, "serialpos": 6, "trial_type": "single-audio", "trial_index": 95, "time_elapsed": 744864, "internal_node_id": "0.0-68.0"}}, {"uniqueid": "MTK0041:3DQQ64TANHS0CBQHJQ7FIRUH77UWPA", "current_trial": 96, "dateTime": 1509049046530, "trialdata": {"rt": -1000, "stimulus": "/static/audio/wordpool/TRUCK.wav", "key_press": -1, "type": "PRES_AUD", "word": "truck", "wordID": 1511, "conditions": [24, 800, "a", 24000], "trial": 2, "serialpos": 7, "trial_type": "single-audio", "trial_index": 96, "time_elapsed": 746698, "internal_node_id": "0.0-69.0"}}, {"uniqueid": "MTK0041:3DQQ64TANHS0CBQHJQ7FIRUH77UWPA", "current_trial": 97, "dateTime": 1509049048175, "trialdata": {"rt": -1000, "stimulus": "/static/audio/wordpool/DRIVER.wav", "key_press": -1, "type": "PRES_AUD", "word": "driver", "wordID": 498, "conditions": [24, 800, "a", 24000], "trial": 2, "serialpos": 8, "trial_type": "single-audio", "trial_index": 97, "time_elapsed": 748342, "internal_node_id": "0.0-70.0"}}, {"uniqueid": "MTK0041:3DQQ64TANHS0CBQHJQ7FIRUH77UWPA", "current_trial": 98, "dateTime": 1509049050024, "trialdata": {"rt": -1000, "stimulus": "/static/audio/wordpool/ROBBER.wav", "key_press": -1, "type": "PRES_AUD", "word": "robber", "wordID": 1196, "conditions": [24, 800, "a", 24000], "trial": 2, "serialpos": 9, "trial_type": "single-audio", "trial_index": 98, "time_elapsed": 750192, "internal_node_id": "0.0-71.0"}}, {"uniqueid": "MTK0041:3DQQ64TANHS0CBQHJQ7FIRUH77UWPA", "current_trial": 99, "dateTime": 1509049051841, "trialdata": {"rt": -1000, "stimulus": "/static/audio/wordpool/TABLE.wav", "key_press": -1, "type": "PRES_AUD", "word": "table", "wordID": 1425, "conditions": [24, 800, "a", 24000], "trial": 2, "serialpos": 10, "trial_type": "single-audio", "trial_index": 99, "time_elapsed": 752009, "internal_node_id": "0.0-72.0"}}, {"uniqueid": "MTK0041:3DQQ64TANHS0CBQHJQ7FIRUH77UWPA", "current_trial": 100, "dateTime": 1509049053842, "trialdata": {"rt": -1000, "stimulus": "/static/audio/wordpool/ANTLER.wav", "key_press": -1, "type": "PRES_AUD", "word": "antler", "wordID": 28, "conditions": [24, 800, "a", 24000], "trial": 2, "serialpos": 11, "trial_type": "single-audio", "trial_index": 100, "time_elapsed": 754010, "internal_node_id": "0.0-73.0"}}, {"uniqueid": "MTK0041:3DQQ64TANHS0CBQHJQ7FIRUH77UWPA", "current_trial": 101, "dateTime": 1509049055639, "trialdata": {"rt": -1000, "stimulus": "/static/audio/wordpool/SHOVEL.wav", "key_press": -1, "type": "PRES_AUD", "word": "shovel", "wordID": 1294, "conditions": [24, 800, "a", 24000], "trial": 2, "serialpos": 12, "trial_type": "single-audio", "trial_index": 101, "time_elapsed": 755807, "internal_node_id": "0.0-74.0"}}, {"uniqueid": "MTK0041:3DQQ64TANHS0CBQHJQ7FIRUH77UWPA", "current_trial": 102, "dateTime": 1509049057642, "trialdata": {"rt": -1000, "stimulus": "/static/audio/wordpool/DENIM.wav", "key_press": -1, "type": "PRES_AUD", "word": "denim", "wordID": 445, "conditions": [24, 800, "a", 24000], "trial": 2, "serialpos": 13, "trial_type": "single-audio", "trial_index": 102, "time_elapsed": 757810, "internal_node_id": "0.0-75.0"}}, {"uniqueid": "MTK0041:3DQQ64TANHS0CBQHJQ7FIRUH77UWPA", "current_trial": 103, "dateTime": 1509049059393, "trialdata": {"rt": -1000, "stimulus": "/static/audio/wordpool/DRESS.wav", "key_press": -1, "type": "PRES_AUD", "word": "dress", "wordID": 494, "conditions": [24, 800, "a", 24000], "trial": 2, "serialpos": 14, "trial_type": "single-audio", "trial_index": 103, "time_elapsed": 759561, "internal_node_id": "0.0-76.0"}}, {"uniqueid": "MTK0041:3DQQ64TANHS0CBQHJQ7FIRUH77UWPA", "current_trial": 104, "dateTime": 1509049061234, "trialdata": {"rt": -1000, "stimulus": "/static/audio/wordpool/SLOPE.wav", "key_press": -1, "type": "PRES_AUD", "word": "slope", "wordID": 1327, "conditions": [24, 800, "a", 24000], "trial": 2, "serialpos": 15, "trial_type": "single-audio", "trial_index": 104, "time_elapsed": 761402, "internal_node_id": "0.0-77.0"}}, {"uniqueid": "MTK0041:3DQQ64TANHS0CBQHJQ7FIRUH77UWPA", "current_trial": 105, "dateTime": 1509049062941, "trialdata": {"rt": -1000, "stimulus": "/static/audio/wordpool/LAVA.wav", "key_press": -1, "type": "PRES_AUD", "word": "lava", "wordID": 803, "conditions": [24, 800, "a", 24000], "trial": 2, "serialpos": 16, "trial_type": "single-audio", "trial_index": 105, "time_elapsed": 763109, "internal_node_id": "0.0-78.0"}}, {"uniqueid": "MTK0041:3DQQ64TANHS0CBQHJQ7FIRUH77UWPA", "current_trial": 106, "dateTime": 1509049064752, "trialdata": {"rt": -1000, "stimulus": "/static/audio/wordpool/CURTAIN.wav", "key_press": -1, "type": "PRES_AUD", "word": "curtain", "wordID": 426, "conditions": [24, 800, "a", 24000], "trial": 2, "serialpos": 17, "trial_type": "single-audio", "trial_index": 106, "time_elapsed": 764920, "internal_node_id": "0.0-79.0"}}, {"uniqueid": "MTK0041:3DQQ64TANHS0CBQHJQ7FIRUH77UWPA", "current_trial": 107, "dateTime": 1509049066691, "trialdata": {"rt": -1000, "stimulus": "/static/audio/wordpool/BOX.wav", "key_press": -1, "type": "PRES_AUD", "word": "box", "wordID": 158, "conditions": [24, 800, "a", 24000], "trial": 2, "serialpos": 18, "trial_type": "single-audio", "trial_index": 107, "time_elapsed": 766859, "internal_node_id": "0.0-80.0"}}, {"uniqueid": "MTK0041:3DQQ64TANHS0CBQHJQ7FIRUH77UWPA", "current_trial": 108, "dateTime": 1509049068600, "trialdata": {"rt": -1000, "stimulus": "/static/audio/wordpool/WRIST.wav", "key_press": -1, "type": "PRES_AUD", "word": "wrist", "wordID": 1625, "conditions": [24, 800, "a", 24000], "trial": 2, "serialpos": 19, "trial_type": "single-audio", "trial_index": 108, "time_elapsed": 768768, "internal_node_id": "0.0-81.0"}}, {"uniqueid": "MTK0041:3DQQ64TANHS0CBQHJQ7FIRUH77UWPA", "current_trial": 109, "dateTime": 1509049070555, "trialdata": {"rt": 1398.6666666667134, "stimulus": "/static/audio/wordpool/PIGEON.wav", "key_press": 175, "type": "PRES_AUD", "word": "pigeon", "wordID": 1064, "conditions": [24, 800, "a", 24000], "trial": 2, "serialpos": 20, "trial_type": "single-audio", "trial_index": 109, "time_elapsed": 770723, "internal_node_id": "0.0-82.0"}}, {"uniqueid": "MTK0041:3DQQ64TANHS0CBQHJQ7FIRUH77UWPA", "current_trial": 110, "dateTime": 1509049072481, "trialdata": {"rt": -81.33333333330484, "stimulus": "/static/audio/wordpool/SMOG.wav", "key_press": 175, "type": "PRES_AUD", "word": "smog", "wordID": 1329, "conditions": [24, 800, "a", 24000], "trial": 2, "serialpos": 21, "trial_type": "single-audio", "trial_index": 110, "time_elapsed": 772649, "internal_node_id": "0.0-83.0"}}, {"uniqueid": "MTK0041:3DQQ64TANHS0CBQHJQ7FIRUH77UWPA", "current_trial": 111, "dateTime": 1509049074384, "trialdata": {"rt": -1000, "stimulus": "/static/audio/wordpool/CRATER.wav", "key_press": -1, "type": "PRES_AUD", "word": "crater", "wordID": 399, "conditions": [24, 800, "a", 24000], "trial": 2, "serialpos": 22, "trial_type": "single-audio", "trial_index": 111, "time_elapsed": 774552, "internal_node_id": "0.0-84.0"}}, {"uniqueid": "MTK0041:3DQQ64TANHS0CBQHJQ7FIRUH77UWPA", "current_trial": 112, "dateTime": 1509049076369, "trialdata": {"rt": -1000, "stimulus": "/static/audio/wordpool/DUSTPAN.wav", "key_press": -1, "type": "PRES_AUD", "word": "dustpan", "wordID": 508, "conditions": [24, 800, "a", 24000], "trial": 2, "serialpos": 23, "trial_type": "single-audio", "trial_index": 112, "time_elapsed": 776537, "internal_node_id": "0.0-85.0"}}, {"uniqueid": "MTK0041:3DQQ64TANHS0CBQHJQ7FIRUH77UWPA", "current_trial": 113, "dateTime": 1509049077685, "trialdata": {"rt": -1, "stimulus": "", "key_press": -1, "type": "PRE_RECALL_DELAY", "trial_type": "single-stim", "trial_index": 113, "time_elapsed": 777853, "internal_node_id": "0.0-86.0-0.0"}}, {"uniqueid": "MTK0041:3DQQ64TANHS0CBQHJQ7FIRUH77UWPA", "current_trial": 114, "dateTime": 1509049078193, "trialdata": {"rt": -1000, "stimulus": "/static/audio/400Hz.wav", "key_press": -1, "type": "PRE_RECALL_ALERT", "trial_type": "single-audio", "trial_index": 114, "time_elapsed": 778361, "internal_node_id": "0.0-87.0"}}, {"uniqueid": "MTK0041:3DQQ64TANHS0CBQHJQ7FIRUH77UWPA", "current_trial": 115, "dateTime": 1509049138196, "trialdata": {"rt": [6622, 10333, 12762, 18978, 22499, 30123, 33540, 36802, 39540, 51732], "recwords": ["lizard", "dustpan", "crater", "pigeon", "box", "shovel", "football", "denim", "dress", "truck"], "type": "FREE_RECALL", "conditions": [24, 800, "a", 24000], "trial": 2, "trial_type": "free-recall", "trial_index": 115, "time_elapsed": 838364, "internal_node_id": "0.0-88.0-0.0"}}, {"uniqueid": "MTK0041:3DQQ64TANHS0CBQHJQ7FIRUH77UWPA", "current_trial": 116, "dateTime": 1509049158000, "trialdata": {"rt": 17803, "key_press": 13, "type": "INSTRUCTIONS", "trial_type": "text", "trial_index": 116, "time_elapsed": 858168, "internal_node_id": "0.0-89.0"}}, {"uniqueid": "MTK0041:3DQQ64TANHS0CBQHJQ7FIRUH77UWPA", "current_trial": 117, "dateTime": 1509049172011, "trialdata": {"rt": [3274, 6016, 9928], "responses": ["19", "13", "21"], "num1": [3, 7, 4, 2], "num2": [8, 5, 8, 6], "num3": [8, 1, 9, 4], "type": "DISTRACTOR", "conditions": [12, 800, "v", 12000], "trial": 3, "trial_type": "math-distractor", "trial_index": 117, "time_elapsed": 872178, "internal_node_id": "0.0-90.0"}}, {"uniqueid": "MTK0041:3DQQ64TANHS0CBQHJQ7FIRUH77UWPA", "current_trial": 118, "dateTime": 1509049175014, "trialdata": {"rt": -1, "stimulus": "<p id=\"stim\">10</p>", "key_press": -1, "trial_type": "single-stim", "trial_index": 118, "time_elapsed": 875181, "internal_node_id": "0.0-91.0-0.0"}}, {"uniqueid": "MTK0041:3DQQ64TANHS0CBQHJQ7FIRUH77UWPA", "current_trial": 119, "dateTime": 1509049176018, "trialdata": {"rt": -1, "stimulus": "<p id=\"stim\">9</p>", "key_press": -1, "trial_type": "single-stim", "trial_index": 119, "time_elapsed": 876184, "internal_node_id": "0.0-91.0-1.0"}}, {"uniqueid": "MTK0041:3DQQ64TANHS0CBQHJQ7FIRUH77UWPA", "current_trial": 120, "dateTime": 1509049177022, "trialdata": {"rt": -1, "stimulus": "<p id=\"stim\">8</p>", "key_press": -1, "trial_type": "single-stim", "trial_index": 120, "time_elapsed": 877189, "internal_node_id": "0.0-91.0-2.0"}}, {"uniqueid": "MTK0041:3DQQ64TANHS0CBQHJQ7FIRUH77UWPA", "current_trial": 121, "dateTime": 1509049178026, "trialdata": {"rt": -1, "stimulus": "<p id=\"stim\">7</p>", "key_press": -1, "trial_type": "single-stim", "trial_index": 121, "time_elapsed": 878193, "internal_node_id": "0.0-91.0-3.0"}}, {"uniqueid": "MTK0041:3DQQ64TANHS0CBQHJQ7FIRUH77UWPA", "current_trial": 122, "dateTime": 1509049179029, "trialdata": {"rt": -1, "stimulus": "<p id=\"stim\">6</p>", "key_press": -1, "trial_type": "single-stim", "trial_index": 122, "time_elapsed": 879197, "internal_node_id": "0.0-91.0-4.0"}}, {"uniqueid": "MTK0041:3DQQ64TANHS0CBQHJQ7FIRUH77UWPA", "current_trial": 123, "dateTime": 1509049180033, "trialdata": {"rt": -1, "stimulus": "<p id=\"stim\">5</p>", "key_press": -1, "trial_type": "single-stim", "trial_index": 123, "time_elapsed": 880200, "internal_node_id": "0.0-91.0-5.0"}}, {"uniqueid": "MTK0041:3DQQ64TANHS0CBQHJQ7FIRUH77UWPA", "current_trial": 124, "dateTime": 1509049181038, "trialdata": {"rt": -1, "stimulus": "<p id=\"stim\">4</p>", "key_press": -1, "trial_type": "single-stim", "trial_index": 124, "time_elapsed": 881205, "internal_node_id": "0.0-91.0-6.0"}}, {"uniqueid": "MTK0041:3DQQ64TANHS0CBQHJQ7FIRUH77UWPA", "current_trial": 125, "dateTime": 1509049182041, "trialdata": {"rt": -1, "stimulus": "<p id=\"stim\">3</p>", "key_press": -1, "trial_type": "single-stim", "trial_index": 125, "time_elapsed": 882208, "internal_node_id": "0.0-91.0-7.0"}}, {"uniqueid": "MTK0041:3DQQ64TANHS0CBQHJQ7FIRUH77UWPA", "current_trial": 126, "dateTime": 1509049183045, "trialdata": {"rt": -1, "stimulus": "<p id=\"stim\">2</p>", "key_press": -1, "trial_type": "single-stim", "trial_index": 126, "time_elapsed": 883212, "internal_node_id": "0.0-91.0-8.0"}}, {"uniqueid": "MTK0041:3DQQ64TANHS0CBQHJQ7FIRUH77UWPA", "current_trial": 127, "dateTime": 1509049184048, "trialdata": {"rt": -1, "stimulus": "<p id=\"stim\">1</p>", "key_press": -1, "trial_type": "single-stim", "trial_index": 127, "time_elapsed": 884215, "internal_node_id": "0.0-91.0-9.0"}}, {"uniqueid": "MTK0041:3DQQ64TANHS0CBQHJQ7FIRUH77UWPA", "current_trial": 128, "dateTime": 1509049185551, "trialdata": {"rt": -1, "stimulus": "<p id=\"stim\">+</p>", "key_press": -1, "type": "FIXATION", "trial_type": "single-stim", "trial_index": 128, "time_elapsed": 885718, "internal_node_id": "0.0-92.0-0.0"}}, {"uniqueid": "MTK0041:3DQQ64TANHS0CBQHJQ7FIRUH77UWPA", "current_trial": 129, "dateTime": 1509049186355, "trialdata": {"rt": -1, "stimulus": "<p id=\"stim\">HATCHET</p>", "key_press": -1, "type": "PRES_VIS", "word": "hatchet", "wordID": 690, "conditions": [12, 800, "v", 12000], "trial": 3, "serialpos": 0, "trial_type": "single-stim", "trial_index": 129, "time_elapsed": 886523, "internal_node_id": "0.0-93.0"}}, {"uniqueid": "MTK0041:3DQQ64TANHS0CBQHJQ7FIRUH77UWPA", "current_trial": 130, "dateTime": 1509049188086, "trialdata": {"rt": -1, "stimulus": "<p id=\"stim\">STONE</p>", "key_press": -1, "type": "PRES_VIS", "word": "stone", "wordID": 1384, "conditions": [12, 800, "v", 12000], "trial": 3, "serialpos": 1, "trial_type": "single-stim", "trial_index": 130, "time_elapsed": 888253, "internal_node_id": "0.0-94.0"}}, {"uniqueid": "MTK0041:3DQQ64TANHS0CBQHJQ7FIRUH77UWPA", "current_trial": 131, "dateTime": 1509049189943, "trialdata": {"rt": -1, "stimulus": "<p id=\"stim\">CLOTHES</p>", "key_press": -1, "type": "PRES_VIS", "word": "clothes", "wordID": 326, "conditions": [12, 800, "v", 12000], "trial": 3, "serialpos": 2, "trial_type": "single-stim", "trial_index": 131, "time_elapsed": 890110, "internal_node_id": "0.0-95.0"}}, {"uniqueid": "MTK0041:3DQQ64TANHS0CBQHJQ7FIRUH77UWPA", "current_trial": 132, "dateTime": 1509049191780, "trialdata": {"rt": -1, "stimulus": "<p id=\"stim\">TWEEZERS</p>", "key_press": -1, "type": "PRES_VIS", "word": "tweezers", "wordID": 1525, "conditions": [12, 800, "v", 12000], "trial": 3, "serialpos": 3, "trial_type": "single-stim", "trial_index": 132, "time_elapsed": 891947, "internal_node_id": "0.0-96.0"}}, {"uniqueid": "MTK0041:3DQQ64TANHS0CBQHJQ7FIRUH77UWPA", "current_trial": 133, "dateTime": 1509049193650, "trialdata": {"rt": -1, "stimulus": "<p id=\"stim\">GARBAGE</p>", "key_press": -1, "type": "PRES_VIS", "word": "garbage", "wordID": 621, "conditions": [12, 800, "v", 12000], "trial": 3, "serialpos": 4, "trial_type": "single-stim", "trial_index": 133, "time_elapsed": 893817, "internal_node_id": "0.0-97.0"}}, {"uniqueid": "MTK0041:3DQQ64TANHS0CBQHJQ7FIRUH77UWPA", "current_trial": 134, "dateTime": 1509049195283, "trialdata": {"rt": -1, "stimulus": "<p id=\"stim\">DAUGHTER</p>", "key_press": -1, "type": "PRES_VIS", "word": "daughter", "wordID": 441, "conditions": [12, 800, "v", 12000], "trial": 3, "serialpos": 5, "trial_type": "single-stim", "trial_index": 134, "time_elapsed": 895450, "internal_node_id": "0.0-98.0"}}, {"uniqueid": "MTK0041:3DQQ64TANHS0CBQHJQ7FIRUH77UWPA", "current_trial": 135, "dateTime": 1509049197109, "trialdata": {"rt": -1, "stimulus": "<p id=\"stim\">BOYFRIEND</p>", "key_press": -1, "type": "PRES_VIS", "word": "boyfriend", "wordID": 161, "conditions": [12, 800, "v", 12000], "trial": 3, "serialpos": 6, "trial_type": "single-stim", "trial_index": 135, "time_elapsed": 897277, "internal_node_id": "0.0-99.0"}}, {"uniqueid": "MTK0041:3DQQ64TANHS0CBQHJQ7FIRUH77UWPA", "current_trial": 136, "dateTime": 1509049198985, "trialdata": {"rt": -1, "stimulus": "<p id=\"stim\">WARDROBE</p>", "key_press": -1, "type": "PRES_VIS", "word": "wardrobe", "wordID": 1586, "conditions": [12, 800, "v", 12000], "trial": 3, "serialpos": 7, "trial_type": "single-stim", "trial_index": 136, "time_elapsed": 899152, "internal_node_id": "0.0-100.0"}}, {"uniqueid": "MTK0041:3DQQ64TANHS0CBQHJQ7FIRUH77UWPA", "current_trial": 137, "dateTime": 1509049200816, "trialdata": {"rt": -1, "stimulus": "<p id=\"stim\">BLADE</p>", "key_press": -1, "type": "PRES_VIS", "word": "blade", "wordID": 133, "conditions": [12, 800, "v", 12000], "trial": 3, "serialpos": 8, "trial_type": "single-stim", "trial_index": 137, "time_elapsed": 900984, "internal_node_id": "0.0-101.0"}}, {"uniqueid": "MTK0041:3DQQ64TANHS0CBQHJQ7FIRUH77UWPA", "current_trial": 138, "dateTime": 1509049202424, "trialdata": {"rt": -1, "stimulus": "<p id=\"stim\">FARMER</p>", "key_press": -1, "type": "PRES_VIS", "word": "farmer", "wordID": 552, "conditions": [12, 800, "v", 12000], "trial": 3, "serialpos": 9, "trial_type": "single-stim", "trial_index": 138, "time_elapsed": 902591, "internal_node_id": "0.0-102.0"}}, {"uniqueid": "MTK0041:3DQQ64TANHS0CBQHJQ7FIRUH77UWPA", "current_trial": 139, "dateTime": 1509049204211, "trialdata": {"rt": -1, "stimulus": "<p id=\"stim\">VALVE</p>", "key_press": -1, "type": "PRES_VIS", "word": "valve", "wordID": 1545, "conditions": [12, 800, "v", 12000], "trial": 3, "serialpos": 10, "trial_type": "single-stim", "trial_index": 139, "time_elapsed": 904379, "internal_node_id": "0.0-103.0"}}, {"uniqueid": "MTK0041:3DQQ64TANHS0CBQHJQ7FIRUH77UWPA", "current_trial": 140, "dateTime": 1509049206083, "trialdata": {"rt": -1, "stimulus": "<p id=\"stim\">VICTIM</p>", "key_press": -1, "type": "PRES_VIS", "word": "victim", "wordID": 1561, "conditions": [12, 800, "v", 12000], "trial": 3, "serialpos": 11, "trial_type": "single-stim", "trial_index": 140, "time_elapsed": 906250, "internal_node_id": "0.0-104.0"}}, {"uniqueid": "MTK0041:3DQQ64TANHS0CBQHJQ7FIRUH77UWPA", "current_trial": 141, "dateTime": 1509049208522, "trialdata": {"rt": -1, "stimulus": "", "key_press": -1, "type": "PRE_RECALL_DELAY", "trial_type": "single-stim", "trial_index": 141, "time_elapsed": 908689, "internal_node_id": "0.0-105.0-0.0"}}, {"uniqueid": "MTK0041:3DQQ64TANHS0CBQHJQ7FIRUH77UWPA", "current_trial": 142, "dateTime": 1509049209031, "trialdata": {"rt": -1000, "stimulus": "/static/audio/400Hz.wav", "key_press": -1, "type": "PRE_RECALL_ALERT", "trial_type": "single-audio", "trial_index": 142, "time_elapsed": 909199, "internal_node_id": "0.0-106.0"}}, {"uniqueid": "MTK0041:3DQQ64TANHS0CBQHJQ7FIRUH77UWPA", "current_trial": 143, "dateTime": 1509049269043, "trialdata": {"rt": [8738, 11976, 25678, 35725], "recwords": ["boyfriend", "tweezers", "victim", "garbage"], "type": "FREE_RECALL", "conditions": [12, 800, "v", 12000], "trial": 3, "trial_type": "free-recall", "trial_index": 143, "time_elapsed": 969211, "internal_node_id": "0.0-107.0-0.0"}}, {"uniqueid": "MTK0041:3DQQ64TANHS0CBQHJQ7FIRUH77UWPA", "current_trial": 144, "dateTime": 1509049288126, "trialdata": {"rt": 17080, "key_press": 186, "type": "INSTRUCTIONS", "trial_type": "text", "trial_index": 144, "time_elapsed": 988294, "internal_node_id": "0.0-108.0"}}, {"uniqueid": "MTK0041:3DQQ64TANHS0CBQHJQ7FIRUH77UWPA", "current_trial": 145, "dateTime": 1509049314134, "trialdata": {"rt": [2521, 4654, 6684, 9574, 14330, 18303, 20968, 23431], "responses": ["11", "16", "14", "17", "15", "21", "17", "12"], "num1": [2, 1, 6, 7, 6, 7, 4, 1, 2], "num2": [2, 9, 5, 8, 2, 8, 7, 9, 6], "num3": [7, 6, 3, 2, 7, 6, 6, 2, 2], "type": "DISTRACTOR", "conditions": [12, 800, "a", 24000], "trial": 4, "trial_type": "math-distractor", "trial_index": 145, "time_elapsed": 1014302, "internal_node_id": "0.0-109.0"}}, {"uniqueid": "MTK0041:3DQQ64TANHS0CBQHJQ7FIRUH77UWPA", "current_trial": 146, "dateTime": 1509049317138, "trialdata": {"rt": -1, "stimulus": "<p id=\"stim\">10</p>", "key_press": -1, "trial_type": "single-stim", "trial_index": 146, "time_elapsed": 1017305, "internal_node_id": "0.0-110.0-0.0"}}, {"uniqueid": "MTK0041:3DQQ64TANHS0CBQHJQ7FIRUH77UWPA", "current_trial": 147, "dateTime": 1509049318141, "trialdata": {"rt": -1, "stimulus": "<p id=\"stim\">9</p>", "key_press": -1, "trial_type": "single-stim", "trial_index": 147, "time_elapsed": 1018309, "internal_node_id": "0.0-110.0-1.0"}}, {"uniqueid": "MTK0041:3DQQ64TANHS0CBQHJQ7FIRUH77UWPA", "current_trial": 148, "dateTime": 1509049319144, "trialdata": {"rt": -1, "stimulus": "<p id=\"stim\">8</p>", "key_press": -1, "trial_type": "single-stim", "trial_index": 148, "time_elapsed": 1019311, "internal_node_id": "0.0-110.0-2.0"}}, {"uniqueid": "MTK0041:3DQQ64TANHS0CBQHJQ7FIRUH77UWPA", "current_trial": 149, "dateTime": 1509049320151, "trialdata": {"rt": -1, "stimulus": "<p id=\"stim\">7</p>", "key_press": -1, "trial_type": "single-stim", "trial_index": 149, "time_elapsed": 1020317, "internal_node_id": "0.0-110.0-3.0"}}, {"uniqueid": "MTK0041:3DQQ64TANHS0CBQHJQ7FIRUH77UWPA", "current_trial": 150, "dateTime": 1509049321156, "trialdata": {"rt": -1, "stimulus": "<p id=\"stim\">6</p>", "key_press": -1, "trial_type": "single-stim", "trial_index": 150, "time_elapsed": 1021323, "internal_node_id": "0.0-110.0-4.0"}}, {"uniqueid": "MTK0041:3DQQ64TANHS0CBQHJQ7FIRUH77UWPA", "current_trial": 151, "dateTime": 1509049322161, "trialdata": {"rt": -1, "stimulus": "<p id=\"stim\">5</p>", "key_press": -1, "trial_type": "single-stim", "trial_index": 151, "time_elapsed": 1022328, "internal_node_id": "0.0-110.0-5.0"}}, {"uniqueid": "MTK0041:3DQQ64TANHS0CBQHJQ7FIRUH77UWPA", "current_trial": 152, "dateTime": 1509049323164, "trialdata": {"rt": -1, "stimulus": "<p id=\"stim\">4</p>", "key_press": -1, "trial_type": "single-stim", "trial_index": 152, "time_elapsed": 1023331, "internal_node_id": "0.0-110.0-6.0"}}, {"uniqueid": "MTK0041:3DQQ64TANHS0CBQHJQ7FIRUH77UWPA", "current_trial": 153, "dateTime": 1509049324166, "trialdata": {"rt": -1, "stimulus": "<p id=\"stim\">3</p>", "key_press": -1, "trial_type": "single-stim", "trial_index": 153, "time_elapsed": 1024334, "internal_node_id": "0.0-110.0-7.0"}}, {"uniqueid": "MTK0041:3DQQ64TANHS0CBQHJQ7FIRUH77UWPA", "current_trial": 154, "dateTime": 1509049325168, "trialdata": {"rt": -1, "stimulus": "<p id=\"stim\">2</p>", "key_press": -1, "trial_type": "single-stim", "trial_index": 154, "time_elapsed": 1025336, "internal_node_id": "0.0-110.0-8.0"}}, {"uniqueid": "MTK0041:3DQQ64TANHS0CBQHJQ7FIRUH77UWPA", "current_trial": 155, "dateTime": 1509049326170, "trialdata": {"rt": -1, "stimulus": "<p id=\"stim\">1</p>", "key_press": -1, "trial_type": "single-stim", "trial_index": 155, "time_elapsed": 1026338, "internal_node_id": "0.0-110.0-9.0"}}, {"uniqueid": "MTK0041:3DQQ64TANHS0CBQHJQ7FIRUH77UWPA", "current_trial": 156, "dateTime": 1509049327673, "trialdata": {"rt": -1, "stimulus": "<p id=\"stim\">+</p>", "key_press": -1, "type": "FIXATION", "trial_type": "single-stim", "trial_index": 156, "time_elapsed": 1027841, "internal_node_id": "0.0-111.0-0.0"}}, {"uniqueid": "MTK0041:3DQQ64TANHS0CBQHJQ7FIRUH77UWPA", "current_trial": 157, "dateTime": 1509049329520, "trialdata": {"rt": -1000, "stimulus": "/static/audio/wordpool/MUMMY.wav", "key_press": -1, "type": "PRES_AUD", "word": "mummy", "wordID": 931, "conditions": [12, 800, "a", 24000], "trial": 4, "serialpos": 0, "trial_type": "single-audio", "trial_index": 157, "time_elapsed": 1029688, "internal_node_id": "0.0-112.0"}}, {"uniqueid": "MTK0041:3DQQ64TANHS0CBQHJQ7FIRUH77UWPA", "current_trial": 158, "dateTime": 1509049331253, "trialdata": {"rt": -1000, "stimulus": "/static/audio/wordpool/PANTHER.wav", "key_press": -1, "type": "PRES_AUD", "word": "panther", "wordID": 1008, "conditions": [12, 800, "a", 24000], "trial": 4, "serialpos": 1, "trial_type": "single-audio", "trial_index": 158, "time_elapsed": 1031421, "internal_node_id": "0.0-113.0"}}, {"uniqueid": "MTK0041:3DQQ64TANHS0CBQHJQ7FIRUH77UWPA", "current_trial": 159, "dateTime": 1509049333144, "trialdata": {"rt": -1000, "stimulus": "/static/audio/wordpool/RATTLE.wav", "key_press": -1, "type": "PRES_AUD", "word": "rattle", "wordID": 1169, "conditions": [12, 800, "a", 24000], "trial": 4, "serialpos": 2, "trial_type": "single-audio", "trial_index": 159, "time_elapsed": 1033312, "internal_node_id": "0.0-114.0"}}, {"uniqueid": "MTK0041:3DQQ64TANHS0CBQHJQ7FIRUH77UWPA", "current_trial": 160, "dateTime": 1509049334932, "trialdata": {"rt": -1000, "stimulus": "/static/audio/wordpool/MOP.wav", "key_press": -1, "type": "PRES_AUD", "word": "mop", "wordID": 915, "conditions": [12, 800, "a", 24000], "trial": 4, "serialpos": 3, "trial_type": "single-audio", "trial_index": 160, "time_elapsed": 1035100, "internal_node_id": "0.0-115.0"}}, {"uniqueid": "MTK0041:3DQQ64TANHS0CBQHJQ7FIRUH77UWPA", "current_trial": 161, "dateTime": 1509049336801, "trialdata": {"rt": -1000, "stimulus": "/static/audio/wordpool/ZEBRA.wav", "key_press": -1, "type": "PRES_AUD", "word": "zebra", "wordID": 1634, "conditions": [12, 800, "a", 24000], "trial": 4, "serialpos": 4, "trial_type": "single-audio", "trial_index": 161, "time_elapsed": 1036969, "internal_node_id": "0.0-116.0"}}, {"uniqueid": "MTK0041:3DQQ64TANHS0CBQHJQ7FIRUH77UWPA", "current_trial": 162, "dateTime": 1509049338477, "trialdata": {"rt": -1000, "stimulus": "/static/audio/wordpool/TUTU.wav", "key_press": -1, "type": "PRES_AUD", "word": "tutu", "wordID": 1523, "conditions": [12, 800, "a", 24000], "trial": 4, "serialpos": 5, "trial_type": "single-audio", "trial_index": 162, "time_elapsed": 1038645, "internal_node_id": "0.0-117.0"}}, {"uniqueid": "MTK0041:3DQQ64TANHS0CBQHJQ7FIRUH77UWPA", "current_trial": 163, "dateTime": 1509049340461, "trialdata": {"rt": -1000, "stimulus": "/static/audio/wordpool/RIVER.wav", "key_press": -1, "type": "PRES_AUD", "word": "river", "wordID": 1193, "conditions": [12, 800, "a", 24000], "trial": 4, "serialpos": 6, "trial_type": "single-audio", "trial_index": 163, "time_elapsed": 1040629, "internal_node_id": "0.0-118.0"}}, {"uniqueid": "MTK0041:3DQQ64TANHS0CBQHJQ7FIRUH77UWPA", "current_trial": 164, "dateTime": 1509049342368, "trialdata": {"rt": -1000, "stimulus": "/static/audio/wordpool/TROMBONE.wav", "key_press": -1, "type": "PRES_AUD", "word": "trombone", "wordID": 1507, "conditions": [12, 800, "a", 24000], "trial": 4, "serialpos": 7, "trial_type": "single-audio", "trial_index": 164, "time_elapsed": 1042536, "internal_node_id": "0.0-119.0"}}, {"uniqueid": "MTK0041:3DQQ64TANHS0CBQHJQ7FIRUH77UWPA", "current_trial": 165, "dateTime": 1509049344164, "trialdata": {"rt": -1000, "stimulus": "/static/audio/wordpool/DRINK.wav", "key_press": -1, "type": "PRES_AUD", "word": "drink", "wordID": 497, "conditions": [12, 800, "a", 24000], "trial": 4, "serialpos": 8, "trial_type": "single-audio", "trial_index": 165, "time_elapsed": 1044331, "internal_node_id": "0.0-120.0"}}, {"uniqueid": "MTK0041:3DQQ64TANHS0CBQHJQ7FIRUH77UWPA", "current_trial": 166, "dateTime": 1509049346132, "trialdata": {"rt": -1000, "stimulus": "/static/audio/wordpool/CASKET.wav", "key_press": -1, "type": "PRES_AUD", "word": "casket", "wordID": 254, "conditions": [12, 800, "a", 24000], "trial": 4, "serialpos": 9, "trial_type": "single-audio", "trial_index": 166, "time_elapsed": 1046299, "internal_node_id": "0.0-121.0"}}, {"uniqueid": "MTK0041:3DQQ64TANHS0CBQHJQ7FIRUH77UWPA", "current_trial": 167, "dateTime": 1509049348097, "trialdata": {"rt": -1000, "stimulus": "/static/audio/wordpool/TOMBSTONE.wav", "key_press": -1, "type": "PRES_AUD", "word": "tombstone", "wordID": 1477, "conditions": [12, 800, "a", 24000], "trial": 4, "serialpos": 10, "trial_type": "single-audio", "trial_index": 167, "time_elapsed": 1048265, "internal_node_id": "0.0-122.0"}}, {"uniqueid": "MTK0041:3DQQ64TANHS0CBQHJQ7FIRUH77UWPA", "current_trial": 168, "dateTime": 1509049349878, "trialdata": {"rt": -1000, "stimulus": "/static/audio/wordpool/BEAVER.wav", "key_press": -1, "type": "PRES_AUD", "word": "beaver", "wordID": 108, "conditions": [12, 800, "a", 24000], "trial": 4, "serialpos": 11, "trial_type": "single-audio", "trial_index": 168, "time_elapsed": 1050046, "internal_node_id": "0.0-123.0"}}, {"uniqueid": "MTK0041:3DQQ64TANHS0CBQHJQ7FIRUH77UWPA", "current_trial": 169, "dateTime": 1509049351136, "trialdata": {"rt": -1, "stimulus": "", "key_press": -1, "type": "PRE_RECALL_DELAY", "trial_type": "single-stim", "trial_index": 169, "time_elapsed": 1051303, "internal_node_id": "0.0-124.0-0.0"}}, {"uniqueid": "MTK0041:3DQQ64TANHS0CBQHJQ7FIRUH77UWPA", "current_trial": 170, "dateTime": 1509049351648, "trialdata": {"rt": -1000, "stimulus": "/static/audio/400Hz.wav", "key_press": -1, "type": "PRE_RECALL_ALERT", "trial_type": "single-audio", "trial_index": 170, "time_elapsed": 1051816, "internal_node_id": "0.0-125.0"}}, {"uniqueid": "MTK0041:3DQQ64TANHS0CBQHJQ7FIRUH77UWPA", "current_trial": 171, "dateTime": 1509049411658, "trialdata": {"rt": [7934, 11973, 14398, 18093, 21635, 26603, 31258, 53617], "recwords": ["beaver", "tombstone", "casket", "river", "mummy", "zebra", "drink", "trombone"], "type": "FREE_RECALL", "conditions": [12, 800, "a", 24000], "trial": 4, "trial_type": "free-recall", "trial_index": 171, "time_elapsed": 1111825, "internal_node_id": "0.0-126.0-0.0"}}, {"uniqueid": "MTK0041:3DQQ64TANHS0CBQHJQ7FIRUH77UWPA", "current_trial": 172, "dateTime": 1509049415934, "trialdata": {"rt": 2275, "key_press": 32, "type": "INSTRUCTIONS", "trial_type": "text", "trial_index": 172, "time_elapsed": 1116102, "internal_node_id": "0.0-127.0"}}, {"uniqueid": "MTK0041:3DQQ64TANHS0CBQHJQ7FIRUH77UWPA", "current_trial": 173, "dateTime": 1509049441941, "trialdata": {"rt": [2555, 5112, 8035, 10425, 13387, 15394, 17836, 21278, 23243], "responses": ["12", "15", "14", "15", "12", "15", "17", "15", "16"], "num1": [4, 9, 1, 5, 3, 9, 8, 4, 7, 1], "num2": [5, 3, 8, 1, 1, 2, 1, 9, 3, 4], "num3": [3, 3, 7, 9, 8, 4, 8, 2, 6, 3], "type": "DISTRACTOR", "conditions": [12, 1600, "v", 24000], "trial": 5, "trial_type": "math-distractor", "trial_index": 173, "time_elapsed": 1142108, "internal_node_id": "0.0-128.0"}}, {"uniqueid": "MTK0041:3DQQ64TANHS0CBQHJQ7FIRUH77UWPA", "current_trial": 174, "dateTime": 1509049444946, "trialdata": {"rt": -1, "stimulus": "<p id=\"stim\">10</p>", "key_press": -1, "trial_type": "single-stim", "trial_index": 174, "time_elapsed": 1145113, "internal_node_id": "0.0-129.0-0.0"}}, {"uniqueid": "MTK0041:3DQQ64TANHS0CBQHJQ7FIRUH77UWPA", "current_trial": 175, "dateTime": 1509049445948, "trialdata": {"rt": -1, "stimulus": "<p id=\"stim\">9</p>", "key_press": -1, "trial_type": "single-stim", "trial_index": 175, "time_elapsed": 1146115, "internal_node_id": "0.0-129.0-1.0"}}, {"uniqueid": "MTK0041:3DQQ64TANHS0CBQHJQ7FIRUH77UWPA", "current_trial": 176, "dateTime": 1509049446950, "trialdata": {"rt": -1, "stimulus": "<p id=\"stim\">8</p>", "key_press": -1, "trial_type": "single-stim", "trial_index": 176, "time_elapsed": 1147118, "internal_node_id": "0.0-129.0-2.0"}}, {"uniqueid": "MTK0041:3DQQ64TANHS0CBQHJQ7FIRUH77UWPA", "current_trial": 177, "dateTime": 1509049447954, "trialdata": {"rt": -1, "stimulus": "<p id=\"stim\">7</p>", "key_press": -1, "trial_type": "single-stim", "trial_index": 177, "time_elapsed": 1148122, "internal_node_id": "0.0-129.0-3.0"}}, {"uniqueid": "MTK0041:3DQQ64TANHS0CBQHJQ7FIRUH77UWPA", "current_trial": 178, "dateTime": 1509049448956, "trialdata": {"rt": -1, "stimulus": "<p id=\"stim\">6</p>", "key_press": -1, "trial_type": "single-stim", "trial_index": 178, "time_elapsed": 1149124, "internal_node_id": "0.0-129.0-4.0"}}, {"uniqueid": "MTK0041:3DQQ64TANHS0CBQHJQ7FIRUH77UWPA", "current_trial": 179, "dateTime": 1509049449962, "trialdata": {"rt": -1, "stimulus": "<p id=\"stim\">5</p>", "key_press": -1, "trial_type": "single-stim", "trial_index": 179, "time_elapsed": 1150129, "internal_node_id": "0.0-129.0-5.0"}}, {"uniqueid": "MTK0041:3DQQ64TANHS0CBQHJQ7FIRUH77UWPA", "current_trial": 180, "dateTime": 1509049450965, "trialdata": {"rt": -1, "stimulus": "<p id=\"stim\">4</p>", "key_press": -1, "trial_type": "single-stim", "trial_index": 180, "time_elapsed": 1151133, "internal_node_id": "0.0-129.0-6.0"}}, {"uniqueid": "MTK0041:3DQQ64TANHS0CBQHJQ7FIRUH77UWPA", "current_trial": 181, "dateTime": 1509049451968, "trialdata": {"rt": -1, "stimulus": "<p id=\"stim\">3</p>", "key_press": -1, "trial_type": "single-stim", "trial_index": 181, "time_elapsed": 1152136, "internal_node_id": "0.0-129.0-7.0"}}, {"uniqueid": "MTK0041:3DQQ64TANHS0CBQHJQ7FIRUH77UWPA", "current_trial": 182, "dateTime": 1509049452971, "trialdata": {"rt": -1, "stimulus": "<p id=\"stim\">2</p>", "key_press": -1, "trial_type": "single-stim", "trial_index": 182, "time_elapsed": 1153138, "internal_node_id": "0.0-129.0-8.0"}}, {"uniqueid": "MTK0041:3DQQ64TANHS0CBQHJQ7FIRUH77UWPA", "current_trial": 183, "dateTime": 1509049453975, "trialdata": {"rt": -1, "stimulus": "<p id=\"stim\">1</p>", "key_press": -1, "trial_type": "single-stim", "trial_index": 183, "time_elapsed": 1154142, "internal_node_id": "0.0-129.0-9.0"}}, {"uniqueid": "MTK0041:3DQQ64TANHS0CBQHJQ7FIRUH77UWPA", "current_trial": 184, "dateTime": 1509049455477, "trialdata": {"rt": -1, "stimulus": "<p id=\"stim\">+</p>", "key_press": -1, "type": "FIXATION", "trial_type": "single-stim", "trial_index": 184, "time_elapsed": 1155645, "internal_node_id": "0.0-130.0-0.0"}}, {"uniqueid": "MTK0041:3DQQ64TANHS0CBQHJQ7FIRUH77UWPA", "current_trial": 185, "dateTime": 1509049457082, "trialdata": {"rt": -1, "stimulus": "<p id=\"stim\">DRAGON</p>", "key_press": -1, "type": "PRES_VIS", "word": "dragon", "wordID": 491, "conditions": [12, 1600, "v", 24000], "trial": 5, "serialpos": 0, "trial_type": "single-stim", "trial_index": 185, "time_elapsed": 1157249, "internal_node_id": "0.0-131.0"}}, {"uniqueid": "MTK0041:3DQQ64TANHS0CBQHJQ7FIRUH77UWPA", "current_trial": 186, "dateTime": 1509049459616, "trialdata": {"rt": -1, "stimulus": "<p id=\"stim\">GOBLIN</p>", "key_press": -1, "type": "PRES_VIS", "word": "goblin", "wordID": 644, "conditions": [12, 1600, "v", 24000], "trial": 5, "serialpos": 1, "trial_type": "single-stim", "trial_index": 186, "time_elapsed": 1159783, "internal_node_id": "0.0-132.0"}}, {"uniqueid": "MTK0041:3DQQ64TANHS0CBQHJQ7FIRUH77UWPA", "current_trial": 187, "dateTime": 1509049462198, "trialdata": {"rt": -1, "stimulus": "<p id=\"stim\">SPARROW</p>", "key_press": -1, "type": "PRES_VIS", "word": "sparrow", "wordID": 1346, "conditions": [12, 1600, "v", 24000], "trial": 5, "serialpos": 2, "trial_type": "single-stim", "trial_index": 187, "time_elapsed": 1162364, "internal_node_id": "0.0-133.0"}}, {"uniqueid": "MTK0041:3DQQ64TANHS0CBQHJQ7FIRUH77UWPA", "current_trial": 188, "dateTime": 1509049464991, "trialdata": {"rt": -1, "stimulus": "<p id=\"stim\">PASTA</p>", "key_press": -1, "type": "PRES_VIS", "word": "pasta", "wordID": 1020, "conditions": [12, 1600, "v", 24000], "trial": 5, "serialpos": 3, "trial_type": "single-stim", "trial_index": 188, "time_elapsed": 1165159, "internal_node_id": "0.0-134.0"}}, {"uniqueid": "MTK0041:3DQQ64TANHS0CBQHJQ7FIRUH77UWPA", "current_trial": 189, "dateTime": 1509049467540, "trialdata": {"rt": -1, "stimulus": "<p id=\"stim\">GLOVE</p>", "key_press": -1, "type": "PRES_VIS", "word": "glove", "wordID": 641, "conditions": [12, 1600, "v", 24000], "trial": 5, "serialpos": 4, "trial_type": "single-stim", "trial_index": 189, "time_elapsed": 1167707, "internal_node_id": "0.0-135.0"}}, {"uniqueid": "MTK0041:3DQQ64TANHS0CBQHJQ7FIRUH77UWPA", "current_trial": 190, "dateTime": 1509049469988, "trialdata": {"rt": -1, "stimulus": "<p id=\"stim\">BRACES</p>", "key_press": -1, "type": "PRES_VIS", "word": "braces", "wordID": 163, "conditions": [12, 1600, "v", 24000], "trial": 5, "serialpos": 5, "trial_type": "single-stim", "trial_index": 190, "time_elapsed": 1170156, "internal_node_id": "0.0-136.0"}}, {"uniqueid": "MTK0041:3DQQ64TANHS0CBQHJQ7FIRUH77UWPA", "current_trial": 191, "dateTime": 1509049472643, "trialdata": {"rt": -1, "stimulus": "<p id=\"stim\">SCISSORS</p>", "key_press": -1, "type": "PRES_VIS", "word": "scissors", "wordID": 1249, "conditions": [12, 1600, "v", 24000], "trial": 5, "serialpos": 6, "trial_type": "single-stim", "trial_index": 191, "time_elapsed": 1172810, "internal_node_id": "0.0-137.0"}}, {"uniqueid": "MTK0041:3DQQ64TANHS0CBQHJQ7FIRUH77UWPA", "current_trial": 192, "dateTime": 1509049475087, "trialdata": {"rt": -1, "stimulus": "<p id=\"stim\">BADGE</p>", "key_press": -1, "type": "PRES_VIS", "word": "badge", "wordID": 67, "conditions": [12, 1600, "v", 24000], "trial": 5, "serialpos": 7, "trial_type": "single-stim", "trial_index": 192, "time_elapsed": 1175254, "internal_node_id": "0.0-138.0"}}, {"uniqueid": "MTK0041:3DQQ64TANHS0CBQHJQ7FIRUH77UWPA", "current_trial": 193, "dateTime": 1509049477848, "trialdata": {"rt": -1, "stimulus": "<p id=\"stim\">ROBIN</p>", "key_press": -1, "type": "PRES_VIS", "word": "robin", "wordID": 1198, "conditions": [12, 1600, "v", 24000], "trial": 5, "serialpos": 8, "trial_type": "single-stim", "trial_index": 193, "time_elapsed": 1178016, "internal_node_id": "0.0-139.0"}}, {"uniqueid": "MTK0041:3DQQ64TANHS0CBQHJQ7FIRUH77UWPA", "current_trial": 194, "dateTime": 1509049480385, "trialdata": {"rt": -1, "stimulus": "<p id=\"stim\">BUG</p>", "key_press": -1, "type": "PRES_VIS", "word": "bug", "wordID": 186, "conditions": [12, 1600, "v", 24000], "trial": 5, "serialpos": 9, "trial_type": "single-stim", "trial_index": 194, "time_elapsed": 1180553, "internal_node_id": "0.0-140.0"}}, {"uniqueid": "MTK0041:3DQQ64TANHS0CBQHJQ7FIRUH77UWPA", "current_trial": 195, "dateTime": 1509049483169, "trialdata": {"rt": -1, "stimulus": "<p id=\"stim\">FRANCE</p>", "key_press": -1, "type": "PRES_VIS", "word": "france", "wordID": 600, "conditions": [12, 1600, "v", 24000], "trial": 5, "serialpos": 10, "trial_type": "single-stim", "trial_index": 195, "time_elapsed": 1183337, "internal_node_id": "0.0-141.0"}}, {"uniqueid": "MTK0041:3DQQ64TANHS0CBQHJQ7FIRUH77UWPA", "current_trial": 196, "dateTime": 1509049485923, "trialdata": {"rt": -1, "stimulus": "<p id=\"stim\">LASER</p>", "key_press": -1, "type": "PRES_VIS", "word": "laser", "wordID": 800, "conditions": [12, 1600, "v", 24000], "trial": 5, "serialpos": 11, "trial_type": "single-stim", "trial_index": 196, "time_elapsed": 1186090, "internal_node_id": "0.0-142.0"}}, {"uniqueid": "MTK0041:3DQQ64TANHS0CBQHJQ7FIRUH77UWPA", "current_trial": 197, "dateTime": 1509049488156, "trialdata": {"rt": -1, "stimulus": "", "key_press": -1, "type": "PRE_RECALL_DELAY", "trial_type": "single-stim", "trial_index": 197, "time_elapsed": 1188324, "internal_node_id": "0.0-143.0-0.0"}}, {"uniqueid": "MTK0041:3DQQ64TANHS0CBQHJQ7FIRUH77UWPA", "current_trial": 198, "dateTime": 1509049488662, "trialdata": {"rt": -1000, "stimulus": "/static/audio/400Hz.wav", "key_press": -1, "type": "PRE_RECALL_ALERT", "trial_type": "single-audio", "trial_index": 198, "time_elapsed": 1188830, "internal_node_id": "0.0-144.0"}}, {"uniqueid": "MTK0041:3DQQ64TANHS0CBQHJQ7FIRUH77UWPA", "current_trial": 199, "dateTime": 1509049548668, "trialdata": {"rt": [5829, 11338, 22657, 24594, 29172, 32968, 39814, 49852], "recwords": ["laser", "scissors", "glove", "pasta", "goblin", "sparrow", "robin", "dragon"], "type": "FREE_RECALL", "conditions": [12, 1600, "v", 24000], "trial": 5, "trial_type": "free-recall", "trial_index": 199, "time_elapsed": 1248836, "internal_node_id": "0.0-145.0-0.0"}}, {"uniqueid": "MTK0041:3DQQ64TANHS0CBQHJQ7FIRUH77UWPA", "current_trial": 200, "dateTime": 1509049560348, "trialdata": {"rt": 9678, "key_press": 13, "type": "INSTRUCTIONS", "trial_type": "text", "trial_index": 200, "time_elapsed": 1260516, "internal_node_id": "0.0-146.0"}}, {"uniqueid": "MTK0041:3DQQ64TANHS0CBQHJQ7FIRUH77UWPA", "current_trial": 201, "dateTime": 1509049574357, "trialdata": {"rt": [4526, 7584, 10140], "responses": ["23", "11", "9"], "num1": [9, 3, 1, 7], "num2": [5, 6, 7, 3], "num3": [9, 2, 1, 8], "type": "DISTRACTOR", "conditions": [24, 800, "a", 12000], "trial": 6, "trial_type": "math-distractor", "trial_index": 201, "time_elapsed": 1274524, "internal_node_id": "0.0-147.0"}}, {"uniqueid": "MTK0041:3DQQ64TANHS0CBQHJQ7FIRUH77UWPA", "current_trial": 202, "dateTime": 1509049577361, "trialdata": {"rt": -1, "stimulus": "<p id=\"stim\">10</p>", "key_press": -1, "trial_type": "single-stim", "trial_index": 202, "time_elapsed": 1277528, "internal_node_id": "0.0-148.0-0.0"}}, {"uniqueid": "MTK0041:3DQQ64TANHS0CBQHJQ7FIRUH77UWPA", "current_trial": 203, "dateTime": 1509049578363, "trialdata": {"rt": -1, "stimulus": "<p id=\"stim\">9</p>", "key_press": -1, "trial_type": "single-stim", "trial_index": 203, "time_elapsed": 1278530, "internal_node_id": "0.0-148.0-1.0"}}, {"uniqueid": "MTK0041:3DQQ64TANHS0CBQHJQ7FIRUH77UWPA", "current_trial": 204, "dateTime": 1509049579367, "trialdata": {"rt": -1, "stimulus": "<p id=\"stim\">8</p>", "key_press": -1, "trial_type": "single-stim", "trial_index": 204, "time_elapsed": 1279534, "internal_node_id": "0.0-148.0-2.0"}}, {"uniqueid": "MTK0041:3DQQ64TANHS0CBQHJQ7FIRUH77UWPA", "current_trial": 205, "dateTime": 1509049580371, "trialdata": {"rt": -1, "stimulus": "<p id=\"stim\">7</p>", "key_press": -1, "trial_type": "single-stim", "trial_index": 205, "time_elapsed": 1280538, "internal_node_id": "0.0-148.0-3.0"}}, {"uniqueid": "MTK0041:3DQQ64TANHS0CBQHJQ7FIRUH77UWPA", "current_trial": 206, "dateTime": 1509049581374, "trialdata": {"rt": -1, "stimulus": "<p id=\"stim\">6</p>", "key_press": -1, "trial_type": "single-stim", "trial_index": 206, "time_elapsed": 1281541, "internal_node_id": "0.0-148.0-4.0"}}, {"uniqueid": "MTK0041:3DQQ64TANHS0CBQHJQ7FIRUH77UWPA", "current_trial": 207, "dateTime": 1509049582377, "trialdata": {"rt": -1, "stimulus": "<p id=\"stim\">5</p>", "key_press": -1, "trial_type": "single-stim", "trial_index": 207, "time_elapsed": 1282544, "internal_node_id": "0.0-148.0-5.0"}}, {"uniqueid": "MTK0041:3DQQ64TANHS0CBQHJQ7FIRUH77UWPA", "current_trial": 208, "dateTime": 1509049583379, "trialdata": {"rt": -1, "stimulus": "<p id=\"stim\">4</p>", "key_press": -1, "trial_type": "single-stim", "trial_index": 208, "time_elapsed": 1283546, "internal_node_id": "0.0-148.0-6.0"}}, {"uniqueid": "MTK0041:3DQQ64TANHS0CBQHJQ7FIRUH77UWPA", "current_trial": 209, "dateTime": 1509049584383, "trialdata": {"rt": -1, "stimulus": "<p id=\"stim\">3</p>", "key_press": -1, "trial_type": "single-stim", "trial_index": 209, "time_elapsed": 1284550, "internal_node_id": "0.0-148.0-7.0"}}, {"uniqueid": "MTK0041:3DQQ64TANHS0CBQHJQ7FIRUH77UWPA", "current_trial": 210, "dateTime": 1509049585387, "trialdata": {"rt": -1, "stimulus": "<p id=\"stim\">2</p>", "key_press": -1, "trial_type": "single-stim", "trial_index": 210, "time_elapsed": 1285555, "internal_node_id": "0.0-148.0-8.0"}}, {"uniqueid": "MTK0041:3DQQ64TANHS0CBQHJQ7FIRUH77UWPA", "current_trial": 211, "dateTime": 1509049586391, "trialdata": {"rt": -1, "stimulus": "<p id=\"stim\">1</p>", "key_press": -1, "trial_type": "single-stim", "trial_index": 211, "time_elapsed": 1286559, "internal_node_id": "0.0-148.0-9.0"}}, {"uniqueid": "MTK0041:3DQQ64TANHS0CBQHJQ7FIRUH77UWPA", "current_trial": 212, "dateTime": 1509049587895, "trialdata": {"rt": -1, "stimulus": "<p id=\"stim\">+</p>", "key_press": -1, "type": "FIXATION", "trial_type": "single-stim", "trial_index": 212, "time_elapsed": 1288062, "internal_node_id": "0.0-149.0-0.0"}}, {"uniqueid": "MTK0041:3DQQ64TANHS0CBQHJQ7FIRUH77UWPA", "current_trial": 213, "dateTime": 1509049589717, "trialdata": {"rt": -1000, "stimulus": "/static/audio/wordpool/TURTLE.wav", "key_press": -1, "type": "PRES_AUD", "word": "turtle", "wordID": 1521, "conditions": [24, 800, "a", 12000], "trial": 6, "serialpos": 0, "trial_type": "single-audio", "trial_index": 213, "time_elapsed": 1289884, "internal_node_id": "0.0-150.0"}}, {"uniqueid": "MTK0041:3DQQ64TANHS0CBQHJQ7FIRUH77UWPA", "current_trial": 214, "dateTime": 1509049591388, "trialdata": {"rt": -1000, "stimulus": "/static/audio/wordpool/ROD.wav", "key_press": -1, "type": "PRES_AUD", "word": "rod", "wordID": 1202, "conditions": [24, 800, "a", 12000], "trial": 6, "serialpos": 1, "trial_type": "single-audio", "trial_index": 214, "time_elapsed": 1291556, "internal_node_id": "0.0-151.0"}}, {"uniqueid": "MTK0041:3DQQ64TANHS0CBQHJQ7FIRUH77UWPA", "current_trial": 215, "dateTime": 1509049593051, "trialdata": {"rt": -1000, "stimulus": "/static/audio/wordpool/FLUTE.wav", "key_press": -1, "type": "PRES_AUD", "word": "flute", "wordID": 584, "conditions": [24, 800, "a", 12000], "trial": 6, "serialpos": 2, "trial_type": "single-audio", "trial_index": 215, "time_elapsed": 1293219, "internal_node_id": "0.0-152.0"}}, {"uniqueid": "MTK0041:3DQQ64TANHS0CBQHJQ7FIRUH77UWPA", "current_trial": 216, "dateTime": 1509049594923, "trialdata": {"rt": -1000, "stimulus": "/static/audio/wordpool/WAGON.wav", "key_press": -1, "type": "PRES_AUD", "word": "wagon", "wordID": 1577, "conditions": [24, 800, "a", 12000], "trial": 6, "serialpos": 3, "trial_type": "single-audio", "trial_index": 216, "time_elapsed": 1295091, "internal_node_id": "0.0-153.0"}}, {"uniqueid": "MTK0041:3DQQ64TANHS0CBQHJQ7FIRUH77UWPA", "current_trial": 217, "dateTime": 1509049596610, "trialdata": {"rt": -1000, "stimulus": "/static/audio/wordpool/ROBOT.wav", "key_press": -1, "type": "PRES_AUD", "word": "robot", "wordID": 1199, "conditions": [24, 800, "a", 12000], "trial": 6, "serialpos": 4, "trial_type": "single-audio", "trial_index": 217, "time_elapsed": 1296778, "internal_node_id": "0.0-154.0"}}, {"uniqueid": "MTK0041:3DQQ64TANHS0CBQHJQ7FIRUH77UWPA", "current_trial": 218, "dateTime": 1509049598595, "trialdata": {"rt": -1000, "stimulus": "/static/audio/wordpool/OYSTER.wav", "key_press": -1, "type": "PRES_AUD", "word": "oyster", "wordID": 994, "conditions": [24, 800, "a", 12000], "trial": 6, "serialpos": 5, "trial_type": "single-audio", "trial_index": 218, "time_elapsed": 1298763, "internal_node_id": "0.0-155.0"}}, {"uniqueid": "MTK0041:3DQQ64TANHS0CBQHJQ7FIRUH77UWPA", "current_trial": 219, "dateTime": 1509049600476, "trialdata": {"rt": -1000, "stimulus": "/static/audio/wordpool/CLAM.wav", "key_press": -1, "type": "PRES_AUD", "word": "clam", "wordID": 314, "conditions": [24, 800, "a", 12000], "trial": 6, "serialpos": 6, "trial_type": "single-audio", "trial_index": 219, "time_elapsed": 1300644, "internal_node_id": "0.0-156.0"}}, {"uniqueid": "MTK0041:3DQQ64TANHS0CBQHJQ7FIRUH77UWPA", "current_trial": 220, "dateTime": 1509049602430, "trialdata": {"rt": -1000, "stimulus": "/static/audio/wordpool/MAMMAL.wav", "key_press": -1, "type": "PRES_AUD", "word": "mammal", "wordID": 860, "conditions": [24, 800, "a", 12000], "trial": 6, "serialpos": 7, "trial_type": "single-audio", "trial_index": 220, "time_elapsed": 1302598, "internal_node_id": "0.0-157.0"}}, {"uniqueid": "MTK0041:3DQQ64TANHS0CBQHJQ7FIRUH77UWPA", "current_trial": 221, "dateTime": 1509049604397, "trialdata": {"rt": -1000, "stimulus": "/static/audio/wordpool/RUST.wav", "key_press": -1, "type": "PRES_AUD", "word": "rust", "wordID": 1218, "conditions": [24, 800, "a", 12000], "trial": 6, "serialpos": 8, "trial_type": "single-audio", "trial_index": 221, "time_elapsed": 1304565, "internal_node_id": "0.0-158.0"}}, {"uniqueid": "MTK0041:3DQQ64TANHS0CBQHJQ7FIRUH77UWPA", "current_trial": 222, "dateTime": 1509049606092, "trialdata": {"rt": -1000, "stimulus": "/static/audio/wordpool/PENGUIN.wav", "key_press": -1, "type": "PRES_AUD", "word": "penguin", "wordID": 1043, "conditions": [24, 800, "a", 12000], "trial": 6, "serialpos": 9, "trial_type": "single-audio", "trial_index": 222, "time_elapsed": 1306260, "internal_node_id": "0.0-159.0"}}, {"uniqueid": "MTK0041:3DQQ64TANHS0CBQHJQ7FIRUH77UWPA", "current_trial": 223, "dateTime": 1509049607779, "trialdata": {"rt": -1000, "stimulus": "/static/audio/wordpool/CREATURE.wav", "key_press": -1, "type": "PRES_AUD", "word": "creature", "wordID": 402, "conditions": [24, 800, "a", 12000], "trial": 6, "serialpos": 10, "trial_type": "single-audio", "trial_index": 223, "time_elapsed": 1307947, "internal_node_id": "0.0-160.0"}}, {"uniqueid": "MTK0041:3DQQ64TANHS0CBQHJQ7FIRUH77UWPA", "current_trial": 224, "dateTime": 1509049609721, "trialdata": {"rt": -1000, "stimulus": "/static/audio/wordpool/BLOCKADE.wav", "key_press": -1, "type": "PRES_AUD", "word": "blockade", "wordID": 136, "conditions": [24, 800, "a", 12000], "trial": 6, "serialpos": 11, "trial_type": "single-audio", "trial_index": 224, "time_elapsed": 1309889, "internal_node_id": "0.0-161.0"}}, {"uniqueid": "MTK0041:3DQQ64TANHS0CBQHJQ7FIRUH77UWPA", "current_trial": 225, "dateTime": 1509049611477, "trialdata": {"rt": -1000, "stimulus": "/static/audio/wordpool/CHAMPAGNE.wav", "key_press": -1, "type": "PRES_AUD", "word": "champagne", "wordID": 277, "conditions": [24, 800, "a", 12000], "trial": 6, "serialpos": 12, "trial_type": "single-audio", "trial_index": 225, "time_elapsed": 1311645, "internal_node_id": "0.0-162.0"}}, {"uniqueid": "MTK0041:3DQQ64TANHS0CBQHJQ7FIRUH77UWPA", "current_trial": 226, "dateTime": 1509049613384, "trialdata": {"rt": -1000, "stimulus": "/static/audio/wordpool/PEACH.wav", "key_press": -1, "type": "PRES_AUD", "word": "peach", "wordID": 1030, "conditions": [24, 800, "a", 12000], "trial": 6, "serialpos": 13, "trial_type": "single-audio", "trial_index": 226, "time_elapsed": 1313552, "internal_node_id": "0.0-163.0"}}, {"uniqueid": "MTK0041:3DQQ64TANHS0CBQHJQ7FIRUH77UWPA", "current_trial": 227, "dateTime": 1509049615042, "trialdata": {"rt": -1000, "stimulus": "/static/audio/wordpool/PARSLEY.wav", "key_press": -1, "type": "PRES_AUD", "word": "parsley", "wordID": 1015, "conditions": [24, 800, "a", 12000], "trial": 6, "serialpos": 14, "trial_type": "single-audio", "trial_index": 227, "time_elapsed": 1315210, "internal_node_id": "0.0-164.0"}}, {"uniqueid": "MTK0041:3DQQ64TANHS0CBQHJQ7FIRUH77UWPA", "current_trial": 228, "dateTime": 1509049616823, "trialdata": {"rt": -1000, "stimulus": "/static/audio/wordpool/SUNSET.wav", "key_press": -1, "type": "PRES_AUD", "word": "sunset", "wordID": 1407, "conditions": [24, 800, "a", 12000], "trial": 6, "serialpos": 15, "trial_type": "single-audio", "trial_index": 228, "time_elapsed": 1316991, "internal_node_id": "0.0-165.0"}}, {"uniqueid": "MTK0041:3DQQ64TANHS0CBQHJQ7FIRUH77UWPA", "current_trial": 229, "dateTime": 1509049618444, "trialdata": {"rt": -1000, "stimulus": "/static/audio/wordpool/FRECKLE.wav", "key_press": -1, "type": "PRES_AUD", "word": "freckle", "wordID": 601, "conditions": [24, 800, "a", 12000], "trial": 6, "serialpos": 16, "trial_type": "single-audio", "trial_index": 229, "time_elapsed": 1318612, "internal_node_id": "0.0-166.0"}}, {"uniqueid": "MTK0041:3DQQ64TANHS0CBQHJQ7FIRUH77UWPA", "current_trial": 230, "dateTime": 1509049620348, "trialdata": {"rt": -1000, "stimulus": "/static/audio/wordpool/PIMPLE.wav", "key_press": -1, "type": "PRES_AUD", "word": "pimple", "wordID": 1070, "conditions": [24, 800, "a", 12000], "trial": 6, "serialpos": 17, "trial_type": "single-audio", "trial_index": 230, "time_elapsed": 1320516, "internal_node_id": "0.0-167.0"}}, {"uniqueid": "MTK0041:3DQQ64TANHS0CBQHJQ7FIRUH77UWPA", "current_trial": 231, "dateTime": 1509049622104, "trialdata": {"rt": -1000, "stimulus": "/static/audio/wordpool/FIREMAN.wav", "key_press": -1, "type": "PRES_AUD", "word": "fireman", "wordID": 568, "conditions": [24, 800, "a", 12000], "trial": 6, "serialpos": 18, "trial_type": "single-audio", "trial_index": 231, "time_elapsed": 1322272, "internal_node_id": "0.0-168.0"}}, {"uniqueid": "MTK0041:3DQQ64TANHS0CBQHJQ7FIRUH77UWPA", "current_trial": 232, "dateTime": 1509049623846, "trialdata": {"rt": -1000, "stimulus": "/static/audio/wordpool/COOK.wav", "key_press": -1, "type": "PRES_AUD", "word": "cook", "wordID": 371, "conditions": [24, 800, "a", 12000], "trial": 6, "serialpos": 19, "trial_type": "single-audio", "trial_index": 232, "time_elapsed": 1324014, "internal_node_id": "0.0-169.0"}}, {"uniqueid": "MTK0041:3DQQ64TANHS0CBQHJQ7FIRUH77UWPA", "current_trial": 233, "dateTime": 1509049625530, "trialdata": {"rt": -1000, "stimulus": "/static/audio/wordpool/SEAL.wav", "key_press": -1, "type": "PRES_AUD", "word": "seal", "wordID": 1261, "conditions": [24, 800, "a", 12000], "trial": 6, "serialpos": 20, "trial_type": "single-audio", "trial_index": 233, "time_elapsed": 1325698, "internal_node_id": "0.0-170.0"}}, {"uniqueid": "MTK0041:3DQQ64TANHS0CBQHJQ7FIRUH77UWPA", "current_trial": 234, "dateTime": 1509049627454, "trialdata": {"rt": -1000, "stimulus": "/static/audio/wordpool/RADISH.wav", "key_press": -1, "type": "PRES_AUD", "word": "radish", "wordID": 1157, "conditions": [24, 800, "a", 12000], "trial": 6, "serialpos": 21, "trial_type": "single-audio", "trial_index": 234, "time_elapsed": 1327622, "internal_node_id": "0.0-171.0"}}, {"uniqueid": "MTK0041:3DQQ64TANHS0CBQHJQ7FIRUH77UWPA", "current_trial": 235, "dateTime": 1509049629190, "trialdata": {"rt": -1000, "stimulus": "/static/audio/wordpool/BIKE.wav", "key_press": -1, "type": "PRES_AUD", "word": "bike", "wordID": 124, "conditions": [24, 800, "a", 12000], "trial": 6, "serialpos": 22, "trial_type": "single-audio", "trial_index": 235, "time_elapsed": 1329358, "internal_node_id": "0.0-172.0"}}, {"uniqueid": "MTK0041:3DQQ64TANHS0CBQHJQ7FIRUH77UWPA", "current_trial": 236, "dateTime": 1509049631192, "trialdata": {"rt": -1000, "stimulus": "/static/audio/wordpool/COOKBOOK.wav", "key_press": -1, "type": "PRES_AUD", "word": "cookbook", "wordID": 372, "conditions": [24, 800, "a", 12000], "trial": 6, "serialpos": 23, "trial_type": "single-audio", "trial_index": 236, "time_elapsed": 1331360, "internal_node_id": "0.0-173.0"}}, {"uniqueid": "MTK0041:3DQQ64TANHS0CBQHJQ7FIRUH77UWPA", "current_trial": 237, "dateTime": 1509049632521, "trialdata": {"rt": -1, "stimulus": "", "key_press": -1, "type": "PRE_RECALL_DELAY", "trial_type": "single-stim", "trial_index": 237, "time_elapsed": 1332689, "internal_node_id": "0.0-174.0-0.0"}}, {"uniqueid": "MTK0041:3DQQ64TANHS0CBQHJQ7FIRUH77UWPA", "current_trial": 238, "dateTime": 1509049633024, "trialdata": {"rt": -1000, "stimulus": "/static/audio/400Hz.wav", "key_press": -1, "type": "PRE_RECALL_ALERT", "trial_type": "single-audio", "trial_index": 238, "time_elapsed": 1333192, "internal_node_id": "0.0-175.0"}}, {"uniqueid": "MTK0041:3DQQ64TANHS0CBQHJQ7FIRUH77UWPA", "current_trial": 239, "dateTime": 1509049693033, "trialdata": {"rt": [20379, 25564, 28149, 32809, 34615, 40027, 42965, 56997, 58567], "recwords": ["fireman", "freckle", "pimple", "cookbook", "seal", "sunset", "peach", "oyster", "clam"], "type": "FREE_RECALL", "conditions": [24, 800, "a", 12000], "trial": 6, "trial_type": "free-recall", "trial_index": 239, "time_elapsed": 1393200, "internal_node_id": "0.0-176.0-0.0"}}, {"uniqueid": "MTK0041:3DQQ64TANHS0CBQHJQ7FIRUH77UWPA", "current_trial": 240, "dateTime": 1509049697513, "trialdata": {"rt": 2478, "key_press": 13, "type": "INSTRUCTIONS", "trial_type": "text", "trial_index": 240, "time_elapsed": 1397681, "internal_node_id": "0.0-177.0"}}, {"uniqueid": "MTK0041:3DQQ64TANHS0CBQHJQ7FIRUH77UWPA", "current_trial": 241, "dateTime": 1509049711523, "trialdata": {"rt": [1933, 4409, 6664, 8890, 11189], "responses": ["9", "18", "14", "10", "15"], "num1": [4, 1, 4, 1, 2, 3], "num2": [4, 9, 9, 4, 7, 3], "num3": [1, 8, 1, 5, 6, 5], "type": "DISTRACTOR", "conditions": [24, 800, "v", 12000], "trial": 7, "trial_type": "math-distractor", "trial_index": 241, "time_elapsed": 1411691, "internal_node_id": "0.0-178.0"}}, {"uniqueid": "MTK0041:3DQQ64TANHS0CBQHJQ7FIRUH77UWPA", "current_trial": 242, "dateTime": 1509049714528, "trialdata": {"rt": -1, "stimulus": "<p id=\"stim\">10</p>", "key_press": -1, "trial_type": "single-stim", "trial_index": 242, "time_elapsed": 1414696, "internal_node_id": "0.0-179.0-0.0"}}, {"uniqueid": "MTK0041:3DQQ64TANHS0CBQHJQ7FIRUH77UWPA", "current_trial": 243, "dateTime": 1509049715532, "trialdata": {"rt": -1, "stimulus": "<p id=\"stim\">9</p>", "key_press": -1, "trial_type": "single-stim", "trial_index": 243, "time_elapsed": 1415699, "internal_node_id": "0.0-179.0-1.0"}}, {"uniqueid": "MTK0041:3DQQ64TANHS0CBQHJQ7FIRUH77UWPA", "current_trial": 244, "dateTime": 1509049716535, "trialdata": {"rt": -1, "stimulus": "<p id=\"stim\">8</p>", "key_press": -1, "trial_type": "single-stim", "trial_index": 244, "time_elapsed": 1416703, "internal_node_id": "0.0-179.0-2.0"}}, {"uniqueid": "MTK0041:3DQQ64TANHS0CBQHJQ7FIRUH77UWPA", "current_trial": 245, "dateTime": 1509049717539, "trialdata": {"rt": -1, "stimulus": "<p id=\"stim\">7</p>", "key_press": -1, "trial_type": "single-stim", "trial_index": 245, "time_elapsed": 1417707, "internal_node_id": "0.0-179.0-3.0"}}, {"uniqueid": "MTK0041:3DQQ64TANHS0CBQHJQ7FIRUH77UWPA", "current_trial": 246, "dateTime": 1509049718543, "trialdata": {"rt": -1, "stimulus": "<p id=\"stim\">6</p>", "key_press": -1, "trial_type": "single-stim", "trial_index": 246, "time_elapsed": 1418711, "internal_node_id": "0.0-179.0-4.0"}}, {"uniqueid": "MTK0041:3DQQ64TANHS0CBQHJQ7FIRUH77UWPA", "current_trial": 247, "dateTime": 1509049719546, "trialdata": {"rt": -1, "stimulus": "<p id=\"stim\">5</p>", "key_press": -1, "trial_type": "single-stim", "trial_index": 247, "time_elapsed": 1419714, "internal_node_id": "0.0-179.0-5.0"}}, {"uniqueid": "MTK0041:3DQQ64TANHS0CBQHJQ7FIRUH77UWPA", "current_trial": 248, "dateTime": 1509049720551, "trialdata": {"rt": -1, "stimulus": "<p id=\"stim\">4</p>", "key_press": -1, "trial_type": "single-stim", "trial_index": 248, "time_elapsed": 1420718, "internal_node_id": "0.0-179.0-6.0"}}, {"uniqueid": "MTK0041:3DQQ64TANHS0CBQHJQ7FIRUH77UWPA", "current_trial": 249, "dateTime": 1509049721558, "trialdata": {"rt": -1, "stimulus": "<p id=\"stim\">3</p>", "key_press": -1, "trial_type": "single-stim", "trial_index": 249, "time_elapsed": 1421721, "internal_node_id": "0.0-179.0-7.0"}}, {"uniqueid": "MTK0041:3DQQ64TANHS0CBQHJQ7FIRUH77UWPA", "current_trial": 250, "dateTime": 1509049722562, "trialdata": {"rt": -1, "stimulus": "<p id=\"stim\">2</p>", "key_press": -1, "trial_type": "single-stim", "trial_index": 250, "time_elapsed": 1422729, "internal_node_id": "0.0-179.0-8.0"}}, {"uniqueid": "MTK0041:3DQQ64TANHS0CBQHJQ7FIRUH77UWPA", "current_trial": 251, "dateTime": 1509049723566, "trialdata": {"rt": -1, "stimulus": "<p id=\"stim\">1</p>", "key_press": -1, "trial_type": "single-stim", "trial_index": 251, "time_elapsed": 1423734, "internal_node_id": "0.0-179.0-9.0"}}, {"uniqueid": "MTK0041:3DQQ64TANHS0CBQHJQ7FIRUH77UWPA", "current_trial": 252, "dateTime": 1509049725070, "trialdata": {"rt": -1, "stimulus": "<p id=\"stim\">+</p>", "key_press": -1, "type": "FIXATION", "trial_type": "single-stim", "trial_index": 252, "time_elapsed": 1425237, "internal_node_id": "0.0-180.0-0.0"}}, {"uniqueid": "MTK0041:3DQQ64TANHS0CBQHJQ7FIRUH77UWPA", "current_trial": 253, "dateTime": 1509049725874, "trialdata": {"rt": -1, "stimulus": "<p id=\"stim\">POPCORN</p>", "key_press": -1, "type": "PRES_VIS", "word": "popcorn", "wordID": 1103, "conditions": [24, 800, "v", 12000], "trial": 7, "serialpos": 0, "trial_type": "single-stim", "trial_index": 253, "time_elapsed": 1426041, "internal_node_id": "0.0-181.0"}}, {"uniqueid": "MTK0041:3DQQ64TANHS0CBQHJQ7FIRUH77UWPA", "current_trial": 254, "dateTime": 1509049727608, "trialdata": {"rt": -1, "stimulus": "<p id=\"stim\">FLASK</p>", "key_press": -1, "type": "PRES_VIS", "word": "flask", "wordID": 575, "conditions": [24, 800, "v", 12000], "trial": 7, "serialpos": 1, "trial_type": "single-stim", "trial_index": 254, "time_elapsed": 1427775, "internal_node_id": "0.0-182.0"}}, {"uniqueid": "MTK0041:3DQQ64TANHS0CBQHJQ7FIRUH77UWPA", "current_trial": 255, "dateTime": 1509049729293, "trialdata": {"rt": -1, "stimulus": "<p id=\"stim\">AWARD</p>", "key_press": -1, "type": "PRES_VIS", "word": "award", "wordID": 62, "conditions": [24, 800, "v", 12000], "trial": 7, "serialpos": 2, "trial_type": "single-stim", "trial_index": 255, "time_elapsed": 1429460, "internal_node_id": "0.0-183.0"}}, {"uniqueid": "MTK0041:3DQQ64TANHS0CBQHJQ7FIRUH77UWPA", "current_trial": 256, "dateTime": 1509049731122, "trialdata": {"rt": -1, "stimulus": "<p id=\"stim\">BANQUET</p>", "key_press": -1, "type": "PRES_VIS", "word": "banquet", "wordID": 85, "conditions": [24, 800, "v", 12000], "trial": 7, "serialpos": 3, "trial_type": "single-stim", "trial_index": 256, "time_elapsed": 1431289, "internal_node_id": "0.0-184.0"}}, {"uniqueid": "MTK0041:3DQQ64TANHS0CBQHJQ7FIRUH77UWPA", "current_trial": 257, "dateTime": 1509049733050, "trialdata": {"rt": -1, "stimulus": "<p id=\"stim\">JUNGLE</p>", "key_press": -1, "type": "PRES_VIS", "word": "jungle", "wordID": 763, "conditions": [24, 800, "v", 12000], "trial": 7, "serialpos": 4, "trial_type": "single-stim", "trial_index": 257, "time_elapsed": 1433217, "internal_node_id": "0.0-185.0"}}, {"uniqueid": "MTK0041:3DQQ64TANHS0CBQHJQ7FIRUH77UWPA", "current_trial": 258, "dateTime": 1509049734797, "trialdata": {"rt": -1, "stimulus": "<p id=\"stim\">BEAKER</p>", "key_press": -1, "type": "PRES_VIS", "word": "beaker", "wordID": 103, "conditions": [24, 800, "v", 12000], "trial": 7, "serialpos": 5, "trial_type": "single-stim", "trial_index": 258, "time_elapsed": 1434964, "internal_node_id": "0.0-186.0"}}, {"uniqueid": "MTK0041:3DQQ64TANHS0CBQHJQ7FIRUH77UWPA", "current_trial": 259, "dateTime": 1509049736412, "trialdata": {"rt": -1, "stimulus": "<p id=\"stim\">PRINCESS</p>", "key_press": -1, "type": "PRES_VIS", "word": "princess", "wordID": 1124, "conditions": [24, 800, "v", 12000], "trial": 7, "serialpos": 6, "trial_type": "single-stim", "trial_index": 259, "time_elapsed": 1436579, "internal_node_id": "0.0-187.0"}}, {"uniqueid": "MTK0041:3DQQ64TANHS0CBQHJQ7FIRUH77UWPA", "current_trial": 260, "dateTime": 1509049738027, "trialdata": {"rt": -1, "stimulus": "<p id=\"stim\">TEMPLE</p>", "key_press": -1, "type": "PRES_VIS", "word": "temple", "wordID": 1447, "conditions": [24, 800, "v", 12000], "trial": 7, "serialpos": 7, "trial_type": "single-stim", "trial_index": 260, "time_elapsed": 1438195, "internal_node_id": "0.0-188.0"}}, {"uniqueid": "MTK0041:3DQQ64TANHS0CBQHJQ7FIRUH77UWPA", "current_trial": 261, "dateTime": 1509049739675, "trialdata": {"rt": -1, "stimulus": "<p id=\"stim\">MUFFIN</p>", "key_press": -1, "type": "PRES_VIS", "word": "muffin", "wordID": 928, "conditions": [24, 800, "v", 12000], "trial": 7, "serialpos": 8, "trial_type": "single-stim", "trial_index": 261, "time_elapsed": 1439842, "internal_node_id": "0.0-189.0"}}, {"uniqueid": "MTK0041:3DQQ64TANHS0CBQHJQ7FIRUH77UWPA", "current_trial": 262, "dateTime": 1509049741540, "trialdata": {"rt": -1, "stimulus": "<p id=\"stim\">POSSUM</p>", "key_press": -1, "type": "PRES_VIS", "word": "possum", "wordID": 1111, "conditions": [24, 800, "v", 12000], "trial": 7, "serialpos": 9, "trial_type": "single-stim", "trial_index": 262, "time_elapsed": 1441707, "internal_node_id": "0.0-190.0"}}, {"uniqueid": "MTK0041:3DQQ64TANHS0CBQHJQ7FIRUH77UWPA", "current_trial": 263, "dateTime": 1509049743205, "trialdata": {"rt": -1, "stimulus": "<p id=\"stim\">PORK</p>", "key_press": -1, "type": "PRES_VIS", "word": "pork", "wordID": 1107, "conditions": [24, 800, "v", 12000], "trial": 7, "serialpos": 10, "trial_type": "single-stim", "trial_index": 263, "time_elapsed": 1443373, "internal_node_id": "0.0-191.0"}}, {"uniqueid": "MTK0041:3DQQ64TANHS0CBQHJQ7FIRUH77UWPA", "current_trial": 264, "dateTime": 1509049744978, "trialdata": {"rt": -1, "stimulus": "<p id=\"stim\">SEAFOOD</p>", "key_press": -1, "type": "PRES_VIS", "word": "seafood", "wordID": 1259, "conditions": [24, 800, "v", 12000], "trial": 7, "serialpos": 11, "trial_type": "single-stim", "trial_index": 264, "time_elapsed": 1445145, "internal_node_id": "0.0-192.0"}}, {"uniqueid": "MTK0041:3DQQ64TANHS0CBQHJQ7FIRUH77UWPA", "current_trial": 265, "dateTime": 1509049746834, "trialdata": {"rt": -1, "stimulus": "<p id=\"stim\">FLOWER</p>", "key_press": -1, "type": "PRES_VIS", "word": "flower", "wordID": 583, "conditions": [24, 800, "v", 12000], "trial": 7, "serialpos": 12, "trial_type": "single-stim", "trial_index": 265, "time_elapsed": 1447001, "internal_node_id": "0.0-193.0"}}, {"uniqueid": "MTK0041:3DQQ64TANHS0CBQHJQ7FIRUH77UWPA", "current_trial": 266, "dateTime": 1509049748663, "trialdata": {"rt": -1, "stimulus": "<p id=\"stim\">BLOUSE</p>", "key_press": -1, "type": "PRES_VIS", "word": "blouse", "wordID": 138, "conditions": [24, 800, "v", 12000], "trial": 7, "serialpos": 13, "trial_type": "single-stim", "trial_index": 266, "time_elapsed": 1448831, "internal_node_id": "0.0-194.0"}}, {"uniqueid": "MTK0041:3DQQ64TANHS0CBQHJQ7FIRUH77UWPA", "current_trial": 267, "dateTime": 1509049750598, "trialdata": {"rt": -1, "stimulus": "<p id=\"stim\">SCARF</p>", "key_press": -1, "type": "PRES_VIS", "word": "scarf", "wordID": 1245, "conditions": [24, 800, "v", 12000], "trial": 7, "serialpos": 14, "trial_type": "single-stim", "trial_index": 267, "time_elapsed": 1450765, "internal_node_id": "0.0-195.0"}}, {"uniqueid": "MTK0041:3DQQ64TANHS0CBQHJQ7FIRUH77UWPA", "current_trial": 268, "dateTime": 1509049752286, "trialdata": {"rt": -1, "stimulus": "<p id=\"stim\">CANYON</p>", "key_press": -1, "type": "PRES_VIS", "word": "canyon", "wordID": 234, "conditions": [24, 800, "v", 12000], "trial": 7, "serialpos": 15, "trial_type": "single-stim", "trial_index": 268, "time_elapsed": 1452454, "internal_node_id": "0.0-196.0"}}, {"uniqueid": "MTK0041:3DQQ64TANHS0CBQHJQ7FIRUH77UWPA", "current_trial": 269, "dateTime": 1509049753922, "trialdata": {"rt": -1, "stimulus": "<p id=\"stim\">COMET</p>", "key_press": -1, "type": "PRES_VIS", "word": "comet", "wordID": 352, "conditions": [24, 800, "v", 12000], "trial": 7, "serialpos": 16, "trial_type": "single-stim", "trial_index": 269, "time_elapsed": 1454089, "internal_node_id": "0.0-197.0"}}, {"uniqueid": "MTK0041:3DQQ64TANHS0CBQHJQ7FIRUH77UWPA", "current_trial": 270, "dateTime": 1509049755584, "trialdata": {"rt": -1, "stimulus": "<p id=\"stim\">SWAMP</p>", "key_press": -1, "type": "PRES_VIS", "word": "swamp", "wordID": 1415, "conditions": [24, 800, "v", 12000], "trial": 7, "serialpos": 17, "trial_type": "single-stim", "trial_index": 270, "time_elapsed": 1455751, "internal_node_id": "0.0-198.0"}}, {"uniqueid": "MTK0041:3DQQ64TANHS0CBQHJQ7FIRUH77UWPA", "current_trial": 271, "dateTime": 1509049757285, "trialdata": {"rt": -1, "stimulus": "<p id=\"stim\">SCARECROW</p>", "key_press": -1, "type": "PRES_VIS", "word": "scarecrow", "wordID": 1244, "conditions": [24, 800, "v", 12000], "trial": 7, "serialpo