{"condition": 0, "counterbalance": 1868, "assignmentId": "3OLF68YTNA8RELYK4IFIO8JMHKHFA0", "workerId": "MTK1120", "hitId": "3APP19WN71LUIZKIZNZM14LS65B6G7", "currenttrial": 626, "bonus": 0, "data": [{"uniqueid": "MTK1120:3OLF68YTNA8RELYK4IFIO8JMHKHFA0", "current_trial": 0, "dateTime": 1513119849022, "trialdata": {"rt": 3664, "key_press": 32, "type": "INSTRUCTIONS", "trial_type": "text", "trial_index": 0, "time_elapsed": 3669, "internal_node_id": "0.0-0.0"}}, {"uniqueid": "MTK1120:3OLF68YTNA8RELYK4IFIO8JMHKHFA0", "current_trial": 1, "dateTime": 1513119853177, "trialdata": {"rt": 4152, "key_press": 175, "type": "INSTRUCTIONS", "trial_type": "text", "trial_index": 1, "time_elapsed": 7826, "internal_node_id": "0.0-1.0"}}, {"uniqueid": "MTK1120:3OLF68YTNA8RELYK4IFIO8JMHKHFA0", "current_trial": 2, "dateTime": 1513119863948, "trialdata": {"rt": [10747], "responses": ["ocean"], "type": "AUDIO_TEST", "trial_type": "audio-test", "trial_index": 2, "time_elapsed": 18596, "internal_node_id": "0.0-2.0"}}, {"uniqueid": "MTK1120:3OLF68YTNA8RELYK4IFIO8JMHKHFA0", "current_trial": 3, "dateTime": 1513119876742, "trialdata": {"rt": [12791], "responses": ["crystal"], "type": "AUDIO_TEST", "trial_type": "audio-test", "trial_index": 3, "time_elapsed": 31391, "internal_node_id": "0.0-3.0"}}, {"uniqueid": "MTK1120:3OLF68YTNA8RELYK4IFIO8JMHKHFA0", "current_trial": 4, "dateTime": 1513119885236, "trialdata": {"rt": [8491], "responses": ["spice"], "type": "AUDIO_TEST", "trial_type": "audio-test", "trial_index": 4, "time_elapsed": 39885, "internal_node_id": "0.0-4.0"}}, {"uniqueid": "MTK1120:3OLF68YTNA8RELYK4IFIO8JMHKHFA0", "current_trial": 5, "dateTime": 1513119904384, "trialdata": {"rt": 18390, "responses": "{\"Q0\":\"130\",\"Q1\":\"1030\",\"Q2\":\"5\"}", "type": "SLEEP_SURVEY", "trial_type": "survey-text", "trial_index": 5, "time_elapsed": 59033, "internal_node_id": "0.0-5.0"}}, {"uniqueid": "MTK1120:3OLF68YTNA8RELYK4IFIO8JMHKHFA0", "current_trial": 6, "dateTime": 1513119965895, "trialdata": {"rt": 60507, "key_press": 32, "type": "INSTRUCTIONS", "trial_type": "text", "trial_index": 6, "time_elapsed": 120544, "internal_node_id": "0.0-6.0"}}, {"uniqueid": "MTK1120:3OLF68YTNA8RELYK4IFIO8JMHKHFA0", "current_trial": 7, "dateTime": 1513119990778, "trialdata": {"rt": 24379, "key_press": 32, "type": "INSTRUCTIONS", "trial_type": "text", "trial_index": 7, "time_elapsed": 145427, "internal_node_id": "0.0-7.0"}}, {"uniqueid": "MTK1120:3OLF68YTNA8RELYK4IFIO8JMHKHFA0", "current_trial": 8, "dateTime": 1513120007941, "trialdata": {"rt": 16661, "key_press": 32, "type": "INSTRUCTIONS", "trial_type": "text", "trial_index": 8, "time_elapsed": 162590, "internal_node_id": "0.0-8.0"}}, {"uniqueid": "MTK1120:3OLF68YTNA8RELYK4IFIO8JMHKHFA0", "current_trial": 9, "dateTime": 1513120026965, "trialdata": {"rt": [2984, 5433, 7632, 10318, 12682, 15099], "responses": ["11", "9", "13", "15", "20", "18"], "num1": [2, 1, 8, 3, 2, 1, 7], "num2": [7, 2, 2, 9, 9, 8, 1], "num3": [2, 6, 3, 3, 9, 9, 6], "type": "DISTRACTOR", "conditions": [18, 1200, "v", 18000], "trial": 0, "trial_type": "math-distractor", "trial_index": 9, "time_elapsed": 181613, "internal_node_id": "0.0-9.0"}}, {"uniqueid": "MTK1120:3OLF68YTNA8RELYK4IFIO8JMHKHFA0", "current_trial": 10, "dateTime": 1513120029971, "trialdata": {"rt": -1, "stimulus": "<p id=\"stim\">10</p>", "key_press": -1, "trial_type": "single-stim", "trial_index": 10, "time_elapsed": 184620, "internal_node_id": "0.0-10.0-0.0"}}, {"uniqueid": "MTK1120:3OLF68YTNA8RELYK4IFIO8JMHKHFA0", "current_trial": 11, "dateTime": 1513120030974, "trialdata": {"rt": -1, "stimulus": "<p id=\"stim\">9</p>", "key_press": -1, "trial_type": "single-stim", "trial_index": 11, "time_elapsed": 185622, "internal_node_id": "0.0-10.0-1.0"}}, {"uniqueid": "MTK1120:3OLF68YTNA8RELYK4IFIO8JMHKHFA0", "current_trial": 12, "dateTime": 1513120031977, "trialdata": {"rt": -1, "stimulus": "<p id=\"stim\">8</p>", "key_press": -1, "trial_type": "single-stim", "trial_index": 12, "time_elapsed": 186626, "internal_node_id": "0.0-10.0-2.0"}}, {"uniqueid": "MTK1120:3OLF68YTNA8RELYK4IFIO8JMHKHFA0", "current_trial": 13, "dateTime": 1513120032980, "trialdata": {"rt": -1, "stimulus": "<p id=\"stim\">7</p>", "key_press": -1, "trial_type": "single-stim", "trial_index": 13, "time_elapsed": 187629, "internal_node_id": "0.0-10.0-3.0"}}, {"uniqueid": "MTK1120:3OLF68YTNA8RELYK4IFIO8JMHKHFA0", "current_trial": 14, "dateTime": 1513120033982, "trialdata": {"rt": -1, "stimulus": "<p id=\"stim\">6</p>", "key_press": -1, "trial_type": "single-stim", "trial_index": 14, "time_elapsed": 188631, "internal_node_id": "0.0-10.0-4.0"}}, {"uniqueid": "MTK1120:3OLF68YTNA8RELYK4IFIO8JMHKHFA0", "current_trial": 15, "dateTime": 1513120034987, "trialdata": {"rt": -1, "stimulus": "<p id=\"stim\">5</p>", "key_press": -1, "trial_type": "single-stim", "trial_index": 15, "time_elapsed": 189636, "internal_node_id": "0.0-10.0-5.0"}}, {"uniqueid": "MTK1120:3OLF68YTNA8RELYK4IFIO8JMHKHFA0", "current_trial": 16, "dateTime": 1513120035989, "trialdata": {"rt": -1, "stimulus": "<p id=\"stim\">4</p>", "key_press": -1, "trial_type": "single-stim", "trial_index": 16, "time_elapsed": 190638, "internal_node_id": "0.0-10.0-6.0"}}, {"uniqueid": "MTK1120:3OLF68YTNA8RELYK4IFIO8JMHKHFA0", "current_trial": 17, "dateTime": 1513120036992, "trialdata": {"rt": -1, "stimulus": "<p id=\"stim\">3</p>", "key_press": -1, "trial_type": "single-stim", "trial_index": 17, "time_elapsed": 191641, "internal_node_id": "0.0-10.0-7.0"}}, {"uniqueid": "MTK1120:3OLF68YTNA8RELYK4IFIO8JMHKHFA0", "current_trial": 18, "dateTime": 1513120037995, "trialdata": {"rt": -1, "stimulus": "<p id=\"stim\">2</p>", "key_press": -1, "trial_type": "single-stim", "trial_index": 18, "time_elapsed": 192644, "internal_node_id": "0.0-10.0-8.0"}}, {"uniqueid": "MTK1120:3OLF68YTNA8RELYK4IFIO8JMHKHFA0", "current_trial": 19, "dateTime": 1513120038998, "trialdata": {"rt": -1, "stimulus": "<p id=\"stim\">1</p>", "key_press": -1, "trial_type": "single-stim", "trial_index": 19, "time_elapsed": 193647, "internal_node_id": "0.0-10.0-9.0"}}, {"uniqueid": "MTK1120:3OLF68YTNA8RELYK4IFIO8JMHKHFA0", "current_trial": 20, "dateTime": 1513120040500, "trialdata": {"rt": -1, "stimulus": "<p id=\"stim\">+</p>", "key_press": -1, "type": "FIXATION", "trial_type": "single-stim", "trial_index": 20, "time_elapsed": 195148, "internal_node_id": "0.0-11.0-0.0"}}, {"uniqueid": "MTK1120:3OLF68YTNA8RELYK4IFIO8JMHKHFA0", "current_trial": 21, "dateTime": 1513120041704, "trialdata": {"rt": -1, "stimulus": "<p id=\"stim\">JUDGE</p>", "key_press": -1, "type": "PRES_VIS", "word": "judge", "wordID": 760, "conditions": [18, 1200, "v", 18000], "trial": 0, "serialpos": 0, "trial_type": "single-stim", "trial_index": 21, "time_elapsed": 196353, "internal_node_id": "0.0-12.0"}}, {"uniqueid": "MTK1120:3OLF68YTNA8RELYK4IFIO8JMHKHFA0", "current_trial": 22, "dateTime": 1513120043895, "trialdata": {"rt": -1, "stimulus": "<p id=\"stim\">KEEPER</p>", "key_press": -1, "type": "PRES_VIS", "word": "keeper", "wordID": 768, "conditions": [18, 1200, "v", 18000], "trial": 0, "serialpos": 1, "trial_type": "single-stim", "trial_index": 22, "time_elapsed": 198543, "internal_node_id": "0.0-13.0"}}, {"uniqueid": "MTK1120:3OLF68YTNA8RELYK4IFIO8JMHKHFA0", "current_trial": 23, "dateTime": 1513120046111, "trialdata": {"rt": -1, "stimulus": "<p id=\"stim\">SWORD</p>", "key_press": -1, "type": "PRES_VIS", "word": "sword", "wordID": 1422, "conditions": [18, 1200, "v", 18000], "trial": 0, "serialpos": 2, "trial_type": "single-stim", "trial_index": 23, "time_elapsed": 200760, "internal_node_id": "0.0-14.0"}}, {"uniqueid": "MTK1120:3OLF68YTNA8RELYK4IFIO8JMHKHFA0", "current_trial": 24, "dateTime": 1513120048434, "trialdata": {"rt": -1, "stimulus": "<p id=\"stim\">HEART</p>", "key_press": -1, "type": "PRES_VIS", "word": "heart", "wordID": 696, "conditions": [18, 1200, "v", 18000], "trial": 0, "serialpos": 3, "trial_type": "single-stim", "trial_index": 24, "time_elapsed": 203083, "internal_node_id": "0.0-15.0"}}, {"uniqueid": "MTK1120:3OLF68YTNA8RELYK4IFIO8JMHKHFA0", "current_trial": 25, "dateTime": 1513120050485, "trialdata": {"rt": -1, "stimulus": "<p id=\"stim\">SPIDER</p>", "key_press": -1, "type": "PRES_VIS", "word": "spider", "wordID": 1350, "conditions": [18, 1200, "v", 18000], "trial": 0, "serialpos": 4, "trial_type": "single-stim", "trial_index": 25, "time_elapsed": 205134, "internal_node_id": "0.0-16.0"}}, {"uniqueid": "MTK1120:3OLF68YTNA8RELYK4IFIO8JMHKHFA0", "current_trial": 26, "dateTime": 1513120052731, "trialdata": {"rt": -1, "stimulus": "<p id=\"stim\">BACKBONE</p>", "key_press": -1, "type": "PRES_VIS", "word": "backbone", "wordID": 65, "conditions": [18, 1200, "v", 18000], "trial": 0, "serialpos": 5, "trial_type": "single-stim", "trial_index": 26, "time_elapsed": 207380, "internal_node_id": "0.0-17.0"}}, {"uniqueid": "MTK1120:3OLF68YTNA8RELYK4IFIO8JMHKHFA0", "current_trial": 27, "dateTime": 1513120054836, "trialdata": {"rt": -1, "stimulus": "<p id=\"stim\">FRECKLE</p>", "key_press": -1, "type": "PRES_VIS", "word": "freckle", "wordID": 601, "conditions": [18, 1200, "v", 18000], "trial": 0, "serialpos": 6, "trial_type": "single-stim", "trial_index": 27, "time_elapsed": 209485, "internal_node_id": "0.0-18.0"}}, {"uniqueid": "MTK1120:3OLF68YTNA8RELYK4IFIO8JMHKHFA0", "current_trial": 28, "dateTime": 1513120056868, "trialdata": {"rt": -1, "stimulus": "<p id=\"stim\">RUST</p>", "key_press": -1, "type": "PRES_VIS", "word": "rust", "wordID": 1218, "conditions": [18, 1200, "v", 18000], "trial": 0, "serialpos": 7, "trial_type": "single-stim", "trial_index": 28, "time_elapsed": 211517, "internal_node_id": "0.0-19.0"}}, {"uniqueid": "MTK1120:3OLF68YTNA8RELYK4IFIO8JMHKHFA0", "current_trial": 29, "dateTime": 1513120059211, "trialdata": {"rt": -1, "stimulus": "<p id=\"stim\">SCARF</p>", "key_press": -1, "type": "PRES_VIS", "word": "scarf", "wordID": 1245, "conditions": [18, 1200, "v", 18000], "trial": 0, "serialpos": 8, "trial_type": "single-stim", "trial_index": 29, "time_elapsed": 213859, "internal_node_id": "0.0-20.0"}}, {"uniqueid": "MTK1120:3OLF68YTNA8RELYK4IFIO8JMHKHFA0", "current_trial": 30, "dateTime": 1513120061563, "trialdata": {"rt": -1, "stimulus": "<p id=\"stim\">CRICKET</p>", "key_press": -1, "type": "PRES_VIS", "word": "cricket", "wordID": 407, "conditions": [18, 1200, "v", 18000], "trial": 0, "serialpos": 9, "trial_type": "single-stim", "trial_index": 30, "time_elapsed": 216212, "internal_node_id": "0.0-21.0"}}, {"uniqueid": "MTK1120:3OLF68YTNA8RELYK4IFIO8JMHKHFA0", "current_trial": 31, "dateTime": 1513120063878, "trialdata": {"rt": -1, "stimulus": "<p id=\"stim\">POISON</p>", "key_press": -1, "type": "PRES_VIS", "word": "poison", "wordID": 1095, "conditions": [18, 1200, "v", 18000], "trial": 0, "serialpos": 10, "trial_type": "single-stim", "trial_index": 31, "time_elapsed": 218527, "internal_node_id": "0.0-22.0"}}, {"uniqueid": "MTK1120:3OLF68YTNA8RELYK4IFIO8JMHKHFA0", "current_trial": 32, "dateTime": 1513120066001, "trialdata": {"rt": -1, "stimulus": "<p id=\"stim\">MISSILE</p>", "key_press": -1, "type": "PRES_VIS", "word": "missile", "wordID": 899, "conditions": [18, 1200, "v", 18000], "trial": 0, "serialpos": 11, "trial_type": "single-stim", "trial_index": 32, "time_elapsed": 220650, "internal_node_id": "0.0-23.0"}}, {"uniqueid": "MTK1120:3OLF68YTNA8RELYK4IFIO8JMHKHFA0", "current_trial": 33, "dateTime": 1513120068101, "trialdata": {"rt": -1, "stimulus": "<p id=\"stim\">DUSTPAN</p>", "key_press": -1, "type": "PRES_VIS", "word": "dustpan", "wordID": 508, "conditions": [18, 1200, "v", 18000], "trial": 0, "serialpos": 12, "trial_type": "single-stim", "trial_index": 33, "time_elapsed": 222750, "internal_node_id": "0.0-24.0"}}, {"uniqueid": "MTK1120:3OLF68YTNA8RELYK4IFIO8JMHKHFA0", "current_trial": 34, "dateTime": 1513120070125, "trialdata": {"rt": -1, "stimulus": "<p id=\"stim\">MARKET</p>", "key_press": -1, "type": "PRES_VIS", "word": "market", "wordID": 870, "conditions": [18, 1200, "v", 18000], "trial": 0, "serialpos": 13, "trial_type": "single-stim", "trial_index": 34, "time_elapsed": 224773, "internal_node_id": "0.0-25.0"}}, {"uniqueid": "MTK1120:3OLF68YTNA8RELYK4IFIO8JMHKHFA0", "current_trial": 35, "dateTime": 1513120072392, "trialdata": {"rt": -1, "stimulus": "<p id=\"stim\">FLOWER</p>", "key_press": -1, "type": "PRES_VIS", "word": "flower", "wordID": 583, "conditions": [18, 1200, "v", 18000], "trial": 0, "serialpos": 14, "trial_type": "single-stim", "trial_index": 35, "time_elapsed": 227041, "internal_node_id": "0.0-26.0"}}, {"uniqueid": "MTK1120:3OLF68YTNA8RELYK4IFIO8JMHKHFA0", "current_trial": 36, "dateTime": 1513120074475, "trialdata": {"rt": -1, "stimulus": "<p id=\"stim\">CLOTHES</p>", "key_press": -1, "type": "PRES_VIS", "word": "clothes", "wordID": 326, "conditions": [18, 1200, "v", 18000], "trial": 0, "serialpos": 15, "trial_type": "single-stim", "trial_index": 36, "time_elapsed": 229124, "internal_node_id": "0.0-27.0"}}, {"uniqueid": "MTK1120:3OLF68YTNA8RELYK4IFIO8JMHKHFA0", "current_trial": 37, "dateTime": 1513120076517, "trialdata": {"rt": -1, "stimulus": "<p id=\"stim\">CHAUFFEUR</p>", "key_press": -1, "type": "PRES_VIS", "word": "chauffeur", "wordID": 282, "conditions": [18, 1200, "v", 18000], "trial": 0, "serialpos": 16, "trial_type": "single-stim", "trial_index": 37, "time_elapsed": 231166, "internal_node_id": "0.0-28.0"}}, {"uniqueid": "MTK1120:3OLF68YTNA8RELYK4IFIO8JMHKHFA0", "current_trial": 38, "dateTime": 1513120078659, "trialdata": {"rt": -1, "stimulus": "<p id=\"stim\">FLAG</p>", "key_press": -1, "type": "PRES_VIS", "word": "flag", "wordID": 572, "conditions": [18, 1200, "v", 18000], "trial": 0, "serialpos": 17, "trial_type": "single-stim", "trial_index": 38, "time_elapsed": 233308, "internal_node_id": "0.0-29.0"}}, {"uniqueid": "MTK1120:3OLF68YTNA8RELYK4IFIO8JMHKHFA0", "current_trial": 39, "dateTime": 1513120080860, "trialdata": {"rt": -1, "stimulus": "", "key_press": -1, "type": "PRE_RECALL_DELAY", "trial_type": "single-stim", "trial_index": 39, "time_elapsed": 235508, "internal_node_id": "0.0-30.0-0.0"}}, {"uniqueid": "MTK1120:3OLF68YTNA8RELYK4IFIO8JMHKHFA0", "current_trial": 40, "dateTime": 1513120081364, "trialdata": {"rt": -1000, "stimulus": "/static/audio/400Hz.wav", "key_press": -1, "type": "PRE_RECALL_ALERT", "trial_type": "single-audio", "trial_index": 40, "time_elapsed": 236012, "internal_node_id": "0.0-31.0"}}, {"uniqueid": "MTK1120:3OLF68YTNA8RELYK4IFIO8JMHKHFA0", "current_trial": 41, "dateTime": 1513120141376, "trialdata": {"rt": [8384, 13494, 16642, 19635, 23093, 25672, 28358, 31676, 34495, 38007, 41993, 44265, 47611, 50275, 52574], "recwords": ["flag", "clothes", "flower", "market", "dustpan", "missle", "poison", "cricket", "scarf", "freckle", "spider", "heart", "sword", "keeper", "judge"], "type": "FREE_RECALL", "conditions": [18, 1200, "v", 18000], "trial": 0, "trial_type": "free-recall", "trial_index": 41, "time_elapsed": 296021, "internal_node_id": "0.0-32.0-0.0"}}, {"uniqueid": "MTK1120:3OLF68YTNA8RELYK4IFIO8JMHKHFA0", "current_trial": 42, "dateTime": 1513120148382, "trialdata": {"rt": 5004, "key_press": 32, "type": "INSTRUCTIONS", "trial_type": "text", "trial_index": 42, "time_elapsed": 303031, "internal_node_id": "0.0-33.0"}}, {"uniqueid": "MTK1120:3OLF68YTNA8RELYK4IFIO8JMHKHFA0", "current_trial": 43, "dateTime": 1513120168388, "trialdata": {"rt": [3752, 7148, 8555, 10332, 11786, 14225, 16010, 17811], "responses": ["22", "18", "11", "10", "11", "20", "15", "12"], "num1": [8, 7, 1, 4, 1, 3, 1, 2, 5], "num2": [5, 9, 5, 2, 9, 9, 7, 6, 3], "num3": [8, 2, 5, 4, 1, 8, 7, 4, 1], "type": "DISTRACTOR", "conditions": [18, 1200, "a", 18000], "trial": 1, "trial_type": "math-distractor", "trial_index": 43, "time_elapsed": 323036, "internal_node_id": "0.0-34.0"}}, {"uniqueid": "MTK1120:3OLF68YTNA8RELYK4IFIO8JMHKHFA0", "current_trial": 44, "dateTime": 1513120171397, "trialdata": {"rt": -1, "stimulus": "<p id=\"stim\">10</p>", "key_press": -1, "trial_type": "single-stim", "trial_index": 44, "time_elapsed": 326046, "internal_node_id": "0.0-35.0-0.0"}}, {"uniqueid": "MTK1120:3OLF68YTNA8RELYK4IFIO8JMHKHFA0", "current_trial": 45, "dateTime": 1513120172400, "trialdata": {"rt": -1, "stimulus": "<p id=\"stim\">9</p>", "key_press": -1, "trial_type": "single-stim", "trial_index": 45, "time_elapsed": 327049, "internal_node_id": "0.0-35.0-1.0"}}, {"uniqueid": "MTK1120:3OLF68YTNA8RELYK4IFIO8JMHKHFA0", "current_trial": 46, "dateTime": 1513120173406, "trialdata": {"rt": -1, "stimulus": "<p id=\"stim\">8</p>", "key_press": -1, "trial_type": "single-stim", "trial_index": 46, "time_elapsed": 328055, "internal_node_id": "0.0-35.0-2.0"}}, {"uniqueid": "MTK1120:3OLF68YTNA8RELYK4IFIO8JMHKHFA0", "current_trial": 47, "dateTime": 1513120174411, "trialdata": {"rt": -1, "stimulus": "<p id=\"stim\">7</p>", "key_press": -1, "trial_type": "single-stim", "trial_index": 47, "time_elapsed": 329060, "internal_node_id": "0.0-35.0-3.0"}}, {"uniqueid": "MTK1120:3OLF68YTNA8RELYK4IFIO8JMHKHFA0", "current_trial": 48, "dateTime": 1513120175415, "trialdata": {"rt": -1, "stimulus": "<p id=\"stim\">6</p>", "key_press": -1, "trial_type": "single-stim", "trial_index": 48, "time_elapsed": 330064, "internal_node_id": "0.0-35.0-4.0"}}, {"uniqueid": "MTK1120:3OLF68YTNA8RELYK4IFIO8JMHKHFA0", "current_trial": 49, "dateTime": 1513120176419, "trialdata": {"rt": -1, "stimulus": "<p id=\"stim\">5</p>", "key_press": -1, "trial_type": "single-stim", "trial_index": 49, "time_elapsed": 331067, "internal_node_id": "0.0-35.0-5.0"}}, {"uniqueid": "MTK1120:3OLF68YTNA8RELYK4IFIO8JMHKHFA0", "current_trial": 50, "dateTime": 1513120177421, "trialdata": {"rt": -1, "stimulus": "<p id=\"stim\">4</p>", "key_press": -1, "trial_type": "single-stim", "trial_index": 50, "time_elapsed": 332070, "internal_node_id": "0.0-35.0-6.0"}}, {"uniqueid": "MTK1120:3OLF68YTNA8RELYK4IFIO8JMHKHFA0", "current_trial": 51, "dateTime": 1513120178427, "trialdata": {"rt": -1, "stimulus": "<p id=\"stim\">3</p>", "key_press": -1, "trial_type": "single-stim", "trial_index": 51, "time_elapsed": 333076, "internal_node_id": "0.0-35.0-7.0"}}, {"uniqueid": "MTK1120:3OLF68YTNA8RELYK4IFIO8JMHKHFA0", "current_trial": 52, "dateTime": 1513120179439, "trialdata": {"rt": -1, "stimulus": "<p id=\"stim\">2</p>", "key_press": -1, "trial_type": "single-stim", "trial_index": 52, "time_elapsed": 334083, "internal_node_id": "0.0-35.0-8.0"}}, {"uniqueid": "MTK1120:3OLF68YTNA8RELYK4IFIO8JMHKHFA0", "current_trial": 53, "dateTime": 1513120180442, "trialdata": {"rt": -1, "stimulus": "<p id=\"stim\">1</p>", "key_press": -1, "trial_type": "single-stim", "trial_index": 53, "time_elapsed": 335091, "internal_node_id": "0.0-35.0-9.0"}}, {"uniqueid": "MTK1120:3OLF68YTNA8RELYK4IFIO8JMHKHFA0", "current_trial": 54, "dateTime": 1513120181945, "trialdata": {"rt": -1, "stimulus": "<p id=\"stim\">+</p>", "key_press": -1, "type": "FIXATION", "trial_type": "single-stim", "trial_index": 54, "time_elapsed": 336594, "internal_node_id": "0.0-36.0-0.0"}}, {"uniqueid": "MTK1120:3OLF68YTNA8RELYK4IFIO8JMHKHFA0", "current_trial": 55, "dateTime": 1513120184333, "trialdata": {"rt": -1000, "stimulus": "/static/audio/wordpool/JURY.wav", "key_press": -1, "type": "PRES_AUD", "word": "jury", "wordID": 765, "conditions": [18, 1200, "a", 18000], "trial": 1, "serialpos": 0, "trial_type": "single-audio", "trial_index": 55, "time_elapsed": 338982, "internal_node_id": "0.0-37.0"}}, {"uniqueid": "MTK1120:3OLF68YTNA8RELYK4IFIO8JMHKHFA0", "current_trial": 56, "dateTime": 1513120186673, "trialdata": {"rt": -1000, "stimulus": "/static/audio/wordpool/CABIN.wav", "key_press": -1, "type": "PRES_AUD", "word": "cabin", "wordID": 210, "conditions": [18, 1200, "a", 18000], "trial": 1, "serialpos": 1, "trial_type": "single-audio", "trial_index": 56, "time_elapsed": 341322, "internal_node_id": "0.0-38.0"}}, {"uniqueid": "MTK1120:3OLF68YTNA8RELYK4IFIO8JMHKHFA0", "current_trial": 57, "dateTime": 1513120188927, "trialdata": {"rt": -1000, "stimulus": "/static/audio/wordpool/CLAM.wav", "key_press": -1, "type": "PRES_AUD", "word": "clam", "wordID": 314, "conditions": [18, 1200, "a", 18000], "trial": 1, "serialpos": 2, "trial_type": "single-audio", "trial_index": 57, "time_elapsed": 343575, "internal_node_id": "0.0-39.0"}}, {"uniqueid": "MTK1120:3OLF68YTNA8RELYK4IFIO8JMHKHFA0", "current_trial": 58, "dateTime": 1513120191259, "trialdata": {"rt": -1000, "stimulus": "/static/audio/wordpool/FOX.wav", "key_press": -1, "type": "PRES_AUD", "word": "fox", "wordID": 597, "conditions": [18, 1200, "a", 18000], "trial": 1, "serialpos": 3, "trial_type": "single-audio", "trial_index": 58, "time_elapsed": 345908, "internal_node_id": "0.0-40.0"}}, {"uniqueid": "MTK1120:3OLF68YTNA8RELYK4IFIO8JMHKHFA0", "current_trial": 59, "dateTime": 1513120193420, "trialdata": {"rt": -1000, "stimulus": "/static/audio/wordpool/GOBLIN.wav", "key_press": -1, "type": "PRES_AUD", "word": "goblin", "wordID": 644, "conditions": [18, 1200, "a", 18000], "trial": 1, "serialpos": 4, "trial_type": "single-audio", "trial_index": 59, "time_elapsed": 348069, "internal_node_id": "0.0-41.0"}}, {"uniqueid": "MTK1120:3OLF68YTNA8RELYK4IFIO8JMHKHFA0", "current_trial": 60, "dateTime": 1513120195641, "trialdata": {"rt": -1000, "stimulus": "/static/audio/wordpool/CHILD.wav", "key_press": -1, "type": "PRES_AUD", "word": "child", "wordID": 298, "conditions": [18, 1200, "a", 18000], "trial": 1, "serialpos": 5, "trial_type": "single-audio", "trial_index": 60, "time_elapsed": 350289, "internal_node_id": "0.0-42.0"}}, {"uniqueid": "MTK1120:3OLF68YTNA8RELYK4IFIO8JMHKHFA0", "current_trial": 61, "dateTime": 1513120197709, "trialdata": {"rt": -1000, "stimulus": "/static/audio/wordpool/TYPIST.wav", "key_press": -1, "type": "PRES_AUD", "word": "typist", "wordID": 1531, "conditions": [18, 1200, "a", 18000], "trial": 1, "serialpos": 6, "trial_type": "single-audio", "trial_index": 61, "time_elapsed": 352358, "internal_node_id": "0.0-43.0"}}, {"uniqueid": "MTK1120:3OLF68YTNA8RELYK4IFIO8JMHKHFA0", "current_trial": 62, "dateTime": 1513120199726, "trialdata": {"rt": -1000, "stimulus": "/static/audio/wordpool/VALVE.wav", "key_press": -1, "type": "PRES_AUD", "word": "valve", "wordID": 1545, "conditions": [18, 1200, "a", 18000], "trial": 1, "serialpos": 7, "trial_type": "single-audio", "trial_index": 62, "time_elapsed": 354375, "internal_node_id": "0.0-44.0"}}, {"uniqueid": "MTK1120:3OLF68YTNA8RELYK4IFIO8JMHKHFA0", "current_trial": 63, "dateTime": 1513120201747, "trialdata": {"rt": -1000, "stimulus": "/static/audio/wordpool/SLIME.wav", "key_press": -1, "type": "PRES_AUD", "word": "slime", "wordID": 1326, "conditions": [18, 1200, "a", 18000], "trial": 1, "serialpos": 8, "trial_type": "single-audio", "trial_index": 63, "time_elapsed": 356395, "internal_node_id": "0.0-45.0"}}, {"uniqueid": "MTK1120:3OLF68YTNA8RELYK4IFIO8JMHKHFA0", "current_trial": 64, "dateTime": 1513120204098, "trialdata": {"rt": -1000, "stimulus": "/static/audio/wordpool/FIREPLACE.wav", "key_press": -1, "type": "PRES_AUD", "word": "fireplace", "wordID": 569, "conditions": [18, 1200, "a", 18000], "trial": 1, "serialpos": 9, "trial_type": "single-audio", "trial_index": 64, "time_elapsed": 358746, "internal_node_id": "0.0-46.0"}}, {"uniqueid": "MTK1120:3OLF68YTNA8RELYK4IFIO8JMHKHFA0", "current_trial": 65, "dateTime": 1513120206454, "trialdata": {"rt": -1000, "stimulus": "/static/audio/wordpool/VENUS.wav", "key_press": -1, "type": "PRES_AUD", "word": "venus", "wordID": 1556, "conditions": [18, 1200, "a", 18000], "trial": 1, "serialpos": 10, "trial_type": "single-audio", "trial_index": 65, "time_elapsed": 361102, "internal_node_id": "0.0-47.0"}}, {"uniqueid": "MTK1120:3OLF68YTNA8RELYK4IFIO8JMHKHFA0", "current_trial": 66, "dateTime": 1513120208502, "trialdata": {"rt": -1000, "stimulus": "/static/audio/wordpool/UNCLE.wav", "key_press": -1, "type": "PRES_AUD", "word": "uncle", "wordID": 1535, "conditions": [18, 1200, "a", 18000], "trial": 1, "serialpos": 11, "trial_type": "single-audio", "trial_index": 66, "time_elapsed": 363151, "internal_node_id": "0.0-48.0"}}, {"uniqueid": "MTK1120:3OLF68YTNA8RELYK4IFIO8JMHKHFA0", "current_trial": 67, "dateTime": 1513120210881, "trialdata": {"rt": -1000, "stimulus": "/static/audio/wordpool/ZIPPER.wav", "key_press": -1, "type": "PRES_AUD", "word": "zipper", "wordID": 1635, "conditions": [18, 1200, "a", 18000], "trial": 1, "serialpos": 12, "trial_type": "single-audio", "trial_index": 67, "time_elapsed": 365530, "internal_node_id": "0.0-49.0"}}, {"uniqueid": "MTK1120:3OLF68YTNA8RELYK4IFIO8JMHKHFA0", "current_trial": 68, "dateTime": 1513120213017, "trialdata": {"rt": -1000, "stimulus": "/static/audio/wordpool/ZEBRA.wav", "key_press": -1, "type": "PRES_AUD", "word": "zebra", "wordID": 1634, "conditions": [18, 1200, "a", 18000], "trial": 1, "serialpos": 13, "trial_type": "single-audio", "trial_index": 68, "time_elapsed": 367664, "internal_node_id": "0.0-50.0"}}, {"uniqueid": "MTK1120:3OLF68YTNA8RELYK4IFIO8JMHKHFA0", "current_trial": 69, "dateTime": 1513120215032, "trialdata": {"rt": -1000, "stimulus": "/static/audio/wordpool/SISTER.wav", "key_press": -1, "type": "PRES_AUD", "word": "sister", "wordID": 1311, "conditions": [18, 1200, "a", 18000], "trial": 1, "serialpos": 14, "trial_type": "single-audio", "trial_index": 69, "time_elapsed": 369681, "internal_node_id": "0.0-51.0"}}, {"uniqueid": "MTK1120:3OLF68YTNA8RELYK4IFIO8JMHKHFA0", "current_trial": 70, "dateTime": 1513120217254, "trialdata": {"rt": -1000, "stimulus": "/static/audio/wordpool/SHELF.wav", "key_press": -1, "type": "PRES_AUD", "word": "shelf", "wordID": 1279, "conditions": [18, 1200, "a", 18000], "trial": 1, "serialpos": 15, "trial_type": "single-audio", "trial_index": 70, "time_elapsed": 371903, "internal_node_id": "0.0-52.0"}}, {"uniqueid": "MTK1120:3OLF68YTNA8RELYK4IFIO8JMHKHFA0", "current_trial": 71, "dateTime": 1513120219455, "trialdata": {"rt": -1000, "stimulus": "/static/audio/wordpool/BELLY.wav", "key_press": -1, "type": "PRES_AUD", "word": "belly", "wordID": 118, "conditions": [18, 1200, "a", 18000], "trial": 1, "serialpos": 16, "trial_type": "single-audio", "trial_index": 71, "time_elapsed": 374104, "internal_node_id": "0.0-53.0"}}, {"uniqueid": "MTK1120:3OLF68YTNA8RELYK4IFIO8JMHKHFA0", "current_trial": 72, "dateTime": 1513120221688, "trialdata": {"rt": -1000, "stimulus": "/static/audio/wordpool/DANDRUFF.wav", "key_press": -1, "type": "PRES_AUD", "word": "dandruff", "wordID": 438, "conditions": [18, 1200, "a", 18000], "trial": 1, "serialpos": 17, "trial_type": "single-audio", "trial_index": 72, "time_elapsed": 376337, "internal_node_id": "0.0-54.0"}}, {"uniqueid": "MTK1120:3OLF68YTNA8RELYK4IFIO8JMHKHFA0", "current_trial": 73, "dateTime": 1513120222911, "trialdata": {"rt": -1, "stimulus": "", "key_press": -1, "type": "PRE_RECALL_DELAY", "trial_type": "single-stim", "trial_index": 73, "time_elapsed": 377560, "internal_node_id": "0.0-55.0-0.0"}}, {"uniqueid": "MTK1120:3OLF68YTNA8RELYK4IFIO8JMHKHFA0", "current_trial": 74, "dateTime": 1513120223416, "trialdata": {"rt": -1000, "stimulus": "/static/audio/400Hz.wav", "key_press": -1, "type": "PRE_RECALL_ALERT", "trial_type": "single-audio", "trial_index": 74, "time_elapsed": 378065, "internal_node_id": "0.0-56.0"}}, {"uniqueid": "MTK1120:3OLF68YTNA8RELYK4IFIO8JMHKHFA0", "current_trial": 75, "dateTime": 1513120283429, "trialdata": {"rt": [3323, 4633, 7640, 9743, 12108, 27452, 33928, 39481], "recwords": ["zipper", "shelf", "zebra", "belly", "uncle", "sandra", "sister", "muscle"], "type": "FREE_RECALL", "conditions": [18, 1200, "a", 18000], "trial": 1, "trial_type": "free-recall", "trial_index": 75, "time_elapsed": 438074, "internal_node_id": "0.0-57.0-0.0"}}, {"uniqueid": "MTK1120:3OLF68YTNA8RELYK4IFIO8JMHKHFA0", "current_trial": 76, "dateTime": 1513120295723, "trialdata": {"rt": 10283, "key_press": 32, "type": "INSTRUCTIONS", "trial_type": "text", "trial_index": 76, "time_elapsed": 450363, "internal_node_id": "0.0-58.0"}}, {"uniqueid": "MTK1120:3OLF68YTNA8RELYK4IFIO8JMHKHFA0", "current_trial": 77, "dateTime": 1513120308729, "trialdata": {"rt": [3930, 9303, 11772], "responses": ["13", "17", "10"], "num1": [2, 6, 2, 2], "num2": [4, 3, 6, 5], "num3": [7, 8, 2, 2], "type": "DISTRACTOR", "conditions": [24, 800, "a", 12000], "trial": 2, "trial_type": "math-distractor", "trial_index": 77, "time_elapsed": 463378, "internal_node_id": "0.0-59.0"}}, {"uniqueid": "MTK1120:3OLF68YTNA8RELYK4IFIO8JMHKHFA0", "current_trial": 78, "dateTime": 1513120311734, "trialdata": {"rt": -1, "stimulus": "<p id=\"stim\">10</p>", "key_press": -1, "trial_type": "single-stim", "trial_index": 78, "time_elapsed": 466383, "internal_node_id": "0.0-60.0-0.0"}}, {"uniqueid": "MTK1120:3OLF68YTNA8RELYK4IFIO8JMHKHFA0", "current_trial": 79, "dateTime": 1513120312739, "trialdata": {"rt": -1, "stimulus": "<p id=\"stim\">9</p>", "key_press": -1, "trial_type": "single-stim", "trial_index": 79, "time_elapsed": 467388, "internal_node_id": "0.0-60.0-1.0"}}, {"uniqueid": "MTK1120:3OLF68YTNA8RELYK4IFIO8JMHKHFA0", "current_trial": 80, "dateTime": 1513120313744, "trialdata": {"rt": -1, "stimulus": "<p id=\"stim\">8</p>", "key_press": -1, "trial_type": "single-stim", "trial_index": 80, "time_elapsed": 468393, "internal_node_id": "0.0-60.0-2.0"}}, {"uniqueid": "MTK1120:3OLF68YTNA8RELYK4IFIO8JMHKHFA0", "current_trial": 81, "dateTime": 1513120314750, "trialdata": {"rt": -1, "stimulus": "<p id=\"stim\">7</p>", "key_press": -1, "trial_type": "single-stim", "trial_index": 81, "time_elapsed": 469399, "internal_node_id": "0.0-60.0-3.0"}}, {"uniqueid": "MTK1120:3OLF68YTNA8RELYK4IFIO8JMHKHFA0", "current_trial": 82, "dateTime": 1513120315755, "trialdata": {"rt": -1, "stimulus": "<p id=\"stim\">6</p>", "key_press": -1, "trial_type": "single-stim", "trial_index": 82, "time_elapsed": 470402, "internal_node_id": "0.0-60.0-4.0"}}, {"uniqueid": "MTK1120:3OLF68YTNA8RELYK4IFIO8JMHKHFA0", "current_trial": 83, "dateTime": 1513120316763, "trialdata": {"rt": -1, "stimulus": "<p id=\"stim\">5</p>", "key_press": -1, "trial_type": "single-stim", "trial_index": 83, "time_elapsed": 471412, "internal_node_id": "0.0-60.0-5.0"}}, {"uniqueid": "MTK1120:3OLF68YTNA8RELYK4IFIO8JMHKHFA0", "current_trial": 84, "dateTime": 1513120317767, "trialdata": {"rt": -1, "stimulus": "<p id=\"stim\">4</p>", "key_press": -1, "trial_type": "single-stim", "trial_index": 84, "time_elapsed": 472416, "internal_node_id": "0.0-60.0-6.0"}}, {"uniqueid": "MTK1120:3OLF68YTNA8RELYK4IFIO8JMHKHFA0", "current_trial": 85, "dateTime": 1513120318770, "trialdata": {"rt": -1, "stimulus": "<p id=\"stim\">3</p>", "key_press": -1, "trial_type": "single-stim", "trial_index": 85, "time_elapsed": 473419, "internal_node_id": "0.0-60.0-7.0"}}, {"uniqueid": "MTK1120:3OLF68YTNA8RELYK4IFIO8JMHKHFA0", "current_trial": 86, "dateTime": 1513120319772, "trialdata": {"rt": -1, "stimulus": "<p id=\"stim\">2</p>", "key_press": -1, "trial_type": "single-stim", "trial_index": 86, "time_elapsed": 474421, "internal_node_id": "0.0-60.0-8.0"}}, {"uniqueid": "MTK1120:3OLF68YTNA8RELYK4IFIO8JMHKHFA0", "current_trial": 87, "dateTime": 1513120320774, "trialdata": {"rt": -1, "stimulus": "<p id=\"stim\">1</p>", "key_press": -1, "trial_type": "single-stim", "trial_index": 87, "time_elapsed": 475423, "internal_node_id": "0.0-60.0-9.0"}}, {"uniqueid": "MTK1120:3OLF68YTNA8RELYK4IFIO8JMHKHFA0", "current_trial": 88, "dateTime": 1513120322275, "trialdata": {"rt": -1, "stimulus": "<p id=\"stim\">+</p>", "key_press": -1, "type": "FIXATION", "trial_type": "single-stim", "trial_index": 88, "time_elapsed": 476924, "internal_node_id": "0.0-61.0-0.0"}}, {"uniqueid": "MTK1120:3OLF68YTNA8RELYK4IFIO8JMHKHFA0", "current_trial": 89, "dateTime": 1513120324210, "trialdata": {"rt": -1000, "stimulus": "/static/audio/wordpool/GUITAR.wav", "key_press": -1, "type": "PRES_AUD", "word": "guitar", "wordID": 669, "conditions": [24, 800, "a", 12000], "trial": 2, "serialpos": 0, "trial_type": "single-audio", "trial_index": 89, "time_elapsed": 478859, "internal_node_id": "0.0-62.0"}}, {"uniqueid": "MTK1120:3OLF68YTNA8RELYK4IFIO8JMHKHFA0", "current_trial": 90, "dateTime": 1513120325964, "trialdata": {"rt": -1000, "stimulus": "/static/audio/wordpool/BRANDY.wav", "key_press": -1, "type": "PRES_AUD", "word": "brandy", "wordID": 168, "conditions": [24, 800, "a", 12000], "trial": 2, "serialpos": 1, "trial_type": "single-audio", "trial_index": 90, "time_elapsed": 480613, "internal_node_id": "0.0-63.0"}}, {"uniqueid": "MTK1120:3OLF68YTNA8RELYK4IFIO8JMHKHFA0", "current_trial": 91, "dateTime": 1513120327756, "trialdata": {"rt": -1000, "stimulus": "/static/audio/wordpool/CHAMPAGNE.wav", "key_press": -1, "type": "PRES_AUD", "word": "champagne", "wordID": 277, "conditions": [24, 800, "a", 12000], "trial": 2, "serialpos": 2, "trial_type": "single-audio", "trial_index": 91, "time_elapsed": 482404, "internal_node_id": "0.0-64.0"}}, {"uniqueid": "MTK1120:3OLF68YTNA8RELYK4IFIO8JMHKHFA0", "current_trial": 92, "dateTime": 1513120329371, "trialdata": {"rt": -1000, "stimulus": "/static/audio/wordpool/POWDER.wav", "key_press": -1, "type": "PRES_AUD", "word": "powder", "wordID": 1116, "conditions": [24, 800, "a", 12000], "trial": 2, "serialpos": 3, "trial_type": "single-audio", "trial_index": 92, "time_elapsed": 484020, "internal_node_id": "0.0-65.0"}}, {"uniqueid": "MTK1120:3OLF68YTNA8RELYK4IFIO8JMHKHFA0", "current_trial": 93, "dateTime": 1513120331124, "trialdata": {"rt": -1000, "stimulus": "/static/audio/wordpool/ICING.wav", "key_press": -1, "type": "PRES_AUD", "word": "icing", "wordID": 731, "conditions": [24, 800, "a", 12000], "trial": 2, "serialpos": 4, "trial_type": "single-audio", "trial_index": 93, "time_elapsed": 485772, "internal_node_id": "0.0-66.0"}}, {"uniqueid": "MTK1120:3OLF68YTNA8RELYK4IFIO8JMHKHFA0", "current_trial": 94, "dateTime": 1513120332949, "trialdata": {"rt": -1000, "stimulus": "/static/audio/wordpool/MARSH.wav", "key_press": -1, "type": "PRES_AUD", "word": "marsh", "wordID": 873, "conditions": [24, 800, "a", 12000], "trial": 2, "serialpos": 5, "trial_type": "single-audio", "trial_index": 94, "time_elapsed": 487598, "internal_node_id": "0.0-67.0"}}, {"uniqueid": "MTK1120:3OLF68YTNA8RELYK4IFIO8JMHKHFA0", "current_trial": 95, "dateTime": 1513120334930, "trialdata": {"rt": -1000, "stimulus": "/static/audio/wordpool/HUSBAND.wav", "key_press": -1, "type": "PRES_AUD", "word": "husband", "wordID": 727, "conditions": [24, 800, "a", 12000], "trial": 2, "serialpos": 6, "trial_type": "single-audio", "trial_index": 95, "time_elapsed": 489579, "internal_node_id": "0.0-68.0"}}, {"uniqueid": "MTK1120:3OLF68YTNA8RELYK4IFIO8JMHKHFA0", "current_trial": 96, "dateTime": 1513120336851, "trialdata": {"rt": -1000, "stimulus": "/static/audio/wordpool/SPOUSE.wav", "key_press": -1, "type": "PRES_AUD", "word": "spouse", "wordID": 1357, "conditions": [24, 800, "a", 12000], "trial": 2, "serialpos": 7, "trial_type": "single-audio", "trial_index": 96, "time_elapsed": 491500, "internal_node_id": "0.0-69.0"}}, {"uniqueid": "MTK1120:3OLF68YTNA8RELYK4IFIO8JMHKHFA0", "current_trial": 97, "dateTime": 1513120338557, "trialdata": {"rt": -1000, "stimulus": "/static/audio/wordpool/PARSLEY.wav", "key_press": -1, "type": "PRES_AUD", "word": "parsley", "wordID": 1015, "conditions": [24, 800, "a", 12000], "trial": 2, "serialpos": 8, "trial_type": "single-audio", "trial_index": 97, "time_elapsed": 493205, "internal_node_id": "0.0-70.0"}}, {"uniqueid": "MTK1120:3OLF68YTNA8RELYK4IFIO8JMHKHFA0", "current_trial": 98, "dateTime": 1513120340262, "trialdata": {"rt": -1000, "stimulus": "/static/audio/wordpool/KNIFE.wav", "key_press": -1, "type": "PRES_AUD", "word": "knife", "wordID": 784, "conditions": [24, 800, "a", 12000], "trial": 2, "serialpos": 9, "trial_type": "single-audio", "trial_index": 98, "time_elapsed": 494911, "internal_node_id": "0.0-71.0"}}, {"uniqueid": "MTK1120:3OLF68YTNA8RELYK4IFIO8JMHKHFA0", "current_trial": 99, "dateTime": 1513120342128, "trialdata": {"rt": -1000, "stimulus": "/static/audio/wordpool/SNAIL.wav", "key_press": -1, "type": "PRES_AUD", "word": "snail", "wordID": 1331, "conditions": [24, 800, "a", 12000], "trial": 2, "serialpos": 10, "trial_type": "single-audio", "trial_index": 99, "time_elapsed": 496777, "internal_node_id": "0.0-72.0"}}, {"uniqueid": "MTK1120:3OLF68YTNA8RELYK4IFIO8JMHKHFA0", "current_trial": 100, "dateTime": 1513120343803, "trialdata": {"rt": -1000, "stimulus": "/static/audio/wordpool/LAGOON.wav", "key_press": -1, "type": "PRES_AUD", "word": "lagoon", "wordID": 794, "conditions": [24, 800, "a", 12000], "trial": 2, "serialpos": 11, "trial_type": "single-audio", "trial_index": 100, "time_elapsed": 498452, "internal_node_id": "0.0-73.0"}}, {"uniqueid": "MTK1120:3OLF68YTNA8RELYK4IFIO8JMHKHFA0", "current_trial": 101, "dateTime": 1513120345619, "trialdata": {"rt": -1000, "stimulus": "/static/audio/wordpool/SMOG.wav", "key_press": -1, "type": "PRES_AUD", "word": "smog", "wordID": 1329, "conditions": [24, 800, "a", 12000], "trial": 2, "serialpos": 12, "trial_type": "single-audio", "trial_index": 101, "time_elapsed": 500268, "internal_node_id": "0.0-74.0"}}, {"uniqueid": "MTK1120:3OLF68YTNA8RELYK4IFIO8JMHKHFA0", "current_trial": 102, "dateTime": 1513120347412, "trialdata": {"rt": -1000, "stimulus": "/static/audio/wordpool/KNAPSACK.wav", "key_press": -1, "type": "PRES_AUD", "word": "knapsack", "wordID": 782, "conditions": [24, 800, "a", 12000], "trial": 2, "serialpos": 13, "trial_type": "single-audio", "trial_index": 102, "time_elapsed": 502060, "internal_node_id": "0.0-75.0"}}, {"uniqueid": "MTK1120:3OLF68YTNA8RELYK4IFIO8JMHKHFA0", "current_trial": 103, "dateTime": 1513120349161, "trialdata": {"rt": -1000, "stimulus": "/static/audio/wordpool/PORTRAIT.wav", "key_press": -1, "type": "PRES_AUD", "word": "portrait", "wordID": 1110, "conditions": [24, 800, "a", 12000], "trial": 2, "serialpos": 14, "trial_type": "single-audio", "trial_index": 103, "time_elapsed": 503809, "internal_node_id": "0.0-76.0"}}, {"uniqueid": "MTK1120:3OLF68YTNA8RELYK4IFIO8JMHKHFA0", "current_trial": 104, "dateTime": 1513120351005, "trialdata": {"rt": -1000, "stimulus": "/static/audio/wordpool/HANDBAG.wav", "key_press": -1, "type": "PRES_AUD", "word": "handbag", "wordID": 683, "conditions": [24, 800, "a", 12000], "trial": 2, "serialpos": 15, "trial_type": "single-audio", "trial_index": 104, "time_elapsed": 505654, "internal_node_id": "0.0-77.0"}}, {"uniqueid": "MTK1120:3OLF68YTNA8RELYK4IFIO8JMHKHFA0", "current_trial": 105, "dateTime": 1513120352806, "trialdata": {"rt": -1000, "stimulus": "/static/audio/wordpool/NECKLACE.wav", "key_press": -1, "type": "PRES_AUD", "word": "necklace", "wordID": 939, "conditions": [24, 800, "a", 12000], "trial": 2, "serialpos": 16, "trial_type": "single-audio", "trial_index": 105, "time_elapsed": 507455, "internal_node_id": "0.0-78.0"}}, {"uniqueid": "MTK1120:3OLF68YTNA8RELYK4IFIO8JMHKHFA0", "current_trial": 106, "dateTime": 1513120354802, "trialdata": {"rt": -1000, "stimulus": "/static/audio/wordpool/OZONE.wav", "key_press": -1, "type": "PRES_AUD", "word": "ozone", "wordID": 995, "conditions": [24, 800, "a", 12000], "trial": 2, "serialpos": 17, "trial_type": "single-audio", "trial_index": 106, "time_elapsed": 509451, "internal_node_id": "0.0-79.0"}}, {"uniqueid": "MTK1120:3OLF68YTNA8RELYK4IFIO8JMHKHFA0", "current_trial": 107, "dateTime": 1513120356541, "trialdata": {"rt": -1000, "stimulus": "/static/audio/wordpool/PASSAGE.wav", "key_press": -1, "type": "PRES_AUD", "word": "passage", "wordID": 1018, "conditions": [24, 800, "a", 12000], "trial": 2, "serialpos": 18, "trial_type": "single-audio", "trial_index": 107, "time_elapsed": 511189, "internal_node_id": "0.0-80.0"}}, {"uniqueid": "MTK1120:3OLF68YTNA8RELYK4IFIO8JMHKHFA0", "current_trial": 108, "dateTime": 1513120358518, "trialdata": {"rt": -1000, "stimulus": "/static/audio/wordpool/HIGHWAY.wav", "key_press": -1, "type": "PRES_AUD", "word": "highway", "wordID": 706, "conditions": [24, 800, "a", 12000], "trial": 2, "serialpos": 19, "trial_type": "single-audio", "trial_index": 108, "time_elapsed": 513166, "internal_node_id": "0.0-81.0"}}, {"uniqueid": "MTK1120:3OLF68YTNA8RELYK4IFIO8JMHKHFA0", "current_trial": 109, "dateTime": 1513120360202, "trialdata": {"rt": -1000, "stimulus": "/static/audio/wordpool/HOOK.wav", "key_press": -1, "type": "PRES_AUD", "word": "hook", "wordID": 714, "conditions": [24, 800, "a", 12000], "trial": 2, "serialpos": 20, "trial_type": "single-audio", "trial_index": 109, "time_elapsed": 514851, "internal_node_id": "0.0-82.0"}}, {"uniqueid": "MTK1120:3OLF68YTNA8RELYK4IFIO8JMHKHFA0", "current_trial": 110, "dateTime": 1513120362065, "trialdata": {"rt": -1000, "stimulus": "/static/audio/wordpool/GYMNAST.wav", "key_press": -1, "type": "PRES_AUD", "word": "gymnast", "wordID": 674, "conditions": [24, 800, "a", 12000], "trial": 2, "serialpos": 21, "trial_type": "single-audio", "trial_index": 110, "time_elapsed": 516714, "internal_node_id": "0.0-83.0"}}, {"uniqueid": "MTK1120:3OLF68YTNA8RELYK4IFIO8JMHKHFA0", "current_trial": 111, "dateTime": 1513120363723, "trialdata": {"rt": -1000, "stimulus": "/static/audio/wordpool/TABLET.wav", "key_press": -1, "type": "PRES_AUD", "word": "tablet", "wordID": 1426, "conditions": [24, 800, "a", 12000], "trial": 2, "serialpos": 22, "trial_type": "single-audio", "trial_index": 111, "time_elapsed": 518371, "internal_node_id": "0.0-84.0"}}, {"uniqueid": "MTK1120:3OLF68YTNA8RELYK4IFIO8JMHKHFA0", "current_trial": 112, "dateTime": 1513120365555, "trialdata": {"rt": -1000, "stimulus": "/static/audio/wordpool/BLACKBOARD.wav", "key_press": -1, "type": "PRES_AUD", "word": "blackboard", "wordID": 132, "conditions": [24, 800, "a", 12000], "trial": 2, "serialpos": 23, "trial_type": "single-audio", "trial_index": 112, "time_elapsed": 520204, "internal_node_id": "0.0-85.0"}}, {"uniqueid": "MTK1120:3OLF68YTNA8RELYK4IFIO8JMHKHFA0", "current_trial": 113, "dateTime": 1513120366850, "trialdata": {"rt": -1, "stimulus": "", "key_press": -1, "type": "PRE_RECALL_DELAY", "trial_type": "single-stim", "trial_index": 113, "time_elapsed": 521499, "internal_node_id": "0.0-86.0-0.0"}}, {"uniqueid": "MTK1120:3OLF68YTNA8RELYK4IFIO8JMHKHFA0", "current_trial": 114, "dateTime": 1513120367354, "trialdata": {"rt": -1000, "stimulus": "/static/audio/400Hz.wav", "key_press": -1, "type": "PRE_RECALL_ALERT", "trial_type": "single-audio", "trial_index": 114, "time_elapsed": 522002, "internal_node_id": "0.0-87.0"}}, {"uniqueid": "MTK1120:3OLF68YTNA8RELYK4IFIO8JMHKHFA0", "current_trial": 115, "dateTime": 1513120427365, "trialdata": {"rt": [7133, 8757, 13228, 14338, 16213, 20254, 23443, 25892, 27361, 29213, 33917, 36562, 41638, 43673, 45643, 49068, 52409, 55396], "recwords": ["guitar", "brandy", "powder", "icing", "march", "husband", "spouse", "knife", "snail", "smog", "knapsack", "handbag", "portrait", "necklace", "island", "hook", "gymnist", "blackboard"], "type": "FREE_RECALL", "conditions": [24, 800, "a", 12000], "trial": 2, "trial_type": "free-recall", "trial_index": 115, "time_elapsed": 582007, "internal_node_id": "0.0-88.0-0.0"}}, {"uniqueid": "MTK1120:3OLF68YTNA8RELYK4IFIO8JMHKHFA0", "current_trial": 116, "dateTime": 1513120438890, "trialdata": {"rt": 9520, "key_press": 32, "type": "INSTRUCTIONS", "trial_type": "text", "trial_index": 116, "time_elapsed": 593539, "internal_node_id": "0.0-89.0"}}, {"uniqueid": "MTK1120:3OLF68YTNA8RELYK4IFIO8JMHKHFA0", "current_trial": 117, "dateTime": 1513120464897, "trialdata": {"rt": [2448, 3873, 8131, 10841, 13035, 14785, 17692, 19144, 21769, 23903], "responses": ["11", "9", "23", "21", "11", "19", "14", "8", "13", "12"], "num1": [5, 7, 9, 5, 4, 6, 5, 3, 7, 4, 9], "num2": [4, 1, 7, 8, 5, 4, 7, 3, 2, 7, 9], "num3": [2, 1, 7, 8, 2, 9, 2, 2, 4, 1, 5], "type": "DISTRACTOR", "conditions": [24, 800, "v", 24000], "trial": 3, "trial_type": "math-distractor", "trial_index": 117, "time_elapsed": 619546, "internal_node_id": "0.0-90.0"}}, {"uniqueid": "MTK1120:3OLF68YTNA8RELYK4IFIO8JMHKHFA0", "current_trial": 118, "dateTime": 1513120467902, "trialdata": {"rt": -1, "stimulus": "<p id=\"stim\">10</p>", "key_press": -1, "trial_type": "single-stim", "trial_index": 118, "time_elapsed": 622551, "internal_node_id": "0.0-91.0-0.0"}}, {"uniqueid": "MTK1120:3OLF68YTNA8RELYK4IFIO8JMHKHFA0", "current_trial": 119, "dateTime": 1513120468905, "trialdata": {"rt": -1, "stimulus": "<p id=\"stim\">9</p>", "key_press": -1, "trial_type": "single-stim", "trial_index": 119, "time_elapsed": 623554, "internal_node_id": "0.0-91.0-1.0"}}, {"uniqueid": "MTK1120:3OLF68YTNA8RELYK4IFIO8JMHKHFA0", "current_trial": 120, "dateTime": 1513120469909, "trialdata": {"rt": -1, "stimulus": "<p id=\"stim\">8</p>", "key_press": -1, "trial_type": "single-stim", "trial_index": 120, "time_elapsed": 624557, "internal_node_id": "0.0-91.0-2.0"}}, {"uniqueid": "MTK1120:3OLF68YTNA8RELYK4IFIO8JMHKHFA0", "current_trial": 121, "dateTime": 1513120470910, "trialdata": {"rt": -1, "stimulus": "<p id=\"stim\">7</p>", "key_press": -1, "trial_type": "single-stim", "trial_index": 121, "time_elapsed": 625559, "internal_node_id": "0.0-91.0-3.0"}}, {"uniqueid": "MTK1120:3OLF68YTNA8RELYK4IFIO8JMHKHFA0", "current_trial": 122, "dateTime": 1513120471912, "trialdata": {"rt": -1, "stimulus": "<p id=\"stim\">6</p>", "key_press": -1, "trial_type": "single-stim", "trial_index": 122, "time_elapsed": 626561, "internal_node_id": "0.0-91.0-4.0"}}, {"uniqueid": "MTK1120:3OLF68YTNA8RELYK4IFIO8JMHKHFA0", "current_trial": 123, "dateTime": 1513120472915, "trialdata": {"rt": -1, "stimulus": "<p id=\"stim\">5</p>", "key_press": -1, "trial_type": "single-stim", "trial_index": 123, "time_elapsed": 627564, "internal_node_id": "0.0-91.0-5.0"}}, {"uniqueid": "MTK1120:3OLF68YTNA8RELYK4IFIO8JMHKHFA0", "current_trial": 124, "dateTime": 1513120473920, "trialdata": {"rt": -1, "stimulus": "<p id=\"stim\">4</p>", "key_press": -1, "trial_type": "single-stim", "trial_index": 124, "time_elapsed": 628569, "internal_node_id": "0.0-91.0-6.0"}}, {"uniqueid": "MTK1120:3OLF68YTNA8RELYK4IFIO8JMHKHFA0", "current_trial": 125, "dateTime": 1513120474927, "trialdata": {"rt": -1, "stimulus": "<p id=\"stim\">3</p>", "key_press": -1, "trial_type": "single-stim", "trial_index": 125, "time_elapsed": 629575, "internal_node_id": "0.0-91.0-7.0"}}, {"uniqueid": "MTK1120:3OLF68YTNA8RELYK4IFIO8JMHKHFA0", "current_trial": 126, "dateTime": 1513120475931, "trialdata": {"rt": -1, "stimulus": "<p id=\"stim\">2</p>", "key_press": -1, "trial_type": "single-stim", "trial_index": 126, "time_elapsed": 630580, "internal_node_id": "0.0-91.0-8.0"}}, {"uniqueid": "MTK1120:3OLF68YTNA8RELYK4IFIO8JMHKHFA0", "current_trial": 127, "dateTime": 1513120476936, "trialdata": {"rt": -1, "stimulus": "<p id=\"stim\">1</p>", "key_press": -1, "trial_type": "single-stim", "trial_index": 127, "time_elapsed": 631584, "internal_node_id": "0.0-91.0-9.0"}}, {"uniqueid": "MTK1120:3OLF68YTNA8RELYK4IFIO8JMHKHFA0", "current_trial": 128, "dateTime": 1513120478441, "trialdata": {"rt": -1, "stimulus": "<p id=\"stim\">+</p>", "key_press": -1, "type": "FIXATION", "trial_type": "single-stim", "trial_index": 128, "time_elapsed": 633090, "internal_node_id": "0.0-92.0-0.0"}}, {"uniqueid": "MTK1120:3OLF68YTNA8RELYK4IFIO8JMHKHFA0", "current_trial": 129, "dateTime": 1513120479246, "trialdata": {"rt": -1, "stimulus": "<p id=\"stim\">HUMAN</p>", "key_press": -1, "type": "PRES_VIS", "word": "human", "wordID": 725, "conditions": [24, 800, "v", 24000], "trial": 3, "serialpos": 0, "trial_type": "single-stim", "trial_index": 129, "time_elapsed": 633895, "internal_node_id": "0.0-93.0"}}, {"uniqueid": "MTK1120:3OLF68YTNA8RELYK4IFIO8JMHKHFA0", "current_trial": 130, "dateTime": 1513120480971, "trialdata": {"rt": -1, "stimulus": "<p id=\"stim\">LIZARD</p>", "key_press": -1, "type": "PRES_VIS", "word": "lizard", "wordID": 833, "conditions": [24, 800, "v", 24000], "trial": 3, "serialpos": 1, "trial_type": "single-stim", "trial_index": 130, "time_elapsed": 635620, "internal_node_id": "0.0-94.0"}}, {"uniqueid": "MTK1120:3OLF68YTNA8RELYK4IFIO8JMHKHFA0", "current_trial": 131, "dateTime": 1513120482776, "trialdata": {"rt": -1, "stimulus": "<p id=\"stim\">LAKE</p>", "key_press": -1, "type": "PRES_VIS", "word": "lake", "wordID": 795, "conditions": [24, 800, "v", 24000], "trial": 3, "serialpos": 2, "trial_type": "single-stim", "trial_index": 131, "time_elapsed": 637424, "internal_node_id": "0.0-95.0"}}, {"uniqueid": "MTK1120:3OLF68YTNA8RELYK4IFIO8JMHKHFA0", "current_trial": 132, "dateTime": 1513120484449, "trialdata": {"rt": -1, "stimulus": "<p id=\"stim\">BULLET</p>", "key_press": -1, "type": "PRES_VIS", "word": "bullet", "wordID": 193, "conditions": [24, 800, "v", 24000], "trial": 3, "serialpos": 3, "trial_type": "single-stim", "trial_index": 132, "time_elapsed": 639097, "internal_node_id": "0.0-96.0"}}, {"uniqueid": "MTK1120:3OLF68YTNA8RELYK4IFIO8JMHKHFA0", "current_trial": 133, "dateTime": 1513120486101, "trialdata": {"rt": -1, "stimulus": "<p id=\"stim\">CATTLE</p>", "key_press": -1, "type": "PRES_VIS", "word": "cattle", "wordID": 260, "conditions": [24, 800, "v", 24000], "trial": 3, "serialpos": 4, "trial_type": "single-stim", "trial_index": 133, "time_elapsed": 640750, "internal_node_id": "0.0-97.0"}}, {"uniqueid": "MTK1120:3OLF68YTNA8RELYK4IFIO8JMHKHFA0", "current_trial": 134, "dateTime": 1513120487950, "trialdata": {"rt": -1, "stimulus": "<p id=\"stim\">RIVER</p>", "key_press": -1, "type": "PRES_VIS", "word": "river", "wordID": 1193, "conditions": [24, 800, "v", 24000], "trial": 3, "serialpos": 5, "trial_type": "single-stim", "trial_index": 134, "time_elapsed": 642598, "internal_node_id": "0.0-98.0"}}, {"uniqueid": "MTK1120:3OLF68YTNA8RELYK4IFIO8JMHKHFA0", "current_trial": 135, "dateTime": 1513120489812, "trialdata": {"rt": -1, "stimulus": "<p id=\"stim\">PICNIC</p>", "key_press": -1, "type": "PRES_VIS", "word": "picnic", "wordID": 1059, "conditions": [24, 800, "v", 24000], "trial": 3, "serialpos": 6, "trial_type": "single-stim", "trial_index": 135, "time_elapsed": 644461, "internal_node_id": "0.0-99.0"}}, {"uniqueid": "MTK1120:3OLF68YTNA8RELYK4IFIO8JMHKHFA0", "current_trial": 136, "dateTime": 1513120491500, "trialdata": {"rt": -1, "stimulus": "<p id=\"stim\">COSTUME</p>", "key_press": -1, "type": "PRES_VIS", "word": "costume", "wordID": 382, "conditions": [24, 800, "v", 24000], "trial": 3, "serialpos": 7, "trial_type": "single-stim", "trial_index": 136, "time_elapsed": 646149, "internal_node_id": "0.0-100.0"}}, {"uniqueid": "MTK1120:3OLF68YTNA8RELYK4IFIO8JMHKHFA0", "current_trial": 137, "dateTime": 1513120493328, "trialdata": {"rt": -1, "stimulus": "<p id=\"stim\">WARDROBE</p>", "key_press": -1, "type": "PRES_VIS", "word": "wardrobe", "wordID": 1586, "conditions": [24, 800, "v", 24000], "trial": 3, "serialpos": 8, "trial_type": "single-stim", "trial_index": 137, "time_elapsed": 647977, "internal_node_id": "0.0-101.0"}}, {"uniqueid": "MTK1120:3OLF68YTNA8RELYK4IFIO8JMHKHFA0", "current_trial": 138, "dateTime": 1513120495018, "trialdata": {"rt": -1, "stimulus": "<p id=\"stim\">PARROT</p>", "key_press": -1, "type": "PRES_VIS", "word": "parrot", "wordID": 1014, "conditions": [24, 800, "v", 24000], "trial": 3, "serialpos": 9, "trial_type": "single-stim", "trial_index": 138, "time_elapsed": 649667, "internal_node_id": "0.0-102.0"}}, {"uniqueid": "MTK1120:3OLF68YTNA8RELYK4IFIO8JMHKHFA0", "current_trial": 139, "dateTime": 1513120496760, "trialdata": {"rt": -1, "stimulus": "<p id=\"stim\">QUEEN</p>", "key_press": -1, "type": "PRES_VIS", "word": "queen", "wordID": 1148, "conditions": [24, 800, "v", 24000], "trial": 3, "serialpos": 10, "trial_type": "single-stim", "trial_index": 139, "time_elapsed": 651409, "internal_node_id": "0.0-103.0"}}, {"uniqueid": "MTK1120:3OLF68YTNA8RELYK4IFIO8JMHKHFA0", "current_trial": 140, "dateTime": 1513120498405, "trialdata": {"rt": -1, "stimulus": "<p id=\"stim\">BANJO</p>", "key_press": -1, "type": "PRES_VIS", "word": "banjo", "wordID": 81, "conditions": [24, 800, "v", 24000], "trial": 3, "serialpos": 11, "trial_type": "single-stim", "trial_index": 140, "time_elapsed": 653054, "internal_node_id": "0.0-104.0"}}, {"uniqueid": "MTK1120:3OLF68YTNA8RELYK4IFIO8JMHKHFA0", "current_trial": 141, "dateTime": 1513120500121, "trialdata": {"rt": -1, "stimulus": "<p id=\"stim\">STAR</p>", "key_press": -1, "type": "PRES_VIS", "word": "star", "wordID": 1372, "conditions": [24, 800, "v", 24000], "trial": 3, "serialpos": 12, "trial_type": "single-stim", "trial_index": 141, "time_elapsed": 654770, "internal_node_id": "0.0-105.0"}}, {"uniqueid": "MTK1120:3OLF68YTNA8RELYK4IFIO8JMHKHFA0", "current_trial": 142, "dateTime": 1513120501921, "trialdata": {"rt": -1, "stimulus": "<p id=\"stim\">LETTUCE</p>", "key_press": -1, "type": "PRES_VIS", "word": "lettuce", "wordID": 813, "conditions": [24, 800, "v", 24000], "trial": 3, "serialpos": 13, "trial_type": "single-stim", "trial_index": 142, "time_elapsed": 656570, "internal_node_id": "0.0-106.0"}}, {"uniqueid": "MTK1120:3OLF68YTNA8RELYK4IFIO8JMHKHFA0", "current_trial": 143, "dateTime": 1513120503545, "trialdata": {"rt": -1, "stimulus": "<p id=\"stim\">HELMET</p>", "key_press": -1, "type": "PRES_VIS", "word": "helmet", "wordID": 701, "conditions": [24, 800, "v", 24000], "trial": 3, "serialpos": 14, "trial_type": "single-stim", "trial_index": 143, "time_elapsed": 658194, "internal_node_id": "0.0-107.0"}}, {"uniqueid": "MTK1120:3OLF68YTNA8RELYK4IFIO8JMHKHFA0", "current_trial": 144, "dateTime": 1513120505435, "trialdata": {"rt": -1, "stimulus": "<p id=\"stim\">PARENT</p>", "key_press": -1, "type": "PRES_VIS", "word": "parent", "wordID": 1012, "conditions": [24, 800, "v", 24000], "trial": 3, "serialpos": 15, "trial_type": "single-stim", "trial_index": 144, "time_elapsed": 660084, "internal_node_id": "0.0-108.0"}}, {"uniqueid": "MTK1120:3OLF68YTNA8RELYK4IFIO8JMHKHFA0", "current_trial": 145, "dateTime": 1513120507136, "trialdata": {"rt": -1, "stimulus": "<p id=\"stim\">PARTNER</p>", "key_press": -1, "type": "PRES_VIS", "word": "partner", "wordID": 1016, "conditions": [24, 800, "v", 24000], "trial": 3, "serialpos": 16, "trial_type": "single-stim", "trial_index": 145, "time_elapsed": 661785, "internal_node_id": "0.0-109.0"}}, {"uniqueid": "MTK1120:3OLF68YTNA8RELYK4IFIO8JMHKHFA0", "current_trial": 146, "dateTime": 1513120508764, "trialdata": {"rt": -1, "stimulus": "<p id=\"stim\">MATCH</p>", "key_press": -1, "type": "PRES_VIS", "word": "match", "wordID": 877, "conditions": [24, 800, "v", 24000], "trial": 3, "serialpos": 17, "trial_type": "single-stim", "trial_index": 146, "time_elapsed": 663413, "internal_node_id": "0.0-110.0"}}, {"uniqueid": "MTK1120:3OLF68YTNA8RELYK4IFIO8JMHKHFA0", "current_trial": 147, "dateTime": 1513120510468, "trialdata": {"rt": -1, "stimulus": "<p id=\"stim\">LIGHTNING</p>", "key_press": -1, "type": "PRES_VIS", "word": "lightning", "wordID": 819, "conditions": [24, 800, "v", 24000], "trial": 3, "serialpos": 18, "trial_type": "single-stim", "trial_index": 147, "time_elapsed": 665117, "internal_node_id": "0.0-111.0"}}, {"uniqueid": "MTK1120:3OLF68YTNA8RELYK4IFIO8JMHKHFA0", "current_trial": 148, "dateTime": 1513120512340, "trialdata": {"rt": -1, "stimulus": "<p id=\"stim\">COWBOY</p>", "key_press": -1, "type": "PRES_VIS", "word": "cowboy", "wordID": 394, "conditions": [24, 800, "v", 24000], "trial": 3, "serialpos": 19, "trial_type": "single-stim", "trial_index": 148, "time_elapsed": 666989, "internal_node_id": "0.0-112.0"}}, {"uniqueid": "MTK1120:3OLF68YTNA8RELYK4IFIO8JMHKHFA0", "current_trial": 149, "dateTime": 1513120514252, "trialdata": {"rt": -1, "stimulus": "<p id=\"stim\">CABBAGE</p>", "key_press": -1, "type": "PRES_VIS", "word": "cabbage", "wordID": 209, "conditions": [24, 800, "v", 24000], "trial": 3, "serialpos": 20, "trial_type": "single-stim", "trial_index": 149, "time_elapsed": 668901, "internal_node_id": "0.0-113.0"}}, {"uniqueid": "MTK1120:3OLF68YTNA8RELYK4IFIO8JMHKHFA0", "current_trial": 150, "dateTime": 1513120516125, "trialdata": {"rt": -1, "stimulus": "<p id=\"stim\">FRUIT</p>", "key_press": -1, "type": "PRES_VIS", "word": "fruit", "wordID": 609, "conditions": [24, 800, "v", 24000], "trial": 3, "serialpos": 21, "trial_type": "single-stim", "trial_index": 150, "time_elapsed": 670774, "internal_node_id": "0.0-114.0"}}, {"uniqueid": "MTK1120:3OLF68YTNA8RELYK4IFIO8JMHKHFA0", "current_trial": 151, "dateTime": 1513120517879, "trialdata": {"rt": -1, "stimulus": "<p id=\"stim\">COLLEGE</p>", "key_press": -1, "type": "PRES_VIS", "word": "college", "wordID": 345, "conditions": [24, 800, "v", 24000], "trial": 3, "serialpos": 22, "trial_type": "single-stim", "trial_index": 151, "time_elapsed": 672528, "internal_node_id": "0.0-115.0"}}, {"uniqueid": "MTK1120:3OLF68YTNA8RELYK4IFIO8JMHKHFA0", "current_trial": 152, "dateTime": 1513120519728, "trialdata": {"rt": -1, "stimulus": "<p id=\"stim\">STUDENT</p>", "key_press": -1, "type": "PRES_VIS", "word": "student", "wordID": 1394, "conditions": [24, 800, "v", 24000], "trial": 3, "serialpos": 23, "trial_type": "single-stim", "trial_index": 152, "time_elapsed": 674377, "internal_node_id": "0.0-116.0"}}, {"uniqueid": "MTK1120:3OLF68YTNA8RELYK4IFIO8JMHKHFA0", "current_trial": 153, "dateTime": 1513120521898, "trialdata": {"rt": -1, "stimulus": "", "key_press": -1, "type": "PRE_RECALL_DELAY", "trial_type": "single-stim", "trial_index": 153, "time_elapsed": 676547, "internal_node_id": "0.0-117.0-0.0"}}, {"uniqueid": "MTK1120:3OLF68YTNA8RELYK4IFIO8JMHKHFA0", "current_trial": 154, "dateTime": 1513120522401, "trialdata": {"rt": -1000, "stimulus": "/static/audio/400Hz.wav", "key_press": -1, "type": "PRE_RECALL_ALERT", "trial_type": "single-audio", "trial_index": 154, "time_elapsed": 677049, "internal_node_id": "0.0-118.0"}}, {"uniqueid": "MTK1120:3OLF68YTNA8RELYK4IFIO8JMHKHFA0", "current_trial": 155, "dateTime": 1513120582413, "trialdata": {"rt": [5572, 8052, 8755, 10632, 13506, 16772, 18748, 20594, 24512, 25899, 27746, 29389, 30827, 33151, 34584, 39196, 41683, 43900, 44995, 46177, 50429], "recwords": ["human", "lizard", "lake", "bullet", "castle", "picnic", "custome", "parrot", "queen", "star", "lettuce", "helmet", "parent", "partner", "match", "lightning", "cowboy", "fruit'cabbage", "college", "student", "mom"], "type": "FREE_RECALL", "conditions": [24, 800, "v", 24000], "trial": 3, "trial_type": "free-recall", "trial_index": 155, "time_elapsed": 737058, "internal_node_id": "0.0-119.0-0.0"}}, {"uniqueid": "MTK1120:3OLF68YTNA8RELYK4IFIO8JMHKHFA0", "current_trial": 156, "dateTime": 1513120587236, "trialdata": {"rt": 2817, "key_press": 32, "type": "INSTRUCTIONS", "trial_type": "text", "trial_index": 156, "time_elapsed": 741885, "internal_node_id": "0.0-120.0"}}, {"uniqueid": "MTK1120:3OLF68YTNA8RELYK4IFIO8JMHKHFA0", "current_trial": 157, "dateTime": 1513120613244, "trialdata": {"rt": [1854, 5362, 7000, 9702, 11758, 13491, 16336, 18150, 20821], "responses": ["7", "19", "9", "13", "11", "17", "16", "12", "15"], "num1": [1, 5, 1, 7, 7, 8, 9, 1, 8, 9], "num2": [5, 9, 7, 2, 3, 2, 3, 9, 5, 6], "num3": [1, 6, 1, 4, 1, 7, 4, 2, 3, 9], "type": "DISTRACTOR", "conditions": [24, 800, "a", 24000], "trial": 4, "trial_type": "math-distractor", "trial_index": 157, "time_elapsed": 767893, "internal_node_id": "0.0-121.0"}}, {"uniqueid": "MTK1120:3OLF68YTNA8RELYK4IFIO8JMHKHFA0", "current_trial": 158, "dateTime": 1513120616248, "trialdata": {"rt": -1, "stimulus": "<p id=\"stim\">10</p>", "key_press": -1, "trial_type": "single-stim", "trial_index": 158, "time_elapsed": 770896, "internal_node_id": "0.0-122.0-0.0"}}, {"uniqueid": "MTK1120:3OLF68YTNA8RELYK4IFIO8JMHKHFA0", "current_trial": 159, "dateTime": 1513120617252, "trialdata": {"rt": -1, "stimulus": "<p id=\"stim\">9</p>", "key_press": -1, "trial_type": "single-stim", "trial_index": 159, "time_elapsed": 771901, "internal_node_id": "0.0-122.0-1.0"}}, {"uniqueid": "MTK1120:3OLF68YTNA8RELYK4IFIO8JMHKHFA0", "current_trial": 160, "dateTime": 1513120618254, "trialdata": {"rt": -1, "stimulus": "<p id=\"stim\">8</p>", "key_press": -1, "trial_type": "single-stim", "trial_index": 160, "time_elapsed": 772903, "internal_node_id": "0.0-122.0-2.0"}}, {"uniqueid": "MTK1120:3OLF68YTNA8RELYK4IFIO8JMHKHFA0", "current_trial": 161, "dateTime": 1513120619257, "trialdata": {"rt": -1, "stimulus": "<p id=\"stim\">7</p>", "key_press": -1, "trial_type": "single-stim", "trial_index": 161, "time_elapsed": 773906, "internal_node_id": "0.0-122.0-3.0"}}, {"uniqueid": "MTK1120:3OLF68YTNA8RELYK4IFIO8JMHKHFA0", "current_trial": 162, "dateTime": 1513120620259, "trialdata": {"rt": -1, "stimulus": "<p id=\"stim\">6</p>", "key_press": -1, "trial_type": "single-stim", "trial_index": 162, "time_elapsed": 774908, "internal_node_id": "0.0-122.0-4.0"}}, {"uniqueid": "MTK1120:3OLF68YTNA8RELYK4IFIO8JMHKHFA0", "current_trial": 163, "dateTime": 1513120621262, "trialdata": {"rt": -1, "stimulus": "<p id=\"stim\">5</p>", "key_press": -1, "trial_type": "single-stim", "trial_index": 163, "time_elapsed": 775911, "internal_node_id": "0.0-122.0-5.0"}}, {"uniqueid": "MTK1120:3OLF68YTNA8RELYK4IFIO8JMHKHFA0", "current_trial": 164, "dateTime": 1513120622264, "trialdata": {"rt": -1, "stimulus": "<p id=\"stim\">4</p>", "key_press": -1, "trial_type": "single-stim", "trial_index": 164, "time_elapsed": 776913, "internal_node_id": "0.0-122.0-6.0"}}, {"uniqueid": "MTK1120:3OLF68YTNA8RELYK4IFIO8JMHKHFA0", "current_trial": 165, "dateTime": 1513120623268, "trialdata": {"rt": -1, "stimulus": "<p id=\"stim\">3</p>", "key_press": -1, "trial_type": "single-stim", "trial_index": 165, "time_elapsed": 777917, "internal_node_id": "0.0-122.0-7.0"}}, {"uniqueid": "MTK1120:3OLF68YTNA8RELYK4IFIO8JMHKHFA0", "current_trial": 166, "dateTime": 1513120624273, "trialdata": {"rt": -1, "stimulus": "<p id=\"stim\">2</p>", "key_press": -1, "trial_type": "single-stim", "trial_index": 166, "time_elapsed": 778922, "internal_node_id": "0.0-122.0-8.0"}}, {"uniqueid": "MTK1120:3OLF68YTNA8RELYK4IFIO8JMHKHFA0", "current_trial": 167, "dateTime": 1513120625277, "trialdata": {"rt": -1, "stimulus": "<p id=\"stim\">1</p>", "key_press": -1, "trial_type": "single-stim", "trial_index": 167, "time_elapsed": 779926, "internal_node_id": "0.0-122.0-9.0"}}, {"uniqueid": "MTK1120:3OLF68YTNA8RELYK4IFIO8JMHKHFA0", "current_trial": 168, "dateTime": 1513120626781, "trialdata": {"rt": -1, "stimulus": "<p id=\"stim\">+</p>", "key_press": -1, "type": "FIXATION", "trial_type": "single-stim", "trial_index": 168, "time_elapsed": 781430, "internal_node_id": "0.0-123.0-0.0"}}, {"uniqueid": "MTK1120:3OLF68YTNA8RELYK4IFIO8JMHKHFA0", "current_trial": 169, "dateTime": 1513120628571, "trialdata": {"rt": -1000, "stimulus": "/static/audio/wordpool/ONION.wav", "key_press": -1, "type": "PRES_AUD", "word": "onion", "wordID": 976, "conditions": [24, 800, "a", 24000], "trial": 4, "serialpos": 0, "trial_type": "single-audio", "trial_index": 169, "time_elapsed": 783220, "internal_node_id": "0.0-124.0"}}, {"uniqueid": "MTK1120:3OLF68YTNA8RELYK4IFIO8JMHKHFA0", "current_trial": 170, "dateTime": 1513120630382, "trialdata": {"rt": -1000, "stimulus": "/static/audio/wordpool/ROOSTER.wav", "key_press": -1, "type": "PRES_AUD", "word": "rooster", "wordID": 1208, "conditions": [24, 800, "a", 24000], "trial": 4, "serialpos": 1, "trial_type": "single-audio", "trial_index": 170, "time_elapsed": 785031, "internal_node_id": "0.0-125.0"}}, {"uniqueid": "MTK1120:3OLF68YTNA8RELYK4IFIO8JMHKHFA0", "current_trial": 171, "dateTime": 1513120632090, "trialdata": {"rt": -1000, "stimulus": "/static/audio/wordpool/SHRUB.wav", "key_press": -1, "type": "PRES_AUD", "word": "shrub", "wordID": 1298, "conditions": [24, 800, "a", 24000], "trial": 4, "serialpos": 2, "trial_type": "single-audio", "trial_index": 171, "time_elapsed": 786739, "internal_node_id": "0.0-126.0"}}, {"uniqueid": "MTK1120:3OLF68YTNA8RELYK4IFIO8JMHKHFA0", "current_trial": 172, "dateTime": 1513120634001, "trialdata": {"rt": -1000, "stimulus": "/static/audio/wordpool/RAFT.wav", "key_press": -1, "type": "PRES_AUD", "word": "raft", "wordID": 1158, "conditions": [24, 800, "a", 24000], "trial": 4, "serialpos": 3, "trial_type": "single-audio", "trial_index": 172, "time_elapsed": 788650, "internal_node_id": "0.0-127.0"}}, {"uniqueid": "MTK1120:3OLF68YTNA8RELYK4IFIO8JMHKHFA0", "current_trial": 173, "dateTime": 1513120635854, "trialdata": {"rt": -1000, "stimulus": "/static/audio/wordpool/PIANO.wav", "key_press": -1, "type": "PRES_AUD", "word": "piano", "wordID": 1056, "conditions": [24, 800, "a", 24000], "trial": 4, "serialpos": 4, "trial_type": "single-audio", "trial_index": 173, "time_elapsed": 790503, "internal_node_id": "0.0-128.0"}}, {"uniqueid": "MTK1120:3OLF68YTNA8RELYK4IFIO8JMHKHFA0", "current_trial": 174, "dateTime": 1513120637500, "trialdata": {"rt": -1000, "stimulus": "/static/audio/wordpool/TROMBONE.wav", "key_press": -1, "type": "PRES_AUD", "word": "trombone", "wordID": 1507, "conditions": [24, 800, "a", 24000], "trial": 4, "serialpos": 5, "trial_type": "single-audio", "trial_index": 174, "time_elapsed": 792149, "internal_node_id": "0.0-129.0"}}, {"uniqueid": "MTK1120:3OLF68YTNA8RELYK4IFIO8JMHKHFA0", "current_trial": 175, "dateTime": 1513120639326, "trialdata": {"rt": -1000, "stimulus": "/static/audio/wordpool/TOMBSTONE.wav", "key_press": -1, "type": "PRES_AUD", "word": "tombstone", "wordID": 1477, "conditions": [24, 800, "a", 24000], "trial": 4, "serialpos": 6, "trial_type": "single-audio", "trial_index": 175, "time_elapsed": 793974, "internal_node_id": "0.0-130.0"}}, {"uniqueid": "MTK1120:3OLF68YTNA8RELYK4IFIO8JMHKHFA0", "current_trial": 176, "dateTime": 1513120641269, "trialdata": {"rt": -1000, "stimulus": "/static/audio/wordpool/SPACE.wav", "key_press": -1, "type": "PRES_AUD", "word": "space", "wordID": 1344, "conditions": [24, 800, "a", 24000], "trial": 4, "serialpos": 7, "trial_type": "single-audio", "trial_index": 176, "time_elapsed": 795918, "internal_node_id": "0.0-131.0"}}, {"uniqueid": "MTK1120:3OLF68YTNA8RELYK4IFIO8JMHKHFA0", "current_trial": 177, "dateTime": 1513120643184, "trialdata": {"rt": -1000, "stimulus": "/static/audio/wordpool/FRAME.wav", "key_press": -1, "type": "PRES_AUD", "word": "frame", "wordID": 599, "conditions": [24, 800, "a", 24000], "trial": 4, "serialpos": 8, "trial_type": "single-audio", "trial_index": 177, "time_elapsed": 797832, "internal_node_id": "0.0-132.0"}}, {"uniqueid": "MTK1120:3OLF68YTNA8RELYK4IFIO8JMHKHFA0", "current_trial": 178, "dateTime": 1513120644799, "trialdata": {"rt": -1000, "stimulus": "/static/audio/wordpool/BABY.wav", "key_press": -1, "type": "PRES_AUD", "word": "baby", "wordID": 63, "conditions": [24, 800, "a", 24000], "trial": 4, "serialpos": 9, "trial_type": "single-audio", "trial_index": 178, "time_elapsed": 799448, "internal_node_id": "0.0-133.0"}}, {"uniqueid": "MTK1120:3OLF68YTNA8RELYK4IFIO8JMHKHFA0", "current_trial": 179, "dateTime": 1513120646758, "trialdata": {"rt": -1000, "stimulus": "/static/audio/wordpool/FLASHLIGHT.wav", "key_press": -1, "type": "PRES_AUD", "word": "flashlight", "wordID": 574, "conditions": [24, 800, "a", 24000], "trial": 4, "serialpos": 10, "trial_type": "single-audio", "trial_index": 179, "time_elapsed": 801407, "internal_node_id": "0.0-134.0"}}, {"uniqueid": "MTK1120:3OLF68YTNA8RELYK4IFIO8JMHKHFA0", "current_trial": 180, "dateTime": 1513120648597, "trialdata": {"rt": -1000, "stimulus": "/static/audio/wordpool/RABBIT.wav", "key_press": -1, "type": "PRES_AUD", "word": "rabbit", "wordID": 1151, "conditions": [24, 800, "a", 24000], "trial": 4, "serialpos": 11, "trial_type": "single-audio", "trial_index": 180, "time_elapsed": 803246, "internal_node_id": "0.0-135.0"}}, {"uniqueid": "MTK1120:3OLF68YTNA8RELYK4IFIO8JMHKHFA0", "current_trial": 181, "dateTime": 1513120650358, "trialdata": {"rt": -1000, "stimulus": "/static/audio/wordpool/LAVA.wav", "key_press": -1, "type": "PRES_AUD", "word": "lava", "wordID": 803, "conditions": [24, 800, "a", 24000], "trial": 4, "serialpos": 12, "trial_type": "single-audio", "trial_index": 181, "time_elapsed": 805006, "internal_node_id": "0.0-136.0"}}, {"uniqueid": "MTK1120:3OLF68YTNA8RELYK4IFIO8JMHKHFA0", "current_trial": 182, "dateTime": 1513120652144, "trialdata": {"rt": -1000, "stimulus": "/static/audio/wordpool/CRATER.wav", "key_press": -1, "type": "PRES_AUD", "word": "crater", "wordID": 399, "conditions": [24, 800, "a", 24000], "trial": 4, "serialpos": 13, "trial_type": "single-audio", "trial_index": 182, "time_elapsed": 806793, "internal_node_id": "0.0-137.0"}}, {"uniqueid": "MTK1120:3OLF68YTNA8RELYK4IFIO8JMHKHFA0", "current_trial": 183, "dateTime": 1513120653767, "trialdata": {"rt": -1000, "stimulus": "/static/audio/wordpool/DOLPHIN.wav", "key_press": -1, "type": "PRES_AUD", "word": "dolphin", "wordID": 482, "conditions": [24, 800, "a", 24000], "trial": 4, "serialpos": 14, "trial_type": "single-audio", "trial_index": 183, "time_elapsed": 808416, "internal_node_id": "0.0-138.0"}}, {"uniqueid": "MTK1120:3OLF68YTNA8RELYK4IFIO8JMHKHFA0", "current_trial": 184, "dateTime": 1513120655658, "trialdata": {"rt": -1000, "stimulus": "/static/audio/wordpool/BASEMENT.wav", "key_press": -1, "type": "PRES_AUD", "word": "basement", "wordID": 93, "conditions": [24, 800, "a", 24000], "trial": 4, "serialpos": 15, "trial_type": "single-audio", "trial_index": 184, "time_elapsed": 810307, "internal_node_id": "0.0-139.0"}}, {"uniqueid": "MTK1120:3OLF68YTNA8RELYK4IFIO8JMHKHFA0", "current_trial": 185, "dateTime": 1513120657440, "trialdata": {"rt": -1000, "stimulus": "/static/audio/wordpool/MAMMAL.wav", "key_press": -1, "type": "PRES_AUD", "word": "mammal", "wordID": 860, "conditions": [24, 800, "a", 24000], "trial": 4, "serialpos": 16, "trial_type": "single-audio", "trial_index": 185, "time_elapsed": 812089, "internal_node_id": "0.0-140.0"}}, {"uniqueid": "MTK1120:3OLF68YTNA8RELYK4IFIO8JMHKHFA0", "current_trial": 186, "dateTime": 1513120659397, "trialdata": {"rt": -1000, "stimulus": "/static/audio/wordpool/BEAKER.wav", "key_press": -1, "type": "PRES_AUD", "word": "beaker", "wordID": 103, "conditions": [24, 800, "a", 24000], "trial": 4, "serialpos": 17, "trial_type": "single-audio", "trial_index": 186, "time_elapsed": 814046, "internal_node_id": "0.0-141.0"}}, {"uniqueid": "MTK1120:3OLF68YTNA8RELYK4IFIO8JMHKHFA0", "current_trial": 187, "dateTime": 1513120661344, "trialdata": {"rt": -1000, "stimulus": "/static/audio/wordpool/SCARECROW.wav", "key_press": -1, "type": "PRES_AUD", "word": "scarecrow", "wordID": 1244, "conditions": [24, 800, "a", 24000], "trial": 4, "serialpos": 18, "trial_type": "single-audio", "trial_index": 187, "time_elapsed": 815993, "internal_node_id": "0.0-142.0"}}, {"uniqueid": "MTK1120:3OLF68YTNA8RELYK4IFIO8JMHKHFA0", "current_trial": 188, "dateTime": 1513120662991, "trialdata": {"rt": -1000, "stimulus": "/static/audio/wordpool/SHARK.wav", "key_press": -1, "type": "PRES_AUD", "word": "shark", "wordID": 1274, "conditions": [24, 800, "a", 24000], "trial": 4, "serialpos": 19, "trial_type": "single-audio", "trial_index": 188, "time_elapsed": 817640, "internal_node_id": "0.0-143.0"}}, {"uniqueid": "MTK1120:3OLF68YTNA8RELYK4IFIO8JMHKHFA0", "current_trial": 189, "dateTime": 1513120664934, "trialdata": {"rt": -1000, "stimulus": "/static/audio/wordpool/PLAZA.wav", "key_press": -1, "type": "PRES_AUD", "word": "plaza", "wordID": 1087, "conditions": [24, 800, "a", 24000], "trial": 4, "serialpos": 20, "trial_type": "single-audio", "trial_index": 189, "time_elapsed": 819583, "internal_node_id": "0.0-144.0"}}, {"uniqueid": "MTK1120:3OLF68YTNA8RELYK4IFIO8JMHKHFA0", "current_trial": 190, "dateTime": 1513120666849, "trialdata": {"rt": -1000, "stimulus": "/static/audio/wordpool/OMELET.wav", "key_press": -1, "type": "PRES_AUD", "word": "omelet", "wordID": 975, "conditions": [24, 800, "a", 24000], "trial": 4, "serialpos": 21, "trial_type": "single-audio", "trial_index": 190, "time_elapsed": 821498, "internal_node_id": "0.0-145.0"}}, {"uniqueid": "MTK1120:3OLF68YTNA8RELYK4IFIO8JMHKHFA0", "current_trial": 191, "dateTime": 1513120668843, "trialdata": {"rt": -1000, "stimulus": "/static/audio/wordpool/CIGAR.wav", "key_press": -1, "type": "PRES_AUD", "word": "cigar", "wordID": 307, "conditions": [24, 800, "a", 24000], "trial": 4, "serialpos": 22, "trial_type": "single-audio", "trial_index": 191, "time_elapsed": 823491, "internal_node_id": "0.0-146.0"}}, {"uniqueid": "MTK1120:3OLF68YTNA8RELYK4IFIO8JMHKHFA0", "current_trial": 192, "dateTime": 1513120670588, "trialdata": {"rt": -1000, "stimulus": "/static/audio/wordpool/TUBA.wav", "key_press": -1, "type": "PRES_AUD", "word": "tuba", "wordID": 1514, "conditions": [24, 800, "a", 24000], "trial": 4, "serialpos": 23, "trial_type": "single-audio", "trial_index": 192, "time_elapsed": 825237, "internal_node_id": "0.0-147.0"}}, {"uniqueid": "MTK1120:3OLF68YTNA8RELYK4IFIO8JMHKHFA0", "current_trial": 193, "dateTime": 1513120671886, "trialdata": {"rt": -1, "stimulus": "", "key_press": -1, "type": "PRE_RECALL_DELAY", "trial_type": "single-stim", "trial_index": 193, "time_elapsed": 826535, "internal_node_id": "0.0-148.0-0.0"}}, {"uniqueid": "MTK1120:3OLF68YTNA8RELYK4IFIO8JMHKHFA0", "current_trial": 194, "dateTime": 1513120672392, "trialdata": {"rt": -1000, "stimulus": "/static/audio/400Hz.wav", "key_press": -1, "type": "PRE_RECALL_ALERT", "trial_type": "single-audio", "trial_index": 194, "time_elapsed": 827041, "internal_node_id": "0.0-149.0"}}, {"uniqueid": "MTK1120:3OLF68YTNA8RELYK4IFIO8JMHKHFA0", "current_trial": 195, "dateTime": 1513120732404, "trialdata": {"rt": [2784, 4538, 7269, 11702, 13436, 15503, 17022, 19480, 21913, 24178, 27267, 28231, 29240, 31171, 32657, 33673, 36152, 39408, 41597, 44014, 57732], "recwords": ["cigar", "tuba", "omlet", "onion", "rooster", "shrub", "raft", "piano", "mom", "tumb", "space", "frame", "baby", "flashing", "rabbit", "lava", "crater", "dohplin", "basement", "mammal", "scarcrow"], "type": "FREE_RECALL", "conditions": [24, 800, "a", 24000], "trial": 4, "trial_type": "free-recall", "trial_index": 195, "time_elapsed": 887048, "internal_node_id": "0.0-150.0-0.0"}}, {"uniqueid": "MTK1120:3OLF68YTNA8RELYK4IFIO8JMHKHFA0", "current_trial": 196, "dateTime": 1513120738243, "trialdata": {"rt": 3837, "key_press": 32, "type": "INSTRUCTIONS", "trial_type": "text", "trial_index": 196, "time_elapsed": 892892, "internal_node_id": "0.0-151.0"}}, {"uniqueid": "MTK1120:3OLF68YTNA8RELYK4IFIO8JMHKHFA0", "current_trial": 197, "dateTime": 1513120764253, "trialdata": {"rt": [3490, 7635, 10289, 11865, 13832, 15734, 17578, 19054, 21434, 23100], "responses": ["16", "22", "20", "6", "12", "14", "18", "16", "14", "18"], "num1": [4, 8, 4, 2, 3, 6, 1, 5, 9, 8, 8], "num2": [8, 9, 8, 3, 4, 1, 8, 5, 2, 9, 2], "num3": [4, 4, 8, 1, 5, 7, 9, 6, 3, 1, 1], "type": "DISTRACTOR", "conditions": [24, 1600, "v", 24000], "trial": 5, "trial_type": "math-distractor", "trial_index": 197, "time_elapsed": 918902, "internal_node_id": "0.0-152.0"}}, {"uniqueid": "MTK1120:3OLF68YTNA8RELYK4IFIO8JMHKHFA0", "current_trial": 198, "dateTime": 1513120767259, "trialdata": {"rt": -1, "stimulus": "<p id=\"stim\">10</p>", "key_press": -1, "trial_type": "single-stim", "trial_index": 198, "time_elapsed": 921908, "internal_node_id": "0.0-153.0-0.0"}}, {"uniqueid": "MTK1120:3OLF68YTNA8RELYK4IFIO8JMHKHFA0", "current_trial": 199, "dateTime": 1513120768264, "trialdata": {"rt": -1, "stimulus": "<p id=\"stim\">9</p>", "key_press": -1, "trial_type": "single-stim", "trial_index": 199, "time_elapsed": 922913, "internal_node_id": "0.0-153.0-1.0"}}, {"uniqueid": "MTK1120:3OLF68YTNA8RELYK4IFIO8JMHKHFA0", "current_trial": 200, "dateTime": 1513120769269, "trialdata": {"rt": -1, "stimulus": "<p id=\"stim\">8</p>", "key_press": -1, "trial_type": "single-stim", "trial_index": 200, "time_elapsed": 923918, "internal_node_id": "0.0-153.0-2.0"}}, {"uniqueid": "MTK1120:3OLF68YTNA8RELYK4IFIO8JMHKHFA0", "current_trial": 201, "dateTime": 1513120770271, "trialdata": {"rt": -1, "stimulus": "<p id=\"stim\">7</p>", "key_press": -1, "trial_type": "single-stim", "trial_index": 201, "time_elapsed": 924920, "internal_node_id": "0.0-153.0-3.0"}}, {"uniqueid": "MTK1120:3OLF68YTNA8RELYK4IFIO8JMHKHFA0", "current_trial": 202, "dateTime": 1513120771274, "trialdata": {"rt": -1, "stimulus": "<p id=\"stim\">6</p>", "key_press": -1, "trial_type": "single-stim", "trial_index": 202, "time_elapsed": 925923, "internal_node_id": "0.0-153.0-4.0"}}, {"uniqueid": "MTK1120:3OLF68YTNA8RELYK4IFIO8JMHKHFA0", "current_trial": 203, "dateTime": 1513120772276, "trialdata": {"rt": -1, "stimulus": "<p id=\"stim\">5</p>", "key_press": -1, "trial_type": "single-stim", "trial_index": 203, "time_elapsed": 926925, "internal_node_id": "0.0-153.0-5.0"}}, {"uniqueid": "MTK1120:3OLF68YTNA8RELYK4IFIO8JMHKHFA0", "current_trial": 204, "dateTime": 1513120773281, "trialdata": {"rt": -1, "stimulus": "<p id=\"stim\">4</p>", "key_press": -1, "trial_type": "single-stim", "trial_index": 204, "time_elapsed": 927929, "internal_node_id": "0.0-153.0-6.0"}}, {"uniqueid": "MTK1120:3OLF68YTNA8RELYK4IFIO8JMHKHFA0", "current_trial": 205, "dateTime": 1513120774286, "trialdata": {"rt": -1, "stimulus": "<p id=\"stim\">3</p>", "key_press": -1, "trial_type": "single-stim", "trial_index": 205, "time_elapsed": 928935, "internal_node_id": "0.0-153.0-7.0"}}, {"uniqueid": "MTK1120:3OLF68YTNA8RELYK4IFIO8JMHKHFA0", "current_trial": 206, "dateTime": 1513120775288, "trialdata": {"rt": -1, "stimulus": "<p id=\"stim\">2</p>", "key_press": -1, "trial_type": "single-stim", "trial_index": 206, "time_elapsed": 929937, "internal_node_id": "0.0-153.0-8.0"}}, {"uniqueid": "MTK1120:3OLF68YTNA8RELYK4IFIO8JMHKHFA0", "current_trial": 207, "dateTime": 1513120776293, "trialdata": {"rt": -1, "stimulus": "<p id=\"stim\">1</p>", "key_press": -1, "trial_type": "single-stim", "trial_index": 207, "time_elapsed": 930941, "internal_node_id": "0.0-153.0-9.0"}}, {"uniqueid": "MTK1120:3OLF68YTNA8RELYK4IFIO8JMHKHFA0", "current_trial": 208, "dateTime": 1513120777795, "trialdata": {"rt": -1, "stimulus": "<p id=\"stim\">+</p>", "key_press": -1, "type": "FIXATION", "trial_type": "single-stim", "trial_index": 208, "time_elapsed": 932444, "internal_node_id": "0.0-154.0-0.0"}}, {"uniqueid": "MTK1120:3OLF68YTNA8RELYK4IFIO8JMHKHFA0", "current_trial": 209, "dateTime": 1513120779399, "trialdata": {"rt": -1, "stimulus": "<p id=\"stim\">FILM</p>", "key_press": -1, "type": "PRES_VIS", "word": "film", "wordID": 564, "conditions": [24, 1600, "v", 24000], "trial": 5, "serialpos": 0, "trial_type": "single-stim", "trial_index": 209, "time_elapsed": 934048, "internal_node_id": "0.0-155.0"}}, {"uniqueid": "MTK1120:3OLF68YTNA8RELYK4IFIO8JMHKHFA0", "current_trial": 210, "dateTime": 1513120782008, "trialdata": {"rt": -1, "stimulus": "<p id=\"stim\">BIKE</p>", "key_press": -1, "type": "PRES_VIS", "word": "bike", "wordID": 124, "conditions": [24, 1600, "v", 24000], "trial": 5, "serialpos": 1, "trial_type": "single-stim", "trial_index": 210, "time_elapsed": 936657, "internal_node_id": "0.0-156.0"}}, {"uniqueid": "MTK1120:3OLF68YTNA8RELYK4IFIO8JMHKHFA0", "current_trial": 211, "dateTime": 1513120784801, "trialdata": {"rt": -1, "stimulus": "<p id=\"stim\">HATCHET</p>", "key_press": -1, "type": "PRES_VIS", "word": "hatchet", "wordID": 690, "conditions": [24, 1600, "v", 24000], "trial": 5, "serialpos": 2, "trial_type": "single-stim", "trial_index": 211, "time_elapsed": 939450, "internal_node_id": "0.0-157.0"}}, {"uniqueid": "MTK1120:3OLF68YTNA8RELYK4IFIO8JMHKHFA0", "current_trial": 212, "dateTime": 1513120787372, "trialdata": {"rt": -1, "stimulus": "<p id=\"stim\">BRIEFCASE</p>", "key_press": -1, "type": "PRES_VIS", "word": "briefcase", "wordID": 174, "conditions": [24, 1600, "v", 24000], "trial": 5, "serialpos": 3, "trial_type": "single-stim", "trial_index": 212, "time_elapsed": 942021, "internal_node_id": "0.0-158.0"}}, {"uniqueid": "MTK1120:3OLF68YTNA8RELYK4IFIO8JMHKHFA0", "current_trial": 213, "dateTime": 1513120789939, "trialdata": {"rt": -1, "stimulus": "<p id=\"stim\">WIDOW</p>", "key_press": -1, "type": "PRES_VIS", "word": "widow", "wordID": 1607, "conditions": [24, 1600, "v", 24000], "trial": 5, "serialpos": 4, "trial_type": "single-stim", "trial_index": 213, "time_elapsed": 944587, "internal_node_id": "0.0-159.0"}}, {"uniqueid": "MTK1120:3OLF68YTNA8RELYK4IFIO8JMHKHFA0", "current_trial": 214, "dateTime": 1513120792629, "trialdata": {"rt": -1, "stimulus": "<p id=\"stim\">OX</p>", "key_press": -1, "type": "PRES_VIS", "word": "ox", "wordID": 993, "conditions": [24, 1600, "v", 24000], "trial": 5, "serialpos": 5, "trial_type": "single-stim", "trial_index": 214, "time_elapsed": 947278, "internal_node_id": "0.0-160.0"}}, {"uniqueid": "MTK1120:3OLF68YTNA8RELYK4IFIO8JMHKHFA0", "current_trial": 215, "dateTime": 1513120795188, "trialdata": {"rt": -1, "stimulus": "<p id=\"stim\">HAWK</p>", "key_press": -1, "type": "PRES_VIS", "word": "hawk", "wordID": 691, "conditions": [24, 1600, "v", 24000], "trial": 5, "serialpos": 6, "trial_type": "single-stim", "trial_index": 215, "time_elapsed": 949837, "internal_node_id": "0.0-161.0"}}, {"uniqueid": "MTK1120:3OLF68YTNA8RELYK4IFIO8JMHKHFA0", "current_trial": 216, "dateTime": 1513120797923, "trialdata": {"rt": -1, "stimulus": "<p id=\"stim\">COFFEE</p>", "key_press": -1, "type": "PRES_VIS", "word": "coffee", "wordID": 340, "conditions": [24, 1600, "v", 24000], "trial": 5, "serialpos": 7, "trial_type": "single-stim", "trial_index": 216, "time_elapsed": 952572, "internal_node_id": "0.0-162.0"}}, {"uniqueid": "MTK1120:3OLF68YTNA8RELYK4IFIO8JMHKHFA0", "current_trial": 217, "dateTime": 1513120800679, "trialdata": {"rt": -1, "stimulus": "<p id=\"stim\">ACTOR</p>", "key_press": -1, "type": "PRES_VIS", "word": "actor", "wordID": 4, "conditions": [24, 1600, "v", 24000], "trial": 5, "serialpos": 8, "trial_type": "single-stim", "trial_index": 217, "time_elapsed": 955328, "internal_node_id": "0.0-163.0"}}, {"uniqueid": "MTK1120:3OLF68YTNA8RELYK4IFIO8JMHKHFA0", "current_trial": 218, "dateTime": 1513120803231, "trialdata": {"rt": -1, "stimulus": "<p id=\"stim\">GARDEN</p>", "key_press": -1, "type": "PRES_VIS", "word": "garden", "wordID": 622, "conditions": [24, 1600, "v", 24000], "trial": 5, "serialpos": 9, "trial_type": "single-stim", "trial_index": 218, "time_elapsed": 957880, "internal_node_id": "0.0-164.0"}}, {"uniqueid": "MTK1120:3OLF68YTNA8RELYK4IFIO8JMHKHFA0", "current_trial": 219, "dateTime": 1513120805911, "trialdata": {"rt": -1, "stimulus": "<p id=\"stim\">ORCHID</p>", "key_press": -1, "type": "PRES_VIS", "word": "orchid", "wordID": 981, "conditions": [24, 1600, "v", 24000], "trial": 5, "serialpos": 10, "trial_type": "single-stim", "trial_index": 219, "time_elapsed": 960560, "internal_node_id": "0.0-165.0"}}, {"uniqueid": "MTK1120:3OLF68YTNA8RELYK4IFIO8JMHKHFA0", "current_trial": 220, "dateTime": 1513120808502, "trialdata": {"rt": -1, "stimulus": "<p id=\"stim\">MONEY</p>", "key_press": -1, "type": "PRES_VIS", "word": "money", "wordID": 907, "conditions": [24, 1600, "v", 24000], "trial": 5, "serialpos": 11, "trial_type": "single-stim", "trial_index": 220, "time_elapsed": 963150, "internal_node_id": "0.0-166.0"}}, {"uniqueid": "MTK1120:3OLF68YTNA8RELYK4IFIO8JMHKHFA0", "current_trial": 221, "dateTime": 1513120811024, "trialdata": {"rt": -1, "stimulus": "<p id=\"stim\">GALLON</p>", "key_press": -1, "type": "PRES_VIS", "word": "gallon", "wordID": 617, "conditions": [24, 1600, "v", 24000], "trial": 5, "serialpos": 12, "trial_type": "single-stim", "trial_index": 221, "time_elapsed": 965673, "internal_node_id": "0.0-167.0"}}, {"uniqueid": "MTK1120:3OLF68YTNA8RELYK4IFIO8JMHKHFA0", "current_trial": 222, "dateTime": 1513120813547, "trialdata": {"rt": -1, "stimulus": "<p id=\"stim\">BEAST</p>", "key_press": -1, "type": "PRES_VIS", "word": "beast", "wordID": 107, "conditions": [24, 1600, "v", 24000], "trial": 5, "serialpos": 13, "trial_type": "single-stim", "trial_index": 222, "time_elapsed": 968196, "internal_node_id": "0.0-168.0"}}, {"uniqueid": "MTK1120:3OLF68YTNA8RELYK4IFIO8JMHKHFA0", "current_trial": 223, "dateTime": 1513120816246, "trialdata": {"rt": -1, "stimulus": "<p id=\"stim\">PANTHER</p>", "key_press": -1, "type": "PRES_VIS", "word": "panther", "wordID": 1008, "conditions": [24, 1600, "v", 24000], "trial": 5, "serialpos": 14, "trial_type": "single-stim", "trial_index": 223, "time_elapsed": 970895, "internal_node_id": "0.0-169.0"}}, {"uniqueid": "MTK1120:3OLF68YTNA8RELYK4IFIO8JMHKHFA0", "current_trial": 224, "dateTime": 1513120818659, "trialdata": {"rt": -1, "stimulus": "<p id=\"stim\">QUAIL</p>", "key_press": -1, "type": "PRES_VIS", "word": "quail", "wordID": 1146, "conditions": [24, 1600, "v", 24000], "trial": 5, "serialpos": 15, "trial_type": "single-stim", "trial_index": 224, "time_elapsed": 973307, "internal_node_id": "0.0-170.0"}}, {"uniqueid": "MTK1120:3OLF68YTNA8RELYK4IFIO8JMHKHFA0", "current_trial": 225, "dateTime": 1513120821155, "trialdata": {"rt": -1, "stimulus": "<p id=\"stim\">STATUE</p>", "key_press": -1, "type": "PRES_VIS", "word": "statue", "wordID": 1373, "conditions": [24, 1600, "v", 24000], "trial": 5, "serialpos": 16, "trial_type": "single-stim", "trial_index": 225, "time_elapsed": 975804, "internal_node_id": "0.0-171.0"}}, {"uniqueid": "MTK1120:3OLF68YTNA8RELYK4IFIO8JMHKHFA0", "current_trial": 226, "dateTime": 1513120823703, "trialdata": {"rt": -1, "stimulus": "<p id=\"stim\">POPCORN</p>", "key_press": -1, "type": "PRES_VIS", "word": "popcorn", "wordID": 1103, "conditions": [24, 1600, "v", 24000], "trial": 5, "serialpos": 17, "trial_type": "single-stim", "trial_index": 226, "time_elapsed": 978352, "internal_node_id": "0.0-172.0"}}, {"uniqueid": "MTK1120:3OLF68YTNA8RELYK4IFIO8JMHKHFA0", "current_trial": 227, "dateTime": 1513120826342, "trialdata": {"rt": -1, "stimulus": "<p id=\"stim\">PORK</p>", "key_press": -1, "type": "PRES_VIS", "word": "pork", "wordID": 1107, "conditions": [24, 1600, "v", 24000], "trial": 5, "serialpos": 18, "trial_type": "single-stim", "trial_index": 227, "time_elapsed": 980991, "internal_node_id": "0.0-173.0"}}, {"uniqueid": "MTK1120:3OLF68YTNA8RELYK4IFIO8JMHKHFA0", "current_trial": 228, "dateTime": 1513120829040, "trialdata": {"rt": -1, "stimulus": "<p id=\"stim\">FLIPPER</p>", "key_press": -1, "type": "PRES_VIS", "word": "flipper", "wordID": 579, "conditions": [24, 1600, "v", 24000], "trial": 5, "serialpos": 19, "trial_type": "single-stim", "trial_index": 228, "time_elapsed": 983689, "internal_node_id": "0.0-174.0"}}, {"uniqueid": "MTK1120:3OLF68YTNA8RELYK4IFIO8JMHKHFA0", "current_trial": 229, "dateTime": 1513120831662, "trialdata": {"rt": -1, "stimulus": "<p id=\"stim\">CLOCK</p>", "key_press": -1, "type": "PRES_VIS", "word": "clock", "wordID": 324, "conditions": [24, 1600, "v", 24000], "trial": 5, "serialpos": 20, "trial_type": "single-stim", "trial_index": 229, "time_elapsed": 986311, "internal_node_id": "0.0-175.0"}}, {"uniqueid": "MTK1120:3OLF68YTNA8RELYK4IFIO8JMHKHFA0", "current_trial": 230, "dateTime": 1513120834444, "trialdata": {"rt": -1, "stimulus": "<p id=\"stim\">GRAPE</p>", "key_press": -1, "type": "PRES_VIS", "word": "grape", "wordID": 653, "conditions": [24, 1600, "v", 24000], "trial": 5, "serialpos": 21, "trial_type": "single-stim", "trial_index": 230, "time_elapsed": 989093, "internal_node_id": "0.0-176.0"}}, {"uniqueid": "MTK1120:3OLF68YTNA8RELYK4IFIO8JMHKHFA0", "current_trial": 231, "dateTime": 1513120837174, "trialdata": {"rt": -1, "stimulus": "<p id=\"stim\">BARLEY</p>", "key_press": -1, "type": "PRES_VIS", "word": "barley", "wordID": 87, "conditions": [24, 1600, "v", 24000], "trial": 5, "serialpos": 22, "trial_type": "single-stim", "trial_index": 231, "time_elapsed": 991823, "internal_node_id": "0.0-177.0"}}, {"uniqueid": "MTK1120:3OLF68YTNA8RELYK4IFIO8JMHKHFA0", "current_trial": 232, "dateTime": 1513120839943, "trialdata": {"rt": -1, "stimulus": "<p id=\"stim\">BEEF</p>", "key_press": -1, "type": "PRES_VIS", "word": "beef", "wordID": 112, "conditions": [24, 1600, "v", 24000], "trial": 5, "serialpos": 23, "trial_type": "single-stim", "trial_index": 232, "time_elapsed": 994591, "internal_node_id": "0.0-178.0"}}, {"uniqueid": "MTK1120:3OLF68YTNA8RELYK4IFIO8JMHKHFA0", "current_trial": 233, "dateTime": 1513120842005, "trialdata": {"rt": -1, "stimulus": "", "key_press": -1, "type": "PRE_RECALL_DELAY", "trial_type": "single-stim", "trial_index": 233, "time_elapsed": 996654, "internal_node_id": "0.0-179.0-0.0"}}, {"uniqueid": "MTK1120:3OLF68YTNA8RELYK4IFIO8JMHKHFA0", "current_trial": 234, "dateTime": 1513120842507, "trialdata": {"rt": -1000, "stimulus": "/static/audio/400Hz.wav", "key_press": -1, "type": "PRE_RECALL_ALERT", "trial_type": "single-audio", "trial_index": 234, "time_elapsed": 997156, "internal_node_id": "0.0-180.0"}}, {"uniqueid": "MTK1120:3OLF68YTNA8RELYK4IFIO8JMHKHFA0", "current_trial": 235, "dateTime": 1513120902513, "trialdata": {"rt": [4826, 7025, 11478, 14282, 15834, 17039, 20523, 22726, 25342, 28540, 33352, 36307, 38733, 45956, 47776, 50190, 51391, 53342, 55525, 58226, 59954], "recwords": ["film", "bike", "hatched", "breifcase", "window", "ox", "hawk", "coffee", "actor", "garden", "money", "gallon", "beast", "quilt", "statue", "popcorn", "gallon", "pork", "flip", "clock", "grapes"], "type": "FREE_RECALL", "conditions": [24, 1600, "v", 24000], "trial": 5, "trial_type": "free-recall", "trial_index": 235, "time_elapsed": 1057159, "internal_node_id": "0.0-181.0-0.0"}}, {"uniqueid": "MTK1120:3OLF68YTNA8RELYK4IFIO8JMHKHFA0", "current_trial": 236, "dateTime": 1513120912896, "trialdata": {"rt": 8379, "key_press": 32, "type": "INSTRUCTIONS", "trial_type": "text", "trial_index": 236, "time_elapsed": 1067545, "internal_node_id": "0.0-182.0"}}, {"uniqueid": "MTK1120:3OLF68YTNA8RELYK4IFIO8JMHKHFA0", "current_trial": 237, "dateTime": 1513120938908, "trialdata": {"rt": [2947, 6239, 7929, 10543, 12885, 16431, 18583, 22566], "responses": ["17", "15", "8", "11", "12", "22", "12", "19"], "num1": [3, 8, 1, 4, 6, 8, 4, 3, 9], "num2": [5, 3, 4, 3, 1, 7, 4, 8, 9], "num3": [9, 4, 3, 4, 5, 7, 4, 8, 5], "type": "DISTRACTOR", "conditions": [12, 1600, "v", 24000], "trial": 6, "trial_type": "math-distractor", "trial_index": 237, "time_elapsed": 1093557, "internal_node_id": "0.0-183.0"}}, {"uniqueid": "MTK1120:3OLF68YTNA8RELYK4IFIO8JMHKHFA0", "current_trial": 238, "dateTime": 1513120941917, "trialdata": {"rt": -1, "stimulus": "<p id=\"stim\">10</p>", "key_press": -1, "trial_type": "single-stim", "trial_index": 238, "time_elapsed": 1096566, "internal_node_id": "0.0-184.0-0.0"}}, {"uniqueid": "MTK1120:3OLF68YTNA8RELYK4IFIO8JMHKHFA0", "current_trial": 239, "dateTime": 1513120942922, "trialdata": {"rt": -1, "stimulus": "<p id=\"stim\">9</p>", "key_press": -1, "trial_type": "single-stim", "trial_index": 239, "time_elapsed": 1097571, "internal_node_id": "0.0-184.0-1.0"}}, {"uniqueid": "MTK1120:3OLF68YTNA8RELYK4IFIO8JMHKHFA0", "current_trial": 240, "dateTime": 1513120943925, "trialdata": {"rt": -1, "stimulus": "<p id=\"stim\">8</p>", "key_press": -1, "trial_type": "single-stim", "trial_index": 240, "time_elapsed": 1098574, "internal_node_id": "0.0-184.0-2.0"}}, {"uniqueid": "MTK1120:3OLF68YTNA8RELYK4IFIO8JMHKHFA0", "current_trial": 241, "dateTime": 1513120944929, "trialdata": {"rt": -1, "stimulus": "<p id=\"stim\">7</p>", "key_press": -1, "trial_type": "single-stim", "trial_index": 241, "time_elapsed": 1099578, "internal_node_id": "0.0-184.0-3.0"}}, {"uniqueid": "MTK1120:3OLF68YTNA8RELYK4IFIO8JMHKHFA0", "current_trial": 242, "dateTime": 1513120945931, "trialdata": {"rt": -1, "stimulus": "<p id=\"stim\">6</p>", "key_press": -1, "trial_type": "single-stim", "trial_index": 242, "time_elapsed": 1100580, "internal_node_id": "0.0-184.0-4.0"}}, {"uniqueid": "MTK1120:3OLF68YTNA8RELYK4IFIO8JMHKHFA0", "current_trial": 243, "dateTime": 1513120946937, "trialdata": {"rt": -1, "stimulus": "<p id=\"stim\">5</p>", "key_press": -1, "trial_type": "single-stim", "trial_index": 243, "time_elapsed": 1101586, "internal_node_id": "0.0-184.0-5.0"}}, {"uniqueid": "MTK1120:3OLF68YTNA8RELYK4IFIO8JMHKHFA0", "current_trial": 244, "dateTime": 1513120947941, "trialdata": {"rt": -1, "stimulus": "<p id=\"stim\">4</p>", "key_press": -1, "trial_type": "single-stim", "trial_index": 244, "time_elapsed": 1102590, "internal_node_id": "0.0-184.0-6.0"}}, {"uniqueid": "MTK1120:3OLF68YTNA8RELYK4IFIO8JMHKHFA0", "current_trial": 245, "dateTime": 1513120948942, "trialdata": {"rt": -1, "stimulus": "<p id=\"stim\">3</p>", "key_press": -1, "trial_type": "single-stim", "trial_index": 245, "time_elapsed": 1103591, "internal_node_id": "0.0-184.0-7.0"}}, {"uniqueid": "MTK1120:3OLF68YTNA8RELYK4IFIO8JMHKHFA0", "current_trial": 246, "dateTime": 1513120949946, "trialdata": {"rt": -1, "stimulus": "<p id=\"stim\">2</p>", "key_press": -1, "trial_type": "single-stim", "trial_index": 246, "time_elapsed": 1104595, "internal_node_id": "0.0-184.0-8.0"}}, {"uniqueid": "MTK1120:3OLF68YTNA8RELYK4IFIO8JMHKHFA0", "current_trial": 247, "dateTime": 1513120950950, "trialdata": {"rt": -1, "stimulus": "<p id=\"stim\">1</p>", "key_press": -1, "trial_type": "single-stim", "trial_index": 247, "time_elapsed": 1105599, "internal_node_id": "0.0-184.0-9.0"}}, {"uniqueid": "MTK1120:3OLF68YTNA8RELYK4IFIO8JMHKHFA0", "current_trial": 248, "dateTime": 1513120952453, "trialdata": {"rt": -1, "stimulus": "<p id=\"stim\">+</p>", "key_press": -1, "type": "FIXATION", "trial_type": "single-stim", "trial_index": 248, "time_elapsed": 1107102, "internal_node_id": "0.0-185.0-0.0"}}, {"uniqueid": "MTK1120:3OLF68YTNA8RELYK4IFIO8JMHKHFA0", "current_trial": 249, "dateTime": 1513120954058, "trialdata": {"rt": -1, "stimulus": "<p id=\"stim\">ISLAND</p>", "key_press": -1, "type": "PRES_VIS", "word": "island", "wordID": 744, "conditions": [12, 1600, "v", 24000], "trial": 6, "serialpos": 0, "trial_type": "single-stim", "trial_index": 249, "time_elapsed": 1108707, "internal_node_id": "0.0-186.0"}}, {"uniqueid": "MTK1120:3OLF68YTNA8RELYK4IFIO8JMHKHFA0", "current_trial": 250, "dateTime": 1513120956825, "trialdata": {"rt": -1, "stimulus": "<p id=\"stim\">HAMPER</p>", "key_press": -1, "type": "PRES_VIS", "word": "hamper", "wordID": 681, "conditions": [12, 1600, "v", 24000], "trial": 6, "serialpos": 1, "trial_type": "single-stim", "trial_index": 250, "time_elapsed": 1111474, "internal_node_id": "0.0-187.0"}}, {"uniqueid": "MTK1120:3OLF68YTNA8RELYK4IFIO8JMHKHFA0", "current_trial": 251, "dateTime": 1513120959599, "trialdata": {"rt": -1, "stimulus": "<p id=\"stim\">LUNCH</p>", "key_press": -1, "type": "PRES_VIS", "word": "lunch", "wordID": 848, "conditions": [12, 1600, "v", 24000], "trial": 6, "serialpos": 2, "trial_type": "single-stim", "trial_index": 251, "time_elapsed": 1114248, "internal_node_id": "0.0-188.0"}}, {"uniqueid": "MTK1120:3OLF68YTNA8RELYK4IFIO8JMHKHFA0", "current_trial": 252, "dateTime": 1513120962280, "trialdata": {"rt": -1, "stimulus": "<p id=\"stim\">FOREST</p>", "key_press": -1, "type": "PRES_VIS", "word": "forest", "wordID": 592, "conditions": [12, 1600, "v", 24000], "trial": 6, "serialpos": 3, "trial_type": "single-stim", "trial_index": 252, "time_elapsed": 1116929, "internal_node_id": "0.0-189.0"}}, {"uniqueid": "MTK1120:3OLF68YTNA8RELYK4IFIO8JMHKHFA0", "current_trial": 253, "dateTime": 1513120964785, "trialdata": {"rt": -1, "stimulus": "<p id=\"stim\">BANK</p>", "key_press": -1, "type": "PRES_VIS", "word": "bank", "wordID": 82, "conditions": [12, 1600, "v", 24000], "trial": 6, "serialpos": 4, "trial_type": "single-stim", "trial_index": 253, "time_elapsed": 1119434, "internal_node_id": "0.0-190.0"}}, {"uniqueid": "MTK1120:3OLF68YTNA8RELYK4IFIO8JMHKHFA0", "current_trial": 254, "dateTime": 1513120967205, "trialdata": {"rt": -1, "stimulus": "<p id=\"stim\">BANKER</p>", "key_press": -1, "type": "PRES_VIS", "word": "banker", "wordID": 83, "conditions": [12, 1600, "v", 24000], "trial": 6, "serialpos": 5, "trial_type": "single-stim", "trial_index": 254, "time_elapsed": 1121853, "internal_node_id": "0.0-191.0"}}, {"uniqueid": "MTK1120:3OLF68YTNA8RELYK4IFIO8JMHKHFA0", "current_trial": 255, "dateTime": 1513120969708, "trialdata": {"rt": -1, "stimulus": "<p id=\"stim\">ROBIN</p>", "key_press": -1, "type": "PRES_VIS", "word": "robin", "wordID": 1198, "conditions": [12, 1600, "v", 24000], "trial": 6, "serialpos": 6, "trial_type": "single-stim", "trial_index": 255, "time_elapsed": 1124357, "internal_node_id": "0.0-192.0"}}, {"uniqueid": "MTK1120:3OLF68YTNA8RELYK4IFIO8JMHKHFA0", "current_trial": 256, "dateTime": 1513120972239, "trialdata": {"rt": -1, "stimulus": "<p id=\"stim\">SOFTBALL</p>", "key_press": -1, "type": "PRES_VIS", "word": "softball", "wordID": 1342, "conditions": [12, 1600, "v", 24000], "trial": 6, "serialpos": 7, "trial_type": "single-stim", "trial_index": 256, "time_elapsed": 1126887, "internal_node_id": "0.0-193.0"}}, {"uniqueid": "MTK1120:3OLF68YTNA8RELYK4IFIO8JMHKHFA0", "current_trial": 257, "dateTime": 1513120975017, "trialdata": {"rt": -1, "stimulus": "<p id=\"stim\">CASHEW</p>", "key_press": -1, "type": "PRES_VIS", "word": "cashew", "wordID": 252, "conditions": [12, 1600, "v", 24000], "trial": 6, "serialpos": 8, "trial_type": "single-stim", "trial_index": 257, "time_elapsed": 1129666, "internal_node_id": "0.0-194.0"}}, {"uniqueid": "MTK1120:3OLF68YTNA8RELYK4IFIO8JMHKHFA0", "current_trial": 258, "dateTime": 1513120977791, "trialdata": {"rt": -1, "stimulus": "<p id=\"stim\">BEAVER</p>", "key_press": -1, "type": "PRES_VIS", "word": "beaver", "wordID": 108, "conditions": [12, 1600, "v", 24000], "trial": 6, "serialpos": 9, "trial_type": "single-stim", "trial_index": 258, "time_elapsed": 1132440, "internal_node_id": "0.0-195.0"}}, {"uniqueid": "MTK1120:3OLF68YTNA8RELYK4IFIO8JMHKHFA0", "current_trial": 259, "dateTime": 1513120980299, "trialdata": {"rt": -1, "stimulus": "<p id=\"stim\">DIVER</p>", "key_press": -1, "type": "PRES_VIS", "word": "diver", "wordID": 475, "conditions": [12, 1600, "v", 24000], "trial": 6, "serialpos": 10, "trial_type": "single-stim", "trial_index": 259, "time_elapsed": 1134948, "internal_node_id": "0.0-196.0"}}, {"uniqueid": "MTK1120:3OLF68YTNA8RELYK4IFIO8JMHKHFA0", "current_trial": 260, "dateTime": 1513120982918, "trialdata": {"rt": -1, "stimulus": "<p id=\"stim\">SPARROW</p>", "key_press": -1, "type": "PRES_VIS", "word": "sparrow", "wordID": 1346, "conditions": [12, 1600, "v", 24000], "trial": 6, "serialpos": 11, "trial_type": "single-stim", "trial_index": 260, "time_elapsed": 1137567, "internal_node_id": "0.0-197.0"}}, {"uniqueid": "MTK1120:3OLF68YTNA8RELYK4IFIO8JMHKHFA0", "current_trial": 261, "dateTime": 1513120985270, "trialdata": {"rt": -1, "stimulus": "", "key_press": -1, "type": "PRE_RECALL_DELAY", "trial_type": "single-stim", "trial_index": 261, "time_elapsed": 1139919, "internal_node_id": "0.0-198.0-0.0"}}, {"uniqueid": "MTK1120:3OLF68YTNA8RELYK4IFIO8JMHKHFA0", "current_trial": 262, "dateTime": 1513120985772, "trialdata": {"rt": -1000, "stimulus": "/static/audio/400Hz.wav", "key_press": -1, "type": "PRE_RECALL_ALERT", "trial_type": "single-audio", "trial_index": 262, "time_elapsed": 1140420, "internal_node_id": "0.0-199.0"}}, {"uniqueid": "MTK1120:3OLF68YTNA8RELYK4IFIO8JMHKHFA0", "current_trial": 263, "dateTime": 1513121045787, "trialdata": {"rt": [4433, 10827, 12677, 15656, 17853, 19700, 22042, 24654, 26667, 28999, 31550, 40203, 42640, 51663], "recwords": ["sparrow", "lunch", "forest", "bank", "banker", "robin", "softball", "cashew", "beaver", "diver", "sparrow", "island", "hamper", "queen"], "type": "FREE_RECALL", "conditions": [12, 1600, "v", 24000], "trial": 6, "trial_type": "free-recall", "trial_index": 263, "time_elapsed": 1200426, "internal_node_id": "0.0-200.0-0.0"}}, {"uniqueid": "MTK1120:3OLF68YTNA8RELYK4IFIO8JMHKHFA0", "current_trial": 264, "dateTime": 1513121049334, "trialdata": {"rt": 1542, "key_press": 32, "type": "INSTRUCTIONS", "trial_type": "text", "trial_index": 264, "time_elapsed": 1203982, "internal_node_id": "0.0-201.0"}}, {"uniqueid": "MTK1120:3OLF68YTNA8RELYK4IFIO8JMHKHFA0", "current_trial": 265, "dateTime": 1513121075341, "trialdata": {"rt": [3030, 5250, 6576, 7920, 9732, 11349, 13941, 16251, 17760, 21399, 23182], "responses": ["17", "12", "15", "8", "10", "13", "19", "23", "8", "19", "14"], "num1": [4, 4, 9, 3, 4, 3, 5, 8, 5, 7, 5, 8], "num2": [5, 2, 1, 3, 3, 2, 6, 7, 1, 7, 3, 8], "num3": [8, 6, 