{"assignmentId": "3LKC68YZ3BAIRBEG4QU0TRPR3P9WOK", "workerId": "MTK1510", "questiondata": {"origin": "United States", "strat-rehearsal": "68", "marital": "Single", "education": "Master's degree", "ethnicity": "Not Hispanic", "color_depth": 24, "distracted": "No", "wrote-notes": "No", "strat-other": "", "screen_width": 1440, "avail_screen_width": 1440, "avail_screen_height": 807, "strat-image": "57", "language": "English", "gender": "Female", "age": "28", "gender_other": "", "race": ["White"], "strat-categorize": "77", "pixel_depth": 24, "strat-spatial": "13", "strat-story": "46", "race_other": "", "screen_height": 900}, "bonus": 0, "hitId": "3U18MJKL1UTP88A5WIPKDOMZ4UUCNI", "counterbalance": 507, "useragent": "Mozilla/5.0 (Macintosh; Intel Mac OS X 10_10_5) AppleWebKit/537.36 (KHTML, like Gecko) Chrome/62.0.3202.94 Safari/537.36", "eventdata": [{"eventtype": "initialized", "interval": 0, "value": null, "timestamp": 1515951914974}, {"eventtype": "window_resize", "interval": 0, "value": [1440, 761], "timestamp": 1515951914974}, {"eventtype": "focus", "interval": 1807716, "value": "off", "timestamp": 1515953722690}, {"eventtype": "focus", "interval": 2806, "value": "on", "timestamp": 1515953725496}], "data": [{"current_trial": 0, "trialdata": {"rt": 2239, "trial_type": "text", "internal_node_id": "0.0-0.0", "time_elapsed": 2242, "key_press": 68, "type": "INSTRUCTIONS", "trial_index": 0}, "uniqueid": "MTK1510:3LKC68YZ3BAIRBEG4QU0TRPR3P9WOK", "dateTime": 1515951917599}, {"current_trial": 1, "trialdata": {"rt": 14999, "trial_type": "text", "internal_node_id": "0.0-1.0", "time_elapsed": 17243, "key_press": 68, "type": "INSTRUCTIONS", "trial_index": 1}, "uniqueid": "MTK1510:3LKC68YZ3BAIRBEG4QU0TRPR3P9WOK", "dateTime": 1515951932600}, {"current_trial": 2, "trialdata": {"rt": [6954], "trial_type": "audio-test", "responses": ["ocean"], "internal_node_id": "0.0-2.0", "time_elapsed": 24212, "type": "AUDIO_TEST", "trial_index": 2}, "uniqueid": "MTK1510:3LKC68YZ3BAIRBEG4QU0TRPR3P9WOK", "dateTime": 1515951939569}, {"current_trial": 3, "trialdata": {"rt": [4441], "trial_type": "audio-test", "responses": ["crystal"], "internal_node_id": "0.0-3.0", "time_elapsed": 28660, "type": "AUDIO_TEST", "trial_index": 3}, "uniqueid": "MTK1510:3LKC68YZ3BAIRBEG4QU0TRPR3P9WOK", "dateTime": 1515951944016}, {"current_trial": 4, "trialdata": {"rt": [3813], "trial_type": "audio-test", "responses": ["spice"], "internal_node_id": "0.0-4.0", "time_elapsed": 32480, "type": "AUDIO_TEST", "trial_index": 4}, "uniqueid": "MTK1510:3LKC68YZ3BAIRBEG4QU0TRPR3P9WOK", "dateTime": 1515951947836}, {"current_trial": 5, "trialdata": {"rt": 13860, "trial_type": "survey-text", "responses": "{\"Q0\":\"1AM\",\"Q1\":\"11AM\",\"Q2\":\"4\"}", "internal_node_id": "0.0-5.0", "time_elapsed": 47098, "type": "SLEEP_SURVEY", "trial_index": 5}, "uniqueid": "MTK1510:3LKC68YZ3BAIRBEG4QU0TRPR3P9WOK", "dateTime": 1515951962454}, {"current_trial": 6, "trialdata": {"rt": 43051, "trial_type": "text", "internal_node_id": "0.0-6.0", "time_elapsed": 91154, "key_press": 70, "type": "INSTRUCTIONS", "trial_index": 6}, "uniqueid": "MTK1510:3LKC68YZ3BAIRBEG4QU0TRPR3P9WOK", "dateTime": 1515952006510}, {"current_trial": 7, "trialdata": {"rt": 12856, "trial_type": "text", "internal_node_id": "0.0-7.0", "time_elapsed": 104518, "key_press": 70, "type": "INSTRUCTIONS", "trial_index": 7}, "uniqueid": "MTK1510:3LKC68YZ3BAIRBEG4QU0TRPR3P9WOK", "dateTime": 1515952019875}, {"current_trial": 8, "trialdata": {"rt": 7898, "trial_type": "text", "internal_node_id": "0.0-8.0", "time_elapsed": 112921, "key_press": 70, "type": "INSTRUCTIONS", "trial_index": 8}, "uniqueid": "MTK1510:3LKC68YZ3BAIRBEG4QU0TRPR3P9WOK", "dateTime": 1515952028277}, {"current_trial": 9, "trialdata": {"rt": [1998, 3529, 5157, 6820, 8634, 12415, 14347, 16509], "trial_type": "math-distractor", "key_times": [1478, 1633, 1998, 3101, 3221, 3529, 4585, 4915, 5157, 6509, 6609, 6820, 8270, 8366, 8634, 12107, 12243, 12415, 13894, 14144, 14347, 16076, 16278, 16509, 17804, 17940], "responses": ["11", "10", "16", "10", "19", "22", "15", "14"], "num2": [3, 7, 8, 5, 9, 8, 7, 5, 4], "num3": [1, 1, 6, 3, 1, 8, 7, 8, 1], "conditions": [18, 1200, "v", 18000], "internal_node_id": "0.0-9.0", "key_presses": [49, 49, 13, 49, 48, 13, 49, 54, 13, 49, 48, 13, 49, 57, 13, 50, 50, 13, 49, 53, 13, 49, 52, 13, 49, 51], "trial": 0, "time_elapsed": 131950, "type": "DISTRACTOR", "trial_index": 9, "num1": [7, 2, 2, 2, 9, 6, 1, 1, 8]}, "uniqueid": "MTK1510:3LKC68YZ3BAIRBEG4QU0TRPR3P9WOK", "dateTime": 1515952047307}, {"current_trial": 10, "trialdata": {"rt": -1, "trial_type": "single-stim", "stimulus": "<p id=\"stim\">10</p>", "internal_node_id": "0.0-10.0-0.0", "time_elapsed": 134962, "key_press": -1, "trial_index": 10}, "uniqueid": "MTK1510:3LKC68YZ3BAIRBEG4QU0TRPR3P9WOK", "dateTime": 1515952050318}, {"current_trial": 11, "trialdata": {"rt": -1, "trial_type": "single-stim", "stimulus": "<p id=\"stim\">9</p>", "internal_node_id": "0.0-10.0-1.0", "time_elapsed": 135965, "key_press": -1, "trial_index": 11}, "uniqueid": "MTK1510:3LKC68YZ3BAIRBEG4QU0TRPR3P9WOK", "dateTime": 1515952051321}, {"current_trial": 12, "trialdata": {"rt": -1, "trial_type": "single-stim", "stimulus": "<p id=\"stim\">8</p>", "internal_node_id": "0.0-10.0-2.0", "time_elapsed": 136969, "key_press": -1, "trial_index": 12}, "uniqueid": "MTK1510:3LKC68YZ3BAIRBEG4QU0TRPR3P9WOK", "dateTime": 1515952052325}, {"current_trial": 13, "trialdata": {"rt": -1, "trial_type": "single-stim", "stimulus": "<p id=\"stim\">7</p>", "internal_node_id": "0.0-10.0-3.0", "time_elapsed": 137973, "key_press": -1, "trial_index": 13}, "uniqueid": "MTK1510:3LKC68YZ3BAIRBEG4QU0TRPR3P9WOK", "dateTime": 1515952053329}, {"current_trial": 14, "trialdata": {"rt": -1, "trial_type": "single-stim", "stimulus": "<p id=\"stim\">6</p>", "internal_node_id": "0.0-10.0-4.0", "time_elapsed": 138977, "key_press": -1, "trial_index": 14}, "uniqueid": "MTK1510:3LKC68YZ3BAIRBEG4QU0TRPR3P9WOK", "dateTime": 1515952054334}, {"current_trial": 15, "trialdata": {"rt": -1, "trial_type": "single-stim", "stimulus": "<p id=\"stim\">5</p>", "internal_node_id": "0.0-10.0-5.0", "time_elapsed": 139981, "key_press": -1, "trial_index": 15}, "uniqueid": "MTK1510:3LKC68YZ3BAIRBEG4QU0TRPR3P9WOK", "dateTime": 1515952055337}, {"current_trial": 16, "trialdata": {"rt": -1, "trial_type": "single-stim", "stimulus": "<p id=\"stim\">4</p>", "internal_node_id": "0.0-10.0-6.0", "time_elapsed": 140986, "key_press": -1, "trial_index": 16}, "uniqueid": "MTK1510:3LKC68YZ3BAIRBEG4QU0TRPR3P9WOK", "dateTime": 1515952056342}, {"current_trial": 17, "trialdata": {"rt": -1, "trial_type": "single-stim", "stimulus": "<p id=\"stim\">3</p>", "internal_node_id": "0.0-10.0-7.0", "time_elapsed": 141992, "key_press": -1, "trial_index": 17}, "uniqueid": "MTK1510:3LKC68YZ3BAIRBEG4QU0TRPR3P9WOK", "dateTime": 1515952057348}, {"current_trial": 18, "trialdata": {"rt": -1, "trial_type": "single-stim", "stimulus": "<p id=\"stim\">2</p>", "internal_node_id": "0.0-10.0-8.0", "time_elapsed": 142998, "key_press": -1, "trial_index": 18}, "uniqueid": "MTK1510:3LKC68YZ3BAIRBEG4QU0TRPR3P9WOK", "dateTime": 1515952058355}, {"current_trial": 19, "trialdata": {"rt": -1, "trial_type": "single-stim", "stimulus": "<p id=\"stim\">1</p>", "internal_node_id": "0.0-10.0-9.0", "time_elapsed": 144004, "key_press": -1, "trial_index": 19}, "uniqueid": "MTK1510:3LKC68YZ3BAIRBEG4QU0TRPR3P9WOK", "dateTime": 1515952059360}, {"current_trial": 20, "trialdata": {"rt": -1, "trial_type": "single-stim", "stimulus": "<p id=\"stim\">+</p>", "internal_node_id": "0.0-11.0-0.0", "time_elapsed": 145507, "key_press": -1, "type": "FIXATION", "trial_index": 20}, "uniqueid": "MTK1510:3LKC68YZ3BAIRBEG4QU0TRPR3P9WOK", "dateTime": 1515952060864}, {"current_trial": 21, "trialdata": {"rt": -1, "trial_type": "single-stim", "word": "garden", "stimulus": "<p id=\"stim\">GARDEN</p>", "conditions": [18, 1200, "v", 18000], "internal_node_id": "0.0-12.0", "trial": 0, "time_elapsed": 146713, "serialpos": 0, "key_press": -1, "wordID": 622, "type": "PRES_VIS", "trial_index": 21}, "uniqueid": "MTK1510:3LKC68YZ3BAIRBEG4QU0TRPR3P9WOK", "dateTime": 1515952062069}, {"current_trial": 22, "trialdata": {"rt": -1, "trial_type": "single-stim", "word": "hound", "stimulus": "<p id=\"stim\">HOUND</p>", "conditions": [18, 1200, "v", 18000], "internal_node_id": "0.0-13.0", "trial": 0, "time_elapsed": 148923, "serialpos": 1, "key_press": -1, "wordID": 723, "type": "PRES_VIS", "trial_index": 22}, "uniqueid": "MTK1510:3LKC68YZ3BAIRBEG4QU0TRPR3P9WOK", "dateTime": 1515952064279}, {"current_trial": 23, "trialdata": {"rt": -1, "trial_type": "single-stim", "word": "binder", "stimulus": "<p id=\"stim\">BINDER</p>", "conditions": [18, 1200, "v", 18000], "internal_node_id": "0.0-14.0", "trial": 0, "time_elapsed": 151131, "serialpos": 2, "key_press": -1, "wordID": 126, "type": "PRES_VIS", "trial_index": 23}, "uniqueid": "MTK1510:3LKC68YZ3BAIRBEG4QU0TRPR3P9WOK", "dateTime": 1515952066487}, {"current_trial": 24, "trialdata": {"rt": -1, "trial_type": "single-stim", "word": "coin", "stimulus": "<p id=\"stim\">COIN</p>", "conditions": [18, 1200, "v", 18000], "internal_node_id": "0.0-15.0", "trial": 0, "time_elapsed": 153215, "serialpos": 3, "key_press": -1, "wordID": 342, "type": "PRES_VIS", "trial_index": 24}, "uniqueid": "MTK1510:3LKC68YZ3BAIRBEG4QU0TRPR3P9WOK", "dateTime": 1515952068571}, {"current_trial": 25, "trialdata": {"rt": -1, "trial_type": "single-stim", "word": "wife", "stimulus": "<p id=\"stim\">WIFE</p>", "conditions": [18, 1200, "v", 18000], "internal_node_id": "0.0-16.0", "trial": 0, "time_elapsed": 155523, "serialpos": 4, "key_press": -1, "wordID": 1608, "type": "PRES_VIS", "trial_index": 25}, "uniqueid": "MTK1510:3LKC68YZ3BAIRBEG4QU0TRPR3P9WOK", "dateTime": 1515952070879}, {"current_trial": 26, "trialdata": {"rt": -1, "trial_type": "single-stim", "word": "omelet", "stimulus": "<p id=\"stim\">OMELET</p>", "conditions": [18, 1200, "v", 18000], "internal_node_id": "0.0-17.0", "trial": 0, "time_elapsed": 157835, "serialpos": 5, "key_press": -1, "wordID": 975, "type": "PRES_VIS", "trial_index": 26}, "uniqueid": "MTK1510:3LKC68YZ3BAIRBEG4QU0TRPR3P9WOK", "dateTime": 1515952073191}, {"current_trial": 27, "trialdata": {"rt": -1, "trial_type": "single-stim", "word": "shovel", "stimulus": "<p id=\"stim\">SHOVEL</p>", "conditions": [18, 1200, "v", 18000], "internal_node_id": "0.0-18.0", "trial": 0, "time_elapsed": 160208, "serialpos": 6, "key_press": -1, "wordID": 1294, "type": "PRES_VIS", "trial_index": 27}, "uniqueid": "MTK1510:3LKC68YZ3BAIRBEG4QU0TRPR3P9WOK", "dateTime": 1515952075565}, {"current_trial": 28, "trialdata": {"rt": -1, "trial_type": "single-stim", "word": "atlas", "stimulus": "<p id=\"stim\">ATLAS</p>", "conditions": [18, 1200, "v", 18000], "internal_node_id": "0.0-19.0", "trial": 0, "time_elapsed": 162327, "serialpos": 7, "key_press": -1, "wordID": 52, "type": "PRES_VIS", "trial_index": 28}, "uniqueid": "MTK1510:3LKC68YZ3BAIRBEG4QU0TRPR3P9WOK", "dateTime": 1515952077684}, {"current_trial": 29, "trialdata": {"rt": -1, "trial_type": "single-stim", "word": "smog", "stimulus": "<p id=\"stim\">SMOG</p>", "conditions": [18, 1200, "v", 18000], "internal_node_id": "0.0-20.0", "trial": 0, "time_elapsed": 164678, "serialpos": 8, "key_press": -1, "wordID": 1329, "type": "PRES_VIS", "trial_index": 29}, "uniqueid": "MTK1510:3LKC68YZ3BAIRBEG4QU0TRPR3P9WOK", "dateTime": 1515952080034}, {"current_trial": 30, "trialdata": {"rt": -1, "trial_type": "single-stim", "word": "goblin", "stimulus": "<p id=\"stim\">GOBLIN</p>", "conditions": [18, 1200, "v", 18000], "internal_node_id": "0.0-21.0", "trial": 0, "time_elapsed": 166930, "serialpos": 9, "key_press": -1, "wordID": 644, "type": "PRES_VIS", "trial_index": 30}, "uniqueid": "MTK1510:3LKC68YZ3BAIRBEG4QU0TRPR3P9WOK", "dateTime": 1515952082286}, {"current_trial": 31, "trialdata": {"rt": -1, "trial_type": "single-stim", "word": "crown", "stimulus": "<p id=\"stim\">CROWN</p>", "conditions": [18, 1200, "v", 18000], "internal_node_id": "0.0-22.0", "trial": 0, "time_elapsed": 169113, "serialpos": 10, "key_press": -1, "wordID": 414, "type": "PRES_VIS", "trial_index": 31}, "uniqueid": "MTK1510:3LKC68YZ3BAIRBEG4QU0TRPR3P9WOK", "dateTime": 1515952084469}, {"current_trial": 32, "trialdata": {"rt": -1, "trial_type": "single-stim", "word": "turkey", "stimulus": "<p id=\"stim\">TURKEY</p>", "conditions": [18, 1200, "v", 18000], "internal_node_id": "0.0-23.0", "trial": 0, "time_elapsed": 171330, "serialpos": 11, "key_press": -1, "wordID": 1519, "type": "PRES_VIS", "trial_index": 32}, "uniqueid": "MTK1510:3LKC68YZ3BAIRBEG4QU0TRPR3P9WOK", "dateTime": 1515952086686}, {"current_trial": 33, "trialdata": {"rt": -1, "trial_type": "single-stim", "word": "author", "stimulus": "<p id=\"stim\">AUTHOR</p>", "conditions": [18, 1200, "v", 18000], "internal_node_id": "0.0-24.0", "trial": 0, "time_elapsed": 173442, "serialpos": 12, "key_press": -1, "wordID": 60, "type": "PRES_VIS", "trial_index": 33}, "uniqueid": "MTK1510:3LKC68YZ3BAIRBEG4QU0TRPR3P9WOK", "dateTime": 1515952088798}, {"current_trial": 34, "trialdata": {"rt": -1, "trial_type": "single-stim", "word": "bison", "stimulus": "<p id=\"stim\">BISON</p>", "conditions": [18, 1200, "v", 18000], "internal_node_id": "0.0-25.0", "trial": 0, "time_elapsed": 175741, "serialpos": 13, "key_press": -1, "wordID": 130, "type": "PRES_VIS", "trial_index": 34}, "uniqueid": "MTK1510:3LKC68YZ3BAIRBEG4QU0TRPR3P9WOK", "dateTime": 1515952091097}, {"current_trial": 35, "trialdata": {"rt": -1, "trial_type": "single-stim", "word": "compass", "stimulus": "<p id=\"stim\">COMPASS</p>", "conditions": [18, 1200, "v", 18000], "internal_node_id": "0.0-26.0", "trial": 0, "time_elapsed": 177883, "serialpos": 14, "key_press": -1, "wordID": 357, "type": "PRES_VIS", "trial_index": 35}, "uniqueid": "MTK1510:3LKC68YZ3BAIRBEG4QU0TRPR3P9WOK", "dateTime": 1515952093239}, {"current_trial": 36, "trialdata": {"rt": -1, "trial_type": "single-stim", "word": "shorts", "stimulus": "<p id=\"stim\">SHORTS</p>", "conditions": [18, 1200, "v", 18000], "internal_node_id": "0.0-27.0", "trial": 0, "time_elapsed": 179937, "serialpos": 15, "key_press": -1, "wordID": 1292, "type": "PRES_VIS", "trial_index": 36}, "uniqueid": "MTK1510:3LKC68YZ3BAIRBEG4QU0TRPR3P9WOK", "dateTime": 1515952095294}, {"current_trial": 37, "trialdata": {"rt": -1, "trial_type": "single-stim", "word": "shirt", "stimulus": "<p id=\"stim\">SHIRT</p>", "conditions": [18, 1200, "v", 18000], "internal_node_id": "0.0-28.0", "trial": 0, "time_elapsed": 182102, "serialpos": 16, "key_press": -1, "wordID": 1286, "type": "PRES_VIS", "trial_index": 37}, "uniqueid": "MTK1510:3LKC68YZ3BAIRBEG4QU0TRPR3P9WOK", "dateTime": 1515952097458}, {"current_trial": 38, "trialdata": {"rt": -1, "trial_type": "single-stim", "word": "dentist", "stimulus": "<p id=\"stim\">DENTIST</p>", "conditions": [18, 1200, "v", 18000], "internal_node_id": "0.0-29.0", "trial": 0, "time_elapsed": 184244, "serialpos": 17, "key_press": -1, "wordID": 446, "type": "PRES_VIS", "trial_index": 38}, "uniqueid": "MTK1510:3LKC68YZ3BAIRBEG4QU0TRPR3P9WOK", "dateTime": 1515952099600}, {"current_trial": 39, "trialdata": {"rt": -1, "trial_type": "single-stim", "stimulus": "", "internal_node_id": "0.0-30.0-0.0", "time_elapsed": 186424, "key_press": -1, "type": "PRE_RECALL_DELAY", "trial_index": 39}, "uniqueid": "MTK1510:3LKC68YZ3BAIRBEG4QU0TRPR3P9WOK", "dateTime": 1515952101780}, {"current_trial": 40, "trialdata": {"rt": -1000, "trial_type": "single-audio", "stimulus": "/static/audio/400Hz.wav", "internal_node_id": "0.0-31.0", "time_elapsed": 186936, "key_press": -1, "type": "PRE_RECALL_ALERT", "trial_index": 40}, "uniqueid": "MTK1510:3LKC68YZ3BAIRBEG4QU0TRPR3P9WOK", "dateTime": 1515952102292}, {"current_trial": 41, "trialdata": {"rt": [2020, 3890, 5693, 6756, 8559, 20680, 28586], "recwords": ["garden", "binder", "coin", "shirt", "turkey", "smog", "garden"], "key_times": [803, 930, 1010, 1418, 1622, 1746, 2020, 2365, 2604, 2950, 3203, 3296, 3364, 3576, 3668, 3890, 4703, 4878, 4967, 5110, 5693, 6073, 6197, 6270, 6302, 6559, 6756, 7022, 7118, 7275, 7394, 7509, 8069, 8559, 20132, 20266, 20373, 20474, 20680, 27679, 27802, 27909, 28022, 28226, 28351, 28586], "trial_type": "free-recall", "conditions": [18, 1200, "v", 18000], "internal_node_id": "0.0-32.0-0.0", "key_presses": [71, 65, 82, 68, 69, 78, 13, 66, 78, 8, 73, 78, 68, 69, 82, 13, 67, 79, 73, 78, 13, 83, 72, 73, 82, 84, 13, 84, 85, 82, 75, 69, 89, 13, 83, 77, 79, 71, 13, 71, 65, 82, 68, 69, 78, 13], "trial": 0, "time_elapsed": 246960, "type": "FREE_RECALL", "trial_index": 41}, "uniqueid": "MTK1510:3LKC68YZ3BAIRBEG4QU0TRPR3P9WOK", "dateTime": 1515952162323}, {"current_trial": 42, "trialdata": {"rt": 1842, "trial_type": "text", "internal_node_id": "0.0-33.0", "time_elapsed": 250816, "key_press": 68, "type": "INSTRUCTIONS", "trial_index": 42}, "uniqueid": "MTK1510:3LKC68YZ3BAIRBEG4QU0TRPR3P9WOK", "dateTime": 1515952166172}, {"current_trial": 43, "trialdata": {"rt": [1711, 3228, 5085, 6688, 9084, 10754, 12500, 14026, 16296, 17915], "trial_type": "math-distractor", "key_times": [1489, 1589, 1711, 2969, 3053, 3228, 4743, 4855, 5085, 6337, 6413, 6688, 8625, 8693, 9084, 10453, 10754, 12119, 12223, 12500, 13859, 14026, 15858, 16116, 16296, 17593, 17915], "responses": ["13", "13", "13", "13", "18", "7", "14", "6", "16", "7"], "num2": [1, 3, 1, 1, 4, 1, 7, 1, 3, 2, 3], "num3": [6, 3, 8, 5, 7, 5, 2, 3, 8, 4, 9], "conditions": [18, 1200, "v", 18000], "internal_node_id": "0.0-34.0", "key_presses": [49, 51, 13, 49, 51, 13, 49, 51, 13, 49, 51, 13, 49, 56, 13, 55, 13, 49, 52, 13, 54, 13, 49, 54, 13, 55, 13], "trial": 1, "time_elapsed": 270827, "type": "DISTRACTOR", "trial_index": 43, "num1": [6, 7, 4, 7, 7, 1, 5, 2, 5, 1, 8]}, "uniqueid": "MTK1510:3LKC68YZ3BAIRBEG4QU0TRPR3P9WOK", "dateTime": 1515952186183}, {"current_trial": 44, "trialdata": {"rt": -1, "trial_type": "single-stim", "stimulus": "<p id=\"stim\">10</p>", "internal_node_id": "0.0-35.0-0.0", "time_elapsed": 273837, "key_press": -1, "trial_index": 44}, "uniqueid": "MTK1510:3LKC68YZ3BAIRBEG4QU0TRPR3P9WOK", "dateTime": 1515952189193}, {"current_trial": 45, "trialdata": {"rt": -1, "trial_type": "single-stim", "stimulus": "<p id=\"stim\">9</p>", "internal_node_id": "0.0-35.0-1.0", "time_elapsed": 274841, "key_press": -1, "trial_index": 45}, "uniqueid": "MTK1510:3LKC68YZ3BAIRBEG4QU0TRPR3P9WOK", "dateTime": 1515952190198}, {"current_trial": 46, "trialdata": {"rt": -1, "trial_type": "single-stim", "stimulus": "<p id=\"stim\">8</p>", "internal_node_id": "0.0-35.0-2.0", "time_elapsed": 275845, "key_press": -1, "trial_index": 46}, "uniqueid": "MTK1510:3LKC68YZ3BAIRBEG4QU0TRPR3P9WOK", "dateTime": 1515952191201}, {"current_trial": 47, "trialdata": {"rt": -1, "trial_type": "single-stim", "stimulus": "<p id=\"stim\">7</p>", "internal_node_id": "0.0-35.0-3.0", "time_elapsed": 276851, "key_press": -1, "trial_index": 47}, "uniqueid": "MTK1510:3LKC68YZ3BAIRBEG4QU0TRPR3P9WOK", "dateTime": 1515952192207}, {"current_trial": 48, "trialdata": {"rt": -1, "trial_type": "single-stim", "stimulus": "<p id=\"stim\">6</p>", "internal_node_id": "0.0-35.0-4.0", "time_elapsed": 277853, "key_press": -1, "trial_index": 48}, "uniqueid": "MTK1510:3LKC68YZ3BAIRBEG4QU0TRPR3P9WOK", "dateTime": 1515952193210}, {"current_trial": 49, "trialdata": {"rt": -1, "trial_type": "single-stim", "stimulus": "<p id=\"stim\">5</p>", "internal_node_id": "0.0-35.0-5.0", "time_elapsed": 278859, "key_press": -1, "trial_index": 49}, "uniqueid": "MTK1510:3LKC68YZ3BAIRBEG4QU0TRPR3P9WOK", "dateTime": 1515952194215}, {"current_trial": 50, "trialdata": {"rt": -1, "trial_type": "single-stim", "stimulus": "<p id=\"stim\">4</p>", "internal_node_id": "0.0-35.0-6.0", "time_elapsed": 279862, "key_press": -1, "trial_index": 50}, "uniqueid": "MTK1510:3LKC68YZ3BAIRBEG4QU0TRPR3P9WOK", "dateTime": 1515952195218}, {"current_trial": 51, "trialdata": {"rt": -1, "trial_type": "single-stim", "stimulus": "<p id=\"stim\">3</p>", "internal_node_id": "0.0-35.0-7.0", "time_elapsed": 280866, "key_press": -1, "trial_index": 51}, "uniqueid": "MTK1510:3LKC68YZ3BAIRBEG4QU0TRPR3P9WOK", "dateTime": 1515952196222}, {"current_trial": 52, "trialdata": {"rt": -1, "trial_type": "single-stim", "stimulus": "<p id=\"stim\">2</p>", "internal_node_id": "0.0-35.0-8.0", "time_elapsed": 281870, "key_press": -1, "trial_index": 52}, "uniqueid": "MTK1510:3LKC68YZ3BAIRBEG4QU0TRPR3P9WOK", "dateTime": 1515952197226}, {"current_trial": 53, "trialdata": {"rt": -1, "trial_type": "single-stim", "stimulus": "<p id=\"stim\">1</p>", "internal_node_id": "0.0-35.0-9.0", "time_elapsed": 282874, "key_press": -1, "trial_index": 53}, "uniqueid": "MTK1510:3LKC68YZ3BAIRBEG4QU0TRPR3P9WOK", "dateTime": 1515952198231}, {"current_trial": 54, "trialdata": {"rt": -1, "trial_type": "single-stim", "stimulus": "<p id=\"stim\">+</p>", "internal_node_id": "0.0-36.0-0.0", "time_elapsed": 284377, "key_press": -1, "type": "FIXATION", "trial_index": 54}, "uniqueid": "MTK1510:3LKC68YZ3BAIRBEG4QU0TRPR3P9WOK", "dateTime": 1515952199733}, {"current_trial": 55, "trialdata": {"rt": -1, "trial_type": "single-stim", "word": "flesh", "stimulus": "<p id=\"stim\">FLESH</p>", "conditions": [18, 1200, "v", 18000], "internal_node_id": "0.0-37.0", "trial": 1, "time_elapsed": 285583, "serialpos": 0, "key_press": -1, "wordID": 578, "type": "PRES_VIS", "trial_index": 55}, "uniqueid": "MTK1510:3LKC68YZ3BAIRBEG4QU0TRPR3P9WOK", "dateTime": 1515952200939}, {"current_trial": 56, "trialdata": {"rt": -1, "trial_type": "single-stim", "word": "helmet", "stimulus": "<p id=\"stim\">HELMET</p>", "conditions": [18, 1200, "v", 18000], "internal_node_id": "0.0-38.0", "trial": 1, "time_elapsed": 287958, "serialpos": 1, "key_press": -1, "wordID": 701, "type": "PRES_VIS", "trial_index": 56}, "uniqueid": "MTK1510:3LKC68YZ3BAIRBEG4QU0TRPR3P9WOK", "dateTime": 1515952203314}, {"current_trial": 57, "trialdata": {"rt": -1, "trial_type": "single-stim", "word": "kleenex", "stimulus": "<p id=\"stim\">KLEENEX</p>", "conditions": [18, 1200, "v", 18000], "internal_node_id": "0.0-39.0", "trial": 1, "time_elapsed": 290077, "serialpos": 2, "key_press": -1, "wordID": 781, "type": "PRES_VIS", "trial_index": 57}, "uniqueid": "MTK1510:3LKC68YZ3BAIRBEG4QU0TRPR3P9WOK", "dateTime": 1515952205433}, {"current_trial": 58, "trialdata": {"rt": -1, "trial_type": "single-stim", "word": "jury", "stimulus": "<p id=\"stim\">JURY</p>", "conditions": [18, 1200, "v", 18000], "internal_node_id": "0.0-40.0", "trial": 1, "time_elapsed": 292277, "serialpos": 3, "key_press": -1, "wordID": 765, "type": "PRES_VIS", "trial_index": 58}, "uniqueid": "MTK1510:3LKC68YZ3BAIRBEG4QU0TRPR3P9WOK", "dateTime": 1515952207633}, {"current_trial": 59, "trialdata": {"rt": -1, "trial_type": "single-stim", "word": "river", "stimulus": "<p id=\"stim\">RIVER</p>", "conditions": [18, 1200, "v", 18000], "internal_node_id": "0.0-41.0", "trial": 1, "time_elapsed": 294378, "serialpos": 4, "key_press": -1, "wordID": 1193, "type": "PRES_VIS", "trial_index": 59}, "uniqueid": "MTK1510:3LKC68YZ3BAIRBEG4QU0TRPR3P9WOK", "dateTime": 1515952209734}, {"current_trial": 60, "trialdata": {"rt": -1, "trial_type": "single-stim", "word": "motor", "stimulus": "<p id=\"stim\">MOTOR</p>", "conditions": [18, 1200, "v", 18000], "internal_node_id": "0.0-42.0", "trial": 1, "time_elapsed": 296701, "serialpos": 5, "key_press": -1, "wordID": 921, "type": "PRES_VIS", "trial_index": 60}, "uniqueid": "MTK1510:3LKC68YZ3BAIRBEG4QU0TRPR3P9WOK", "dateTime": 1515952212058}, {"current_trial": 61, "trialdata": {"rt": -1, "trial_type": "single-stim", "word": "uncle", "stimulus": "<p id=\"stim\">UNCLE</p>", "conditions": [18, 1200, "v", 18000], "internal_node_id": "0.0-43.0", "trial": 1, "time_elapsed": 298876, "serialpos": 6, "key_press": -1, "wordID": 1535, "type": "PRES_VIS", "trial_index": 61}, "uniqueid": "MTK1510:3LKC68YZ3BAIRBEG4QU0TRPR3P9WOK", "dateTime": 1515952214232}, {"current_trial": 62, "trialdata": {"rt": -1, "trial_type": "single-stim", "word": "orchid", "stimulus": "<p id=\"stim\">ORCHID</p>", "conditions": [18, 1200, "v", 18000], "internal_node_id": "0.0-44.0", "trial": 1, "time_elapsed": 301047, "serialpos": 7, "key_press": -1, "wordID": 981, "type": "PRES_VIS", "trial_index": 62}, "uniqueid": "MTK1510:3LKC68YZ3BAIRBEG4QU0TRPR3P9WOK", "dateTime": 1515952216403}, {"current_trial": 63, "trialdata": {"rt": -1, "trial_type": "single-stim", "word": "lizard", "stimulus": "<p id=\"stim\">LIZARD</p>", "conditions": [18, 1200, "v", 18000], "internal_node_id": "0.0-45.0", "trial": 1, "time_elapsed": 303241, "serialpos": 8, "key_press": -1, "wordID": 833, "type": "PRES_VIS", "trial_index": 63}, "uniqueid": "MTK1510:3LKC68YZ3BAIRBEG4QU0TRPR3P9WOK", "dateTime": 1515952218597}, {"current_trial": 64, "trialdata": {"rt": -1, "trial_type": "single-stim", "word": "slug", "stimulus": "<p id=\"stim\">SLUG</p>", "conditions": [18, 1200, "v", 18000], "internal_node_id": "0.0-46.0", "trial": 1, "time_elapsed": 305527, "serialpos": 9, "key_press": -1, "wordID": 1328, "type": "PRES_VIS", "trial_index": 64}, "uniqueid": "MTK1510:3LKC68YZ3BAIRBEG4QU0TRPR3P9WOK", "dateTime": 1515952220884}, {"current_trial": 65, "trialdata": {"rt": -1, "trial_type": "single-stim", "word": "police", "stimulus": "<p id=\"stim\">POLICE</p>", "conditions": [18, 1200, "v", 18000], "internal_node_id": "0.0-47.0", "trial": 1, "time_elapsed": 307540, "serialpos": 10, "key_press": -1, "wordID": 1097, "type": "PRES_VIS", "trial_index": 65}, "uniqueid": "MTK1510:3LKC68YZ3BAIRBEG4QU0TRPR3P9WOK", "dateTime": 1515952222896}, {"current_trial": 66, "trialdata": {"rt": -1, "trial_type": "single-stim", "word": "nomad", "stimulus": "<p id=\"stim\">NOMAD</p>", "conditions": [18, 1200, "v", 18000], "internal_node_id": "0.0-48.0", "trial": 1, "time_elapsed": 309933, "serialpos": 11, "key_press": -1, "wordID": 954, "type": "PRES_VIS", "trial_index": 66}, "uniqueid": "MTK1510:3LKC68YZ3BAIRBEG4QU0TRPR3P9WOK", "dateTime": 1515952225289}, {"current_trial": 67, "trialdata": {"rt": -1, "trial_type": "single-stim", "word": "film", "stimulus": "<p id=\"stim\">FILM</p>", "conditions": [18, 1200, "v", 18000], "internal_node_id": "0.0-49.0", "trial": 1, "time_elapsed": 312191, "serialpos": 12, "key_press": -1, "wordID": 564, "type": "PRES_VIS", "trial_index": 67}, "uniqueid": "MTK1510:3LKC68YZ3BAIRBEG4QU0TRPR3P9WOK", "dateTime": 1515952227547}, {"current_trial": 68, "trialdata": {"rt": -1, "trial_type": "single-stim", "word": "thief", "stimulus": "<p id=\"stim\">THIEF</p>", "conditions": [18, 1200, "v", 18000], "internal_node_id": "0.0-50.0", "trial": 1, "time_elapsed": 314402, "serialpos": 13, "key_press": -1, "wordID": 1455, "type": "PRES_VIS", "trial_index": 68}, "uniqueid": "MTK1510:3LKC68YZ3BAIRBEG4QU0TRPR3P9WOK", "dateTime": 1515952229762}, {"current_trial": 69, "trialdata": {"rt": -1, "trial_type": "single-stim", "word": "blade", "stimulus": "<p id=\"stim\">BLADE</p>", "conditions": [18, 1200, "v", 18000], "internal_node_id": "0.0-51.0", "trial": 1, "time_elapsed": 316814, "serialpos": 14, "key_press": -1, "wordID": 133, "type": "PRES_VIS", "trial_index": 69}, "uniqueid": "MTK1510:3LKC68YZ3BAIRBEG4QU0TRPR3P9WOK", "dateTime": 1515952232170}, {"current_trial": 70, "trialdata": {"rt": -1, "trial_type": "single-stim", "word": "woman", "stimulus": "<p id=\"stim\">WOMAN</p>", "conditions": [18, 1200, "v", 18000], "internal_node_id": "0.0-52.0", "trial": 1, "time_elapsed": 318842, "serialpos": 15, "key_press": -1, "wordID": 1619, "type": "PRES_VIS", "trial_index": 70}, "uniqueid": "MTK1510:3LKC68YZ3BAIRBEG4QU0TRPR3P9WOK", "dateTime": 1515952234198}, {"current_trial": 71, "trialdata": {"rt": -1, "trial_type": "single-stim", "word": "freckle", "stimulus": "<p id=\"stim\">FRECKLE</p>", "conditions": [18, 1200, "v", 18000], "internal_node_id": "0.0-53.0", "trial": 1, "time_elapsed": 321193, "serialpos": 16, "key_press": -1, "wordID": 601, "type": "PRES_VIS", "trial_index": 71}, "uniqueid": "MTK1510:3LKC68YZ3BAIRBEG4QU0TRPR3P9WOK", "dateTime": 1515952236549}, {"current_trial": 72, "trialdata": {"rt": -1, "trial_type": "single-stim", "word": "rust", "stimulus": "<p id=\"stim\">RUST</p>", "conditions": [18, 1200, "v", 18000], "internal_node_id": "0.0-54.0", "trial": 1, "time_elapsed": 323345, "serialpos": 17, "key_press": -1, "wordID": 1218, "type": "PRES_VIS", "trial_index": 72}, "uniqueid": "MTK1510:3LKC68YZ3BAIRBEG4QU0TRPR3P9WOK", "dateTime": 1515952238701}, {"current_trial": 73, "trialdata": {"rt": -1, "trial_type": "single-stim", "stimulus": "", "internal_node_id": "0.0-55.0-0.0", "time_elapsed": 325442, "key_press": -1, "type": "PRE_RECALL_DELAY", "trial_index": 73}, "uniqueid": "MTK1510:3LKC68YZ3BAIRBEG4QU0TRPR3P9WOK", "dateTime": 1515952240798}, {"current_trial": 74, "trialdata": {"rt": -1000, "trial_type": "single-audio", "stimulus": "/static/audio/400Hz.wav", "internal_node_id": "0.0-56.0", "time_elapsed": 325976, "key_press": -1, "type": "PRE_RECALL_ALERT", "trial_index": 74}, "uniqueid": "MTK1510:3LKC68YZ3BAIRBEG4QU0TRPR3P9WOK", "dateTime": 1515952241333}, {"current_trial": 75, "trialdata": {"rt": [2023, 2894, 4058, 5510, 7370, 12504], "recwords": ["police", "flesh", "helmet", "woman", "freckle", "thief"], "key_times": [615, 710, 946, 1075, 1178, 1301, 2023, 2259, 2375, 2483, 2567, 2655, 2894, 3184, 3293, 3385, 3590, 3699, 3799, 4058, 4879, 4983, 5047, 5183, 5271, 5510, 5713, 5877, 6142, 6344, 6476, 6723, 6863, 7370, 11821, 11934, 12034, 12139, 12263, 12504], "trial_type": "free-recall", "conditions": [18, 1200, "v", 18000], "internal_node_id": "0.0-57.0-0.0", "key_presses": [80, 79, 76, 73, 67, 69, 13, 70, 76, 69, 83, 72, 13, 72, 69, 76, 77, 69, 84, 13, 87, 79, 77, 65, 78, 13, 70, 82, 69, 67, 75, 76, 69, 13, 84, 72, 73, 69, 70, 13], "trial": 1, "time_elapsed": 386023, "type": "FREE_RECALL", "trial_index": 75}, "uniqueid": "MTK1510:3LKC68YZ3BAIRBEG4QU0TRPR3P9WOK", "dateTime": 1515952301388}, {"current_trial": 76, "trialdata": {"rt": 2754, "trial_type": "text", "internal_node_id": "0.0-58.0", "time_elapsed": 390790, "key_press": 70, "type": "INSTRUCTIONS", "trial_index": 76}, "uniqueid": "MTK1510:3LKC68YZ3BAIRBEG4QU0TRPR3P9WOK", "dateTime": 1515952306146}, {"current_trial": 77, "trialdata": {"rt": [2513, 4288, 6217, 7694, 9226, 11892, 13402, 15449, 17186, 19494, 21833, 23939], "trial_type": "math-distractor", "key_times": [2217, 2276, 2513, 4010, 4074, 4288, 5864, 5960, 6217, 7298, 7422, 7694, 8891, 8980, 9226, 11551, 11679, 11892, 13057, 13157, 13402, 14717, 14853, 15449, 16838, 16954, 17186, 18691, 19222, 19494, 21352, 21630, 21833, 23658, 23939], "responses": ["13", "12", "10", "19", "12", "13", "18", "18", "13", "16", "15", "8"], "num2": [5, 4, 3, 9, 8, 4, 2, 7, 5, 6, 2, 2, 2], "num3": [1, 3, 6, 1, 1, 5, 7, 9, 2, 6, 9, 2, 9], "conditions": [24, 1600, "v", 24000], "internal_node_id": "0.0-59.0", "key_presses": [49, 51, 13, 49, 50, 13, 49, 48, 13, 49, 57, 13, 49, 50, 13, 49, 51, 13, 49, 56, 13, 49, 56, 13, 49, 51, 13, 49, 54, 13, 49, 53, 13, 56, 13], "trial": 2, "time_elapsed": 415804, "type": "DISTRACTOR", "trial_index": 77, "num1": [7, 5, 1, 9, 3, 4, 9, 2, 6, 4, 4, 4, 2]}, "uniqueid": "MTK1510:3LKC68YZ3BAIRBEG4QU0TRPR3P9WOK", "dateTime": 1515952331160}, {"current_trial": 78, "trialdata": {"rt": -1, "trial_type": "single-stim", "stimulus": "<p id=\"stim\">10</p>", "internal_node_id": "0.0-60.0-0.0", "time_elapsed": 418809, "key_press": -1, "trial_index": 78}, "uniqueid": "MTK1510:3LKC68YZ3BAIRBEG4QU0TRPR3P9WOK", "dateTime": 1515952334165}, {"current_trial": 79, "trialdata": {"rt": -1, "trial_type": "single-stim", "stimulus": "<p id=\"stim\">9</p>", "internal_node_id": "0.0-60.0-1.0", "time_elapsed": 419814, "key_press": -1, "trial_index": 79}, "uniqueid": "MTK1510:3LKC68YZ3BAIRBEG4QU0TRPR3P9WOK", "dateTime": 1515952335170}, {"current_trial": 80, "trialdata": {"rt": -1, "trial_type": "single-stim", "stimulus": "<p id=\"stim\">8</p>", "internal_node_id": "0.0-60.0-2.0", "time_elapsed": 420818, "key_press": -1, "trial_index": 80}, "uniqueid": "MTK1510:3LKC68YZ3BAIRBEG4QU0TRPR3P9WOK", "dateTime": 1515952336174}, {"current_trial": 81, "trialdata": {"rt": -1, "trial_type": "single-stim", "stimulus": "<p id=\"stim\">7</p>", "internal_node_id": "0.0-60.0-3.0", "time_elapsed": 421822, "key_press": -1, "trial_index": 81}, "uniqueid": "MTK1510:3LKC68YZ3BAIRBEG4QU0TRPR3P9WOK", "dateTime": 1515952337178}, {"current_trial": 82, "trialdata": {"rt": -1, "trial_type": "single-stim", "stimulus": "<p id=\"stim\">6</p>", "internal_node_id": "0.0-60.0-4.0", "time_elapsed": 422826, "key_press": -1, "trial_index": 82}, "uniqueid": "MTK1510:3LKC68YZ3BAIRBEG4QU0TRPR3P9WOK", "dateTime": 1515952338182}, {"current_trial": 83, "trialdata": {"rt": -1, "trial_type": "single-stim", "stimulus": "<p id=\"stim\">5</p>", "internal_node_id": "0.0-60.0-5.0", "time_elapsed": 423830, "key_press": -1, "trial_index": 83}, "uniqueid": "MTK1510:3LKC68YZ3BAIRBEG4QU0TRPR3P9WOK", "dateTime": 1515952339187}, {"current_trial": 84, "trialdata": {"rt": -1, "trial_type": "single-stim", "stimulus": "<p id=\"stim\">4</p>", "internal_node_id": "0.0-60.0-6.0", "time_elapsed": 424834, "key_press": -1, "trial_index": 84}, "uniqueid": "MTK1510:3LKC68YZ3BAIRBEG4QU0TRPR3P9WOK", "dateTime": 1515952340190}, {"current_trial": 85, "trialdata": {"rt": -1, "trial_type": "single-stim", "stimulus": "<p id=\"stim\">3</p>", "internal_node_id": "0.0-60.0-7.0", "time_elapsed": 425839, "key_press": -1, "trial_index": 85}, "uniqueid": "MTK1510:3LKC68YZ3BAIRBEG4QU0TRPR3P9WOK", "dateTime": 1515952341195}, {"current_trial": 86, "trialdata": {"rt": -1, "trial_type": "single-stim", "stimulus": "<p id=\"stim\">2</p>", "internal_node_id": "0.0-60.0-8.0", "time_elapsed": 426843, "key_press": -1, "trial_index": 86}, "uniqueid": "MTK1510:3LKC68YZ3BAIRBEG4QU0TRPR3P9WOK", "dateTime": 1515952342199}, {"current_trial": 87, "trialdata": {"rt": -1, "trial_type": "single-stim", "stimulus": "<p id=\"stim\">1</p>", "internal_node_id": "0.0-60.0-9.0", "time_elapsed": 427847, "key_press": -1, "trial_index": 87}, "uniqueid": "MTK1510:3LKC68YZ3BAIRBEG4QU0TRPR3P9WOK", "dateTime": 1515952343203}, {"current_trial": 88, "trialdata": {"rt": -1, "trial_type": "single-stim", "stimulus": "<p id=\"stim\">+</p>", "internal_node_id": "0.0-61.0-0.0", "time_elapsed": 429350, "key_press": -1, "type": "FIXATION", "trial_index": 88}, "uniqueid": "MTK1510:3LKC68YZ3BAIRBEG4QU0TRPR3P9WOK", "dateTime": 1515952344706}, {"current_trial": 89, "trialdata": {"rt": -1, "trial_type": "single-stim", "word": "brother", "stimulus": "<p id=\"stim\">BROTHER</p>", "conditions": [24, 1600, "v", 24000], "internal_node_id": "0.0-62.0", "trial": 2, "time_elapsed": 430958, "serialpos": 0, "key_press": -1, "wordID": 178, "type": "PRES_VIS", "trial_index": 89}, "uniqueid": "MTK1510:3LKC68YZ3BAIRBEG4QU0TRPR3P9WOK", "dateTime": 1515952346314}, {"current_trial": 90, "trialdata": {"rt": -1, "trial_type": "single-stim", "word": "mars", "stimulus": "<p id=\"stim\">MARS</p>", "conditions": [24, 1600, "v", 24000], "internal_node_id": "0.0-63.0", "trial": 2, "time_elapsed": 433593, "serialpos": 1, "key_press": -1, "wordID": 872, "type": "PRES_VIS", "trial_index": 90}, "uniqueid": "MTK1510:3LKC68YZ3BAIRBEG4QU0TRPR3P9WOK", "dateTime": 1515952348949}, {"current_trial": 91, "trialdata": {"rt": -1, "trial_type": "single-stim", "word": "antler", "stimulus": "<p id=\"stim\">ANTLER</p>", "conditions": [24, 1600, "v", 24000], "internal_node_id": "0.0-64.0", "trial": 2, "time_elapsed": 436007, "serialpos": 2, "key_press": -1, "wordID": 28, "type": "PRES_VIS", "trial_index": 91}, "uniqueid": "MTK1510:3LKC68YZ3BAIRBEG4QU0TRPR3P9WOK", "dateTime": 1515952351364}, {"current_trial": 92, "trialdata": {"rt": -1, "trial_type": "single-stim", "word": "server", "stimulus": "<p id=\"stim\">SERVER</p>", "conditions": [24, 1600, "v", 24000], "internal_node_id": "0.0-65.0", "trial": 2, "time_elapsed": 438776, "serialpos": 3, "key_press": -1, "wordID": 1271, "type": "PRES_VIS", "trial_index": 92}, "uniqueid": "MTK1510:3LKC68YZ3BAIRBEG4QU0TRPR3P9WOK", "dateTime": 1515952354132}, {"current_trial": 93, "trialdata": {"rt": -1, "trial_type": "single-stim", "word": "inmate", "stimulus": "<p id=\"stim\">INMATE</p>", "conditions": [24, 1600, "v", 24000], "internal_node_id": "0.0-66.0", "trial": 2, "time_elapsed": 441214, "serialpos": 4, "key_press": -1, "wordID": 737, "type": "PRES_VIS", "trial_index": 93}, "uniqueid": "MTK1510:3LKC68YZ3BAIRBEG4QU0TRPR3P9WOK", "dateTime": 1515952356570}, {"current_trial": 94, "trialdata": {"rt": -1, "trial_type": "single-stim", "word": "baby", "stimulus": "<p id=\"stim\">BABY</p>", "conditions": [24, 1600, "v", 24000], "internal_node_id": "0.0-67.0", "trial": 2, "time_elapsed": 443872, "serialpos": 5, "key_press": -1, "wordID": 63, "type": "PRES_VIS", "trial_index": 94}, "uniqueid": "MTK1510:3LKC68YZ3BAIRBEG4QU0TRPR3P9WOK", "dateTime": 1515952359228}, {"current_trial": 95, "trialdata": {"rt": -1, "trial_type": "single-stim", "word": "daughter", "stimulus": "<p id=\"stim\">DAUGHTER</p>", "conditions": [24, 1600, "v", 24000], "internal_node_id": "0.0-68.0", "trial": 2, "time_elapsed": 446513, "serialpos": 6, "key_press": -1, "wordID": 441, "type": "PRES_VIS", "trial_index": 95}, "uniqueid": "MTK1510:3LKC68YZ3BAIRBEG4QU0TRPR3P9WOK", "dateTime": 1515952361869}, {"current_trial": 96, "trialdata": {"rt": -1, "trial_type": "single-stim", "word": "flipper", "stimulus": "<p id=\"stim\">FLIPPER</p>", "conditions": [24, 1600, "v", 24000], "internal_node_id": "0.0-69.0", "trial": 2, "time_elapsed": 449154, "serialpos": 7, "key_press": -1, "wordID": 579, "type": "PRES_VIS", "trial_index": 96}, "uniqueid": "MTK1510:3LKC68YZ3BAIRBEG4QU0TRPR3P9WOK", "dateTime": 1515952364510}, {"current_trial": 97, "trialdata": {"rt": -1, "trial_type": "single-stim", "word": "pebble", "stimulus": "<p id=\"stim\">PEBBLE</p>", "conditions": [24, 1600, "v", 24000], "internal_node_id": "0.0-70.0", "trial": 2, "time_elapsed": 451784, "serialpos": 8, "key_press": -1, "wordID": 1034, "type": "PRES_VIS", "trial_index": 97}, "uniqueid": "MTK1510:3LKC68YZ3BAIRBEG4QU0TRPR3P9WOK", "dateTime": 1515952367140}, {"current_trial": 98, "trialdata": {"rt": -1, "trial_type": "single-stim", "word": "hiker", "stimulus": "<p id=\"stim\">HIKER</p>", "conditions": [24, 1600, "v", 24000], "internal_node_id": "0.0-71.0", "trial": 2, "time_elapsed": 454354, "serialpos": 9, "key_press": -1, "wordID": 707, "type": "PRES_VIS", "trial_index": 98}, "uniqueid": "MTK1510:3LKC68YZ3BAIRBEG4QU0TRPR3P9WOK", "dateTime": 1515952369711}, {"current_trial": 99, "trialdata": {"rt": -1, "trial_type": "single-stim", "word": "sibling", "stimulus": "<p id=\"stim\">SIBLING</p>", "conditions": [24, 1600, "v", 24000], "internal_node_id": "0.0-72.0", "trial": 2, "time_elapsed": 456891, "serialpos": 10, "key_press": -1, "wordID": 1300, "type": "PRES_VIS", "trial_index": 99}, "uniqueid": "MTK1510:3LKC68YZ3BAIRBEG4QU0TRPR3P9WOK", "dateTime": 1515952372247}, {"current_trial": 100, "trialdata": {"rt": -1, "trial_type": "single-stim", "word": "freezer", "stimulus": "<p id=\"stim\">FREEZER</p>", "conditions": [24, 1600, "v", 24000], "internal_node_id": "0.0-73.0", "trial": 2, "time_elapsed": 459421, "serialpos": 11, "key_press": -1, "wordID": 603, "type": "PRES_VIS", "trial_index": 100}, "uniqueid": "MTK1510:3LKC68YZ3BAIRBEG4QU0TRPR3P9WOK", "dateTime": 1515952374778}, {"current_trial": 101, "trialdata": {"rt": -1, "trial_type": "single-stim", "word": "powder", "stimulus": "<p id=\"stim\">POWDER</p>", "conditions": [24, 1600, "v", 24000], "internal_node_id": "0.0-74.0", "trial": 2, "time_elapsed": 462085, "serialpos": 12, "key_press": -1, "wordID": 1116, "type": "PRES_VIS", "trial_index": 101}, "uniqueid": "MTK1510:3LKC68YZ3BAIRBEG4QU0TRPR3P9WOK", "dateTime": 1515952377442}, {"current_trial": 102, "trialdata": {"rt": -1, "trial_type": "single-stim", "word": "cocktail", "stimulus": "<p id=\"stim\">COCKTAIL</p>", "conditions": [24, 1600, "v", 24000], "internal_node_id": "0.0-75.0", "trial": 2, "time_elapsed": 464581, "serialpos": 13, "key_press": -1, "wordID": 337, "type": "PRES_VIS", "trial_index": 102}, "uniqueid": "MTK1510:3LKC68YZ3BAIRBEG4QU0TRPR3P9WOK", "dateTime": 1515952379938}, {"current_trial": 103, "trialdata": {"rt": -1, "trial_type": "single-stim", "word": "football", "stimulus": "<p id=\"stim\">FOOTBALL</p>", "conditions": [24, 1600, "v", 24000], "internal_node_id": "0.0-76.0", "trial": 2, "time_elapsed": 467274, "serialpos": 14, "key_press": -1, "wordID": 590, "type": "PRES_VIS", "trial_index": 103}, "uniqueid": "MTK1510:3LKC68YZ3BAIRBEG4QU0TRPR3P9WOK", "dateTime": 1515952382631}, {"current_trial": 104, "trialdata": {"rt": -1, "trial_type": "single-stim", "word": "missile", "stimulus": "<p id=\"stim\">MISSILE</p>", "conditions": [24, 1600, "v", 24000], "internal_node_id": "0.0-77.0", "trial": 2, "time_elapsed": 470054, "serialpos": 15, "key_press": -1, "wordID": 899, "type": "PRES_VIS", "trial_index": 104}, "uniqueid": "MTK1510:3LKC68YZ3BAIRBEG4QU0TRPR3P9WOK", "dateTime": 1515952385410}, {"current_trial": 105, "trialdata": {"rt": -1, "trial_type": "single-stim", "word": "servant", "stimulus": "<p id=\"stim\">SERVANT</p>", "conditions": [24, 1600, "v", 24000], "internal_node_id": "0.0-78.0", "trial": 2, "time_elapsed": 472852, "serialpos": 16, "key_press": -1, "wordID": 1270, "type": "PRES_VIS", "trial_index": 105}, "uniqueid": "MTK1510:3LKC68YZ3BAIRBEG4QU0TRPR3P9WOK", "dateTime": 1515952388209}, {"current_trial": 106, "trialdata": {"rt": -1, "trial_type": "single-stim", "word": "lake", "stimulus": "<p id=\"stim\">LAKE</p>", "conditions": [24, 1600, "v", 24000], "internal_node_id": "0.0-79.0", "trial": 2, "time_elapsed": 475333, "serialpos": 17, "key_press": -1, "wordID": 795, "type": "PRES_VIS", "trial_index": 106}, "uniqueid": "MTK1510:3LKC68YZ3BAIRBEG4QU0TRPR3P9WOK", "dateTime": 1515952390689}, {"current_trial": 107, "trialdata": {"rt": -1, "trial_type": "single-stim", "word": "marsh", "stimulus": "<p id=\"stim\">MARSH</p>", "conditions": [24, 1600, "v", 24000], "internal_node_id": "0.0-80.0", "trial": 2, "time_elapsed": 477995, "serialpos": 18, "key_press": -1, "wordID": 873, "type": "PRES_VIS", "trial_index": 107}, "uniqueid": "MTK1510:3LKC68YZ3BAIRBEG4QU0TRPR3P9WOK", "dateTime": 1515952393351}, {"current_trial": 108, "trialdata": {"rt": -1, "trial_type": "single-stim", "word": "table", "stimulus": "<p id=\"stim\">TABLE</p>", "conditions": [24, 1600, "v", 24000], "internal_node_id": "0.0-81.0", "trial": 2, "time_elapsed": 480403, "serialpos": 19, "key_press": -1, "wordID": 1425, "type": "PRES_VIS", "trial_index": 108}, "uniqueid": "MTK1510:3LKC68YZ3BAIRBEG4QU0TRPR3P9WOK", "dateTime": 1515952395759}, {"current_trial": 109, "trialdata": {"rt": -1, "trial_type": "single-stim", "word": "peach", "stimulus": "<p id=\"stim\">PEACH</p>", "conditions": [24, 1600, "v", 24000], "internal_node_id": "0.0-82.0", "trial": 2, "time_elapsed": 483201, "serialpos": 20, "key_press": -1, "wordID": 1030, "type": "PRES_VIS", "trial_index": 109}, "uniqueid": "MTK1510:3LKC68YZ3BAIRBEG4QU0TRPR3P9WOK", "dateTime": 1515952398557}, {"current_trial": 110, "trialdata": {"rt": -1, "trial_type": "single-stim", "word": "eyelash", "stimulus": "<p id=\"stim\">EYELASH</p>", "conditions": [24, 1600, "v", 24000], "internal_node_id": "0.0-83.0", "trial": 2, "time_elapsed": 485651, "serialpos": 21, "key_press": -1, "wordID": 545, "type": "PRES_VIS", "trial_index": 110}, "uniqueid": "MTK1510:3LKC68YZ3BAIRBEG4QU0TRPR3P9WOK", "dateTime": 1515952401007}, {"current_trial": 111, "trialdata": {"rt": -1, "trial_type": "single-stim", "word": "rocket", "stimulus": "<p id=\"stim\">ROCKET</p>", "conditions": [24, 1600, "v", 24000], "internal_node_id": "0.0-84.0", "trial": 2, "time_elapsed": 488122, "serialpos": 22, "key_press": -1, "wordID": 1201, "type": "PRES_VIS", "trial_index": 111}, "uniqueid": "MTK1510:3LKC68YZ3BAIRBEG4QU0TRPR3P9WOK", "dateTime": 1515952403479}, {"current_trial": 112, "trialdata": {"rt": -1, "trial_type": "single-stim", "word": "chemist", "stimulus": "<p id=\"stim\">CHEMIST</p>", "conditions": [24, 1600, "v", 24000], "internal_node_id": "0.0-85.0", "trial": 2, "time_elapsed": 490920, "serialpos": 23, "key_press": -1, "wordID": 291, "type": "PRES_VIS", "trial_index": 112}, "uniqueid": "MTK1510:3LKC68YZ3BAIRBEG4QU0TRPR3P9WOK", "dateTime": 1515952406277}, {"current_trial": 113, "trialdata": {"rt": -1, "trial_type": "single-stim", "stimulus": "", "internal_node_id": "0.0-86.0-0.0", "time_elapsed": 493132, "key_press": -1, "type": "PRE_RECALL_DELAY", "trial_index": 113}, "uniqueid": "MTK1510:3LKC68YZ3BAIRBEG4QU0TRPR3P9WOK", "dateTime": 1515952408488}, {"current_trial": 114, "trialdata": {"rt": -1000, "trial_type": "single-audio", "stimulus": "/static/audio/400Hz.wav", "internal_node_id": "0.0-87.0", "time_elapsed": 493639, "key_press": -1, "type": "PRE_RECALL_ALERT", "trial_index": 114}, "uniqueid": "MTK1510:3LKC68YZ3BAIRBEG4QU0TRPR3P9WOK", "dateTime": 1515952408995}, {"current_trial": 115, "trialdata": {"rt": [1196, 1865, 3026, 4875, 6209, 9302, 19838], "recwords": ["brother", "mars", "antler", "server", "pebble", "sibling", "servant"], "key_times": [504, 624, 712, 832, 919, 975, 1043, 1196, 1454, 1542, 1598, 1697, 1865, 2094, 2177, 2355, 2483, 2623, 2894, 3026, 4177, 4245, 4293, 4446, 4660, 4728, 4875, 5238, 5379, 5507, 5646, 5851, 5988, 6209, 7139, 7274, 7433, 7583, 7702, 7807, 7894, 9302, 18917, 19015, 19091, 19262, 19346, 19474, 19590, 19838], "trial_type": "free-recall", "conditions": [24, 1600, "v", 24000], "internal_node_id": "0.0-88.0-0.0", "key_presses": [66, 82, 79, 84, 72, 69, 82, 13, 77, 65, 82, 83, 13, 65, 78, 84, 76, 69, 82, 32, 83, 69, 82, 86, 69, 82, 13, 80, 69, 66, 66, 76, 69, 13, 83, 73, 66, 76, 73, 78, 71, 13, 83, 69, 82, 86, 65, 78, 84, 13], "trial": 2, "time_elapsed": 553666, "type": "FREE_RECALL", "trial_index": 115}, "uniqueid": "MTK1510:3LKC68YZ3BAIRBEG4QU0TRPR3P9WOK", "dateTime": 1515952469032}, {"current_trial": 116, "trialdata": {"rt": 1512, "trial_type": "text", "internal_node_id": "0.0-89.0", "time_elapsed": 557191, "key_press": 68, "type": "INSTRUCTIONS", "trial_index": 116}, "uniqueid": "MTK1510:3LKC68YZ3BAIRBEG4QU0TRPR3P9WOK", "dateTime": 1515952472547}, {"current_trial": 117, "trialdata": {"rt": [2942, 4246, 6282, 7596, 9074, 10422, 11936, 14040, 15448, 16805, 18773, 20059, 21729], "trial_type": "math-distractor", "key_times": [2057, 2615, 2942, 3987, 4246, 6016, 6170, 6282, 7261, 7410, 7596, 8719, 8821, 9074, 10088, 10257, 10422, 11595, 11679, 11936, 13225, 13777, 14040, 14976, 15157, 15448, 16585, 16805, 18363, 18561, 18773, 19731, 19843, 20059, 21424, 21516, 21729, 23717, 23829], "responses": ["16", "9", "11", "11", "18", "14", "19", "15", "17", "9", "11", "10", "14"], "num2": [9, 1, 1, 2, 9, 3, 7, 3, 9, 1, 2, 4, 6, 8], "num3": [1, 6, 9, 7, 1, 4, 8, 3, 7, 5, 3, 1, 5, 3], "conditions": [24, 800, "v", 24000], "internal_node_id": "0.0-90.0", "key_presses": [49, 54, 13, 57, 13, 49, 49, 13, 49, 49, 13, 49, 56, 13, 49, 52, 13, 49, 57, 13, 49, 53, 13, 49, 55, 13, 57, 13, 49, 49, 13, 49, 48, 13, 49, 52, 13, 49, 53], "trial": 3, "time_elapsed": 583200, "type": "DISTRACTOR", "trial_index": 117, "num1": [6, 2, 1, 2, 8, 7, 4, 9, 1, 3, 6, 5, 3, 4]}, "uniqueid": "MTK1510:3LKC68YZ3BAIRBEG4QU0TRPR3P9WOK", "dateTime": 1515952498557}, {"current_trial": 118, "trialdata": {"rt": -1, "trial_type": "single-stim", "stimulus": "<p id=\"stim\">10</p>", "internal_node_id": "0.0-91.0-0.0", "time_elapsed": 586207, "key_press": -1, "trial_index": 118}, "uniqueid": "MTK1510:3LKC68YZ3BAIRBEG4QU0TRPR3P9WOK", "dateTime": 1515952501563}, {"current_trial": 119, "trialdata": {"rt": -1, "trial_type": "single-stim", "stimulus": "<p id=\"stim\">9</p>", "internal_node_id": "0.0-91.0-1.0", "time_elapsed": 587211, "key_press": -1, "trial_index": 119}, "uniqueid": "MTK1510:3LKC68YZ3BAIRBEG4QU0TRPR3P9WOK", "dateTime": 1515952502567}, {"current_trial": 120, "trialdata": {"rt": -1, "trial_type": "single-stim", "stimulus": "<p id=\"stim\">8</p>", "internal_node_id": "0.0-91.0-2.0", "time_elapsed": 588215, "key_press": -1, "trial_index": 120}, "uniqueid": "MTK1510:3LKC68YZ3BAIRBEG4QU0TRPR3P9WOK", "dateTime": 1515952503571}, {"current_trial": 121, "trialdata": {"rt": -1, "trial_type": "single-stim", "stimulus": "<p id=\"stim\">7</p>", "internal_node_id": "0.0-91.0-3.0", "time_elapsed": 589219, "key_press": -1, "trial_index": 121}, "uniqueid": "MTK1510:3LKC68YZ3BAIRBEG4QU0TRPR3P9WOK", "dateTime": 1515952504575}, {"current_trial": 122, "trialdata": {"rt": -1, "trial_type": "single-stim", "stimulus": "<p id=\"stim\">6</p>", "internal_node_id": "0.0-91.0-4.0", "time_elapsed": 590223, "key_press": -1, "trial_index": 122}, "uniqueid": "MTK1510:3LKC68YZ3BAIRBEG4QU0TRPR3P9WOK", "dateTime": 1515952505579}, {"current_trial": 123, "trialdata": {"rt": -1, "trial_type": "single-stim", "stimulus": "<p id=\"stim\">5</p>", "internal_node_id": "0.0-91.0-5.0", "time_elapsed": 591227, "key_press": -1, "trial_index": 123}, "uniqueid": "MTK1510:3LKC68YZ3BAIRBEG4QU0TRPR3P9WOK", "dateTime": 1515952506583}, {"current_trial": 124, "trialdata": {"rt": -1, "trial_type": "single-stim", "stimulus": "<p id=\"stim\">4</p>", "internal_node_id": "0.0-91.0-6.0", "time_elapsed": 592231, "key_press": -1, "trial_index": 124}, "uniqueid": "MTK1510:3LKC68YZ3BAIRBEG4QU0TRPR3P9WOK", "dateTime": 1515952507587}, {"current_trial": 125, "trialdata": {"rt": -1, "trial_type": "single-stim", "stimulus": "<p id=\"stim\">3</p>", "internal_node_id": "0.0-91.0-7.0", "time_elapsed": 593235, "key_press": -1, "trial_index": 125}, "uniqueid": "MTK1510:3LKC68YZ3BAIRBEG4QU0TRPR3P9WOK", "dateTime": 1515952508591}, {"current_trial": 126, "trialdata": {"rt": -1, "trial_type": "single-stim", "stimulus": "<p id=\"stim\">2</p>", "internal_node_id": "0.0-91.0-8.0", "time_elapsed": 594239, "key_press": -1, "trial_index": 126}, "uniqueid": "MTK1510:3LKC68YZ3BAIRBEG4QU0TRPR3P9WOK", "dateTime": 1515952509596}, {"current_trial": 127, "trialdata": {"rt": -1, "trial_type": "single-stim", "stimulus": "<p id=\"stim\">1</p>", "internal_node_id": "0.0-91.0-9.0", "time_elapsed": 595243, "key_press": -1, "trial_index": 127}, "uniqueid": "MTK1510:3LKC68YZ3BAIRBEG4QU0TRPR3P9WOK", "dateTime": 1515952510600}, {"current_trial": 128, "trialdata": {"rt": -1, "trial_type": "single-stim", "stimulus": "<p id=\"stim\">+</p>", "internal_node_id": "0.0-92.0-0.0", "time_elapsed": 596747, "key_press": -1, "type": "FIXATION", "trial_index": 128}, "uniqueid": "MTK1510:3LKC68YZ3BAIRBEG4QU0TRPR3P9WOK", "dateTime": 1515952512103}, {"current_trial": 129, "trialdata": {"rt": -1, "trial_type": "single-stim", "word": "glove", "stimulus": "<p id=\"stim\">GLOVE</p>", "conditions": [24, 800, "v", 24000], "internal_node_id": "0.0-93.0", "trial": 3, "time_elapsed": 597552, "serialpos": 0, "key_press": -1, "wordID": 641, "type": "PRES_VIS", "trial_index": 129}, "uniqueid": "MTK1510:3LKC68YZ3BAIRBEG4QU0TRPR3P9WOK", "dateTime": 1515952512909}, {"current_trial": 130, "trialdata": {"rt": -1, "trial_type": "single-stim", "word": "liver", "stimulus": "<p id=\"stim\">LIVER</p>", "conditions": [24, 800, "v", 24000], "internal_node_id": "0.0-94.0", "trial": 3, "time_elapsed": 599554, "serialpos": 1, "key_press": -1, "wordID": 832, "type": "PRES_VIS", "trial_index": 130}, "uniqueid": "MTK1510:3LKC68YZ3BAIRBEG4QU0TRPR3P9WOK", "dateTime": 1515952514910}, {"current_trial": 131, "trialdata": {"rt": -1, "trial_type": "single-stim", "word": "relish", "stimulus": "<p id=\"stim\">RELISH</p>", "conditions": [24, 800, "v", 24000], "internal_node_id": "0.0-95.0", "trial": 3, "time_elapsed": 601528, "serialpos": 2, "key_press": -1, "wordID": 1182, "type": "PRES_VIS", "trial_index": 131}, "uniqueid": "MTK1510:3LKC68YZ3BAIRBEG4QU0TRPR3P9WOK", "dateTime": 1515952516884}, {"current_trial": 132, "trialdata": {"rt": -1, "trial_type": "single-stim", "word": "custard", "stimulus": "<p id=\"stim\">CUSTARD</p>", "conditions": [24, 800, "v", 24000], "internal_node_id": "0.0-96.0", "trial": 3, "time_elapsed": 603322, "serialpos": 3, "key_press": -1, "wordID": 428, "type": "PRES_VIS", "trial_index": 132}, "uniqueid": "MTK1510:3LKC68YZ3BAIRBEG4QU0TRPR3P9WOK", "dateTime": 1515952518688}, {"current_trial": 133, "trialdata": {"rt": -1, "trial_type": "single-stim", "word": "marrow", "stimulus": "<p id=\"stim\">MARROW</p>", "conditions": [24, 800, "v", 24000], "internal_node_id": "0.0-97.0", "trial": 3, "time_elapsed": 605295, "serialpos": 4, "key_press": -1, "wordID": 871, "type": "PRES_VIS", "trial_index": 133}, "uniqueid": "MTK1510:3LKC68YZ3BAIRBEG4QU0TRPR3P9WOK", "dateTime": 1515952520651}, {"current_trial": 134, "trialdata": {"rt": -1, "trial_type": "single-stim", "word": "whistle", "stimulus": "<p id=\"stim\">WHISTLE</p>", "conditions": [24, 800, "v", 24000], "internal_node_id": "0.0-98.0", "trial": 3, "time_elapsed": 607274, "serialpos": 5, "key_press": -1, "wordID": 1605, "type": "PRES_VIS", "trial_index": 134}, "uniqueid": "MTK1510:3LKC68YZ3BAIRBEG4QU0TRPR3P9WOK", "dateTime": 1515952522630}, {"current_trial": 135, "trialdata": {"rt": -1, "trial_type": "single-stim", "word": "shoulder", "stimulus": "<p id=\"stim\">SHOULDER</p>", "conditions": [24, 800, "v", 24000], "internal_node_id": "0.0-99.0", "trial": 3, "time_elapsed": 609231, "serialpos": 6, "key_press": -1, "wordID": 1293, "type": "PRES_VIS", "trial_index": 135}, "uniqueid": "MTK1510:3LKC68YZ3BAIRBEG4QU0TRPR3P9WOK", "dateTime": 1515952524588}, {"current_trial": 136, "trialdata": {"rt": -1, "trial_type": "single-stim", "word": "plaza", "stimulus": "<p id=\"stim\">PLAZA</p>", "conditions": [24, 800, "v", 24000], "internal_node_id": "0.0-100.0", "trial": 3, "time_elapsed": 611215, "serialpos": 7, "key_press": -1, "wordID": 1087, "type": "PRES_VIS", "trial_index": 136}, "uniqueid": "MTK1510:3LKC68YZ3BAIRBEG4QU0TRPR3P9WOK", "dateTime": 1515952526572}, {"current_trial": 137, "trialdata": {"rt": -1, "trial_type": "single-stim", "word": "primate", "stimulus": "<p id=\"stim\">PRIMATE</p>", "conditions": [24, 800, "v", 24000], "internal_node_id": "0.0-101.0", "trial": 3, "time_elapsed": 613125, "serialpos": 8, "key_press": -1, "wordID": 1122, "type": "PRES_VIS", "trial_index": 137}, "uniqueid": "MTK1510:3LKC68YZ3BAIRBEG4QU0TRPR3P9WOK", "dateTime": 1515952528481}, {"current_trial": 138, "trialdata": {"rt": -1, "trial_type": "single-stim", "word": "fiddle", "stimulus": "<p id=\"stim\">FIDDLE</p>", "conditions": [24, 800, "v", 24000], "internal_node_id": "0.0-102.0", "trial": 3, "time_elapsed": 615006, "serialpos": 9, "key_press": -1, "wordID": 560, "type": "PRES_VIS", "trial_index": 138}, "uniqueid": "MTK1510:3LKC68YZ3BAIRBEG4QU0TRPR3P9WOK", "dateTime": 1515952530362}, {"current_trial": 139, "trialdata": {"rt": -1, "trial_type": "single-stim", "word": "banjo", "stimulus": "<p id=\"stim\">BANJO</p>", "conditions": [24, 800, "v", 24000], "internal_node_id": "0.0-103.0", "trial": 3, "time_elapsed": 616863, "serialpos": 10, "key_press": -1, "wordID": 81, "type": "PRES_VIS", "trial_index": 139}, "uniqueid": "MTK1510:3LKC68YZ3BAIRBEG4QU0TRPR3P9WOK", "dateTime": 1515952532219}, {"current_trial": 140, "trialdata": {"rt": -1, "trial_type": "single-stim", "word": "velvet", "stimulus": "<p id=\"stim\">VELVET</p>", "conditions": [24, 800, "v", 24000], "internal_node_id": "0.0-104.0", "trial": 3, "time_elapsed": 618471, "serialpos": 11, "key_press": -1, "wordID": 1554, "type": "PRES_VIS", "trial_index": 140}, "uniqueid": "MTK1510:3LKC68YZ3BAIRBEG4QU0TRPR3P9WOK", "dateTime": 1515952533827}, {"current_trial": 141, "trialdata": {"rt": -1, "trial_type": "single-stim", "word": "kitchen", "stimulus": "<p id=\"stim\">KITCHEN</p>", "conditions": [24, 800, "v", 24000], "internal_node_id": "0.0-105.0", "trial": 3, "time_elapsed": 620080, "serialpos": 12, "key_press": -1, "wordID": 777, "type": "PRES_VIS", "trial_index": 141}, "uniqueid": "MTK1510:3LKC68YZ3BAIRBEG4QU0TRPR3P9WOK", "dateTime": 1515952535436}, {"current_trial": 142, "trialdata": {"rt": -1, "trial_type": "single-stim", "word": "cabin", "stimulus": "<p id=\"stim\">CABIN</p>", "conditions": [24, 800, "v", 24000], "internal_node_id": "0.0-106.0", "trial": 3, "time_elapsed": 621802, "serialpos": 13, "key_press": -1, "wordID": 210, "type": "PRES_VIS", "trial_index": 142}, "uniqueid": "MTK1510:3LKC68YZ3BAIRBEG4QU0TRPR3P9WOK", "dateTime": 1515952537158}, {"current_trial": 143, "trialdata": {"rt": -1, "trial_type": "single-stim", "word": "ozone", "stimulus": "<p id=\"stim\">OZONE</p>", "conditions": [24, 800, "v", 24000], "internal_node_id": "0.0-107.0", "trial": 3, "time_elapsed": 623464, "serialpos": 14, "key_press": -1, "wordID": 995, "type": "PRES_VIS", "trial_index": 143}, "uniqueid": "MTK1510:3LKC68YZ3BAIRBEG4QU0TRPR3P9WOK", "dateTime": 1515952538820}, {"current_trial": 144, "trialdata": {"rt": -1, "trial_type": "single-stim", "word": "machine", "stimulus": "<p id=\"stim\">MACHINE</p>", "conditions": [24, 800, "v", 24000], "internal_node_id": "0.0-108.0", "trial": 3, "time_elapsed": 625372, "serialpos": 15, "key_press": -1, "wordID": 851, "type": "PRES_VIS", "trial_index": 144}, "uniqueid": "MTK1510:3LKC68YZ3BAIRBEG4QU0TRPR3P9WOK", "dateTime": 1515952540728}, {"current_trial": 145, "trialdata": {"rt": -1, "trial_type": "single-stim", "word": "dress", "stimulus": "<p id=\"stim\">DRESS</p>", "conditions": [24, 800, "v", 24000], "internal_node_id": "0.0-109.0", "trial": 3, "time_elapsed": 627114, "serialpos": 16, "key_press": -1, "wordID": 494, "type": "PRES_VIS", "trial_index": 145}, "uniqueid": "MTK1510:3LKC68YZ3BAIRBEG4QU0TRPR3P9WOK", "dateTime": 1515952542470}, {"current_trial": 146, "trialdata": {"rt": -1, "trial_type": "single-stim", "word": "lace", "stimulus": "<p id=\"stim\">LACE</p>", "conditions": [24, 800, "v", 24000], "internal_node_id": "0.0-110.0", "trial": 3, "time_elapsed": 628745, "serialpos": 17, "key_press": -1, "wordID": 791, "type": "PRES_VIS", "trial_index": 146}, "uniqueid": "MTK1510:3LKC68YZ3BAIRBEG4QU0TRPR3P9WOK", "dateTime": 1515952544101}, {"current_trial": 147, "trialdata": {"rt": -1, "trial_type": "single-stim", "word": "mattress", "stimulus": "<p id=\"stim\">MATTRESS</p>", "conditions": [24, 800, "v", 24000], "internal_node_id": "0.0-111.0", "trial": 3, "time_elapsed": 630653, "serialpos": 18, "key_press": -1, "wordID": 878, "type": "PRES_VIS", "trial_index": 147}, "uniqueid": "MTK1510:3LKC68YZ3BAIRBEG4QU0TRPR3P9WOK", "dateTime": 1515952546009}, {"current_trial": 148, "trialdata": {"rt": -1, "trial_type": "single-stim", "word": "cook", "stimulus": "<p id=\"stim\">COOK</p>", "conditions": [24, 800, "v", 24000], "internal_node_id": "0.0-112.0", "trial": 3, "time_elapsed": 632534, "serialpos": 19, "key_press": -1, "wordID": 371, "type": "PRES_VIS", "trial_index": 148}, "uniqueid": "MTK1510:3LKC68YZ3BAIRBEG4QU0TRPR3P9WOK", "dateTime": 1515952547890}, {"current_trial": 149, "trialdata": {"rt": -1, "trial_type": "single-stim", "word": "gravel", "stimulus": "<p id=\"stim\">GRAVEL</p>", "conditions": [24, 800, "v", 24000], "internal_node_id": "0.0-113.0", "trial": 3, "time_elapsed": 634420, "serialpos": 20, "key_press": -1, "wordID": 658, "type": "PRES_VIS", "trial_index": 149}, "uniqueid": "MTK1510:3LKC68YZ3BAIRBEG4QU0TRPR3P9WOK", "dateTime": 1515952549776}, {"current_trial": 150, "trialdata": {"rt": -1, "trial_type": "single-stim", "word": "kidney", "stimulus": "<p id=\"stim\">KIDNEY</p>", "conditions": [24, 800, "v", 24000], "internal_node_id": "0.0-114.0", "trial": 3, "time_elapsed": 636075, "serialpos": 21, "key_press": -1, "wordID": 775, "type": "PRES_VIS", "trial_index": 150}, "uniqueid": "MTK1510:3LKC68YZ3BAIRBEG4QU0TRPR3P9WOK", "dateTime": 1515952551431}, {"current_trial": 151, "trialdata": {"rt": -1, "trial_type": "single-stim", "word": "lady", "stimulus": "<p id=\"stim\">LADY</p>", "conditions": [24, 800, "v", 24000], "internal_node_id": "0.0-115.0", "trial": 3, "time_elapsed": 638048, "serialpos": 22, "key_press": -1, "wordID": 793, "type": "PRES_VIS", "trial_index": 151}, "uniqueid": "MTK1510:3LKC68YZ3BAIRBEG4QU0TRPR3P9WOK", "dateTime": 1515952553404}, {"current_trial": 152, "trialdata": {"rt": -1, "trial_type": "single-stim", "word": "rabbit", "stimulus": "<p id=\"stim\">RABBIT</p>", "conditions": [24, 800, "v", 24000], "internal_node_id": "0.0-116.0", "trial": 3, "time_elapsed": 640017, "serialpos": 23, "key_press": -1, "wordID": 1151, "type": "PRES_VIS", "trial_index": 152}, "uniqueid": "MTK1510:3LKC68YZ3BAIRBEG4QU0TRPR3P9WOK", "dateTime": 1515952555378}, {"current_trial": 153, "trialdata": {"rt": -1, "trial_type": "single-stim", "stimulus": "", "internal_node_id": "0.0-117.0-0.0", "time_elapsed": 642431, "key_press": -1, "type": "PRE_RECALL_DELAY", "trial_index": 153}, "uniqueid": "MTK1510:3LKC68YZ3BAIRBEG4QU0TRPR3P9WOK", "dateTime": 1515952557787}, {"current_trial": 154, "trialdata": {"rt": -1000, "trial_type": "single-audio", "stimulus": "/static/audio/400Hz.wav", "internal_node_id": "0.0-118.0", "time_elapsed": 642933, "key_press": -1, "type": "PRE_RECALL_ALERT", "trial_index": 154}, "uniqueid": "MTK1510:3LKC68YZ3BAIRBEG4QU0TRPR3P9WOK", "dateTime": 1515952558289}, {"current_trial": 155, "trialdata": {"rt": [1980, 2962, 4439, 5389, 14183, 33489], "recwords": ["lady", "fiddle", "banjo", "marrow", "cook", "ozone"], "key_times": [1113, 1235, 1299, 1442, 1980, 2228, 2317, 2415, 2579, 2688, 2792, 2962, 3438, 3526, 3677, 4016, 4112, 4439, 4664, 4769, 4824, 4974, 5088, 5200, 5389, 12780, 13073, 13270, 13434, 14183, 32794, 32933, 33041, 33121, 33217, 33489], "trial_type": "free-recall", "conditions": [24, 800, "v", 24000], "internal_node_id": "0.0-119.0-0.0", "key_presses": [76, 65, 68, 89, 13, 70, 73, 68, 68, 76, 69, 13, 66, 65, 78, 74, 79, 13, 77, 65, 82, 82, 79, 87, 13, 67, 79, 79, 75, 13, 79, 90, 79, 78, 69, 13], "trial": 3, "time_elapsed": 702962, "type": "FREE_RECALL", "trial_index": 155}, "uniqueid": "MTK1510:3LKC68YZ3BAIRBEG4QU0TRPR3P9WOK", "dateTime": 1515952618324}, {"current_trial": 156, "trialdata": {"rt": 1152, "trial_type": "text", "internal_node_id": "0.0-120.0", "time_elapsed": 706126, "key_press": 68, "type": "INSTRUCTIONS", "trial_index": 156}, "uniqueid": "MTK1510:3LKC68YZ3BAIRBEG4QU0TRPR3P9WOK", "dateTime": 1515952621482}, {"current_trial": 157, "trialdata": {"rt": [2073, 3403, 5364, 6732, 8391, 10236, 12239, 14241, 17195, 18681, 20616, 22070, 23664], "trial_type": "math-distractor", "key_times": [1692, 1796, 2073, 3044, 3148, 3403, 4771, 5190, 5364, 6234, 6491, 6732, 8056, 8167, 8391, 9982, 10236, 11399, 11960, 12239, 13550, 13838, 14241, 16904, 17000, 17195, 18400, 18681, 20097, 20407, 20616, 21729, 21834, 22070, 23288, 23413, 23664], "responses": ["15", "19", "12", "15", "24", "6", "17", "16", "13", "8", "21", "19", "21"], "num2": [5, 3, 7, 2, 9, 3, 9, 2, 4, 1, 7, 8, 9, 9], "num3": [6, 9, 3, 5, 6, 1, 3, 8, 7, 3, 6, 5, 4, 9], "conditions": [24, 800, "v", 24000], "internal_node_id": "0.0-121.0", "key_presses": [49, 53, 13, 49, 57, 13, 49, 50, 13, 49, 53, 13, 50, 52, 13, 54, 13, 49, 55, 13, 49, 54, 13, 49, 51, 13, 56, 13, 50, 49, 13, 49, 57, 13, 50, 49, 13], "trial": 4, "time_elapsed": 732137, "type": "DISTRACTOR", "trial_index": 157, "num1": [4, 7, 2, 8, 9, 2, 5, 6, 2, 4, 8, 6, 8, 8]}, "uniqueid": "MTK1510:3LKC68YZ3BAIRBEG4QU0TRPR3P9WOK", "dateTime": 1515952647493}, {"current_trial": 158, "trialdata": {"rt": -1, "trial_type": "single-stim", "stimulus": "<p id=\"stim\">10</p>", "internal_node_id": "0.0-122.0-0.0", "time_elapsed": 735152, "key_press": -1, "trial_index": 158}, "uniqueid": "MTK1510:3LKC68YZ3BAIRBEG4QU0TRPR3P9WOK", "dateTime": 1515952650509}, {"current_trial": 159, "trialdata": {"rt": -1, "trial_type": "single-stim", "stimulus": "<p id=\"stim\">9</p>", "internal_node_id": "0.0-122.0-1.0", "time_elapsed": 736159, "key_press": -1, "trial_index": 159}, "uniqueid": "MTK1510:3LKC68YZ3BAIRBEG4QU0TRPR3P9WOK", "dateTime": 1515952651515}, {"current_trial": 160, "trialdata": {"rt": -1, "trial_type": "single-stim", "stimulus": "<p id=\"stim\">8</p>", "internal_node_id": "0.0-122.0-2.0", "time_elapsed": 737163, "key_press": -1, "trial_index": 160}, "uniqueid": "MTK1510:3LKC68YZ3BAIRBEG4QU0TRPR3P9WOK", "dateTime": 1515952652519}, {"current_trial": 161, "trialdata": {"rt": -1, "trial_type": "single-stim", "stimulus": "<p id=\"stim\">7</p>", "internal_node_id": "0.0-122.0-3.0", "time_elapsed": 738167, "key_press": -1, "trial_index": 161}, "uniqueid": "MTK1510:3LKC68YZ3BAIRBEG4QU0TRPR3P9WOK", "dateTime": 1515952653523}, {"current_trial": 162, "trialdata": {"rt": -1, "trial_type": "single-stim", "stimulus": "<p id=\"stim\">6</p>", "internal_node_id": "0.0-122.0-4.0", "time_elapsed": 739171, "key_press": -1, "trial_index": 162}, "uniqueid": "MTK1510:3LKC68YZ3BAIRBEG4QU0TRPR3P9WOK", "dateTime": 1515952654527}, {"current_trial": 163, "trialdata": {"rt": -1, "trial_type": "single-stim", "stimulus": "<p id=\"stim\">5</p>", "internal_node_id": "0.0-122.0-5.0", "time_elapsed": 740175, "key_press": -1, "trial_index": 163}, "uniqueid": "MTK1510:3LKC68YZ3BAIRBEG4QU0TRPR3P9WOK", "dateTime": 1515952655531}, {"current_trial": 164, "trialdata": {"rt": -1, "trial_type": "single-stim", "stimulus": "<p id=\"stim\">4</p>", "internal_node_id": "0.0-122.0-6.0", "time_elapsed": 741179, "key_press": -1, "trial_index": 164}, "uniqueid": "MTK1510:3LKC68YZ3BAIRBEG4QU0TRPR3P9WOK", "dateTime": 1515952656536}, {"current_trial": 165, "trialdata": {"rt": -1, "trial_type": "single-stim", "stimulus": "<p id=\"stim\">3</p>", "internal_node_id": "0.0-122.0-7.0", "time_elapsed": 742183, "key_press": -1, "trial_index": 165}, "uniqueid": "MTK1510:3LKC68YZ3BAIRBEG4QU0TRPR3P9WOK", "dateTime": 1515952657539}, {"current_trial": 166, "trialdata": {"rt": -1, "trial_type": "single-stim", "stimulus": "<p id=\"stim\">2</p>", "internal_node_id": "0.0-122.0-8.0", "time_elapsed": 743187, "key_press": -1, "trial_index": 166}, "uniqueid": "MTK1510:3LKC68YZ3BAIRBEG4QU0TRPR3P9WOK", "dateTime": 1515952658543}, {"current_trial": 167, "trialdata": {"rt": -1, "trial_type": "single-stim", "stimulus": "<p id=\"stim\">1</p>", "internal_node_id": "0.0-122.0-9.0", "time_elapsed": 744192, "key_press": -1, "trial_index": 167}, "uniqueid": "MTK1510:3LKC68YZ3BAIRBEG4QU0TRPR3P9WOK", "dateTime": 1515952659548}, {"current_trial": 168, "trialdata": {"rt": -1, "trial_type": "single-stim", "stimulus": "<p id=\"stim\">+</p>", "internal_node_id": "0.0-123.0-0.0", "time_elapsed": 745695, "key_press": -1, "type": "FIXATION", "trial_index": 168}, "uniqueid": "MTK1510:3LKC68YZ3BAIRBEG4QU0TRPR3P9WOK", "dateTime": 1515952661052}, {"current_trial": 169, "trialdata": {"rt": -1, "trial_type": "single-stim", "word": "finger", "stimulus": "<p id=\"stim\">FINGER</p>", "conditions": [24, 800, "v", 24000], "internal_node_id": "0.0-124.0", "trial": 4, "time_elapsed": 746502, "serialpos": 0, "key_press": -1, "wordID": 566, "type": "PRES_VIS", "trial_index": 169}, "uniqueid": "MTK1510:3LKC68YZ3BAIRBEG4QU0TRPR3P9WOK", "dateTime": 1515952661858}, {"current_trial": 170, "trialdata": {"rt": -1, "trial_type": "single-stim", "word": "beef", "stimulus": "<p id=\"stim\">BEEF</p>", "conditions": [24, 800, "v", 24000], "internal_node_id": "0.0-125.0", "trial": 4, "time_elapsed": 748301, "serialpos": 1, "key_press": -1, "wordID": 112, "type": "PRES_VIS", "trial_index": 170}, "uniqueid": "MTK1510:3LKC68YZ3BAIRBEG4QU0TRPR3P9WOK", "dateTime": 1515952663657}, {"current_trial": 171, "trialdata": {"rt": -1, "trial_type": "single-stim", "word": "cattle", "stimulus": "<p id=\"stim\">CATTLE</p>", "conditions": [24, 800, "v", 24000], "internal_node_id": "0.0-126.0", "trial": 4, "time_elapsed": 750246, "serialpos": 2, "key_press": -1, "wordID": 260, "type": "PRES_VIS", "trial_index": 171}, "uniqueid": "MTK1510:3LKC68YZ3BAIRBEG4QU0TRPR3P9WOK", "dateTime": 1515952665602}, {"current_trial": 172, "trialdata": {"rt": -1, "trial_type": "single-stim", "word": "briefcase", "stimulus": "<p id=\"stim\">BRIEFCASE</p>", "conditions": [24, 800, "v", 24000], "internal_node_id": "0.0-127.0", "trial": 4, "time_elapsed": 751954, "serialpos": 3, "key_press": -1, "wordID": 174, "type": "PRES_VIS", "trial_index": 172}, "uniqueid": "MTK1510:3LKC68YZ3BAIRBEG4QU0TRPR3P9WOK", "dateTime": 1515952667310}, {"current_trial": 173, "trialdata": {"rt": -1, "trial_type": "single-stim", "word": "chapel", "stimulus": "<p id=\"stim\">CHAPEL</p>", "conditions": [24, 800, "v", 24000], "internal_node_id": "0.0-128.0", "trial": 4, "time_elapsed": 753779, "serialpos": 4, "key_press": -1, "wordID": 279, "type": "PRES_VIS", "trial_index": 173}, "uniqueid": "MTK1510:3LKC68YZ3BAIRBEG4QU0TRPR3P9WOK", "dateTime": 1515952669135}, {"current_trial": 174, "trialdata": {"rt": -1, "trial_type": "single-stim", "word": "lily", "stimulus": "<p id=\"stim\">LILY</p>", "conditions": [24, 800, "v", 24000], "internal_node_id": "0.0-129.0", "trial": 4, "time_elapsed": 755735, "serialpos": 5, "key_press": -1, "wordID": 820, "type": "PRES_VIS", "trial_index": 174}, "uniqueid": "MTK1510:3LKC68YZ3BAIRBEG4QU0TRPR3P9WOK", "dateTime": 1515952671091}, {"current_trial": 175, "trialdata": {"rt": -1, "trial_type": "single-stim", "word": "apron", "stimulus": "<p id=\"stim\">APRON</p>", "conditions": [24, 800, "v", 24000], "internal_node_id": "0.0-130.0", "trial": 4, "time_elapsed": 757598, "serialpos": 6, "key_press": -1, "wordID": 34, "type": "PRES_VIS", "trial_index": 175}, "uniqueid": "MTK1510:3LKC68YZ3BAIRBEG4QU0TRPR3P9WOK", "dateTime": 1515952672954}, {"current_trial": 176, "trialdata": {"rt": -1, "trial_type": "single-stim", "word": "partner", "stimulus": "<p id=\"stim\">PARTNER</p>", "conditions": [24, 800, "v", 24000], "internal_node_id": "0.0-131.0", "trial": 4, "time_elapsed": 759223, "serialpos": 7, "key_press": -1, "wordID": 1016, "type": "PRES_VIS", "trial_index": 176}, "uniqueid": "MTK1510:3LKC68YZ3BAIRBEG4QU0TRPR3P9WOK", "dateTime": 1515952674580}, {"current_trial": 177, "trialdata": {"rt": -1, "trial_type": "single-stim", "word": "gangster", "stimulus": "<p id=\"stim\">GANGSTER</p>", "conditions": [24, 800, "v", 24000], "internal_node_id": "0.0-132.0", "trial": 4, "time_elapsed": 761028, "serialpos": 8, "key_press": -1, "wordID": 619, "type": "PRES_VIS", "trial_index": 177}, "uniqueid": "MTK1510:3LKC68YZ3BAIRBEG4QU0TRPR3P9WOK", "dateTime": 1515952676385}, {"current_trial": 178, "trialdata": {"rt": -1, "trial_type": "single-stim", "word": "waiter", "stimulus": "<p id=\"stim\">WAITER</p>", "conditions": [24, 800, "v", 24000], "internal_node_id": "0.0-133.0", "trial": 4, "time_elapsed": 762880, "serialpos": 9, "key_press": -1, "wordID": 1579, "type": "PRES_VIS", "trial_index": 178}, "uniqueid": "MTK1510:3LKC68YZ3BAIRBEG4QU0TRPR3P9WOK", "dateTime": 1515952678236}, {"current_trial": 179, "trialdata": {"rt": -1, "trial_type": "single-stim", "word": "ankle", "stimulus": "<p id=\"stim\">ANKLE</p>", "conditions": [24, 800, "v", 24000], "internal_node_id": "0.0-134.0", "trial": 4, "time_elapsed": 764808, "serialpos": 10, "key_press": -1, "wordID": 23, "type": "PRES_VIS", "trial_index": 179}, "uniqueid": "MTK1510:3LKC68YZ3BAIRBEG4QU0TRPR3P9WOK", "dateTime": 1515952680165}, {"current_trial": 180, "trialdata": {"rt": -1, "trial_type": "single-stim", "word": "shrub", "stimulus": "<p id=\"stim\">SHRUB</p>", "conditions": [24, 800, "v", 24000], "internal_node_id": "0.0-135.0", "trial": 4, "time_elapsed": 766757, "serialpos": 11, "key_press": -1, "wordID": 1298, "type": "PRES_VIS", "trial_index": 180}, "uniqueid": "MTK1510:3LKC68YZ3BAIRBEG4QU0TRPR3P9WOK", "dateTime": 1515952682113}, {"current_trial": 181, "trialdata": {"rt": -1, "trial_type": "single-stim", "word": "peanut", "stimulus": "<p id=\"stim\">PEANUT</p>", "conditions": [24, 800, "v", 24000], "internal_node_id": "0.0-136.0", "trial": 4, "time_elapsed": 768603, "serialpos": 12, "key_press": -1, "wordID": 1031, "type": "PRES_VIS", "trial_index": 181}, "uniqueid": "MTK1510:3LKC68YZ3BAIRBEG4QU0TRPR3P9WOK", "dateTime": 1515952683959}, {"current_trial": 182, "trialdata": {"rt": -1, "trial_type": "single-stim", "word": "salad", "stimulus": "<p id=\"stim\">SALAD</p>", "conditions": [24, 800, "v", 24000], "internal_node_id": "0.0-137.0", "trial": 4, "time_elapsed": 770253, "serialpos": 13, "key_press": -1, "wordID": 1223, "type": "PRES_VIS", "trial_index": 182}, "uniqueid": "MTK1510:3LKC68YZ3BAIRBEG4QU0TRPR3P9WOK", "dateTime": 1515952685609}, {"current_trial": 183, "trialdata": {"rt": -1, "trial_type": "single-stim", "word": "quarter", "stimulus": "<p id=\"stim\">QUARTER</p>", "conditions": [24, 800, "v", 24000], "internal_node_id": "0.0-138.0", "trial": 4, "time_elapsed": 772029, "serialpos": 14, "key_press": -1, "wordID": 1147, "type": "PRES_VIS", "trial_index": 183}, "uniqueid": "MTK1510:3LKC68YZ3BAIRBEG4QU0TRPR3P9WOK", "dateTime": 1515952687385}, {"current_trial": 184, "trialdata": {"rt": -1, "trial_type": "single-stim", "word": "pecan", "stimulus": "<p id=\"stim\">PECAN</p>", "conditions": [24, 800, "v", 24000], "internal_node_id": "0.0-139.0", "trial": 4, "time_elapsed": 773710, "serialpos": 15, "key_press": -1, "wordID": 1035, "type": "PRES_VIS", "trial_index": 184}, "uniqueid": "MTK1510:3LKC68YZ3BAIRBEG4QU0TRPR3P9WOK", "dateTime": 1515952689067}, {"current_trial": 185, "trialdata": {"rt": -1, "trial_type": "single-stim", "word": "couch", "stimulus": "<p id=\"stim\">COUCH</p>", "conditions": [24, 800, "v", 24000], "internal_node_id": "0.0-140.0", "trial": 4, "time_elapsed": 775550, "serialpos": 16, "key_press": -1, "wordID": 385, "type": "PRES_VIS", "trial_index": 185}, "uniqueid": "MTK1510:3LKC68YZ3BAIRBEG4QU0TRPR3P9WOK", "dateTime": 1515952690906}, {"current_trial": 186, "trialdata": {"rt": -1, "trial_type": "single-stim", "word": "poet", "stimulus": "<p id=\"stim\">POET</p>", "conditions": [24, 800, "v", 24000], "internal_node_id": "0.0-141.0", "trial": 4, "time_elapsed": 777251, "serialpos": 17, "key_press": -1, "wordID": 1094, "type": "PRES_VIS", "trial_index": 186}, "uniqueid": "MTK1510:3LKC68YZ3BAIRBEG4QU0TRPR3P9WOK", "dateTime": 1515952692607}, {"current_trial": 187, "trialdata": {"rt": -1, "trial_type": "single-stim", "word": "hook", "stimulus": "<p id=\"stim\">HOOK</p>", "conditions": [24, 800, "v", 24000], "internal_node_id": "0.0-142.0", "trial": 4, "time_elapsed": 779150, "serialpos": 18, "key_press": -1, "wordID": 714, "type": "PRES_VIS", "trial_index": 187}, "uniqueid": "MTK1510:3LKC68YZ3BAIRBEG4QU0TRPR3P9WOK", "dateTime": 1515952694507}, {"current_trial": 188, "trialdata": {"rt": -1, "trial_type": "single-stim", "word": "perch", "stimulus": "<p id=\"stim\">PERCH</p>", "conditions": [24, 800, "v", 24000], "internal_node_id": "0.0-143.0", "trial": 4, "time_elapsed": 780873, "serialpos": 19, "key_press": -1, "wordID": 1047, "type": "PRES_VIS", "trial_index": 188}, "uniqueid": "MTK1510:3LKC68YZ3BAIRBEG4QU0TRPR3P9WOK", "dateTime": 1515952696229}, {"current_trial": 189, "trialdata": {"rt": -1, "trial_type": "single-stim", "word": "dashboard", "stimulus": "<p id=\"stim\">DASHBOARD</p>", "conditions": [24, 800, "v", 24000], "internal_node_id": "0.0-144.0", "trial": 4, "time_elapsed": 782817, "serialpos": 20, "key_press": -1, "wordID": 440, "type": "PRES_VIS", "trial_index": 189}, "uniqueid": "MTK1510:3LKC68YZ3BAIRBEG4QU0TRPR3P9WOK", "dateTime": 1515952698173}, {"current_trial": 190, "trialdata": {"rt": -1, "trial_type": "single-stim", "word": "necklace", "stimulus": "<p id=\"stim\">NECKLACE</p>", "conditions": [24, 800, "v", 24000], "internal_node_id": "0.0-145.0", "trial": 4, "time_elapsed": 784481, "serialpos": 21, "key_press": -1, "wordID": 939, "type": "PRES_VIS", "trial_index": 190}, "uniqueid": "MTK1510:3LKC68YZ3BAIRBEG4QU0TRPR3P9WOK", "dateTime": 1515952699837}, {"current_trial": 191, "trialdata": {"rt": -1, "trial_type": "single-stim", "word": "handbag", "stimulus": "<p id=\"stim\">HANDBAG</p>", "conditions": [24, 800, "v", 24000], "internal_node_id": "0.0-146.0", "trial": 4, "time_elapsed": 786191, "serialpos": 22, "key_press": -1, "wordID": 683, "type": "PRES_VIS", "trial_index": 191}, "uniqueid": "MTK1510:3LKC68YZ3BAIRBEG4QU0TRPR3P9WOK", "dateTime": 1515952701547}, {"current_trial": 192, "trialdata": {"rt": -1, "trial_type": "single-stim", "word": "sister", "stimulus": "<p id=\"stim\">SISTER</p>", "conditions": [24, 800, "v", 24000], "internal_node_id": "0.0-147.0", "trial": 4, "time_elapsed": 787960, "serialpos": 23, "key_press": -1, "wordID": 1311, "type": "PRES_VIS", "trial_index": 192}, "uniqueid": "MTK1510:3LKC68YZ3BAIRBEG4QU0TRPR3P9WOK", "dateTime": 1515952703316}, {"current_trial": 193, "trialdata": {"rt": -1, "trial_type": "single-stim", "stimulus": "", "internal_node_id": "0.0-148.0-0.0", "time_elapsed": 790200, "key_press": -1, "type": "PRE_RECALL_DELAY", "trial_index": 193}, "uniqueid": "MTK1510:3LKC68YZ3BAIRBEG4QU0TRPR3P9WOK", "dateTime": 1515952705556}, {"current_trial": 194, "trialdata": {"rt": -1000, "trial_type": "single-audio", "stimulus": "/static/audio/400Hz.wav", "internal_node_id": "0.0-149.0", "time_elapsed": 790703, "key_press": -1, "type": "PRE_RECALL_ALERT", "trial_index": 194}, "uniqueid": "MTK1510:3LKC68YZ3BAIRBEG4QU0TRPR3P9WOK", "dateTime": 1515952706059}, {"current_trial": 195, "trialdata": {"rt": [2756, 3997, 5291, 6517, 26984], "recwords": ["shrub", "pecan", "peanut", "gangster", "dashboard"], "key_times": [654, 711, 961, 1101, 1258, 1693, 1839, 2009, 2169, 2261, 2489, 2756, 3097, 3220, 3384, 3504, 3640, 3997, 4410, 4531, 4595, 4690, 4912, 5059, 5291, 5525, 5589, 5714, 5825, 6016, 6135, 6285, 6369, 6517, 25854, 25961, 26025, 26133, 26379, 26478, 26546, 26622, 26726, 26984], "trial_type": "free-recall", "conditions": [24, 800, "v", 24000], "internal_node_id": "0.0-150.0-0.0", "key_presses": [83, 72, 85, 82, 66, 8, 8, 8, 82, 85, 66, 13, 80, 69, 67, 65, 78, 13, 80, 69, 65, 78, 85, 84, 13, 71, 65, 78, 71, 83, 84, 69, 82, 13, 68, 65, 83, 72, 66, 79, 65, 82, 68, 13], "trial": 4, "time_elapsed": 850734, "type": "FREE_RECALL", "trial_index": 195}, "uniqueid": "MTK1510:3LKC68YZ3BAIRBEG4QU0TRPR3P9WOK", "dateTime": 1515952766098}, {"current_trial": 196, "trialdata": {"rt": 1448, "trial_type": "text", "internal_node_id": "0.0-151.0", "time_elapsed": 854195, "key_press": 13, "type": "INSTRUCTIONS", "trial_index": 196}, "uniqueid": "MTK1510:3LKC68YZ3BAIRBEG4QU0TRPR3P9WOK", "dateTime": 1515952769551}, {"current_trial": 197, "trialdata": {"rt": [2064, 3643, 4985, 6514, 8537, 10714], "trial_type": "math-distractor", "key_times": [1598, 1838, 2064, 3431, 3476, 3643, 4592, 4735, 4985, 6156, 6237, 6514, 7984, 8292, 8537, 10170, 10338, 10714, 11757], "responses": ["16", "14", "19", "21", "16", "22"], "num2": [7, 4, 7, 9, 3, 9, 3], "num3": [7, 7, 8, 4, 8, 7, 8], "conditions": [24, 1600, "v", 12000], "internal_node_id": "0.0-152.0", "key_presses": [49, 54, 13, 49, 52, 13, 49, 57, 13, 50, 49, 13, 49, 54, 13, 50, 50, 13, 49], "trial": 5, "time_elapsed": 868208, "type": "DISTRACTOR", "trial_index": 197, "num1": [2, 3, 4, 8, 5, 6, 5]}, "uniqueid": "MTK1510:3LKC68YZ3BAIRBEG4QU0TRPR3P9WOK", "dateTime": 1515952783564}, {"current_trial": 198, "trialdata": {"rt": -1, "trial_type": "single-stim", "stimulus": "<p id=\"stim\">10</p>", "internal_node_id": "0.0-153.0-0.0", "time_elapsed": 871219, "key_press": -1, "trial_index": 198}, "uniqueid": "MTK1510:3LKC68YZ3BAIRBEG4QU0TRPR3P9WOK", "dateTime": 1515952786575}, {"current_trial": 199, "trialdata": {"rt": -1, "trial_type": "single-stim", "stimulus": "<p id=\"stim\">9</p>", "internal_node_id": "0.0-153.0-1.0", "time_elapsed": 872225, "key_press": -1, "trial_index": 199}, "uniqueid": "MTK1510:3LKC68YZ3BAIRBEG4QU0TRPR3P9WOK", "dateTime": 1515952787581}, {"current_trial": 200, "trialdata": {"rt": -1, "trial_type": "single-stim", "stimulus": "<p id=\"stim\">8</p>", "internal_node_id": "0.0-153.0-2.0", "time_elapsed": 873229, "key_press": -1, "trial_index": 200}, "uniqueid": "MTK1510:3LKC68YZ3BAIRBEG4QU0TRPR3P9WOK", "dateTime": 1515952788585}, {"current_trial": 201, "trialdata": {"rt": -1, "trial_type": "single-stim", "stimulus": "<p id=\"stim\">7</p>", "internal_node_id": "0.0-153.0-3.0", "time_elapsed": 874235, "key_press": -1, "trial_index": 201}, "uniqueid": "MTK1510:3LKC68YZ3BAIRBEG4QU0TRPR3P9WOK", "dateTime": 1515952789591}, {"current_trial": 202, "trialdata": {"rt": -1, "trial_type": "single-stim", "stimulus": "<p id=\"stim\">6</p>", "internal_node_id": "0.0-153.0-4.0", "time_elapsed": 875238, "key_press": -1, "trial_index": 202}, "uniqueid": "MTK1510:3LKC68YZ3BAIRBEG4QU0TRPR3P9WOK", "dateTime": 1515952790594}, {"current_trial": 203, "trialdata": {"rt": -1, "trial_type": "single-stim", "stimulus": "<p id=\"stim\">5</p>", "internal_node_id": "0.0-153.0-5.0", "time_elapsed": 876241, "key_press": -1, "trial_index": 203}, "uniqueid": "MTK1510:3LKC68YZ3BAIRBEG4QU0TRPR3P9WOK", "dateTime": 1515952791597}, {"current_trial": 204, "trialdata": {"rt": -1, "trial_type": "single-stim", "stimulus": "<p id=\"stim\">4</p>", "internal_node_id": "0.0-153.0-6.0", "time_elapsed": 877245, "key_press": -1, "trial_index": 204}, "uniqueid": "MTK1510:3LKC68YZ3BAIRBEG4QU0TRPR3P9WOK", "dateTime": 1515952792602}, {"current_trial": 205, "trialdata": {"rt": -1, "trial_type": "single-stim", "stimulus": "<p id=\"stim\">3</p>", "internal_node_id": "0.0-153.0-7.0", "time_elapsed": 878249, "key_press": -1, "trial_index": 205}, "uniqueid": "MTK1510:3LKC68YZ3BAIRBEG4QU0TRPR3P9WOK", "dateTime": 1515952793606}, {"current_trial": 206, "trialdata": {"rt": -1, "trial_type": "single-stim", "stimulus": "<p id=\"stim\">2</p>", "internal_node_id": "0.0-153.0-8.0", "time_elapsed": 879254, "key_press": -1, "trial_index": 206}, "uniqueid": "MTK1510:3LKC68YZ3BAIRBEG4QU0TRPR3P9WOK", "dateTime": 1515952794610}, {"current_trial": 207, "trialdata": {"rt": -1, "trial_type": "single-stim", "stimulus": "<p id=\"stim\">1</p>", "internal_node_id": "0.0-153.0-9.0", "time_elapsed": 880258, "key_press": -1, "trial_index": 207}, "uniqueid": "MTK1510:3LKC68YZ3BAIRBEG4QU0TRPR3P9WOK", "dateTime": 1515952795614}, {"current_trial": 208, "trialdata": {"rt": -1, "trial_type": "single-stim", "stimulus": "<p id=\"stim\">+</p>", "internal_node_id": "0.0-154.0-0.0", "time_elapsed": 881761, "key_press": -1, "type": "FIXATION", "trial_index": 208}, "uniqueid": "MTK1510:3LKC68YZ3BAIRBEG4QU0TRPR3P9WOK", "dateTime": 1515952797117}, {"current_trial": 209, "trialdata": {"rt": -1, "trial_type": "single-stim", "word": "clam", "stimulus": "<p id=\"stim\">CLAM</p>", "conditions": [24, 1600, "v", 12000], "internal_node_id": "0.0-155.0", "trial": 5, "time_elapsed": 883363, "serialpos": 0, "key_press": -1, "wordID": 314, "type": "PRES_VIS", "trial_index": 209}, "uniqueid": "MTK1510:3LKC68YZ3BAIRBEG4QU0TRPR3P9WOK", "dateTime": 1515952798719}, {"current_trial": 210, "trialdata": {"rt": -1, "trial_type": "single-stim", "word": "tombstone", "stimulus": "<p id=\"stim\">TOMBSTONE</p>", "conditions": [24, 1600, "v", 12000], "internal_node_id": "0.0-156.0", "trial": 5, "time_elapsed": 886004, "serialpos": 1, "key_press": -1, "wordID": 1477, "type": "PRES_VIS", "trial_index": 210}, "uniqueid": "MTK1510:3LKC68YZ3BAIRBEG4QU0TRPR3P9WOK", "dateTime": 1515952801360}, {"current_trial": 211, "trialdata": {"rt": -1, "trial_type": "single-stim", "word": "donkey", "stimulus": "<p id=\"stim\">DONKEY</p>", "conditions": [24, 1600, "v", 12000], "internal_node_id": "0.0-157.0", "trial": 5, "time_elapsed": 888633, "serialpos": 2, "key_press": -1, "wordID": 483, "type": "PRES_VIS", "trial_index": 211}, "uniqueid": "MTK1510:3LKC68YZ3BAIRBEG4QU0TRPR3P9WOK", "dateTime": 1515952803989}, {"current_trial": 212, "trialdata": {"rt": -1, "trial_type": "single-stim", "word": "belly", "stimulus": "<p id=\"stim\">BELLY</p>", "conditions": [24, 1600, "v", 12000], "internal_node_id": "0.0-158.0", "trial": 5, "time_elapsed": 891315, "serialpos": 3, "key_press": -1, "wordID": 118, "type": "PRES_VIS", "trial_index": 212}, "uniqueid": "MTK1510:3LKC68YZ3BAIRBEG4QU0TRPR3P9WOK", "dateTime": 1515952806671}, {"current_trial": 213, "trialdata": {"rt": -1, "trial_type": "single-stim", "word": "bouquet", "stimulus": "<p id=\"stim\">BOUQUET</p>", "conditions": [24, 1600, "v", 12000], "internal_node_id": "0.0-159.0", "trial": 5, "time_elapsed": 894101, "serialpos": 4, "key_press": -1, "wordID": 156, "type": "PRES_VIS", "trial_index": 213}, "uniqueid": "MTK1510:3LKC68YZ3BAIRBEG4QU0TRPR3P9WOK", "dateTime": 1515952809457}, {"current_trial": 214, "trialdata": {"rt": -1, "trial_type": "single-stim", "word": "barrel", "stimulus": "<p id=\"stim\">BARREL</p>", "conditions": [24, 1600, "v", 12000], "internal_node_id": "0.0-160.0", "trial": 5, "time_elapsed": 896858, "serialpos": 5, "key_press": -1, "wordID": 90, "type": "PRES_VIS", "trial_index": 214}, "uniqueid": "MTK1510:3LKC68YZ3BAIRBEG4QU0TRPR3P9WOK", "dateTime": 1515952812214}, {"current_trial": 215, "trialdata": {"rt": -1, "trial_type": "single-stim", "word": "garlic", "stimulus": "<p id=\"stim\">GARLIC</p>", "conditions": [24, 1600, "v", 12000], "internal_node_id": "0.0-161.0", "trial": 5, "time_elapsed": 899457, "serialpos": 6, "key_press": -1, "wordID": 623, "type": "PRES_VIS", "trial_index": 215}, "uniqueid": "MTK1510:3LKC68YZ3BAIRBEG4QU0TRPR3P9WOK", "dateTime": 1515952814813}, {"current_trial": 216, "trialdata": {"rt": -1, "trial_type": "single-stim", "word": "lettuce", "stimulus": "<p id=\"stim\">LETTUCE</p>", "conditions": [24, 1600, "v", 12000], "internal_node_id": "0.0-162.0", "trial": 5, "time_elapsed": 902221, "serialpos": 7, "key_press": -1, "wordID": 813, "type": "PRES_VIS", "trial_index": 216}, "uniqueid": "MTK1510:3LKC68YZ3BAIRBEG4QU0TRPR3P9WOK", "dateTime": 1515952817577}, {"current_trial": 217, "trialdata": {"rt": -1, "trial_type": "single-stim", "word": "trombone", "stimulus": "<p id=\"stim\">TROMBONE</p>", "conditions": [24, 1600, "v", 12000], "internal_node_id": "0.0-163.0", "trial": 5, "time_elapsed": 904740, "serialpos": 8, "key_press": -1, "wordID": 1507, "type": "PRES_VIS", "trial_index": 217}, "uniqueid": "MTK1510:3LKC68YZ3BAIRBEG4QU0TRPR3P9WOK", "dateTime": 1515952820096}, {"current_trial": 218, "trialdata": {"rt": -1, "trial_type": "single-stim", "word": "drink", "stimulus": "<p id=\"stim\">DRINK</p>", "conditions": [24, 1600, "v", 12000], "internal_node_id": "0.0-164.0", "trial": 5, "time_elapsed": 907201, "serialpos": 9, "key_press": -1, "wordID": 497, "type": "PRES_VIS", "trial_index": 218}, "uniqueid": "MTK1510:3LKC68YZ3BAIRBEG4QU0TRPR3P9WOK", "dateTime": 1515952822557}, {"current_trial": 219, "trialdata": {"rt": -1, "trial_type": "single-stim", "word": "crab", "stimulus": "<p id=\"stim\">CRAB</p>", "conditions": [24, 1600, "v", 12000], "internal_node_id": "0.0-165.0", "trial": 5, "time_elapsed": 909842, "serialpos": 10, "key_press": -1, "wordID": 396, "type": "PRES_VIS", "trial_index": 219}, "uniqueid": "MTK1510:3LKC68YZ3BAIRBEG4QU0TRPR3P9WOK", "dateTime": 1515952825198}, {"current_trial": 220, "trialdata": {"rt": -1, "trial_type": "single-stim", "word": "pudding", "stimulus": "<p id=\"stim\">PUDDING</p>", "conditions": [24, 1600, "v", 12000], "internal_node_id": "0.0-166.0", "trial": 5, "time_elapsed": 912517, "serialpos": 11, "key_press": -1, "wordID": 1138, "type": "PRES_VIS", "trial_index": 220}, "uniqueid": "MTK1510:3LKC68YZ3BAIRBEG4QU0TRPR3P9WOK", "dateTime": 1515952827874}, {"current_trial": 221, "trialdata": {"rt": -1, "trial_type": "single-stim", "word": "teacher", "stimulus": "<p id=\"stim\">TEACHER</p>", "conditions": [24, 1600, "v", 12000], "internal_node_id": "0.0-167.0", "trial": 5, "time_elapsed": 915298, "serialpos": 12, "key_press": -1, "wordID": 1439, "type": "PRES_VIS", "trial_index": 221}, "uniqueid": "MTK1510:3LKC68YZ3BAIRBEG4QU0TRPR3P9WOK", "dateTime": 1515952830654}, {"current_trial": 222, "trialdata": {"rt": -1, "trial_type": "single-stim", "word": "slide", "stimulus": "<p id=\"stim\">SLIDE</p>", "conditions": [24, 1600, "v", 12000], "internal_node_id": "0.0-168.0", "trial": 5, "time_elapsed": 917787, "serialpos": 13, "key_press": -1, "wordID": 1325, "type": "PRES_VIS", "trial_index": 222}, "uniqueid": "MTK1510:3LKC68YZ3BAIRBEG4QU0TRPR3P9WOK", "dateTime": 1515952833144}, {"current_trial": 223, "trialdata": {"rt": -1, "trial_type": "single-stim", "word": "xerox", "stimulus": "<p id=\"stim\">XEROX</p>", "conditions": [24, 1600, "v", 12000], "internal_node_id": "0.0-169.0", "trial": 5, "time_elapsed": 920486, "serialpos": 14, "key_press": -1, "wordID": 1627, "type": "PRES_VIS", "trial_index": 223}, "uniqueid": "MTK1510:3LKC68YZ3BAIRBEG4QU0TRPR3P9WOK", "dateTime": 1515952835843}, {"current_trial": 224, "trialdata": {"rt": -1, "trial_type": "single-stim", "word": "pizza", "stimulus": "<p id=\"stim\">PIZZA</p>", "conditions": [24, 1600, "v", 12000], "internal_node_id": "0.0-170.0", "trial": 5, "time_elapsed": 922965, "serialpos": 15, "key_press": -1, "wordID": 1078, "type": "PRES_VIS", "trial_index": 224}, "uniqueid": "MTK1510:3LKC68YZ3BAIRBEG4QU0TRPR3P9WOK", "dateTime": 1515952838321}, {"current_trial": 225, "trialdata": {"rt": -1, "trial_type": "single-stim", "word": "lunch", "stimulus": "<p id=\"stim\">LUNCH</p>", "conditions": [24, 1600, "v", 12000], "internal_node_id": "0.0-171.0", "trial": 5, "time_elapsed": 925478, "serialpos": 16, "key_press": -1, "wordID": 848, "type": "PRES_VIS", "trial_index": 225}, "uniqueid": "MTK1510:3LKC68YZ3BAIRBEG4QU0TRPR3P9WOK", "dateTime": 1515952840835}, {"current_trial": 226, "trialdata": {"rt": -1, "trial_type": "single-stim", "word": "student", "stimulus": "<p id=\"stim\">STUDENT</p>", "conditions": [24, 1600, "v", 12000], "internal_node_id": "0.0-172.0", "trial": 5, "time_elapsed": 928253, "serialpos": 17, "key_press": -1, "wordID": 1394, "type": "PRES_VIS", "trial_index": 226}, "uniqueid": "MTK1510:3LKC68YZ3BAIRBEG4QU0TRPR3P9WOK", "dateTime": 1515952843609}, {"current_trial": 227, "trialdata": {"rt": -1, "trial_type": "single-stim", "word": "london", "stimulus": "<p id=\"stim\">LONDON</p>", "conditions": [24, 1600, "v", 12000], "internal_node_id": "0.0-173.0", "trial": 5, "time_elapsed": 930727, "serialpos": 18, "key_press": -1, "wordID": 842, "type": "PRES_VIS", "trial_index": 227}, "uniqueid": "MTK1510:3LKC68YZ3BAIRBEG4QU0TRPR3P9WOK", "dateTime": 1515952846083}, {"current_trial": 228, "trialdata": {"rt": -1, "trial_type": "single-stim", "word": "blouse", "stimulus": "<p id=\"stim\">BLOUSE</p>", "conditions": [24, 1600, "v", 12000], "internal_node_id": "0.0-174.0", "trial": 5, "time_elapsed": 933517, "serialpos": 19, "key_press": -1, "wordID": 138, "type": "PRES_VIS", "trial_index": 228}, "uniqueid": "MTK1510:3LKC68YZ3BAIRBEG4QU0TRPR3P9WOK", "dateTime": 1515952848873}, {"current_trial": 229, "trialdata": {"rt": -1, "trial_type": "single-stim", "word": "star", "stimulus": "<p id=\"stim\">STAR</p>", "conditions": [24, 1600, "v", 12000], "internal_node_id": "0.0-175.0", "trial": 5, "time_elapsed": 936258, "serialpos": 20, "key_press": -1, "wordID": 1372, "type": "PRES_VIS", "trial_index": 229}, "uniqueid": "MTK1510:3LKC68YZ3BAIRBEG4QU0TRPR3P9WOK", "dateTime": 1515952851614}, {"current_trial": 230, "trialdata": {"rt": -1, "trial_type": "single-stim", "word": "palace", "stimulus": "<p id=\"stim\">PALACE</p>", "conditions": [24, 1600, "v", 12000], "internal_node_id": "0.0-176.0", "trial": 5, "time_elapsed": 938990, "serialpos": 21, "key_press": -1, "wordID": 1005, "type": "PRES_VIS", "trial_index": 230}, "uniqueid": "MTK1510:3LKC68YZ3BAIRBEG4QU0TRPR3P9WOK", "dateTime": 1515952854346}, {"current_trial": 231, "trialdata": {"rt": -1, "trial_type": "single-stim", "word": "husband", "stimulus": "<p id=\"stim\">HUSBAND</p>", "conditions": [24, 1600, "v", 12000], "internal_node_id": "0.0-177.0", "trial": 5, "time_elapsed": 941621, "serialpos": 22, "key_press": -1, "wordID": 727, "type": "PRES_VIS", "trial_index": 231}, "uniqueid": "MTK1510:3LKC68YZ3BAIRBEG4QU0TRPR3P9WOK", "dateTime": 1515952856978}, {"current_trial": 232, "trialdata": {"rt": -1, "trial_type": "single-stim", "word": "friend", "stimulus": "<p id=\"stim\">FRIEND</p>", "conditions": [24, 1600, "v", 12000], "internal_node_id": "0.0-178.0", "trial": 5, "time_elapsed": 944423, "serialpos": 23, "key_press": -1, "wordID": 605, "type": "PRES_VIS", "trial_index": 232}, "uniqueid": "MTK1510:3LKC68YZ3BAIRBEG4QU0TRPR3P9WOK", "dateTime": 1515952859779}, {"current_trial": 233, "trialdata": {"rt": -1, "trial_type": "single-stim", "stimulus": "", "internal_node_id": "0.0-179.0-0.0", "time_elapsed": 946895, "key_press": -1, "type": "PRE_RECALL_DELAY", "trial_index": 233}, "uniqueid": "MTK1510:3LKC68YZ3BAIRBEG4QU0TRPR3P9WOK", "dateTime": 1515952862252}, {"current_trial": 234, "trialdata": {"rt": -1000, "trial_type": "single-audio", "stimulus": "/static/audio/400Hz.wav", "internal_node_id": "0.0-180.0", "time_elapsed": 947399, "key_press": -1, "type": "PRE_RECALL_ALERT", "trial_index": 234}, "uniqueid": "MTK1510:3LKC68YZ3BAIRBEG4QU0TRPR3P9WOK", "dateTime": 1515952862755}, {"current_trial": 235, "trialdata": {"rt": [1700, 2813, 3620, 5102, 6497], "recwords": ["husband", "friend", "clam", "tombstone", "belly"], "key_times": [564, 747, 908, 1087, 1210, 1323, 1442, 1700, 1996, 2178, 2251, 2362, 2492, 2616, 2813, 2992, 3117, 3221, 3356, 3620, 3815, 3919, 4007, 4237, 4419, 4468, 4571, 4672, 4807, 5102, 5405, 5519, 5655, 5812, 6055, 6497], "trial_type": "free-recall", "conditions": [24, 1600, "v", 12000], "internal_node_id": "0.0-181.0-0.0", "key_presses": [72, 85, 83, 66, 65, 78, 68, 13, 70, 82, 73, 69, 78, 68, 13, 67, 76, 65, 77, 13, 84, 79, 77, 66, 83, 84, 79, 78, 69, 13, 66, 69, 76, 76, 89, 13], "trial": 5, "time_elapsed": 1007414, "type": "FREE_RECALL", "trial_index": 235}, "uniqueid": "MTK1510:3LKC68YZ3BAIRBEG4QU0TRPR3P9WOK", "dateTime": 1515952922780}, {"current_trial": 236, "trialdata": {"rt": 1803, "trial_type": "text", "internal_node_id": "0.0-182.0", "time_elapsed": 1011234, "key_press": 68, "type": "INSTRUCTIONS", "trial_index": 236}, "uniqueid": "MTK1510:3LKC68YZ3BAIRBEG4QU0TRPR3P9WOK", "dateTime": 1515952926590}, {"current_trial": 237, "trialdata": {"rt": [1948, 4409, 5967, 7459, 8994, 10913], "trial_type": "math-distractor", "key_times": [1320, 1416, 1948, 3374, 4149, 4409, 5495, 5707, 5967, 7222, 7293, 7459, 8659, 8737, 8994, 10284, 10381, 10913], "responses": ["14", "16", "13", "14", "12", "13"], "num2": [1, 6, 6, 2, 3, 3, 9], "num3": [8, 7, 3, 5, 2, 9, 7], "conditions": [12, 1600, "v", 12000], "internal_node_id": "0.0-183.0", "key_presses": [49, 52, 13, 49, 54, 13, 49, 51, 13, 49, 52, 13, 49, 50, 13, 49, 51, 13], "trial": 6, "time_elapsed": 1025246, "type": "DISTRACTOR", "trial_index": 237, "num1": [5, 3, 4, 7, 7, 1, 3]}, "uniqueid": "MTK1510:3LKC68YZ3BAIRBEG4QU0TRPR3P9WOK", "dateTime": 1515952940603}, {"current_trial": 238, "trialdata": {"rt": -1, "trial_type": "single-stim", "stimulus": "<p id=\"stim\">10</p>", "internal_node_id": "0.0-184.0-0.0", "time_elapsed": 1028252, "key_press": -1, "trial_index": 238}, "uniqueid": "MTK1510:3LKC68YZ3BAIRBEG4QU0TRPR3P9WOK", "dateTime": 1515952943608}, {"current_trial": 239, "trialdata": {"rt": -1, "trial_type": "single-stim", "stimulus": "<p id=\"stim\">9</p>", "internal_node_id": "0.0-184.0-1.0", "time_elapsed": 1029257, "key_press": -1, "trial_index": 239}, "uniqueid": "MTK1510:3LKC68YZ3BAIRBEG4QU0TRPR3P9WOK", "dateTime": 1515952944613}, {"current_trial": 240, "trialdata": {"rt": -1, "trial_type": "single-stim", "stimulus": "<p id=\"stim\">8</p>", "internal_node_id": "0.0-184.0-2.0", "time_elapsed": 1030261, "key_press": -1, "trial_index": 240}, "uniqueid": "MTK1510:3LKC68YZ3BAIRBEG4QU0TRPR3P9WOK", "dateTime": 1515952945617}, {"current_trial": 241, "trialdata": {"rt": -1, "trial_type": "single-stim", "stimulus": "<p id=\"stim\">7</p>", "internal_node_id": "0.0-184.0-3.0", "time_elapsed": 1031266, "key_press": -1, "trial_index": 241}, "uniqueid": "MTK1510:3LKC68YZ3BAIRBEG4QU0TRPR3P9WOK", "dateTime": 1515952946622}, {"current_trial": 242, "trialdata": {"rt": -1, "trial_type": "single-stim", "stimulus": "<p id=\"stim\">6</p>", "internal_node_id": "0.0-184.0-4.0", "time_elapsed": 1032269, "key_press": -1, "trial_index": 242}, "uniqueid": "MTK1510:3LKC68YZ3BAIRBEG4QU0TRPR3P9WOK", "dateTime": 1515952947625}, {"current_trial": 243, "trialdata": {"rt": -1, "trial_type": "single-stim", "stimulus": "<p id=\"stim\">5</p>", "internal_node_id": "0.0-184.0-5.0", "time_elapsed": 1033274, "key_press": -1, "trial_index": 243}, "uniqueid": "MTK1510:3LKC68YZ3BAIRBEG4QU0TRPR3P9WOK", "dateTime": 1515952948630}, {"current_trial": 244, "trialdata": {"rt": -1, "trial_type": "single-stim", "stimulus": "<p id=\"stim\">4</p>", "internal_node_id": "0.0-184.0-6.0", "time_elapsed": 1034277, "key_press": -1, "trial_index": 244}, "uniqueid": "MTK1510:3LKC68YZ3BAIRBEG4QU0TRPR3P9WOK", "dateTime": 1515952949634}, {"current_trial": 245, "trialdata": {"rt": -1, "trial_type": "single-stim", "stimulus": "<p id=\"stim\">3</p>", "internal_node_id": "0.0-184.0-7.0", "time_elapsed": 1035281, "key_press": -1, "trial_index": 245}, "uniqueid": "MTK1510:3LKC68YZ3BAIRBEG4QU0TRPR3P9WOK", "dateTime": 1515952950638}, {"current_trial": 246, "trialdata": {"rt": -1, "trial_type": "single-stim", "stimulus": "<p id=\"stim\">2</p>", "internal_node_id": "0.0-184.0-8.0", "time_elapsed": 1036286, "key_press": -1, "trial_index": 246}, "uniqueid": "MTK1510:3LKC68YZ3BAIRBEG4QU0TRPR3P9WOK", "dateTime": 1515952951642}, {"current_trial": 247, "trialdata": {"rt": -1, "trial_type": "single-stim", "stimulus": "<p id=\"stim\">1</p>", "internal_node_id": "0.0-184.0-9.0", "time_elapsed": 1037301, "key_press": -1, "trial_index": 247}, "uniqueid": "MTK1510:3LKC68YZ3BAIRBEG4QU0TRPR3P9WOK", "dateTime": 1515952952658}, {"current_trial": 248, "trialdata": {"rt": -1, "trial_type": "single-stim", "stimulus": "<p id=\"stim\">+</p>", "internal_node_id": "0.0-185.0-0.0", "time_elapsed": 1038805, "key_press": -1, "type": "FIXATION", "trial_index": 248}, "uniqueid": "MTK1510:3LKC68YZ3BAIRBEG4QU0TRPR3P9WOK", "dateTime": 1515952954161}, {"current_trial": 249, "trialdata": {"rt": -1, "trial_type": "single-stim", "word": "gymnast", "stimulus": "<p id=\"stim\">GYMNAST</p>", "conditions": [12, 1600, "v", 12000], "internal_node_id": "0.0-186.0", "trial": 6, "time_elapsed": 1040412, "serialpos": 0, "key_press": -1, "wordID": 674, "type": "PRES_VIS", "trial_index": 249}, "uniqueid": "MTK1510:3LKC68YZ3BAIRBEG4QU0TRPR3P9WOK", "dateTime": 1515952955768}, {"current_trial": 250, "trialdata": {"rt": -1, "trial_type": "single-stim", "word": "skillet", "stimulus": "<p id=\"stim\">SKILLET</p>", "conditions": [12, 1600, "v", 12000], "internal_node_id": "0.0-187.0", "trial": 6, "time_elapsed": 1043135, "serialpos": 1, "key_press": -1, "wordID": 1316, "type": "PRES_VIS", "trial_index": 250}, "uniqueid": "MTK1510:3LKC68YZ3BAIRBEG4QU0TRPR3P9WOK", "dateTime": 1515952958491}, {"current_trial": 251, "trialdata": {"rt": -1, "trial_type": "single-stim", "word": "spoon", "stimulus": "<p id=\"stim\">SPOON</p>", "conditions": [12, 1600, "v", 12000], "internal_node_id": "0.0-188.0", "trial": 6, "time_elapsed": 1045805, "serialpos": 2, "key_press": -1, "wordID": 1356, "type": "PRES_VIS", "trial_index": 251}, "uniqueid": "MTK1510:3LKC68YZ3BAIRBEG4QU0TRPR3P9WOK", "dateTime": 1515952961161}, {"current_trial": 252, "trialdata": {"rt": -1, "trial_type": "single-stim", "word": "stream", "stimulus": "<p id=\"stim\">STREAM</p>", "conditions": [12, 1600, "v", 12000], "internal_node_id": "0.0-189.0", "trial": 6, "time_elapsed": 1048405, "serialpos": 3, "key_press": -1, "wordID": 1391, "type": "PRES_VIS", "trial_index": 252}, "uniqueid": "MTK1510:3LKC68YZ3BAIRBEG4QU0TRPR3P9WOK", "dateTime": 1515952963761}, {"current_trial": 253, "trialdata": {"rt": -1, "trial_type": "single-stim", "word": "racket", "stimulus": "<p id=\"stim\">RACKET</p>", "conditions": [12, 1600, "v", 12000], "internal_node_id": "0.0-190.0", "trial": 6, "time_elapsed": 1050819, "serialpos": 4, "key_press": -1, "wordID": 1154, "type": "PRES_VIS", "trial_index": 253}, "uniqueid": "MTK1510:3LKC68YZ3BAIRBEG4QU0TRPR3P9WOK", "dateTime": 1515952966176}, {"current_trial": 254, "trialdata": {"rt": -1, "trial_type": "single-stim", "word": "match", "stimulus": "<p id=\"stim\">MATCH</p>", "conditions": [12, 1600, "v", 12000], "internal_node_id": "0.0-191.0", "trial": 6, "time_elapsed": 1053228, "serialpos": 5, "key_press": -1, "wordID": 877, "type": "PRES_VI