{"condition": 0, "counterbalance": 2784, "assignmentId": "3QY5DC2MXSRBTUCIANW9O9VGOWXUFX", "workerId": "MTK1269", "hitId": "30EMX9PEVKQ47JEYWRN4019DWE6KSY", "currenttrial": 626, "bonus": 0, "data": [{"uniqueid": "MTK1269:3QY5DC2MXSRBTUCIANW9O9VGOWXUFX", "current_trial": 0, "dateTime": 1513485088495, "trialdata": {"rt": 1690, "key_press": 32, "type": "INSTRUCTIONS", "trial_type": "text", "trial_index": 0, "time_elapsed": 1693, "internal_node_id": "0.0-0.0"}}, {"uniqueid": "MTK1269:3QY5DC2MXSRBTUCIANW9O9VGOWXUFX", "current_trial": 1, "dateTime": 1513485105781, "trialdata": {"rt": 17284, "key_press": 32, "type": "INSTRUCTIONS", "trial_type": "text", "trial_index": 1, "time_elapsed": 18979, "internal_node_id": "0.0-1.0"}}, {"uniqueid": "MTK1269:3QY5DC2MXSRBTUCIANW9O9VGOWXUFX", "current_trial": 2, "dateTime": 1513485114103, "trialdata": {"rt": [8300], "responses": ["ocean"], "type": "AUDIO_TEST", "trial_type": "audio-test", "trial_index": 2, "time_elapsed": 27301, "internal_node_id": "0.0-2.0"}}, {"uniqueid": "MTK1269:3QY5DC2MXSRBTUCIANW9O9VGOWXUFX", "current_trial": 3, "dateTime": 1513485122000, "trialdata": {"rt": [7892], "responses": ["crystal"], "type": "AUDIO_TEST", "trial_type": "audio-test", "trial_index": 3, "time_elapsed": 35198, "internal_node_id": "0.0-3.0"}}, {"uniqueid": "MTK1269:3QY5DC2MXSRBTUCIANW9O9VGOWXUFX", "current_trial": 4, "dateTime": 1513485128834, "trialdata": {"rt": [6827], "responses": ["spice"], "type": "AUDIO_TEST", "trial_type": "audio-test", "trial_index": 4, "time_elapsed": 42032, "internal_node_id": "0.0-4.0"}}, {"uniqueid": "MTK1269:3QY5DC2MXSRBTUCIANW9O9VGOWXUFX", "current_trial": 5, "dateTime": 1513485150629, "trialdata": {"rt": 21043, "responses": "{\"Q0\":\"1:00 a.m.\",\"Q1\":\"7:30 a.m.\",\"Q2\":\"4\"}", "type": "SLEEP_SURVEY", "trial_type": "survey-text", "trial_index": 5, "time_elapsed": 63827, "internal_node_id": "0.0-5.0"}}, {"uniqueid": "MTK1269:3QY5DC2MXSRBTUCIANW9O9VGOWXUFX", "current_trial": 6, "dateTime": 1513485185208, "trialdata": {"rt": 33577, "key_press": 32, "type": "INSTRUCTIONS", "trial_type": "text", "trial_index": 6, "time_elapsed": 98406, "internal_node_id": "0.0-6.0"}}, {"uniqueid": "MTK1269:3QY5DC2MXSRBTUCIANW9O9VGOWXUFX", "current_trial": 7, "dateTime": 1513485198992, "trialdata": {"rt": 13283, "key_press": 32, "type": "INSTRUCTIONS", "trial_type": "text", "trial_index": 7, "time_elapsed": 112190, "internal_node_id": "0.0-7.0"}}, {"uniqueid": "MTK1269:3QY5DC2MXSRBTUCIANW9O9VGOWXUFX", "current_trial": 8, "dateTime": 1513485209091, "trialdata": {"rt": 9598, "key_press": 32, "type": "INSTRUCTIONS", "trial_type": "text", "trial_index": 8, "time_elapsed": 122288, "internal_node_id": "0.0-8.0"}}, {"uniqueid": "MTK1269:3QY5DC2MXSRBTUCIANW9O9VGOWXUFX", "current_trial": 9, "dateTime": 1513485228101, "trialdata": {"rt": [4228, 11523, 13148, 17404], "responses": ["14", "16", "3", "14"], "num1": [7, 4, 1, 2, 1], "num2": [1, 6, 1, 3, 1], "num3": [6, 6, 1, 9, 6], "type": "DISTRACTOR", "conditions": [18, 1200, "v", 18000], "trial": 0, "trial_type": "math-distractor", "trial_index": 9, "time_elapsed": 141299, "internal_node_id": "0.0-9.0"}}, {"uniqueid": "MTK1269:3QY5DC2MXSRBTUCIANW9O9VGOWXUFX", "current_trial": 10, "dateTime": 1513485231102, "trialdata": {"rt": -1, "stimulus": "<p id=\"stim\">10</p>", "key_press": -1, "trial_type": "single-stim", "trial_index": 10, "time_elapsed": 144300, "internal_node_id": "0.0-10.0-0.0"}}, {"uniqueid": "MTK1269:3QY5DC2MXSRBTUCIANW9O9VGOWXUFX", "current_trial": 11, "dateTime": 1513485232102, "trialdata": {"rt": -1, "stimulus": "<p id=\"stim\">9</p>", "key_press": -1, "trial_type": "single-stim", "trial_index": 11, "time_elapsed": 145300, "internal_node_id": "0.0-10.0-1.0"}}, {"uniqueid": "MTK1269:3QY5DC2MXSRBTUCIANW9O9VGOWXUFX", "current_trial": 12, "dateTime": 1513485233103, "trialdata": {"rt": -1, "stimulus": "<p id=\"stim\">8</p>", "key_press": -1, "trial_type": "single-stim", "trial_index": 12, "time_elapsed": 146301, "internal_node_id": "0.0-10.0-2.0"}}, {"uniqueid": "MTK1269:3QY5DC2MXSRBTUCIANW9O9VGOWXUFX", "current_trial": 13, "dateTime": 1513485234104, "trialdata": {"rt": -1, "stimulus": "<p id=\"stim\">7</p>", "key_press": -1, "trial_type": "single-stim", "trial_index": 13, "time_elapsed": 147302, "internal_node_id": "0.0-10.0-3.0"}}, {"uniqueid": "MTK1269:3QY5DC2MXSRBTUCIANW9O9VGOWXUFX", "current_trial": 14, "dateTime": 1513485235105, "trialdata": {"rt": -1, "stimulus": "<p id=\"stim\">6</p>", "key_press": -1, "trial_type": "single-stim", "trial_index": 14, "time_elapsed": 148303, "internal_node_id": "0.0-10.0-4.0"}}, {"uniqueid": "MTK1269:3QY5DC2MXSRBTUCIANW9O9VGOWXUFX", "current_trial": 15, "dateTime": 1513485236106, "trialdata": {"rt": -1, "stimulus": "<p id=\"stim\">5</p>", "key_press": -1, "trial_type": "single-stim", "trial_index": 15, "time_elapsed": 149304, "internal_node_id": "0.0-10.0-5.0"}}, {"uniqueid": "MTK1269:3QY5DC2MXSRBTUCIANW9O9VGOWXUFX", "current_trial": 16, "dateTime": 1513485237107, "trialdata": {"rt": -1, "stimulus": "<p id=\"stim\">4</p>", "key_press": -1, "trial_type": "single-stim", "trial_index": 16, "time_elapsed": 150305, "internal_node_id": "0.0-10.0-6.0"}}, {"uniqueid": "MTK1269:3QY5DC2MXSRBTUCIANW9O9VGOWXUFX", "current_trial": 17, "dateTime": 1513485238112, "trialdata": {"rt": -1, "stimulus": "<p id=\"stim\">3</p>", "key_press": -1, "trial_type": "single-stim", "trial_index": 17, "time_elapsed": 151310, "internal_node_id": "0.0-10.0-7.0"}}, {"uniqueid": "MTK1269:3QY5DC2MXSRBTUCIANW9O9VGOWXUFX", "current_trial": 18, "dateTime": 1513485239113, "trialdata": {"rt": -1, "stimulus": "<p id=\"stim\">2</p>", "key_press": -1, "trial_type": "single-stim", "trial_index": 18, "time_elapsed": 152311, "internal_node_id": "0.0-10.0-8.0"}}, {"uniqueid": "MTK1269:3QY5DC2MXSRBTUCIANW9O9VGOWXUFX", "current_trial": 19, "dateTime": 1513485240114, "trialdata": {"rt": -1, "stimulus": "<p id=\"stim\">1</p>", "key_press": -1, "trial_type": "single-stim", "trial_index": 19, "time_elapsed": 153312, "internal_node_id": "0.0-10.0-9.0"}}, {"uniqueid": "MTK1269:3QY5DC2MXSRBTUCIANW9O9VGOWXUFX", "current_trial": 20, "dateTime": 1513485241614, "trialdata": {"rt": -1, "stimulus": "<p id=\"stim\">+</p>", "key_press": -1, "type": "FIXATION", "trial_type": "single-stim", "trial_index": 20, "time_elapsed": 154812, "internal_node_id": "0.0-11.0-0.0"}}, {"uniqueid": "MTK1269:3QY5DC2MXSRBTUCIANW9O9VGOWXUFX", "current_trial": 21, "dateTime": 1513485242821, "trialdata": {"rt": -1, "stimulus": "<p id=\"stim\">FOOTBALL</p>", "key_press": -1, "type": "PRES_VIS", "word": "football", "wordID": 590, "conditions": [18, 1200, "v", 18000], "trial": 0, "serialpos": 0, "trial_type": "single-stim", "trial_index": 21, "time_elapsed": 156018, "internal_node_id": "0.0-12.0"}}, {"uniqueid": "MTK1269:3QY5DC2MXSRBTUCIANW9O9VGOWXUFX", "current_trial": 22, "dateTime": 1513485245166, "trialdata": {"rt": -1, "stimulus": "<p id=\"stim\">GRAPE</p>", "key_press": -1, "type": "PRES_VIS", "word": "grape", "wordID": 653, "conditions": [18, 1200, "v", 18000], "trial": 0, "serialpos": 1, "trial_type": "single-stim", "trial_index": 22, "time_elapsed": 158364, "internal_node_id": "0.0-13.0"}}, {"uniqueid": "MTK1269:3QY5DC2MXSRBTUCIANW9O9VGOWXUFX", "current_trial": 23, "dateTime": 1513485247525, "trialdata": {"rt": -1, "stimulus": "<p id=\"stim\">DRESS</p>", "key_press": -1, "type": "PRES_VIS", "word": "dress", "wordID": 494, "conditions": [18, 1200, "v", 18000], "trial": 0, "serialpos": 2, "trial_type": "single-stim", "trial_index": 23, "time_elapsed": 160723, "internal_node_id": "0.0-14.0"}}, {"uniqueid": "MTK1269:3QY5DC2MXSRBTUCIANW9O9VGOWXUFX", "current_trial": 24, "dateTime": 1513485249882, "trialdata": {"rt": -1, "stimulus": "<p id=\"stim\">LUGGAGE</p>", "key_press": -1, "type": "PRES_VIS", "word": "luggage", "wordID": 846, "conditions": [18, 1200, "v", 18000], "trial": 0, "serialpos": 3, "trial_type": "single-stim", "trial_index": 24, "time_elapsed": 163080, "internal_node_id": "0.0-15.0"}}, {"uniqueid": "MTK1269:3QY5DC2MXSRBTUCIANW9O9VGOWXUFX", "current_trial": 25, "dateTime": 1513485252253, "trialdata": {"rt": -1, "stimulus": "<p id=\"stim\">APRON</p>", "key_press": -1, "type": "PRES_VIS", "word": "apron", "wordID": 34, "conditions": [18, 1200, "v", 18000], "trial": 0, "serialpos": 4, "trial_type": "single-stim", "trial_index": 25, "time_elapsed": 165451, "internal_node_id": "0.0-16.0"}}, {"uniqueid": "MTK1269:3QY5DC2MXSRBTUCIANW9O9VGOWXUFX", "current_trial": 26, "dateTime": 1513485254377, "trialdata": {"rt": -1, "stimulus": "<p id=\"stim\">BISON</p>", "key_press": -1, "type": "PRES_VIS", "word": "bison", "wordID": 130, "conditions": [18, 1200, "v", 18000], "trial": 0, "serialpos": 5, "trial_type": "single-stim", "trial_index": 26, "time_elapsed": 167575, "internal_node_id": "0.0-17.0"}}, {"uniqueid": "MTK1269:3QY5DC2MXSRBTUCIANW9O9VGOWXUFX", "current_trial": 27, "dateTime": 1513485256503, "trialdata": {"rt": -1, "stimulus": "<p id=\"stim\">GARDEN</p>", "key_press": -1, "type": "PRES_VIS", "word": "garden", "wordID": 622, "conditions": [18, 1200, "v", 18000], "trial": 0, "serialpos": 6, "trial_type": "single-stim", "trial_index": 27, "time_elapsed": 169701, "internal_node_id": "0.0-18.0"}}, {"uniqueid": "MTK1269:3QY5DC2MXSRBTUCIANW9O9VGOWXUFX", "current_trial": 28, "dateTime": 1513485258569, "trialdata": {"rt": -1, "stimulus": "<p id=\"stim\">SHARK</p>", "key_press": -1, "type": "PRES_VIS", "word": "shark", "wordID": 1274, "conditions": [18, 1200, "v", 18000], "trial": 0, "serialpos": 7, "trial_type": "single-stim", "trial_index": 28, "time_elapsed": 171767, "internal_node_id": "0.0-19.0"}}, {"uniqueid": "MTK1269:3QY5DC2MXSRBTUCIANW9O9VGOWXUFX", "current_trial": 29, "dateTime": 1513485260614, "trialdata": {"rt": -1, "stimulus": "<p id=\"stim\">XEROX</p>", "key_press": -1, "type": "PRES_VIS", "word": "xerox", "wordID": 1627, "conditions": [18, 1200, "v", 18000], "trial": 0, "serialpos": 8, "trial_type": "single-stim", "trial_index": 29, "time_elapsed": 173812, "internal_node_id": "0.0-20.0"}}, {"uniqueid": "MTK1269:3QY5DC2MXSRBTUCIANW9O9VGOWXUFX", "current_trial": 30, "dateTime": 1513485262766, "trialdata": {"rt": -1, "stimulus": "<p id=\"stim\">HATCHET</p>", "key_press": -1, "type": "PRES_VIS", "word": "hatchet", "wordID": 690, "conditions": [18, 1200, "v", 18000], "trial": 0, "serialpos": 9, "trial_type": "single-stim", "trial_index": 30, "time_elapsed": 175964, "internal_node_id": "0.0-21.0"}}, {"uniqueid": "MTK1269:3QY5DC2MXSRBTUCIANW9O9VGOWXUFX", "current_trial": 31, "dateTime": 1513485265165, "trialdata": {"rt": -1, "stimulus": "<p id=\"stim\">OUTLAW</p>", "key_press": -1, "type": "PRES_VIS", "word": "outlaw", "wordID": 988, "conditions": [18, 1200, "v", 18000], "trial": 0, "serialpos": 10, "trial_type": "single-stim", "trial_index": 31, "time_elapsed": 178363, "internal_node_id": "0.0-22.0"}}, {"uniqueid": "MTK1269:3QY5DC2MXSRBTUCIANW9O9VGOWXUFX", "current_trial": 32, "dateTime": 1513485267319, "trialdata": {"rt": -1, "stimulus": "<p id=\"stim\">SHRUB</p>", "key_press": -1, "type": "PRES_VIS", "word": "shrub", "wordID": 1298, "conditions": [18, 1200, "v", 18000], "trial": 0, "serialpos": 11, "trial_type": "single-stim", "trial_index": 32, "time_elapsed": 180517, "internal_node_id": "0.0-23.0"}}, {"uniqueid": "MTK1269:3QY5DC2MXSRBTUCIANW9O9VGOWXUFX", "current_trial": 33, "dateTime": 1513485269481, "trialdata": {"rt": -1, "stimulus": "<p id=\"stim\">REBEL</p>", "key_press": -1, "type": "PRES_VIS", "word": "rebel", "wordID": 1171, "conditions": [18, 1200, "v", 18000], "trial": 0, "serialpos": 12, "trial_type": "single-stim", "trial_index": 33, "time_elapsed": 182679, "internal_node_id": "0.0-24.0"}}, {"uniqueid": "MTK1269:3QY5DC2MXSRBTUCIANW9O9VGOWXUFX", "current_trial": 34, "dateTime": 1513485271527, "trialdata": {"rt": -1, "stimulus": "<p id=\"stim\">CANDY</p>", "key_press": -1, "type": "PRES_VIS", "word": "candy", "wordID": 229, "conditions": [18, 1200, "v", 18000], "trial": 0, "serialpos": 13, "trial_type": "single-stim", "trial_index": 34, "time_elapsed": 184725, "internal_node_id": "0.0-25.0"}}, {"uniqueid": "MTK1269:3QY5DC2MXSRBTUCIANW9O9VGOWXUFX", "current_trial": 35, "dateTime": 1513485273730, "trialdata": {"rt": -1, "stimulus": "<p id=\"stim\">LAPEL</p>", "key_press": -1, "type": "PRES_VIS", "word": "lapel", "wordID": 799, "conditions": [18, 1200, "v", 18000], "trial": 0, "serialpos": 14, "trial_type": "single-stim", "trial_index": 35, "time_elapsed": 186927, "internal_node_id": "0.0-26.0"}}, {"uniqueid": "MTK1269:3QY5DC2MXSRBTUCIANW9O9VGOWXUFX", "current_trial": 36, "dateTime": 1513485275866, "trialdata": {"rt": -1, "stimulus": "<p id=\"stim\">JELLY</p>", "key_press": -1, "type": "PRES_VIS", "word": "jelly", "wordID": 754, "conditions": [18, 1200, "v", 18000], "trial": 0, "serialpos": 15, "trial_type": "single-stim", "trial_index": 36, "time_elapsed": 189064, "internal_node_id": "0.0-27.0"}}, {"uniqueid": "MTK1269:3QY5DC2MXSRBTUCIANW9O9VGOWXUFX", "current_trial": 37, "dateTime": 1513485278244, "trialdata": {"rt": -1, "stimulus": "<p id=\"stim\">ICING</p>", "key_press": -1, "type": "PRES_VIS", "word": "icing", "wordID": 731, "conditions": [18, 1200, "v", 18000], "trial": 0, "serialpos": 16, "trial_type": "single-stim", "trial_index": 37, "time_elapsed": 191442, "internal_node_id": "0.0-28.0"}}, {"uniqueid": "MTK1269:3QY5DC2MXSRBTUCIANW9O9VGOWXUFX", "current_trial": 38, "dateTime": 1513485280332, "trialdata": {"rt": -1, "stimulus": "<p id=\"stim\">MARKET</p>", "key_press": -1, "type": "PRES_VIS", "word": "market", "wordID": 870, "conditions": [18, 1200, "v", 18000], "trial": 0, "serialpos": 17, "trial_type": "single-stim", "trial_index": 38, "time_elapsed": 193530, "internal_node_id": "0.0-29.0"}}, {"uniqueid": "MTK1269:3QY5DC2MXSRBTUCIANW9O9VGOWXUFX", "current_trial": 39, "dateTime": 1513485282681, "trialdata": {"rt": -1, "stimulus": "", "key_press": -1, "type": "PRE_RECALL_DELAY", "trial_type": "single-stim", "trial_index": 39, "time_elapsed": 195879, "internal_node_id": "0.0-30.0-0.0"}}, {"uniqueid": "MTK1269:3QY5DC2MXSRBTUCIANW9O9VGOWXUFX", "current_trial": 40, "dateTime": 1513485283183, "trialdata": {"rt": -1000, "stimulus": "/static/audio/400Hz.wav", "key_press": -1, "type": "PRE_RECALL_ALERT", "trial_type": "single-audio", "trial_index": 40, "time_elapsed": 196381, "internal_node_id": "0.0-31.0"}}, {"uniqueid": "MTK1269:3QY5DC2MXSRBTUCIANW9O9VGOWXUFX", "current_trial": 41, "dateTime": 1513485343189, "trialdata": {"rt": [2611, 4458, 13771, 35244, 38212], "recwords": ["market", "jelly", "shark", "football", ""], "type": "FREE_RECALL", "conditions": [18, 1200, "v", 18000], "trial": 0, "trial_type": "free-recall", "trial_index": 41, "time_elapsed": 256385, "internal_node_id": "0.0-32.0-0.0"}}, {"uniqueid": "MTK1269:3QY5DC2MXSRBTUCIANW9O9VGOWXUFX", "current_trial": 42, "dateTime": 1513485348149, "trialdata": {"rt": 2960, "key_press": 32, "type": "INSTRUCTIONS", "trial_type": "text", "trial_index": 42, "time_elapsed": 261347, "internal_node_id": "0.0-33.0"}}, {"uniqueid": "MTK1269:3QY5DC2MXSRBTUCIANW9O9VGOWXUFX", "current_trial": 43, "dateTime": 1513485368150, "trialdata": {"rt": [6638, 10230, 15414], "responses": ["15", "17", "17"], "num1": [1, 4, 9, 6], "num2": [8, 4, 3, 4], "num3": [6, 9, 5, 7], "type": "DISTRACTOR", "conditions": [18, 1200, "a", 18000], "trial": 1, "trial_type": "math-distractor", "trial_index": 43, "time_elapsed": 281348, "internal_node_id": "0.0-34.0"}}, {"uniqueid": "MTK1269:3QY5DC2MXSRBTUCIANW9O9VGOWXUFX", "current_trial": 44, "dateTime": 1513485371150, "trialdata": {"rt": -1, "stimulus": "<p id=\"stim\">10</p>", "key_press": -1, "trial_type": "single-stim", "trial_index": 44, "time_elapsed": 284348, "internal_node_id": "0.0-35.0-0.0"}}, {"uniqueid": "MTK1269:3QY5DC2MXSRBTUCIANW9O9VGOWXUFX", "current_trial": 45, "dateTime": 1513485372151, "trialdata": {"rt": -1, "stimulus": "<p id=\"stim\">9</p>", "key_press": -1, "trial_type": "single-stim", "trial_index": 45, "time_elapsed": 285349, "internal_node_id": "0.0-35.0-1.0"}}, {"uniqueid": "MTK1269:3QY5DC2MXSRBTUCIANW9O9VGOWXUFX", "current_trial": 46, "dateTime": 1513485373152, "trialdata": {"rt": -1, "stimulus": "<p id=\"stim\">8</p>", "key_press": -1, "trial_type": "single-stim", "trial_index": 46, "time_elapsed": 286350, "internal_node_id": "0.0-35.0-2.0"}}, {"uniqueid": "MTK1269:3QY5DC2MXSRBTUCIANW9O9VGOWXUFX", "current_trial": 47, "dateTime": 1513485374152, "trialdata": {"rt": -1, "stimulus": "<p id=\"stim\">7</p>", "key_press": -1, "trial_type": "single-stim", "trial_index": 47, "time_elapsed": 287350, "internal_node_id": "0.0-35.0-3.0"}}, {"uniqueid": "MTK1269:3QY5DC2MXSRBTUCIANW9O9VGOWXUFX", "current_trial": 48, "dateTime": 1513485375153, "trialdata": {"rt": -1, "stimulus": "<p id=\"stim\">6</p>", "key_press": -1, "trial_type": "single-stim", "trial_index": 48, "time_elapsed": 288351, "internal_node_id": "0.0-35.0-4.0"}}, {"uniqueid": "MTK1269:3QY5DC2MXSRBTUCIANW9O9VGOWXUFX", "current_trial": 49, "dateTime": 1513485376154, "trialdata": {"rt": -1, "stimulus": "<p id=\"stim\">5</p>", "key_press": -1, "trial_type": "single-stim", "trial_index": 49, "time_elapsed": 289352, "internal_node_id": "0.0-35.0-5.0"}}, {"uniqueid": "MTK1269:3QY5DC2MXSRBTUCIANW9O9VGOWXUFX", "current_trial": 50, "dateTime": 1513485377155, "trialdata": {"rt": -1, "stimulus": "<p id=\"stim\">4</p>", "key_press": -1, "trial_type": "single-stim", "trial_index": 50, "time_elapsed": 290353, "internal_node_id": "0.0-35.0-6.0"}}, {"uniqueid": "MTK1269:3QY5DC2MXSRBTUCIANW9O9VGOWXUFX", "current_trial": 51, "dateTime": 1513485378155, "trialdata": {"rt": -1, "stimulus": "<p id=\"stim\">3</p>", "key_press": -1, "trial_type": "single-stim", "trial_index": 51, "time_elapsed": 291353, "internal_node_id": "0.0-35.0-7.0"}}, {"uniqueid": "MTK1269:3QY5DC2MXSRBTUCIANW9O9VGOWXUFX", "current_trial": 52, "dateTime": 1513485379156, "trialdata": {"rt": -1, "stimulus": "<p id=\"stim\">2</p>", "key_press": -1, "trial_type": "single-stim", "trial_index": 52, "time_elapsed": 292354, "internal_node_id": "0.0-35.0-8.0"}}, {"uniqueid": "MTK1269:3QY5DC2MXSRBTUCIANW9O9VGOWXUFX", "current_trial": 53, "dateTime": 1513485380157, "trialdata": {"rt": -1, "stimulus": "<p id=\"stim\">1</p>", "key_press": -1, "trial_type": "single-stim", "trial_index": 53, "time_elapsed": 293355, "internal_node_id": "0.0-35.0-9.0"}}, {"uniqueid": "MTK1269:3QY5DC2MXSRBTUCIANW9O9VGOWXUFX", "current_trial": 54, "dateTime": 1513485381657, "trialdata": {"rt": -1, "stimulus": "<p id=\"stim\">+</p>", "key_press": -1, "type": "FIXATION", "trial_type": "single-stim", "trial_index": 54, "time_elapsed": 294855, "internal_node_id": "0.0-36.0-0.0"}}, {"uniqueid": "MTK1269:3QY5DC2MXSRBTUCIANW9O9VGOWXUFX", "current_trial": 55, "dateTime": 1513485384005, "trialdata": {"rt": -1000, "stimulus": "/static/audio/wordpool/MARSH.wav", "key_press": -1, "type": "PRES_AUD", "word": "marsh", "wordID": 873, "conditions": [18, 1200, "a", 18000], "trial": 1, "serialpos": 0, "trial_type": "single-audio", "trial_index": 55, "time_elapsed": 297203, "internal_node_id": "0.0-37.0"}}, {"uniqueid": "MTK1269:3QY5DC2MXSRBTUCIANW9O9VGOWXUFX", "current_trial": 56, "dateTime": 1513485386122, "trialdata": {"rt": -1000, "stimulus": "/static/audio/wordpool/POLICE.wav", "key_press": -1, "type": "PRES_AUD", "word": "police", "wordID": 1097, "conditions": [18, 1200, "a", 18000], "trial": 1, "serialpos": 1, "trial_type": "single-audio", "trial_index": 56, "time_elapsed": 299320, "internal_node_id": "0.0-38.0"}}, {"uniqueid": "MTK1269:3QY5DC2MXSRBTUCIANW9O9VGOWXUFX", "current_trial": 57, "dateTime": 1513485388446, "trialdata": {"rt": -1000, "stimulus": "/static/audio/wordpool/PIANO.wav", "key_press": -1, "type": "PRES_AUD", "word": "piano", "wordID": 1056, "conditions": [18, 1200, "a", 18000], "trial": 1, "serialpos": 2, "trial_type": "single-audio", "trial_index": 57, "time_elapsed": 301644, "internal_node_id": "0.0-39.0"}}, {"uniqueid": "MTK1269:3QY5DC2MXSRBTUCIANW9O9VGOWXUFX", "current_trial": 58, "dateTime": 1513485390511, "trialdata": {"rt": -1000, "stimulus": "/static/audio/wordpool/WAITRESS.wav", "key_press": -1, "type": "PRES_AUD", "word": "waitress", "wordID": 1580, "conditions": [18, 1200, "a", 18000], "trial": 1, "serialpos": 3, "trial_type": "single-audio", "trial_index": 58, "time_elapsed": 303709, "internal_node_id": "0.0-40.0"}}, {"uniqueid": "MTK1269:3QY5DC2MXSRBTUCIANW9O9VGOWXUFX", "current_trial": 59, "dateTime": 1513485392568, "trialdata": {"rt": -1000, "stimulus": "/static/audio/wordpool/CHURCH.wav", "key_press": -1, "type": "PRES_AUD", "word": "church", "wordID": 306, "conditions": [18, 1200, "a", 18000], "trial": 1, "serialpos": 4, "trial_type": "single-audio", "trial_index": 59, "time_elapsed": 305766, "internal_node_id": "0.0-41.0"}}, {"uniqueid": "MTK1269:3QY5DC2MXSRBTUCIANW9O9VGOWXUFX", "current_trial": 60, "dateTime": 1513485394816, "trialdata": {"rt": -1000, "stimulus": "/static/audio/wordpool/PLAID.wav", "key_press": -1, "type": "PRES_AUD", "word": "plaid", "wordID": 1079, "conditions": [18, 1200, "a", 18000], "trial": 1, "serialpos": 5, "trial_type": "single-audio", "trial_index": 60, "time_elapsed": 308014, "internal_node_id": "0.0-42.0"}}, {"uniqueid": "MTK1269:3QY5DC2MXSRBTUCIANW9O9VGOWXUFX", "current_trial": 61, "dateTime": 1513485396949, "trialdata": {"rt": -1000, "stimulus": "/static/audio/wordpool/LODGE.wav", "key_press": -1, "type": "PRES_AUD", "word": "lodge", "wordID": 838, "conditions": [18, 1200, "a", 18000], "trial": 1, "serialpos": 6, "trial_type": "single-audio", "trial_index": 61, "time_elapsed": 310147, "internal_node_id": "0.0-43.0"}}, {"uniqueid": "MTK1269:3QY5DC2MXSRBTUCIANW9O9VGOWXUFX", "current_trial": 62, "dateTime": 1513485399050, "trialdata": {"rt": -1000, "stimulus": "/static/audio/wordpool/BANQUET.wav", "key_press": -1, "type": "PRES_AUD", "word": "banquet", "wordID": 85, "conditions": [18, 1200, "a", 18000], "trial": 1, "serialpos": 7, "trial_type": "single-audio", "trial_index": 62, "time_elapsed": 312248, "internal_node_id": "0.0-44.0"}}, {"uniqueid": "MTK1269:3QY5DC2MXSRBTUCIANW9O9VGOWXUFX", "current_trial": 63, "dateTime": 1513485401232, "trialdata": {"rt": -1000, "stimulus": "/static/audio/wordpool/COMPASS.wav", "key_press": -1, "type": "PRES_AUD", "word": "compass", "wordID": 357, "conditions": [18, 1200, "a", 18000], "trial": 1, "serialpos": 8, "trial_type": "single-audio", "trial_index": 63, "time_elapsed": 314430, "internal_node_id": "0.0-45.0"}}, {"uniqueid": "MTK1269:3QY5DC2MXSRBTUCIANW9O9VGOWXUFX", "current_trial": 64, "dateTime": 1513485403519, "trialdata": {"rt": -1000, "stimulus": "/static/audio/wordpool/CASKET.wav", "key_press": -1, "type": "PRES_AUD", "word": "casket", "wordID": 254, "conditions": [18, 1200, "a", 18000], "trial": 1, "serialpos": 9, "trial_type": "single-audio", "trial_index": 64, "time_elapsed": 316716, "internal_node_id": "0.0-46.0"}}, {"uniqueid": "MTK1269:3QY5DC2MXSRBTUCIANW9O9VGOWXUFX", "current_trial": 65, "dateTime": 1513485405589, "trialdata": {"rt": -1000, "stimulus": "/static/audio/wordpool/DENIM.wav", "key_press": -1, "type": "PRES_AUD", "word": "denim", "wordID": 445, "conditions": [18, 1200, "a", 18000], "trial": 1, "serialpos": 10, "trial_type": "single-audio", "trial_index": 65, "time_elapsed": 318786, "internal_node_id": "0.0-47.0"}}, {"uniqueid": "MTK1269:3QY5DC2MXSRBTUCIANW9O9VGOWXUFX", "current_trial": 66, "dateTime": 1513485407895, "trialdata": {"rt": -1000, "stimulus": "/static/audio/wordpool/CRAB.wav", "key_press": -1, "type": "PRES_AUD", "word": "crab", "wordID": 396, "conditions": [18, 1200, "a", 18000], "trial": 1, "serialpos": 11, "trial_type": "single-audio", "trial_index": 66, "time_elapsed": 321093, "internal_node_id": "0.0-48.0"}}, {"uniqueid": "MTK1269:3QY5DC2MXSRBTUCIANW9O9VGOWXUFX", "current_trial": 67, "dateTime": 1513485410279, "trialdata": {"rt": -1000, "stimulus": "/static/audio/wordpool/CARROT.wav", "key_press": -1, "type": "PRES_AUD", "word": "carrot", "wordID": 248, "conditions": [18, 1200, "a", 18000], "trial": 1, "serialpos": 12, "trial_type": "single-audio", "trial_index": 67, "time_elapsed": 323477, "internal_node_id": "0.0-49.0"}}, {"uniqueid": "MTK1269:3QY5DC2MXSRBTUCIANW9O9VGOWXUFX", "current_trial": 68, "dateTime": 1513485412577, "trialdata": {"rt": -1000, "stimulus": "/static/audio/wordpool/MILDEW.wav", "key_press": -1, "type": "PRES_AUD", "word": "mildew", "wordID": 892, "conditions": [18, 1200, "a", 18000], "trial": 1, "serialpos": 13, "trial_type": "single-audio", "trial_index": 68, "time_elapsed": 325773, "internal_node_id": "0.0-50.0"}}, {"uniqueid": "MTK1269:3QY5DC2MXSRBTUCIANW9O9VGOWXUFX", "current_trial": 69, "dateTime": 1513485414663, "trialdata": {"rt": -1000, "stimulus": "/static/audio/wordpool/DRILL.wav", "key_press": -1, "type": "PRES_AUD", "word": "drill", "wordID": 496, "conditions": [18, 1200, "a", 18000], "trial": 1, "serialpos": 14, "trial_type": "single-audio", "trial_index": 69, "time_elapsed": 327860, "internal_node_id": "0.0-51.0"}}, {"uniqueid": "MTK1269:3QY5DC2MXSRBTUCIANW9O9VGOWXUFX", "current_trial": 70, "dateTime": 1513485416785, "trialdata": {"rt": -1000, "stimulus": "/static/audio/wordpool/DASHBOARD.wav", "key_press": -1, "type": "PRES_AUD", "word": "dashboard", "wordID": 440, "conditions": [18, 1200, "a", 18000], "trial": 1, "serialpos": 15, "trial_type": "single-audio", "trial_index": 70, "time_elapsed": 329983, "internal_node_id": "0.0-52.0"}}, {"uniqueid": "MTK1269:3QY5DC2MXSRBTUCIANW9O9VGOWXUFX", "current_trial": 71, "dateTime": 1513485419142, "trialdata": {"rt": -1000, "stimulus": "/static/audio/wordpool/KNAPSACK.wav", "key_press": -1, "type": "PRES_AUD", "word": "knapsack", "wordID": 782, "conditions": [18, 1200, "a", 18000], "trial": 1, "serialpos": 16, "trial_type": "single-audio", "trial_index": 71, "time_elapsed": 332339, "internal_node_id": "0.0-53.0"}}, {"uniqueid": "MTK1269:3QY5DC2MXSRBTUCIANW9O9VGOWXUFX", "current_trial": 72, "dateTime": 1513485421382, "trialdata": {"rt": -1000, "stimulus": "/static/audio/wordpool/LACE.wav", "key_press": -1, "type": "PRES_AUD", "word": "lace", "wordID": 791, "conditions": [18, 1200, "a", 18000], "trial": 1, "serialpos": 17, "trial_type": "single-audio", "trial_index": 72, "time_elapsed": 334579, "internal_node_id": "0.0-54.0"}}, {"uniqueid": "MTK1269:3QY5DC2MXSRBTUCIANW9O9VGOWXUFX", "current_trial": 73, "dateTime": 1513485422584, "trialdata": {"rt": -1, "stimulus": "", "key_press": -1, "type": "PRE_RECALL_DELAY", "trial_type": "single-stim", "trial_index": 73, "time_elapsed": 335782, "internal_node_id": "0.0-55.0-0.0"}}, {"uniqueid": "MTK1269:3QY5DC2MXSRBTUCIANW9O9VGOWXUFX", "current_trial": 74, "dateTime": 1513485423084, "trialdata": {"rt": -1000, "stimulus": "/static/audio/400Hz.wav", "key_press": -1, "type": "PRE_RECALL_ALERT", "trial_type": "single-audio", "trial_index": 74, "time_elapsed": 336282, "internal_node_id": "0.0-56.0"}}, {"uniqueid": "MTK1269:3QY5DC2MXSRBTUCIANW9O9VGOWXUFX", "current_trial": 75, "dateTime": 1513485483096, "trialdata": {"rt": [1817, 5506, 6866, 8907, 11210, 15626, 18850, 23498, 28115], "recwords": ["lace", "knapsack", "drill", "church", "mildew", "banquet", "ladge", "lodge", "marsh"], "type": "FREE_RECALL", "conditions": [18, 1200, "a", 18000], "trial": 1, "trial_type": "free-recall", "trial_index": 75, "time_elapsed": 396287, "internal_node_id": "0.0-57.0-0.0"}}, {"uniqueid": "MTK1269:3QY5DC2MXSRBTUCIANW9O9VGOWXUFX", "current_trial": 76, "dateTime": 1513485510526, "trialdata": {"rt": 25426, "key_press": 32, "type": "INSTRUCTIONS", "trial_type": "text", "trial_index": 76, "time_elapsed": 423720, "internal_node_id": "0.0-58.0"}}, {"uniqueid": "MTK1269:3QY5DC2MXSRBTUCIANW9O9VGOWXUFX", "current_trial": 77, "dateTime": 1513485523537, "trialdata": {"rt": [2489, 5361, 8313, 10961], "responses": ["19", "14", "15", "17"], "num1": [9, 5, 9, 7, 7], "num2": [1, 3, 3, 7, 1], "num3": [9, 6, 3, 3, 2], "type": "DISTRACTOR", "conditions": [12, 800, "a", 12000], "trial": 2, "trial_type": "math-distractor", "trial_index": 77, "time_elapsed": 436735, "internal_node_id": "0.0-59.0"}}, {"uniqueid": "MTK1269:3QY5DC2MXSRBTUCIANW9O9VGOWXUFX", "current_trial": 78, "dateTime": 1513485526537, "trialdata": {"rt": -1, "stimulus": "<p id=\"stim\">10</p>", "key_press": -1, "trial_type": "single-stim", "trial_index": 78, "time_elapsed": 439735, "internal_node_id": "0.0-60.0-0.0"}}, {"uniqueid": "MTK1269:3QY5DC2MXSRBTUCIANW9O9VGOWXUFX", "current_trial": 79, "dateTime": 1513485527537, "trialdata": {"rt": -1, "stimulus": "<p id=\"stim\">9</p>", "key_press": -1, "trial_type": "single-stim", "trial_index": 79, "time_elapsed": 440735, "internal_node_id": "0.0-60.0-1.0"}}, {"uniqueid": "MTK1269:3QY5DC2MXSRBTUCIANW9O9VGOWXUFX", "current_trial": 80, "dateTime": 1513485528537, "trialdata": {"rt": -1, "stimulus": "<p id=\"stim\">8</p>", "key_press": -1, "trial_type": "single-stim", "trial_index": 80, "time_elapsed": 441735, "internal_node_id": "0.0-60.0-2.0"}}, {"uniqueid": "MTK1269:3QY5DC2MXSRBTUCIANW9O9VGOWXUFX", "current_trial": 81, "dateTime": 1513485529537, "trialdata": {"rt": -1, "stimulus": "<p id=\"stim\">7</p>", "key_press": -1, "trial_type": "single-stim", "trial_index": 81, "time_elapsed": 442735, "internal_node_id": "0.0-60.0-3.0"}}, {"uniqueid": "MTK1269:3QY5DC2MXSRBTUCIANW9O9VGOWXUFX", "current_trial": 82, "dateTime": 1513485530538, "trialdata": {"rt": -1, "stimulus": "<p id=\"stim\">6</p>", "key_press": -1, "trial_type": "single-stim", "trial_index": 82, "time_elapsed": 443736, "internal_node_id": "0.0-60.0-4.0"}}, {"uniqueid": "MTK1269:3QY5DC2MXSRBTUCIANW9O9VGOWXUFX", "current_trial": 83, "dateTime": 1513485531539, "trialdata": {"rt": -1, "stimulus": "<p id=\"stim\">5</p>", "key_press": -1, "trial_type": "single-stim", "trial_index": 83, "time_elapsed": 444737, "internal_node_id": "0.0-60.0-5.0"}}, {"uniqueid": "MTK1269:3QY5DC2MXSRBTUCIANW9O9VGOWXUFX", "current_trial": 84, "dateTime": 1513485532541, "trialdata": {"rt": -1, "stimulus": "<p id=\"stim\">4</p>", "key_press": -1, "trial_type": "single-stim", "trial_index": 84, "time_elapsed": 445739, "internal_node_id": "0.0-60.0-6.0"}}, {"uniqueid": "MTK1269:3QY5DC2MXSRBTUCIANW9O9VGOWXUFX", "current_trial": 85, "dateTime": 1513485533541, "trialdata": {"rt": -1, "stimulus": "<p id=\"stim\">3</p>", "key_press": -1, "trial_type": "single-stim", "trial_index": 85, "time_elapsed": 446739, "internal_node_id": "0.0-60.0-7.0"}}, {"uniqueid": "MTK1269:3QY5DC2MXSRBTUCIANW9O9VGOWXUFX", "current_trial": 86, "dateTime": 1513485534541, "trialdata": {"rt": -1, "stimulus": "<p id=\"stim\">2</p>", "key_press": -1, "trial_type": "single-stim", "trial_index": 86, "time_elapsed": 447739, "internal_node_id": "0.0-60.0-8.0"}}, {"uniqueid": "MTK1269:3QY5DC2MXSRBTUCIANW9O9VGOWXUFX", "current_trial": 87, "dateTime": 1513485535541, "trialdata": {"rt": -1, "stimulus": "<p id=\"stim\">1</p>", "key_press": -1, "trial_type": "single-stim", "trial_index": 87, "time_elapsed": 448739, "internal_node_id": "0.0-60.0-9.0"}}, {"uniqueid": "MTK1269:3QY5DC2MXSRBTUCIANW9O9VGOWXUFX", "current_trial": 88, "dateTime": 1513485537042, "trialdata": {"rt": -1, "stimulus": "<p id=\"stim\">+</p>", "key_press": -1, "type": "FIXATION", "trial_type": "single-stim", "trial_index": 88, "time_elapsed": 450240, "internal_node_id": "0.0-61.0-0.0"}}, {"uniqueid": "MTK1269:3QY5DC2MXSRBTUCIANW9O9VGOWXUFX", "current_trial": 89, "dateTime": 1513485538843, "trialdata": {"rt": -1000, "stimulus": "/static/audio/wordpool/PRINCESS.wav", "key_press": -1, "type": "PRES_AUD", "word": "princess", "wordID": 1124, "conditions": [12, 800, "a", 12000], "trial": 2, "serialpos": 0, "trial_type": "single-audio", "trial_index": 89, "time_elapsed": 452041, "internal_node_id": "0.0-62.0"}}, {"uniqueid": "MTK1269:3QY5DC2MXSRBTUCIANW9O9VGOWXUFX", "current_trial": 90, "dateTime": 1513485540570, "trialdata": {"rt": -1000, "stimulus": "/static/audio/wordpool/GIRL.wav", "key_press": -1, "type": "PRES_AUD", "word": "girl", "wordID": 636, "conditions": [12, 800, "a", 12000], "trial": 2, "serialpos": 1, "trial_type": "single-audio", "trial_index": 90, "time_elapsed": 453768, "internal_node_id": "0.0-63.0"}}, {"uniqueid": "MTK1269:3QY5DC2MXSRBTUCIANW9O9VGOWXUFX", "current_trial": 91, "dateTime": 1513485542512, "trialdata": {"rt": -1000, "stimulus": "/static/audio/wordpool/SUITCASE.wav", "key_press": -1, "type": "PRES_AUD", "word": "suitcase", "wordID": 1402, "conditions": [12, 800, "a", 12000], "trial": 2, "serialpos": 2, "trial_type": "single-audio", "trial_index": 91, "time_elapsed": 455709, "internal_node_id": "0.0-64.0"}}, {"uniqueid": "MTK1269:3QY5DC2MXSRBTUCIANW9O9VGOWXUFX", "current_trial": 92, "dateTime": 1513485544319, "trialdata": {"rt": -1000, "stimulus": "/static/audio/wordpool/CABBAGE.wav", "key_press": -1, "type": "PRES_AUD", "word": "cabbage", "wordID": 209, "conditions": [12, 800, "a", 12000], "trial": 2, "serialpos": 3, "trial_type": "single-audio", "trial_index": 92, "time_elapsed": 457517, "internal_node_id": "0.0-65.0"}}, {"uniqueid": "MTK1269:3QY5DC2MXSRBTUCIANW9O9VGOWXUFX", "current_trial": 93, "dateTime": 1513485546252, "trialdata": {"rt": -1000, "stimulus": "/static/audio/wordpool/MARKER.wav", "key_press": -1, "type": "PRES_AUD", "word": "marker", "wordID": 869, "conditions": [12, 800, "a", 12000], "trial": 2, "serialpos": 4, "trial_type": "single-audio", "trial_index": 93, "time_elapsed": 459450, "internal_node_id": "0.0-66.0"}}, {"uniqueid": "MTK1269:3QY5DC2MXSRBTUCIANW9O9VGOWXUFX", "current_trial": 94, "dateTime": 1513485548134, "trialdata": {"rt": -1000, "stimulus": "/static/audio/wordpool/BUNNY.wav", "key_press": -1, "type": "PRES_AUD", "word": "bunny", "wordID": 197, "conditions": [12, 800, "a", 12000], "trial": 2, "serialpos": 5, "trial_type": "single-audio", "trial_index": 94, "time_elapsed": 461331, "internal_node_id": "0.0-67.0"}}, {"uniqueid": "MTK1269:3QY5DC2MXSRBTUCIANW9O9VGOWXUFX", "current_trial": 95, "dateTime": 1513485549962, "trialdata": {"rt": -1000, "stimulus": "/static/audio/wordpool/COCKTAIL.wav", "key_press": -1, "type": "PRES_AUD", "word": "cocktail", "wordID": 337, "conditions": [12, 800, "a", 12000], "trial": 2, "serialpos": 6, "trial_type": "single-audio", "trial_index": 95, "time_elapsed": 463160, "internal_node_id": "0.0-68.0"}}, {"uniqueid": "MTK1269:3QY5DC2MXSRBTUCIANW9O9VGOWXUFX", "current_trial": 96, "dateTime": 1513485551710, "trialdata": {"rt": -1000, "stimulus": "/static/audio/wordpool/RADISH.wav", "key_press": -1, "type": "PRES_AUD", "word": "radish", "wordID": 1157, "conditions": [12, 800, "a", 12000], "trial": 2, "serialpos": 7, "trial_type": "single-audio", "trial_index": 96, "time_elapsed": 464908, "internal_node_id": "0.0-69.0"}}, {"uniqueid": "MTK1269:3QY5DC2MXSRBTUCIANW9O9VGOWXUFX", "current_trial": 97, "dateTime": 1513485553697, "trialdata": {"rt": -1000, "stimulus": "/static/audio/wordpool/FLASK.wav", "key_press": -1, "type": "PRES_AUD", "word": "flask", "wordID": 575, "conditions": [12, 800, "a", 12000], "trial": 2, "serialpos": 8, "trial_type": "single-audio", "trial_index": 97, "time_elapsed": 466895, "internal_node_id": "0.0-70.0"}}, {"uniqueid": "MTK1269:3QY5DC2MXSRBTUCIANW9O9VGOWXUFX", "current_trial": 98, "dateTime": 1513485555455, "trialdata": {"rt": -1000, "stimulus": "/static/audio/wordpool/FIREMAN.wav", "key_press": -1, "type": "PRES_AUD", "word": "fireman", "wordID": 568, "conditions": [12, 800, "a", 12000], "trial": 2, "serialpos": 9, "trial_type": "single-audio", "trial_index": 98, "time_elapsed": 468653, "internal_node_id": "0.0-71.0"}}, {"uniqueid": "MTK1269:3QY5DC2MXSRBTUCIANW9O9VGOWXUFX", "current_trial": 99, "dateTime": 1513485557417, "trialdata": {"rt": -1000, "stimulus": "/static/audio/wordpool/BADGE.wav", "key_press": -1, "type": "PRES_AUD", "word": "badge", "wordID": 67, "conditions": [12, 800, "a", 12000], "trial": 2, "serialpos": 10, "trial_type": "single-audio", "trial_index": 99, "time_elapsed": 470615, "internal_node_id": "0.0-72.0"}}, {"uniqueid": "MTK1269:3QY5DC2MXSRBTUCIANW9O9VGOWXUFX", "current_trial": 100, "dateTime": 1513485559416, "trialdata": {"rt": -1000, "stimulus": "/static/audio/wordpool/PERMIT.wav", "key_press": -1, "type": "PRES_AUD", "word": "permit", "wordID": 1050, "conditions": [12, 800, "a", 12000], "trial": 2, "serialpos": 11, "trial_type": "single-audio", "trial_index": 100, "time_elapsed": 472613, "internal_node_id": "0.0-73.0"}}, {"uniqueid": "MTK1269:3QY5DC2MXSRBTUCIANW9O9VGOWXUFX", "current_trial": 101, "dateTime": 1513485560620, "trialdata": {"rt": -1, "stimulus": "", "key_press": -1, "type": "PRE_RECALL_DELAY", "trial_type": "single-stim", "trial_index": 101, "time_elapsed": 473818, "internal_node_id": "0.0-74.0-0.0"}}, {"uniqueid": "MTK1269:3QY5DC2MXSRBTUCIANW9O9VGOWXUFX", "current_trial": 102, "dateTime": 1513485561122, "trialdata": {"rt": -1000, "stimulus": "/static/audio/400Hz.wav", "key_press": -1, "type": "PRE_RECALL_ALERT", "trial_type": "single-audio", "trial_index": 102, "time_elapsed": 474320, "internal_node_id": "0.0-75.0"}}, {"uniqueid": "MTK1269:3QY5DC2MXSRBTUCIANW9O9VGOWXUFX", "current_trial": 103, "dateTime": 1513485621126, "trialdata": {"rt": [4800, 7520, 10368, 12817, 15129, 16896, 19329, 20729, 25513, 31457, 42249, 46842, 55994], "recwords": ["badge", "cocktail", "radish", "hermit", "cabin", "marker", "princess", "girl", "bunny", "glasses", "suitcase", "fire", ""], "type": "FREE_RECALL", "conditions": [12, 800, "a", 12000], "trial": 2, "trial_type": "free-recall", "trial_index": 103, "time_elapsed": 534322, "internal_node_id": "0.0-76.0-0.0"}}, {"uniqueid": "MTK1269:3QY5DC2MXSRBTUCIANW9O9VGOWXUFX", "current_trial": 104, "dateTime": 1513485626393, "trialdata": {"rt": 3266, "key_press": 32, "type": "INSTRUCTIONS", "trial_type": "text", "trial_index": 104, "time_elapsed": 539591, "internal_node_id": "0.0-77.0"}}, {"uniqueid": "MTK1269:3QY5DC2MXSRBTUCIANW9O9VGOWXUFX", "current_trial": 105, "dateTime": 1513485640395, "trialdata": {"rt": [2132, 5684, 7996, 10068], "responses": ["10", "18", "16", "18"], "num1": [1, 8, 6, 8, 9], "num2": [8, 4, 4, 2, 2], "num3": [1, 6, 6, 8, 3], "type": "DISTRACTOR", "conditions": [24, 1600, "a", 12000], "trial": 3, "trial_type": "math-distractor", "trial_index": 105, "time_elapsed": 553593, "internal_node_id": "0.0-78.0"}}, {"uniqueid": "MTK1269:3QY5DC2MXSRBTUCIANW9O9VGOWXUFX", "current_trial": 106, "dateTime": 1513485643395, "trialdata": {"rt": -1, "stimulus": "<p id=\"stim\">10</p>", "key_press": -1, "trial_type": "single-stim", "trial_index": 106, "time_elapsed": 556593, "internal_node_id": "0.0-79.0-0.0"}}, {"uniqueid": "MTK1269:3QY5DC2MXSRBTUCIANW9O9VGOWXUFX", "current_trial": 107, "dateTime": 1513485644395, "trialdata": {"rt": -1, "stimulus": "<p id=\"stim\">9</p>", "key_press": -1, "trial_type": "single-stim", "trial_index": 107, "time_elapsed": 557593, "internal_node_id": "0.0-79.0-1.0"}}, {"uniqueid": "MTK1269:3QY5DC2MXSRBTUCIANW9O9VGOWXUFX", "current_trial": 108, "dateTime": 1513485645395, "trialdata": {"rt": -1, "stimulus": "<p id=\"stim\">8</p>", "key_press": -1, "trial_type": "single-stim", "trial_index": 108, "time_elapsed": 558593, "internal_node_id": "0.0-79.0-2.0"}}, {"uniqueid": "MTK1269:3QY5DC2MXSRBTUCIANW9O9VGOWXUFX", "current_trial": 109, "dateTime": 1513485646395, "trialdata": {"rt": -1, "stimulus": "<p id=\"stim\">7</p>", "key_press": -1, "trial_type": "single-stim", "trial_index": 109, "time_elapsed": 559593, "internal_node_id": "0.0-79.0-3.0"}}, {"uniqueid": "MTK1269:3QY5DC2MXSRBTUCIANW9O9VGOWXUFX", "current_trial": 110, "dateTime": 1513485647395, "trialdata": {"rt": -1, "stimulus": "<p id=\"stim\">6</p>", "key_press": -1, "trial_type": "single-stim", "trial_index": 110, "time_elapsed": 560593, "internal_node_id": "0.0-79.0-4.0"}}, {"uniqueid": "MTK1269:3QY5DC2MXSRBTUCIANW9O9VGOWXUFX", "current_trial": 111, "dateTime": 1513485648395, "trialdata": {"rt": -1, "stimulus": "<p id=\"stim\">5</p>", "key_press": -1, "trial_type": "single-stim", "trial_index": 111, "time_elapsed": 561593, "internal_node_id": "0.0-79.0-5.0"}}, {"uniqueid": "MTK1269:3QY5DC2MXSRBTUCIANW9O9VGOWXUFX", "current_trial": 112, "dateTime": 1513485649395, "trialdata": {"rt": -1, "stimulus": "<p id=\"stim\">4</p>", "key_press": -1, "trial_type": "single-stim", "trial_index": 112, "time_elapsed": 562593, "internal_node_id": "0.0-79.0-6.0"}}, {"uniqueid": "MTK1269:3QY5DC2MXSRBTUCIANW9O9VGOWXUFX", "current_trial": 113, "dateTime": 1513485650395, "trialdata": {"rt": -1, "stimulus": "<p id=\"stim\">3</p>", "key_press": -1, "trial_type": "single-stim", "trial_index": 113, "time_elapsed": 563593, "internal_node_id": "0.0-79.0-7.0"}}, {"uniqueid": "MTK1269:3QY5DC2MXSRBTUCIANW9O9VGOWXUFX", "current_trial": 114, "dateTime": 1513485651395, "trialdata": {"rt": -1, "stimulus": "<p id=\"stim\">2</p>", "key_press": -1, "trial_type": "single-stim", "trial_index": 114, "time_elapsed": 564593, "internal_node_id": "0.0-79.0-8.0"}}, {"uniqueid": "MTK1269:3QY5DC2MXSRBTUCIANW9O9VGOWXUFX", "current_trial": 115, "dateTime": 1513485652395, "trialdata": {"rt": -1, "stimulus": "<p id=\"stim\">1</p>", "key_press": -1, "trial_type": "single-stim", "trial_index": 115, "time_elapsed": 565593, "internal_node_id": "0.0-79.0-9.0"}}, {"uniqueid": "MTK1269:3QY5DC2MXSRBTUCIANW9O9VGOWXUFX", "current_trial": 116, "dateTime": 1513485653895, "trialdata": {"rt": -1, "stimulus": "<p id=\"stim\">+</p>", "key_press": -1, "type": "FIXATION", "trial_type": "single-stim", "trial_index": 116, "time_elapsed": 567093, "internal_node_id": "0.0-80.0-0.0"}}, {"uniqueid": "MTK1269:3QY5DC2MXSRBTUCIANW9O9VGOWXUFX", "current_trial": 117, "dateTime": 1513485656461, "trialdata": {"rt": -1000, "stimulus": "/static/audio/wordpool/ORANGE.wav", "key_press": -1, "type": "PRES_AUD", "word": "orange", "wordID": 979, "conditions": [24, 1600, "a", 12000], "trial": 3, "serialpos": 0, "trial_type": "single-audio", "trial_index": 117, "time_elapsed": 569659, "internal_node_id": "0.0-81.0"}}, {"uniqueid": "MTK1269:3QY5DC2MXSRBTUCIANW9O9VGOWXUFX", "current_trial": 118, "dateTime": 1513485659028, "trialdata": {"rt": -1000, "stimulus": "/static/audio/wordpool/GLOBE.wav", "key_press": -1, "type": "PRES_AUD", "word": "globe", "wordID": 640, "conditions": [24, 1600, "a", 12000], "trial": 3, "serialpos": 1, "trial_type": "single-audio", "trial_index": 118, "time_elapsed": 572226, "internal_node_id": "0.0-82.0"}}, {"uniqueid": "MTK1269:3QY5DC2MXSRBTUCIANW9O9VGOWXUFX", "current_trial": 119, "dateTime": 1513485661767, "trialdata": {"rt": -1000, "stimulus": "/static/audio/wordpool/WORLD.wav", "key_press": -1, "type": "PRES_AUD", "word": "world", "wordID": 1621, "conditions": [24, 1600, "a", 12000], "trial": 3, "serialpos": 2, "trial_type": "single-audio", "trial_index": 119, "time_elapsed": 574965, "internal_node_id": "0.0-83.0"}}, {"uniqueid": "MTK1269:3QY5DC2MXSRBTUCIANW9O9VGOWXUFX", "current_trial": 120, "dateTime": 1513485664240, "trialdata": {"rt": -1000, "stimulus": "/static/audio/wordpool/PUDDLE.wav", "key_press": -1, "type": "PRES_AUD", "word": "puddle", "wordID": 1139, "conditions": [24, 1600, "a", 12000], "trial": 3, "serialpos": 3, "trial_type": "single-audio", "trial_index": 120, "time_elapsed": 577437, "internal_node_id": "0.0-84.0"}}, {"uniqueid": "MTK1269:3QY5DC2MXSRBTUCIANW9O9VGOWXUFX", "current_trial": 121, "dateTime": 1513485666711, "trialdata": {"rt": -1000, "stimulus": "/static/audio/wordpool/BEEF.wav", "key_press": -1, "type": "PRES_AUD", "word": "beef", "wordID": 112, "conditions": [24, 1600, "a", 12000], "trial": 3, "serialpos": 4, "trial_type": "single-audio", "trial_index": 121, "time_elapsed": 579909, "internal_node_id": "0.0-85.0"}}, {"uniqueid": "MTK1269:3QY5DC2MXSRBTUCIANW9O9VGOWXUFX", "current_trial": 122, "dateTime": 1513485669506, "trialdata": {"rt": -1000, "stimulus": "/static/audio/wordpool/DIME.wav", "key_press": -1, "type": "PRES_AUD", "word": "dime", "wordID": 465, "conditions": [24, 1600, "a", 12000], "trial": 3, "serialpos": 5, "trial_type": "single-audio", "trial_index": 122, "time_elapsed": 582704, "internal_node_id": "0.0-86.0"}}, {"uniqueid": "MTK1269:3QY5DC2MXSRBTUCIANW9O9VGOWXUFX", "current_trial": 123, "dateTime": 1513485671948, "trialdata": {"rt": -1000, "stimulus": "/static/audio/wordpool/BUG.wav", "key_press": -1, "type": "PRES_AUD", "word": "bug", "wordID": 186, "conditions": [24, 1600, "a", 12000], "trial": 3, "serialpos": 6, "trial_type": "single-audio", "trial_index": 123, "time_elapsed": 585146, "internal_node_id": "0.0-87.0"}}, {"uniqueid": "MTK1269:3QY5DC2MXSRBTUCIANW9O9VGOWXUFX", "current_trial": 124, "dateTime": 1513485674620, "trialdata": {"rt": -1000, "stimulus": "/static/audio/wordpool/DONKEY.wav", "key_press": -1, "type": "PRES_AUD", "word": "donkey", "wordID": 483, "conditions": [24, 1600, "a", 12000], "trial": 3, "serialpos": 7, "trial_type": "single-audio", "trial_index": 124, "time_elapsed": 587817, "internal_node_id": "0.0-88.0"}}, {"uniqueid": "MTK1269:3QY5DC2MXSRBTUCIANW9O9VGOWXUFX", "current_trial": 125, "dateTime": 1513485677371, "trialdata": {"rt": -1000, "stimulus": "/static/audio/wordpool/APPLE.wav", "key_press": -1, "type": "PRES_AUD", "word": "apple", "wordID": 32, "conditions": [24, 1600, "a", 12000], "trial": 3, "serialpos": 8, "trial_type": "single-audio", "trial_index": 125, "time_elapsed": 590568, "internal_node_id": "0.0-89.0"}}, {"uniqueid": "MTK1269:3QY5DC2MXSRBTUCIANW9O9VGOWXUFX", "current_trial": 126, "dateTime": 1513485680111, "trialdata": {"rt": -1000, "stimulus": "/static/audio/wordpool/OYSTER.wav", "key_press": -1, "type": "PRES_AUD", "word": "oyster", "wordID": 994, "conditions": [24, 1600, "a", 12000], "trial": 3, "serialpos": 9, "trial_type": "single-audio", "trial_index": 126, "time_elapsed": 593309, "internal_node_id": "0.0-90.0"}}, {"uniqueid": "MTK1269:3QY5DC2MXSRBTUCIANW9O9VGOWXUFX", "current_trial": 127, "dateTime": 1513485682706, "trialdata": {"rt": -1000, "stimulus": "/static/audio/wordpool/CHAPEL.wav", "key_press": -1, "type": "PRES_AUD", "word": "chapel", "wordID": 279, "conditions": [24, 1600, "a", 12000], "trial": 3, "serialpos": 10, "trial_type": "single-audio", "trial_index": 127, "time_elapsed": 595904, "internal_node_id": "0.0-91.0"}}, {"uniqueid": "MTK1269:3QY5DC2MXSRBTUCIANW9O9VGOWXUFX", "current_trial": 128, "dateTime": 1513485685379, "trialdata": {"rt": -1000, "stimulus": "/static/audio/wordpool/CATTLE.wav", "key_press": -1, "type": "PRES_AUD", "word": "cattle", "wordID": 260, "conditions": [24, 1600, "a", 12000], "trial": 3, "serialpos": 11, "trial_type": "single-audio", "trial_index": 128, "time_elapsed": 598576, "internal_node_id": "0.0-92.0"}}, {"uniqueid": "MTK1269:3QY5DC2MXSRBTUCIANW9O9VGOWXUFX", "current_trial": 129, "dateTime": 1513485688061, "trialdata": {"rt": -1000, "stimulus": "/static/audio/wordpool/FRECKLE.wav", "key_press": -1, "type": "PRES_AUD", "word": "freckle", "wordID": 601, "conditions": [24, 1600, "a", 12000], "trial": 3, "serialpos": 12, "trial_type": "single-audio", "trial_index": 129, "time_elapsed": 601258, "internal_node_id": "0.0-93.0"}}, {"uniqueid": "MTK1269:3QY5DC2MXSRBTUCIANW9O9VGOWXUFX", "current_trial": 130, "dateTime": 1513485690494, "trialdata": {"rt": -1000, "stimulus": "/static/audio/wordpool/LILY.wav", "key_press": -1, "type": "PRES_AUD", "word": "lily", "wordID": 820, "conditions": [24, 1600, "a", 12000], "trial": 3, "serialpos": 13, "trial_type": "single-audio", "trial_index": 130, "time_elapsed": 603691, "internal_node_id": "0.0-94.0"}}, {"uniqueid": "MTK1269:3QY5DC2MXSRBTUCIANW9O9VGOWXUFX", "current_trial": 131, "dateTime": 1513485693206, "trialdata": {"rt": -1000, "stimulus": "/static/audio/wordpool/LAVA.wav", "key_press": -1, "type": "PRES_AUD", "word": "lava", "wordID": 803, "conditions": [24, 1600, "a", 12000], "trial": 3, "serialpos": 14, "trial_type": "single-audio", "trial_index": 131, "time_elapsed": 606403, "internal_node_id": "0.0-95.0"}}, {"uniqueid": "MTK1269:3QY5DC2MXSRBTUCIANW9O9VGOWXUFX", "current_trial": 132, "dateTime": 1513485695703, "trialdata": {"rt": -1000, "stimulus": "/static/audio/wordpool/CRATER.wav", "key_press": -1, "type": "PRES_AUD", "word": "crater", "wordID": 399, "conditions": [24, 1600, "a", 12000], "trial": 3, "serialpos": 15, "trial_type": "single-audio", "trial_index": 132, "time_elapsed": 608901, "internal_node_id": "0.0-96.0"}}, {"uniqueid": "MTK1269:3QY5DC2MXSRBTUCIANW9O9VGOWXUFX", "current_trial": 133, "dateTime": 1513485698313, "trialdata": {"rt": -1000, "stimulus": "/static/audio/wordpool/MASK.wav", "key_press": -1, "type": "PRES_AUD", "word": "mask", "wordID": 875, "conditions": [24, 1600, "a", 12000], "trial": 3, "serialpos": 16, "trial_type": "single-audio", "trial_index": 133, "time_elapsed": 611510, "internal_node_id": "0.0-97.0"}}, {"uniqueid": "MTK1269:3QY5DC2MXSRBTUCIANW9O9VGOWXUFX", "current_trial": 134, "dateTime": 1513485700924, "trialdata": {"rt": -1000, "stimulus": "/static/audio/wordpool/PARSLEY.wav", "key_press": -1, "type": "PRES_AUD", "word": "parsley", "wordID": 1015, "conditions": [24, 1600, "a", 12000], "trial": 3, "serialpos": 17, "trial_type": "single-audio", "trial_index": 134, "time_elapsed": 614121, "internal_node_id": "0.0-98.0"}}, {"uniqueid": "MTK1269:3QY5DC2MXSRBTUCIANW9O9VGOWXUFX", "current_trial": 135, "dateTime": 1513485703588, "trialdata": {"rt": -1000, "stimulus": "/static/audio/wordpool/ZIPPER.wav", "key_press": -1, "type": "PRES_AUD", "word": "zipper", "wordID": 1635, "conditions": [24, 1600, "a", 12000], "trial": 3, "serialpos": 18, "trial_type": "single-audio", "trial_index": 135, "time_elapsed": 616786, "internal_node_id": "0.0-99.0"}}, {"uniqueid": "MTK1269:3QY5DC2MXSRBTUCIANW9O9VGOWXUFX", "current_trial": 136, "dateTime": 1513485706350, "trialdata": {"rt": -1000, "stimulus": "/static/audio/wordpool/MARINE.wav", "key_press": -1, "type": "PRES_AUD", "word": "marine", "wordID": 868, "conditions": [24, 1600, "a", 12000], "trial": 3, "serialpos": 19, "trial_type": "single-audio", "trial_index": 136, "time_elapsed": 619548, "internal_node_id": "0.0-100.0"}}, {"uniqueid": "MTK1269:3QY5DC2MXSRBTUCIANW9O9VGOWXUFX", "current_trial": 137, "dateTime": 1513485708802, "trialdata": {"rt": -1000, "stimulus": "/static/audio/wordpool/STUDENT.wav", "key_press": -1, "type": "PRES_AUD", "word": "student", "wordID": 1394, "conditions": [24, 1600, "a", 12000], "trial": 3, "serialpos": 20, "trial_type": "single-audio", "trial_index": 137, "time_elapsed": 622000, "internal_node_id": "0.0-101.0"}}, {"uniqueid": "MTK1269:3QY5DC2MXSRBTUCIANW9O9VGOWXUFX", "current_trial": 138, "dateTime": 1513485711239, "trialdata": {"rt": -1000, "stimulus": "/static/audio/wordpool/DAISY.wav", "key_press": -1, "type": "PRES_AUD", "word": "daisy", "wordID": 434, "conditions": [24, 1600, "a", 12000], "trial": 3, "serialpos": 21, "trial_type": "single-audio", "trial_index": 138, "time_elapsed": 624437, "internal_node_id": "0.0-102.0"}}, {"uniqueid": "MTK1269:3QY5DC2MXSRBTUCIANW9O9VGOWXUFX", "current_trial": 139, "dateTime": 1513485713934, "trialdata": {"rt": -1000, "stimulus": "/static/audio/wordpool/JUNGLE.wav", "key_press": -1, "type": "PRES_AUD", "word": "jungle", "wordID": 763, "conditions": [24, 1600, "a", 12000], "trial": 3, "serialpos": 22, "trial_type": "single-audio", "trial_index": 139, "time_elapsed": 627132, "internal_node_id": "0.0-103.0"}}, {"uniqueid": "MTK1269:3QY5DC2MXSRBTUCIANW9O9VGOWXUFX", "current_trial": 140, "dateTime": 1513485716452, "trialdata": {"rt": -1000, "stimulus": "/static/audio/wordpool/ISLAND.wav", "key_press": -1, "type": "PRES_AUD", "word": "island", "wordID": 744, "conditions": [24, 1600, "a", 12000], "trial": 3, "serialpos": 23, "trial_type": "single-audio", "trial_index": 140, "time_elapsed": 629650, "internal_node_id": "0.0-104.0"}}, {"uniqueid": "MTK1269:3QY5DC2MXSRBTUCIANW9O9VGOWXUFX", "current_trial": 141, "dateTime": 1513485717768, "trialdata": {"rt": -1, "stimulus": "", "key_press": -1, "type": "PRE_RECALL_DELAY", "trial_type": "single-stim", "trial_index": 141, "time_elapsed": 630966, "internal_node_id": "0.0-105.0-0.0"}}, {"uniqueid": "MTK1269:3QY5DC2MXSRBTUCIANW9O9VGOWXUFX", "current_trial": 142, "dateTime": 1513485718270, "trialdata": {"rt": -1000, "stimulus": "/static/audio/400Hz.wav", "key_press": -1, "type": "PRE_RECALL_ALERT", "trial_type": "single-audio", "trial_index": 142, "time_elapsed": 631468, "internal_node_id": "0.0-106.0"}}, {"uniqueid": "MTK1269:3QY5DC2MXSRBTUCIANW9O9VGOWXUFX", "current_trial": 143, "dateTime": 1513485778274, "trialdata": {"rt": [2979, 6442, 13004, 15810, 17810, 20803, 24667, 26099, 31019, 37011, 45419, 49939, 54203, 59852], "recwords": ["lava", "freckle", "parsley", "island", "jungle", "student", "globe", "world", "beef", "cattle", "lewd", "church", "bubble", "love"], "type": "FREE_RECALL", "conditions": [24, 1600, "a", 12000], "trial": 3, "trial_type": "free-recall", "trial_index": 143, "time_elapsed": 691470, "internal_node_id": "0.0-107.0-0.0"}}, {"uniqueid": "MTK1269:3QY5DC2MXSRBTUCIANW9O9VGOWXUFX", "current_trial": 144, "dateTime": 1513485784612, "trialdata": {"rt": 4336, "key_press": 90, "type": "INSTRUCTIONS", "trial_type": "text", "trial_index": 144, "time_elapsed": 697809, "internal_node_id": "0.0-108.0"}}, {"uniqueid": "MTK1269:3QY5DC2MXSRBTUCIANW9O9VGOWXUFX", "current_trial": 145, "dateTime": 1513485798614, "trialdata": {"rt": [3638, 5998, 8950], "responses": ["16", "14", "7"], "num1": [9, 7, 4, 8], "num2": [5, 4, 2, 6], "num3": [2, 3, 1, 7], "type": "DISTRACTOR", "conditions": [24, 800, "a", 12000], "trial": 4, "trial_type": "math-distractor", "trial_index": 145, "time_elapsed": 711812, "internal_node_id": "0.0-109.0"}}, {"uniqueid": "MTK1269:3QY5DC2MXSRBTUCIANW9O9VGOWXUFX", "current_trial": 146, "dateTime": 1513485801614, "trialdata": {"rt": -1, "stimulus": "<p id=\"stim\">10</p>", "key_press": -1, "trial_type": "single-stim", "trial_index": 146, "time_elapsed": 714812, "internal_node_id": "0.0-110.0-0.0"}}, {"uniqueid": "MTK1269:3QY5DC2MXSRBTUCIANW9O9VGOWXUFX", "current_trial": 147, "dateTime": 1513485802614, "trialdata": {"rt": -1, "stimulus": "<p id=\"stim\">9</p>", "key_press": -1, "trial_type": "single-stim", "trial_index": 147, "time_elapsed": 715812, "internal_node_id": "0.0-110.0-1.0"}}, {"uniqueid": "MTK1269:3QY5DC2MXSRBTUCIANW9O9VGOWXUFX", "current_trial": 148, "dateTime": 1513485803614, "trialdata": {"rt": -1, "stimulus": "<p id=\"stim\">8</p>", "key_press": -1, "trial_type": "single-stim", "trial_index": 148, "time_elapsed": 716812, "internal_node_id": "0.0-110.0-2.0"}}, {"uniqueid": "MTK1269:3QY5DC2MXSRBTUCIANW9O9VGOWXUFX", "current_trial": 149, "dateTime": 1513485804614, "trialdata": {"rt": -1, "stimulus": "<p id=\"stim\">7</p>", "key_press": -1, "trial_type": "single-stim", "trial_index": 149, "time_elapsed": 717812, "internal_node_id": "0.0-110.0-3.0"}}, {"uniqueid": "MTK1269:3QY5DC2MXSRBTUCIANW9O9VGOWXUFX", "current_trial": 150, "dateTime": 1513485805615, "trialdata": {"rt": -1, "stimulus": "<p id=\"stim\">6</p>", "key_press": -1, "trial_type": "single-stim", "trial_index": 150, "time_elapsed": 718813, "internal_node_id": "0.0-110.0-4.0"}}, {"uniqueid": "MTK1269:3QY5DC2MXSRBTUCIANW9O9VGOWXUFX", "current_trial": 151, "dateTime": 1513485806615, "trialdata": {"rt": -1, "stimulus": "<p id=\"stim\">5</p>", "key_press": -1, "trial_type": "single-stim", "trial_index": 151, "time_elapsed": 719813, "internal_node_id": "0.0-110.0-5.0"}}, {"uniqueid": "MTK1269:3QY5DC2MXSRBTUCIANW9O9VGOWXUFX", "current_trial": 152, "dateTime": 1513485807616, "trialdata": {"rt": -1, "stimulus": "<p id=\"stim\">4</p>", "key_press": -1, "trial_type": "single-stim", "trial_index": 152, "time_elapsed": 720814, "internal_node_id": "0.0-110.0-6.0"}}, {"uniqueid": "MTK1269:3QY5DC2MXSRBTUCIANW9O9VGOWXUFX", "current_trial": 153, "dateTime": 1513485808616, "trialdata": {"rt": -1, "stimulus": "<p id=\"stim\">3</p>", "key_press": -1, "trial_type": "single-stim", "trial_index": 153, "time_elapsed": 721814, "internal_node_id": "0.0-110.0-7.0"}}, {"uniqueid": "MTK1269:3QY5DC2MXSRBTUCIANW9O9VGOWXUFX", "current_trial": 154, "dateTime": 1513485809616, "trialdata": {"rt": -1, "stimulus": "<p id=\"stim\">2</p>", "key_press": -1, "trial_type": "single-stim", "trial_index": 154, "time_elapsed": 722814, "internal_node_id": "0.0-110.0-8.0"}}, {"uniqueid": "MTK1269:3QY5DC2MXSRBTUCIANW9O9VGOWXUFX", "current_trial": 155, "dateTime": 1513485810617, "trialdata": {"rt": -1, "stimulus": "<p id=\"stim\">1</p>", "key_press": -1, "trial_type": "single-stim", "trial_index": 155, "time_elapsed": 723814, "internal_node_id": "0.0-110.0-9.0"}}, {"uniqueid": "MTK1269:3QY5DC2MXSRBTUCIANW9O9VGOWXUFX", "current_trial": 156, "dateTime": 1513485812117, "trialdata": {"rt": -1, "stimulus": "<p id=\"stim\">+</p>", "key_press": -1, "type": "FIXATION", "trial_type": "single-stim", "trial_index": 156, "time_elapsed": 725315, "internal_node_id": "0.0-111.0-0.0"}}, {"uniqueid": "MTK1269:3QY5DC2MXSRBTUCIANW9O9VGOWXUFX", "current_trial": 157, "dateTime": 1513485813844, "trialdata": {"rt": -1000, "stimulus": "/static/audio/wordpool/BLOCKADE.wav", "key_press": -1, "type": "PRES_AUD", "word": "blockade", "wordID": 136, "conditions": [24, 800, "a", 12000], "trial": 4, "serialpos": 0, "trial_type": "single-audio", "trial_index": 157, "time_elapsed": 727042, "internal_node_id": "0.0-112.0"}}, {"uniqueid": "MTK1269:3QY5DC2MXSRBTUCIANW9O9VGOWXUFX", "current_trial": 158, "dateTime": 1513485815714, "trialdata": {"rt": -1000, "stimulus": "/static/audio/wordpool/REPORT.wav", "key_press": -1, "type": "PRES_AUD", "word": "report", "wordID": 1183, "conditions": [24, 800, "a", 12000], "trial": 4, "serialpos": 1, "trial_type": "single-audio", "trial_index": 158, "time_elapsed": 728912, "internal_node_id": "0.0-113.0"}}, {"uniqueid": "MTK1269:3QY5DC2MXSRBTUCIANW9O9VGOWXUFX", "current_trial": 159, "dateTime": 1513485817363, "trialdata": {"rt": -1000, "stimulus": "/static/audio/wordpool/TABLET.wav", "key_press": -1, "type": "PRES_AUD", "word": "tablet", "wordID": 1426, "conditions": [24, 800, "a", 12000], "trial": 4, "serialpos": 2, "trial_type": "single-audio", "trial_index": 159, "time_elapsed": 730560, "internal_node_id": "0.0-114.0"}}, {"uniqueid": "MTK1269:3QY5DC2MXSRBTUCIANW9O9VGOWXUFX", "current_trial": 160, "dateTime": 1513485819226, "trialdata": {"rt": -1000, "stimulus": "/static/audio/wordpool/BUGGY.wav", "key_press": -1, "type": "PRES_AUD", "word": "buggy", "wordID": 187, "conditions": [24, 800, "a", 12000], "trial": 4, "serialpos": 3, "trial_type": "single-audio", "trial_index": 160, "time_elapsed": 732424, "internal_node_id": "0.0-115.0"}}, {"uniqueid": "MTK1269:3QY5DC2MXSRBTUCIANW9O9VGOWXUFX", "current_trial": 161, "dateTime": 1513485821031, "trialdata": {"rt": -1000, "stimulus": "/static/audio/wordpool/NOMAD.wav", "key_press": -1, "type": "PRES_AUD", "word": "nomad", "wordID": 954, "conditions": [24, 800, "a", 12000], "trial": 4, "serialpos": 4, "trial_type": "single-audio", "trial_index": 161, "time_elapsed": 734229, "internal_node_id": "0.0-116.0"}}, {"uniqueid": "MTK1269:3QY5DC2MXSRBTUCIANW9O9VGOWXUFX", "current_trial": 162, "dateTime": 1513485822698, "trialdata": {"rt": -1000, "stimulus": "/static/audio/wordpool/COFFEE.wav", "key_press": -1, "type": "PRES_AUD", "word": "coffee", "wordID": 340, "conditions": [24, 800, "a", 12000], "trial": 4, "serialpos": 5, "trial_type": "single-audio", "trial_index": 162, "time_elapsed": 735896, "internal_node_id": "0.0-117.0"}}, {"uniqueid": "MTK1269:3QY5DC2MXSRBTUCIANW9O9VGOWXUFX", "current_trial": 163, "dateTime": 1513485824540, "trialdata": {"rt": -1000, "stimulus": "/static/audio/wordpool/GAZELLE.wav", "key_press": -1, "type": "PRES_AUD", "word": "gazelle", "wordID": 627, "conditions": [24, 800, "a", 12000], "trial": 4, "serialpos": 6, "trial_type": "single-audio", "trial_index": 163, "time_elapsed": 737737, "internal_node_id": "0.0-118.0"}}, {"uniqueid": "MTK1269:3QY5DC2MXSRBTUCIANW9O9VGOWXUFX", "current_trial": 164, "dateTime": 1513485826287, "trialdata": {"rt": -1000, "stimulus": "/static/audio/wordpool/MARS.wav", "key_press": -1, "type": "PRES_AUD", "word": "mars", "wordID": 872, "conditions": [24, 800, "a", 12000], "trial": 4, "serialpos": 7, "trial_type": "single-audio", "trial_index": 164, "time_elapsed": 739485, "internal_node_id": "0.0-119.0"}}, {"uniqueid": "MTK1269:3QY5DC2MXSRBTUCIANW9O9VGOWXUFX", "current_trial": 165, "dateTime": 1513485827926, "trialdata": {"rt": -1000, "stimulus": "/static/audio/wordpool/COIN.wav", "key_press": -1, "type": "PRES_AUD", "word": "coin", "wordID": 342, "conditions": [24, 800, "a", 12000], "trial": 4, "serialpos": 8, "trial_type": "single-audio", "trial_index": 165, "time_elapsed": 741123, "internal_node_id": "0.0-120.0"}}, {"uniqueid": "MTK1269:3QY5DC2MXSRBTUCIANW9O9VGOWXUFX", "current_trial": 166, "dateTime": 1513485829549, "trialdata": {"rt": -1000, "stimulus": "/static/audio/wordpool/SURVEY.wav", "key_press": -1, "type": "PRES_AUD", "word": "survey", "wordID": 1413, "conditions": [24, 800, "a", 12000], "trial": 4, "serialpos": 9, "trial_type": "single-audio", "trial_index": 166, "time_elapsed": 742747, "internal_node_id": "0.0-121.0"}}, {"uniqueid": "MTK1269:3QY5DC2MXSRBTUCIANW9O9VGOWXUFX", "current_trial": 167, "dateTime": 1513485831415, "trialdata": {"rt": -1000, "stimulus": "/static/audio/wordpool/GALLON.wav", "key_press": -1, "type": "PRES_AUD", "word": "gallon", "wordID": 617, "conditions": [24, 800, "a", 12000], "trial": 4, "serialpos": 10, "trial_type": "single-audio", "trial_index": 167, "time_elapsed": 744613, "internal_node_id": "0.0-122.0"}}, {"uniqueid": "MTK1269:3QY5DC2MXSRBTUCIANW9O9VGOWXUFX", "current_trial": 168, "dateTime": 1513485833131, "trialdata": {"rt": -1000, "stimulus": "/static/audio/wordpool/BARREL.wav", "key_press": -1, "type": "PRES_AUD", "word": "barrel", "wordID": 90, "conditions": [24, 800, "a", 12000], "trial": 4, "serialpos": 11, "trial_type": "single-audio", "trial_index": 168, "time_elapsed": 746329, "internal_node_id": "0.0-123.0"}}, {"uniqueid": "MTK1269:3QY5DC2MXSRBTUCIANW9O9VGOWXUFX", "current_trial": 169, "dateTime": 1513485834905, "trialdata": {"rt": -1000, "stimulus": "/static/audio/wordpool/PECAN.wav", "key_press": -1, "type": "PRES_AUD", "word": "pecan", "wordID": 1035, "conditions": [24, 800, "a", 12000], "trial": 4, "serialpos": 12, "trial_type": "single-audio", "trial_index": 169, "time_elapsed": 748102, "internal_node_id": "0.0-124.0"}}, {"uniqueid": "MTK1269:3QY5DC2MXSRBTUCIANW9O9VGOWXUFX", "current_trial": 170, "dateTime": 1513485836599, "trialdata": {"rt": -1000, "stimulus": "/static/audio/wordpool/CURTAIN.wav", "key_press": -1, "type": "PRES_AUD", "word": "curtain", "wordID": 426, "conditions": [24, 800, "a", 12000], "trial": 4, "serialpos": 13, "trial_type": "single-audio", "trial_index": 170, "time_elapsed": 749796, "internal_node_id": "0.0-125.0"}}, {"uniqueid": "MTK1269:3QY5DC2MXSRBTUCIANW9O9VGOWXUFX", "current_trial": 171, "dateTime": 1513485838377, "trialdata": {"rt": -1000, "stimulus": "/static/audio/wordpool/SNAKE.wav", "key_press": -1, "type": "PRES_AUD", "word": "snake", "wordID": 1332, "conditions": [24, 800, "a", 12000], "trial": 4, "serialpos": 14, "trial_type": "single-audio", "trial_index": 171, "time_elapsed": 751575, "internal_node_id": "0.0-126.0"}}, {"uniqueid": "MTK1269:3QY5DC2MXSRBTUCIANW9O9VGOWXUFX", "current_trial": 172, "dateTime": 1513485840356, "trialdata": {"rt": -1000, "stimulus": "/static/audio/wordpool/SPIDER.wav", "key_press": -1, "type": "PRES_AUD", "word": "spider", "wordID": 1350, "conditions": [24, 800, "a", 12000], "trial": 4, "serialpos": 15, "trial_type": "single-audio", "trial_index": 172, "time_elapsed": 753553, "internal_node_id": "0.0-127.0"}}, {"uniqueid": "MTK1269:3QY5DC2MXSRBTUCIANW9O9VGOWXUFX", "current_trial": 173, "dateTime": 1513485842160, "trialdata": {"rt": -1000, "stimulus": "/static/audio/wordpool/CHAUFFEUR.wav", "key_press": -1, "type": "PRES_AUD", "word": "chauffeur", "wordID": 282, "conditions": [24, 800, "a", 12000], "trial": 4, "serialpos": 16, "trial_type": "single-audio", "trial_index": 173, "time_elapsed": 755358, "internal_node_id": "0.0-128.0"}}, {"uniqueid": "MTK1269:3QY5DC2MXSRBTUCIANW9O9VGOWXUFX", "current_trial": 174, "dateTime": 1513485843868, "trialdata": {"rt": -1000, "stimulus": "/static/audio/wordpool/ROCKET.wav", "key_press": -1, "type": "PRES_AUD", "word": "rocket", "wordID": 1201, "conditions": [24, 800, "a", 12000], "trial": 4, "serialpos": 17, "trial_type": "single-audio", "trial_index": 174, "time_elapsed": 757066, "internal_node_id": "0.0-129.0"}}, {"uniqueid": "MTK1269:3QY5DC2MXSRBTUCIANW9O9VGOWXUFX", "current_trial": 175, "dateTime": 1513485845553, "trialdata": {"rt": -1000, "stimulus": "/static/audio/wordpool/SMOG.wav", "key_press": -1, "type": "PRES_AUD", "word": "smog", "wordID": 1329, "conditions": [24, 800, "a", 12000], "trial": 4, "serialpos": 18, "trial_type": "single-audio", "trial_index": 175, "time_elapsed": 758750, "internal_node_id": "0.0-130.0"}}, {"uniqueid": "MTK1269:3QY5DC2MXSRBTUCIANW9O9VGOWXUFX", "current_trial": 176, "dateTime": 1513485847204, "trialdata": {"rt": -1000, "stimulus": "/static/audio/wordpool/PEANUT.wav", "key_press": -1, "type": "PRES_AUD", "word": "peanut", "wordID": 1031, "conditions": [24, 800, "a", 12000], "trial": 4, "serialpos": 19, "trial_type": "single-audio", "trial_index": 176, "time_elapsed": 760402, "internal_node_id": "0.0-131.0"}}, {"uniqueid": "MTK1269:3QY5DC2MXSRBTUCIANW9O9VGOWXUFX", "current_trial": 177, "dateTime": 1513485849127, "trialdata": {"rt": -1000, "stimulus": "/static/audio/wordpool/BOX.wav", "key_press": -1, "type": "PRES_AUD", "word": "box", "wordID": 158, "conditions": [24, 800, "a", 12000], "trial": 4, "serialpos": 20, "trial_type": "single-audio", "trial_index": 177, "time_elapsed": 762325, "internal_node_id": "0.0-132.0"}}, {"uniqueid": "MTK1269:3QY5DC2MXSRBTUCIANW9O9VGOWXUFX", "current_trial": 178, "dateTime": 1513485850904, "trialdata": {"rt": -1000, "stimulus": "/static/audio/wordpool/FREEZER.wav", "key_press": -1, "type": "PRES_AUD", "word": "freezer", "wordID": 603, "conditions": [24, 800, "a", 12000], "trial": 4, "serialpos": 21, "trial_type": "single-audio", "trial_index": 178, "time_elapsed": 764102, "internal_node_id": "0.0-133.0"}}, {"uniqueid": "MTK1269:3QY5DC2MXSRBTUCIANW9O9VGOWXUFX", "current_trial": 179, "dateTime": 1513485852701, "trialdata": {"rt": -1000, "stimulus": "/static/audio/wordpool/RELISH.wav", "key_press": -1, "type": "PRES_AUD", "word": "relish", "wordID": 1182, "conditions": [24, 800, "a", 12000], "trial": 4, "serialpos": 22, "trial_type": "single-audio", "trial_index": 179, "time_elapsed": 765896, "internal_node_id": "0.0-134.0"}}, {"uniqueid": "MTK1269:3QY5DC2MXSRBTUCIANW9O9VGOWXUFX", "current_trial": 180, "dateTime": 1513485854494, "trialdata": {"rt": -1000, "stimulus": "/static/audio/wordpool/PIZZA.wav", "key_press": -1, "type": "PRES_AUD", "word": "pizza", "wordID": 1078, "conditions": [24, 800, "a", 12000], "trial": 4, "serialpos": 23, "trial_type": "single-audio", "trial_index": 180, "time_elapsed": 767691, "internal_node_id": "0.0-135.0"}}, {"uniqueid": "MTK1269:3QY5DC2MXSRBTUCIANW9O9VGOWXUFX", "current_trial": 181, "dateTime": 1513485855838, "trialdata": {"rt": -1, "stimulus": "", "key_press": -1, "type": "PRE_RECALL_DELAY", "trial_type": "single-stim", "trial_index": 181, "time_elapsed": 769036, "internal_node_id": "0.0-136.0-0.0"}}, {"uniqueid": "MTK1269:3QY5DC2MXSRBTUCIANW9O9VGOWXUFX", "current_trial": 182, "dateTime": 1513485856339, "trialdata": {"rt": -1000, "stimulus": "/static/audio/400Hz.wav", "key_press": -1, "type": "PRE_RECALL_ALERT", "trial_type": "single-audio", "trial_index": 182, "time_elapsed": 769537, "internal_node_id": "0.0-137.0"}}, {"uniqueid": "MTK1269:3QY5DC2MXSRBTUCIANW9O9VGOWXUFX", "current_trial": 183, "dateTime": 1513485916351, "trialdata": {"rt": [3232, 5721, 8640, 14001, 22497, 24433, 30521, 34521, 38993, 42625, 44889, 47681, 50586, 56578], "recwords": ["pizza", "relish", "box", "peanut", "gallon", "coin", "freezer", "survey", "tablet", "buggy", "spider", "snake", "decor", "guzzle"], "type": "FREE_RECALL", "conditions": [24, 800, "a", 12000], "trial": 4, "trial_type": "free-recall", "trial_index": 183, "time_elapsed": 829539, "internal_node_id": "0.0-138.0-0.0"}}, {"uniqueid": "MTK1269:3QY5DC2MXSRBTUCIANW9O9VGOWXUFX", "current_trial": 184, "dateTime": 1513485919577, "trialdata": {"rt": 1224, "key_press": 32, "type": "INSTRUCTIONS", "trial_type": "text", "trial_index": 184, "time_elapsed": 832775, "internal_node_id": "0.0-139.0"}}, {"uniqueid": "MTK1269:3QY5DC2MXSRBTUCIANW9O9VGOWXUFX", "current_trial": 185, "dateTime": 1513485945579, "trialdata": {"rt": [2741, 5013, 7341, 10005, 13588, 15613, 17909], "responses": ["16", "10", "16", "16", "20", "18", "11"], "num1": [3, 2, 9, 5, 9, 5, 8, 8], "num2": [4, 7, 6, 9, 2, 5, 1, 5], "num3": [9, 1, 1, 2, 9, 8, 2, 7], "type": "DISTRACTOR", "conditions": [24, 1600, "a", 24000], "trial": 5, "trial_type": "math-distractor", "trial_index": 185, "time_elapsed": 858777, "internal_node_id": "0.0-140.0"}}, {"uniqueid": "MTK1269:3QY5DC2MXSRBTUCIANW9O9VGOWXUFX", "current_trial": 186, "dateTime": 1513485948580, "trialdata": {"rt": -1, "stimulus": "<p id=\"stim\">10</p>", "key_press": -1, "trial_type": "single-stim", "trial_index": 186, "time_elapsed": 861778, "internal_node_id": "0.0-141.0-0.0"}}, {"uniqueid": "MTK1269:3QY5DC2MXSRBTUCIANW9O9VGOWXUFX", "current_trial": 187, "dateTime": 1513485949580, "trialdata": {"rt": -1, "stimulus": "<p id=\"stim\">9</p>", "key_press": -1, "trial_type": "single-stim", "trial_index": 187, "time_elapsed": 862778, "internal_node_id": "0.0-141.0-1.0"}}, {"uniqueid": "MTK1269:3QY5DC2MXSRBTUCIANW9O9VGOWXUFX", "current_trial": 188, "dateTime": 1513485950580, "trialdata": {"rt": -1, "stimulus": "<p id=\"stim\">8</p>", "key_press": -1, "trial_type": "single-stim", "trial_index": 188, "time_elapsed": 863778, "internal_node_id": "0.0-141.0-2.0"}}, {"uniqueid": "MTK1269:3QY5DC2MXSRBTUCIANW9O9VGOWXUFX", "current_trial": 189, "dateTime": 1513485951580, "trialdata": {"rt": -1, "stimulus": "<p id=\"stim\">7</p>", "key_press": -1, "trial_type": "single-stim", "trial_index": 189, "time_elapsed": 864778, "internal_node_id": "0.0-141.0-3.0"}}, {"uniqueid": "MTK1269:3QY5DC2MXSRBTUCIANW9O9VGOWXUFX", "current_trial": 190, "dateTime": 1513485952580, "trialdata": {"rt": -1, "stimulus": "<p id=\"stim\">6</p>", "key_press": -1, "trial_type": "single-stim", "trial_index": 190, "time_elapsed": 865778, "internal_node_id": "0.0-141.0-4.0"}}, {"uniqueid": "MTK1269:3QY5DC2MXSRBTUCIANW9O9VGOWXUFX", "current_trial": 191, "dateTime": 1513485953580, "trialdata": {"rt": -1, "stimulus": "<p id=\"stim\">5</p>", "key_press": -1, "trial_type": "single-stim", "trial_index": 191, "time_elapsed": 866778, "internal_node_id": "0.0-141.0-5.0"}}, {"uniqueid": "MTK1269:3QY5DC2MXSRBTUCIANW9O9VGOWXUFX", "current_trial": 192, "dateTime": 1513485954580, "trialdata": {"rt": -1, "stimulus": "<p id=\"stim\">4</p>", "key_press": -1, "trial_type": "single-stim", "trial_index": 192, "time_elapsed": 867778, "internal_node_id": "0.0-141.0-6.0"}}, {"uniqueid": "MTK1269:3QY5DC2MXSRBTUCIANW9O9VGOWXUFX", "current_trial": 193, "dateTime": 1513485955581, "trialdata": {"rt": -1, "stimulus": "<p id=\"stim\">3</p>", "key_press": -1, "trial_type": "single-stim", "trial_index": 193, "time_elapsed": 868779, "internal_node_id": "0.0-141.0-7.0"}}, {"uniqueid": "MTK1269:3QY5DC2MXSRBTUCIANW9O9VGOWXUFX", "current_trial": 194, "dateTime": 1513485956581, "trialdata": {"rt": -1, "stimulus": "<p id=\"stim\">2</p>", "key_press": -1, "trial_type": "single-stim", "trial_index": 194, "time_elapsed": 869779, "internal_node_id": "0.0-141.0-8.0"}}, {"uniqueid": "MTK1269:3QY5DC2MXSRBTUCIANW9O9VGOWXUFX", "current_trial": 195, "dateTime": 1513485957581, "trialdata": {"rt": -1, "stimulus": "<p id=\"stim\">1</p>", "key_press": -1, "trial_type": "single-stim", "trial_index": 195, "time_elapsed": 870779, "internal_node_id": "0.0-141.0-9.0"}}, {"uniqueid": "MTK1269:3QY5DC2MXSRBTUCIANW9O9VGOWXUFX", "current_trial": 196, "dateTime": 1513485959082, "trialdata": {"rt": -1, "stimulus": "<p id=\"stim\">+</p>", "key_press": -1, "type": "FIXATION", "trial_type": "single-stim", "trial_index": 196, "time_elapsed": 872280, "internal_node_id": "0.0-142.0-0.0"}}, {"uniqueid": "MTK1269:3QY5DC2MXSRBTUCIANW9O9VGOWXUFX", "current_trial": 197, "dateTime": 1513485961747, "trialdata": {"rt": -1000, "stimulus": "/static/audio/wordpool/POPCORN.wav", "key_press": -1, "type": "PRES_AUD", "word": "popcorn", "wordID": 1103, "conditions": [24, 1600, "a", 24000], "trial": 5, "serialpos": 0, "trial_type": "single-audio", "trial_index": 197, "time_elapsed": 874944, "internal_node_id": "0.0-143.0"}}, {"uniqueid": "MTK1269:3QY5DC2MXSRBTUCIANW9O9VGOWXUFX", "current_trial": 198, "dateTime": 1513485964211, "trialdata": {"rt": -1000, "stimulus": "/static/audio/wordpool/STOVE.wav", "key_press": -1, "type": "PRES_AUD", "word": "stove", "wordID": 1387, "conditions": [24, 1600, "a", 24000], "trial": 5, "serialpos": 1, "trial_type": "single-audio", "trial_index": 198, "time_elapsed": 877409, "internal_node_id": "0.0-144.0"}}, {"uniqueid": "MTK1269:3QY5DC2MXSRBTUCIANW9O9VGOWXUFX", "current_trial": 199, "dateTime": 1513485966750, "trialdata": {"rt": -1000, "stimulus": "/static/audio/wordpool/RECEIPT.wav", "key_press": -1, "type": "PRES_AUD", "word": "receipt", "wordID": 1172, "conditions": [24, 1600, "a", 24000], "trial": 5, "serialpos": 2, "trial_type": "single-audio", "trial_index": 199, "time_elapsed": 879948, "internal_node_id": "0.0-145.0"}}, {"uniqueid": "MTK1269:3QY5DC2MXSRBTUCIANW9O9VGOWXUFX", "current_trial": 200, "dateTime": 1513485969152, "trialdata": {"rt": -1000, "stimulus": "/static/audio/wordpool/KNIFE.wav", "key_press": -1, "type": "PRES_AUD", "word": "knife", "wordID": 784, "conditions": [24, 1600, "a", 24000], "trial": 5, "serialpos": 3, "trial_type": "single-audio", "trial_index": 200, "time_elapsed": 882350, "internal_node_id": "0.0-146.0"}}, {"uniqueid": "MTK1269:3QY5DC2MXSRBTUCIANW9O9VGOWXUFX", "current_trial": 201, "dateTime": 1513485971770, "trialdata": {"rt": -1000, "stimulus": "/static/audio/wordpool/GRILL.wav", "key_press": -1, "type": "PRES_AUD", "word": "grill", "wordID": 660, "conditions": [24, 1600, "a", 24000], "trial": 5, "serialpos": 4, "trial_type": "single-audio", "trial_index": 201, "time_elapsed": 884968, "internal_node_id": "0.0-147.0"}}, {"uniqueid": "MTK1269:3QY5DC2MXSRBTUCIANW9O9VGOWXUFX", "current_trial": 202, "dateTime": 1513485974211, "trialdata": {"rt": -1000, "stimulus": "/static/audio/wordpool/FIREPLACE.wav", "key_press": -1, "type": "PRES_AUD", "word": "fireplace", "wordID": 569, "conditions": [24, 1600, "a", 24000], "trial": 5, "serialpos": 5, "trial_type": "single-audio", "trial_index": 202, "time_elapsed": 887409, "internal_node_id": "0.0-148.0"}}, {"uniqueid": "MTK1269:3QY5DC2MXSRBTUCIANW9O9VGOWXUFX", "current_trial": 203, "dateTime": 1513485976615, "trialdata": {"rt": -1000, "stimulus": "/static/audio/wordpool/BOUQUET.wav", "key_press": -1, "type": "PRES_AUD", "word": "bouquet", "wordID": 156, "conditions": [24, 1600, "a", 24000], "trial": 5, "serialpos": 6, "trial_type": "single-audio", "trial_index": 203, "time_elapsed": 889812, "internal_node_id": "0.0-149.0"}}, {"uniqueid": "MTK1269:3QY5DC2MXSRBTUCIANW9O9VGOWXUFX", "current_trial": 204, "dateTime": 1513485979104, "trialdata": {"rt": -1000, "stimulus": "/static/audio/wordpool/CITRUS.wav", "key_press": -1, "type": "PRES_AUD", "word": "citrus", "wordID": 312, "conditions": [24, 1600, "a", 24000], "trial": 5, "serialpos": 7, "trial_type": "single-audio", "trial_index": 204, "time_elapsed": 892302, "internal_node_id": "0.0-150.0"}}, {"uniqueid": "MTK1269:3QY5DC2MXSRBTUCIANW9O9VGOWXUFX", "current_trial": 205, "dateTime": 1513485981826, "trialdata": {"rt": -1000, "stimulus": "/static/audio/wordpool/MOTEL.wav", "key_press": -1, "type": "PRES_AUD", "word": "motel", "wordID": 918, "conditions": [24, 1600, "a", 24000], "trial": 5, "serialpos": 8, "trial_type": "single-audio", "trial_index": 205, "time_elapsed": 895024, "internal_node_id": "0.0-151.0"}}, {"uniqueid": "MTK1269:3QY5DC2MXSRBTUCIANW9O9VGOWXUFX", "current_trial": 206, "dateTime": 1513485984594, "trialdata": {"rt": -1000, "stimulus": "/static/audio/wordpool/SHOVEL.wav", "key_press": -1, "type": "PRES_AUD", "word": "shovel", "wordID": 1294, "conditions": [24, 1600, "a", 24000], "trial": 5, "serialpos": 9, "trial_type": "single-audio", "trial_index": 206, "time_elapsed": 897791, "internal_node_id": "0.0-152.0"}}, {"uniqueid": "MTK1269:3QY5DC2MXSRBTUCIANW9O9VGOWXUFX", "current_trial": 207, "dateTime": 1513485987254, "trialdata": {"rt": -1000, "stimulus": "/static/audio/wordpool/COD.wav", "key_press": -1, "type": "PRES_AUD", "word": "cod", "wordID": 339, "conditions": [24, 1600, "a", 24000], "trial": 5, "serialpos": 10, "trial_type": "single-audio", "trial_index": 207, "time_elapsed": 900451, "internal_node_id": "0.0-153.0"}}, {"uniqueid": "MTK1269:3QY5DC2MXSRBTUCIANW9O9VGOWXUFX", "current_trial": 208, "dateTime": 1513485989740, "trialdata": {"rt": -1000, "stimulus": "/static/audio/wordpool/SALMON.wav", "key_press": -1, "type": "PRES_AUD", "word": "salmon", "wordID": 1226, "conditions": [24, 1600, "a", 24000], "trial": 5, "serialpos": 11, "trial_type": "single-audio", "trial_index": 208, "time_elapsed": 902937, "internal_node_id": "0.0-154.0"}}, {"uniqueid": "MTK1269:3QY5DC2MXSRBTUCIANW9O9VGOWXUFX", "current_trial": 209, "dateTime": 1513485992216, "trialdata": {"rt": -1000, "stimulus": "/static/audio/wordpool/CIGAR.wav", "key_press": -1, "type": "PRES_AUD", "word": "cigar", "wordID": 307, "conditions": [24, 1600, "a", 24000], "trial": 5, "serialpos": 12, "trial_type": "single-audio", "trial_index": 209, "time_elapsed": 905413, "internal_node_id": "0.0-155.0"}}, {"uniqueid": "MTK1269:3QY5DC2MXSRBTUCIANW9O9VGOWXUFX", "current_trial": 210, "dateTime": 1513485994867, "trialdata": {"rt": -1000, "stimulus": "/static/audio/wordpool/FILM.wav", "key_press": -1, "type": "PRES_AUD", "word": "film", "wordID": 564, "conditions": [24, 1600, "a", 24000], "trial": 5, "serialpos": 13, "trial_type": "single-audio", "trial_index": 210, "time_elapsed": 908064, "internal_node_id": "0.0-156.0"}}, {"uniqueid": "MTK1269:3QY5DC2MXSRBTUCIANW9O9VGOWXUFX", "current_trial": 211, "dateTime": 1513485997608, "trialdata": {"rt": -1000, "stimulus": "/static/audio/wordpool/ACTOR.wav", "key_press": -1, "type": "PRES_AUD", "word": "actor", "wordID": 4, "conditions": [24, 1600, "a", 24000], "trial": 5, "serialpos": 14, "trial_type": "single-audio", "trial_index": 211, "time_elapsed": 910806, "internal_node_id": "0.0-157.0"}}, {"uniqueid": "MTK1269:3QY5DC2MXSRBTUCIANW9O9VGOWXUFX", "current_trial": 212, "dateTime": 1513486000190, "trialdata": {"rt": -1000, "stimulus": "/static/audio/wordpool/NAPKIN.wav", "key_press": -1, "type": "PRES_AUD", "word": "napkin", "wordID": 936, "conditions": [24, 1600, "a", 24000], "trial": 5, "serialpos": 15, "trial_type": "single-audio", "trial_index": 212, "time_elapsed": 913388, "internal_node_id": "0.0-158.0"}}, {"uniqueid": "MTK1269:3QY5DC2MXSRBTUCIANW9O9VGOWXUFX", "current_trial": 213, "dateTime": 1513486002956, "trialdata": {"rt": -1000, "stimulus": "/static/audio/wordpool/DANDRUFF.wav", "key_press": -1, "type": "PRES_AUD", "word": "dandruff", "wordID": 438, "conditions": [24, 1600, "a", 24000], "trial": 5, "serialpos": 16, "trial_type": "single-audio", "trial_index": 213, "time_elapsed": 916154, "internal_node_id": "0.0-159.0"}}, {"uniqueid": "MTK1269:3QY5DC2MXSRBTUCIANW9O9VGOWXUFX", "current_trial": 214, "dateTime": 1513486005422, "trialdata": {"rt": -1000, "stimulus": "/static/audio/wordpool/TAXI.wav", "key_press": -1, "type": "PRES_AUD", "word": "taxi", "wordID": 1437, "conditions": [24, 1600, "a", 24000], "trial": 5, "serialpos": 17, "trial_type": "single-audio", "trial_index": 214, "time_elapsed": 918620, "internal_node_id": "0.0-160.0"}}, {"uniqueid": "MTK1269:3QY5DC2MXSRBTUCIANW9O9VGOWXUFX", "current_trial": 215, "dateTime": 1513486007872, "trialdata": {"rt": -1000, "stimulus": "/static/audio/wordpool/BRIEFCASE.wav", "key_press": -1, "type": "PRES_AUD", "word": "briefcase", "wordID": 174, "conditions": [24, 1600, "a", 24000], "trial": 5, "serialpos": 18, "trial_type": "single-audio", "trial_index": 215, "time_elapsed": 921070, "internal_node_id": "0.0-161.0"}}, {"uniqueid": "MTK1269:3QY5DC2MXSRBTUCIANW9O9VGOWXUFX", "current_trial": 216, "dateTime": 1513486010312, "trialdata": {"rt": -1000, "stimulus": "/static/audio/wordpool/BACKBONE.wav", "key_press": -1, "type": "PRES_AUD", "word": "backbone", "wordID": 65, "conditions": [24, 1600, "a", 24000], "trial": 5, "serialpos": 19, "trial_type": "single-audio", "trial_index": 216, "time_elapsed": 923510, "internal_node_id": "0.0-162.0"}}, {"uniqueid": "MTK1269:3QY5DC2MXSRBTUCIANW9O9VGOWXUFX", "current_trial": 217, "dateTime": 1513486012857, "trialdata": {"rt": -1000, "stimulus": "/static/audio/wordpool/KITCHEN.wav", "key_press": -1, "type": "PRES_AUD", "word": "kitchen", "wordID": 777, "conditions": [24, 1600, "a", 24000], "trial": 5, "serialpos": 20, "trial_type": "single-audio", "trial_index": 217, "time_elapsed": 926055, "internal_node_id": "0.0-163.0"}}, {"uniqueid": "MTK1269:3QY5DC2MXSRBTUCIANW9O9VGOWXUFX", "current_trial": 218, "dateTime": 1513486015572, "trialdata": {"rt": -1000, "stimulus": "/static/audio/wordpool/POCKET.wav", "key_press": -1, "type": "PRES_AUD", "word": "pocket", "wordID": 1092, "conditions": [24, 1600, "a", 24000], "trial": 5, "serialpos": 21, "trial_type": "single-audio", "trial_index": 218, "time_elapsed": 928770, "internal_node_id": "0.0-164.0"}}, {"uniqueid": "MTK1269:3QY5DC2MXSRBTUCIANW9O9VGOWXUFX", "current_trial": 219, "dateTime": 1513486018280, "trialdata": {"rt": -1000, "stimulus": "/static/audio/wordpool/HEART.wav", "key_press": -1, "type": "PRES_AUD", "word": "heart", "wordID": 696, "conditions": [24, 1600, "a", 24000], "trial": 5, "serialpos": 22, "trial_type": "single-audio", "trial_index": 219, "time_elapsed": 931477, "internal_node_id": "0.0-165.0"}}, {"uniqueid": "MTK1269:3QY5DC2MXSRBTUCIANW9O9VGOWXUFX", "current_trial": 220, "dateTime": 1513486020828, "trialdata": {"rt": -1000, "stimulus": "/static/audio/wordpool/PATIENT.wav", "key_press": -1, "type": "PRES_AUD", "word": "patient", "wordID": 1023, "conditions": [24, 1600, "a", 24000], "trial": 5, "serialpos": 23, "trial_type": "single-audio", "trial_index": 220, "time_elapsed": 934026, "internal_node_id": "0.0-166.0"}}, {"uniqueid": "MTK1269:3QY5DC2MXSRBTUCIANW9O9VGOWXUFX", "current_trial": 221, "dateTime": 1513486022055, "trialdata": {"rt": -1, "stimulus": "", "key_press": -1, "type": "PRE_RECALL_DELAY", "trial_type": "single-stim", "trial_index": 221, "time_elapsed": 935253, "internal_node_id": "0.0-167.0-0.0"}}, {"uniqueid": "MTK1269:3QY5DC2MXSRBTUCIANW9O9VGOWXUFX", "current_trial": 222, "dateTime": 1513486022557, "trialdata": {"rt": -1000, "stimulus": "/static/audio/400Hz.wav", "key_press": -1, "type": "PRE_RECALL_ALERT", "trial_type": "single-audio", "trial_index": 222, "time_elapsed": 935755, "internal_node_id": "0.0-168.0"}}, {"uniqueid": "MTK1269:3QY5DC2MXSRBTUCIANW9O9VGOWXUFX", "current_trial": 223, "dateTime": 1513486082560, "trialdata": {"rt": [5949, 11357, 17637, 22590, 29542, 32301, 38269, 40613, 44711, 48438, 52245, 59253], "recwords": ["kitchen", "napkin", "stove", "popcorn", "heart", "pocket", "dancer", "film", "actor", "motel", "cop", "might"], "type": "FREE_RECALL", "conditions": [24, 1600, "a", 24000], "trial": 5, "trial_type": "free-recall", "trial_index": 223, "time_elapsed": 995756, "internal_node_id": "0.0-169.0-0.0"}}, {"uniqueid": "MTK1269:3QY5DC2MXSRBTUCIANW9O9VGOWXUFX", "current_trial": 224, "dateTime": 1513486085709, "trialdata": {"rt": 1148, "key_press": 13, "type": "INSTRUCTIONS", "trial_type": "text", "trial_index": 224, "time_elapsed": 998907, "internal_node_id": "0.0-170.0"}}, {"uniqueid": "MTK1269:3QY5DC2MXSRBTUCIANW9O9VGOWXUFX", "current_trial": 225, "dateTime": 1513486099711, "trialdata": {"rt": [3614, 6582, 8734, 10582], "responses": ["8", "17", "20", "8"], "num1": [1, 6, 7, 5, 3], "num2": [6, 2, 7, 1, 3], "num3": [1, 9, 6, 2, 5], "type": "DISTRACTOR", "conditions": [12, 800, "v", 12000], "trial": 6, "trial_type": "math-distractor", "trial_index": 225, "time_elapsed": 1012909, "internal_node_id": "0.0-171.0"}}, {"uniqueid": "MTK1269:3QY5DC2MXSRBTUCIANW9O9VGOWXUFX", "current_trial": 226, "dateTime": 1513486102711, "trialdata": {"rt": -1, "stimulus": "<p id=\"stim\">10</p>", "key_press": -1, "trial_type": "single-stim", "trial_index": 226, "time_elapsed": 1015909, "internal_node_id": "0.0-172.0-0.0"}}, {"uniqueid": "MTK1269:3QY5DC2MXSRBTUCIANW9O9VGOWXUFX", "current_trial": 227, "dateTime": 1513486103712, "trialdata": {"rt": -1, "stimulus": "<p id=\"stim\">9</p>", "key_press": -1, "trial_type": "single-stim", "trial_index": 227, "time_elapsed": 1016910, "internal_node_id": "0.0-172.0-1.0"}}, {"uniqueid": "MTK1269:3QY5DC2MXSRBTUCIANW9O9VGOWXUFX", "current_trial": 228, "dateTime": 1513486104713, "trialdata": {"rt": -1, "stimulus": "<p id=\"stim\">8</p>", "key_press": -1, "trial_type": "single-stim", "trial_index": 228, "time_elapsed": 1017911, "internal_node_id": "0.0-172.0-2.0"}}, {"uniqueid": "MTK1269:3QY5DC2MXSRBTUCIANW9O9VGOWXUFX", "current_trial": 229, "dateTime": 1513486105714, "trialdata": {"rt": -1, "stimulus": "<p id=\"stim\">7</p>", "key_press": -1, "trial_type": "single-stim", "trial_index": 229, "time_elapsed": 1018912, "internal_node_id": "0.0-172.0-3.0"}}, {"uniqueid": "MTK1269:3QY5DC2MXSRBTUCIANW9O9VGOWXUFX", "current_trial": 230, "dateTime": 1513486106714, "trialdata": {"rt": -1, "stimulus": "<p id=\"stim\">6</p>", "key_press": -1, "trial_type": "single-stim", "trial_index": 230, "time_elapsed": 1019912, "internal_node_id": "0.0-172.0-4.0"}}, {"uniqueid": "MTK1269:3QY5DC2MXSRBTUCIANW9O9VGOWXUFX", "current_trial": 231, "dateTime": 1513486107714, "trialdata": {"rt": -1, "stimulus": "<p id=\"stim\">5</p>", "key_press": -1, "trial_type": "single-stim", "trial_index": 231, "time_elapsed": 1020912, "internal_node_id": "0.0-172.0-5.0"}}, {"uniqueid": "MTK1269:3QY5DC2MXSRBTUCIANW9O9VGOWXUFX", "current_trial": 232, "dateTime": 1513486108715, "trialdata": {"rt": -1, "stimulus": "<p id=\"stim\">4</p>", "key_press": -1, "trial_type": "single-stim", "trial_index": 232, "time_elapsed": 1021913, "internal_node_id": "0.0-172.0-6.0"}}, {"uniqueid": "MTK1269:3QY5DC2MXSRBTUCIANW9O9VGOWXUFX", "current_trial": 233, "dateTime": 1513486109715, "trialdata": {"rt": -1, "stimulus": "<p id=\"stim\">3</p>", "key_press": -1, "trial_type": "single-stim", "trial_index": 233, "time_elapsed": 1022913, "internal_node_id": "0.0-172.0-7.0"}}, {"uniqueid": "MTK1269:3QY5DC2MXSRBTUCIANW9O9VGOWXUFX", "current_trial": 234, "dateTime": 1513486110715, "trialdata": {"rt": -1, "stimulus": "<p id=\"stim\">2</p>", "key_press": -1, "trial_type": "single-stim", "trial_index": 234, "time_elapsed": 1023913, "internal_node_id": "0.0-172.0-8.0"}}, {"uniqueid": "MTK1269:3QY5DC2MXSRBTUCIANW9O9VGOWXUFX", "current_trial": 235, "dateTime": 1513486111718, "trialdata": {"rt": -1, "stimulus": "<p id=\"stim\">1</p>", "key_press": -1, "trial_type": "single-stim", "trial_index": 235, "time_elapsed": 1024915, "internal_node_id": "0.0-172.0-9.0"}}, {"uniqueid": "MTK1269:3QY5DC2MXSRBTUCIANW9O9VGOWXUFX", "current_trial": 236, "dateTime": 1513486113219, "trialdata": {"rt": -1, "stimulus": "<p id=\"stim\">+</p>", "key_press": -1, "type": "FIXATION", "trial_type": "single-stim", "trial_index": 236, "time_elapsed": 1026416, "internal_node_id": "0.0-173.0-0.0"}}, {"uniqueid": "MTK1269:3QY5DC2MXSRBTUCIANW9O9VGOWXUFX", "current_trial": 237, "dateTime": 1513486114019, "trialdata": {"rt": -1, "stimulus": "<p id=\"stim\">RECORD</p>", "key_press": -1, "type": "PRES_VIS", "word": "record", "wordID": 1175, "conditions": [12, 800, "v", 12000], "trial": 6, "serialpos": 0, "trial_type": "single-stim", "trial_index": 237, "time_elapsed": 1027217, "internal_node_id": "0.0-174.0"}}, {"uniqueid": "MTK1269:3QY5DC2MXSRBTUCIANW9O9VGOWXUFX", "current_trial": 238, "dateTime": 1513486115924, "trialdata": {"rt": -1, "stimulus": "<p id=\"stim\">SLOPE</p>", "key_press": -1, "type": "PRES_VIS", "word": "slope", "wordID": 1327, "conditions": [12, 800, "v", 12000], "trial": 6, "serialpos": 1, "trial_type": "single-stim", "trial_index": 238, "time_elapsed": 1029122, "internal_node_id": "0.0-175.0"}}, {"uniqueid": "MTK1269:3QY5DC2MXSRBTUCIANW9O9VGOWXUFX", "current_trial": 239, "dateTime": 1513486117600, "trialdata": {"rt": -1, "stimulus": "<p id=\"stim\">SIDEWALK</p>", "key_press": -1, "type": "PRES_VIS", "word": "sidewalk", "wordID": 1302, "conditions": [12, 800, "v", 12000], "trial": 6, "serialpos": 2, "trial_type": "single-stim", "trial_index": 239, "time_elapsed": 1030798, "internal_node_id": "0.0-176.0"}}, {"uniqueid": "MTK1269:3QY5DC2MXSRBTUCIANW9O9VGOWXUFX", "current_trial": 240, "dateTime": 1513486119583, "trialdata": {"rt": -1, "stimulus": "<p id=\"stim\">CLAMP</p>", "key_press": -1, "type": "PRES_VIS", "word": "clamp", "wordID": 315, "conditions": [12, 800, "v", 12000], "trial": 6, "serialpos": 3, "trial_type": "single-stim", "trial_index": 240, "time_elapsed": 1032781, "internal_node_id": "0.0-177.0"}}, {"uniqueid": "MTK1269:3QY5DC2MXSRBTUCIANW9O9VGOWXUFX", "current_trial": 241, "dateTime": 1513486121427, "trialdata": {"rt": -1, "stimulus": "<p id=\"stim\">SALT</p>", "key_press": -1, "type": "PRES_VIS", "word": "salt", "wordID": 1228, "conditions": [12, 800, "v", 12000], "trial": 6, "serialpos": 4, "trial_type": "single-stim", "trial_index": 241, "time_elapsed": 1034625, "internal_node_id": "0.0-178.0"}}, {"uniqueid": "MTK1269:3QY5DC2MXSRBTUCIANW9O9VGOWXUFX", "current_trial": 242, "dateTime": 1513486123284, "trialdata": {"rt": -1, "stimulus": "<p id=\"stim\">PLAZA</p>", "key_press": -1, "type": "PRES_VIS", "word": "plaza", "wordID": 1087, "conditions": [12, 800, "v", 12000], "trial": 6, "serialpos": 5, "trial_type": "single-stim", "trial_index": 242, "time_elapsed": 1036482, "internal_node_id": "0.0-179.0"}}, {"uniqueid": "MTK1269:3QY5DC2MXSRBTUCIANW9O9VGOWXUFX", "current_trial": 243, "dateTime": 1513486124911, "trialdata": {"rt": -1, "stimulus": "<p id=\"stim\">TUTU</p>", "key_press": -1, "type": "PRES_VIS", "word": "tutu", "wordID": 1523, "conditions": [12, 800, "v", 12000], "trial": 6, "serialpos": 6, "trial_type": "single-stim", "trial_index": 243, "time_elapsed": 1038109, "internal_node_id": "0.0-180.0"}}, {"uniqueid": "MTK1269:3QY5DC2MXSRBTUCIANW9O9VGOWXUFX", "current_trial": 244, "dateTime": 1513486126790, "trialdata": {"rt": -1, "stimulus": "<p id=\"stim\">RIFLE</p>", "key_press": -1, "type": "PRES_VIS", "word": "rifle", "wordID": 1191, "conditions": [12, 800, "v", 12000], "trial": 6, "serialpos": 7, "trial_type": "single-stim", "trial_index": 244, "time_elapsed": 1039988, "internal_node_id": "0.0-181.0"}}, {"uniqueid": "MTK1269:3QY5DC2MXSRBTUCIANW9O9VGOWXUFX", "current_trial": 245, "dateTime": 1513486128516, "trialdata": {"rt": -1, "stimulus": "<p id=\"stim\">DAUGHTER</p>", "key_press": -1, "type": "PRES_VIS", "word": "daughter", "wordID": 441, "conditions": [12, 800, "v", 12000], "trial": 6, "serialpos": 8, "trial_type": "single-stim", "trial_index": 245, "time_elapsed": 1041714, "internal_node_id": "0.0-182.0"}}, {"uniqueid": "MTK1269:3QY5DC2MXSRBTUCIANW9O9VGOWXUFX", "current_trial": 246, "dateTime": 1513486130335, "trialdata": {"rt": -1, "stimulus": "<p id=\"stim\">BABY</p>", "key_press": -1, "type": "PRES_VIS", "word": "baby", "wordID": 63, "conditions": [12, 800, "v", 12000], "trial": 6, "serialpos": 9, "trial_type": "single-stim", "trial_index": 246, "time_elapsed": 1043533, "internal_node_id": "0.0-183.0"}}, {"uniqueid": "MTK1269:3QY5DC2MXSRBTUCIANW9O9VGOWXUFX", "current_trial": 247, "dateTime": 1513486131990, "trialdata": {"rt": -1, "stimulus": "<p id=\"stim\">HOOD</p>", "key_press": -1, "type": "PRES_VIS", "word": "hood", "wordID": 713, "conditions": [12, 800, "v", 12000], "trial": 6, "serialpos": 10, "trial_type": "single-stim", "trial_index": 247, "time_elapsed": 1045188, "internal_node_id": "0.0-184.0"}}, {"uniqueid": "MTK1269:3QY5DC2MXSRBTUCIANW9O9VGOWXUFX", "current_trial": 248, "dateTime": 1513486133817, "trialdata": {"rt": -1, "stimulus": "<p id=\"stim\">DUST</p>", "key_press": -1, "type": "PRES_VIS", "word": "dust", "wordID": 507, "conditions": [12, 800, "v", 12000], "trial": 6, "serialpos": 11, "trial_type": "single-stim", "trial_index": 248, "time_elapsed": 1047015, "internal_node_id": "0.0-185.0"}}, {"uniqueid": "MTK1269:3QY5DC2MXSRBTUCIANW9O9VGOWXUFX", "current_trial": 249, "dateTime": 1513486136240, "trialdata": {"rt": -1, "stimulus": "", "key_press": -1, "type": "PRE_RECALL_DELAY", "trial_type": "single-stim", "trial_index": 249, "time_elapsed": 1049437, "internal_node_id": "0.0-186.0-0.0"}}, {"uniqueid": "MTK1269:3QY5DC2MXSRBTUCIANW9O9VGOWXUFX", "current_trial": 250, "dateTime": 1513486136741, "trialdata": {"rt": -1000, "stimulus": "/static/audio/400Hz.wav", "key_press": -1, "type": "PRE_RECALL_ALERT", "trial_type": "single-audio", "trial_index": 250, "time_elapsed": 1049939, "internal_node_id": "0.0-187.0"}}, {"uniqueid": "MTK1269:3QY5DC2MXSRBTUCIANW9O9VGOWXUFX", "current_trial": 251, "dateTime": 1513486196750, "trialdata": {"rt": [3578, 5601, 8616, 10961, 14481, 20313, 24881, 29801, 37025, 45266, 48506, 52650], "recwords": ["dust", "baby", "daughter", "tutu", "salt", "hood", "plaza", "record", "clap", "slip", "rifle", "dust"], "type": "FREE_RECALL", "conditions": [12, 800, "v", 12000], "trial": 6, "trial_type": "free-recall", "trial_index": 251, "time_elapsed": 1109940, "internal_node_id": "0.0-188.0-0.0"}}, {"uniqueid": "MTK1269:3QY5DC2MXSRBTUCIANW9O9VGOWXUFX", "current_trial": 252, "dateTime": 1513486199840, "trialdata": {"rt": 1089, "key_press": 32, "type": "INSTRUCTIONS", "trial_type": "text", "trial_index": 252, "time_elapsed": 1113038, "internal_node_id": "0.0-189.0"}}, {"uniqueid": "MTK1269:3QY5DC2MXSRBTUCIANW9O9VGOWXUFX", "current_trial": 253, "dateTime": 1513486225852, "trialdata": {"rt": [1933, 5013, 8414, 12789, 15261, 18223, 20077, 22901], "responses": ["18", "18", "13", "18", "19", "17", "14", "12"], "num1": [1, 1, 7, 6, 9, 1, 6, 6, 9], "num2": [9, 9, 4, 3, 6, 8, 4, 2, 4], "num3": [8, 8, 2, 9, 4, 8, 4, 4, 1], "type": "DISTRACTOR", "conditions": [24, 800, "v", 24000], "trial": 7, "trial_type": "math-distractor", "trial_index": 253, "time_elapsed": 1139050, "internal_node_id": "0.0-190.0"}}, {"uniqueid": "MTK1269:3QY5DC2MXSRBTUCIANW9O9VGOWXUFX", "current_trial": 254, "dateTime": 1513486228854, "trialdata": {"rt": -1, "stimulus": "<p id=\"stim\">10</p>", "key_press": -1, "trial_type": "single-stim", "trial_index": 254, "time_elapsed": 1142052, "internal_node_id": "0.0-191.0-0.0"}}, {"uniqueid": "MTK1269:3QY5DC2MXSRBTUCIANW9O9VGOWXUFX", "current_trial": 255, "dateTime": 1513486229855, "trialdata": {"rt": -1, "stimulus": "<p id=\"stim\">9</p>", "key_press": -1, "trial_type": "single-stim", "trial_index": 255, "time_elapsed": 1143053, "internal_node_id": "0.0-191.0-1.0"}}, {"uniqueid": "MTK1269:3QY5DC2MXSRBTUCIANW9O9VGOWXUFX", "current_trial": 256, "dateTime": 1513486230857, "trialdata": {"rt": -1, "stimulus": "<p id=\"stim\">8</p>", "key_press": -1, "trial_type": "single-stim", "trial_index": 256, "time_elapsed": 1144055, "internal_node_id": "0.0-191.0-2.0"}}, {"uniqueid": "MTK1269:3QY5DC2MXSRBTUCIANW9O9VGOWXUFX", "current_trial": 257, "dateTime": 1513486231858, "trialdata": {"rt": -1, "stimulus": "<p id=\"stim\">7</p>", "key_press": -1, "trial_type": "single-stim", "trial_index": 257, "time_elapsed": 1145056, "internal_node_id": "0.0-191.0-3.0"}}, {"uniqueid": "MTK1269:3QY5DC2MXSRBTUCIANW9O9VGOWXUFX", "current_trial": 258, "dateTime": 1513486232858, "trialdata": {"rt": -1, "stimulus": "<p id=\"stim\">6</p>", "key_press": -1, "trial_type": "single-stim", "trial_index": 258, "time_elapsed": 1146056, "internal_node_id": "0.0-191.0-4.0"}}, {"uniqueid": "MTK1269:3QY5DC2MXSRBTUCIANW9O9VGOWXUFX", "current_trial": 259, "dateTime": 1513486233859, "trialdata": {"rt": -1, "stimulus": "<p id=\"stim\">5</p>", "key_press": -1, "trial_type": "single-stim", "trial_index": 259, "time_elapsed": 1147057, "internal_node_id": "0.0-191.0-5.0"}}, {"uniqueid": "MTK1269:3QY5DC2MXSRBTUCIANW9O9VGOWXUFX", "current_trial": 260, "dateTime": 1513486234860, "trialdata": {"rt": -1, "stimulus": "<p id=\"stim\">4</p>", "key_press": -1, "trial_type": "single-stim", "trial_index": 260, "time_elapsed": 1148058, "internal_node_id": "0.0-191.0-6.0"}}, {"uniqueid": "MTK1269:3QY5DC2MXSRBTUCIANW9O9VGOWXUFX", "current_trial": 261, "dateTime": 1513486235860, "trialdata": {"rt": -1, "stimulus": "<p id=\"stim\">3</p>", "key_press": -1, "trial_type": "single-stim", "trial_index": 261, "time_elapsed": 1149058, "internal_node_id": "0.0-191.0-7.0"}}, {"uniqueid": "MTK1269:3QY5DC2MXSRBTUCIANW9O9VGOWXUFX", "current_trial": 262, "dateTime": 1513486236862, "trialdata": {"rt": -1, "stimulus": "<p id=\"stim\">2</p>", "key_press": -1, "trial_type": "single-stim", "trial_index": 262, "time_elapsed": 1150059, "internal_node_id": "0.0-191.0-8.0"}}, {"uniqueid": "MTK1269:3QY5DC2MXSRBTUCIANW9O9VGOWXUFX", "current_trial": 263, "dateTime": 1513486237862, "trialdata": {"rt": -1, "stimulus": "<p id=\"stim\">1</p>", "key_press": -1, "trial_type": "single-stim", "trial_index": 263, "time_elapsed": 1151060, "internal_node_id": "0.0-191.0-9.0"}}, {"uniqueid": "MTK1269:3QY5DC2MXSRBTUCIANW9O9VGOWXUFX", "current_trial": 264, "dateTime": 1513486239363, "trialdata": {"rt": -1, "stimulus": "<p id=\"stim\">+</p>", "key_press": -1, "type": "FIXATION", "trial_type": "single-stim", "trial_index": 264, "time_elapsed": 1152561, "internal_node_id": "0.0-192.0-0.0"}}, {"uniqueid": "MTK1269:3QY5DC2MXSRBTUCIANW9O9VGOWXUFX", "current_trial": 265, "dateTime": 1513486240163, "trialdata": {"rt": -1, "stimulus": "<p id=\"stim\">SALAD</p>", "key_press": -1, "type": "PRES_VIS", "word": "salad", "wordID": 1223, "conditions": [24, 800, "v", 24000], "trial": 7, "serialpos": 0, "trial_type": "single-stim", "trial_index": 265, "time_elapsed": 1153361, "internal_node_id": "0.0-193.0"}}, {"uniqueid": "MTK1269:3QY5DC2MXSRBTUCIANW9O9VGOWXUFX", "current_trial": 266, "dateTime": 1513486242104, "trialdata": {"rt": -1, "stimulus": "<p id=\"stim\">SANDWICH</p>", "key_press": -1, "type": "PRES_VIS", "word": "sandwich", "wordID": 1231, "conditions": [24, 800, "v", 24000], "trial": 7, "serialpos": 1, "trial_type": "single-stim", "trial_index": 266, "time_elapsed": 1155302, "internal_node_id": "0.0-194.0"}}, {"uniqueid": "MTK1269:3QY5DC2MXSRBTUCIANW9O9VGOWXUFX", "current_trial": 267, "dateTime": 1513486243964, "trialdata": {"rt": -1, "stimulus": "<p id=\"stim\">BEAVER</p>", "key_press": -1, "type": "PRES_VIS", "word": "beaver", "wordID": 108, "conditions": [24, 800, "v", 24000], "trial": 7, "serialpos": 2, "trial_type": "single-stim", "trial_index": 267, "time_elapsed": 1157162, "internal_node_id": "0.0-195.0"}}, {"uniqueid": "MTK1269:3QY5DC2MXSRBTUCIANW9O9VGOWXUFX", "current_trial": 268, "dateTime": 1513486245948, "trialdata": {"rt": -1, "stimulus": "<p id=\"stim\">VALVE</p>", "key_press": -1, "type": "PRES_VIS", "word": "valve", "wordID": 1545, "conditions": [24, 800, "v", 24000], "trial": 7, "serialpos": 3, "trial_type": "single-stim", "trial_index": 268, "time_elapsed": 1159145, "internal_node_id": "0.0-196.0"}}, {"uniqueid": "MTK1269:3QY5DC2MXSRBTUCIANW9O9VGOWXUFX", "current_trial": 269, "dateTime": 1513486247942, "trialdata": {"rt": -1, "stimulus": "<p id=\"stim\">STONE</p>", "key_press": -1, "type": "PRES_VIS", "word": "stone", "wordID": 1384, "conditions": [24, 800, "v", 24000], "trial": 7, "serialpos": 4, "trial_type": "single-stim", "trial_index": 269, "time_elapsed": 1161140, "internal_node_id": "0.0-197.0"}}, {"uniqueid": "MTK1269:3QY5DC2MXSRBTUCIANW9O9VGOWXUFX", "current_trial": 270, "dateTime": 1513486249795, "trialdata": {"rt": -1, "stimulus": "<p id=\"stim\">BRICK</p>", "key_press": -1, "type": "PRES_VIS", "word": "brick", "wordID": 171, "conditions": [24, 800, "v", 24000], "trial": 7, "serialpos": 5, "trial_type": "sin