{"assignmentId": "30ZX6P7VF92IEKPCATDOXOSG25PJ2R", "workerId": "MTK1992", "questiondata": {"origin": "United States", "strat-rehearsal": "86", "marital": "Single", "education": "Some college", "ethnicity": "Not Hispanic", "color_depth": 24, "distracted": "No", "wrote-notes": "No", "strat-other": "", "screen_width": 1366, "avail_screen_width": 1366, "avail_screen_height": 728, "strat-image": "77", "language": "English", "gender": "Male", "age": "30", "gender_other": "", "race": ["White"], "strat-categorize": "83", "pixel_depth": 24, "strat-spatial": "80", "strat-story": "82", "race_other": "", "screen_height": 768}, "bonus": 0, "hitId": "3C8QQOM6JP8QXBTKCF5RBZG5DFWILT", "counterbalance": 400, "useragent": "Mozilla/5.0 (Windows NT 6.1; Win64; x64) AppleWebKit/537.36 (KHTML, like Gecko) Chrome/63.0.3239.132 Safari/537.36", "eventdata": [{"eventtype": "initialized", "interval": 0, "value": null, "timestamp": 1516641253939}, {"eventtype": "window_resize", "interval": 0, "value": [1366, 728], "timestamp": 1516641253939}, {"eventtype": "focus", "interval": 356639, "value": "off", "timestamp": 1516641610578}, {"eventtype": "focus", "interval": 330724, "value": "on", "timestamp": 1516641941302}, {"eventtype": "focus", "interval": 1470487, "value": "off", "timestamp": 1516643411789}, {"eventtype": "focus", "interval": 20824, "value": "on", "timestamp": 1516643432613}, {"eventtype": "focus", "interval": 1033811, "value": "off", "timestamp": 1516644466424}, {"eventtype": "focus", "interval": 31942, "value": "on", "timestamp": 1516644498366}], "data": [{"current_trial": 0, "trialdata": {"rt": 1420, "trial_type": "text", "internal_node_id": "0.0-0.0", "time_elapsed": 1424, "key_press": 68, "type": "INSTRUCTIONS", "trial_index": 0}, "uniqueid": "MTK1992:30ZX6P7VF92IEKPCATDOXOSG25PJ2R", "dateTime": 1516641255653}, {"current_trial": 1, "trialdata": {"rt": 1479, "trial_type": "text", "internal_node_id": "0.0-1.0", "time_elapsed": 2906, "key_press": 175, "type": "INSTRUCTIONS", "trial_index": 1}, "uniqueid": "MTK1992:30ZX6P7VF92IEKPCATDOXOSG25PJ2R", "dateTime": 1516641257134}, {"current_trial": 2, "trialdata": {"rt": [8496], "trial_type": "audio-test", "responses": ["ocean"], "internal_node_id": "0.0-2.0", "time_elapsed": 11425, "type": "AUDIO_TEST", "trial_index": 2}, "uniqueid": "MTK1992:30ZX6P7VF92IEKPCATDOXOSG25PJ2R", "dateTime": 1516641265653}, {"current_trial": 3, "trialdata": {"rt": [7418], "trial_type": "audio-test", "responses": ["crystal"], "internal_node_id": "0.0-3.0", "time_elapsed": 18853, "type": "AUDIO_TEST", "trial_index": 3}, "uniqueid": "MTK1992:30ZX6P7VF92IEKPCATDOXOSG25PJ2R", "dateTime": 1516641273081}, {"current_trial": 4, "trialdata": {"rt": [5120], "trial_type": "audio-test", "responses": ["spice"], "internal_node_id": "0.0-4.0", "time_elapsed": 23983, "type": "AUDIO_TEST", "trial_index": 4}, "uniqueid": "MTK1992:30ZX6P7VF92IEKPCATDOXOSG25PJ2R", "dateTime": 1516641278212}, {"current_trial": 5, "trialdata": {"rt": 20931, "trial_type": "survey-text", "responses": "{\"Q0\":\"3am\",\"Q1\":\"11pm\",\"Q2\":\"4\"}", "internal_node_id": "0.0-5.0", "time_elapsed": 45668, "type": "SLEEP_SURVEY", "trial_index": 5}, "uniqueid": "MTK1992:30ZX6P7VF92IEKPCATDOXOSG25PJ2R", "dateTime": 1516641299896}, {"current_trial": 6, "trialdata": {"rt": 18478, "trial_type": "text", "internal_node_id": "0.0-6.0", "time_elapsed": 65148, "key_press": 68, "type": "INSTRUCTIONS", "trial_index": 6}, "uniqueid": "MTK1992:30ZX6P7VF92IEKPCATDOXOSG25PJ2R", "dateTime": 1516641319376}, {"current_trial": 7, "trialdata": {"rt": 8861, "trial_type": "text", "internal_node_id": "0.0-7.0", "time_elapsed": 74511, "key_press": 68, "type": "INSTRUCTIONS", "trial_index": 7}, "uniqueid": "MTK1992:30ZX6P7VF92IEKPCATDOXOSG25PJ2R", "dateTime": 1516641328739}, {"current_trial": 8, "trialdata": {"rt": 8052, "trial_type": "text", "internal_node_id": "0.0-8.0", "time_elapsed": 83065, "key_press": 68, "type": "INSTRUCTIONS", "trial_index": 8}, "uniqueid": "MTK1992:30ZX6P7VF92IEKPCATDOXOSG25PJ2R", "dateTime": 1516641337293}, {"current_trial": 9, "trialdata": {"rt": [3592, 5909, 12779, 16209], "trial_type": "math-distractor", "key_times": [3088, 3320, 3592, 5451, 5909, 12106, 12369, 12779, 15888, 16209], "responses": ["17", "1", "12", "6"], "num2": [7, 3, 7, 3, 2], "num3": [8, 9, 3, 2, 7], "conditions": [18, 1200, "v", 18000], "internal_node_id": "0.0-9.0", "key_presses": [49, 55, 13, 49, 13, 49, 50, 13, 54, 13], "trial": 0, "time_elapsed": 102075, "type": "DISTRACTOR", "trial_index": 9, "num1": [2, 2, 2, 1, 3]}, "uniqueid": "MTK1992:30ZX6P7VF92IEKPCATDOXOSG25PJ2R", "dateTime": 1516641356303}, {"current_trial": 10, "trialdata": {"rt": -1, "trial_type": "single-stim", "stimulus": "<p id=\"stim\">10</p>", "internal_node_id": "0.0-10.0-0.0", "time_elapsed": 105079, "key_press": -1, "trial_index": 10}, "uniqueid": "MTK1992:30ZX6P7VF92IEKPCATDOXOSG25PJ2R", "dateTime": 1516641359307}, {"current_trial": 11, "trialdata": {"rt": -1, "trial_type": "single-stim", "stimulus": "<p id=\"stim\">9</p>", "internal_node_id": "0.0-10.0-1.0", "time_elapsed": 106081, "key_press": -1, "trial_index": 11}, "uniqueid": "MTK1992:30ZX6P7VF92IEKPCATDOXOSG25PJ2R", "dateTime": 1516641360309}, {"current_trial": 12, "trialdata": {"rt": -1, "trial_type": "single-stim", "stimulus": "<p id=\"stim\">8</p>", "internal_node_id": "0.0-10.0-2.0", "time_elapsed": 107083, "key_press": -1, "trial_index": 12}, "uniqueid": "MTK1992:30ZX6P7VF92IEKPCATDOXOSG25PJ2R", "dateTime": 1516641361311}, {"current_trial": 13, "trialdata": {"rt": -1, "trial_type": "single-stim", "stimulus": "<p id=\"stim\">7</p>", "internal_node_id": "0.0-10.0-3.0", "time_elapsed": 108085, "key_press": -1, "trial_index": 13}, "uniqueid": "MTK1992:30ZX6P7VF92IEKPCATDOXOSG25PJ2R", "dateTime": 1516641362313}, {"current_trial": 14, "trialdata": {"rt": -1, "trial_type": "single-stim", "stimulus": "<p id=\"stim\">6</p>", "internal_node_id": "0.0-10.0-4.0", "time_elapsed": 109087, "key_press": -1, "trial_index": 14}, "uniqueid": "MTK1992:30ZX6P7VF92IEKPCATDOXOSG25PJ2R", "dateTime": 1516641363315}, {"current_trial": 15, "trialdata": {"rt": -1, "trial_type": "single-stim", "stimulus": "<p id=\"stim\">5</p>", "internal_node_id": "0.0-10.0-5.0", "time_elapsed": 110089, "key_press": -1, "trial_index": 15}, "uniqueid": "MTK1992:30ZX6P7VF92IEKPCATDOXOSG25PJ2R", "dateTime": 1516641364317}, {"current_trial": 16, "trialdata": {"rt": -1, "trial_type": "single-stim", "stimulus": "<p id=\"stim\">4</p>", "internal_node_id": "0.0-10.0-6.0", "time_elapsed": 111091, "key_press": -1, "trial_index": 16}, "uniqueid": "MTK1992:30ZX6P7VF92IEKPCATDOXOSG25PJ2R", "dateTime": 1516641365320}, {"current_trial": 17, "trialdata": {"rt": -1, "trial_type": "single-stim", "stimulus": "<p id=\"stim\">3</p>", "internal_node_id": "0.0-10.0-7.0", "time_elapsed": 112094, "key_press": -1, "trial_index": 17}, "uniqueid": "MTK1992:30ZX6P7VF92IEKPCATDOXOSG25PJ2R", "dateTime": 1516641366322}, {"current_trial": 18, "trialdata": {"rt": -1, "trial_type": "single-stim", "stimulus": "<p id=\"stim\">2</p>", "internal_node_id": "0.0-10.0-8.0", "time_elapsed": 113096, "key_press": -1, "trial_index": 18}, "uniqueid": "MTK1992:30ZX6P7VF92IEKPCATDOXOSG25PJ2R", "dateTime": 1516641367324}, {"current_trial": 19, "trialdata": {"rt": -1, "trial_type": "single-stim", "stimulus": "<p id=\"stim\">1</p>", "internal_node_id": "0.0-10.0-9.0", "time_elapsed": 114097, "key_press": -1, "trial_index": 19}, "uniqueid": "MTK1992:30ZX6P7VF92IEKPCATDOXOSG25PJ2R", "dateTime": 1516641368326}, {"current_trial": 20, "trialdata": {"rt": -1, "trial_type": "single-stim", "stimulus": "<p id=\"stim\">+</p>", "internal_node_id": "0.0-11.0-0.0", "time_elapsed": 115599, "key_press": -1, "type": "FIXATION", "trial_index": 20}, "uniqueid": "MTK1992:30ZX6P7VF92IEKPCATDOXOSG25PJ2R", "dateTime": 1516641369827}, {"current_trial": 21, "trialdata": {"rt": -1, "trial_type": "single-stim", "word": "critic", "stimulus": "<p id=\"stim\">CRITIC</p>", "conditions": [18, 1200, "v", 18000], "internal_node_id": "0.0-12.0", "trial": 0, "time_elapsed": 116800, "serialpos": 0, "key_press": -1, "wordID": 409, "type": "PRES_VIS", "trial_index": 21}, "uniqueid": "MTK1992:30ZX6P7VF92IEKPCATDOXOSG25PJ2R", "dateTime": 1516641371028}, {"current_trial": 22, "trialdata": {"rt": -1, "trial_type": "single-stim", "word": "quarter", "stimulus": "<p id=\"stim\">QUARTER</p>", "conditions": [18, 1200, "v", 18000], "internal_node_id": "0.0-13.0", "trial": 0, "time_elapsed": 119195, "serialpos": 1, "key_press": -1, "wordID": 1147, "type": "PRES_VIS", "trial_index": 22}, "uniqueid": "MTK1992:30ZX6P7VF92IEKPCATDOXOSG25PJ2R", "dateTime": 1516641373423}, {"current_trial": 23, "trialdata": {"rt": -1, "trial_type": "single-stim", "word": "missile", "stimulus": "<p id=\"stim\">MISSILE</p>", "conditions": [18, 1200, "v", 18000], "internal_node_id": "0.0-14.0", "trial": 0, "time_elapsed": 121567, "serialpos": 2, "key_press": -1, "wordID": 899, "type": "PRES_VIS", "trial_index": 23}, "uniqueid": "MTK1992:30ZX6P7VF92IEKPCATDOXOSG25PJ2R", "dateTime": 1516641375795}, {"current_trial": 24, "trialdata": {"rt": -1, "trial_type": "single-stim", "word": "lumber", "stimulus": "<p id=\"stim\">LUMBER</p>", "conditions": [18, 1200, "v", 18000], "internal_node_id": "0.0-15.0", "trial": 0, "time_elapsed": 123896, "serialpos": 3, "key_press": -1, "wordID": 847, "type": "PRES_VIS", "trial_index": 24}, "uniqueid": "MTK1992:30ZX6P7VF92IEKPCATDOXOSG25PJ2R", "dateTime": 1516641378124}, {"current_trial": 25, "trialdata": {"rt": -1, "trial_type": "single-stim", "word": "tutu", "stimulus": "<p id=\"stim\">TUTU</p>", "conditions": [18, 1200, "v", 18000], "internal_node_id": "0.0-16.0", "trial": 0, "time_elapsed": 126015, "serialpos": 4, "key_press": -1, "wordID": 1523, "type": "PRES_VIS", "trial_index": 25}, "uniqueid": "MTK1992:30ZX6P7VF92IEKPCATDOXOSG25PJ2R", "dateTime": 1516641380243}, {"current_trial": 26, "trialdata": {"rt": -1, "trial_type": "single-stim", "word": "cousin", "stimulus": "<p id=\"stim\">COUSIN</p>", "conditions": [18, 1200, "v", 18000], "internal_node_id": "0.0-17.0", "trial": 0, "time_elapsed": 128248, "serialpos": 5, "key_press": -1, "wordID": 391, "type": "PRES_VIS", "trial_index": 26}, "uniqueid": "MTK1992:30ZX6P7VF92IEKPCATDOXOSG25PJ2R", "dateTime": 1516641382476}, {"current_trial": 27, "trialdata": {"rt": -1, "trial_type": "single-stim", "word": "slime", "stimulus": "<p id=\"stim\">SLIME</p>", "conditions": [18, 1200, "v", 18000], "internal_node_id": "0.0-18.0", "trial": 0, "time_elapsed": 130333, "serialpos": 6, "key_press": -1, "wordID": 1326, "type": "PRES_VIS", "trial_index": 27}, "uniqueid": "MTK1992:30ZX6P7VF92IEKPCATDOXOSG25PJ2R", "dateTime": 1516641384561}, {"current_trial": 28, "trialdata": {"rt": -1, "trial_type": "single-stim", "word": "football", "stimulus": "<p id=\"stim\">FOOTBALL</p>", "conditions": [18, 1200, "v", 18000], "internal_node_id": "0.0-19.0", "trial": 0, "time_elapsed": 132511, "serialpos": 7, "key_press": -1, "wordID": 590, "type": "PRES_VIS", "trial_index": 28}, "uniqueid": "MTK1992:30ZX6P7VF92IEKPCATDOXOSG25PJ2R", "dateTime": 1516641386739}, {"current_trial": 29, "trialdata": {"rt": -1, "trial_type": "single-stim", "word": "fleet", "stimulus": "<p id=\"stim\">FLEET</p>", "conditions": [18, 1200, "v", 18000], "internal_node_id": "0.0-20.0", "trial": 0, "time_elapsed": 134859, "serialpos": 8, "key_press": -1, "wordID": 577, "type": "PRES_VIS", "trial_index": 29}, "uniqueid": "MTK1992:30ZX6P7VF92IEKPCATDOXOSG25PJ2R", "dateTime": 1516641389087}, {"current_trial": 30, "trialdata": {"rt": -1, "trial_type": "single-stim", "word": "globe", "stimulus": "<p id=\"stim\">GLOBE</p>", "conditions": [18, 1200, "v", 18000], "internal_node_id": "0.0-21.0", "trial": 0, "time_elapsed": 136880, "serialpos": 9, "key_press": -1, "wordID": 640, "type": "PRES_VIS", "trial_index": 30}, "uniqueid": "MTK1992:30ZX6P7VF92IEKPCATDOXOSG25PJ2R", "dateTime": 1516641391109}, {"current_trial": 31, "trialdata": {"rt": -1, "trial_type": "single-stim", "word": "smog", "stimulus": "<p id=\"stim\">SMOG</p>", "conditions": [18, 1200, "v", 18000], "internal_node_id": "0.0-22.0", "trial": 0, "time_elapsed": 139283, "serialpos": 10, "key_press": -1, "wordID": 1329, "type": "PRES_VIS", "trial_index": 31}, "uniqueid": "MTK1992:30ZX6P7VF92IEKPCATDOXOSG25PJ2R", "dateTime": 1516641393511}, {"current_trial": 32, "trialdata": {"rt": -1, "trial_type": "single-stim", "word": "grave", "stimulus": "<p id=\"stim\">GRAVE</p>", "conditions": [18, 1200, "v", 18000], "internal_node_id": "0.0-23.0", "trial": 0, "time_elapsed": 141520, "serialpos": 11, "key_press": -1, "wordID": 657, "type": "PRES_VIS", "trial_index": 32}, "uniqueid": "MTK1992:30ZX6P7VF92IEKPCATDOXOSG25PJ2R", "dateTime": 1516641395748}, {"current_trial": 33, "trialdata": {"rt": -1, "trial_type": "single-stim", "word": "compass", "stimulus": "<p id=\"stim\">COMPASS</p>", "conditions": [18, 1200, "v", 18000], "internal_node_id": "0.0-24.0", "trial": 0, "time_elapsed": 143879, "serialpos": 12, "key_press": -1, "wordID": 357, "type": "PRES_VIS", "trial_index": 33}, "uniqueid": "MTK1992:30ZX6P7VF92IEKPCATDOXOSG25PJ2R", "dateTime": 1516641398107}, {"current_trial": 34, "trialdata": {"rt": -1, "trial_type": "single-stim", "word": "cobra", "stimulus": "<p id=\"stim\">COBRA</p>", "conditions": [18, 1200, "v", 18000], "internal_node_id": "0.0-25.0", "trial": 0, "time_elapsed": 146271, "serialpos": 13, "key_press": -1, "wordID": 335, "type": "PRES_VIS", "trial_index": 34}, "uniqueid": "MTK1992:30ZX6P7VF92IEKPCATDOXOSG25PJ2R", "dateTime": 1516641400499}, {"current_trial": 35, "trialdata": {"rt": -1, "trial_type": "single-stim", "word": "leg", "stimulus": "<p id=\"stim\">LEG</p>", "conditions": [18, 1200, "v", 18000], "internal_node_id": "0.0-26.0", "trial": 0, "time_elapsed": 148670, "serialpos": 14, "key_press": -1, "wordID": 808, "type": "PRES_VIS", "trial_index": 35}, "uniqueid": "MTK1992:30ZX6P7VF92IEKPCATDOXOSG25PJ2R", "dateTime": 1516641402898}, {"current_trial": 36, "trialdata": {"rt": -1, "trial_type": "single-stim", "word": "mummy", "stimulus": "<p id=\"stim\">MUMMY</p>", "conditions": [18, 1200, "v", 18000], "internal_node_id": "0.0-27.0", "trial": 0, "time_elapsed": 150690, "serialpos": 15, "key_press": -1, "wordID": 931, "type": "PRES_VIS", "trial_index": 36}, "uniqueid": "MTK1992:30ZX6P7VF92IEKPCATDOXOSG25PJ2R", "dateTime": 1516641404918}, {"current_trial": 37, "trialdata": {"rt": -1, "trial_type": "single-stim", "word": "female", "stimulus": "<p id=\"stim\">FEMALE</p>", "conditions": [18, 1200, "v", 18000], "internal_node_id": "0.0-28.0", "trial": 0, "time_elapsed": 152750, "serialpos": 16, "key_press": -1, "wordID": 558, "type": "PRES_VIS", "trial_index": 37}, "uniqueid": "MTK1992:30ZX6P7VF92IEKPCATDOXOSG25PJ2R", "dateTime": 1516641406978}, {"current_trial": 38, "trialdata": {"rt": -1, "trial_type": "single-stim", "word": "transplant", "stimulus": "<p id=\"stim\">TRANSPLANT</p>", "conditions": [18, 1200, "v", 18000], "internal_node_id": "0.0-29.0", "trial": 0, "time_elapsed": 154934, "serialpos": 17, "key_press": -1, "wordID": 1495, "type": "PRES_VIS", "trial_index": 38}, "uniqueid": "MTK1992:30ZX6P7VF92IEKPCATDOXOSG25PJ2R", "dateTime": 1516641409162}, {"current_trial": 39, "trialdata": {"rt": -1, "trial_type": "single-stim", "stimulus": "", "internal_node_id": "0.0-30.0-0.0", "time_elapsed": 157148, "key_press": -1, "type": "PRE_RECALL_DELAY", "trial_index": 39}, "uniqueid": "MTK1992:30ZX6P7VF92IEKPCATDOXOSG25PJ2R", "dateTime": 1516641411376}, {"current_trial": 40, "trialdata": {"rt": -1000, "trial_type": "single-audio", "stimulus": "/static/audio/400Hz.wav", "internal_node_id": "0.0-31.0", "time_elapsed": 157651, "key_press": -1, "type": "PRE_RECALL_ALERT", "trial_index": 40}, "uniqueid": "MTK1992:30ZX6P7VF92IEKPCATDOXOSG25PJ2R", "dateTime": 1516641411879}, {"current_trial": 41, "trialdata": {"rt": [2317, 3902, 5657, 7691, 19805, 25558, 40679], "recwords": ["critic", "quarter", "muscle", "lumber", "missle", "tutu", "missle"], "key_times": [1150, 1372, 1507, 1648, 1896, 2107, 2317, 2775, 2856, 3075, 3259, 3433, 3582, 3701, 3902, 4162, 4352, 4445, 4667, 5067, 5255, 5657, 6631, 6813, 7033, 7135, 7300, 7459, 7691, 18902, 19061, 19233, 19407, 19456, 19627, 19805, 24955, 25057, 25168, 25269, 25558, 38553, 38750, 38939, 39164, 39304, 39801, 39975, 40129, 40346, 40518, 40679], "trial_type": "free-recall", "conditions": [18, 1200, "v", 18000], "internal_node_id": "0.0-32.0-0.0", "key_presses": [67, 82, 73, 84, 73, 67, 13, 81, 85, 65, 82, 84, 69, 82, 13, 77, 85, 83, 67, 76, 69, 13, 76, 85, 77, 66, 69, 82, 13, 77, 73, 83, 83, 76, 69, 13, 84, 85, 84, 85, 13, 77, 73, 83, 76, 69, 8, 8, 83, 76, 69, 13], "trial": 0, "time_elapsed": 217656, "type": "FREE_RECALL", "trial_index": 41}, "uniqueid": "MTK1992:30ZX6P7VF92IEKPCATDOXOSG25PJ2R", "dateTime": 1516641471887}, {"current_trial": 42, "trialdata": {"rt": 1878, "trial_type": "text", "internal_node_id": "0.0-33.0", "time_elapsed": 221540, "key_press": 68, "type": "INSTRUCTIONS", "trial_index": 42}, "uniqueid": "MTK1992:30ZX6P7VF92IEKPCATDOXOSG25PJ2R", "dateTime": 1516641475768}, {"current_trial": 43, "trialdata": {"rt": [2966, 7602, 10582, 14617, 17229], "trial_type": "math-distractor", "key_times": [2614, 2966, 7242, 7355, 7602, 10005, 10229, 10582, 14186, 14322, 14617, 16773, 16933, 17229], "responses": ["6", "19", "17", "19", "18"], "num2": [2, 7, 4, 6, 8, 5], "num3": [1, 3, 9, 8, 6, 2], "conditions": [18, 1200, "v", 18000], "internal_node_id": "0.0-34.0", "key_presses": [54, 13, 49, 57, 13, 49, 55, 13, 49, 57, 13, 49, 56, 13], "trial": 1, "time_elapsed": 241544, "type": "DISTRACTOR", "trial_index": 43, "num1": [3, 9, 4, 5, 4, 4]}, "uniqueid": "MTK1992:30ZX6P7VF92IEKPCATDOXOSG25PJ2R", "dateTime": 1516641495772}, {"current_trial": 44, "trialdata": {"rt": -1, "trial_type": "single-stim", "stimulus": "<p id=\"stim\">10</p>", "internal_node_id": "0.0-35.0-0.0", "time_elapsed": 244547, "key_press": -1, "trial_index": 44}, "uniqueid": "MTK1992:30ZX6P7VF92IEKPCATDOXOSG25PJ2R", "dateTime": 1516641498776}, {"current_trial": 45, "trialdata": {"rt": -1, "trial_type": "single-stim", "stimulus": "<p id=\"stim\">9</p>", "internal_node_id": "0.0-35.0-1.0", "time_elapsed": 245549, "key_press": -1, "trial_index": 45}, "uniqueid": "MTK1992:30ZX6P7VF92IEKPCATDOXOSG25PJ2R", "dateTime": 1516641499778}, {"current_trial": 46, "trialdata": {"rt": -1, "trial_type": "single-stim", "stimulus": "<p id=\"stim\">8</p>", "internal_node_id": "0.0-35.0-2.0", "time_elapsed": 246552, "key_press": -1, "trial_index": 46}, "uniqueid": "MTK1992:30ZX6P7VF92IEKPCATDOXOSG25PJ2R", "dateTime": 1516641500780}, {"current_trial": 47, "trialdata": {"rt": -1, "trial_type": "single-stim", "stimulus": "<p id=\"stim\">7</p>", "internal_node_id": "0.0-35.0-3.0", "time_elapsed": 247553, "key_press": -1, "trial_index": 47}, "uniqueid": "MTK1992:30ZX6P7VF92IEKPCATDOXOSG25PJ2R", "dateTime": 1516641501782}, {"current_trial": 48, "trialdata": {"rt": -1, "trial_type": "single-stim", "stimulus": "<p id=\"stim\">6</p>", "internal_node_id": "0.0-35.0-4.0", "time_elapsed": 248555, "key_press": -1, "trial_index": 48}, "uniqueid": "MTK1992:30ZX6P7VF92IEKPCATDOXOSG25PJ2R", "dateTime": 1516641502784}, {"current_trial": 49, "trialdata": {"rt": -1, "trial_type": "single-stim", "stimulus": "<p id=\"stim\">5</p>", "internal_node_id": "0.0-35.0-5.0", "time_elapsed": 249558, "key_press": -1, "trial_index": 49}, "uniqueid": "MTK1992:30ZX6P7VF92IEKPCATDOXOSG25PJ2R", "dateTime": 1516641503786}, {"current_trial": 50, "trialdata": {"rt": -1, "trial_type": "single-stim", "stimulus": "<p id=\"stim\">4</p>", "internal_node_id": "0.0-35.0-6.0", "time_elapsed": 250560, "key_press": -1, "trial_index": 50}, "uniqueid": "MTK1992:30ZX6P7VF92IEKPCATDOXOSG25PJ2R", "dateTime": 1516641504788}, {"current_trial": 51, "trialdata": {"rt": -1, "trial_type": "single-stim", "stimulus": "<p id=\"stim\">3</p>", "internal_node_id": "0.0-35.0-7.0", "time_elapsed": 251561, "key_press": -1, "trial_index": 51}, "uniqueid": "MTK1992:30ZX6P7VF92IEKPCATDOXOSG25PJ2R", "dateTime": 1516641505790}, {"current_trial": 52, "trialdata": {"rt": -1, "trial_type": "single-stim", "stimulus": "<p id=\"stim\">2</p>", "internal_node_id": "0.0-35.0-8.0", "time_elapsed": 252564, "key_press": -1, "trial_index": 52}, "uniqueid": "MTK1992:30ZX6P7VF92IEKPCATDOXOSG25PJ2R", "dateTime": 1516641506792}, {"current_trial": 53, "trialdata": {"rt": -1, "trial_type": "single-stim", "stimulus": "<p id=\"stim\">1</p>", "internal_node_id": "0.0-35.0-9.0", "time_elapsed": 253566, "key_press": -1, "trial_index": 53}, "uniqueid": "MTK1992:30ZX6P7VF92IEKPCATDOXOSG25PJ2R", "dateTime": 1516641507794}, {"current_trial": 54, "trialdata": {"rt": -1, "trial_type": "single-stim", "stimulus": "<p id=\"stim\">+</p>", "internal_node_id": "0.0-36.0-0.0", "time_elapsed": 255068, "key_press": -1, "type": "FIXATION", "trial_index": 54}, "uniqueid": "MTK1992:30ZX6P7VF92IEKPCATDOXOSG25PJ2R", "dateTime": 1516641509296}, {"current_trial": 55, "trialdata": {"rt": -1, "trial_type": "single-stim", "word": "lizard", "stimulus": "<p id=\"stim\">LIZARD</p>", "conditions": [18, 1200, "v", 18000], "internal_node_id": "0.0-37.0", "trial": 1, "time_elapsed": 256270, "serialpos": 0, "key_press": -1, "wordID": 833, "type": "PRES_VIS", "trial_index": 55}, "uniqueid": "MTK1992:30ZX6P7VF92IEKPCATDOXOSG25PJ2R", "dateTime": 1516641510498}, {"current_trial": 56, "trialdata": {"rt": -1, "trial_type": "single-stim", "word": "hood", "stimulus": "<p id=\"stim\">HOOD</p>", "conditions": [18, 1200, "v", 18000], "internal_node_id": "0.0-38.0", "trial": 1, "time_elapsed": 258554, "serialpos": 1, "key_press": -1, "wordID": 713, "type": "PRES_VIS", "trial_index": 56}, "uniqueid": "MTK1992:30ZX6P7VF92IEKPCATDOXOSG25PJ2R", "dateTime": 1516641512782}, {"current_trial": 57, "trialdata": {"rt": -1, "trial_type": "single-stim", "word": "sibling", "stimulus": "<p id=\"stim\">SIBLING</p>", "conditions": [18, 1200, "v", 18000], "internal_node_id": "0.0-39.0", "trial": 1, "time_elapsed": 260768, "serialpos": 2, "key_press": -1, "wordID": 1300, "type": "PRES_VIS", "trial_index": 57}, "uniqueid": "MTK1992:30ZX6P7VF92IEKPCATDOXOSG25PJ2R", "dateTime": 1516641514996}, {"current_trial": 58, "trialdata": {"rt": -1, "trial_type": "single-stim", "word": "grape", "stimulus": "<p id=\"stim\">GRAPE</p>", "conditions": [18, 1200, "v", 18000], "internal_node_id": "0.0-40.0", "trial": 1, "time_elapsed": 262917, "serialpos": 3, "key_press": -1, "wordID": 653, "type": "PRES_VIS", "trial_index": 58}, "uniqueid": "MTK1992:30ZX6P7VF92IEKPCATDOXOSG25PJ2R", "dateTime": 1516641517145}, {"current_trial": 59, "trialdata": {"rt": -1, "trial_type": "single-stim", "word": "nurse", "stimulus": "<p id=\"stim\">NURSE</p>", "conditions": [18, 1200, "v", 18000], "internal_node_id": "0.0-41.0", "trial": 1, "time_elapsed": 265253, "serialpos": 4, "key_press": -1, "wordID": 962, "type": "PRES_VIS", "trial_index": 59}, "uniqueid": "MTK1992:30ZX6P7VF92IEKPCATDOXOSG25PJ2R", "dateTime": 1516641519482}, {"current_trial": 60, "trialdata": {"rt": -1, "trial_type": "single-stim", "word": "perfume", "stimulus": "<p id=\"stim\">PERFUME</p>", "conditions": [18, 1200, "v", 18000], "internal_node_id": "0.0-42.0", "trial": 1, "time_elapsed": 267551, "serialpos": 5, "key_press": -1, "wordID": 1048, "type": "PRES_VIS", "trial_index": 60}, "uniqueid": "MTK1992:30ZX6P7VF92IEKPCATDOXOSG25PJ2R", "dateTime": 1516641521779}, {"current_trial": 61, "trialdata": {"rt": -1, "trial_type": "single-stim", "word": "finger", "stimulus": "<p id=\"stim\">FINGER</p>", "conditions": [18, 1200, "v", 18000], "internal_node_id": "0.0-43.0", "trial": 1, "time_elapsed": 269903, "serialpos": 6, "key_press": -1, "wordID": 566, "type": "PRES_VIS", "trial_index": 61}, "uniqueid": "MTK1992:30ZX6P7VF92IEKPCATDOXOSG25PJ2R", "dateTime": 1516641524132}, {"current_trial": 62, "trialdata": {"rt": -1, "trial_type": "single-stim", "word": "hand", "stimulus": "<p id=\"stim\">HAND</p>", "conditions": [18, 1200, "v", 18000], "internal_node_id": "0.0-44.0", "trial": 1, "time_elapsed": 272183, "serialpos": 7, "key_press": -1, "wordID": 682, "type": "PRES_VIS", "trial_index": 62}, "uniqueid": "MTK1992:30ZX6P7VF92IEKPCATDOXOSG25PJ2R", "dateTime": 1516641526411}, {"current_trial": 63, "trialdata": {"rt": -1, "trial_type": "single-stim", "word": "glove", "stimulus": "<p id=\"stim\">GLOVE</p>", "conditions": [18, 1200, "v", 18000], "internal_node_id": "0.0-45.0", "trial": 1, "time_elapsed": 274495, "serialpos": 8, "key_press": -1, "wordID": 641, "type": "PRES_VIS", "trial_index": 63}, "uniqueid": "MTK1992:30ZX6P7VF92IEKPCATDOXOSG25PJ2R", "dateTime": 1516641528723}, {"current_trial": 64, "trialdata": {"rt": -1, "trial_type": "single-stim", "word": "pastry", "stimulus": "<p id=\"stim\">PASTRY</p>", "conditions": [18, 1200, "v", 18000], "internal_node_id": "0.0-46.0", "trial": 1, "time_elapsed": 276755, "serialpos": 9, "key_press": -1, "wordID": 1021, "type": "PRES_VIS", "trial_index": 64}, "uniqueid": "MTK1992:30ZX6P7VF92IEKPCATDOXOSG25PJ2R", "dateTime": 1516641530984}, {"current_trial": 65, "trialdata": {"rt": -1, "trial_type": "single-stim", "word": "gymnast", "stimulus": "<p id=\"stim\">GYMNAST</p>", "conditions": [18, 1200, "v", 18000], "internal_node_id": "0.0-47.0", "trial": 1, "time_elapsed": 278821, "serialpos": 10, "key_press": -1, "wordID": 674, "type": "PRES_VIS", "trial_index": 65}, "uniqueid": "MTK1992:30ZX6P7VF92IEKPCATDOXOSG25PJ2R", "dateTime": 1516641533049}, {"current_trial": 66, "trialdata": {"rt": -1, "trial_type": "single-stim", "word": "hedge", "stimulus": "<p id=\"stim\">HEDGE</p>", "conditions": [18, 1200, "v", 18000], "internal_node_id": "0.0-48.0", "trial": 1, "time_elapsed": 280916, "serialpos": 11, "key_press": -1, "wordID": 698, "type": "PRES_VIS", "trial_index": 66}, "uniqueid": "MTK1992:30ZX6P7VF92IEKPCATDOXOSG25PJ2R", "dateTime": 1516641535144}, {"current_trial": 67, "trialdata": {"rt": -1, "trial_type": "single-stim", "word": "portrait", "stimulus": "<p id=\"stim\">PORTRAIT</p>", "conditions": [18, 1200, "v", 18000], "internal_node_id": "0.0-49.0", "trial": 1, "time_elapsed": 283264, "serialpos": 12, "key_press": -1, "wordID": 1110, "type": "PRES_VIS", "trial_index": 67}, "uniqueid": "MTK1992:30ZX6P7VF92IEKPCATDOXOSG25PJ2R", "dateTime": 1516641537492}, {"current_trial": 68, "trialdata": {"rt": -1, "trial_type": "single-stim", "word": "mustard", "stimulus": "<p id=\"stim\">MUSTARD</p>", "conditions": [18, 1200, "v", 18000], "internal_node_id": "0.0-50.0", "trial": 1, "time_elapsed": 285614, "serialpos": 13, "key_press": -1, "wordID": 934, "type": "PRES_VIS", "trial_index": 68}, "uniqueid": "MTK1992:30ZX6P7VF92IEKPCATDOXOSG25PJ2R", "dateTime": 1516641539846}, {"current_trial": 69, "trialdata": {"rt": -1, "trial_type": "single-stim", "word": "eagle", "stimulus": "<p id=\"stim\">EAGLE</p>", "conditions": [18, 1200, "v", 18000], "internal_node_id": "0.0-51.0", "trial": 1, "time_elapsed": 287925, "serialpos": 14, "key_press": -1, "wordID": 511, "type": "PRES_VIS", "trial_index": 69}, "uniqueid": "MTK1992:30ZX6P7VF92IEKPCATDOXOSG25PJ2R", "dateTime": 1516641542153}, {"current_trial": 70, "trialdata": {"rt": -1, "trial_type": "single-stim", "word": "fireplace", "stimulus": "<p id=\"stim\">FIREPLACE</p>", "conditions": [18, 1200, "v", 18000], "internal_node_id": "0.0-52.0", "trial": 1, "time_elapsed": 290167, "serialpos": 15, "key_press": -1, "wordID": 569, "type": "PRES_VIS", "trial_index": 70}, "uniqueid": "MTK1992:30ZX6P7VF92IEKPCATDOXOSG25PJ2R", "dateTime": 1516641544395}, {"current_trial": 71, "trialdata": {"rt": -1, "trial_type": "single-stim", "word": "bureau", "stimulus": "<p id=\"stim\">BUREAU</p>", "conditions": [18, 1200, "v", 18000], "internal_node_id": "0.0-53.0", "trial": 1, "time_elapsed": 292213, "serialpos": 16, "key_press": -1, "wordID": 198, "type": "PRES_VIS", "trial_index": 71}, "uniqueid": "MTK1992:30ZX6P7VF92IEKPCATDOXOSG25PJ2R", "dateTime": 1516641546441}, {"current_trial": 72, "trialdata": {"rt": -1, "trial_type": "single-stim", "word": "doughnut", "stimulus": "<p id=\"stim\">DOUGHNUT</p>", "conditions": [18, 1200, "v", 18000], "internal_node_id": "0.0-54.0", "trial": 1, "time_elapsed": 294514, "serialpos": 17, "key_press": -1, "wordID": 489, "type": "PRES_VIS", "trial_index": 72}, "uniqueid": "MTK1992:30ZX6P7VF92IEKPCATDOXOSG25PJ2R", "dateTime": 1516641548742}, {"current_trial": 73, "trialdata": {"rt": -1, "trial_type": "single-stim", "stimulus": "", "internal_node_id": "0.0-55.0-0.0", "time_elapsed": 296595, "key_press": -1, "type": "PRE_RECALL_DELAY", "trial_index": 73}, "uniqueid": "MTK1992:30ZX6P7VF92IEKPCATDOXOSG25PJ2R", "dateTime": 1516641550823}, {"current_trial": 74, "trialdata": {"rt": -1000, "trial_type": "single-audio", "stimulus": "/static/audio/400Hz.wav", "internal_node_id": "0.0-56.0", "time_elapsed": 297097, "key_press": -1, "type": "PRE_RECALL_ALERT", "trial_index": 74}, "uniqueid": "MTK1992:30ZX6P7VF92IEKPCATDOXOSG25PJ2R", "dateTime": 1516641551325}, {"current_trial": 75, "trialdata": {"rt": [2483, 4203, 5607, 7596], "recwords": ["lizard", "sibling", "bureau", "donut"], "key_times": [1182, 1427, 1592, 1781, 1980, 2242, 2483, 2885, 3006, 3194, 3306, 3480, 3654, 3819, 4203, 4592, 4710, 4844, 5033, 5190, 5351, 5607, 5826, 5962, 6695, 6917, 7179, 7596], "trial_type": "free-recall", "conditions": [18, 1200, "v", 18000], "internal_node_id": "0.0-57.0-0.0", "key_presses": [76, 73, 90, 65, 82, 68, 13, 83, 73, 66, 76, 73, 78, 71, 13, 66, 85, 82, 69, 65, 85, 13, 68, 79, 78, 85, 84, 13], "trial": 1, "time_elapsed": 357228, "type": "FREE_RECALL", "trial_index": 75}, "uniqueid": "MTK1992:30ZX6P7VF92IEKPCATDOXOSG25PJ2R", "dateTime": 1516641611458}, {"current_trial": 76, "trialdata": {"rt": 329332, "trial_type": "text", "internal_node_id": "0.0-58.0", "time_elapsed": 689555, "key_press": 68, "type": "INSTRUCTIONS", "trial_index": 76}, "uniqueid": "MTK1992:30ZX6P7VF92IEKPCATDOXOSG25PJ2R", "dateTime": 1516641943784}, {"current_trial": 77, "trialdata": {"rt": [2724, 5239, 7678, 10261, 12457, 15453, 18183, 20643, 22447], "trial_type": "math-distractor", "key_times": [2068, 2411, 2724, 4887, 5061, 5239, 6930, 7306, 7678, 9342, 9675, 10261, 11808, 12240, 12457, 15116, 15340, 15453, 17703, 17936, 18183, 20219, 20530, 20643, 22023, 22198, 22447, 23826], "responses": ["14", "12", "16", "15", "15", "14", "18", "13", "14"], "num2": [6, 6, 8, 1, 1, 5, 9, 6, 3, 7], "num3": [1, 2, 6, 6, 6, 2, 7, 5, 4, 7], "conditions": [24, 800, "v", 24000], "internal_node_id": "0.0-59.0", "key_presses": [49, 52, 13, 49, 50, 13, 49, 54, 13, 49, 53, 13, 49, 53, 13, 49, 52, 13, 49, 56, 13, 49, 51, 13, 49, 52, 13, 50], "trial": 2, "time_elapsed": 714561, "type": "DISTRACTOR", "trial_index": 77, "num1": [7, 4, 2, 8, 8, 7, 2, 2, 7, 7]}, "uniqueid": "MTK1992:30ZX6P7VF92IEKPCATDOXOSG25PJ2R", "dateTime": 1516641968789}, {"current_trial": 78, "trialdata": {"rt": -1, "trial_type": "single-stim", "stimulus": "<p id=\"stim\">10</p>", "internal_node_id": "0.0-60.0-0.0", "time_elapsed": 717563, "key_press": -1, "trial_index": 78}, "uniqueid": "MTK1992:30ZX6P7VF92IEKPCATDOXOSG25PJ2R", "dateTime": 1516641971791}, {"current_trial": 79, "trialdata": {"rt": -1, "trial_type": "single-stim", "stimulus": "<p id=\"stim\">9</p>", "internal_node_id": "0.0-60.0-1.0", "time_elapsed": 718565, "key_press": -1, "trial_index": 79}, "uniqueid": "MTK1992:30ZX6P7VF92IEKPCATDOXOSG25PJ2R", "dateTime": 1516641972793}, {"current_trial": 80, "trialdata": {"rt": -1, "trial_type": "single-stim", "stimulus": "<p id=\"stim\">8</p>", "internal_node_id": "0.0-60.0-2.0", "time_elapsed": 719567, "key_press": -1, "trial_index": 80}, "uniqueid": "MTK1992:30ZX6P7VF92IEKPCATDOXOSG25PJ2R", "dateTime": 1516641973795}, {"current_trial": 81, "trialdata": {"rt": -1, "trial_type": "single-stim", "stimulus": "<p id=\"stim\">7</p>", "internal_node_id": "0.0-60.0-3.0", "time_elapsed": 720568, "key_press": -1, "trial_index": 81}, "uniqueid": "MTK1992:30ZX6P7VF92IEKPCATDOXOSG25PJ2R", "dateTime": 1516641974796}, {"current_trial": 82, "trialdata": {"rt": -1, "trial_type": "single-stim", "stimulus": "<p id=\"stim\">6</p>", "internal_node_id": "0.0-60.0-4.0", "time_elapsed": 721571, "key_press": -1, "trial_index": 82}, "uniqueid": "MTK1992:30ZX6P7VF92IEKPCATDOXOSG25PJ2R", "dateTime": 1516641975799}, {"current_trial": 83, "trialdata": {"rt": -1, "trial_type": "single-stim", "stimulus": "<p id=\"stim\">5</p>", "internal_node_id": "0.0-60.0-5.0", "time_elapsed": 722572, "key_press": -1, "trial_index": 83}, "uniqueid": "MTK1992:30ZX6P7VF92IEKPCATDOXOSG25PJ2R", "dateTime": 1516641976801}, {"current_trial": 84, "trialdata": {"rt": -1, "trial_type": "single-stim", "stimulus": "<p id=\"stim\">4</p>", "internal_node_id": "0.0-60.0-6.0", "time_elapsed": 723574, "key_press": -1, "trial_index": 84}, "uniqueid": "MTK1992:30ZX6P7VF92IEKPCATDOXOSG25PJ2R", "dateTime": 1516641977802}, {"current_trial": 85, "trialdata": {"rt": -1, "trial_type": "single-stim", "stimulus": "<p id=\"stim\">3</p>", "internal_node_id": "0.0-60.0-7.0", "time_elapsed": 724575, "key_press": -1, "trial_index": 85}, "uniqueid": "MTK1992:30ZX6P7VF92IEKPCATDOXOSG25PJ2R", "dateTime": 1516641978803}, {"current_trial": 86, "trialdata": {"rt": -1, "trial_type": "single-stim", "stimulus": "<p id=\"stim\">2</p>", "internal_node_id": "0.0-60.0-8.0", "time_elapsed": 725576, "key_press": -1, "trial_index": 86}, "uniqueid": "MTK1992:30ZX6P7VF92IEKPCATDOXOSG25PJ2R", "dateTime": 1516641979804}, {"current_trial": 87, "trialdata": {"rt": -1, "trial_type": "single-stim", "stimulus": "<p id=\"stim\">1</p>", "internal_node_id": "0.0-60.0-9.0", "time_elapsed": 726577, "key_press": -1, "trial_index": 87}, "uniqueid": "MTK1992:30ZX6P7VF92IEKPCATDOXOSG25PJ2R", "dateTime": 1516641980805}, {"current_trial": 88, "trialdata": {"rt": -1, "trial_type": "single-stim", "stimulus": "<p id=\"stim\">+</p>", "internal_node_id": "0.0-61.0-0.0", "time_elapsed": 728079, "key_press": -1, "type": "FIXATION", "trial_index": 88}, "uniqueid": "MTK1992:30ZX6P7VF92IEKPCATDOXOSG25PJ2R", "dateTime": 1516641982308}, {"current_trial": 89, "trialdata": {"rt": -1, "trial_type": "single-stim", "word": "hiker", "stimulus": "<p id=\"stim\">HIKER</p>", "conditions": [24, 800, "v", 24000], "internal_node_id": "0.0-62.0", "trial": 2, "time_elapsed": 728882, "serialpos": 0, "key_press": -1, "wordID": 707, "type": "PRES_VIS", "trial_index": 89}, "uniqueid": "MTK1992:30ZX6P7VF92IEKPCATDOXOSG25PJ2R", "dateTime": 1516641983110}, {"current_trial": 90, "trialdata": {"rt": -1, "trial_type": "single-stim", "word": "gallon", "stimulus": "<p id=\"stim\">GALLON</p>", "conditions": [24, 800, "v", 24000], "internal_node_id": "0.0-63.0", "trial": 2, "time_elapsed": 730872, "serialpos": 1, "key_press": -1, "wordID": 617, "type": "PRES_VIS", "trial_index": 90}, "uniqueid": "MTK1992:30ZX6P7VF92IEKPCATDOXOSG25PJ2R", "dateTime": 1516641985101}, {"current_trial": 91, "trialdata": {"rt": -1, "trial_type": "single-stim", "word": "valley", "stimulus": "<p id=\"stim\">VALLEY</p>", "conditions": [24, 800, "v", 24000], "internal_node_id": "0.0-64.0", "trial": 2, "time_elapsed": 732493, "serialpos": 2, "key_press": -1, "wordID": 1544, "type": "PRES_VIS", "trial_index": 91}, "uniqueid": "MTK1992:30ZX6P7VF92IEKPCATDOXOSG25PJ2R", "dateTime": 1516641986721}, {"current_trial": 92, "trialdata": {"rt": -1, "trial_type": "single-stim", "word": "lake", "stimulus": "<p id=\"stim\">LAKE</p>", "conditions": [24, 800, "v", 24000], "internal_node_id": "0.0-65.0", "trial": 2, "time_elapsed": 734358, "serialpos": 3, "key_press": -1, "wordID": 795, "type": "PRES_VIS", "trial_index": 92}, "uniqueid": "MTK1992:30ZX6P7VF92IEKPCATDOXOSG25PJ2R", "dateTime": 1516641988587}, {"current_trial": 93, "trialdata": {"rt": -1, "trial_type": "single-stim", "word": "turtle", "stimulus": "<p id=\"stim\">TURTLE</p>", "conditions": [24, 800, "v", 24000], "internal_node_id": "0.0-66.0", "trial": 2, "time_elapsed": 736285, "serialpos": 4, "key_press": -1, "wordID": 1521, "type": "PRES_VIS", "trial_index": 93}, "uniqueid": "MTK1992:30ZX6P7VF92IEKPCATDOXOSG25PJ2R", "dateTime": 1516641990513}, {"current_trial": 94, "trialdata": {"rt": -1, "trial_type": "single-stim", "word": "preacher", "stimulus": "<p id=\"stim\">PREACHER</p>", "conditions": [24, 800, "v", 24000], "internal_node_id": "0.0-67.0", "trial": 2, "time_elapsed": 738040, "serialpos": 5, "key_press": -1, "wordID": 1118, "type": "PRES_VIS", "trial_index": 94}, "uniqueid": "MTK1992:30ZX6P7VF92IEKPCATDOXOSG25PJ2R", "dateTime": 1516641992268}, {"current_trial": 95, "trialdata": {"rt": -1, "trial_type": "single-stim", "word": "permit", "stimulus": "<p id=\"stim\">PERMIT</p>", "conditions": [24, 800, "v", 24000], "internal_node_id": "0.0-68.0", "trial": 2, "time_elapsed": 739675, "serialpos": 6, "key_press": -1, "wordID": 1050, "type": "PRES_VIS", "trial_index": 95}, "uniqueid": "MTK1992:30ZX6P7VF92IEKPCATDOXOSG25PJ2R", "dateTime": 1516641993903}, {"current_trial": 96, "trialdata": {"rt": -1, "trial_type": "single-stim", "word": "tractor", "stimulus": "<p id=\"stim\">TRACTOR</p>", "conditions": [24, 800, "v", 24000], "internal_node_id": "0.0-69.0", "trial": 2, "time_elapsed": 741417, "serialpos": 7, "key_press": -1, "wordID": 1492, "type": "PRES_VIS", "trial_index": 96}, "uniqueid": "MTK1992:30ZX6P7VF92IEKPCATDOXOSG25PJ2R", "dateTime": 1516641995645}, {"current_trial": 97, "trialdata": {"rt": -1, "trial_type": "single-stim", "word": "girl", "stimulus": "<p id=\"stim\">GIRL</p>", "conditions": [24, 800, "v", 24000], "internal_node_id": "0.0-70.0", "trial": 2, "time_elapsed": 743369, "serialpos": 8, "key_press": -1, "wordID": 636, "type": "PRES_VIS", "trial_index": 97}, "uniqueid": "MTK1992:30ZX6P7VF92IEKPCATDOXOSG25PJ2R", "dateTime": 1516641997597}, {"current_trial": 98, "trialdata": {"rt": -1, "trial_type": "single-stim", "word": "baby", "stimulus": "<p id=\"stim\">BABY</p>", "conditions": [24, 800, "v", 24000], "internal_node_id": "0.0-71.0", "trial": 2, "time_elapsed": 745168, "serialpos": 9, "key_press": -1, "wordID": 63, "type": "PRES_VIS", "trial_index": 98}, "uniqueid": "MTK1992:30ZX6P7VF92IEKPCATDOXOSG25PJ2R", "dateTime": 1516641999396}, {"current_trial": 99, "trialdata": {"rt": -1, "trial_type": "single-stim", "word": "climber", "stimulus": "<p id=\"stim\">CLIMBER</p>", "conditions": [24, 800, "v", 24000], "internal_node_id": "0.0-72.0", "trial": 2, "time_elapsed": 747078, "serialpos": 10, "key_press": -1, "wordID": 322, "type": "PRES_VIS", "trial_index": 99}, "uniqueid": "MTK1992:30ZX6P7VF92IEKPCATDOXOSG25PJ2R", "dateTime": 1516642001306}, {"current_trial": 100, "trialdata": {"rt": -1, "trial_type": "single-stim", "word": "lodge", "stimulus": "<p id=\"stim\">LODGE</p>", "conditions": [24, 800, "v", 24000], "internal_node_id": "0.0-73.0", "trial": 2, "time_elapsed": 748902, "serialpos": 11, "key_press": -1, "wordID": 838, "type": "PRES_VIS", "trial_index": 100}, "uniqueid": "MTK1992:30ZX6P7VF92IEKPCATDOXOSG25PJ2R", "dateTime": 1516642003131}, {"current_trial": 101, "trialdata": {"rt": -1, "trial_type": "single-stim", "word": "cricket", "stimulus": "<p id=\"stim\">CRICKET</p>", "conditions": [24, 800, "v", 24000], "internal_node_id": "0.0-74.0", "trial": 2, "time_elapsed": 750825, "serialpos": 12, "key_press": -1, "wordID": 407, "type": "PRES_VIS", "trial_index": 101}, "uniqueid": "MTK1992:30ZX6P7VF92IEKPCATDOXOSG25PJ2R", "dateTime": 1516642005057}, {"current_trial": 102, "trialdata": {"rt": -1, "trial_type": "single-stim", "word": "ketchup", "stimulus": "<p id=\"stim\">KETCHUP</p>", "conditions": [24, 800, "v", 24000], "internal_node_id": "0.0-75.0", "trial": 2, "time_elapsed": 752647, "serialpos": 13, "key_press": -1, "wordID": 770, "type": "PRES_VIS", "trial_index": 102}, "uniqueid": "MTK1992:30ZX6P7VF92IEKPCATDOXOSG25PJ2R", "dateTime": 1516642006876}, {"current_trial": 103, "trialdata": {"rt": -1, "trial_type": "single-stim", "word": "leopard", "stimulus": "<p id=\"stim\">LEOPARD</p>", "conditions": [24, 800, "v", 24000], "internal_node_id": "0.0-76.0", "trial": 2, "time_elapsed": 754648, "serialpos": 14, "key_press": -1, "wordID": 811, "type": "PRES_VIS", "trial_index": 103}, "uniqueid": "MTK1992:30ZX6P7VF92IEKPCATDOXOSG25PJ2R", "dateTime": 1516642008876}, {"current_trial": 104, "trialdata": {"rt": -1, "trial_type": "single-stim", "word": "sheriff", "stimulus": "<p id=\"stim\">SHERIFF</p>", "conditions": [24, 800, "v", 24000], "internal_node_id": "0.0-77.0", "trial": 2, "time_elapsed": 756500, "serialpos": 15, "key_press": -1, "wordID": 1283, "type": "PRES_VIS", "trial_index": 104}, "uniqueid": "MTK1992:30ZX6P7VF92IEKPCATDOXOSG25PJ2R", "dateTime": 1516642010728}, {"current_trial": 105, "trialdata": {"rt": -1, "trial_type": "single-stim", "word": "pigeon", "stimulus": "<p id=\"stim\">PIGEON</p>", "conditions": [24, 800, "v", 24000], "internal_node_id": "0.0-78.0", "trial": 2, "time_elapsed": 758439, "serialpos": 16, "key_press": -1, "wordID": 1064, "type": "PRES_VIS", "trial_index": 105}, "uniqueid": "MTK1992:30ZX6P7VF92IEKPCATDOXOSG25PJ2R", "dateTime": 1516642012667}, {"current_trial": 106, "trialdata": {"rt": -1, "trial_type": "single-stim", "word": "luggage", "stimulus": "<p id=\"stim\">LUGGAGE</p>", "conditions": [24, 800, "v", 24000], "internal_node_id": "0.0-79.0", "trial": 2, "time_elapsed": 760109, "serialpos": 17, "key_press": -1, "wordID": 846, "type": "PRES_VIS", "trial_index": 106}, "uniqueid": "MTK1992:30ZX6P7VF92IEKPCATDOXOSG25PJ2R", "dateTime": 1516642014337}, {"current_trial": 107, "trialdata": {"rt": -1, "trial_type": "single-stim", "word": "suitcase", "stimulus": "<p id=\"stim\">SUITCASE</p>", "conditions": [24, 800, "v", 24000], "internal_node_id": "0.0-80.0", "trial": 2, "time_elapsed": 761898, "serialpos": 18, "key_press": -1, "wordID": 1402, "type": "PRES_VIS", "trial_index": 107}, "uniqueid": "MTK1992:30ZX6P7VF92IEKPCATDOXOSG25PJ2R", "dateTime": 1516642016126}, {"current_trial": 108, "trialdata": {"rt": -1, "trial_type": "single-stim", "word": "tablet", "stimulus": "<p id=\"stim\">TABLET</p>", "conditions": [24, 800, "v", 24000], "internal_node_id": "0.0-81.0", "trial": 2, "time_elapsed": 763582, "serialpos": 19, "key_press": -1, "wordID": 1426, "type": "PRES_VIS", "trial_index": 108}, "uniqueid": "MTK1992:30ZX6P7VF92IEKPCATDOXOSG25PJ2R", "dateTime": 1516642017810}, {"current_trial": 109, "trialdata": {"rt": -1, "trial_type": "single-stim", "word": "server", "stimulus": "<p id=\"stim\">SERVER</p>", "conditions": [24, 800, "v", 24000], "internal_node_id": "0.0-82.0", "trial": 2, "time_elapsed": 765393, "serialpos": 20, "key_press": -1, "wordID": 1271, "type": "PRES_VIS", "trial_index": 109}, "uniqueid": "MTK1992:30ZX6P7VF92IEKPCATDOXOSG25PJ2R", "dateTime": 1516642019621}, {"current_trial": 110, "trialdata": {"rt": -1, "trial_type": "single-stim", "word": "county", "stimulus": "<p id=\"stim\">COUNTY</p>", "conditions": [24, 800, "v", 24000], "internal_node_id": "0.0-83.0", "trial": 2, "time_elapsed": 767051, "serialpos": 21, "key_press": -1, "wordID": 388, "type": "PRES_VIS", "trial_index": 110}, "uniqueid": "MTK1992:30ZX6P7VF92IEKPCATDOXOSG25PJ2R", "dateTime": 1516642021279}, {"current_trial": 111, "trialdata": {"rt": -1, "trial_type": "single-stim", "word": "leader", "stimulus": "<p id=\"stim\">LEADER</p>", "conditions": [24, 800, "v", 24000], "internal_node_id": "0.0-84.0", "trial": 2, "time_elapsed": 768887, "serialpos": 22, "key_press": -1, "wordID": 806, "type": "PRES_VIS", "trial_index": 111}, "uniqueid": "MTK1992:30ZX6P7VF92IEKPCATDOXOSG25PJ2R", "dateTime": 1516642023115}, {"current_trial": 112, "trialdata": {"rt": -1, "trial_type": "single-stim", "word": "racket", "stimulus": "<p id=\"stim\">RACKET</p>", "conditions": [24, 800, "v", 24000], "internal_node_id": "0.0-85.0", "trial": 2, "time_elapsed": 770576, "serialpos": 23, "key_press": -1, "wordID": 1154, "type": "PRES_VIS", "trial_index": 112}, "uniqueid": "MTK1992:30ZX6P7VF92IEKPCATDOXOSG25PJ2R", "dateTime": 1516642024804}, {"current_trial": 113, "trialdata": {"rt": -1, "trial_type": "single-stim", "stimulus": "", "internal_node_id": "0.0-86.0-0.0", "time_elapsed": 772804, "key_press": -1, "type": "PRE_RECALL_DELAY", "trial_index": 113}, "uniqueid": "MTK1992:30ZX6P7VF92IEKPCATDOXOSG25PJ2R", "dateTime": 1516642027032}, {"current_trial": 114, "trialdata": {"rt": -1000, "trial_type": "single-audio", "stimulus": "/static/audio/400Hz.wav", "internal_node_id": "0.0-87.0", "time_elapsed": 773308, "key_press": -1, "type": "PRE_RECALL_ALERT", "trial_index": 114}, "uniqueid": "MTK1992:30ZX6P7VF92IEKPCATDOXOSG25PJ2R", "dateTime": 1516642027536}, {"current_trial": 115, "trialdata": {"rt": [1753, 3108, 5286, 6558], "recwords": ["hike", "gallon", "valley", "lake"], "key_times": [1095, 1270, 1444, 1584, 1753, 2045, 2217, 2411, 2545, 2735, 2908, 3108, 3320, 3541, 3694, 3812, 4008, 4278, 4639, 4797, 4928, 5063, 5286, 5613, 5745, 5896, 6045, 6558], "trial_type": "free-recall", "conditions": [24, 800, "v", 24000], "internal_node_id": "0.0-88.0-0.0", "key_presses": [72, 73, 75, 69, 13, 71, 65, 76, 76, 79, 78, 13, 86, 65, 76, 76, 89, 69, 8, 8, 69, 89, 13, 76, 65, 75, 69, 13], "trial": 2, "time_elapsed": 833312, "type": "FREE_RECALL", "trial_index": 115}, "uniqueid": "MTK1992:30ZX6P7VF92IEKPCATDOXOSG25PJ2R", "dateTime": 1516642087542}, {"current_trial": 116, "trialdata": {"rt": 883, "trial_type": "text", "internal_node_id": "0.0-89.0", "time_elapsed": 836198, "key_press": 75, "type": "INSTRUCTIONS", "trial_index": 116}, "uniqueid": "MTK1992:30ZX6P7VF92IEKPCATDOXOSG25PJ2R", "dateTime": 1516642090426}, {"current_trial": 117, "trialdata": {"rt": [2804, 4671, 9227], "trial_type": "math-distractor", "key_times": [2484, 2804, 4342, 4534, 4671, 8283, 8977, 9227, 11830, 11944], "responses": ["8", "14", "21"], "num2": [3, 5, 7, 1], "num3": [1, 1, 6, 6], "conditions": [24, 800, "v", 12000], "internal_node_id": "0.0-90.0", "key_presses": [56, 13, 49, 52, 13, 50, 49, 13, 49, 48], "trial": 3, "time_elapsed": 850203, "type": "DISTRACTOR", "trial_index": 117, "num1": [4, 8, 8, 3]}, "uniqueid": "MTK1992:30ZX6P7VF92IEKPCATDOXOSG25PJ2R", "dateTime": 1516642104431}, {"current_trial": 118, "trialdata": {"rt": -1, "trial_type": "single-stim", "stimulus": "<p id=\"stim\">10</p>", "internal_node_id": "0.0-91.0-0.0", "time_elapsed": 853206, "key_press": -1, "trial_index": 118}, "uniqueid": "MTK1992:30ZX6P7VF92IEKPCATDOXOSG25PJ2R", "dateTime": 1516642107434}, {"current_trial": 119, "trialdata": {"rt": -1, "trial_type": "single-stim", "stimulus": "<p id=\"stim\">9</p>", "internal_node_id": "0.0-91.0-1.0", "time_elapsed": 854207, "key_press": -1, "trial_index": 119}, "uniqueid": "MTK1992:30ZX6P7VF92IEKPCATDOXOSG25PJ2R", "dateTime": 1516642108435}, {"current_trial": 120, "trialdata": {"rt": -1, "trial_type": "single-stim", "stimulus": "<p id=\"stim\">8</p>", "internal_node_id": "0.0-91.0-2.0", "time_elapsed": 855208, "key_press": -1, "trial_index": 120}, "uniqueid": "MTK1992:30ZX6P7VF92IEKPCATDOXOSG25PJ2R", "dateTime": 1516642109436}, {"current_trial": 121, "trialdata": {"rt": -1, "trial_type": "single-stim", "stimulus": "<p id=\"stim\">7</p>", "internal_node_id": "0.0-91.0-3.0", "time_elapsed": 856211, "key_press": -1, "trial_index": 121}, "uniqueid": "MTK1992:30ZX6P7VF92IEKPCATDOXOSG25PJ2R", "dateTime": 1516642110439}, {"current_trial": 122, "trialdata": {"rt": -1, "trial_type": "single-stim", "stimulus": "<p id=\"stim\">6</p>", "internal_node_id": "0.0-91.0-4.0", "time_elapsed": 857213, "key_press": -1, "trial_index": 122}, "uniqueid": "MTK1992:30ZX6P7VF92IEKPCATDOXOSG25PJ2R", "dateTime": 1516642111441}, {"current_trial": 123, "trialdata": {"rt": -1, "trial_type": "single-stim", "stimulus": "<p id=\"stim\">5</p>", "internal_node_id": "0.0-91.0-5.0", "time_elapsed": 858215, "key_press": -1, "trial_index": 123}, "uniqueid": "MTK1992:30ZX6P7VF92IEKPCATDOXOSG25PJ2R", "dateTime": 1516642112443}, {"current_trial": 124, "trialdata": {"rt": -1, "trial_type": "single-stim", "stimulus": "<p id=\"stim\">4</p>", "internal_node_id": "0.0-91.0-6.0", "time_elapsed": 859217, "key_press": -1, "trial_index": 124}, "uniqueid": "MTK1992:30ZX6P7VF92IEKPCATDOXOSG25PJ2R", "dateTime": 1516642113445}, {"current_trial": 125, "trialdata": {"rt": -1, "trial_type": "single-stim", "stimulus": "<p id=\"stim\">3</p>", "internal_node_id": "0.0-91.0-7.0", "time_elapsed": 860219, "key_press": -1, "trial_index": 125}, "uniqueid": "MTK1992:30ZX6P7VF92IEKPCATDOXOSG25PJ2R", "dateTime": 1516642114447}, {"current_trial": 126, "trialdata": {"rt": -1, "trial_type": "single-stim", "stimulus": "<p id=\"stim\">2</p>", "internal_node_id": "0.0-91.0-8.0", "time_elapsed": 861221, "key_press": -1, "trial_index": 126}, "uniqueid": "MTK1992:30ZX6P7VF92IEKPCATDOXOSG25PJ2R", "dateTime": 1516642115449}, {"current_trial": 127, "trialdata": {"rt": -1, "trial_type": "single-stim", "stimulus": "<p id=\"stim\">1</p>", "internal_node_id": "0.0-91.0-9.0", "time_elapsed": 862223, "key_press": -1, "trial_index": 127}, "uniqueid": "MTK1992:30ZX6P7VF92IEKPCATDOXOSG25PJ2R", "dateTime": 1516642116451}, {"current_trial": 128, "trialdata": {"rt": -1, "trial_type": "single-stim", "stimulus": "<p id=\"stim\">+</p>", "internal_node_id": "0.0-92.0-0.0", "time_elapsed": 863726, "key_press": -1, "type": "FIXATION", "trial_index": 128}, "uniqueid": "MTK1992:30ZX6P7VF92IEKPCATDOXOSG25PJ2R", "dateTime": 1516642117954}, {"current_trial": 129, "trialdata": {"rt": -1, "trial_type": "single-stim", "word": "pasta", "stimulus": "<p id=\"stim\">PASTA</p>", "conditions": [24, 800, "v", 12000], "internal_node_id": "0.0-93.0", "trial": 3, "time_elapsed": 864528, "serialpos": 0, "key_press": -1, "wordID": 1020, "type": "PRES_VIS", "trial_index": 129}, "uniqueid": "MTK1992:30ZX6P7VF92IEKPCATDOXOSG25PJ2R", "dateTime": 1516642118756}, {"current_trial": 130, "trialdata": {"rt": -1, "trial_type": "single-stim", "word": "denim", "stimulus": "<p id=\"stim\">DENIM</p>", "conditions": [24, 800, "v", 12000], "internal_node_id": "0.0-94.0", "trial": 3, "time_elapsed": 866188, "serialpos": 1, "key_press": -1, "wordID": 445, "type": "PRES_VIS", "trial_index": 130}, "uniqueid": "MTK1992:30ZX6P7VF92IEKPCATDOXOSG25PJ2R", "dateTime": 1516642120416}, {"current_trial": 131, "trialdata": {"rt": -1, "trial_type": "single-stim", "word": "gift", "stimulus": "<p id=\"stim\">GIFT</p>", "conditions": [24, 800, "v", 12000], "internal_node_id": "0.0-95.0", "trial": 3, "time_elapsed": 867832, "serialpos": 2, "key_press": -1, "wordID": 634, "type": "PRES_VIS", "trial_index": 131}, "uniqueid": "MTK1992:30ZX6P7VF92IEKPCATDOXOSG25PJ2R", "dateTime": 1516642122060}, {"current_trial": 132, "trialdata": {"rt": -1, "trial_type": "single-stim", "word": "costume", "stimulus": "<p id=\"stim\">COSTUME</p>", "conditions": [24, 800, "v", 12000], "internal_node_id": "0.0-96.0", "trial": 3, "time_elapsed": 869612, "serialpos": 3, "key_press": -1, "wordID": 382, "type": "PRES_VIS", "trial_index": 132}, "uniqueid": "MTK1992:30ZX6P7VF92IEKPCATDOXOSG25PJ2R", "dateTime": 1516642123841}, {"current_trial": 133, "trialdata": {"rt": -1, "trial_type": "single-stim", "word": "package", "stimulus": "<p id=\"stim\">PACKAGE</p>", "conditions": [24, 800, "v", 12000], "internal_node_id": "0.0-97.0", "trial": 3, "time_elapsed": 871217, "serialpos": 4, "key_press": -1, "wordID": 996, "type": "PRES_VIS", "trial_index": 133}, "uniqueid": "MTK1992:30ZX6P7VF92IEKPCATDOXOSG25PJ2R", "dateTime": 1516642125446}, {"current_trial": 134, "trialdata": {"rt": -1, "trial_type": "single-stim", "word": "supper", "stimulus": "<p id=\"stim\">SUPPER</p>", "conditions": [24, 800, "v", 12000], "internal_node_id": "0.0-98.0", "trial": 3, "time_elapsed": 873062, "serialpos": 5, "key_press": -1, "wordID": 1410, "type": "PRES_VIS", "trial_index": 134}, "uniqueid": "MTK1992:30ZX6P7VF92IEKPCATDOXOSG25PJ2R", "dateTime": 1516642127290}, {"current_trial": 135, "trialdata": {"rt": -1, "trial_type": "single-stim", "word": "banquet", "stimulus": "<p id=\"stim\">BANQUET</p>", "conditions": [24, 800, "v", 12000], "internal_node_id": "0.0-99.0", "trial": 3, "time_elapsed": 874680, "serialpos": 6, "key_press": -1, "wordID": 85, "type": "PRES_VIS", "trial_index": 135}, "uniqueid": "MTK1992:30ZX6P7VF92IEKPCATDOXOSG25PJ2R", "dateTime": 1516642128908}, {"current_trial": 136, "trialdata": {"rt": -1, "trial_type": "single-stim", "word": "dress", "stimulus": "<p id=\"stim\">DRESS</p>", "conditions": [24, 800, "v", 12000], "internal_node_id": "0.0-100.0", "trial": 3, "time_elapsed": 876553, "serialpos": 7, "key_press": -1, "wordID": 494, "type": "PRES_VIS", "trial_index": 136}, "uniqueid": "MTK1992:30ZX6P7VF92IEKPCATDOXOSG25PJ2R", "dateTime": 1516642130782}, {"current_trial": 137, "trialdata": {"rt": -1, "trial_type": "single-stim", "word": "binder", "stimulus": "<p id=\"stim\">BINDER</p>", "conditions": [24, 800, "v", 12000], "internal_node_id": "0.0-101.0", "trial": 3, "time_elapsed": 878292, "serialpos": 8, "key_press": -1, "wordID": 126, "type": "PRES_VIS", "trial_index": 137}, "uniqueid": "MTK1992:30ZX6P7VF92IEKPCATDOXOSG25PJ2R", "dateTime": 1516642132520}, {"current_trial": 138, "trialdata": {"rt": -1, "trial_type": "single-stim", "word": "thread", "stimulus": "<p id=\"stim\">THREAD</p>", "conditions": [24, 800, "v", 12000], "internal_node_id": "0.0-102.0", "trial": 3, "time_elapsed": 880080, "serialpos": 9, "key_press": -1, "wordID": 1459, "type": "PRES_VIS", "trial_index": 138}, "uniqueid": "MTK1992:30ZX6P7VF92IEKPCATDOXOSG25PJ2R", "dateTime": 1516642134308}, {"current_trial": 139, "trialdata": {"rt": -1, "trial_type": "single-stim", "word": "proton", "stimulus": "<p id=\"stim\">PROTON</p>", "conditions": [24, 800, "v", 12000], "internal_node_id": "0.0-103.0", "trial": 3, "time_elapsed": 881981, "serialpos": 10, "key_press": -1, "wordID": 1131, "type": "PRES_VIS", "trial_index": 139}, "uniqueid": "MTK1992:30ZX6P7VF92IEKPCATDOXOSG25PJ2R", "dateTime": 1516642136209}, {"current_trial": 140, "trialdata": {"rt": -1, "trial_type": "single-stim", "word": "coffee", "stimulus": "<p id=\"stim\">COFFEE</p>", "conditions": [24, 800, "v", 12000], "internal_node_id": "0.0-104.0", "trial": 3, "time_elapsed": 883802, "serialpos": 11, "key_press": -1, "wordID": 340, "type": "PRES_VIS", "trial_index": 140}, "uniqueid": "MTK1992:30ZX6P7VF92IEKPCATDOXOSG25PJ2R", "dateTime": 1516642138030}, {"current_trial": 141, "trialdata": {"rt": -1, "trial_type": "single-stim", "word": "chipmunk", "stimulus": "<p id=\"stim\">CHIPMUNK</p>", "conditions": [24, 800, "v", 12000], "internal_node_id": "0.0-105.0", "trial": 3, "time_elapsed": 885771, "serialpos": 12, "key_press": -1, "wordID": 303, "type": "PRES_VIS", "trial_index": 141}, "uniqueid": "MTK1992:30ZX6P7VF92IEKPCATDOXOSG25PJ2R", "dateTime": 1516642140000}, {"current_trial": 142, "trialdata": {"rt": -1, "trial_type": "single-stim", "word": "pilot", "stimulus": "<p id=\"stim\">PILOT</p>", "conditions": [24, 800, "v", 12000], "internal_node_id": "0.0-106.0", "trial": 3, "time_elapsed": 887762, "serialpos": 13, "key_press": -1, "wordID": 1069, "type": "PRES_VIS", "trial_index": 142}, "uniqueid": "MTK1992:30ZX6P7VF92IEKPCATDOXOSG25PJ2R", "dateTime": 1516642141990}, {"current_trial": 143, "trialdata": {"rt": -1, "trial_type": "single-stim", "word": "banker", "stimulus": "<p id=\"stim\">BANKER</p>", "conditions": [24, 800, "v", 12000], "internal_node_id": "0.0-107.0", "trial": 3, "time_elapsed": 889653, "serialpos": 14, "key_press": -1, "wordID": 83, "type": "PRES_VIS", "trial_index": 143}, "uniqueid": "MTK1992:30ZX6P7VF92IEKPCATDOXOSG25PJ2R", "dateTime": 1516642143882}, {"current_trial": 144, "trialdata": {"rt": -1, "trial_type": "single-stim", "word": "freckle", "stimulus": "<p id=\"stim\">FRECKLE</p>", "conditions": [24, 800, "v", 12000], "internal_node_id": "0.0-108.0", "trial": 3, "time_elapsed": 891442, "serialpos": 15, "key_press": -1, "wordID": 601, "type": "PRES_VIS", "trial_index": 144}, "uniqueid": "MTK1992:30ZX6P7VF92IEKPCATDOXOSG25PJ2R", "dateTime": 1516642145670}, {"current_trial": 145, "trialdata": {"rt": -1, "trial_type": "single-stim", "word": "parrot", "stimulus": "<p id=\"stim\">PARROT</p>", "conditions": [24, 800, "v", 12000], "internal_node_id": "0.0-109.0", "trial": 3, "time_elapsed": 893257, "serialpos": 16, "key_press": -1, "wordID": 1014, "type": "PRES_VIS", "trial_index": 145}, "uniqueid": "MTK1992:30ZX6P7VF92IEKPCATDOXOSG25PJ2R", "dateTime": 1516642147485}, {"current_trial": 146, "trialdata": {"rt": -1, "trial_type": "single-stim", "word": "gangster", "stimulus": "<p id=\"stim\">GANGSTER</p>", "conditions": [24, 800, "v", 12000], "internal_node_id": "0.0-110.0", "trial": 3, "time_elapsed": 895155, "serialpos": 17, "key_press": -1, "wordID": 619, "type": "PRES_VIS", "trial_index": 146}, "uniqueid": "MTK1992:30ZX6P7VF92IEKPCATDOXOSG25PJ2R", "dateTime": 1516642149383}, {"current_trial": 147, "trialdata": {"rt": -1, "trial_type": "single-stim", "word": "tombstone", "stimulus": "<p id=\"stim\">TOMBSTONE</p>", "conditions": [24, 800, "v", 12000], "internal_node_id": "0.0-111.0", "trial": 3, "time_elapsed": 896822, "serialpos": 18, "key_press": -1, "wordID": 1477, "type": "PRES_VIS", "trial_index": 147}, "uniqueid": "MTK1992:30ZX6P7VF92IEKPCATDOXOSG25PJ2R", "dateTime": 1516642151051}, {"current_trial": 148, "trialdata": {"rt": -1, "trial_type": "single-stim", "word": "statue", "stimulus": "<p id=\"stim\">STATUE</p>", "conditions": [24, 800, "v", 12000], "internal_node_id": "0.0-112.0", "trial": 3, "time_elapsed": 898778, "serialpos": 19, "key_press": -1, "wordID": 1373, "type": "PRES_VIS", "trial_index": 148}, "uniqueid": "MTK1992:30ZX6P7VF92IEKPCATDOXOSG25PJ2R", "dateTime": 1516642153006}, {"current_trial": 149, "trialdata": {"rt": -1, "trial_type": "single-stim", "word": "picture", "stimulus": "<p id=\"stim\">PICTURE</p>", "conditions": [24, 800, "v", 12000], "internal_node_id": "0.0-113.0", "trial": 3, "time_elapsed": 900522, "serialpos": 20, "key_press": -1, "wordID": 1060, "type": "PRES_VIS", "trial_index": 149}, "uniqueid": "MTK1992:30ZX6P7VF92IEKPCATDOXOSG25PJ2R", "dateTime": 1516642154751}, {"current_trial": 150, "trialdata": {"rt": -1, "trial_type": "single-stim", "word": "pimple", "stimulus": "<p id=\"stim\">PIMPLE</p>", "conditions": [24, 800, "v", 12000], "internal_node_id": "0.0-114.0", "trial": 3, "time_elapsed": 902336, "serialpos": 21, "key_press": -1, "wordID": 1070, "type": "PRES_VIS", "trial_index": 150}, "uniqueid": "MTK1992:30ZX6P7VF92IEKPCATDOXOSG25PJ2R", "dateTime": 1516642156564}, {"current_trial": 151, "trialdata": {"rt": -1, "trial_type": "single-stim", "word": "snake", "stimulus": "<p id=\"stim\">SNAKE</p>", "conditions": [24, 800, "v", 12000], "internal_node_id": "0.0-115.0", "trial": 3, "time_elapsed": 904265, "serialpos": 22, "key_press": -1, "wordID": 1332, "type": "PRES_VIS", "trial_index": 151}, "uniqueid": "MTK1992:30ZX6P7VF92IEKPCATDOXOSG25PJ2R", "dateTime": 1516642158493}, {"current_trial": 152, "trialdata": {"rt": -1, "trial_type": "single-stim", "word": "breast", "stimulus": "<p id=\"stim\">BREAST</p>", "conditions": [24, 800, "v", 12000], "internal_node_id": "0.0-116.0", "trial": 3, "time_elapsed": 905924, "serialpos": 23, "key_press": -1, "wordID": 170, "type": "PRES_VIS", "trial_index": 152}, "uniqueid": "MTK1992:30ZX6P7VF92IEKPCATDOXOSG25PJ2R", "dateTime": 1516642160152}, {"current_trial": 153, "trialdata": {"rt": -1, "trial_type": "single-stim", "stimulus": "", "internal_node_id": "0.0-117.0-0.0", "time_elapsed": 908153, "key_press": -1, "type": "PRE_RECALL_DELAY", "trial_index": 153}, "uniqueid": "MTK1992:30ZX6P7VF92IEKPCATDOXOSG25PJ2R", "dateTime": 1516642162382}, {"current_trial": 154, "trialdata": {"rt": -1000, "trial_type": "single-audio", "stimulus": "/static/audio/400Hz.wav", "internal_node_id": "0.0-118.0", "time_elapsed": 908655, "key_press": -1, "type": "PRE_RECALL_ALERT", "trial_index": 154}, "uniqueid": "MTK1992:30ZX6P7VF92IEKPCATDOXOSG25PJ2R", "dateTime": 1516642162883}, {"current_trial": 155, "trialdata": {"rt": [2245, 3511, 4718, 9772, 15322, 47828, 50848], "recwords": ["pasta", "dinner", "gift", "snake", "gallon", "pimple", "purple"], "key_times": [1390, 1482, 1647, 1854, 2050, 2245, 2672, 2794, 2966, 3115, 3177, 3343, 3511, 3739, 3898, 4031, 4261, 4718, 7786, 7946, 8101, 8247, 8459, 9772, 13939, 14135, 14272, 14438, 14628, 14841, 15322, 46359, 46692, 46930, 47369, 47567, 47667, 47828, 49730, 49919, 50204, 50357, 50554, 50710, 50848], "trial_type": "free-recall", "conditions": [24, 800, "v", 12000], "internal_node_id": "0.0-119.0-0.0", "key_presses": [80, 65, 83, 84, 65, 13, 68, 73, 78, 78, 69, 82, 13, 71, 73, 70, 84, 13, 83, 78, 65, 75, 69, 13, 71, 65, 76, 76, 79, 78, 13, 80, 73, 77, 80, 76, 69, 13, 80, 85, 82, 80, 76, 69, 13], "trial": 3, "time_elapsed": 968658, "type": "FREE_RECALL", "trial_index": 155}, "uniqueid": "MTK1992:30ZX6P7VF92IEKPCATDOXOSG25PJ2R", "dateTime": 1516642222891}, {"current_trial": 156, "trialdata": {"rt": 537, "trial_type": "text", "internal_node_id": "0.0-120.0", "time_elapsed": 971203, "key_press": 68, "type": "INSTRUCTIONS", "trial_index": 156}, "uniqueid": "MTK1992:30ZX6P7VF92IEKPCATDOXOSG25PJ2R", "dateTime": 1516642225431}, {"current_trial": 157, "trialdata": {"rt": [3060, 6820, 9520, 12395, 15126, 17097, 19317], "trial_type": "math-distractor", "key_times": [2604, 2764, 3060, 5007, 5753, 6268, 6531, 6820, 9105, 9350, 9520, 11530, 12163, 12395, 14622, 14838, 15126, 16665, 16873, 17097, 18748, 19068, 19317, 22464, 23264], "responses": ["17", "15", "13", "19", "17", "13", "15"], "num2": [5, 5, 4, 7, 4, 5, 7, 8], "num3": [3, 7, 5, 3, 8, 3, 6, 6], "conditions": [24, 1600, "v", 24000], "internal_node_id": "0.0-121.0", "key_presses": [49, 55, 13, 49, 8, 49, 53, 13, 49, 51, 13, 49, 57, 13, 49, 55, 13, 49, 51, 13, 49, 53, 13, 50, 52], "trial": 4, "time_elapsed": 997206, "type": "DISTRACTOR", "trial_index": 157, "num1": [9, 3, 3, 9, 5, 5, 2, 8]}, "uniqueid": "MTK1992:30ZX6P7VF92IEKPCATDOXOSG25PJ2R", "dateTime": 1516642251435}, {"current_trial": 158, "trialdata": {"rt": -1, "trial_type": "single-stim", "stimulus": "<p id=\"stim\">10</p>", "internal_node_id": "0.0-122.0-0.0", "time_elapsed": 1000209, "key_press": -1, "trial_index": 158}, "uniqueid": "MTK1992:30ZX6P7VF92IEKPCATDOXOSG25PJ2R", "dateTime": 1516642254437}, {"current_trial": 159, "trialdata": {"rt": -1, "trial_type": "single-stim", "stimulus": "<p id=\"stim\">9</p>", "internal_node_id": "0.0-122.0-1.0", "time_elapsed": 1001212, "key_press": -1, "trial_index": 159}, "uniqueid": "MTK1992:30ZX6P7VF92IEKPCATDOXOSG25PJ2R", "dateTime": 1516642255440}, {"current_trial": 160, "trialdata": {"rt": -1, "trial_type": "single-stim", "stimulus": "<p id=\"stim\">8</p>", "internal_node_id": "0.0-122.0-2.0", "time_elapsed": 1002213, "key_press": -1, "trial_index": 160}, "uniqueid": "MTK1992:30ZX6P7VF92IEKPCATDOXOSG25PJ2R", "dateTime": 1516642256443}, {"current_trial": 161, "trialdata": {"rt": -1, "trial_type": "single-stim", "stimulus": "<p id=\"stim\">7</p>", "internal_node_id": "0.0-122.0-3.0", "time_elapsed": 1003216, "key_press": -1, "trial_index": 161}, "uniqueid": "MTK1992:30ZX6P7VF92IEKPCATDOXOSG25PJ2R", "dateTime": 1516642257445}, {"current_trial": 162, "trialdata": {"rt": -1, "trial_type": "single-stim", "stimulus": "<p id=\"stim\">6</p>", "internal_node_id": "0.0-122.0-4.0", "time_elapsed": 1004219, "key_press": -1, "trial_index": 162}, "uniqueid": "MTK1992:30ZX6P7VF92IEKPCATDOXOSG25PJ2R", "dateTime": 1516642258447}, {"current_trial": 163, "trialdata": {"rt": -1, "trial_type": "single-stim", "stimulus": "<p id=\"stim\">5</p>", "internal_node_id": "0.0-122.0-5.0", "time_elapsed": 1005221, "key_press": -1, "trial_index": 163}, "uniqueid": "MTK1992:30ZX6P7VF92IEKPCATDOXOSG25PJ2R", "dateTime": 1516642259449}, {"current_trial": 164, "trialdata": {"rt": -1, "trial_type": "single-stim", "stimulus": "<p id=\"stim\">4</p>", "internal_node_id": "0.0-122.0-6.0", "time_elapsed": 1006222, "key_press": -1, "trial_index": 164}, "uniqueid": "MTK1992:30ZX6P7VF92IEKPCATDOXOSG25PJ2R", "dateTime": 1516642260451}, {"current_trial": 165, "trialdata": {"rt": -1, "trial_type": "single-stim", "stimulus": "<p id=\"stim\">3</p>", "internal_node_id": "0.0-122.0-7.0", "time_elapsed": 1007225, "key_press": -1, "trial_index": 165}, "uniqueid": "MTK1992:30ZX6P7VF92IEKPCATDOXOSG25PJ2R", "dateTime": 1516642261453}, {"current_trial": 166, "trialdata": {"rt": -1, "trial_type": "single-stim", "stimulus": "<p id=\"stim\">2</p>", "internal_node_id": "0.0-122.0-8.0", "time_elapsed": 1008238, "key_press": -1, "trial_index": 166}, "uniqueid": "MTK1992:30ZX6P7VF92IEKPCATDOXOSG25PJ2R", "dateTime": 1516642262467}, {"current_trial": 167, "trialdata": {"rt": -1, "trial_type": "single-stim", "stimulus": "<p id=\"stim\">1</p>", "internal_node_id": "0.0-122.0-9.0", "time_elapsed": 1009240, "key_press": -1, "trial_index": 167}, "uniqueid": "MTK1992:30ZX6P7VF92IEKPCATDOXOSG25PJ2R", "dateTime": 1516642263469}, {"current_trial": 168, "trialdata": {"rt": -1, "trial_type": "single-stim", "stimulus": "<p id=\"stim\">+</p>", "internal_node_id": "0.0-123.0-0.0", "time_elapsed": 1010742, "key_press": -1, "type": "FIXATION", "trial_index": 168}, "uniqueid": "MTK1992:30ZX6P7VF92IEKPCATDOXOSG25PJ2R", "dateTime": 1516642264970}, {"current_trial": 169, "trialdata": {"rt": -1, "trial_type": "single-stim", "word": "crown", "stimulus": "<p id=\"stim\">CROWN</p>", "conditions": [24, 1600, "v", 24000], "internal_node_id": "0.0-124.0", "trial": 4, "time_elapsed": 1012344, "serialpos": 0, "key_press": -1, "wordID": 414, "type": "PRES_VIS", "trial_index": 169}, "uniqueid": "MTK1992:30ZX6P7VF92IEKPCATDOXOSG25PJ2R", "dateTime": 1516642266572}, {"current_trial": 170, "trialdata": {"rt": -1, "trial_type": "single-stim", "word": "empire", "stimulus": "<p id=\"stim\">EMPIRE</p>", "conditions": [24, 1600, "v", 24000], "internal_node_id": "0.0-125.0", "trial": 4, "time_elapsed": 1015124, "serialpos": 1, "key_press": -1, "wordID": 529, "type": "PRES_VIS", "trial_index": 170}, "uniqueid": "MTK1992:30ZX6P7VF92IEKPCATDOXOSG25PJ2R", "dateTime": 1516642269353}, {"current_trial": 171, "trialdata": {"rt": -1, "trial_type": "single-stim", "word": "goblin", "stimulus": "<p id=\"stim\">GOBLIN</p>", "conditions": [24, 1600, "v", 24000], "internal_node_id": "0.0-126.0", "trial": 4, "time_elapsed": 1017652, "serialpos": 2, "key_press": -1, "wordID": 644, "type": "PRES_VIS", "trial_index": 171}, "uniqueid": "MTK1992:30ZX6P7VF92IEKPCATDOXOSG25PJ2R", "dateTime": 1516642271880}, {"current_trial": 172, "trialdata": {"rt": -1, "trial_type": "single-stim", "word": "catcher", "stimulus": "<p id=\"stim\">CATCHER</p>", "conditions": [24, 1600, "v", 24000], "internal_node_id": "0.0-127.0", "trial": 4, "time_elapsed": 1020390, "serialpos": 3, "key_press": -1, "wordID": 257, "type": "PRES_VIS", "trial_index": 172}, "uniqueid": "MTK1992:30ZX6P7VF92IEKPCATDOXOSG25PJ2R", "dateTime": 1516642274618}, {"current_trial": 173, "trialdata": {"rt": -1, "trial_type": "single-stim", "word": "guard", "stimulus": "<p id=\"stim\">GUARD</p>", "conditions": [24, 1600, "v", 24000], "internal_node_id": "0.0-128.0", "trial": 4, "time_elapsed": 1022924, "serialpos": 4, "key_press": -1, "wordID": 666, "type": "PRES_VIS", "trial_index": 173}, "uniqueid": "MTK1992:30ZX6P7VF92IEKPCATDOXOSG25PJ2R", "dateTime": 1516642277152}, {"current_trial": 174, "trialdata": {"rt": -1, "trial_type": "single-stim", "word": "popcorn", "stimulus": "<p id=\"stim\">POPCORN</p>", "conditions": [24, 1600, "v", 24000], "internal_node_id": "0.0-129.0", "trial": 4, "time_elapsed": 1025360, "serialpos": 5, "key_press": -1, "wordID": 1103, "type": "PRES_VIS", "trial_index": 174}, "uniqueid": "MTK1992:30ZX6P7VF92IEKPCATDOXOSG25PJ2R", "dateTime": 1516642279588}, {"current_trial": 175, "trialdata": {"rt": -1, "trial_type": "single-stim", "word": "wrist", "stimulus": "<p id=\"stim\">WRIST</p>", "conditions": [24, 1600, "v", 24000], "internal_node_id": "0.0-130.0", "trial": 4, "time_elapsed": 1027914, "serialpos": 6, "key_press": -1, "wordID": 1625, "type": "PRES_VIS", "trial_index": 175}, "uniqueid": "MTK1992:30ZX6P7VF92IEKPCATDOXOSG25PJ2R", "dateTime": 1516642282142}, {"current_trial": 176, "trialdata": {"rt": -1, "trial_type": "single-stim", "word": "dragon", "stimulus": "<p id=\"stim\">DRAGON</p>", "conditions": [24, 1600, "v", 24000], "internal_node_id": "0.0-131.0", "trial": 4, "time_elapsed": 1030547, "serialpos": 7, "key_press": -1, "wordID": 491, "type": "PRES_VIS", "trial_index": 176}, "uniqueid": "MTK1992:30ZX6P7VF92IEKPCATDOXOSG25PJ2R", "dateTime": 1516642284776}, {"current_trial": 177, "trialdata": {"rt": -1, "trial_type": "single-stim", "word": "velvet", "stimulus": "<p id=\"stim\">VELVET</p>", "conditions": [24, 1600, "v", 24000], "internal_node_id": "0.0-132.0", "trial": 4, "time_elapsed": 1033181, "serialpos": 8, "key_press": -1, "wordID": 1554, "type": "PRES_VIS", "trial_index": 177}, "uniqueid": "MTK1992:30ZX6P7VF92IEKPCATDOXOSG25PJ2R", "dateTime": 1516642287409}, {"current_trial": 178, "trialdata": {"rt": -1, "trial_type": "single-stim", "word": "lace", "stimulus": "<p id=\"stim\">LACE</p>", "conditions": [24, 1600, "v", 24000], "internal_node_id": "0.0-133.0", "trial": 4, "time_elapsed": 1035920, "serialpos": 9, "key_press": -1, "wordID": 791, "type": "PRES_VIS", "trial_index": 178}, "uniqueid": "MTK1992:30ZX6P7VF92IEKPCATDOXOSG25PJ2R", "dateTime": 1516642290149}, {"current_trial": 179, "trialdata": {"rt": -1, "trial_type": "single-stim", "word": "partner", "stimulus": "<p id=\"stim\">PARTNER</p>", "conditions": [24, 1600, "v", 24000], "internal_node_id": "0.0-134.0", "trial": 4, "time_elapsed": 1038562, "serialpos": 10, "key_press": -1, "wordID": 1016, "type": "PRES_VIS", "trial_index": 179}, "uniqueid": "MTK1992:30ZX6P7VF92IEKPCATDOXOSG25PJ2R", "dateTime": 1516642292791}, {"current_trial": 180, "trialdata": {"rt": -1, "trial_type": "single-stim", "word": "award", "stimulus": "<p id=\"stim\">AWARD</p>", "conditions": [24, 1600, "v", 24000], "internal_node_id": "0.0-135.0", "trial": 4, "time_elapsed": 1040978, "serialpos": 11, "key_press": -1, "wordID": 62, "type": "PRES_VIS", "trial_index": 180}, "uniqueid": "MTK1992:30ZX6P7VF92IEKPCATDOXOSG25PJ2R", "dateTime": 1516642295207}, {"current_trial": 181, "trialdata": {"rt": -1, "trial_type": "single-stim", "word": "handbag", "stimulus": "<p id=\"stim\">HANDBAG</p>", "conditions": [24, 1600, "v", 24000], "internal_node_id": "0.0-136.0", "trial": 4, "time_elapsed": 1043382, "serialpos": 12, "key_press": -1, "wordID": 683, "type": "PRES_VIS", "trial_index": 181}, "uniqueid": "MTK1992:30ZX6P7VF92IEKPCATDOXOSG25PJ2R", "dateTime": 1516642297610}, {"current_trial": 182, "trialdata": {"rt": -1, "trial_type": "single-stim", "word": "briefcase", "stimulus": "<p id=\"stim\">BRIEFCASE</p>", "conditions": [24, 1600, "v", 24000], "internal_node_id": "0.0-137.0", "trial": 4, "time_elapsed": 1045863, "serialpos": 13, "key_press": -1, "wordID": 174, "type": "PRES_VIS", "trial_index": 182}, "uniqueid": "MTK1992:30ZX6P7VF92IEKPCATDOXOSG25PJ2R", "dateTime": 1516642300091}, {"current_trial": 183, "trialdata": {"rt": -1, "trial_type": "single-stim", "word": "report", "stimulus": "<p id=\"stim\">REPORT</p>", "conditions": [24, 1600, "v", 24000], "internal_node_id": "0.0-138.0", "trial": 4, "time_elapsed": 1048659, "serialpos": 14, "key_press": -1, "wordID": 1183, "type": "PRES_VIS", "trial_index": 183}, "uniqueid": "MTK1992:30ZX6P7VF92IEKPCATDOXOSG25PJ2R", "dateTime": 1516642302887}, {"current_trial": 184, "trialdata": {"rt": -1, "trial_type": "single-stim", "word": "sword", "stimulus": "<p id=\"stim\">SWORD</p>", "conditions": [24, 1600, "v", 24000], "internal_node_id": "0.0-139.0", "trial": 4, "time_elapsed": 1051340, "serialpos": 15, "key_press": -1, "wordID": 1422, "type": "PRES_VIS", "trial_index": 184}, "uniqueid": "MTK1992:30ZX6P7VF92IEKPCATDOXOSG25PJ2R", "dateTime": 1516642305568}, {"current_trial": 185, "trialdata": {"rt": -1, "trial_type": "single-stim", "word": "icing", "stimulus": "<p id=\"stim\">ICING</p>", "conditions": [24, 1600, "v", 24000], "internal_node_id": "0.0-140.0", "trial": 4, "time_elapsed": 1053939, "serialpos": 16, "key_press": -1, "wordID": 731, "type": "PRES_VIS", "trial_index": 185}, "uniqueid": "MTK1992:30ZX6P7VF92IEKPCATDOXOSG25PJ2R", "dateTime": 1516642308167}, {"current_trial": 186, "trialdata": {"rt": -1, "trial_type": "single-stim", "word": "skirt", "stimulus": "<p id=\"stim\">SKIRT</p>", "conditions": [24, 1600, "v", 24000], "internal_node_id": "0.0-141.0", "trial": 4, "time_elapsed": 1056517, "serialpos": 17, "key_press": -1, "wordID": 1318, "type": "PRES_VIS", "trial_index": 186}, "uniqueid": "MTK1992:30ZX6P7VF92IEKPCATDOXOSG25PJ2R", "dateTime": 1516642310746}, {"current_trial": 187, "trialdata": {"rt": -1, "trial_type": "single-stim", "word": "canal", "stimulus": "<p id=\"stim\">CANAL</p>", "conditions": [24, 1600, "v", 24000], "internal_node_id": "0.0-142.0", "trial": 4, "time_elapsed": 1059168, "serialpos": 18, "key_press": -1, "wordID": 225, "type": "PRES_VIS", "trial_index": 187}, "uniqueid": "MTK1992:30ZX6P7VF92IEKPCATDOXOSG25PJ2R", "dateTime": 1516642313396}, {"current_trial": 188, "trialdata": {"rt": -1, "trial_type": "single-stim", "word": "wagon", "stimulus": "<p id=\"stim\">WAGON</p>", "conditions": [24, 1600, "v", 24000], "internal_node_id": "0.0-143.0", "trial": 4, "time_elapsed": 1061579, "serialpos": 19, "key_press": -1, "wordID": 1577, "type": "PRES_VIS", "trial_index": 188}, "uniqueid": "MTK1992:30ZX6P7VF92IEKPCATDOXOSG25PJ2R", "dateTime": 1516642315807}, {"current_trial": 189, "trialdata": {"rt": -1, "trial_type": "single-stim", "word": "marker", "stimulus": "<p id=\"stim\">MARKER</p>", "conditions": [24, 1600, "v", 24000], "internal_node_id": "0.0-144.0", "trial": 4, "time_elapsed": 1064091, "serialpos": 20, "key_press": -1, "wordID": 869, "type": "PRES_VIS", "trial_index": 189}, "uniqueid": "MTK1992:30ZX6P7VF92IEKPCATDOXOSG25PJ2R", "dateTime": 1516642318319}, {"current_trial": 190, "trialdata": {"rt": -1, "trial_type": "single-stim", "word": "lunch", "stimulus": "<p id=\"stim\">LUNCH</p>", "conditions": [24, 1600, "v", 24000], "internal_node_id": "0.0-145.0", "trial": 4, "time_elapsed": 1066555, "serialpos": 21, "key_press": -1, "wordID": 848, "type": "PRES_VIS", "trial_index": 190}, "uniqueid": "MTK1992:30ZX6P7VF92IEKPCATDOXOSG25PJ2R", "dateTime": 1516642320783}, {"current_trial": 191, "trialdata": {"rt": -1, "trial_type": "single-stim", "word": "servant", "stimulus": "<p id=\"stim\">SERVANT</p>", "conditions": [24, 1600, "v", 24000], "internal_node_id": "0.0-146.0", "trial": 4, "time_elapsed": 1069058, "serialpos": 22, "key_press": -1, "wordID": 1270, "type": "PRES_VIS", "trial_index": 191}, "uniqueid": "MTK1992:30ZX6P7VF92IEKPCATDOXOSG25PJ2R", "dateTime": 1516642323286}, {"current_trial": 192, "trialdata": {"rt": -1, "trial_type": "single-stim", "word": "knife", "stimulus": "<p id=\"stim\">KNIFE</p>", "conditions": [24, 1600, "v", 24000], "internal_node_id": "0.0-147.0", "trial": 4, "time_elapsed": 1071574, "serialpos": 23, "key_press": -1, "wordID": 784, "type": "PRES_VIS", "trial_index": 192}, "uniqueid": "MTK1992:30ZX6P7VF92IEKPCATDOXOSG25PJ2R", "dateTime": 1516642325803}, {"current_trial": 193, "trialdata": {"rt": -1, "trial_type": "single-stim", "stimulus": "", "internal_node_id": "0.0-148.0-0.0", "time_elapsed": 1073971, "key_press": -1, "type": "PRE_RECALL_DELAY", "trial_index": 193}, "uniqueid": "MTK1992:30ZX6P7VF92IEKPCATDOXOSG25PJ2R", "dateTime": 1516642328199}, {"current_trial": 194, "trialdata": {"rt": -1000, "trial_type": "single-audio", "stimulus": "/static/audio/400Hz.wav", "internal_node_id": "0.0-149.0", "time_elapsed": 1074473, "key_press": -1, "type": "PRE_RECALL_ALERT", "trial_index": 194}, "uniqueid": "MTK1992:30ZX6P7VF92IEKPCATDOXOSG25PJ2R", "dateTime": 1516642328701}, {"current_trial": 195, "trialdata": {"rt": [2298, 3685, 5780, 7611, 12862, 14566, 56712], "recwords": ["crown", "empire", "goblin", "case", "partner", "servant", "crown"], "key_times": [1297, 1527, 1703, 1843, 2034, 2298, 2549, 2813, 2964, 3137, 3278, 3436, 3685, 3944, 4088, 4494, 4870, 4985, 5137, 5302, 5468, 5780, 6800, 6980, 7163, 7355, 7611, 11547, 11670, 11821, 11994, 12169, 12302, 12477, 12862, 13241, 13407, 13566, 13731, 13928, 14064, 14199, 14566, 55863, 56077, 56229, 56353, 56488, 56712], "trial_type": "free-recall", "conditions": [24, 1600, "v", 24000], "internal_node_id": "0.0-150.0-0.0", "key_presses": [67, 82, 79, 87, 78, 13, 69, 77, 80, 73, 82, 69, 13, 71, 79, 76, 8, 66, 76, 73, 78, 13, 67, 65, 83, 69, 13, 80, 65, 82, 84, 78, 69, 82, 13, 83, 69, 82, 86, 65, 78, 84, 13, 67, 82, 79, 87, 78, 13], "trial": 4, "time_elapsed": 1134478, "type": "FREE_RECALL", "trial_index": 195}, "uniqueid": "MTK1992:30ZX6P7VF92IEKPCATDOXOSG25PJ2R", "dateTime": 1516642388711}, {"current_trial": 196, "trialdata": {"rt": 1174, "trial_type": "text", "internal_node_id": "0.0-151.0", "time_elapsed": 1137659, "key_press": 75, "type": "INSTRUCTIONS", "trial_index": 196}, "uniqueid": "MTK1992:30ZX6P7VF92IEKPCATDOXOSG25PJ2R", "dateTime": 1516642391887}, {"current_trial": 197, "trialdata": {"rt": [2844, 5247, 7266, 9044, 11673, 14589, 17024, 19307, 22744], "trial_type": "math-distractor", "key_times": [2211, 2667, 2844, 4782, 5118, 5247, 6553, 6767, 7266, 8580, 8732, 9044, 11449, 11673, 14180, 14412, 14589, 16696, 16896, 17024, 18347, 18707, 19307, 21198, 22392, 22744], "responses": ["16", "15", "13", "17", "6", "13", "15", "16", "18"], "num2": [1, 3, 6, 8, 1, 6, 5, 2, 1, 4], "num3": [7, 9, 3, 7, 3, 4, 1, 6, 9, 1], "conditions": [24, 1600, "v", 24000], "internal_node_id": "0.0-152.0", "key_presses": [49, 54, 13, 49, 53, 13, 49, 51, 13, 49, 55, 13, 54, 13, 49, 51, 13, 49, 53, 13, 49, 54, 13, 49, 56, 13], "trial": 5, "time_elapsed": 1163663, "type": "DISTRACTOR", "trial_index": 197, "num1": [8, 3, 4, 2, 2, 3, 9, 8, 8, 7]}, "uniqueid": "MTK1992:30ZX6P7VF92IEKPCATDOXOSG25PJ2R", "dateTime": 1516642417891}, {"current_trial": 198, "trialdata": {"rt": -1, "trial_type": "single-stim", "stimulus": "<p id=\"stim\">10</p>", "internal_node_id": "0.0-153.0-0.0", "time_elapsed": 1166665, "key_press": -1, "trial_index": 198}, "uniqueid": "MTK1992:30ZX6P7VF92IEKPCATDOXOSG25PJ2R", "dateTime": 1516642420893}, {"current_trial": 199, "trialdata": {"rt": -1, "trial_type": "single-stim", "stimulus": "<p id=\"stim\">9</p>", "internal_node_id": "0.0-153.0-1.0", "time_elapsed": 1167667, "key_press": -1, "trial_index": 199}, "uniqueid": "MTK1992:30ZX6P7VF92IEKPCATDOXOSG25PJ2R", "dateTime": 1516642421896}, {"current_trial": 200, "trialdata": {"rt": -1, "trial_type": "single-stim", "stimulus": "<p id=\"stim\">8</p>", "internal_node_id": "0.0-153.0-2.0", "time_elapsed": 1168669, "key_press": -1, "trial_index": 200}, "uniqueid": "MTK1992:30ZX6P7VF92IEKPCATDOXOSG25PJ2R", "dateTime": 1516642422897}, {"current_trial": 201, "trialdata": {"rt": -1, "trial_type": "single-stim", "stimulus": "<p id=\"stim\">7</p>", "internal_node_id": "0.0-153.0-3.0", "time_elapsed": 1169671, "key_press": -1, "trial_index": 201}, "uniqueid": "MTK1992:30ZX6P7VF92IEKPCATDOXOSG25PJ2R", "dateTime": 1516642423899}, {"current_trial": 202, "trialdata": {"rt": -1, "trial_type": "single-stim", "stimulus": "<p id=\"stim\">6</p>", "internal_node_id": "0.0-153.0-4.0", "time_elapsed": 1170673, "key_press": -1, "trial_index": 202}, "uniqueid": "MTK1992:30ZX6P7VF92IEKPCATDOXOSG25PJ2R", "dateTime": 1516642424902}, {"current_trial": 203, "trialdata": {"rt": -1, "trial_type": "single-stim", "stimulus": "<p id=\"stim\">5</p>", "internal_node_id": "0.0-153.0-5.0", "time_elapsed": 1171675, "key_press": -1, "trial_index": 203}, "uniqueid": "MTK1992:30ZX6P7VF92IEKPCATDOXOSG25PJ2R", "dateTime": 1516642425903}, {"current_trial": 204, "trialdata": {"rt": -1, "trial_type": "single-stim", "stimulus": "<p id=\"stim\">4</p>", "internal_node_id": "0.0-153.0-6.0", "time_elapsed": 1172678, "key_press": -1, "trial_index": 204}, "uniqueid": "MTK1992:30ZX6P7VF92IEKPCATDOXOSG25PJ2R", "dateTime": 1516642426906}, {"current_trial": 205, "trialdata": {"rt": -1, "trial_type": "single-stim", "stimulus": "<p id=\"stim\">3</p>", "internal_node_id": "0.0-153.0-7.0", "time_elapsed": 1173680, "key_press": -1, "trial_index": 205}, "uniqueid": "MTK1992:30ZX6P7VF92IEKPCATDOXOSG25PJ2R", "dateTime": 1516642427908}, {"current_trial": 206, "trialdata": {"rt": -1, "trial_type": "single-stim", "stimulus": "<p id=\"stim\">2</p>", "internal_node_id": "0.0-153.0-8.0", "time_elapsed": 1174682, "key_press": -1, "trial_index": 206}, "uniqueid": "MTK1992:30ZX6P7VF92IEKPCATDOXOSG25PJ2R", "dateTime": 1516642428910}, {"current_trial": 207, "trialdata": {"rt": -1, "trial_type": "single-stim", "stimulus": "<p id=\"stim\">1</p>", "internal_node_id": "0.0-153.0-9.0", "time_elapsed": 1175684, "key_press": -1, "trial_index": 207}, "uniqueid": "MTK1992:30ZX6P7VF92IEKPCATDOXOSG25PJ2R", "dateTime": 1516642429912}, {"current_trial": 208, "trialdata": {"rt": -1, "trial_type": "single-stim", "stimulus": "<p id=\"stim\">+</p>", "internal_node_id": "0.0-154.0-0.0", "time_elapsed": 1177186, "key_press": -1, "type": "FIXATION", "trial_index": 208}, "uniqueid": "MTK1992:30ZX6P7VF92IEKPCATDOXOSG25PJ2R", "dateTime": 1516642431414}, {"current_trial": 209, "trialdata": {"rt": -1, "trial_type": "single-stim", "word": "church", "stimulus": "<p id=\"stim\">CHURCH</p>", "conditions": [24, 1600, "v", 24000], "internal_node_id": "0.0-155.0", "trial": 5, "time_elapsed": 1178788, "serialpos": 0, "key_press": -1, "wordID": 306, "type": "PRES_VIS", "trial_index": 209}, "uniqueid": "MTK1992:30ZX6P7VF92IEKPCATDOXOSG25PJ2R", "dateTime": 1516642433016}, {"current_trial": 210, "trialdata": {"rt": -1, "trial_type": "single-stim", "word": "marine", "stimulus": "<p id=\"stim\">MARINE</p>", "conditions": [24, 1600, "v", 24000], "internal_node_id": "0.0-156.0", "trial": 5, "time_elapsed": 1181280, "serialpos": 1, "key_press": -1, "wordID": 868, "type": "PRES_VIS", "trial_index": 210}, "uniqueid": "MTK1992:30ZX6P7VF92IEKPCATDOXOSG25PJ2R", "dateTime": 1516642435509}, {"current_trial": 211, "trialdata": {"rt": -1, "trial_type": "single-stim", "word": "island", "stimulus": "<p id=\"stim\">ISLAND</p>", "conditions": [24, 1600, "v", 24000], "internal_node_id": "0.0-157.0", "trial": 5, "time_elapsed": 1183711, "serialpos": 2, "key_press": -1, "wordID": 744, "type": "PRES_VIS", "trial_index": 211}, "uniqueid": "MTK1992:30ZX6P7VF92IEKPCATDOXOSG25PJ2R", "dateTime": 1516642437939}, {"current_trial": 212, "trialdata": {"rt": -1, "trial_type": "single-stim", "word": "shelter", "stimulus": "<p id=\"stim\">SHELTER</p>", "conditions": [24, 1600, "v", 24000], "internal_node_id": "0.0-158.0", "trial": 5, "time_elapsed": 1186245, "serialpos": 3, "key_press": -1, "wordID": 1281, "type": "PRES_VIS", "trial_index": 212}, "uniqueid": "MTK1992:30ZX6P7VF92IEKPCATDOXOSG25PJ2R", "dateTime": 1516642440473}, {"current_trial": 213, "trialdata": {"rt": -1, "trial_type": "single-stim", "word": "kidney", "stimulus": "<p id=\"stim\">KIDNEY</p>", "conditions": [24, 1600, "v", 24000], "internal_node_id": "0.0-159.0", "trial": 5, "time_elapsed": 1188661, "serialpos": 4, "key_press": -1, "wordID": 775, "type": "PRES_VIS", "trial_index": 213}, "uniqueid": "MTK1992:30ZX6P7VF92IEKPCATDOXOSG25PJ2R", "dateTime": 1516642442889}, {"current_trial": 214, "trialdata": {"rt": -1, "trial_type": "single-stim", "word": "daisy", "stimulus": "<p id=\"stim\">DAISY</p>", "conditions": [24, 1600, "v", 24000], "internal_node_id": "0.0-160.0", "trial": 5, "time_elapsed": 1191369, "serialpos": 5, "key_press": -1, "wordID": 434, "type": "PRES_VIS", "trial_index": 214}, "uniqueid": "MTK1992:30ZX6P7VF92IEKPCATDOXOSG25PJ2R", "dateTime": 1516642445597}, {"current_trial": 215, "trialdata": {"rt": -1, "trial_type": "single-stim", "word": "flower", "stimulus": "<p id=\"stim\">FLOWER</p>", "conditions": [24, 1600, "v", 24000], "internal_node_id": "0.0-161.0", "trial": 5, "time_elapsed": 1194161, "serialpos": 6, "key_press": -1, "wordID": 583, "type": "PRES_VIS", "trial_index": 215}, "uniqueid": "MTK1992:30ZX6P7VF92IEKPCATDOXOSG25PJ2R", "dateTime": 1516642448389}, {"current_trial": 216, "trialdata": {"rt": -1, "trial_type": "single-stim", "word": "cashew", "stimulus": "<p id=\"stim\">CASHEW</p>", "conditions": [24, 1600, "v", 24000], "internal_node_id": "0.0-162.0", "trial": 5, "time_elapsed": 1196615, "serialpos": 7, "key_press": -1, "wordID": 252, "type": "PRES_VIS", "trial_index": 216}, "uniqueid": "MTK1992:30ZX6P7VF92IEKPCATDOXOSG25PJ2R", "dateTime": 1516642450843}, {"current_trial": 217, "trialdata": {"rt": -1, "trial_type": "single-stim", "word": "heart", "stimulus": "<p id=\"stim\">HEART</p>", "conditions": [24, 1600, "v", 24000], "internal_node_id": "0.0-163.0", "trial": 5, "time_elapsed": 1199050, "serialpos": 8, "key_press": -1, "wordID": 696, "type": "PRES_VIS", "trial_index": 217}, "uniqueid": "MTK1992:30ZX6P7VF92IEKPCATDOXOSG25PJ2R", "dateTime": 1516642453278}, {"current_trial": 218, "trialdata": {"rt": -1, "trial_type": "single-stim", "word": "space", "stimulus": "<p id=\"stim\">SPACE</p>", "conditions": [24, 1600, "v", 24000], "internal_node_id": "0.0-164.0", "trial": 5, "time_elapsed": 1201610, "serialpos": 9, "key_press": -1, "wordID": 1344, "type": "PRES_VIS", "trial_index": 218}, "uniqueid": "MTK1992:30ZX6P7VF92IEKPCATDOXOSG25PJ2R", "dateTime": 1516642455838}, {"current_trial": 219, "trialdata": {"rt": -1, "trial_type": "single-stim", "word": "citrus", "stimulus": "<p id=\"stim\">CITRUS</p>", "conditions": [24, 1600, "v", 24000], "internal_node_id": "0.0-165.0", "trial": 5, "time_elapsed": 1204155, "serialpos": 10, "key_press": -1, "wordID": 312, "type": "PRES_VIS", "trial_index": 219}, "uniqueid": "MTK1992:30ZX6P7VF92IEKPCATDOXOSG25PJ2R", "dateTime": 1516642458383}, {"current_trial": 220, "trialdata": {"rt": -1, "trial_type": "single-stim", "word": "chapel", "stimulus": "<p id=\"stim\">CHAPEL</p>", "conditions": [24, 1600, "v", 24000], "internal_node_id": "0.0-166.0", "trial": 5, "time_elapsed": 1206846, "serialpos": 11, "key_press": -1, "wordID": 279, "type": "PRES_VIS", "trial_index": 220}, "uniqueid": "MTK1992:30ZX6P7VF92IEKPCATDOXOSG25PJ2R", "dateTime": 1516642461075}, {"current_trial": 221, "trialdata": {"rt": -1, "trial_type": "single-stim", "word": "belly", "stimulus": "<p id=\"stim\">BELLY</p>", "conditions": [24, 1600, "v", 24000], "internal_node_id": "0.0-167.0", "trial": 5, "time_elapsed": 1209522, "serialpos": 12, "key_press": -1, "wordID": 118, "type": "PRES_VIS", "trial_index": 221}, "uniqueid": "MTK1992:30ZX6P7VF92IEKPCATDOXOSG25PJ2R", "dateTime": 1516642463750}, {"current_trial": 222, "trialdata": {"rt": -1, "trial_type": "single-stim", "word": "scissors", "stimulus": "<p id=\"stim\">SCISSORS</p>", "conditions": [24, 1600, "v", 24000], "internal_node_id": "0.0-168.0", "trial": 5, "time_elapsed": 1212286, "serialpos": 13, "key_press": -1, "wordID": 1249, "type": "PRES_VIS", "trial_index": 222}, "uniqueid": "MTK1992:30ZX6P7VF92IEKPCATDOXOSG25PJ2R", "dateTime": 1516642466514}, {"current_trial": 223, "trialdata": {"rt": -1, "trial_type": "single-stim", "word": "pocket", "stimulus": "<p id=\"stim\">POCKET</p>", "conditions": [24, 1600, "v", 24000], "internal_node_id": "0.0-169.0", "trial": 5, "time_elapsed": 1214811, "serialpos": 14, "key_press": -1, "wordID": 1092, "type": "PRES_VIS", "trial_index": 223}, "uniqueid": "MTK1992:30ZX6P7VF92IEKPCATDOXOSG25PJ2R", "dateTime": 1516642469039}, {"current_trial": 224, "trialdata": {"rt": -1, "trial_type": "single-stim", "word": "taxi", "stimulus": "<p id=\"stim\">TAXI</p>", "conditions": [24, 1600, "v", 24000], "internal_node_id": "0.0-170.0", "trial": 5, "time_elapsed": 1217487, "serialpos": 15, "key_press": -1, "wordID": 1437, "type": "PRES_VIS", "trial_index": 224}, "uniqueid": "MTK1992:30ZX6P7VF92IEKPCATDOXOSG25PJ2R", "dateTime": 1516642471716}, {"current_trial": 225, "trialdata": {"rt": -1, "trial_type": "single-stim", "word": "shoulder", "stimulus": "<p id=\"stim\">SHOULDER</p>", "conditions": [24, 1600, "v", 24000], "internal_node_id": "0.0-171.0", "trial": 5, "time_elapsed": 1220216, "serialpos": 16, "key_press": -1, "wordID": 1293, "type": "PRES_VIS", "trial_index": 225}, "uniqueid": "MTK1992:30ZX6P7VF92IEKPCATDOXOSG25PJ2R", "dateTime": 1516642474444}, {"current_trial": 226, "trialdata": {"rt": -1, "trial_type": "single-stim", "word": "elbow", "stimulus": "<p id=\"stim\">ELBOW</p>", "conditions": [24, 1600, "v", 24000], "internal_node_id": "0.0-172.0", "trial": 5, "time_elapsed": 1222931, "serialpos": 17, "key_press": -1, "wordID": 519, "type": "PRES_VIS", "trial_index": 226}, "uniqueid": "MTK1992:30ZX6P7VF92IEKPCATDOXOSG25PJ2R", "dateTime": 1516642477159}, {"current_trial": 227, "trialdata": {"rt": -1, "trial_type": "single-stim", "word": "actress", "stimulus": "<p id=\"stim\">ACTRESS</p>", "conditions": [24, 1600, "v", 24000], "internal_node_id": "0.0-173.0", "trial": 5, "time_elapsed": 1225525, "serialpos": 18, "key_press": -1, "wordID": 5, "type": "PRES_VIS", "trial_index": 227}, "uniqueid": "MTK1992:30ZX6P7VF92IEKPCATDOXOSG25PJ2R", "dateTime": 1516642479754}, {"current_trial": 228, "trialdata": {"rt": -1, "trial_type": "single-stim", "word": "pliers", "stimulus": "<p id=\"stim\">PLIERS</p>", "conditions": [24, 1600, "v", 24000], "internal_node_id": "0.0-174.0", "trial": 5, "time_elapsed": 1227949, "serialpos": 19, "key_press": -1, "wordID": 1088, "type": "PRES_VIS", "trial_index": 228}, "uniqueid": "MTK1992:30ZX6P7VF92IEKPCATDOXOSG25PJ2R", "dateTime": 1516642482177}, {"current_trial": 229, "trialdata": {"rt": -1, "trial_type": "single-stim", "word": "table", "stimulus": "<p id=\"stim\">TABLE</p>", "conditions": [24, 1600, "v", 24000], "internal_node_id": "0.0-175.0", "trial": 5, "time_elapsed": 1230722, "serialpos": 20, "key_press": -1, "wordID": 1425, "type": "PRES_VIS", "trial_index": 229}, "uniqueid": "MTK1992:30ZX6P7VF92IEKPCATDOXOSG25PJ2R", "dateTime": 1516642484950}, {"current_trial": 230, "trialdata": {"rt": -1, "trial_type": "single-stim", "word": "powder", "stimulus": "<p id=\"stim\">POWDER</p>", "conditions": [24, 1600, "v", 24000], "internal_node_id": "0.0-176.0", "trial": 5, "time_elapsed": 1233408, "serialpos": 21, "key_press": -1, "wordID": 1116, "type": "PRES_VIS", "trial_index": 230}, "uniqueid": "MTK1992:30ZX6P7VF92IEKPCATDOXOSG25PJ2R", "dateTime": 1516642487636}, {"current_trial": 231, "trialdata": {"rt": -1, "trial_type": "single-stim", "word": "item", "stimulus": "<p id=\"stim\">ITEM</p>", "conditions": [24, 1600, "v", 24000], "internal_node_id": "0.0-177.0", "trial": 5, "time_elapsed": 1235976, "serialpos": 22, "key_press": -1, "wordID": 745, "type": "PRES_VIS", "trial_index": 231}, "uniqueid": "MTK1992:30ZX6P7VF92IEKPCATDOXOSG25PJ2R", "dateTime": 1516642490204}, {"current_trial": 232, "trialdata": {"rt": -1, "trial_type": "single-stim", "word": "shelf", "stimulus": "<p id=\"stim\">SHELF</p>", "conditions": [24, 1600, "v", 24000], "internal_node_id": "0.0-178.0", "trial": 5, "time_elapsed": 1238634, "serialpos": 23, "key_press": -1, "wordID": 1279, "type": "PRES_VIS", "trial_index": 232}, "uniqueid": "MTK1992:30ZX6P7VF92IEKPCATDOXOSG25PJ2R", "dateTime": 1516642492864}, {"current_trial": 233, "trialdata": {"rt": -1, "trial_type": "single-stim", "stimulus": "", "internal_node_id": "0.0-179.0-0.0", "time_elapsed": 1240826, "key_press": -1, "type": "PRE_RECALL_DELAY", "trial_index": 233}, "uniqueid": "MTK1992:30ZX6P7VF92IEKPCATDOXOSG25PJ2R", "dateTime": 1516642495054}, {"current_trial": 234, "trialdata": {"rt": -1000, "trial_type": "single-audio", "stimulus": "/static/audio/400Hz.wav", "internal_node_id": "0.0-180.0", "time_elapsed": 1241328, "key_press": -1, "type": "PRE_RECALL_ALERT", "trial_index": 234}, "uniqueid": "MTK1992:30ZX6P7VF92IEKPCATDOXOSG25PJ2R", "dateTime": 1516642495556}, {"current_trial": 235, "trialdata": {"rt": [2214, 3520, 4647, 6147, 11791, 13081, 19687], "recwords": ["church", "tablet", "item", "shelf", "shelter", "island", "safety"], "key_times": [1023, 1110, 1316, 1440, 1686, 1989, 2214, 2449, 2614, 2838, 2965, 3137, 3319, 3520, 3917, 4114, 4271, 4406, 4647, 4873, 4969, 5086, 5214, 5515, 6147, 10608, 10688, 10829, 11102, 11289, 11457, 11621, 11791, 12123, 12263, 12368, 12539, 12667, 12824, 13081, 18166, 18356, 18532, 18745, 18928, 19255, 19687], "trial_type": "free-recall", "conditions": [24, 1600, "v", 24000], "internal_node_id": "0.0-181.0-0.0", "key_presses": [67, 72, 85, 82, 67, 72, 13, 84, 65, 66, 76, 69, 84, 13, 73, 84, 69, 77, 13, 83, 72, 69, 76, 70, 13, 83, 72, 69, 76, 84, 69, 82, 13, 73, 83, 76, 65, 78, 68, 13, 83, 65, 70, 69, 84, 89, 13], "trial": 5, "time_elapsed": 1301331, "type": "FREE_RECALL", "trial_index": 235}, "uniqueid": "MTK1992:30ZX6P7VF92IEKPCATDOXOSG25PJ2R", "dateTime": 1516642555562}, {"current_trial": 236, "trialdata": {"rt": 49906, "trial_type": "text", "internal_node_id": "0.0-182.0", "time_elapsed": 1353243, "key_press": 68, "type": "INSTRUCTIONS", "trial_index": 236}, "uniqueid": "MTK1992:30ZX6P7VF92IEKPCATDOXOSG25PJ2R", "dateTime": 1516642607471}, {"current_trial": 237, "trialdata": {"rt": [4150, 6251, 8374, 11394], "trial_type": "math-distractor", "key_times": [3502, 3871, 4150, 6003, 6251, 8030, 8229, 8374, 10987, 11130, 11394], "responses": ["10", "7", "14", "18"], "num2": [6, 3, 4, 4, 9], "num3": [1, 3, 2, 7, 6], "conditions": [24, 800, "v", 12000], "internal_node_id": "0.0-183.0", "key_presses": [49, 48, 13, 55, 13, 49, 52, 13, 49, 56, 13], "trial": 6, "time_elapsed": 1367247, "type": "DISTRACTOR", "trial_index": 237, "num1": [3, 1, 8, 7, 2]}, "uniqueid": "MTK1992:30ZX6P7VF92IEKPCATDOXOSG25PJ2R", "dateTime": 1516642621475}, {"current_trial": 238, "trialdata": {"rt": -1, "trial_type": "single-stim", "stimulus": "<p id=\"stim\">10</p>", "internal_node_id": "0.0-184.0-0.0", "time_elapsed": 1370249, "key_press": -1, "trial_index": 238}, "uniqueid": "MTK1992:30ZX6P7VF92IEKPCATDOXOSG25PJ2R", "dateTime": 1516642624478}, {"current_trial": 239, "trialdata": {"rt": -1, "trial_type": "single-stim", "stimulus": "<p id=\"stim\">9</p>", "internal_node_id": "0.0-184.0-1.0", "time_elapsed": 1371251, "key_press": -1, "trial_index": 239}, "uniqueid": "MTK1992:30ZX6P7VF92IEKPCATDOXOSG25PJ2R", "dateTime": 1516642625479}, {"current_trial": 240, "trialdata": {"rt": -1, "trial_type": "single-stim", "stimulus": "<p id=\"stim\">8</p>", "internal_node_id": "0.0-184.0-2.0", "time_elapsed": 1372252, "key_press": -1, "trial_index": 240}, "uniqueid": "MTK1992:30ZX6P7VF92IEKPCATDOXOSG25PJ2R", "dateTime": 1516642626480}, {"current_trial": 241, "trialdata": {"rt": -1, "trial_type": "single-stim", "stimulus": "<p id=\"stim\">7</p>", "internal_node_id": "0.0-184.0-3.0", "time_elapsed": 1373253, "key_press": -1, "trial_index": 241}, "uniqueid": "MTK1992:30ZX6P7VF92IEKPCATDOXOSG25PJ2R", "dateTime": 1516642627482}, {"current_trial": 242, "trialdata": {"rt": -1, "trial_type": "single-stim", "stimulus": "<p id=\"stim\">6</p>", "internal_node_id": "0.0-184.0-4.0", "time_elapsed": 1374255, "key_press": -1, "trial_index": 242}, "uniqueid": "MTK1992:30ZX6P7VF92IEKPCATDOXOSG25PJ2R", "dateTime": 1516642628483}, {"current_trial": 243, "trialdata": {"rt": -1, "trial_type": "single-stim", "stimulus": "<p id=\"stim\">5</p>", "internal_node_id": "0.0-184.0-5.0", "time_elapsed": 1375256, "key_press": -1, "trial_index": 243}, "uniqueid": "MTK1992:30ZX6P7VF92IEKPCATDOXOSG25PJ2R", "dateTime": 1516642629485}, {"current_trial": 244, "trialdata": {"rt": -1, "trial_type": "single-stim", "stimulus": "<p id=\"stim\">4</p>", "internal_node_id": "0.0-184.0-6.0", "time_elapsed": 1376258, "key_press": -1, "trial_index": 244}, "uniqueid": "MTK1992:30ZX6P7VF92IEKPCATDOXOSG25PJ2R", "dateTime": 1516642630486}, {"current_trial": 245, "trialdata": {"rt": -1, "trial_type": "single-stim", "stimulus": "<p id=\"stim\">3</p>", "internal_node_id": "0.0-184.0-7.0", "time_elapsed": 1377260, "key_press": -1, "trial_index": 245}, "uniqueid": "MTK1992:30ZX6P7VF92IEKPCATDOXOSG25PJ2R", "dateTime": 1516642631488}, {"current_trial": 246, "trialdata": {"rt": -1, "trial_type": "single-stim", "stimulus": "<p id=\"stim\">2</p>", "internal_node_id": "0.0-184.0-8.0", "time_elapsed": 1378262, "key_press": -1, "trial_index": 246}, "uniqueid": "MTK1992:30ZX6P7VF92IEKPCATDOXOSG25PJ2R", "dateTime": 1516642632490}, {"current_trial": 247, "trialdata": {"rt": -1, "trial_type": "single-stim", "stimulus": "<p id=\"stim\">1</p>", "internal_node_id": "0.0-184.0-9.0", "time_elapsed": 1379263, "key_press": -1, "trial_index": 247}, "uniqueid": "MTK1992:30ZX6P7VF92IEKPCATDOXOSG25PJ2R", "dateTime": 1516642633491}, {"current_trial": 248, "trialdata": {"rt": -1, "trial_type": "single-stim", "stimulus": "<p id=\"stim\">+</p>", "internal_node_id": "0.0-185.0-0.0", "time_elapsed": 1380765, "key_press": -1, "type": "FIXATION", "trial_index": 248}, "uniqueid": "MTK1992:30ZX6P7VF92IEKPCATDOXOSG25PJ2R", "dateTime": 1516642634993}, {"current_trial": 249, "trialdata": {"rt": -1, "trial_type": "single-stim", "word": "virus", "stimulus": "<p id=\"stim\">VIRUS</p>", "conditions": [24, 800, "v", 12000], "internal_node_id": "0.0-186.0", "trial": 6, "time_elapsed": 1381566, "serialpos": 0, "key_press": -1, "wordID": 1571, "type": "PRES_VIS", "trial_index": 249}, "uniqueid": "MTK1992:30ZX6P7VF92IEKPCATDOXOSG25PJ2R", "dateTime": 1516642635795}, {"current_trial": 250, "trialdata": {"rt": -1, "trial_type": "single-stim", "word": "tunnel", "stimulus": "<p id=\"stim\">TUNNEL</p>", "conditions": [24, 800, "v", 12000], "internal_node_id": "0.0-187.0", "trial": 6, "time_elapsed": 1383414, "serialpos": 1, "key_press": -1, "wordID": 1518, "type": "PRES_VIS", "trial_index": 250}, "uniqueid": "MTK1992:30ZX6P7VF92IEKPCATDOXOSG25PJ2R", "dateTime": 1516642637642}, {"current_trial": 251, "trialdata": {"rt": -1, "trial_type": "single-stim", "word": "drug", "stimulus": "<p id=\"stim\">DRUG</p>", "conditions": [24, 800, "v", 12000], "internal_node_id": "0.0-188.0", "trial": 6, "time_elapsed": 1385134, "serialpos": 2, "key_press": -1, "wordID": 500, "type": "PRES_VIS", "trial_index": 251}, "uniqueid": "MTK1992:30ZX6P7VF92IEKPCATDOXOSG25PJ2R", "dateTime": 1516642639363}, {"current_trial": 252, "trialdata": {"rt": -1, "trial_type": "single-stim", "word": "beast", "stimulus": "<p id=\"stim\">BEAST</p>", "conditions": [24, 800, "v", 12000], "internal_node_id": "0.0-189.0", "trial": 6, "time_elapsed": 1386756, "serialpos": 3, "key_press": -1, "wordID": 107, "type": "PRES_VIS", "trial_index": 252}, "uniqueid": "MTK1992:30ZX6P7VF92IEKPCATDOXOSG25PJ2R", "dateTime": 1516642640984}, {"current_trial": 253, "trialdata": {"rt": -1, "trial_type": "single-stim", "word": "body", "stimulus": "<p id=\"stim\">BODY</p>", "conditions": [24, 800, "v", 12000], "internal_node_id": "0.0-190.0", "trial": 6, "time_elapsed": 1388391, "serialpos": 4, "key_press": -1, "wordID": 144, "type": "PRES_VIS", "trial_index": 253}, "uniqueid": "MTK1992:30ZX6P7VF92IEKPCATDOXOSG25PJ2R", "dateTime": 1516642642620}, {"current_trial": 254, "trialdata": {"rt": -1, "trial_type": "single-stim", "word": "cattle", "stimulus": "<p id=\"stim\">CATTLE</p>", "conditions": [24, 800, "v", 12000], "internal_node_id": "0.0-191.0", "trial": 6, "time_elapsed": 1389996, "serialpos": 5, "key_press": -1, "wordID": 260, "type": "PRES_VIS", "trial_index": 254}, "uniqueid": "MTK1992:30ZX6P7VF92IEKPCATDOXOSG25PJ2R", "dateTime": 1516642644224}, {"current_trial": 255, "trialdata": {"rt": -1, "trial_type": "single-stim", "word": "beef", "stimulus": "<p id=\"stim\">BEEF</p>", "conditions": [24, 800, "v", 12000], "internal_node_id": "0.0-192.0", "trial": 6, "time_elapsed": 1391935, "serialpos": 6, "key_press": -1, "wordID": 112, "type": "PRES_VIS", "trial_index": 255}, "uniqueid": "MTK1992:30ZX6P7VF92IEKPCATDOXOSG25PJ2R", "dateTime": 1516642646163}, {"current_trial": 256, "trialdata": {"rt": -1, "trial_type": "single-stim", "word": "ointment", "stimulus": "<p id=\"stim\">OINTMENT</p>", "conditions": [24, 800, "v", 12000], "internal_node_id": "0.0-193.0", "trial": 6, "time_elapsed": 1393685, "serialpos": 7, "key_press": -1, "wordID": 973, "type": "PRES_VIS", "trial_index": 256}, "uniqueid": "MTK1992:30ZX6P7VF92IEKPCATDOXOSG25PJ2R", "dateTi