{"assignmentId": "3DL65MZB8EMN1MVMTLR3CLOA8RDCEK", "workerId": "MTK1705", "questiondata": {"avail_screen_height": 1456, "color_depth": 24, "screen_width": 2732, "pixel_depth": 24, "avail_screen_width": 2732, "screen_height": 1536}, "bonus": 0, "hitId": "37Y5RYYI0PCARJD5VA2TQVHFSG3SXZ", "counterbalance": 2377, "useragent": "Mozilla/5.0 (Windows NT 6.3; Win64; x64; rv:57.0) Gecko/20100101 Firefox/57.0", "eventdata": [{"eventtype": "initialized", "interval": 0, "value": null, "timestamp": 1516130849393}, {"eventtype": "window_resize", "interval": 0, "value": [2696, 1300], "timestamp": 1516130849393}, {"eventtype": "focus", "interval": 27770, "value": "off", "timestamp": 1516130877163}, {"eventtype": "focus", "interval": 2380, "value": "on", "timestamp": 1516130879543}, {"eventtype": "focus", "interval": 183268, "value": "off", "timestamp": 1516131062811}, {"eventtype": "focus", "interval": 1415403, "value": "on", "timestamp": 1516132478214}, {"eventtype": "focus", "interval": 1330, "value": "off", "timestamp": 1516132479544}, {"eventtype": "focus", "interval": 1392243, "value": "on", "timestamp": 1516133871787}, {"eventtype": "window_resize", "interval": 26725, "value": [2696, 812], "timestamp": 1516133898512}, {"eventtype": "window_resize", "interval": 8947, "value": [2732, 1334], "timestamp": 1516133907459}, {"eventtype": "window_resize", "interval": 13206, "value": [2732, 846], "timestamp": 1516133920665}, {"eventtype": "window_resize", "interval": 310, "value": [2732, 1334], "timestamp": 1516133920975}, {"eventtype": "window_resize", "interval": 9334, "value": [1708, 834], "timestamp": 1516133930309}, {"eventtype": "window_resize", "interval": 4547, "value": [1708, 529], "timestamp": 1516133934856}, {"eventtype": "window_resize", "interval": 1576, "value": [1708, 834], "timestamp": 1516133936432}, {"eventtype": "window_resize", "interval": 67596, "value": [1708, 529], "timestamp": 1516134004028}, {"eventtype": "window_resize", "interval": 4380, "value": [1708, 834], "timestamp": 1516134008408}], "data": [{"current_trial": 0, "trialdata": {"rt": 2991035, "trial_type": "text", "internal_node_id": "0.0-0.0", "time_elapsed": 2991038, "key_press": 32, "type": "INSTRUCTIONS", "trial_index": 0}, "uniqueid": "MTK1705:3DL65MZB8EMN1MVMTLR3CLOA8RDCEK", "dateTime": 1516133873941}, {"current_trial": 1, "trialdata": {"rt": 3539, "trial_type": "text", "internal_node_id": "0.0-1.0", "time_elapsed": 2994583, "key_press": 183, "type": "INSTRUCTIONS", "trial_index": 1}, "uniqueid": "MTK1705:3DL65MZB8EMN1MVMTLR3CLOA8RDCEK", "dateTime": 1516133877486}, {"current_trial": 2, "trialdata": {"rt": [13176], "trial_type": "audio-test", "responses": ["ocean"], "internal_node_id": "0.0-2.0", "time_elapsed": 3007809, "type": "AUDIO_TEST", "trial_index": 2}, "uniqueid": "MTK1705:3DL65MZB8EMN1MVMTLR3CLOA8RDCEK", "dateTime": 1516133890712}, {"current_trial": 3, "trialdata": {"rt": [22025], "trial_type": "audio-test", "responses": ["crystal"], "internal_node_id": "0.0-3.0", "time_elapsed": 3029862, "type": "AUDIO_TEST", "trial_index": 3}, "uniqueid": "MTK1705:3DL65MZB8EMN1MVMTLR3CLOA8RDCEK", "dateTime": 1516133912765}, {"current_trial": 4, "trialdata": {"rt": [11128], "trial_type": "audio-test", "responses": ["spice"], "internal_node_id": "0.0-4.0", "time_elapsed": 3041016, "type": "AUDIO_TEST", "trial_index": 4}, "uniqueid": "MTK1705:3DL65MZB8EMN1MVMTLR3CLOA8RDCEK", "dateTime": 1516133923918}, {"current_trial": 5, "trialdata": {"rt": 25370, "trial_type": "survey-text", "responses": "{\"Q0\":\"11pm\",\"Q1\":\"8am\",\"Q2\":\"5\"}", "internal_node_id": "0.0-5.0", "time_elapsed": 3067142, "type": "SLEEP_SURVEY", "trial_index": 5}, "uniqueid": "MTK1705:3DL65MZB8EMN1MVMTLR3CLOA8RDCEK", "dateTime": 1516133950045}, {"current_trial": 6, "trialdata": {"rt": 33592, "trial_type": "text", "internal_node_id": "0.0-6.0", "time_elapsed": 3101736, "key_press": 32, "type": "INSTRUCTIONS", "trial_index": 6}, "uniqueid": "MTK1705:3DL65MZB8EMN1MVMTLR3CLOA8RDCEK", "dateTime": 1516133984638}, {"current_trial": 7, "trialdata": {"rt": 10749, "trial_type": "text", "internal_node_id": "0.0-7.0", "time_elapsed": 3112986, "key_press": 32, "type": "INSTRUCTIONS", "trial_index": 7}, "uniqueid": "MTK1705:3DL65MZB8EMN1MVMTLR3CLOA8RDCEK", "dateTime": 1516133995889}, {"current_trial": 8, "trialdata": {"rt": 3773, "trial_type": "text", "internal_node_id": "0.0-8.0", "time_elapsed": 3117261, "key_press": 32, "type": "INSTRUCTIONS", "trial_index": 8}, "uniqueid": "MTK1705:3DL65MZB8EMN1MVMTLR3CLOA8RDCEK", "dateTime": 1516134000163}, {"current_trial": 9, "trialdata": {"rt": [12292], "trial_type": "math-distractor", "key_times": [7017, 7260, 8778, 10067, 12292, 17191, 17484], "responses": ["24  "], "num2": [7, 4], "num3": [9, 9], "conditions": [18, 1200, "a", 18000], "internal_node_id": "0.0-9.0", "key_presses": [98, 100, 32, 32, 13, 97, 103], "trial": 0, "time_elapsed": 3136273, "type": "DISTRACTOR", "trial_index": 9, "num1": [8, 4]}, "uniqueid": "MTK1705:3DL65MZB8EMN1MVMTLR3CLOA8RDCEK", "dateTime": 1516134019175}, {"current_trial": 10, "trialdata": {"rt": -1, "trial_type": "single-stim", "stimulus": "<p id=\"stim\">10</p>", "internal_node_id": "0.0-10.0-0.0", "time_elapsed": 3139278, "key_press": -1, "trial_index": 10}, "uniqueid": "MTK1705:3DL65MZB8EMN1MVMTLR3CLOA8RDCEK", "dateTime": 1516134022181}, {"current_trial": 11, "trialdata": {"rt": -1, "trial_type": "single-stim", "stimulus": "<p id=\"stim\">9</p>", "internal_node_id": "0.0-10.0-1.0", "time_elapsed": 3140282, "key_press": -1, "trial_index": 11}, "uniqueid": "MTK1705:3DL65MZB8EMN1MVMTLR3CLOA8RDCEK", "dateTime": 1516134023184}, {"current_trial": 12, "trialdata": {"rt": -1, "trial_type": "single-stim", "stimulus": "<p id=\"stim\">8</p>", "internal_node_id": "0.0-10.0-2.0", "time_elapsed": 3141284, "key_press": -1, "trial_index": 12}, "uniqueid": "MTK1705:3DL65MZB8EMN1MVMTLR3CLOA8RDCEK", "dateTime": 1516134024186}, {"current_trial": 13, "trialdata": {"rt": -1, "trial_type": "single-stim", "stimulus": "<p id=\"stim\">7</p>", "internal_node_id": "0.0-10.0-3.0", "time_elapsed": 3142287, "key_press": -1, "trial_index": 13}, "uniqueid": "MTK1705:3DL65MZB8EMN1MVMTLR3CLOA8RDCEK", "dateTime": 1516134025189}, {"current_trial": 14, "trialdata": {"rt": -1, "trial_type": "single-stim", "stimulus": "<p id=\"stim\">6</p>", "internal_node_id": "0.0-10.0-4.0", "time_elapsed": 3143288, "key_press": -1, "trial_index": 14}, "uniqueid": "MTK1705:3DL65MZB8EMN1MVMTLR3CLOA8RDCEK", "dateTime": 1516134026190}, {"current_trial": 15, "trialdata": {"rt": -1, "trial_type": "single-stim", "stimulus": "<p id=\"stim\">5</p>", "internal_node_id": "0.0-10.0-5.0", "time_elapsed": 3144290, "key_press": -1, "trial_index": 15}, "uniqueid": "MTK1705:3DL65MZB8EMN1MVMTLR3CLOA8RDCEK", "dateTime": 1516134027192}, {"current_trial": 16, "trialdata": {"rt": -1, "trial_type": "single-stim", "stimulus": "<p id=\"stim\">4</p>", "internal_node_id": "0.0-10.0-6.0", "time_elapsed": 3145292, "key_press": -1, "trial_index": 16}, "uniqueid": "MTK1705:3DL65MZB8EMN1MVMTLR3CLOA8RDCEK", "dateTime": 1516134028195}, {"current_trial": 17, "trialdata": {"rt": -1, "trial_type": "single-stim", "stimulus": "<p id=\"stim\">3</p>", "internal_node_id": "0.0-10.0-7.0", "time_elapsed": 3146295, "key_press": -1, "trial_index": 17}, "uniqueid": "MTK1705:3DL65MZB8EMN1MVMTLR3CLOA8RDCEK", "dateTime": 1516134029197}, {"current_trial": 18, "trialdata": {"rt": -1, "trial_type": "single-stim", "stimulus": "<p id=\"stim\">2</p>", "internal_node_id": "0.0-10.0-8.0", "time_elapsed": 3147297, "key_press": -1, "trial_index": 18}, "uniqueid": "MTK1705:3DL65MZB8EMN1MVMTLR3CLOA8RDCEK", "dateTime": 1516134030199}, {"current_trial": 19, "trialdata": {"rt": -1, "trial_type": "single-stim", "stimulus": "<p id=\"stim\">1</p>", "internal_node_id": "0.0-10.0-9.0", "time_elapsed": 3148300, "key_press": -1, "trial_index": 19}, "uniqueid": "MTK1705:3DL65MZB8EMN1MVMTLR3CLOA8RDCEK", "dateTime": 1516134031202}, {"current_trial": 20, "trialdata": {"rt": -1, "trial_type": "single-stim", "stimulus": "<p id=\"stim\">+</p>", "internal_node_id": "0.0-11.0-0.0", "time_elapsed": 3149804, "key_press": -1, "type": "FIXATION", "trial_index": 20}, "uniqueid": "MTK1705:3DL65MZB8EMN1MVMTLR3CLOA8RDCEK", "dateTime": 1516134032707}, {"current_trial": 21, "trialdata": {"rt": -1000, "trial_type": "single-audio", "word": "bike", "stimulus": "/static/audio/wordpool/BIKE.wav", "conditions": [18, 1200, "a", 18000], "internal_node_id": "0.0-12.0", "trial": 0, "time_elapsed": 3151829, "serialpos": 0, "key_press": -1, "wordID": 124, "type": "PRES_AUD", "trial_index": 21}, "uniqueid": "MTK1705:3DL65MZB8EMN1MVMTLR3CLOA8RDCEK", "dateTime": 1516134034732}, {"current_trial": 22, "trialdata": {"rt": 1278.6666666665951, "trial_type": "single-audio", "word": "kidney", "stimulus": "/static/audio/wordpool/KIDNEY.wav", "conditions": [18, 1200, "a", 18000], "internal_node_id": "0.0-13.0", "trial": 0, "time_elapsed": 3154170, "serialpos": 1, "key_press": 183, "wordID": 775, "type": "PRES_AUD", "trial_index": 22}, "uniqueid": "MTK1705:3DL65MZB8EMN1MVMTLR3CLOA8RDCEK", "dateTime": 1516134037072}, {"current_trial": 23, "trialdata": {"rt": 19.99999999998181, "trial_type": "single-audio", "word": "summit", "stimulus": "/static/audio/wordpool/SUMMIT.wav", "conditions": [18, 1200, "a", 18000], "internal_node_id": "0.0-14.0", "trial": 0, "time_elapsed": 3156386, "serialpos": 2, "key_press": 183, "wordID": 1404, "type": "PRES_AUD", "trial_index": 23}, "uniqueid": "MTK1705:3DL65MZB8EMN1MVMTLR3CLOA8RDCEK", "dateTime": 1516134039288}, {"current_trial": 24, "trialdata": {"rt": -1000, "trial_type": "single-audio", "word": "globe", "stimulus": "/static/audio/wordpool/GLOBE.wav", "conditions": [18, 1200, "a", 18000], "internal_node_id": "0.0-15.0", "trial": 0, "time_elapsed": 3158761, "serialpos": 3, "key_press": -1, "wordID": 640, "type": "PRES_AUD", "trial_index": 24}, "uniqueid": "MTK1705:3DL65MZB8EMN1MVMTLR3CLOA8RDCEK", "dateTime": 1516134041664}, {"current_trial": 25, "trialdata": {"rt": -1000, "trial_type": "single-audio", "word": "egypt", "stimulus": "/static/audio/wordpool/EGYPT.wav", "conditions": [18, 1200, "a", 18000], "internal_node_id": "0.0-16.0", "trial": 0, "time_elapsed": 3161091, "serialpos": 4, "key_press": -1, "wordID": 518, "type": "PRES_AUD", "trial_index": 25}, "uniqueid": "MTK1705:3DL65MZB8EMN1MVMTLR3CLOA8RDCEK", "dateTime": 1516134043993}, {"current_trial": 26, "trialdata": {"rt": -1000, "trial_type": "single-audio", "word": "sister", "stimulus": "/static/audio/wordpool/SISTER.wav", "conditions": [18, 1200, "a", 18000], "internal_node_id": "0.0-17.0", "trial": 0, "time_elapsed": 3163367, "serialpos": 5, "key_press": -1, "wordID": 1311, "type": "PRES_AUD", "trial_index": 26}, "uniqueid": "MTK1705:3DL65MZB8EMN1MVMTLR3CLOA8RDCEK", "dateTime": 1516134046269}, {"current_trial": 27, "trialdata": {"rt": -1000, "trial_type": "single-audio", "word": "cupboard", "stimulus": "/static/audio/wordpool/CUPBOARD.wav", "conditions": [18, 1200, "a", 18000], "internal_node_id": "0.0-18.0", "trial": 0, "time_elapsed": 3165739, "serialpos": 6, "key_press": -1, "wordID": 424, "type": "PRES_AUD", "trial_index": 27}, "uniqueid": "MTK1705:3DL65MZB8EMN1MVMTLR3CLOA8RDCEK", "dateTime": 1516134048641}, {"current_trial": 28, "trialdata": {"rt": 230.66666666682067, "trial_type": "single-audio", "word": "outdoors", "stimulus": "/static/audio/wordpool/OUTDOORS.wav", "conditions": [18, 1200, "a", 18000], "internal_node_id": "0.0-19.0", "trial": 0, "time_elapsed": 3167936, "serialpos": 7, "key_press": 183, "wordID": 986, "type": "PRES_AUD", "trial_index": 28}, "uniqueid": "MTK1705:3DL65MZB8EMN1MVMTLR3CLOA8RDCEK", "dateTime": 1516134050838}, {"current_trial": 29, "trialdata": {"rt": -1000, "trial_type": "single-audio", "word": "eagle", "stimulus": "/static/audio/wordpool/EAGLE.wav", "conditions": [18, 1200, "a", 18000], "internal_node_id": "0.0-20.0", "trial": 0, "time_elapsed": 3170192, "serialpos": 8, "key_press": -1, "wordID": 511, "type": "PRES_AUD", "trial_index": 29}, "uniqueid": "MTK1705:3DL65MZB8EMN1MVMTLR3CLOA8RDCEK", "dateTime": 1516134053094}, {"current_trial": 30, "trialdata": {"rt": -1000, "trial_type": "single-audio", "word": "popcorn", "stimulus": "/static/audio/wordpool/POPCORN.wav", "conditions": [18, 1200, "a", 18000], "internal_node_id": "0.0-21.0", "trial": 0, "time_elapsed": 3172458, "serialpos": 9, "key_press": -1, "wordID": 1103, "type": "PRES_AUD", "trial_index": 30}, "uniqueid": "MTK1705:3DL65MZB8EMN1MVMTLR3CLOA8RDCEK", "dateTime": 1516134055360}, {"current_trial": 31, "trialdata": {"rt": -1000, "trial_type": "single-audio", "word": "plate", "stimulus": "/static/audio/wordpool/PLATE.wav", "conditions": [18, 1200, "a", 18000], "internal_node_id": "0.0-22.0", "trial": 0, "time_elapsed": 3174466, "serialpos": 10, "key_press": -1, "wordID": 1085, "type": "PRES_AUD", "trial_index": 31}, "uniqueid": "MTK1705:3DL65MZB8EMN1MVMTLR3CLOA8RDCEK", "dateTime": 1516134057368}, {"current_trial": 32, "trialdata": {"rt": -1000, "trial_type": "single-audio", "word": "icing", "stimulus": "/static/audio/wordpool/ICING.wav", "conditions": [18, 1200, "a", 18000], "internal_node_id": "0.0-23.0", "trial": 0, "time_elapsed": 3176826, "serialpos": 11, "key_press": -1, "wordID": 731, "type": "PRES_AUD", "trial_index": 32}, "uniqueid": "MTK1705:3DL65MZB8EMN1MVMTLR3CLOA8RDCEK", "dateTime": 1516134059728}, {"current_trial": 33, "trialdata": {"rt": -1000, "trial_type": "single-audio", "word": "slug", "stimulus": "/static/audio/wordpool/SLUG.wav", "conditions": [18, 1200, "a", 18000], "internal_node_id": "0.0-24.0", "trial": 0, "time_elapsed": 3178975, "serialpos": 12, "key_press": -1, "wordID": 1328, "type": "PRES_AUD", "trial_index": 33}, "uniqueid": "MTK1705:3DL65MZB8EMN1MVMTLR3CLOA8RDCEK", "dateTime": 1516134061877}, {"current_trial": 34, "trialdata": {"rt": -1000, "trial_type": "single-audio", "word": "lizard", "stimulus": "/static/audio/wordpool/LIZARD.wav", "conditions": [18, 1200, "a", 18000], "internal_node_id": "0.0-25.0", "trial": 0, "time_elapsed": 3181338, "serialpos": 13, "key_press": -1, "wordID": 833, "type": "PRES_AUD", "trial_index": 34}, "uniqueid": "MTK1705:3DL65MZB8EMN1MVMTLR3CLOA8RDCEK", "dateTime": 1516134064241}, {"current_trial": 35, "trialdata": {"rt": -1000, "trial_type": "single-audio", "word": "virus", "stimulus": "/static/audio/wordpool/VIRUS.wav", "conditions": [18, 1200, "a", 18000], "internal_node_id": "0.0-26.0", "trial": 0, "time_elapsed": 3183695, "serialpos": 14, "key_press": -1, "wordID": 1571, "type": "PRES_AUD", "trial_index": 35}, "uniqueid": "MTK1705:3DL65MZB8EMN1MVMTLR3CLOA8RDCEK", "dateTime": 1516134066597}, {"current_trial": 36, "trialdata": {"rt": -1000, "trial_type": "single-audio", "word": "outlaw", "stimulus": "/static/audio/wordpool/OUTLAW.wav", "conditions": [18, 1200, "a", 18000], "internal_node_id": "0.0-27.0", "trial": 0, "time_elapsed": 3185799, "serialpos": 15, "key_press": -1, "wordID": 988, "type": "PRES_AUD", "trial_index": 36}, "uniqueid": "MTK1705:3DL65MZB8EMN1MVMTLR3CLOA8RDCEK", "dateTime": 1516134068701}, {"current_trial": 37, "trialdata": {"rt": -1000, "trial_type": "single-audio", "word": "pliers", "stimulus": "/static/audio/wordpool/PLIERS.wav", "conditions": [18, 1200, "a", 18000], "internal_node_id": "0.0-28.0", "trial": 0, "time_elapsed": 3187901, "serialpos": 16, "key_press": -1, "wordID": 1088, "type": "PRES_AUD", "trial_index": 37}, "uniqueid": "MTK1705:3DL65MZB8EMN1MVMTLR3CLOA8RDCEK", "dateTime": 1516134070803}, {"current_trial": 38, "trialdata": {"rt": -1000, "trial_type": "single-audio", "word": "paper", "stimulus": "/static/audio/wordpool/PAPER.wav", "conditions": [18, 1200, "a", 18000], "internal_node_id": "0.0-29.0", "trial": 0, "time_elapsed": 3190225, "serialpos": 17, "key_press": -1, "wordID": 1010, "type": "PRES_AUD", "trial_index": 38}, "uniqueid": "MTK1705:3DL65MZB8EMN1MVMTLR3CLOA8RDCEK", "dateTime": 1516134073128}, {"current_trial": 39, "trialdata": {"rt": -1, "trial_type": "single-stim", "stimulus": "", "internal_node_id": "0.0-30.0-0.0", "time_elapsed": 3191554, "key_press": -1, "type": "PRE_RECALL_DELAY", "trial_index": 39}, "uniqueid": "MTK1705:3DL65MZB8EMN1MVMTLR3CLOA8RDCEK", "dateTime": 1516134074456}, {"current_trial": 40, "trialdata": {"rt": -1000, "trial_type": "single-audio", "stimulus": "/static/audio/400Hz.wav", "internal_node_id": "0.0-31.0", "time_elapsed": 3192055, "key_press": -1, "type": "PRE_RECALL_ALERT", "trial_index": 40}, "uniqueid": "MTK1705:3DL65MZB8EMN1MVMTLR3CLOA8RDCEK", "dateTime": 1516134074958}, {"current_trial": 41, "trialdata": {"rt": [4016, 7334, 9654, 11702, 15011, 21227, 25802, 29019, 31646, 34212], "recwords": ["paper", "pliers", "plate", "eagle", "popcorn", "cisco", "paper", "scissors", "outside", "eagle"], "key_times": [1956, 2130, 2284, 2506, 2818, 4016, 5459, 5654, 5897, 6028, 6222, 6337, 7334, 7980, 8178, 8299, 8555, 8700, 9654, 10180, 10488, 10770, 11114, 11291, 11702, 11979, 12177, 12331, 12586, 12863, 13085, 13504, 15011, 16941, 17238, 17431, 19115, 19685, 20005, 20306, 21227, 24403, 24555, 24692, 24918, 25177, 25802, 26622, 26907, 27270, 27415, 27688, 27870, 28076, 28427, 29019, 29555, 29854, 30129, 30324, 30884, 31024, 31304, 31646, 32460, 32594, 32988, 33380, 33534, 34212], "trial_type": "free-recall", "conditions": [18, 1200, "a", 18000], "internal_node_id": "0.0-32.0-0.0", "key_presses": [80, 65, 80, 69, 82, 188, 80, 76, 73, 69, 82, 83, 188, 80, 76, 65, 84, 69, 188, 69, 65, 71, 76, 69, 188, 80, 79, 80, 67, 79, 82, 78, 188, 67, 73, 67, 8, 83, 67, 79, 13, 80, 65, 80, 69, 82, 13, 83, 67, 73, 83, 83, 79, 82, 83, 13, 79, 85, 84, 83, 73, 68, 69, 13, 69, 65, 71, 76, 69, 13], "trial": 0, "time_elapsed": 3252063, "type": "FREE_RECALL", "trial_index": 41}, "uniqueid": "MTK1705:3DL65MZB8EMN1MVMTLR3CLOA8RDCEK", "dateTime": 1516134134972}, {"current_trial": 42, "trialdata": {"rt": 51724, "trial_type": "text", "internal_node_id": "0.0-33.0", "time_elapsed": 3305795, "key_press": 32, "type": "INSTRUCTIONS", "trial_index": 42}, "uniqueid": "MTK1705:3DL65MZB8EMN1MVMTLR3CLOA8RDCEK", "dateTime": 1516134188698}, {"current_trial": 43, "trialdata": {"rt": [6716, 10551, 12681, 16022], "trial_type": "math-distractor", "key_times": [5776, 5966, 6716, 9755, 9957, 10551, 12282, 12459, 12681, 15312, 15485, 16022], "responses": ["16", "14", "15", "11"], "num2": [3, 5, 2, 2, 8], "num3": [4, 8, 5, 4, 4], "conditions": [18, 1200, "a", 18000], "internal_node_id": "0.0-34.0", "key_presses": [97, 102, 13, 97, 100, 13, 97, 101, 13, 97, 97, 13], "trial": 1, "time_elapsed": 3325803, "type": "DISTRACTOR", "trial_index": 43, "num1": [9, 1, 8, 5, 9]}, "uniqueid": "MTK1705:3DL65MZB8EMN1MVMTLR3CLOA8RDCEK", "dateTime": 1516134208706}, {"current_trial": 44, "trialdata": {"rt": -1, "trial_type": "single-stim", "stimulus": "<p id=\"stim\">10</p>", "internal_node_id": "0.0-35.0-0.0", "time_elapsed": 3328806, "key_press": -1, "trial_index": 44}, "uniqueid": "MTK1705:3DL65MZB8EMN1MVMTLR3CLOA8RDCEK", "dateTime": 1516134211708}, {"current_trial": 45, "trialdata": {"rt": -1, "trial_type": "single-stim", "stimulus": "<p id=\"stim\">9</p>", "internal_node_id": "0.0-35.0-1.0", "time_elapsed": 3329808, "key_press": -1, "trial_index": 45}, "uniqueid": "MTK1705:3DL65MZB8EMN1MVMTLR3CLOA8RDCEK", "dateTime": 1516134212710}, {"current_trial": 46, "trialdata": {"rt": -1, "trial_type": "single-stim", "stimulus": "<p id=\"stim\">8</p>", "internal_node_id": "0.0-35.0-2.0", "time_elapsed": 3330809, "key_press": -1, "trial_index": 46}, "uniqueid": "MTK1705:3DL65MZB8EMN1MVMTLR3CLOA8RDCEK", "dateTime": 1516134213712}, {"current_trial": 47, "trialdata": {"rt": -1, "trial_type": "single-stim", "stimulus": "<p id=\"stim\">7</p>", "internal_node_id": "0.0-35.0-3.0", "time_elapsed": 3331812, "key_press": -1, "trial_index": 47}, "uniqueid": "MTK1705:3DL65MZB8EMN1MVMTLR3CLOA8RDCEK", "dateTime": 1516134214714}, {"current_trial": 48, "trialdata": {"rt": -1, "trial_type": "single-stim", "stimulus": "<p id=\"stim\">6</p>", "internal_node_id": "0.0-35.0-4.0", "time_elapsed": 3332814, "key_press": -1, "trial_index": 48}, "uniqueid": "MTK1705:3DL65MZB8EMN1MVMTLR3CLOA8RDCEK", "dateTime": 1516134215716}, {"current_trial": 49, "trialdata": {"rt": -1, "trial_type": "single-stim", "stimulus": "<p id=\"stim\">5</p>", "internal_node_id": "0.0-35.0-5.0", "time_elapsed": 3333817, "key_press": -1, "trial_index": 49}, "uniqueid": "MTK1705:3DL65MZB8EMN1MVMTLR3CLOA8RDCEK", "dateTime": 1516134216719}, {"current_trial": 50, "trialdata": {"rt": -1, "trial_type": "single-stim", "stimulus": "<p id=\"stim\">4</p>", "internal_node_id": "0.0-35.0-6.0", "time_elapsed": 3334818, "key_press": -1, "trial_index": 50}, "uniqueid": "MTK1705:3DL65MZB8EMN1MVMTLR3CLOA8RDCEK", "dateTime": 1516134217720}, {"current_trial": 51, "trialdata": {"rt": -1, "trial_type": "single-stim", "stimulus": "<p id=\"stim\">3</p>", "internal_node_id": "0.0-35.0-7.0", "time_elapsed": 3335819, "key_press": -1, "trial_index": 51}, "uniqueid": "MTK1705:3DL65MZB8EMN1MVMTLR3CLOA8RDCEK", "dateTime": 1516134218721}, {"current_trial": 52, "trialdata": {"rt": -1, "trial_type": "single-stim", "stimulus": "<p id=\"stim\">2</p>", "internal_node_id": "0.0-35.0-8.0", "time_elapsed": 3336821, "key_press": -1, "trial_index": 52}, "uniqueid": "MTK1705:3DL65MZB8EMN1MVMTLR3CLOA8RDCEK", "dateTime": 1516134219723}, {"current_trial": 53, "trialdata": {"rt": -1, "trial_type": "single-stim", "stimulus": "<p id=\"stim\">1</p>", "internal_node_id": "0.0-35.0-9.0", "time_elapsed": 3337823, "key_press": -1, "trial_index": 53}, "uniqueid": "MTK1705:3DL65MZB8EMN1MVMTLR3CLOA8RDCEK", "dateTime": 1516134220726}, {"current_trial": 54, "trialdata": {"rt": -1, "trial_type": "single-stim", "stimulus": "<p id=\"stim\">+</p>", "internal_node_id": "0.0-36.0-0.0", "time_elapsed": 3339327, "key_press": -1, "type": "FIXATION", "trial_index": 54}, "uniqueid": "MTK1705:3DL65MZB8EMN1MVMTLR3CLOA8RDCEK", "dateTime": 1516134222229}, {"current_trial": 55, "trialdata": {"rt": -1000, "trial_type": "single-audio", "word": "radish", "stimulus": "/static/audio/wordpool/RADISH.wav", "conditions": [18, 1200, "a", 18000], "internal_node_id": "0.0-37.0", "trial": 1, "time_elapsed": 3341635, "serialpos": 0, "key_press": -1, "wordID": 1157, "type": "PRES_AUD", "trial_index": 55}, "uniqueid": "MTK1705:3DL65MZB8EMN1MVMTLR3CLOA8RDCEK", "dateTime": 1516134224537}, {"current_trial": 56, "trialdata": {"rt": -1000, "trial_type": "single-audio", "word": "window", "stimulus": "/static/audio/wordpool/WINDOW.wav", "conditions": [18, 1200, "a", 18000], "internal_node_id": "0.0-38.0", "trial": 1, "time_elapsed": 3343708, "serialpos": 1, "key_press": -1, "wordID": 1610, "type": "PRES_AUD", "trial_index": 56}, "uniqueid": "MTK1705:3DL65MZB8EMN1MVMTLR3CLOA8RDCEK", "dateTime": 1516134226610}, {"current_trial": 57, "trialdata": {"rt": -1000, "trial_type": "single-audio", "word": "shelf", "stimulus": "/static/audio/wordpool/SHELF.wav", "conditions": [18, 1200, "a", 18000], "internal_node_id": "0.0-39.0", "trial": 1, "time_elapsed": 3345719, "serialpos": 2, "key_press": -1, "wordID": 1279, "type": "PRES_AUD", "trial_index": 57}, "uniqueid": "MTK1705:3DL65MZB8EMN1MVMTLR3CLOA8RDCEK", "dateTime": 1516134228621}, {"current_trial": 58, "trialdata": {"rt": -1000, "trial_type": "single-audio", "word": "mammal", "stimulus": "/static/audio/wordpool/MAMMAL.wav", "conditions": [18, 1200, "a", 18000], "internal_node_id": "0.0-40.0", "trial": 1, "time_elapsed": 3348105, "serialpos": 3, "key_press": -1, "wordID": 860, "type": "PRES_AUD", "trial_index": 58}, "uniqueid": "MTK1705:3DL65MZB8EMN1MVMTLR3CLOA8RDCEK", "dateTime": 1516134231007}, {"current_trial": 59, "trialdata": {"rt": -1000, "trial_type": "single-audio", "word": "machine", "stimulus": "/static/audio/wordpool/MACHINE.wav", "conditions": [18, 1200, "a", 18000], "internal_node_id": "0.0-41.0", "trial": 1, "time_elapsed": 3350383, "serialpos": 4, "key_press": -1, "wordID": 851, "type": "PRES_AUD", "trial_index": 59}, "uniqueid": "MTK1705:3DL65MZB8EMN1MVMTLR3CLOA8RDCEK", "dateTime": 1516134233285}, {"current_trial": 60, "trialdata": {"rt": -1000, "trial_type": "single-audio", "word": "beaker", "stimulus": "/static/audio/wordpool/BEAKER.wav", "conditions": [18, 1200, "a", 18000], "internal_node_id": "0.0-42.0", "trial": 1, "time_elapsed": 3352478, "serialpos": 5, "key_press": -1, "wordID": 103, "type": "PRES_AUD", "trial_index": 60}, "uniqueid": "MTK1705:3DL65MZB8EMN1MVMTLR3CLOA8RDCEK", "dateTime": 1516134235380}, {"current_trial": 61, "trialdata": {"rt": -1000, "trial_type": "single-audio", "word": "primate", "stimulus": "/static/audio/wordpool/PRIMATE.wav", "conditions": [18, 1200, "a", 18000], "internal_node_id": "0.0-43.0", "trial": 1, "time_elapsed": 3354607, "serialpos": 6, "key_press": -1, "wordID": 1122, "type": "PRES_AUD", "trial_index": 61}, "uniqueid": "MTK1705:3DL65MZB8EMN1MVMTLR3CLOA8RDCEK", "dateTime": 1516134237510}, {"current_trial": 62, "trialdata": {"rt": -1000, "trial_type": "single-audio", "word": "child", "stimulus": "/static/audio/wordpool/CHILD.wav", "conditions": [18, 1200, "a", 18000], "internal_node_id": "0.0-44.0", "trial": 1, "time_elapsed": 3356956, "serialpos": 7, "key_press": -1, "wordID": 298, "type": "PRES_AUD", "trial_index": 62}, "uniqueid": "MTK1705:3DL65MZB8EMN1MVMTLR3CLOA8RDCEK", "dateTime": 1516134239858}, {"current_trial": 63, "trialdata": {"rt": -1000, "trial_type": "single-audio", "word": "infant", "stimulus": "/static/audio/wordpool/INFANT.wav", "conditions": [18, 1200, "a", 18000], "internal_node_id": "0.0-45.0", "trial": 1, "time_elapsed": 3359002, "serialpos": 8, "key_press": -1, "wordID": 736, "type": "PRES_AUD", "trial_index": 63}, "uniqueid": "MTK1705:3DL65MZB8EMN1MVMTLR3CLOA8RDCEK", "dateTime": 1516134241904}, {"current_trial": 64, "trialdata": {"rt": -1000, "trial_type": "single-audio", "word": "helmet", "stimulus": "/static/audio/wordpool/HELMET.wav", "conditions": [18, 1200, "a", 18000], "internal_node_id": "0.0-46.0", "trial": 1, "time_elapsed": 3361137, "serialpos": 9, "key_press": -1, "wordID": 701, "type": "PRES_AUD", "trial_index": 64}, "uniqueid": "MTK1705:3DL65MZB8EMN1MVMTLR3CLOA8RDCEK", "dateTime": 1516134244040}, {"current_trial": 65, "trialdata": {"rt": -1000, "trial_type": "single-audio", "word": "passage", "stimulus": "/static/audio/wordpool/PASSAGE.wav", "conditions": [18, 1200, "a", 18000], "internal_node_id": "0.0-47.0", "trial": 1, "time_elapsed": 3363487, "serialpos": 10, "key_press": -1, "wordID": 1018, "type": "PRES_AUD", "trial_index": 65}, "uniqueid": "MTK1705:3DL65MZB8EMN1MVMTLR3CLOA8RDCEK", "dateTime": 1516134246389}, {"current_trial": 66, "trialdata": {"rt": -1000, "trial_type": "single-audio", "word": "daisy", "stimulus": "/static/audio/wordpool/DAISY.wav", "conditions": [18, 1200, "a", 18000], "internal_node_id": "0.0-48.0", "trial": 1, "time_elapsed": 3365764, "serialpos": 11, "key_press": -1, "wordID": 434, "type": "PRES_AUD", "trial_index": 66}, "uniqueid": "MTK1705:3DL65MZB8EMN1MVMTLR3CLOA8RDCEK", "dateTime": 1516134248667}, {"current_trial": 67, "trialdata": {"rt": -1000, "trial_type": "single-audio", "word": "rod", "stimulus": "/static/audio/wordpool/ROD.wav", "conditions": [18, 1200, "a", 18000], "internal_node_id": "0.0-49.0", "trial": 1, "time_elapsed": 3367946, "serialpos": 12, "key_press": -1, "wordID": 1202, "type": "PRES_AUD", "trial_index": 67}, "uniqueid": "MTK1705:3DL65MZB8EMN1MVMTLR3CLOA8RDCEK", "dateTime": 1516134250849}, {"current_trial": 68, "trialdata": {"rt": -1000, "trial_type": "single-audio", "word": "journal", "stimulus": "/static/audio/wordpool/JOURNAL.wav", "conditions": [18, 1200, "a", 18000], "internal_node_id": "0.0-50.0", "trial": 1, "time_elapsed": 3370275, "serialpos": 13, "key_press": -1, "wordID": 759, "type": "PRES_AUD", "trial_index": 68}, "uniqueid": "MTK1705:3DL65MZB8EMN1MVMTLR3CLOA8RDCEK", "dateTime": 1516134253178}, {"current_trial": 69, "trialdata": {"rt": -1000, "trial_type": "single-audio", "word": "briefcase", "stimulus": "/static/audio/wordpool/BRIEFCASE.wav", "conditions": [18, 1200, "a", 18000], "internal_node_id": "0.0-51.0", "trial": 1, "time_elapsed": 3372471, "serialpos": 14, "key_press": -1, "wordID": 174, "type": "PRES_AUD", "trial_index": 69}, "uniqueid": "MTK1705:3DL65MZB8EMN1MVMTLR3CLOA8RDCEK", "dateTime": 1516134255373}, {"current_trial": 70, "trialdata": {"rt": -1000, "trial_type": "single-audio", "word": "tribe", "stimulus": "/static/audio/wordpool/TRIBE.wav", "conditions": [18, 1200, "a", 18000], "internal_node_id": "0.0-52.0", "trial": 1, "time_elapsed": 3374844, "serialpos": 15, "key_press": -1, "wordID": 1504, "type": "PRES_AUD", "trial_index": 70}, "uniqueid": "MTK1705:3DL65MZB8EMN1MVMTLR3CLOA8RDCEK", "dateTime": 1516134257747}, {"current_trial": 71, "trialdata": {"rt": -1000, "trial_type": "single-audio", "word": "marrow", "stimulus": "/static/audio/wordpool/MARROW.wav", "conditions": [18, 1200, "a", 18000], "internal_node_id": "0.0-53.0", "trial": 1, "time_elapsed": 3377117, "serialpos": 16, "key_press": -1, "wordID": 871, "type": "PRES_AUD", "trial_index": 71}, "uniqueid": "MTK1705:3DL65MZB8EMN1MVMTLR3CLOA8RDCEK", "dateTime": 1516134260020}, {"current_trial": 72, "trialdata": {"rt": -1000, "trial_type": "single-audio", "word": "shark", "stimulus": "/static/audio/wordpool/SHARK.wav", "conditions": [18, 1200, "a", 18000], "internal_node_id": "0.0-54.0", "trial": 1, "time_elapsed": 3379258, "serialpos": 17, "key_press": -1, "wordID": 1274, "type": "PRES_AUD", "trial_index": 72}, "uniqueid": "MTK1705:3DL65MZB8EMN1MVMTLR3CLOA8RDCEK", "dateTime": 1516134262161}, {"current_trial": 73, "trialdata": {"rt": -1, "trial_type": "single-stim", "stimulus": "", "internal_node_id": "0.0-55.0-0.0", "time_elapsed": 3380516, "key_press": -1, "type": "PRE_RECALL_DELAY", "trial_index": 73}, "uniqueid": "MTK1705:3DL65MZB8EMN1MVMTLR3CLOA8RDCEK", "dateTime": 1516134263418}, {"current_trial": 74, "trialdata": {"rt": -1000, "trial_type": "single-audio", "stimulus": "/static/audio/400Hz.wav", "internal_node_id": "0.0-56.0", "time_elapsed": 3381019, "key_press": -1, "type": "PRE_RECALL_ALERT", "trial_index": 74}, "uniqueid": "MTK1705:3DL65MZB8EMN1MVMTLR3CLOA8RDCEK", "dateTime": 1516134263923}, {"current_trial": 75, "trialdata": {"rt": [4019, 6661, 9602, 11725, 24244, 32073, 38864], "recwords": ["shark", "window", "infant", "child", "rod", "radish", "helmet"], "key_times": [1683, 1880, 1969, 2175, 2697, 4019, 4686, 5075, 5352, 5560, 5809, 5946, 6661, 7350, 7608, 7912, 8245, 8514, 8818, 9602, 10248, 10460, 10690, 10877, 11248, 11725, 23172, 23388, 23533, 24244, 30661, 30738, 30893, 31262, 31382, 31560, 32073, 36210, 36360, 37113, 37746, 37858, 38103, 38864], "trial_type": "free-recall", "conditions": [18, 1200, "a", 18000], "internal_node_id": "0.0-57.0-0.0", "key_presses": [83, 72, 65, 82, 75, 13, 87, 73, 78, 68, 79, 87, 13, 73, 78, 70, 65, 78, 84, 13, 67, 72, 73, 76, 68, 13, 82, 79, 68, 13, 82, 65, 68, 73, 83, 72, 13, 72, 69, 76, 77, 69, 84, 13], "trial": 1, "time_elapsed": 3441029, "type": "FREE_RECALL", "trial_index": 75}, "uniqueid": "MTK1705:3DL65MZB8EMN1MVMTLR3CLOA8RDCEK", "dateTime": 1516134323938}, {"current_trial": 76, "trialdata": {"rt": 8029, "trial_type": "text", "internal_node_id": "0.0-58.0", "time_elapsed": 3451068, "key_press": 32, "type": "INSTRUCTIONS", "trial_index": 76}, "uniqueid": "MTK1705:3DL65MZB8EMN1MVMTLR3CLOA8RDCEK", "dateTime": 1516134333971}, {"current_trial": 77, "trialdata": {"rt": [4874, 7472, 10794, 12824, 16738, 18824, 21884], "trial_type": "math-distractor", "key_times": [4332, 4580, 4874, 7021, 7259, 7472, 10368, 10528, 10794, 12165, 12403, 12824, 16257, 16416, 16738, 18468, 18634, 18824, 21377, 21667, 21884], "responses": ["19", "17", "16", "18", "13", "15", "18"], "num2": [7, 3, 2, 5, 1, 5, 5, 8], "num3": [4, 8, 7, 8, 9, 2, 4, 3], "conditions": [12, 1600, "a", 24000], "internal_node_id": "0.0-59.0", "key_presses": [97, 105, 13, 97, 103, 13, 97, 102, 13, 97, 104, 13, 97, 99, 13, 97, 101, 13, 97, 104, 13], "trial": 2, "time_elapsed": 3476079, "type": "DISTRACTOR", "trial_index": 77, "num1": [8, 6, 6, 5, 3, 8, 9, 4]}, "uniqueid": "MTK1705:3DL65MZB8EMN1MVMTLR3CLOA8RDCEK", "dateTime": 1516134358982}, {"current_trial": 78, "trialdata": {"rt": -1, "trial_type": "single-stim", "stimulus": "<p id=\"stim\">10</p>", "internal_node_id": "0.0-60.0-0.0", "time_elapsed": 3479083, "key_press": -1, "trial_index": 78}, "uniqueid": "MTK1705:3DL65MZB8EMN1MVMTLR3CLOA8RDCEK", "dateTime": 1516134361986}, {"current_trial": 79, "trialdata": {"rt": -1, "trial_type": "single-stim", "stimulus": "<p id=\"stim\">9</p>", "internal_node_id": "0.0-60.0-1.0", "time_elapsed": 3480087, "key_press": -1, "trial_index": 79}, "uniqueid": "MTK1705:3DL65MZB8EMN1MVMTLR3CLOA8RDCEK", "dateTime": 1516134362990}, {"current_trial": 80, "trialdata": {"rt": -1, "trial_type": "single-stim", "stimulus": "<p id=\"stim\">8</p>", "internal_node_id": "0.0-60.0-2.0", "time_elapsed": 3481090, "key_press": -1, "trial_index": 80}, "uniqueid": "MTK1705:3DL65MZB8EMN1MVMTLR3CLOA8RDCEK", "dateTime": 1516134363992}, {"current_trial": 81, "trialdata": {"rt": -1, "trial_type": "single-stim", "stimulus": "<p id=\"stim\">7</p>", "internal_node_id": "0.0-60.0-3.0", "time_elapsed": 3482093, "key_press": -1, "trial_index": 81}, "uniqueid": "MTK1705:3DL65MZB8EMN1MVMTLR3CLOA8RDCEK", "dateTime": 1516134364996}, {"current_trial": 82, "trialdata": {"rt": -1, "trial_type": "single-stim", "stimulus": "<p id=\"stim\">6</p>", "internal_node_id": "0.0-60.0-4.0", "time_elapsed": 3483096, "key_press": -1, "trial_index": 82}, "uniqueid": "MTK1705:3DL65MZB8EMN1MVMTLR3CLOA8RDCEK", "dateTime": 1516134365999}, {"current_trial": 83, "trialdata": {"rt": -1, "trial_type": "single-stim", "stimulus": "<p id=\"stim\">5</p>", "internal_node_id": "0.0-60.0-5.0", "time_elapsed": 3484098, "key_press": -1, "trial_index": 83}, "uniqueid": "MTK1705:3DL65MZB8EMN1MVMTLR3CLOA8RDCEK", "dateTime": 1516134367001}, {"current_trial": 84, "trialdata": {"rt": -1, "trial_type": "single-stim", "stimulus": "<p id=\"stim\">4</p>", "internal_node_id": "0.0-60.0-6.0", "time_elapsed": 3485101, "key_press": -1, "trial_index": 84}, "uniqueid": "MTK1705:3DL65MZB8EMN1MVMTLR3CLOA8RDCEK", "dateTime": 1516134368003}, {"current_trial": 85, "trialdata": {"rt": -1, "trial_type": "single-stim", "stimulus": "<p id=\"stim\">3</p>", "internal_node_id": "0.0-60.0-7.0", "time_elapsed": 3486104, "key_press": -1, "trial_index": 85}, "uniqueid": "MTK1705:3DL65MZB8EMN1MVMTLR3CLOA8RDCEK", "dateTime": 1516134369008}, {"current_trial": 86, "trialdata": {"rt": -1, "trial_type": "single-stim", "stimulus": "<p id=\"stim\">2</p>", "internal_node_id": "0.0-60.0-8.0", "time_elapsed": 3487107, "key_press": -1, "trial_index": 86}, "uniqueid": "MTK1705:3DL65MZB8EMN1MVMTLR3CLOA8RDCEK", "dateTime": 1516134370009}, {"current_trial": 87, "trialdata": {"rt": -1, "trial_type": "single-stim", "stimulus": "<p id=\"stim\">1</p>", "internal_node_id": "0.0-60.0-9.0", "time_elapsed": 3488109, "key_press": -1, "trial_index": 87}, "uniqueid": "MTK1705:3DL65MZB8EMN1MVMTLR3CLOA8RDCEK", "dateTime": 1516134371011}, {"current_trial": 88, "trialdata": {"rt": -1, "trial_type": "single-stim", "stimulus": "<p id=\"stim\">+</p>", "internal_node_id": "0.0-61.0-0.0", "time_elapsed": 3489612, "key_press": -1, "type": "FIXATION", "trial_index": 88}, "uniqueid": "MTK1705:3DL65MZB8EMN1MVMTLR3CLOA8RDCEK", "dateTime": 1516134372514}, {"current_trial": 89, "trialdata": {"rt": -1000, "trial_type": "single-audio", "word": "flashlight", "stimulus": "/static/audio/wordpool/FLASHLIGHT.wav", "conditions": [12, 1600, "a", 24000], "internal_node_id": "0.0-62.0", "trial": 2, "time_elapsed": 3492177, "serialpos": 0, "key_press": -1, "wordID": 574, "type": "PRES_AUD", "trial_index": 89}, "uniqueid": "MTK1705:3DL65MZB8EMN1MVMTLR3CLOA8RDCEK", "dateTime": 1516134375079}, {"current_trial": 90, "trialdata": {"rt": -1000, "trial_type": "single-audio", "word": "actress", "stimulus": "/static/audio/wordpool/ACTRESS.wav", "conditions": [12, 1600, "a", 24000], "internal_node_id": "0.0-63.0", "trial": 2, "time_elapsed": 3494963, "serialpos": 1, "key_press": -1, "wordID": 5, "type": "PRES_AUD", "trial_index": 90}, "uniqueid": "MTK1705:3DL65MZB8EMN1MVMTLR3CLOA8RDCEK", "dateTime": 1516134377865}, {"current_trial": 91, "trialdata": {"rt": -1000, "trial_type": "single-audio", "word": "rooster", "stimulus": "/static/audio/wordpool/ROOSTER.wav", "conditions": [12, 1600, "a", 24000], "internal_node_id": "0.0-64.0", "trial": 2, "time_elapsed": 3497547, "serialpos": 2, "key_press": -1, "wordID": 1208, "type": "PRES_AUD", "trial_index": 91}, "uniqueid": "MTK1705:3DL65MZB8EMN1MVMTLR3CLOA8RDCEK", "dateTime": 1516134380450}, {"current_trial": 92, "trialdata": {"rt": -1000, "trial_type": "single-audio", "word": "knife", "stimulus": "/static/audio/wordpool/KNIFE.wav", "conditions": [12, 1600, "a", 24000], "internal_node_id": "0.0-65.0", "trial": 2, "time_elapsed": 3500126, "serialpos": 3, "key_press": -1, "wordID": 784, "type": "PRES_AUD", "trial_index": 92}, "uniqueid": "MTK1705:3DL65MZB8EMN1MVMTLR3CLOA8RDCEK", "dateTime": 1516134383028}, {"current_trial": 93, "trialdata": {"rt": -1000, "trial_type": "single-audio", "word": "cod", "stimulus": "/static/audio/wordpool/COD.wav", "conditions": [12, 1600, "a", 24000], "internal_node_id": "0.0-66.0", "trial": 2, "time_elapsed": 3502646, "serialpos": 4, "key_press": -1, "wordID": 339, "type": "PRES_AUD", "trial_index": 93}, "uniqueid": "MTK1705:3DL65MZB8EMN1MVMTLR3CLOA8RDCEK", "dateTime": 1516134385548}, {"current_trial": 94, "trialdata": {"rt": -1000, "trial_type": "single-audio", "word": "crevice", "stimulus": "/static/audio/wordpool/CREVICE.wav", "conditions": [12, 1600, "a", 24000], "internal_node_id": "0.0-67.0", "trial": 2, "time_elapsed": 3505096, "serialpos": 5, "key_press": -1, "wordID": 404, "type": "PRES_AUD", "trial_index": 94}, "uniqueid": "MTK1705:3DL65MZB8EMN1MVMTLR3CLOA8RDCEK", "dateTime": 1516134387999}, {"current_trial": 95, "trialdata": {"rt": -1000, "trial_type": "single-audio", "word": "parsley", "stimulus": "/static/audio/wordpool/PARSLEY.wav", "conditions": [12, 1600, "a", 24000], "internal_node_id": "0.0-68.0", "trial": 2, "time_elapsed": 3507551, "serialpos": 6, "key_press": -1, "wordID": 1015, "type": "PRES_AUD", "trial_index": 95}, "uniqueid": "MTK1705:3DL65MZB8EMN1MVMTLR3CLOA8RDCEK", "dateTime": 1516134390453}, {"current_trial": 96, "trialdata": {"rt": -1000, "trial_type": "single-audio", "word": "lettuce", "stimulus": "/static/audio/wordpool/LETTUCE.wav", "conditions": [12, 1600, "a", 24000], "internal_node_id": "0.0-69.0", "trial": 2, "time_elapsed": 3510191, "serialpos": 7, "key_press": -1, "wordID": 813, "type": "PRES_AUD", "trial_index": 96}, "uniqueid": "MTK1705:3DL65MZB8EMN1MVMTLR3CLOA8RDCEK", "dateTime": 1516134393094}, {"current_trial": 97, "trialdata": {"rt": -1000, "trial_type": "single-audio", "word": "clamp", "stimulus": "/static/audio/wordpool/CLAMP.wav", "conditions": [12, 1600, "a", 24000], "internal_node_id": "0.0-70.0", "trial": 2, "time_elapsed": 3512859, "serialpos": 8, "key_press": -1, "wordID": 315, "type": "PRES_AUD", "trial_index": 97}, "uniqueid": "MTK1705:3DL65MZB8EMN1MVMTLR3CLOA8RDCEK", "dateTime": 1516134395762}, {"current_trial": 98, "trialdata": {"rt": -1000, "trial_type": "single-audio", "word": "sunset", "stimulus": "/static/audio/wordpool/SUNSET.wav", "conditions": [12, 1600, "a", 24000], "internal_node_id": "0.0-71.0", "trial": 2, "time_elapsed": 3515305, "serialpos": 9, "key_press": -1, "wordID": 1407, "type": "PRES_AUD", "trial_index": 98}, "uniqueid": "MTK1705:3DL65MZB8EMN1MVMTLR3CLOA8RDCEK", "dateTime": 1516134398208}, {"current_trial": 99, "trialdata": {"rt": -1000, "trial_type": "single-audio", "word": "salmon", "stimulus": "/static/audio/wordpool/SALMON.wav", "conditions": [12, 1600, "a", 24000], "internal_node_id": "0.0-72.0", "trial": 2, "time_elapsed": 3518070, "serialpos": 10, "key_press": -1, "wordID": 1226, "type": "PRES_AUD", "trial_index": 99}, "uniqueid": "MTK1705:3DL65MZB8EMN1MVMTLR3CLOA8RDCEK", "dateTime": 1516134400973}, {"current_trial": 100, "trialdata": {"rt": -1000, "trial_type": "single-audio", "word": "palace", "stimulus": "/static/audio/wordpool/PALACE.wav", "conditions": [12, 1600, "a", 24000], "internal_node_id": "0.0-73.0", "trial": 2, "time_elapsed": 3520665, "serialpos": 11, "key_press": -1, "wordID": 1005, "type": "PRES_AUD", "trial_index": 100}, "uniqueid": "MTK1705:3DL65MZB8EMN1MVMTLR3CLOA8RDCEK", "dateTime": 1516134403567}, {"current_trial": 101, "trialdata": {"rt": -1, "trial_type": "single-stim", "stimulus": "", "internal_node_id": "0.0-74.0-0.0", "time_elapsed": 3521949, "key_press": -1, "type": "PRE_RECALL_DELAY", "trial_index": 101}, "uniqueid": "MTK1705:3DL65MZB8EMN1MVMTLR3CLOA8RDCEK", "dateTime": 1516134404852}, {"current_trial": 102, "trialdata": {"rt": -1000, "trial_type": "single-audio", "stimulus": "/static/audio/400Hz.wav", "internal_node_id": "0.0-75.0", "time_elapsed": 3522452, "key_press": -1, "type": "PRE_RECALL_ALERT", "trial_index": 102}, "uniqueid": "MTK1705:3DL65MZB8EMN1MVMTLR3CLOA8RDCEK", "dateTime": 1516134405355}, {"current_trial": 103, "trialdata": {"rt": [3333, 5503, 7564, 15724, 21511, 29888, 33041], "recwords": ["palace", "cod", "salmon", "puss", "knife", "salmon", "sunset"], "key_times": [1292, 1690, 1874, 1987, 2303, 2523, 3333, 4705, 4971, 5087, 5503, 6068, 6311, 6473, 6686, 6908, 7146, 7564, 13282, 13718, 14042, 14715, 15724, 20158, 20391, 20607, 20939, 21176, 21511, 28260, 28478, 28648, 28850, 29024, 29237, 29888, 31052, 31297, 31633, 31764, 32073, 32226, 33041], "trial_type": "free-recall", "conditions": [12, 1600, "a", 24000], "internal_node_id": "0.0-76.0-0.0", "key_presses": [80, 65, 76, 65, 67, 69, 13, 67, 79, 68, 13, 83, 65, 76, 77, 79, 78, 13, 80, 85, 83, 83, 13, 75, 78, 73, 70, 69, 13, 83, 65, 76, 77, 79, 78, 13, 83, 85, 78, 83, 69, 84, 13], "trial": 2, "time_elapsed": 3582459, "type": "FREE_RECALL", "trial_index": 103}, "uniqueid": "MTK1705:3DL65MZB8EMN1MVMTLR3CLOA8RDCEK", "dateTime": 1516134465367}, {"current_trial": 104, "trialdata": {"rt": 3144, "trial_type": "text", "internal_node_id": "0.0-77.0", "time_elapsed": 3587610, "key_press": 32, "type": "INSTRUCTIONS", "trial_index": 104}, "uniqueid": "MTK1705:3DL65MZB8EMN1MVMTLR3CLOA8RDCEK", "dateTime": 1516134470512}, {"current_trial": 105, "trialdata": {"rt": [3595, 6668, 8495, 11051, 14875, 18723, 21379, 23989], "trial_type": "math-distractor", "key_times": [3204, 3397, 3595, 6295, 6460, 6668, 8117, 8273, 8495, 10614, 10835, 11051, 14470, 14671, 14875, 18328, 18467, 18723, 21042, 21190, 21379, 23601, 23799, 23989], "responses": ["14", "15", "16", "18", "14", "22", "15", "14"], "num2": [4, 5, 2, 3, 4, 6, 6, 4, 5], "num3": [6, 7, 8, 9, 9, 8, 4, 4, 3], "conditions": [24, 1600, "a", 24000], "internal_node_id": "0.0-78.0", "key_presses": [97, 100, 13, 97, 101, 13, 97, 102, 13, 97, 104, 13, 97, 100, 13, 98, 98, 13, 97, 101, 13, 97, 100, 13], "trial": 3, "time_elapsed": 3613619, "type": "DISTRACTOR", "trial_index": 105, "num1": [4, 3, 6, 6, 1, 8, 5, 6, 4]}, "uniqueid": "MTK1705:3DL65MZB8EMN1MVMTLR3CLOA8RDCEK", "dateTime": 1516134496522}, {"current_trial": 106, "trialdata": {"rt": -1, "trial_type": "single-stim", "stimulus": "<p id=\"stim\">10</p>", "internal_node_id": "0.0-79.0-0.0", "time_elapsed": 3616623, "key_press": -1, "trial_index": 106}, "uniqueid": "MTK1705:3DL65MZB8EMN1MVMTLR3CLOA8RDCEK", "dateTime": 1516134499525}, {"current_trial": 107, "trialdata": {"rt": -1, "trial_type": "single-stim", "stimulus": "<p id=\"stim\">9</p>", "internal_node_id": "0.0-79.0-1.0", "time_elapsed": 3617625, "key_press": -1, "trial_index": 107}, "uniqueid": "MTK1705:3DL65MZB8EMN1MVMTLR3CLOA8RDCEK", "dateTime": 1516134500527}, {"current_trial": 108, "trialdata": {"rt": -1, "trial_type": "single-stim", "stimulus": "<p id=\"stim\">8</p>", "internal_node_id": "0.0-79.0-2.0", "time_elapsed": 3618628, "key_press": -1, "trial_index": 108}, "uniqueid": "MTK1705:3DL65MZB8EMN1MVMTLR3CLOA8RDCEK", "dateTime": 1516134501530}, {"current_trial": 109, "trialdata": {"rt": -1, "trial_type": "single-stim", "stimulus": "<p id=\"stim\">7</p>", "internal_node_id": "0.0-79.0-3.0", "time_elapsed": 3619630, "key_press": -1, "trial_index": 109}, "uniqueid": "MTK1705:3DL65MZB8EMN1MVMTLR3CLOA8RDCEK", "dateTime": 1516134502532}, {"current_trial": 110, "trialdata": {"rt": -1, "trial_type": "single-stim", "stimulus": "<p id=\"stim\">6</p>", "internal_node_id": "0.0-79.0-4.0", "time_elapsed": 3620632, "key_press": -1, "trial_index": 110}, "uniqueid": "MTK1705:3DL65MZB8EMN1MVMTLR3CLOA8RDCEK", "dateTime": 1516134503534}, {"current_trial": 111, "trialdata": {"rt": -1, "trial_type": "single-stim", "stimulus": "<p id=\"stim\">5</p>", "internal_node_id": "0.0-79.0-5.0", "time_elapsed": 3621634, "key_press": -1, "trial_index": 111}, "uniqueid": "MTK1705:3DL65MZB8EMN1MVMTLR3CLOA8RDCEK", "dateTime": 1516134504536}, {"current_trial": 112, "trialdata": {"rt": -1, "trial_type": "single-stim", "stimulus": "<p id=\"stim\">4</p>", "internal_node_id": "0.0-79.0-6.0", "time_elapsed": 3622635, "key_press": -1, "trial_index": 112}, "uniqueid": "MTK1705:3DL65MZB8EMN1MVMTLR3CLOA8RDCEK", "dateTime": 1516134505537}, {"current_trial": 113, "trialdata": {"rt": -1, "trial_type": "single-stim", "stimulus": "<p id=\"stim\">3</p>", "internal_node_id": "0.0-79.0-7.0", "time_elapsed": 3623637, "key_press": -1, "trial_index": 113}, "uniqueid": "MTK1705:3DL65MZB8EMN1MVMTLR3CLOA8RDCEK", "dateTime": 1516134506539}, {"current_trial": 114, "trialdata": {"rt": -1, "trial_type": "single-stim", "stimulus": "<p id=\"stim\">2</p>", "internal_node_id": "0.0-79.0-8.0", "time_elapsed": 3624638, "key_press": -1, "trial_index": 114}, "uniqueid": "MTK1705:3DL65MZB8EMN1MVMTLR3CLOA8RDCEK", "dateTime": 1516134507540}, {"current_trial": 115, "trialdata": {"rt": -1, "trial_type": "single-stim", "stimulus": "<p id=\"stim\">1</p>", "internal_node_id": "0.0-79.0-9.0", "time_elapsed": 3625640, "key_press": -1, "trial_index": 115}, "uniqueid": "MTK1705:3DL65MZB8EMN1MVMTLR3CLOA8RDCEK", "dateTime": 1516134508542}, {"current_trial": 116, "trialdata": {"rt": -1, "trial_type": "single-stim", "stimulus": "<p id=\"stim\">+</p>", "internal_node_id": "0.0-80.0-0.0", "time_elapsed": 3627142, "key_press": -1, "type": "FIXATION", "trial_index": 116}, "uniqueid": "MTK1705:3DL65MZB8EMN1MVMTLR3CLOA8RDCEK", "dateTime": 1516134510044}, {"current_trial": 117, "trialdata": {"rt": -1000, "trial_type": "single-audio", "word": "receipt", "stimulus": "/static/audio/wordpool/RECEIPT.wav", "conditions": [24, 1600, "a", 24000], "internal_node_id": "0.0-81.0", "trial": 3, "time_elapsed": 3629598, "serialpos": 0, "key_press": -1, "wordID": 1172, "type": "PRES_AUD", "trial_index": 117}, "uniqueid": "MTK1705:3DL65MZB8EMN1MVMTLR3CLOA8RDCEK", "dateTime": 1516134512500}, {"current_trial": 118, "trialdata": {"rt": -1000, "trial_type": "single-audio", "word": "robber", "stimulus": "/static/audio/wordpool/ROBBER.wav", "conditions": [24, 1600, "a", 24000], "internal_node_id": "0.0-82.0", "trial": 3, "time_elapsed": 3632173, "serialpos": 1, "key_press": -1, "wordID": 1196, "type": "PRES_AUD", "trial_index": 118}, "uniqueid": "MTK1705:3DL65MZB8EMN1MVMTLR3CLOA8RDCEK", "dateTime": 1516134515075}, {"current_trial": 119, "trialdata": {"rt": -1000, "trial_type": "single-audio", "word": "fox", "stimulus": "/static/audio/wordpool/FOX.wav", "conditions": [24, 1600, "a", 24000], "internal_node_id": "0.0-83.0", "trial": 3, "time_elapsed": 3634717, "serialpos": 2, "key_press": -1, "wordID": 597, "type": "PRES_AUD", "trial_index": 119}, "uniqueid": "MTK1705:3DL65MZB8EMN1MVMTLR3CLOA8RDCEK", "dateTime": 1516134517620}, {"current_trial": 120, "trialdata": {"rt": -1000, "trial_type": "single-audio", "word": "candy", "stimulus": "/static/audio/wordpool/CANDY.wav", "conditions": [24, 1600, "a", 24000], "internal_node_id": "0.0-84.0", "trial": 3, "time_elapsed": 3637365, "serialpos": 3, "key_press": -1, "wordID": 229, "type": "PRES_AUD", "trial_index": 120}, "uniqueid": "MTK1705:3DL65MZB8EMN1MVMTLR3CLOA8RDCEK", "dateTime": 1516134520267}, {"current_trial": 121, "trialdata": {"rt": -1000, "trial_type": "single-audio", "word": "turtle", "stimulus": "/static/audio/wordpool/TURTLE.wav", "conditions": [24, 1600, "a", 24000], "internal_node_id": "0.0-85.0", "trial": 3, "time_elapsed": 3640124, "serialpos": 4, "key_press": -1, "wordID": 1521, "type": "PRES_AUD", "trial_index": 121}, "uniqueid": "MTK1705:3DL65MZB8EMN1MVMTLR3CLOA8RDCEK", "dateTime": 1516134523026}, {"current_trial": 122, "trialdata": {"rt": -1000, "trial_type": "single-audio", "word": "muffin", "stimulus": "/static/audio/wordpool/MUFFIN.wav", "conditions": [24, 1600, "a", 24000], "internal_node_id": "0.0-86.0", "trial": 3, "time_elapsed": 3642527, "serialpos": 5, "key_press": -1, "wordID": 928, "type": "PRES_AUD", "trial_index": 122}, "uniqueid": "MTK1705:3DL65MZB8EMN1MVMTLR3CLOA8RDCEK", "dateTime": 1516134525429}, {"current_trial": 123, "trialdata": {"rt": -1000, "trial_type": "single-audio", "word": "pastry", "stimulus": "/static/audio/wordpool/PASTRY.wav", "conditions": [24, 1600, "a", 24000], "internal_node_id": "0.0-87.0", "trial": 3, "time_elapsed": 3645204, "serialpos": 6, "key_press": -1, "wordID": 1021, "type": "PRES_AUD", "trial_index": 123}, "uniqueid": "MTK1705:3DL65MZB8EMN1MVMTLR3CLOA8RDCEK", "dateTime": 1516134528106}, {"current_trial": 124, "trialdata": {"rt": -1000, "trial_type": "single-audio", "word": "kleenex", "stimulus": "/static/audio/wordpool/KLEENEX.wav", "conditions": [24, 1600, "a", 24000], "internal_node_id": "0.0-88.0", "trial": 3, "time_elapsed": 3647620, "serialpos": 7, "key_press": -1, "wordID": 781, "type": "PRES_AUD", "trial_index": 124}, "uniqueid": "MTK1705:3DL65MZB8EMN1MVMTLR3CLOA8RDCEK", "dateTime": 1516134530522}, {"current_trial": 125, "trialdata": {"rt": -1000, "trial_type": "single-audio", "word": "snake", "stimulus": "/static/audio/wordpool/SNAKE.wav", "conditions": [24, 1600, "a", 24000], "internal_node_id": "0.0-89.0", "trial": 3, "time_elapsed": 3650382, "serialpos": 8, "key_press": -1, "wordID": 1332, "type": "PRES_AUD", "trial_index": 125}, "uniqueid": "MTK1705:3DL65MZB8EMN1MVMTLR3CLOA8RDCEK", "dateTime": 1516134533284}, {"current_trial": 126, "trialdata": {"rt": -1000, "trial_type": "single-audio", "word": "asia", "stimulus": "/static/audio/wordpool/ASIA.wav", "conditions": [24, 1600, "a", 24000], "internal_node_id": "0.0-90.0", "trial": 3, "time_elapsed": 3652971, "serialpos": 9, "key_press": -1, "wordID": 45, "type": "PRES_AUD", "trial_index": 126}, "uniqueid": "MTK1705:3DL65MZB8EMN1MVMTLR3CLOA8RDCEK", "dateTime": 1516134535873}, {"current_trial": 127, "trialdata": {"rt": -1000, "trial_type": "single-audio", "word": "box", "stimulus": "/static/audio/wordpool/BOX.wav", "conditions": [24, 1600, "a", 24000], "internal_node_id": "0.0-91.0", "trial": 3, "time_elapsed": 3655381, "serialpos": 10, "key_press": -1, "wordID": 158, "type": "PRES_AUD", "trial_index": 127}, "uniqueid": "MTK1705:3DL65MZB8EMN1MVMTLR3CLOA8RDCEK", "dateTime": 1516134538283}, {"current_trial": 128, "trialdata": {"rt": -1000, "trial_type": "single-audio", "word": "clothes", "stimulus": "/static/audio/wordpool/CLOTHES.wav", "conditions": [24, 1600, "a", 24000], "internal_node_id": "0.0-92.0", "trial": 3, "time_elapsed": 3657938, "serialpos": 11, "key_press": -1, "wordID": 326, "type": "PRES_AUD", "trial_index": 128}, "uniqueid": "MTK1705:3DL65MZB8EMN1MVMTLR3CLOA8RDCEK", "dateTime": 1516134540840}, {"current_trial": 129, "trialdata": {"rt": -1000, "trial_type": "single-audio", "word": "venus", "stimulus": "/static/audio/wordpool/VENUS.wav", "conditions": [24, 1600, "a", 24000], "internal_node_id": "0.0-93.0", "trial": 3, "time_elapsed": 3660705, "serialpos": 12, "key_press": -1, "wordID": 1556, "type": "PRES_AUD", "trial_index": 129}, "uniqueid": "MTK1705:3DL65MZB8EMN1MVMTLR3CLOA8RDCEK", "dateTime": 1516134543608}, {"current_trial": 130, "trialdata": {"rt": -1000, "trial_type": "single-audio", "word": "belly", "stimulus": "/static/audio/wordpool/BELLY.wav", "conditions": [24, 1600, "a", 24000], "internal_node_id": "0.0-94.0", "trial": 3, "time_elapsed": 3663438, "serialpos": 13, "key_press": -1, "wordID": 118, "type": "PRES_AUD", "trial_index": 130}, "uniqueid": "MTK1705:3DL65MZB8EMN1MVMTLR3CLOA8RDCEK", "dateTime": 1516134546341}, {"current_trial": 131, "trialdata": {"rt": -1000, "trial_type": "single-audio", "word": "crayon", "stimulus": "/static/audio/wordpool/CRAYON.wav", "conditions": [24, 1600, "a", 24000], "internal_node_id": "0.0-95.0", "trial": 3, "time_elapsed": 3665924, "serialpos": 14, "key_press": -1, "wordID": 400, "type": "PRES_AUD", "trial_index": 131}, "uniqueid": "MTK1705:3DL65MZB8EMN1MVMTLR3CLOA8RDCEK", "dateTime": 1516134548826}, {"current_trial": 132, "trialdata": {"rt": -1000, "trial_type": "single-audio", "word": "widow", "stimulus": "/static/audio/wordpool/WIDOW.wav", "conditions": [24, 1600, "a", 24000], "internal_node_id": "0.0-96.0", "trial": 3, "time_elapsed": 3668417, "serialpos": 15, "key_press": -1, "wordID": 1607, "type": "PRES_AUD", "trial_index": 132}, "uniqueid": "MTK1705:3DL65MZB8EMN1MVMTLR3CLOA8RDCEK", "dateTime": 1516134551319}, {"current_trial": 133, "trialdata": {"rt": -1000, "trial_type": "single-audio", "word": "baby", "stimulus": "/static/audio/wordpool/BABY.wav", "conditions": [24, 1600, "a", 24000], "internal_node_id": "0.0-97.0", "trial": 3, "time_elapsed": 3671180, "serialpos": 16, "key_press": -1, "wordID": 63, "type": "PRES_AUD", "trial_index": 133}, "uniqueid": "MTK1705:3DL65MZB8EMN1MVMTLR3CLOA8RDCEK", "dateTime": 1516134554083}, {"current_trial": 134, "trialdata": {"rt": -1000, "trial_type": "single-audio", "word": "jelly", "stimulus": "/static/audio/wordpool/JELLY.wav", "conditions": [24, 1600, "a", 24000], "internal_node_id": "0.0-98.0", "trial": 3, "time_elapsed": 3673854, "serialpos": 17, "key_press": -1, "wordID": 754, "type": "PRES_AUD", "trial_index": 134}, "uniqueid": "MTK1705:3DL65MZB8EMN1MVMTLR3CLOA8RDCEK", "dateTime": 1516134556757}, {"current_trial": 135, "trialdata": {"rt": -1000, "trial_type": "single-audio", "word": "partner", "stimulus": "/static/audio/wordpool/PARTNER.wav", "conditions": [24, 1600, "a", 24000], "internal_node_id": "0.0-99.0", "trial": 3, "time_elapsed": 3676282, "serialpos": 18, "key_press": -1, "wordID": 1016, "type": "PRES_AUD", "trial_index": 135}, "uniqueid": "MTK1705:3DL65MZB8EMN1MVMTLR3CLOA8RDCEK", "dateTime": 1516134559184}, {"current_trial": 136, "trialdata": {"rt": -1000, "trial_type": "single-audio", "word": "umpire", "stimulus": "/static/audio/wordpool/UMPIRE.wav", "conditions": [24, 1600, "a", 24000], "internal_node_id": "0.0-100.0", "trial": 3, "time_elapsed": 3679038, "serialpos": 19, "key_press": -1, "wordID": 1534, "type": "PRES_AUD", "trial_index": 136}, "uniqueid": "MTK1705:3DL65MZB8EMN1MVMTLR3CLOA8RDCEK", "dateTime": 1516134561940}, {"current_trial": 137, "trialdata": {"rt": -1000, "trial_type": "single-audio", "word": "mattress", "stimulus": "/static/audio/wordpool/MATTRESS.wav", "conditions": [24, 1600, "a", 24000], "internal_node_id": "0.0-101.0", "trial": 3, "time_elapsed": 3681712, "serialpos": 20, "key_press": -1, "wordID": 878, "type": "PRES_AUD", "trial_index": 137}, "uniqueid": "MTK1705:3DL65MZB8EMN1MVMTLR3CLOA8RDCEK", "dateTime": 1516134564614}, {"current_trial": 138, "trialdata": {"rt": -1000, "trial_type": "single-audio", "word": "crib", "stimulus": "/static/audio/wordpool/CRIB.wav", "conditions": [24, 1600, "a", 24000], "internal_node_id": "0.0-102.0", "trial": 3, "time_elapsed": 3684137, "serialpos": 21, "key_press": -1, "wordID": 406, "type": "PRES_AUD", "trial_index": 138}, "uniqueid": "MTK1705:3DL65MZB8EMN1MVMTLR3CLOA8RDCEK", "dateTime": 1516134567040}, {"current_trial": 139, "trialdata": {"rt": -1000, "trial_type": "single-audio", "word": "wife", "stimulus": "/static/audio/wordpool/WIFE.wav", "conditions": [24, 1600, "a", 24000], "internal_node_id": "0.0-103.0", "trial": 3, "time_elapsed": 3686648, "serialpos": 22, "key_press": -1, "wordID": 1608, "type": "PRES_AUD", "trial_index": 139}, "uniqueid": "MTK1705:3DL65MZB8EMN1MVMTLR3CLOA8RDCEK", "dateTime": 1516134569551}, {"current_trial": 140, "trialdata": {"rt": -1000, "trial_type": "single-audio", "word": "plaza", "stimulus": "/static/audio/wordpool/PLAZA.wav", "conditions": [24, 1600, "a", 24000], "internal_node_id": "0.0-104.0", "trial": 3, "time_elapsed": 3689269, "serialpos": 23, "key_press": -1, "wordID": 1087, "type": "PRES_AUD", "trial_index": 140}, "uniqueid": "MTK1705:3DL65MZB8EMN1MVMTLR3CLOA8RDCEK", "dateTime": 1516134572171}, {"current_trial": 141, "trialdata": {"rt": -1, "trial_type": "single-stim", "stimulus": "", "internal_node_id": "0.0-105.0-0.0", "time_elapsed": 3690651, "key_press": -1, "type": "PRE_RECALL_DELAY", "trial_index": 141}, "uniqueid": "MTK1705:3DL65MZB8EMN1MVMTLR3CLOA8RDCEK", "dateTime": 1516134573553}, {"current_trial": 142, "trialdata": {"rt": -1000, "trial_type": "single-audio", "stimulus": "/static/audio/400Hz.wav", "internal_node_id": "0.0-106.0", "time_elapsed": 3691153, "key_press": -1, "type": "PRE_RECALL_ALERT", "trial_index": 142}, "uniqueid": "MTK1705:3DL65MZB8EMN1MVMTLR3CLOA8RDCEK", "dateTime": 1516134574055}, {"current_trial": 143, "trialdata": {"rt": [4340, 6258, 7974, 9765, 11897, 14137, 16598, 19531, 23971, 26230, 51750], "recwords": ["mattress", "crib", "baby", "jelly", "pastry", "icing", "cake", "muffin", "flashlight", "empire", "pastry"], "key_times": [1265, 1414, 1733, 1875, 2511, 2652, 2928, 3156, 4340, 4749, 5054, 5293, 5587, 6258, 6748, 6862, 7001, 7346, 7974, 8481, 8636, 8905, 9056, 9373, 9765, 10298, 10450, 10706, 11097, 11306, 11531, 11897, 12288, 12529, 12651, 12910, 13463, 14137, 15610, 15774, 16099, 16244, 16598, 17056, 17380, 17914, 18090, 18535, 18842, 19531, 20739, 21135, 21274, 21542, 21781, 22098, 22349, 22613, 22784, 23016, 23971, 24412, 24703, 24992, 25226, 25407, 25626, 26230, 50084, 50194, 50453, 50657, 50879, 50989, 51750], "trial_type": "free-recall", "conditions": [24, 1600, "a", 24000], "internal_node_id": "0.0-107.0-0.0", "key_presses": [77, 65, 84, 84, 82, 69, 83, 83, 13, 67, 82, 73, 66, 13, 66, 65, 66, 89, 13, 74, 69, 76, 76, 89, 13, 80, 65, 83, 84, 82, 89, 13, 73, 67, 73, 78, 71, 13, 67, 65, 75, 69, 13, 77, 85, 70, 70, 73, 78, 13, 70, 76, 65, 83, 72, 76, 73, 71, 72, 84, 13, 69, 77, 80, 73, 82, 69, 13, 80, 65, 83, 84, 82, 89, 13], "trial": 3, "time_elapsed": 3751160, "type": "FREE_RECALL", "trial_index": 143}, "uniqueid": "MTK1705:3DL65MZB8EMN1MVMTLR3CLOA8RDCEK", "dateTime": 1516134634067}, {"current_trial": 144, "trialdata": {"rt": 1085, "trial_type": "text", "internal_node_id": "0.0-108.0", "time_elapsed": 3754253, "key_press": 32, "type": "INSTRUCTIONS", "trial_index": 144}, "uniqueid": "MTK1705:3DL65MZB8EMN1MVMTLR3CLOA8RDCEK", "dateTime": 1516134637156}, {"current_trial": 145, "trialdata": {"rt": [2220, 3940, 9307, 11041, 15575, 17539], "trial_type": "math-distractor", "key_times": [1810, 2001, 2220, 3534, 3733, 3940, 8754, 9010, 9307, 10626, 10850, 11041, 15142, 15363, 15575, 17086, 17334, 17539], "responses": ["14", "14", "13", "18", "19", "17"], "num2": [5, 8, 2, 3, 7, 6, 8], "num3": [8, 4, 8, 9, 4, 5, 7], "conditions": [24, 1600, "a", 24000], "internal_node_id": "0.0-109.0", "key_presses": [97, 100, 13, 97, 100, 13, 97, 99, 13, 97, 104, 13, 97, 105, 13, 97, 103, 13], "trial": 4, "time_elapsed": 3780261, "type": "DISTRACTOR", "trial_index": 145, "num1": [1, 2, 3, 6, 6, 6, 9]}, "uniqueid": "MTK1705:3DL65MZB8EMN1MVMTLR3CLOA8RDCEK", "dateTime": 1516134663163}, {"current_trial": 146, "trialdata": {"rt": -1, "trial_type": "single-stim", "stimulus": "<p id=\"stim\">10</p>", "internal_node_id": "0.0-110.0-0.0", "time_elapsed": 3783263, "key_press": -1, "trial_index": 146}, "uniqueid": "MTK1705:3DL65MZB8EMN1MVMTLR3CLOA8RDCEK", "dateTime": 1516134666165}, {"current_trial": 147, "trialdata": {"rt": -1, "trial_type": "single-stim", "stimulus": "<p id=\"stim\">9</p>", "internal_node_id": "0.0-110.0-1.0", "time_elapsed": 3784265, "key_press": -1, "trial_index": 147}, "uniqueid": "MTK1705:3DL65MZB8EMN1MVMTLR3CLOA8RDCEK", "dateTime": 1516134667167}, {"current_trial": 148, "trialdata": {"rt": -1, "trial_type": "single-stim", "stimulus": "<p id=\"stim\">8</p>", "internal_node_id": "0.0-110.0-2.0", "time_elapsed": 3785267, "key_press": -1, "trial_index": 148}, "uniqueid": "MTK1705:3DL65MZB8EMN1MVMTLR3CLOA8RDCEK", "dateTime": 1516134668169}, {"current_trial": 149, "trialdata": {"rt": -1, "trial_type": "single-stim", "stimulus": "<p id=\"stim\">7</p>", "internal_node_id": "0.0-110.0-3.0", "time_elapsed": 3786270, "key_press": -1, "trial_index": 149}, "uniqueid": "MTK1705:3DL65MZB8EMN1MVMTLR3CLOA8RDCEK", "dateTime": 1516134669173}, {"current_trial": 150, "trialdata": {"rt": -1, "trial_type": "single-stim", "stimulus": "<p id=\"stim\">6</p>", "internal_node_id": "0.0-110.0-4.0", "time_elapsed": 3787273, "key_press": -1, "trial_index": 150}, "uniqueid": "MTK1705:3DL65MZB8EMN1MVMTLR3CLOA8RDCEK", "dateTime": 1516134670175}, {"current_trial": 151, "trialdata": {"rt": -1, "trial_type": "single-stim", "stimulus": "<p id=\"stim\">5</p>", "internal_node_id": "0.0-110.0-5.0", "time_elapsed": 3788276, "key_press": -1, "trial_index": 151}, "uniqueid": "MTK1705:3DL65MZB8EMN1MVMTLR3CLOA8RDCEK", "dateTime": 1516134671178}, {"current_trial": 152, "trialdata": {"rt": -1, "trial_type": "single-stim", "stimulus": "<p id=\"stim\">4</p>", "internal_node_id": "0.0-110.0-6.0", "time_elapsed": 3789277, "key_press": -1, "trial_index": 152}, "uniqueid": "MTK1705:3DL65MZB8EMN1MVMTLR3CLOA8RDCEK", "dateTime": 1516134672180}, {"current_trial": 153, "trialdata": {"rt": -1, "trial_type": "single-stim", "stimulus": "<p id=\"stim\">3</p>", "internal_node_id": "0.0-110.0-7.0", "time_elapsed": 3790279, "key_press": -1, "trial_index": 153}, "uniqueid": "MTK1705:3DL65MZB8EMN1MVMTLR3CLOA8RDCEK", "dateTime": 1516134673182}, {"current_trial": 154, "trialdata": {"rt": -1, "trial_type": "single-stim", "stimulus": "<p id=\"stim\">2</p>", "internal_node_id": "0.0-110.0-8.0", "time_elapsed": 3791282, "key_press": -1, "trial_index": 154}, "uniqueid": "MTK1705:3DL65MZB8EMN1MVMTLR3CLOA8RDCEK", "dateTime": 1516134674184}, {"current_trial": 155, "trialdata": {"rt": -1, "trial_type": "single-stim", "stimulus": "<p id=\"stim\">1</p>", "internal_node_id": "0.0-110.0-9.0", "time_elapsed": 3792283, "key_press": -1, "trial_index": 155}, "uniqueid": "MTK1705:3DL65MZB8EMN1MVMTLR3CLOA8RDCEK", "dateTime": 1516134675186}, {"current_trial": 156, "trialdata": {"rt": -1, "trial_type": "single-stim", "stimulus": "<p id=\"stim\">+</p>", "internal_node_id": "0.0-111.0-0.0", "time_elapsed": 3793785, "key_press": -1, "type": "FIXATION", "trial_index": 156}, "uniqueid": "MTK1705:3DL65MZB8EMN1MVMTLR3CLOA8RDCEK", "dateTime": 1516134676687}, {"current_trial": 157, "trialdata": {"rt": -1000, "trial_type": "single-audio", "word": "gymnast", "stimulus": "/static/audio/wordpool/GYMNAST.wav", "conditions": [24, 1600, "a", 24000], "internal_node_id": "0.0-112.0", "trial": 4, "time_elapsed": 3796559, "serialpos": 0, "key_press": -1, "wordID": 674, "type": "PRES_AUD", "trial_index": 157}, "uniqueid": "MTK1705:3DL65MZB8EMN1MVMTLR3CLOA8RDCEK", "dateTime": 1516134679461}, {"current_trial": 158, "trialdata": {"rt": -1000, "trial_type": "single-audio", "word": "slime", "stimulus": "/static/audio/wordpool/SLIME.wav", "conditions": [24, 1600, "a", 24000], "internal_node_id": "0.0-113.0", "trial": 4, "time_elapsed": 3799001, "serialpos": 1, "key_press": -1, "wordID": 1326, "type": "PRES_AUD", "trial_index": 158}, "uniqueid": "MTK1705:3DL65MZB8EMN1MVMTLR3CLOA8RDCEK", "dateTime": 1516134681903}, {"current_trial": 159, "trialdata": {"rt": -1000, "trial_type": "single-audio", "word": "lamp", "stimulus": "/static/audio/wordpool/LAMP.wav", "conditions": [24, 1600, "a", 24000], "internal_node_id": "0.0-114.0", "trial": 4, "time_elapsed": 3801656, "serialpos": 2, "key_press": -1, "wordID": 797, "type": "PRES_AUD", "trial_index": 159}, "uniqueid": "MTK1705:3DL65MZB8EMN1MVMTLR3CLOA8RDCEK", "dateTime": 1516134684558}, {"current_trial": 160, "trialdata": {"rt": -1000, "trial_type": "single-audio", "word": "snail", "stimulus": "/static/audio/wordpool/SNAIL.wav", "conditions": [24, 1600, "a", 24000], "internal_node_id": "0.0-115.0", "trial": 4, "time_elapsed": 3804236, "serialpos": 3, "key_press": -1, "wordID": 1331, "type": "PRES_AUD", "trial_index": 160}, "uniqueid": "MTK1705:3DL65MZB8EMN1MVMTLR3CLOA8RDCEK", "dateTime": 1516134687138}, {"current_trial": 161, "trialdata": {"rt": -1000, "trial_type": "single-audio", "word": "tortoise", "stimulus": "/static/audio/wordpool/TORTOISE.wav", "conditions": [24, 1600, "a", 24000], "internal_node_id": "0.0-116.0", "trial": 4, "time_elapsed": 3806673, "serialpos": 4, "key_press": -1, "wordID": 1485, "type": "PRES_AUD", "trial_index": 161}, "uniqueid": "MTK1705:3DL65MZB8EMN1MVMTLR3CLOA8RDCEK", "dateTime": 1516134689576}, {"current_trial": 162, "trialdata": {"rt": -1000, "trial_type": "single-audio", "word": "dancer", "stimulus": "/static/audio/wordpool/DANCER.wav", "conditions": [24, 1600, "a", 24000], "internal_node_id": "0.0-117.0", "trial": 4, "time_elapsed": 3809133, "serialpos": 5, "key_press": -1, "wordID": 436, "type": "PRES_AUD", "trial_index": 162}, "uniqueid": "MTK1705:3DL65MZB8EMN1MVMTLR3CLOA8RDCEK", "dateTime": 1516134692035}, {"current_trial": 163, "trialdata": {"rt": -1000, "trial_type": "single-audio", "word": "airport", "stimulus": "/static/audio/wordpool/AIRPORT.wav", "conditions": [24, 1600, "a", 24000], "internal_node_id": "0.0-118.0", "trial": 4, "time_elapsed": 3811749, "serialpos": 6, "key_press": -1, "wordID": 12, "type": "PRES_AUD", "trial_index": 163}, "uniqueid": "MTK1705:3DL65MZB8EMN1MVMTLR3CLOA8RDCEK", "dateTime": 1516134694651}, {"current_trial": 164, "trialdata": {"rt": -1000, "trial_type": "single-audio", "word": "coffee", "stimulus": "/static/audio/wordpool/COFFEE.wav", "conditions": [24, 1600, "a", 24000], "internal_node_id": "0.0-119.0", "trial": 4, "time_elapsed": 3814360, "serialpos": 7, "key_press": -1, "wordID": 340, "type": "PRES_AUD", "trial_index": 164}, "uniqueid": "MTK1705:3DL65MZB8EMN1MVMTLR3CLOA8RDCEK", "dateTime": 1516134697263}, {"current_trial": 165, "trialdata": {"rt": -1000, "trial_type": "single-audio", "word": "cookbook", "stimulus": "/static/audio/wordpool/COOKBOOK.wav", "conditions": [24, 1600, "a", 24000], "internal_node_id": "0.0-120.0", "trial": 4, "time_elapsed": 3817059, "serialpos": 8, "key_press": -1, "wordID": 372, "type": "PRES_AUD", "trial_index": 165}, "uniqueid": "MTK1705:3DL65MZB8EMN1MVMTLR3CLOA8RDCEK", "dateTime": 1516134699961}, {"current_trial": 166, "trialdata": {"rt": -1000, "trial_type": "single-audio", "word": "mustard", "stimulus": "/static/audio/wordpool/MUSTARD.wav", "conditions": [24, 1600, "a", 24000], "internal_node_id": "0.0-121.0", "trial": 4, "time_elapsed": 3819827, "serialpos": 9, "key_press": -1, "wordID": 934, "type": "PRES_AUD", "trial_index": 166}, "uniqueid": "MTK1705:3DL65MZB8EMN1MVMTLR3CLOA8RDCEK", "dateTime": 1516134702729}, {"current_trial": 167, "trialdata": {"rt": -1000, "trial_type": "single-audio", "word": "smog", "stimulus": "/static/audio/wordpool/SMOG.wav", "conditions": [24, 1600, "a", 24000], "internal_node_id": "0.0-122.0", "trial": 4, "time_elapsed": 3822498, "serialpos": 10, "key_press": -1, "wordID": 1329, "type": "PRES_AUD", "trial_index": 167}, "uniqueid": "MTK1705:3DL65MZB8EMN1MVMTLR3CLOA8RDCEK", "dateTime": 1516134705400}, {"current_trial": 168, "trialdata": {"rt": -1000, "trial_type": "single-audio", "word": "badge", "stimulus": "/static/audio/wordpool/BADGE.wav", "conditions": [24, 1600, "a", 24000], "internal_node_id": "0.0-123.0", "trial": 4, "time_elapsed": 3825140, "serialpos": 11, "key_press": -1, "wordID": 67, "type": "PRES_AUD", "trial_index": 168}, "uniqueid": "MTK1705:3DL65MZB8EMN1MVMTLR3CLOA8RDCEK", "dateTime": 1516134708042}, {"current_trial": 169, "trialdata": {"rt": -1000, "trial_type": "single-audio", "word": "guitar", "stimulus": "/static/audio/wordpool/GUITAR.wav", "conditions": [24, 1600, "a", 24000], "internal_node_id": "0.0-124.0", "trial": 4, "time_elapsed": 3827725, "serialpos": 12, "key_press": -1, "wordID": 669, "type": "PRES_AUD", "trial_index": 169}, "uniqueid": "MTK1705:3DL65MZB8EMN1MVMTLR3CLOA8RDCEK", "dateTime": 1516134710627}, {"current_trial": 170, "trialdata": {"rt": -1000, "trial_type": "single-audio", "word": "trombone", "stimulus": "/static/audio/wordpool/TROMBONE.wav", "conditions": [24, 1600, "a", 24000], "internal_node_id": "0.0-125.0", "trial": 4, "time_elapsed": 3830175, "serialpos": 13, "key_press": -1, "wordID": 1507, "type": "PRES_AUD", "trial_index": 170}, "uniqueid": "MTK1705:3DL65MZB8EMN1MVMTLR3CLOA8RDCEK", "dateTime": 1516134713077}, {"current_trial": 171, "trialdata": {"rt": -1000, "trial_type": "single-audio", "word": "pigment", "stimulus": "/static/audio/wordpool/PIGMENT.wav", "conditions": [24, 1600, "a", 24000], "internal_node_id": "0.0-126.0", "trial": 4, "time_elapsed": 3832721, "serialpos": 14, "key_press": -1, "wordID": 1065, "type": "PRES_AUD", "trial_index": 171}, "uniqueid": "MTK1705:3DL65MZB8EMN1MVMTLR3CLOA8RDCEK", "dateTime": 1516134715623}, {"current_trial": 172, "trialdata": {"rt": -1000, "trial_type": "single-audio", "word": "ointment", "stimulus": "/static/audio/wordpool/OINTMENT.wav", "conditions": [24, 1600, "a", 24000], "internal_node_id": "0.0-127.0", "trial": 4, "time_elapsed": 3835510, "serialpos": 15, "key_press": -1, "wordID": 973, "type": "PRES_AUD", "trial_index": 172}, "uniqueid": "MTK1705:3DL65MZB8EMN1MVMTLR3CLOA8RDCEK", "dateTime": 1516134718413}, {"current_trial": 173, "trialdata": {"rt": -1000, "trial_type": "single-audio", "word": "peanut", "stimulus": "/static/audio/wordpool/PEANUT.wav", "conditions": [24, 1600, "a", 24000], "internal_node_id": "0.0-128.0", "trial": 4, "time_elapsed": 3838092, "serialpos": 16, "key_press": -1, "wordID": 1031, "type": "PRES_AUD", "trial_index": 173}, "uniqueid": "MTK1705:3DL65MZB8EMN1MVMTLR3CLOA8RDCEK", "dateTime": 1516134720994}, {"current_trial": 174, "trialdata": {"rt": -1000, "trial_type": "single-audio", "word": "scissors", "stimulus": "/static/audio/wordpool/SCISSORS.wav", "conditions": [24, 1600, "a", 24000], "internal_node_id": "0.0-129.0", "trial": 4, "time_elapsed": 3840529, "serialpos": 17, "key_press": -1, "wordID": 1249, "type": "PRES_AUD", "trial_index": 174}, "uniqueid": "MTK1705:3DL65MZB8EMN1MVMTLR3CLOA8RDCEK", "dateTime": 1516134723431}, {"current_trial": 175, "trialdata": {"rt": -1000, "trial_type": "single-audio", "word": "ulcer", "stimulus": "/static/audio/wordpool/ULCER.wav", "conditions": [24, 1600, "a", 24000], "internal_node_id": "0.0-130.0", "trial": 4, "time_elapsed": 3843176, "serialpos": 18, "key_press": -1, "wordID": 1532, "type": "PRES_AUD", "trial_index": 175}, "uniqueid": "MTK1705:3DL65MZB8EMN1MVMTLR3CLOA8RDCEK", "dateTime": 1516134726078}, {"current_trial": 176, "trialdata": {"rt": -1000, "trial_type": "single-audio", "word": "climber", "stimulus": "/static/audio/wordpool/CLIMBER.wav", "conditions": [24, 1600, "a", 24000], "internal_node_id": "0.0-131.0", "trial": 4, "time_elapsed": 3845615, "serialpos": 19, "key_press": -1, "wordID": 322, "type": "PRES_AUD", "trial_index": 176}, "uniqueid": "MTK1705:3DL65MZB8EMN1MVMTLR3CLOA8RDCEK", "dateTime": 1516134728518}, {"current_trial": 177, "trialdata": {"rt": -1000, "trial_type": "single-audio", "word": "tweezers", "stimulus": "/static/audio/wordpool/TWEEZERS.wav", "conditions": [24, 1600, "a", 24000], "internal_node_id": "0.0-132.0", "trial": 4, "time_elapsed": 3848391, "serialpos": 20, "key_press": -1, "wordID": 1525, "type": "PRES_AUD", "trial_index": 177}, "uniqueid": "MTK1705:3DL65MZB8EMN1MVMTLR3CLOA8RDCEK", "dateTime": 1516134731294}, {"current_trial": 178, "trialdata": {"rt": -1000, "trial_type": "single-audio", "word": "apron", "stimulus": "/static/audio/wordpool/APRON.wav", "conditions": [24, 1600, "a", 24000], "internal_node_id": "0.0-133.0", "trial": 4, "time_elapsed": 3851170, "serialpos": 21, "key_press": -1, "wordID": 34, "type": "PRES_AUD", "trial_index": 178}, "uniqueid": "MTK1705:3DL65MZB8EMN1MVMTLR3CLOA8RDCEK", "dateTime": 1516134734072}, {"current_trial": 179, "trialdata": {"rt": -1000, "trial_type": "single-audio", "word": "boyfriend", "stimulus": "/static/audio/wordpool/BOYFRIEND.wav", "conditions": [24, 1600, "a", 24000], "internal_node_id": "0.0-134.0", "trial": 4, "time_elapsed": 3853576, "serialpos": 22, "key_press": -1, "wordID": 161, "type": "PRES_AUD", "trial_index": 179}, "uniqueid": "MTK1705:3DL65MZB8EMN1MVMTLR3CLOA8RDCEK", "dateTime": 1516134736478}, {"current_trial": 180, "trialdata": {"rt": -1000, "trial_type": "single-audio", "word": "paddle", "stimulus": "/static/audio/wordpool/PADDLE.wav", "conditions": [24, 1600, "a", 24000], "internal_node_id": "0.0-135.0", "trial": 4, "time_elapsed": 3855998, "serialpos": 23, "key_press": -1, "wordID": 999, "type": "PRES_AUD", "trial_index": 180}, "uniqueid": "MTK1705:3DL65MZB8EMN1MVMTLR3CLOA8RDCEK", "dateTime": 1516134738900}, {"current_trial": 181, "trialdata": {"rt": -1, "trial_type": "single-stim", "stimulus": "", "internal_node_id": "0.0-136.0-0.0", "time_elapsed": 3857379, "key_press": -1, "type": "PRE_RECALL_DELAY", "trial_index": 181}, "uniqueid": "MTK1705:3DL65MZB8EMN1MVMTLR3CLOA8RDCEK", "dateTime": 1516134740282}, {"current_trial": 182, "trialdata": {"rt": -1000, "trial_type": "single-audio", "stimulus": "/static/audio/400Hz.wav", "internal_node_id": "0.0-137.0", "time_elapsed": 3857882, "key_press": -1, "type": "PRE_RECALL_ALERT", "trial_index": 182}, "uniqueid": "MTK1705:3DL65MZB8EMN1MVMTLR3CLOA8RDCEK", "dateTime": 1516134740784}, {"current_trial": 183, "trialdata": {"rt": [3018, 6348, 8860, 11767, 18527, 27462, 32356, 38031], "recwords": ["paddle", "boyfriend", "mustard", "coffee", "scissors", "cookbook", "jelly", ""], "key_times": [887, 1019, 1661, 1855, 2188, 2291, 3018, 3575, 3862, 4206, 4466, 4719, 5365, 5529, 5874, 5987, 6348, 6979, 7235, 7343, 7566, 7699, 7874, 8077, 8860, 9573, 9852, 10506, 10691, 10866, 11106, 11767, 16179, 16481, 16923, 17057, 17292, 17488, 17681, 18000, 18527, 24778, 25111, 25267, 25486, 26047, 26441, 26611, 26847, 27462, 30670, 30799, 31113, 31279, 31636, 32356, 38031], "trial_type": "free-recall", "conditions": [24, 1600, "a", 24000], "internal_node_id": "0.0-138.0-0.0", "key_presses": [80, 65, 68, 68, 76, 69, 13, 66, 79, 89, 70, 82, 73, 69, 78, 68, 13, 77, 85, 83, 84, 65, 82, 68, 13, 67, 79, 70, 70, 69, 69, 13, 83, 67, 73, 83, 83, 79, 82, 83, 13, 67, 79, 79, 75, 66, 79, 79, 75, 13, 74, 69, 76, 76, 89, 13, 13], "trial": 4, "time_elapsed": 3917889, "type": "FREE_RECALL", "trial_index": 183}, "uniqueid": "MTK1705:3DL65MZB8EMN1MVMTLR3CLOA8RDCEK", "dateTime": 1516134800797}, {"current_trial": 184, "trialdata": {"rt": 1019, "trial_type": "text", "internal_node_id": "0.0-139.0", "time_elapsed": 3920916, "key_press": 32, "type": "INSTRUCTIONS", "trial_index": 184}, "uniqueid": "MTK1705:3DL65MZB8EMN1MVMTLR3CLOA8RDCEK", "dateTime": 1516134803818}, {"current_trial": 185, "trialdata": {"rt": [5858, 9079], "trial_type": "math-distractor", "key_times": [5251, 5570, 5858, 8631, 8867, 9079], "responses": ["17", "17"], "num2": [1, 9, 7], "num3": [9, 5, 6], "conditions": [24, 800, "a", 12000], "internal_node_id": "0.0-140.0", "key_presses": [97, 103, 13, 97, 103, 13], "trial": 5, "time_elapsed": 3934923, "type": "DISTRACTOR", "trial_index": 185, "num1": [7, 3, 4]}, "uniqueid": "MTK1705:3DL65MZB8EMN1MVMTLR3CLOA8RDCEK", "dateTime": 1516134817826}, {"current_trial": 186, "trialdata": {"rt": -1, "trial_type": "single-stim", "stimulus": "<p id=\"stim\">10</p>", "internal_node_id": "0.0-141.0-0.0", "time_elapsed": 3937926, "key_press": -1, "trial_index": 186}, "uniqueid": "MTK1705:3DL65MZB8EMN1MVMTLR3CLOA8RDCEK", "dateTime": 1516134820829}, {"current_trial": 187, "trialdata": {"rt": -1, "trial_type": "single-stim", "stimulus": "<p id=\"stim\">9</p>", "internal_node_id": "0.0-141.0-1.0", "time_elapsed": 3938928, "key_press": -1, "trial_index": 187}, "uniqueid": "MTK1705:3DL65MZB8EMN1MVMTLR3CLOA8RDCEK", "dateTime": 1516134821831}, {"current_trial": 188, "trialdata": {"rt": -1, "trial_type": "single-stim", "stimulus": "<p id=\"stim\">8</p>", "internal_node_id": "0.0-141.0-2.0", "time_elapsed": 3939930, "key_press": -1, "trial_index": 188}, "uniqueid": "MTK1705:3DL65MZB8EMN1MVMTLR3CLOA8RDCEK", "dateTime": 1516134822832}, {"current_trial": 189, "trialdata": {"rt": -1, "trial_type": "single-stim", "stimulus": "<p id=\"stim\">7</p>", "internal_node_id": "0.0-141.0-3.0", "time_elapsed": 3940932, "key_press": -1, "trial_index": 189}, "uniqueid": "MTK1705:3DL65MZB8EMN1MVMTLR3CLOA8RDCEK", "dateTime": 1516134823835}, {"current_trial": 190, "trialdata": {"rt": -1, "trial_type": "single-stim", "stimulus": "<p id=\"stim\">6</p>", "internal_node_id": "0.0-141.0-4.0", "time_elapsed": 3941934, "key_press": -1, "trial_index": 190}, "uniqueid": "MTK1705:3DL65MZB8EMN1MVMTLR3CLOA8RDCEK", "dateTime": 1516134824836}, {"current_trial": 191, "trialdata": {"rt": -1, "trial_type": "single-stim", "stimulus": "<p id=\"stim\">5</p>", "internal_node_id": "0.0-141.0-5.0", "time_elapsed": 3942937, "key_press": -1, "trial_index": 191}, "uniqueid": "MTK1705:3DL65MZB8EMN1MVMTLR3CLOA8RDCEK", "dateTime": 1516134825839}, {"current_trial": 192, "trialdata": {"rt": -1, "trial_type": "single-stim", "stimulus": "<p id=\"stim\">4</p>", "internal_node_id": "0.0-141.0-6.0", "time_elapsed": 3943938, "key_press": -1, "trial_index": 192}, "uniqueid": "MTK1705:3DL65MZB8EMN1MVMTLR3CLOA8RDCEK", "dateTime": 1516134826841}, {"current_trial": 193, "trialdata": {"rt": -1, "trial_type": "single-stim", "stimulus": "<p id=\"stim\">3</p>", "internal_node_id": "0.0-141.0-7.0", "time_elapsed": 3944941, "key_press": -1, "trial_index": 193}, "uniqueid": "MTK1705:3DL65MZB8EMN1MVMTLR3CLOA8RDCEK", "dateTime": 1516134827843}, {"current_trial": 194, "trialdata": {"rt": -1, "trial_type": "single-stim", "stimulus": "<p id=\"stim\">2</p>", "internal_node_id": "0.0-141.0-8.0", "time_elapsed": 3945942, "key_press": -1, "trial_index": 194}, "uniqueid": "MTK1705:3DL65MZB8EMN1MVMTLR3CLOA8RDCEK", "dateTime": 1516134828844}, {"current_trial": 195, "trialdata": {"rt": -1, "trial_type": "single-stim", "stimulus": "<p id=\"stim\">1</p>", "internal_node_id": "0.0-141.0-9.0", "time_elapsed": 3946944, "key_press": -1, "trial_index": 195}, "uniqueid": "MTK1705:3DL65MZB8EMN1MVMTLR3CLOA8RDCEK", "dateTime": 1516134829846}, {"current_trial": 196, "trialdata": {"rt": -1, "trial_type": "single-stim", "stimulus": "<p id=\"stim\">+</p>", "internal_node_id": "0.0-142.0-0.0", "time_elapsed": 3948447, "key_press": -1, "type": "FIXATION", "trial_index": 196}, "uniqueid": "MTK1705:3DL65MZB8EMN1MVMTLR3CLOA8RDCEK", "dateTime": 1516134831349}, {"current_trial": 197, "trialdata": {"rt": -1000, "trial_type": "single-audio", "word": "racket", "stimulus": "/static/audio/wordpool/RACKET.wav", "conditions": [24, 800, "a", 12000], "internal_node_id": "0.0-143.0", "trial": 5, "time_elapsed": 3950263, "serialpos": 0, "key_press": -1, "wordID": 1154, "type": "PRES_AUD", "trial_index": 197}, "uniqueid": "MTK1705:3DL65MZB8EMN1MVMTLR3CLOA8RDCEK", "dateTime": 1516134833165}, {"current_trial": 198, "trialdata": {"rt": -1000, "trial_type": "single-audio", "word": "blade", "stimulus": "/static/audio/wordpool/BLADE.wav", "conditions": [24, 800, "a", 12000], "internal_node_id": "0.0-144.0", "trial": 5, "time_elapsed": 3952087, "serialpos": 1, "key_press": -1, "wordID": 133, "type": "PRES_AUD", "trial_index": 198}, "uniqueid": "MTK1705:3DL65MZB8EMN1MVMTLR3CLOA8RDCEK", "dateTime": 1516134834990}, {"current_trial": 199, "trialdata": {"rt": -1000, "trial_type": "single-audio", "word": "parrot", "stimulus": "/static/audio/wordpool/PARROT.wav", "conditions": [24, 800, "a", 12000], "internal_node_id": "0.0-145.0", "trial": 5, "time_elapsed": 3953800, "serialpos": 2, "key_press": -1, "wordID": 1014, "type": "PRES_AUD", "trial_index": 199}, "uniqueid": "MTK1705:3DL65MZB8EMN1MVMTLR3CLOA8RDCEK", "dateTime": 1516134836702}, {"current_trial": 200, "trialdata": {"rt": -1000, "trial_type": "single-audio", "word": "lapel", "stimulus": "/static/audio/wordpool/LAPEL.wav", "conditions": [24, 800, "a", 12000], "internal_node_id": "0.0-146.0", "trial": 5, "time_elapsed": 3955615, "serialpos": 3, "key_press": -1, "wordID": 799, "type": "PRES_AUD", "trial_index": 200}, "uniqueid": "MTK1705:3DL65MZB8EMN1MVMTLR3CLOA8RDCEK", "dateTime": 1516134838518}, {"current_trial": 201, "trialdata": {"rt": -1000, "trial_type": "single-audio", "word": "grape", "stimulus": "/static/audio/wordpool/GRAPE.wav", "conditions": [24, 800, "a", 12000], "internal_node_id": "0.0-147.0", "trial": 5, "time_elapsed": 3957351, "serialpos": 4, "key_press": -1, "wordID": 653, "type": "PRES_AUD", "trial_index": 201}, "uniqueid": "MTK1705:3DL65MZB8EMN1MVMTLR3CLOA8RDCEK", "dateTime": 1516134840254}, {"current_trial": 202, "trialdata": {"rt": -1000, "trial_type": "single-audio", "word": "apple", "stimulus": "/static/audio/wordpool/APPLE.wav", "conditions": [24, 800, "a", 12000], "internal_node_id": "0.0-148.0", "trial": 5, "time_elapsed": 3959162, "serialpos": 5, "key_press": -1, "wordID": 32, "type": "PRES_AUD", "trial_index": 202}, "uniqueid": "MTK1705:3DL65MZB8EMN1MVMTLR3CLOA8RDCEK", "dateTime": 1516134842064}, {"current_trial": 203, "trialdata": {"rt": -1000, "trial_type": "single-audio", "word": "plaid", "stimulus": "/static/audio/wordpool/PLAID.wav", "conditions": [24, 800, "a", 12000], "internal_node_id": "0.0-149.0", "trial": 5, "time_elapsed": 3960905, "serialpos": 6, "key_press": -1, "wordID": 1079, "type": "PRES_AUD", "trial_index": 203}, "uniqueid": "MTK1705:3DL65MZB8EMN1MVMTLR3CLOA8RDCEK", "dateTime": 1516134843808}, {"current_trial": 204, "trialdata": {"rt": -1000, "trial_type": "single-audio", "word": "pigeon", "stimulus": "/static/audio/wordpool/PIGEON.wav", "conditions": [24, 800, "a", 12000], "internal_node_id": "0.0-150.0", "trial": 5, "time_elapsed": 3962640, "serialpos": 7, "key_press": -1, "wordID": 1064, "type": "PRES_AUD", "trial_index": 204}, "uniqueid": "MTK1705:3DL65MZB8EMN1MVMTLR3CLOA8RDCEK", "dateTime": 1516134845543}, {"current_trial": 205, "trialdata": {"rt": -1000, "trial_type": "single-audio", "word": "bison", "stimulus": "/static/audio/wordpool/BISON.wav", "conditions": [24, 800, "a", 12000], "internal_node_id": "0.0-151.0", "trial": 5, "time_elapsed": 3964617, "serialpos": 8, "key_press": -1, "wordID": 130, "type": "PRES_AUD", "trial_index": 205}, "uniqueid": "MTK1705:3DL65MZB8EMN1MVMTLR3CLOA8RDCEK", "dateTime": 1516134847520}, {"current_trial": 206, "trialdata": {"rt": -1000, "trial_type": "single-audio", "word": "frame", "stimulus": "/static/audio/wordpool/FRAME.wav", "conditions": [24, 800, "a", 12000], "internal_node_id": "0.0-152.0", "trial": 5, "time_elapsed": 3966442, "serialpos": 9, "key_press": -1, "wordID": 599, "type": "PRES_AUD", "trial_index": 206}, "uniqueid": "MTK1705:3DL65MZB8EMN1MVMTLR3CLOA8RDCEK", "dateTime": 1516134849344}, {"current_trial": 207, "trialdata": {"rt": -1000, "trial_type": "single-audio", "word": "mailbox", "stimulus": "/static/audio/wordpool/MAILBOX.wav", "conditions": [24, 800, "a", 12000], "internal_node_id": "0.0-153.0", "trial": 5, "time_elapsed": 3968054, "serialpos": 10, "key_press": -1, "wordID": 856, "type": "PRES_AUD", "trial_index": 207}, "uniqueid": "MTK1705:3DL65MZB8EMN1MVMTLR3CLOA8RDCEK", "dateTime": 1516134850956}, {"current_trial": 208, "trialdata": {"rt": -1000, "trial_type": "single-audio", "word": "rabbit", "stimulus": "/static/audio/wordpool/RABBIT.wav", "conditions": [24, 800, "a", 12000], "internal_node_id": "0.0-154.0", "trial": 5, "time_elapsed": 3970007, "serialpos": 11, "key_press": -1, "wordID": 1151, "type": "PRES_AUD", "trial_index": 208}, "uniqueid": "MTK1705:3DL65MZB8EMN1MVMTLR3CLOA8RDCEK", "dateTime": 1516134852910}, {"current_trial": 209, "trialdata": {"rt": -1000, "trial_type": "single-audio", "word": "bunny", "stimulus": "/static/audio/wordpool/BUNNY.wav", "conditions": [24, 800, "a", 12000], "internal_node_id": "0.0-155.0", "trial": 5, "time_elapsed": 3971647, "serialpos": 12, "key_press": -1, "wordID": 197, "type": "PRES_AUD", "trial_index": 209}, "uniqueid": "MTK1705:3DL65MZB8EMN1MVMTLR3CLOA8RDCEK", "dateTime": 1516134854549}, {"current_trial": 210, "trialdata": {"rt": -1000, "trial_type": "single-audio", "word": "tractor", "stimulus": "/static/audio/wordpool/TRACTOR.wav", "conditions": [24, 800, "a", 12000], "internal_node_id": "0.0-156.0", "trial": 5, "time_elapsed": 3973403, "serialpos": 13, "key_press": -1, "wordID": 1492, "type": "PRES_AUD", "trial_index": 210}, "uniqueid": "MTK1705:3DL65MZB8EMN1MVMTLR3CLOA8RDCEK", "dateTime": 1516134856305}, {"current_trial": 211, "trialdata": {"rt": -1000, "trial_type": "single-audio", "word": "actor", "stimulus": "/static/audio/wordpool/ACTOR.wav", "conditions": [24, 800, "a", 12000], "internal_node_id": "0.0-157.0", "trial": 5, "time_elapsed": 3975079, "serialpos": 14, "key_press": -1, "wordID": 4, "type": "PRES_AUD", "trial_index": 211}, "uniqueid": "MTK1705:3DL65MZB8EMN1MVMTLR3CLOA8RDCEK", "dateTime": 1516134857981}, {"current_trial": 212, "trialdata": {"rt": -1000, "trial_type": "single-audio", "word": "canal", "stimulus": "/static/audio/wordpool/CANAL.wav", "conditions": [24, 800, "a", 12000], "internal_node_id": "0.0-158.0", "trial": 5, "time_elapsed": 3977079, "serialpos": 15, "key_press": -1, "wordID": 225, "type": "PRES_AUD", "trial_index": 212}, "uniqueid": "MTK1705:3DL65MZB8EMN1MVMTLR3CLOA8RDCEK", "dateTime": 1516134859981}, {"current_trial": 213, "trialdata": {"rt": -1000, "trial_type": "single-audio", "word": "blockade", "stimulus": "/static/audio/wordpool/BLOCKADE.wav", "conditions": [24, 800, "a", 12000], "internal_node_id": "0.0-159.0", "trial": 5, "time_elapsed": 3978716, "serialpos": 16, "key_press": -1, "wordID": 136, "type": "PRES_AUD", "trial_index": 213}, "uniqueid": "MTK1705:3DL65MZB8EMN1MVMTLR3CLOA8RDCEK", "dateTime": 1516134861618}, {"current_trial": 214, "trialdata": {"rt": -1000, "trial_type": "single-audio", "word": "market", "stimulus": "/static/audio/wordpool/MARKET.wav", "conditions": [24, 800, "a", 12000], "internal_node_id": "0.0-160.0", "trial": 5, "time_elapsed": 3980470, "serialpos": 17, "key_press": -1, "wordID": 870, "type": "PRES_AUD", "trial_index": 214}, "uniqueid": "MTK1705:3DL65MZB8EMN1MVMTLR3CLOA8RDCEK", "dateTime": 1516134863373}, {"current_trial": 215, "trialdata": {"rt": -1000, "trial_type": "single-audio", "word": "suspect", "stimulus": "/static/audio/wordpool/SUSPECT.wav", "conditions": [24, 800, "a", 12000], "internal_node_id": "0.0-161.0", "trial": 5, "time_elapsed": 3982111, "serialpos": 18, "key_press": -1, "wordID": 1414, "type": "PRES_AUD", "trial_index": 215}, "uniqueid": "MTK1705:3DL65MZB8EMN1MVMTLR3CLOA8RDCEK", "dateTime": 1516134865014}, {"current_trial": 216, "trialdata": {"rt": -1000, "trial_type": "single-audio", "word": "shortcake", "stimulus": "/static/audio/wordpool/SHORTCAKE.wav", "conditions": [24, 800, "a", 12000], "internal_node_id": "0.0-162.0", "trial": 5, "time_elapsed": 3984012, "serialpos": 19, "key_press": -1, "wordID": 1291, "type": "PRES_AUD", "trial_index": 216}, "uniqueid": "MTK1705:3DL65MZB8EMN1MVMTLR3CLOA8RDCEK", "dateTime": 1516134866914}, {"current_trial": 217, "trialdata": {"rt": -1000, "trial_type": "single-audio", "word": "pasta", "stimulus": "/static/audio/wordpool/PASTA.wav", "conditions": [24, 800, "a", 12000], "internal_node_id": "0.0-163.0", "trial": 5, "time_elapsed": 3985633, "serialpos": 20, "key_press": -1, "wordID": 1020, "type": "PRES_AUD", "trial_index": 217}, "uniqueid": "MTK1705:3DL65MZB8EMN1MVMTLR3CLOA8RDCEK", "dateTime": 1516134868536}, {"current_trial": 218, "trialdata": {"rt": -1000, "trial_type": "single-audio", "word": "space", "stimulus": "/static/audio/wordpool/SPACE.wav", "conditions": [24, 800, "a", 12000], "internal_node_id": "0.0-164.0", "trial": 5, "time_elapsed": 3987520, "serialpos": 21, "key_press": -1, "wordID": 1344, "type": "PRES_AUD", "trial_index": 218}, "uniqueid": "MTK1705:3DL65MZB8EMN1MVMTLR3CLOA8RDCEK", "dateTime": 1516134870423}, {"current_trial": 219, "trialdata": {"rt": -1000, "trial_type": "single-audio", "word": "puppy", "stimulus": "/static/audio/wordpool/PUPPY.wav", "conditions": [24, 800, "a", 12000], "internal_node_id": "0.0-165.0", "trial": 5, "time_elapsed": 3989167, "serialpos": 22, "key_press": -1, "wordID": 1143, "type": "PRES_AUD", "trial_index": 219}, "uniqueid": "MTK1705:3DL65MZB8EMN1MVMTLR3CLOA8RDCEK", "dateTime": 1516134872069}, {"current_trial": 220, "trialdata": {"rt": -1000, "trial_type": "single-audio", "word": "cyclone", "stimulus": "/static/audio/wordpool/CYCLONE.wav", "conditions": [24, 800, "a", 12000], "internal_node_id": "0.0-166.0", "trial": 5, "time_elapsed": 3990958, "serialpos": 23, "key_press": -1, "wordID": 430, "type": "PRES_AUD", "trial_index": 220}, "uniqueid": "MTK1705:3DL65MZB8EMN1MVMTLR3CLOA8RDCEK", "dateTime": 1516134873860}, {"current_trial": 221, "trialdata": {"rt": -1, "trial_type": "single-stim", "stimulus": "", "internal_node_id": "0.0-167.0-0.0", "time_elapsed": 3992355, "key_press": -1, "type": "PRE_RECALL_DELAY", "trial_index": 221}, "uniqueid": "MTK1705:3DL65MZB8EMN1MVMTLR3CLOA8RDCEK", "dateTime": 1516134875257}, {"current_trial": 222, "trialdata": {"rt": -1000, "trial_type": "single-audio", "stimulus": "/static/audio/400Hz.wav", "internal_node_id": "0.0-168.0", "time_elapsed": 3992857, "key_press": -1, "type": "PRE_RECALL_ALERT", "trial_index": 222}, "uniqueid": "MTK1705:3DL65MZB8EMN1MVMTLR3CLOA8RDCEK", "dateTime": 1516134875759}, {"current_trial": 223, "trialdata": {"rt": [6569, 8176, 12739, 14593, 17768, 19975, 23243, 27283, 30211, 33331], "recwords": ["grape", "apple", "rabbit", "bunny", "market", "canal", "suspect", "actor", "tractor", "pasta"], "key_times": [4745, 5017, 5246, 5595, 5775, 6569, 7005, 7280, 7441, 7636, 7822, 8176, 9713, 9874, 10331, 11516, 12047, 12332, 12739, 13238, 13446, 13699, 13867, 14114, 14593, 15985, 16139, 16491, 17000, 17180, 17334, 17768, 18582, 18773, 19089, 19240, 19603, 19975, 21321, 21792, 21926, 22186, 22355, 22655, 22817, 23243, 25366, 25549, 26360, 26709, 26898, 27283, 27866, 28089, 28175, 28411, 28734, 29109, 29853, 30211, 31935, 32071, 32341, 32490, 32664, 33331], "trial_type": "free-recall", "conditions": [24, 800, "a", 12000], "internal_node_id": "0.0-169.0-0.0", "key_presses": [71, 82, 65, 80, 69, 13, 65, 80, 80, 76, 69, 13, 82, 65, 66, 66, 73, 84, 13, 66, 85, 78, 78, 89, 13, 77, 65, 82, 75, 69, 84, 13, 67, 65, 78, 65, 76, 13, 83, 85, 83, 80, 69, 67, 84, 13, 65, 67, 84, 79, 82, 13, 84, 82, 65, 67, 84, 79, 82, 13, 80, 65, 83, 84, 65, 13], "trial": 5, "time_elapsed": 4052864, "type": "FREE_RECALL", "trial_index": 223}, "uniqueid": "MTK1705:3DL65MZB8EMN1MVMTLR3CLOA8RDCEK", "dateTime": 1516134935771}, {"current_trial": 224, "trialdata": {"rt": 1070, "trial_type": "text", "internal_node_id": "0.0-170.0", "time_elapsed": 4056220, "key_press": 32, "type": "INSTRUCTIONS", "trial_index": 224}, "uniqueid": "MTK1705:3DL65MZB8EMN1MVMTLR3CLOA8RDCEK", "dateTime": 1516134939124}, {"current_trial": 225, "trialdata": {"rt": [2637, 6083, 9646, 11583], "trial_type": "math-distractor", "key_times": [1973, 2145, 2637, 5673, 5869, 6083, 9188, 9387, 9646, 11172, 11385, 11583], "responses": ["11", "19", "13", "18"], "num2": [4, 9, 4, 7, 3], "num3": [4, 3, 4, 4, 3], "conditions": [12, 1600, "a", 12000], "internal_node_id": "0.0-171.0", "key_presses": [97, 97, 13, 97, 105, 13, 97, 99, 13, 97, 104, 13], "trial": 6, "time_elapsed": 4070230, "type": "DISTRACTOR", "trial_index": 225, "num1": [3, 7, 5, 7, 8]}, "uniqueid": "MTK1705:3DL65MZB8EMN1MVMTLR3CLOA8RDCEK", "dateTime": 1516134953134}, {"current_trial": 226, "trialdata": {"rt": -1, "trial_type": "single-stim", "stimulus": "<p id=\"stim\">10</p>", "internal_node_id": "0.0-172.0-0.0", "time_elapsed": 4073238, "key_press": -1, "trial_index": 226}, "uniqueid": "MTK1705:3DL65MZB8EMN1MVMTLR3CLOA8RDCEK", "dateTime": 1516134956140}, {"current_trial": 227, "trialdata": {"rt": -1, "trial_type": "single-stim", "stimulus": "<p id=\"stim\">9</p>", "internal_node_id": "0.0-172.0-1.0", "time_elapsed": 4074241, "key_press": -1, "trial_index": 227}, "uniqueid": "MTK1705:3DL65MZB8EMN1MVMTLR3CLOA8RDCEK", "dateTime": 1516134957143}, {"current_trial": 228, "trialdata": {"rt": -1, "trial_type": "single-stim", "stimulus": "<p id=\"stim\">8</p>", "internal_node_id": "0.0-172.0-2.0", "time_elapsed": 4075247, "key_press": -1, "trial_index": 228}, "uniqueid": "MTK1705:3DL65MZB8EMN1MVMTLR3CLOA8RDCEK", "dateTime": 1516134958149}, {"current_trial": 229, "trialdata": {"rt": -1, "trial_type": "single-stim", "stimulus": "<p id=\"stim\">7</p>", "internal_node_id": "0.0-172.0-3.0", "time_elapsed": 4076250, "key_press": -1, "trial_index": 229}, "uniqueid": "MTK1705:3DL65MZB8EMN1MVMTLR3CLOA8RDCEK", "dateTime": 1516134959153}, {"current_trial": 230, "trialdata": {"rt": -1, "trial_type": "single-stim", "stimulus": "<p id=\"stim\">6</p>", "internal_node_id": "0.0-172.0-4.0", "time_elapsed": 4077253, "key_press": -1, "trial_index": 230}, "uniqueid": "MTK1705:3DL65MZB8EMN1MVMTLR3CLOA8RDCEK", "dateTime": 1516134960155}, {"current_trial": 231, "trialdata": {"rt": -1, "trial_type": "single-stim", "stimulus": "<p id=\"stim\">5</p>", "internal_node_id": "0.0-172.0-5.0", "time_elapsed": 4078255, "key_press": -1, "trial_index": 231}, "uniqueid": "MTK1705:3DL65MZB8EMN1MVMTLR3CLOA8RDCEK", "dateTime": 1516134961158}, {"current_trial": 232, "trialdata": {"rt": -1, "trial_type": "single-stim", "stimulus": "<p id=\"stim\">4</p>", "internal_node_id": "0.0-172.0-6.0", "time_elapsed": 4079259, "key_press": -1, "trial_index": 232}, "uniqueid": "MTK1705:3DL65MZB8EMN1MVMTLR3CLOA8RDCEK", "dateTime": 1516134962161}, {"current_trial": 233, "trialdata": {"rt": -1, "trial_type": "single-stim", "stimulus": "<p id=\"stim\">3</p>", "internal_node_id": "0.0-172.0-7.0", "time_elapsed": 4080261, "key_press": -1, "trial_index": 233}, "uniqueid": "MTK1705:3DL65MZB8EMN1MVMTLR3CLOA8RDCEK", "dateTime": 1516134963164}, {"current_trial": 234, "trialdata": {"rt": -1, "trial_type": "single-stim", "stimulus": "<p id=\"stim\">2</p>", "internal_node_id": "0.0-172.0-8.0", "time_elapsed": 4081265, "key_press": -1, "trial_index": 234}, "uniqueid": "MTK1705:3DL65MZB8EMN1MVMTLR3CLOA8RDCEK", "dateTime": 1516134964168}, {"current_trial": 235, "trialdata": {"rt": -1, "trial_type": "single-stim", "stimulus": "<p id=\"stim\">1</p>", "internal_node_id": "0.0-172.0-9.0", "time_elapsed": 4082268, "key_press": -1, "trial_index": 235}, "uniqueid": "MTK1705:3DL65MZB8EMN1MVMTLR3CLOA8RDCEK", "dateTime": 1516134965171}, {"current_trial": 236, "trialdata": {"rt": -1, "trial_type": "single-stim", "stimulus": "<p id=\"stim\">+</p>", "internal_node_id": "0.0-173.0-0.0", "time_elapsed": 4083771, "key_press": -1, "type": "FIXATION", "trial_index": 236}, "uniqueid": "MTK1705:3DL65MZB8EMN1MVMTLR3CLOA8RDCEK", "dateTime": 1516134966673}, {"current_trial": 237, "trialdata": {"rt": -1000, "trial_type": "single-audio", "word": "creature", "stimulus": "/static/audio/wordpool/CREATURE.wav", "conditions": [12, 1600, "a", 12000], "internal_node_id": "0.0-174.0", "trial": 6, "time_elapsed": 4086547, "serialpos": 0, "key_press": -1, "wordID": 402, "type": "PRES_AUD", "trial_index": 237}, "uniqueid": "MTK1705:3DL65MZB8EMN1MVMTLR3CLOA8RDCEK", "dateTime": 1516134969449}, {"current_trial": 238, "trialdata": {"rt": -1000, "trial_type": "single-audio", "word": "robot", "stimulus": "/static/audio/wordpool/ROBOT.wav", "conditions": [12, 1600, "a", 12000], "internal_node_id": "0.0-175.0", "trial": 6, "time_elapsed": 4089135, "serialpos": 1, "key_press": -1, "wordID": 1199, "type": "PRES_AUD", "trial_index": 238}, "uniqueid": "MTK1705:3DL65MZB8EMN1MVMTLR3CLOA8RDCEK", "dateTime": 1516134972037}, {"current_trial": 239, "trialdata": {"rt": -1000, "trial_type": "single-audio", "word": "trout", "stimulus": "/static/audio/wordpool/TROUT.wav", "conditions": [12, 1600, "a", 12000], "internal_node_id": "0.0-176.0", "trial": 6, "time_elapsed": 4091703, "serialpos": 2, "key_press": -1, "wordID": 1510, "type": "PRES_AUD", "trial_index": 239}, "uniqueid": "MTK1705:3DL65MZB8EMN1MVMTLR3CLOA8RDCEK", "dateTime": 1516134974605}, {"current_trial": 240, "trialdata": {"rt": -1000, "trial_type": "single-audio", "word": "peach", "stimulus": "/static/audio/wordpool/PEACH.wav", "conditions": [12, 1600, "a", 12000], "internal_node_id": "0.0-177.0", "trial": 6, "time_elapsed": 4094167, "serialpos": 3, "key_press": -1, "wordID": 1030, "type": "PRES_AUD", "trial_index": 240}, "uniqueid": "MTK1705:3DL65MZB8EMN1MVMTLR3CLOA8RDCEK", "dateTime": 1516134977069}, {"current_trial": 241, "trialdata": {"rt": -1000, "trial_type": "single-audio", "word": "monster", "stimulus": "/static/audio/wordpool/MONSTER.wav", "conditions": [12, 1600, "a", 12000], "internal_node_id": "0.0-178.0", "trial": 6, "time_elapsed": 4096734, "serialpos": 4, "key_press": -1, "wordID": 911, "type": "PRES_AUD", "trial_index": 241}, "uniqueid": "MTK1705:3DL65MZB8EMN1MVMTLR3CLOA8RDCEK", "dateTime": 1516134979636}, {"current_trial": 242, "trialdata": {"rt": -1000, "trial_type": "single-audio", "word": "milk", "stimulus": "/static/audio/wordpool/MILK.wav", "conditions": [12, 1600, "a", 12000], "internal_node_id": "0.0-179.0", "trial": 6, "time_elapsed": 4099480, "serialpos": 5, "key_press": -1, "wordID": 894, "type": "PRES_AUD", "trial_index": 242}, "uniqueid": "MTK1705:3DL65MZB8EMN1MVMTLR3CLOA8RDCEK", "dateTime": 1516134982382}, {"current_trial": 243, "trialdata": {"rt": -1000, "trial_type": "single-audio", "word": "chipmunk", "stimulus": "/static/audio/wordpool/CHIPMUNK.wav", "conditions": [12, 1600, "a", 12000], "internal_node_id": "0.0-180.0", "trial": 6, "time_elapsed": 4102264, "serialpos": 6, "key_press": -1, "wordID": 303, "type": "PRES_AUD", "trial_index": 243}, "uniqueid": "MTK1705:3DL65MZB8EMN1MVMTLR3CLOA8RDCEK", "dateTime": 1516134985166}, {"current_trial": 244, "trialdata": {"rt": -1000, "trial_type": "single-audio", "word": "eyelash", "stimulus": "/static/audio/wordpool/EYELASH.wav", "conditions": [12, 1600, "a", 12000], "internal_node_id": "0.0-181.0", "trial": 6, "time_elapsed": 4104733, "serialpos": 7, "key_press": -1, "wordID": 545, "type": "PRES_AUD", "trial_index": 244}, "uniqueid": "MTK1705:3DL65MZB8EMN1MVMTLR3CLOA8RDCEK", "dateTime": 1516134987635}, {"current_trial": 245, "trialdata": {"rt": -1000, "trial_type": "single-audio", "word": "lagoon", "stimulus": "/static/audio/wordpool/LAGOON.wav", "conditions": [12, 1600, "a", 12000], "internal_node_id": "0.0-182.0", "trial": 6, "time_elapsed": 4107138, "serialpos": 8, "key_press": -1, "wordID": 794, "type": "PRES_AUD", "trial_index": 245}, "uniqueid": "MTK1705:3DL65MZB8EMN1MVMTLR3CLOA8RDCEK", "dateTime": 1516134990041}, {"current_trial": 246, "trialdata": {"rt": -1000, "trial_type": "single-audio", "word": "napkin", "stimulus": "/static/audio/wordpool/NAPKIN.wav", "conditions": [12, 1600, "a", 12000], "internal_node_id": "0.0-183.0", "trial": 6, "time_elapsed": 4109727, "serialpos": 9, "key_press": -1, "wordID": 936, "type": "PRES_AUD", "trial_index": 246}, "uniqueid": "MTK1705:3DL65MZB8EMN1MVMTLR3CLOA8RDCEK", "dateTime": 1516134992630}, {"current_trial": 247, "trialdata": {"rt": -1000, "trial_type": "single-audio", "word": "pecan", "stimulus": "/static/audio/wordpool/PECAN.wav", "conditions": [12, 1600, "a", 12000], "internal_node_id": "0.0-184.0", "trial": 6, "time_elapsed": 4112310, "serialpos": 10, "key_press": -1, "wordID": 1035, "type": "PRES_AUD", "trial_index": 247}, "uniqueid": "MTK1705:3DL65MZB8EMN1MVMTLR3CLOA8RDCEK", "dateTime": 1516134995212}, {"current_trial": 248, "trialdata": {"rt": -1000, "trial_type": "single-audio", "word": "citrus", "stimulus": "/static/audio/wordpool/CITRUS.wav", "conditions": [12, 1600, "a", 12000], "internal_node_id": "0.0-185.0", "trial": 6, "time_elapsed": 4114905, "serialpos": 11, "key_press": -1, "wordID": 312, "type": "PRES_AUD",