{"assignmentId": "3WT783CTPCOPUJJ2JUPDBDIP5TGCBY", "workerId": "MTK1713", "questiondata": {"origin": "United States", "strat-rehearsal": "60", "marital": "Single", "education": "Some college", "ethnicity": "Not Hispanic", "color_depth": 24, "distracted": "No", "wrote-notes": "No", "strat-other": "None that were not listed. ", "screen_width": 1920, "avail_screen_width": 1920, "avail_screen_height": 1040, "strat-image": "90", "language": "English", "gender": "Male", "age": "21", "gender_other": "", "race": ["White"], "strat-categorize": "100", "pixel_depth": 24, "strat-spatial": "100", "strat-story": "15", "race_other": "", "screen_height": 1080}, "bonus": 0, "hitId": "38F60IALAGO39TK9HYICRMQQKSP0TU", "counterbalance": 425, "useragent": "Mozilla/5.0 (Windows NT 10.0; Win64; x64) AppleWebKit/537.36 (KHTML, like Gecko) Chrome/63.0.3239.132 Safari/537.36", "eventdata": [{"eventtype": "initialized", "interval": 0, "value": null, "timestamp": 1516129508395}, {"eventtype": "window_resize", "interval": 0, "value": [1920, 989], "timestamp": 1516129508395}, {"eventtype": "focus", "interval": 482656, "value": "off", "timestamp": 1516129991051}, {"eventtype": "focus", "interval": 12072, "value": "on", "timestamp": 1516130003123}, {"eventtype": "focus", "interval": 19446, "value": "off", "timestamp": 1516130022569}, {"eventtype": "focus", "interval": 2266, "value": "on", "timestamp": 1516130024835}], "data": [{"current_trial": 0, "trialdata": {"rt": 2841, "trial_type": "text", "internal_node_id": "0.0-0.0", "time_elapsed": 2843, "key_press": 13, "type": "INSTRUCTIONS", "trial_index": 0}, "uniqueid": "MTK1713:3WT783CTPCOPUJJ2JUPDBDIP5TGCBY", "dateTime": 1516129511678}, {"current_trial": 1, "trialdata": {"rt": 27293, "trial_type": "text", "internal_node_id": "0.0-1.0", "time_elapsed": 30137, "key_press": 13, "type": "INSTRUCTIONS", "trial_index": 1}, "uniqueid": "MTK1713:3WT783CTPCOPUJJ2JUPDBDIP5TGCBY", "dateTime": 1516129538971}, {"current_trial": 2, "trialdata": {"rt": [9814], "trial_type": "audio-test", "responses": ["ocean"], "internal_node_id": "0.0-2.0", "time_elapsed": 39958, "type": "AUDIO_TEST", "trial_index": 2}, "uniqueid": "MTK1713:3WT783CTPCOPUJJ2JUPDBDIP5TGCBY", "dateTime": 1516129548792}, {"current_trial": 3, "trialdata": {"rt": [3393], "trial_type": "audio-test", "responses": ["crystal"], "internal_node_id": "0.0-3.0", "time_elapsed": 43355, "type": "AUDIO_TEST", "trial_index": 3}, "uniqueid": "MTK1713:3WT783CTPCOPUJJ2JUPDBDIP5TGCBY", "dateTime": 1516129552189}, {"current_trial": 4, "trialdata": {"rt": [5793], "trial_type": "audio-test", "responses": ["spice"], "internal_node_id": "0.0-4.0", "time_elapsed": 49153, "type": "AUDIO_TEST", "trial_index": 4}, "uniqueid": "MTK1713:3WT783CTPCOPUJJ2JUPDBDIP5TGCBY", "dateTime": 1516129557987}, {"current_trial": 5, "trialdata": {"rt": 44203, "trial_type": "survey-text", "responses": "{\"Q0\":\"4:00 A.M.\",\"Q1\":\"10:00 A.M.\",\"Q2\":\"5\"}", "internal_node_id": "0.0-5.0", "time_elapsed": 94109, "type": "SLEEP_SURVEY", "trial_index": 5}, "uniqueid": "MTK1713:3WT783CTPCOPUJJ2JUPDBDIP5TGCBY", "dateTime": 1516129602943}, {"current_trial": 6, "trialdata": {"rt": 68902, "trial_type": "text", "internal_node_id": "0.0-6.0", "time_elapsed": 164013, "key_press": 13, "type": "INSTRUCTIONS", "trial_index": 6}, "uniqueid": "MTK1713:3WT783CTPCOPUJJ2JUPDBDIP5TGCBY", "dateTime": 1516129672847}, {"current_trial": 7, "trialdata": {"rt": 28766, "trial_type": "text", "internal_node_id": "0.0-7.0", "time_elapsed": 193279, "key_press": 13, "type": "INSTRUCTIONS", "trial_index": 7}, "uniqueid": "MTK1713:3WT783CTPCOPUJJ2JUPDBDIP5TGCBY", "dateTime": 1516129702113}, {"current_trial": 8, "trialdata": {"rt": 10550, "trial_type": "text", "internal_node_id": "0.0-8.0", "time_elapsed": 204330, "key_press": 13, "type": "INSTRUCTIONS", "trial_index": 8}, "uniqueid": "MTK1713:3WT783CTPCOPUJJ2JUPDBDIP5TGCBY", "dateTime": 1516129713164}, {"current_trial": 9, "trialdata": {"rt": [2803, 5271, 11723, 13879], "trial_type": "math-distractor", "key_times": [2200, 2280, 2803, 4844, 4923, 5271, 7340, 7592, 10360, 10384, 11723, 13024, 13596, 13879], "responses": ["13", "13", "12", "18"], "num2": [5, 8, 5, 8, 1], "num3": [3, 3, 4, 6, 3], "conditions": [18, 1200, "v", 18000], "internal_node_id": "0.0-9.0", "key_presses": [97, 99, 13, 97, 99, 13, 97, 100, 97, 98, 13, 97, 104, 13], "trial": 0, "time_elapsed": 223335, "type": "DISTRACTOR", "trial_index": 9, "num1": [5, 2, 3, 4, 6]}, "uniqueid": "MTK1713:3WT783CTPCOPUJJ2JUPDBDIP5TGCBY", "dateTime": 1516129732170}, {"current_trial": 10, "trialdata": {"rt": -1, "trial_type": "single-stim", "stimulus": "<p id=\"stim\">10</p>", "internal_node_id": "0.0-10.0-0.0", "time_elapsed": 226338, "key_press": -1, "trial_index": 10}, "uniqueid": "MTK1713:3WT783CTPCOPUJJ2JUPDBDIP5TGCBY", "dateTime": 1516129735173}, {"current_trial": 11, "trialdata": {"rt": -1, "trial_type": "single-stim", "stimulus": "<p id=\"stim\">9</p>", "internal_node_id": "0.0-10.0-1.0", "time_elapsed": 227340, "key_press": -1, "trial_index": 11}, "uniqueid": "MTK1713:3WT783CTPCOPUJJ2JUPDBDIP5TGCBY", "dateTime": 1516129736175}, {"current_trial": 12, "trialdata": {"rt": -1, "trial_type": "single-stim", "stimulus": "<p id=\"stim\">8</p>", "internal_node_id": "0.0-10.0-2.0", "time_elapsed": 228342, "key_press": -1, "trial_index": 12}, "uniqueid": "MTK1713:3WT783CTPCOPUJJ2JUPDBDIP5TGCBY", "dateTime": 1516129737176}, {"current_trial": 13, "trialdata": {"rt": -1, "trial_type": "single-stim", "stimulus": "<p id=\"stim\">7</p>", "internal_node_id": "0.0-10.0-3.0", "time_elapsed": 229343, "key_press": -1, "trial_index": 13}, "uniqueid": "MTK1713:3WT783CTPCOPUJJ2JUPDBDIP5TGCBY", "dateTime": 1516129738177}, {"current_trial": 14, "trialdata": {"rt": -1, "trial_type": "single-stim", "stimulus": "<p id=\"stim\">6</p>", "internal_node_id": "0.0-10.0-4.0", "time_elapsed": 230344, "key_press": -1, "trial_index": 14}, "uniqueid": "MTK1713:3WT783CTPCOPUJJ2JUPDBDIP5TGCBY", "dateTime": 1516129739179}, {"current_trial": 15, "trialdata": {"rt": -1, "trial_type": "single-stim", "stimulus": "<p id=\"stim\">5</p>", "internal_node_id": "0.0-10.0-5.0", "time_elapsed": 231345, "key_press": -1, "trial_index": 15}, "uniqueid": "MTK1713:3WT783CTPCOPUJJ2JUPDBDIP5TGCBY", "dateTime": 1516129740180}, {"current_trial": 16, "trialdata": {"rt": -1, "trial_type": "single-stim", "stimulus": "<p id=\"stim\">4</p>", "internal_node_id": "0.0-10.0-6.0", "time_elapsed": 232347, "key_press": -1, "trial_index": 16}, "uniqueid": "MTK1713:3WT783CTPCOPUJJ2JUPDBDIP5TGCBY", "dateTime": 1516129741182}, {"current_trial": 17, "trialdata": {"rt": -1, "trial_type": "single-stim", "stimulus": "<p id=\"stim\">3</p>", "internal_node_id": "0.0-10.0-7.0", "time_elapsed": 233349, "key_press": -1, "trial_index": 17}, "uniqueid": "MTK1713:3WT783CTPCOPUJJ2JUPDBDIP5TGCBY", "dateTime": 1516129742184}, {"current_trial": 18, "trialdata": {"rt": -1, "trial_type": "single-stim", "stimulus": "<p id=\"stim\">2</p>", "internal_node_id": "0.0-10.0-8.0", "time_elapsed": 234350, "key_press": -1, "trial_index": 18}, "uniqueid": "MTK1713:3WT783CTPCOPUJJ2JUPDBDIP5TGCBY", "dateTime": 1516129743184}, {"current_trial": 19, "trialdata": {"rt": -1, "trial_type": "single-stim", "stimulus": "<p id=\"stim\">1</p>", "internal_node_id": "0.0-10.0-9.0", "time_elapsed": 235352, "key_press": -1, "trial_index": 19}, "uniqueid": "MTK1713:3WT783CTPCOPUJJ2JUPDBDIP5TGCBY", "dateTime": 1516129744186}, {"current_trial": 20, "trialdata": {"rt": -1, "trial_type": "single-stim", "stimulus": "<p id=\"stim\">+</p>", "internal_node_id": "0.0-11.0-0.0", "time_elapsed": 236854, "key_press": -1, "type": "FIXATION", "trial_index": 20}, "uniqueid": "MTK1713:3WT783CTPCOPUJJ2JUPDBDIP5TGCBY", "dateTime": 1516129745688}, {"current_trial": 21, "trialdata": {"rt": -1, "trial_type": "single-stim", "word": "clothes", "stimulus": "<p id=\"stim\">CLOTHES</p>", "conditions": [18, 1200, "v", 18000], "internal_node_id": "0.0-12.0", "trial": 0, "time_elapsed": 238055, "serialpos": 0, "key_press": -1, "wordID": 326, "type": "PRES_VIS", "trial_index": 21}, "uniqueid": "MTK1713:3WT783CTPCOPUJJ2JUPDBDIP5TGCBY", "dateTime": 1516129746890}, {"current_trial": 22, "trialdata": {"rt": -1, "trial_type": "single-stim", "word": "shark", "stimulus": "<p id=\"stim\">SHARK</p>", "conditions": [18, 1200, "v", 18000], "internal_node_id": "0.0-13.0", "trial": 0, "time_elapsed": 240437, "serialpos": 1, "key_press": -1, "wordID": 1274, "type": "PRES_VIS", "trial_index": 22}, "uniqueid": "MTK1713:3WT783CTPCOPUJJ2JUPDBDIP5TGCBY", "dateTime": 1516129749271}, {"current_trial": 23, "trialdata": {"rt": -1, "trial_type": "single-stim", "word": "drill", "stimulus": "<p id=\"stim\">DRILL</p>", "conditions": [18, 1200, "v", 18000], "internal_node_id": "0.0-14.0", "trial": 0, "time_elapsed": 242718, "serialpos": 2, "key_press": -1, "wordID": 496, "type": "PRES_VIS", "trial_index": 23}, "uniqueid": "MTK1713:3WT783CTPCOPUJJ2JUPDBDIP5TGCBY", "dateTime": 1516129751552}, {"current_trial": 24, "trialdata": {"rt": -1, "trial_type": "single-stim", "word": "pepper", "stimulus": "<p id=\"stim\">PEPPER</p>", "conditions": [18, 1200, "v", 18000], "internal_node_id": "0.0-15.0", "trial": 0, "time_elapsed": 245055, "serialpos": 3, "key_press": -1, "wordID": 1046, "type": "PRES_VIS", "trial_index": 24}, "uniqueid": "MTK1713:3WT783CTPCOPUJJ2JUPDBDIP5TGCBY", "dateTime": 1516129753889}, {"current_trial": 25, "trialdata": {"rt": -1, "trial_type": "single-stim", "word": "viking", "stimulus": "<p id=\"stim\">VIKING</p>", "conditions": [18, 1200, "v", 18000], "internal_node_id": "0.0-16.0", "trial": 0, "time_elapsed": 247388, "serialpos": 4, "key_press": -1, "wordID": 1564, "type": "PRES_VIS", "trial_index": 25}, "uniqueid": "MTK1713:3WT783CTPCOPUJJ2JUPDBDIP5TGCBY", "dateTime": 1516129756222}, {"current_trial": 26, "trialdata": {"rt": -1, "trial_type": "single-stim", "word": "turnip", "stimulus": "<p id=\"stim\">TURNIP</p>", "conditions": [18, 1200, "v", 18000], "internal_node_id": "0.0-17.0", "trial": 0, "time_elapsed": 249632, "serialpos": 5, "key_press": -1, "wordID": 1520, "type": "PRES_VIS", "trial_index": 26}, "uniqueid": "MTK1713:3WT783CTPCOPUJJ2JUPDBDIP5TGCBY", "dateTime": 1516129758466}, {"current_trial": 27, "trialdata": {"rt": -1, "trial_type": "single-stim", "word": "switch", "stimulus": "<p id=\"stim\">SWITCH</p>", "conditions": [18, 1200, "v", 18000], "internal_node_id": "0.0-18.0", "trial": 0, "time_elapsed": 251783, "serialpos": 6, "key_press": -1, "wordID": 1421, "type": "PRES_VIS", "trial_index": 27}, "uniqueid": "MTK1713:3WT783CTPCOPUJJ2JUPDBDIP5TGCBY", "dateTime": 1516129760617}, {"current_trial": 28, "trialdata": {"rt": -1, "trial_type": "single-stim", "word": "carriage", "stimulus": "<p id=\"stim\">CARRIAGE</p>", "conditions": [18, 1200, "v", 18000], "internal_node_id": "0.0-19.0", "trial": 0, "time_elapsed": 254160, "serialpos": 7, "key_press": -1, "wordID": 247, "type": "PRES_VIS", "trial_index": 28}, "uniqueid": "MTK1713:3WT783CTPCOPUJJ2JUPDBDIP5TGCBY", "dateTime": 1516129762995}, {"current_trial": 29, "trialdata": {"rt": -1, "trial_type": "single-stim", "word": "sword", "stimulus": "<p id=\"stim\">SWORD</p>", "conditions": [18, 1200, "v", 18000], "internal_node_id": "0.0-20.0", "trial": 0, "time_elapsed": 256177, "serialpos": 8, "key_press": -1, "wordID": 1422, "type": "PRES_VIS", "trial_index": 29}, "uniqueid": "MTK1713:3WT783CTPCOPUJJ2JUPDBDIP5TGCBY", "dateTime": 1516129765011}, {"current_trial": 30, "trialdata": {"rt": -1, "trial_type": "single-stim", "word": "donkey", "stimulus": "<p id=\"stim\">DONKEY</p>", "conditions": [18, 1200, "v", 18000], "internal_node_id": "0.0-21.0", "trial": 0, "time_elapsed": 258346, "serialpos": 9, "key_press": -1, "wordID": 483, "type": "PRES_VIS", "trial_index": 30}, "uniqueid": "MTK1713:3WT783CTPCOPUJJ2JUPDBDIP5TGCBY", "dateTime": 1516129767181}, {"current_trial": 31, "trialdata": {"rt": -1, "trial_type": "single-stim", "word": "velvet", "stimulus": "<p id=\"stim\">VELVET</p>", "conditions": [18, 1200, "v", 18000], "internal_node_id": "0.0-22.0", "trial": 0, "time_elapsed": 260515, "serialpos": 10, "key_press": -1, "wordID": 1554, "type": "PRES_VIS", "trial_index": 31}, "uniqueid": "MTK1713:3WT783CTPCOPUJJ2JUPDBDIP5TGCBY", "dateTime": 1516129769349}, {"current_trial": 32, "trialdata": {"rt": -1, "trial_type": "single-stim", "word": "truck", "stimulus": "<p id=\"stim\">TRUCK</p>", "conditions": [18, 1200, "v", 18000], "internal_node_id": "0.0-23.0", "trial": 0, "time_elapsed": 262738, "serialpos": 11, "key_press": -1, "wordID": 1511, "type": "PRES_VIS", "trial_index": 32}, "uniqueid": "MTK1713:3WT783CTPCOPUJJ2JUPDBDIP5TGCBY", "dateTime": 1516129771572}, {"current_trial": 33, "trialdata": {"rt": -1, "trial_type": "single-stim", "word": "captive", "stimulus": "<p id=\"stim\">CAPTIVE</p>", "conditions": [18, 1200, "v", 18000], "internal_node_id": "0.0-24.0", "trial": 0, "time_elapsed": 264760, "serialpos": 12, "key_press": -1, "wordID": 239, "type": "PRES_VIS", "trial_index": 33}, "uniqueid": "MTK1713:3WT783CTPCOPUJJ2JUPDBDIP5TGCBY", "dateTime": 1516129773594}, {"current_trial": 34, "trialdata": {"rt": -1, "trial_type": "single-stim", "word": "goblin", "stimulus": "<p id=\"stim\">GOBLIN</p>", "conditions": [18, 1200, "v", 18000], "internal_node_id": "0.0-25.0", "trial": 0, "time_elapsed": 266773, "serialpos": 13, "key_press": -1, "wordID": 644, "type": "PRES_VIS", "trial_index": 34}, "uniqueid": "MTK1713:3WT783CTPCOPUJJ2JUPDBDIP5TGCBY", "dateTime": 1516129775607}, {"current_trial": 35, "trialdata": {"rt": -1, "trial_type": "single-stim", "word": "sister", "stimulus": "<p id=\"stim\">SISTER</p>", "conditions": [18, 1200, "v", 18000], "internal_node_id": "0.0-26.0", "trial": 0, "time_elapsed": 269112, "serialpos": 14, "key_press": -1, "wordID": 1311, "type": "PRES_VIS", "trial_index": 35}, "uniqueid": "MTK1713:3WT783CTPCOPUJJ2JUPDBDIP5TGCBY", "dateTime": 1516129777946}, {"current_trial": 36, "trialdata": {"rt": -1, "trial_type": "single-stim", "word": "mustard", "stimulus": "<p id=\"stim\">MUSTARD</p>", "conditions": [18, 1200, "v", 18000], "internal_node_id": "0.0-27.0", "trial": 0, "time_elapsed": 271318, "serialpos": 15, "key_press": -1, "wordID": 934, "type": "PRES_VIS", "trial_index": 36}, "uniqueid": "MTK1713:3WT783CTPCOPUJJ2JUPDBDIP5TGCBY", "dateTime": 1516129780153}, {"current_trial": 37, "trialdata": {"rt": -1, "trial_type": "single-stim", "word": "radish", "stimulus": "<p id=\"stim\">RADISH</p>", "conditions": [18, 1200, "v", 18000], "internal_node_id": "0.0-28.0", "trial": 0, "time_elapsed": 273461, "serialpos": 16, "key_press": -1, "wordID": 1157, "type": "PRES_VIS", "trial_index": 37}, "uniqueid": "MTK1713:3WT783CTPCOPUJJ2JUPDBDIP5TGCBY", "dateTime": 1516129782295}, {"current_trial": 38, "trialdata": {"rt": -1, "trial_type": "single-stim", "word": "leader", "stimulus": "<p id=\"stim\">LEADER</p>", "conditions": [18, 1200, "v", 18000], "internal_node_id": "0.0-29.0", "trial": 0, "time_elapsed": 275762, "serialpos": 17, "key_press": -1, "wordID": 806, "type": "PRES_VIS", "trial_index": 38}, "uniqueid": "MTK1713:3WT783CTPCOPUJJ2JUPDBDIP5TGCBY", "dateTime": 1516129784596}, {"current_trial": 39, "trialdata": {"rt": -1, "trial_type": "single-stim", "stimulus": "", "internal_node_id": "0.0-30.0-0.0", "time_elapsed": 277963, "key_press": -1, "type": "PRE_RECALL_DELAY", "trial_index": 39}, "uniqueid": "MTK1713:3WT783CTPCOPUJJ2JUPDBDIP5TGCBY", "dateTime": 1516129786797}, {"current_trial": 40, "trialdata": {"rt": -1000, "trial_type": "single-audio", "stimulus": "/static/audio/400Hz.wav", "internal_node_id": "0.0-31.0", "time_elapsed": 278466, "key_press": -1, "type": "PRE_RECALL_ALERT", "trial_index": 40}, "uniqueid": "MTK1713:3WT783CTPCOPUJJ2JUPDBDIP5TGCBY", "dateTime": 1516129787300}, {"current_trial": 41, "trialdata": {"rt": [2123, 3455, 5147, 7567, 11407, 15138, 19970, 28082, 35050, 42720, 57597], "recwords": ["grill", "shark", "captive", "leader", "radish", "viking", "truck", "drill", "grill", "mustard", "velvet"], "key_times": [1252, 1331, 1423, 1683, 1831, 2123, 2675, 2847, 2951, 3023, 3143, 3455, 3727, 3823, 4451, 4603, 4839, 4932, 5011, 5147, 5427, 5751, 5991, 6079, 6151, 6307, 6499, 6559, 7567, 10319, 10423, 10743, 10827, 10944, 11015, 11407, 13299, 13463, 13647, 13867, 13939, 14202, 14210, 14614, 15138, 19242, 19422, 19511, 19638, 19730, 19970, 27251, 27466, 27586, 27802, 27930, 28082, 33750, 33866, 33958, 34190, 34358, 35050, 40883, 41074, 41178, 41778, 42118, 42206, 42410, 42720, 56721, 56789, 56957, 57057, 57109, 57269, 57597], "trial_type": "free-recall", "conditions": [18, 1200, "v", 18000], "internal_node_id": "0.0-32.0-0.0", "key_presses": [71, 82, 73, 76, 76, 13, 83, 72, 65, 82, 75, 13, 67, 65, 80, 84, 73, 86, 69, 13, 77, 8, 76, 69, 65, 68, 69, 82, 13, 82, 65, 68, 73, 83, 72, 13, 86, 73, 75, 73, 78, 71, 72, 8, 13, 84, 82, 85, 67, 75, 13, 68, 82, 73, 76, 76, 13, 71, 82, 73, 76, 76, 13, 77, 85, 83, 84, 65, 82, 68, 13, 86, 69, 76, 86, 69, 84, 13], "trial": 0, "time_elapsed": 338470, "type": "FREE_RECALL", "trial_index": 41}, "uniqueid": "MTK1713:3WT783CTPCOPUJJ2JUPDBDIP5TGCBY", "dateTime": 1516129847306}, {"current_trial": 42, "trialdata": {"rt": 1208, "trial_type": "text", "internal_node_id": "0.0-33.0", "time_elapsed": 341681, "key_press": 13, "type": "INSTRUCTIONS", "trial_index": 42}, "uniqueid": "MTK1713:3WT783CTPCOPUJJ2JUPDBDIP5TGCBY", "dateTime": 1516129850515}, {"current_trial": 43, "trialdata": {"rt": [2897, 4762, 8525, 10572, 13684, 16072], "trial_type": "math-distractor", "key_times": [2483, 2694, 2897, 4338, 4546, 4762, 8209, 8349, 8525, 10205, 10353, 10572, 13037, 13261, 13684, 15705, 15904, 16072], "responses": ["16", "15", "13", "15", "22", "11"], "num2": [5, 8, 2, 9, 5, 8, 8], "num3": [2, 6, 5, 3, 7, 2, 8], "conditions": [18, 1200, "v", 18000], "internal_node_id": "0.0-34.0", "key_presses": [97, 102, 13, 97, 101, 13, 97, 99, 13, 97, 101, 13, 98, 98, 13, 97, 97, 13], "trial": 1, "time_elapsed": 361685, "type": "DISTRACTOR", "trial_index": 43, "num1": [9, 1, 6, 3, 9, 1, 7]}, "uniqueid": "MTK1713:3WT783CTPCOPUJJ2JUPDBDIP5TGCBY", "dateTime": 1516129870520}, {"current_trial": 44, "trialdata": {"rt": -1, "trial_type": "single-stim", "stimulus": "<p id=\"stim\">10</p>", "internal_node_id": "0.0-35.0-0.0", "time_elapsed": 364689, "key_press": -1, "trial_index": 44}, "uniqueid": "MTK1713:3WT783CTPCOPUJJ2JUPDBDIP5TGCBY", "dateTime": 1516129873523}, {"current_trial": 45, "trialdata": {"rt": -1, "trial_type": "single-stim", "stimulus": "<p id=\"stim\">9</p>", "internal_node_id": "0.0-35.0-1.0", "time_elapsed": 365690, "key_press": -1, "trial_index": 45}, "uniqueid": "MTK1713:3WT783CTPCOPUJJ2JUPDBDIP5TGCBY", "dateTime": 1516129874524}, {"current_trial": 46, "trialdata": {"rt": -1, "trial_type": "single-stim", "stimulus": "<p id=\"stim\">8</p>", "internal_node_id": "0.0-35.0-2.0", "time_elapsed": 366692, "key_press": -1, "trial_index": 46}, "uniqueid": "MTK1713:3WT783CTPCOPUJJ2JUPDBDIP5TGCBY", "dateTime": 1516129875526}, {"current_trial": 47, "trialdata": {"rt": -1, "trial_type": "single-stim", "stimulus": "<p id=\"stim\">7</p>", "internal_node_id": "0.0-35.0-3.0", "time_elapsed": 367694, "key_press": -1, "trial_index": 47}, "uniqueid": "MTK1713:3WT783CTPCOPUJJ2JUPDBDIP5TGCBY", "dateTime": 1516129876528}, {"current_trial": 48, "trialdata": {"rt": -1, "trial_type": "single-stim", "stimulus": "<p id=\"stim\">6</p>", "internal_node_id": "0.0-35.0-4.0", "time_elapsed": 368695, "key_press": -1, "trial_index": 48}, "uniqueid": "MTK1713:3WT783CTPCOPUJJ2JUPDBDIP5TGCBY", "dateTime": 1516129877529}, {"current_trial": 49, "trialdata": {"rt": -1, "trial_type": "single-stim", "stimulus": "<p id=\"stim\">5</p>", "internal_node_id": "0.0-35.0-5.0", "time_elapsed": 369696, "key_press": -1, "trial_index": 49}, "uniqueid": "MTK1713:3WT783CTPCOPUJJ2JUPDBDIP5TGCBY", "dateTime": 1516129878530}, {"current_trial": 50, "trialdata": {"rt": -1, "trial_type": "single-stim", "stimulus": "<p id=\"stim\">4</p>", "internal_node_id": "0.0-35.0-6.0", "time_elapsed": 370698, "key_press": -1, "trial_index": 50}, "uniqueid": "MTK1713:3WT783CTPCOPUJJ2JUPDBDIP5TGCBY", "dateTime": 1516129879532}, {"current_trial": 51, "trialdata": {"rt": -1, "trial_type": "single-stim", "stimulus": "<p id=\"stim\">3</p>", "internal_node_id": "0.0-35.0-7.0", "time_elapsed": 371699, "key_press": -1, "trial_index": 51}, "uniqueid": "MTK1713:3WT783CTPCOPUJJ2JUPDBDIP5TGCBY", "dateTime": 1516129880533}, {"current_trial": 52, "trialdata": {"rt": -1, "trial_type": "single-stim", "stimulus": "<p id=\"stim\">2</p>", "internal_node_id": "0.0-35.0-8.0", "time_elapsed": 372700, "key_press": -1, "trial_index": 52}, "uniqueid": "MTK1713:3WT783CTPCOPUJJ2JUPDBDIP5TGCBY", "dateTime": 1516129881534}, {"current_trial": 53, "trialdata": {"rt": -1, "trial_type": "single-stim", "stimulus": "<p id=\"stim\">1</p>", "internal_node_id": "0.0-35.0-9.0", "time_elapsed": 373701, "key_press": -1, "trial_index": 53}, "uniqueid": "MTK1713:3WT783CTPCOPUJJ2JUPDBDIP5TGCBY", "dateTime": 1516129882535}, {"current_trial": 54, "trialdata": {"rt": -1, "trial_type": "single-stim", "stimulus": "<p id=\"stim\">+</p>", "internal_node_id": "0.0-36.0-0.0", "time_elapsed": 375203, "key_press": -1, "type": "FIXATION", "trial_index": 54}, "uniqueid": "MTK1713:3WT783CTPCOPUJJ2JUPDBDIP5TGCBY", "dateTime": 1516129884037}, {"current_trial": 55, "trialdata": {"rt": -1, "trial_type": "single-stim", "word": "honey", "stimulus": "<p id=\"stim\">HONEY</p>", "conditions": [18, 1200, "v", 18000], "internal_node_id": "0.0-37.0", "trial": 1, "time_elapsed": 376404, "serialpos": 0, "key_press": -1, "wordID": 712, "type": "PRES_VIS", "trial_index": 55}, "uniqueid": "MTK1713:3WT783CTPCOPUJJ2JUPDBDIP5TGCBY", "dateTime": 1516129885238}, {"current_trial": 56, "trialdata": {"rt": -1, "trial_type": "single-stim", "word": "rattle", "stimulus": "<p id=\"stim\">RATTLE</p>", "conditions": [18, 1200, "v", 18000], "internal_node_id": "0.0-38.0", "trial": 1, "time_elapsed": 378801, "serialpos": 1, "key_press": -1, "wordID": 1169, "type": "PRES_VIS", "trial_index": 56}, "uniqueid": "MTK1713:3WT783CTPCOPUJJ2JUPDBDIP5TGCBY", "dateTime": 1516129887636}, {"current_trial": 57, "trialdata": {"rt": -1, "trial_type": "single-stim", "word": "beaker", "stimulus": "<p id=\"stim\">BEAKER</p>", "conditions": [18, 1200, "v", 18000], "internal_node_id": "0.0-39.0", "trial": 1, "time_elapsed": 381116, "serialpos": 2, "key_press": -1, "wordID": 103, "type": "PRES_VIS", "trial_index": 57}, "uniqueid": "MTK1713:3WT783CTPCOPUJJ2JUPDBDIP5TGCBY", "dateTime": 1516129889950}, {"current_trial": 58, "trialdata": {"rt": -1, "trial_type": "single-stim", "word": "glass", "stimulus": "<p id=\"stim\">GLASS</p>", "conditions": [18, 1200, "v", 18000], "internal_node_id": "0.0-40.0", "trial": 1, "time_elapsed": 383177, "serialpos": 3, "key_press": -1, "wordID": 638, "type": "PRES_VIS", "trial_index": 58}, "uniqueid": "MTK1713:3WT783CTPCOPUJJ2JUPDBDIP5TGCBY", "dateTime": 1516129892012}, {"current_trial": 59, "trialdata": {"rt": -1, "trial_type": "single-stim", "word": "wardrobe", "stimulus": "<p id=\"stim\">WARDROBE</p>", "conditions": [18, 1200, "v", 18000], "internal_node_id": "0.0-41.0", "trial": 1, "time_elapsed": 385558, "serialpos": 4, "key_press": -1, "wordID": 1586, "type": "PRES_VIS", "trial_index": 59}, "uniqueid": "MTK1713:3WT783CTPCOPUJJ2JUPDBDIP5TGCBY", "dateTime": 1516129894392}, {"current_trial": 60, "trialdata": {"rt": -1, "trial_type": "single-stim", "word": "parsley", "stimulus": "<p id=\"stim\">PARSLEY</p>", "conditions": [18, 1200, "v", 18000], "internal_node_id": "0.0-42.0", "trial": 1, "time_elapsed": 387599, "serialpos": 5, "key_press": -1, "wordID": 1015, "type": "PRES_VIS", "trial_index": 60}, "uniqueid": "MTK1713:3WT783CTPCOPUJJ2JUPDBDIP5TGCBY", "dateTime": 1516129896433}, {"current_trial": 61, "trialdata": {"rt": -1, "trial_type": "single-stim", "word": "butcher", "stimulus": "<p id=\"stim\">BUTCHER</p>", "conditions": [18, 1200, "v", 18000], "internal_node_id": "0.0-43.0", "trial": 1, "time_elapsed": 389777, "serialpos": 6, "key_press": -1, "wordID": 202, "type": "PRES_VIS", "trial_index": 61}, "uniqueid": "MTK1713:3WT783CTPCOPUJJ2JUPDBDIP5TGCBY", "dateTime": 1516129898611}, {"current_trial": 62, "trialdata": {"rt": -1, "trial_type": "single-stim", "word": "slope", "stimulus": "<p id=\"stim\">SLOPE</p>", "conditions": [18, 1200, "v", 18000], "internal_node_id": "0.0-44.0", "trial": 1, "time_elapsed": 392129, "serialpos": 7, "key_press": -1, "wordID": 1327, "type": "PRES_VIS", "trial_index": 62}, "uniqueid": "MTK1713:3WT783CTPCOPUJJ2JUPDBDIP5TGCBY", "dateTime": 1516129900963}, {"current_trial": 63, "trialdata": {"rt": -1, "trial_type": "single-stim", "word": "bucket", "stimulus": "<p id=\"stim\">BUCKET</p>", "conditions": [18, 1200, "v", 18000], "internal_node_id": "0.0-45.0", "trial": 1, "time_elapsed": 394420, "serialpos": 8, "key_press": -1, "wordID": 183, "type": "PRES_VIS", "trial_index": 63}, "uniqueid": "MTK1713:3WT783CTPCOPUJJ2JUPDBDIP5TGCBY", "dateTime": 1516129903255}, {"current_trial": 64, "trialdata": {"rt": -1, "trial_type": "single-stim", "word": "film", "stimulus": "<p id=\"stim\">FILM</p>", "conditions": [18, 1200, "v", 18000], "internal_node_id": "0.0-46.0", "trial": 1, "time_elapsed": 396803, "serialpos": 9, "key_press": -1, "wordID": 564, "type": "PRES_VIS", "trial_index": 64}, "uniqueid": "MTK1713:3WT783CTPCOPUJJ2JUPDBDIP5TGCBY", "dateTime": 1516129905637}, {"current_trial": 65, "trialdata": {"rt": -1, "trial_type": "single-stim", "word": "burglar", "stimulus": "<p id=\"stim\">BURGLAR</p>", "conditions": [18, 1200, "v", 18000], "internal_node_id": "0.0-47.0", "trial": 1, "time_elapsed": 398847, "serialpos": 10, "key_press": -1, "wordID": 199, "type": "PRES_VIS", "trial_index": 65}, "uniqueid": "MTK1713:3WT783CTPCOPUJJ2JUPDBDIP5TGCBY", "dateTime": 1516129907681}, {"current_trial": 66, "trialdata": {"rt": -1, "trial_type": "single-stim", "word": "scissors", "stimulus": "<p id=\"stim\">SCISSORS</p>", "conditions": [18, 1200, "v", 18000], "internal_node_id": "0.0-48.0", "trial": 1, "time_elapsed": 400894, "serialpos": 11, "key_press": -1, "wordID": 1249, "type": "PRES_VIS", "trial_index": 66}, "uniqueid": "MTK1713:3WT783CTPCOPUJJ2JUPDBDIP5TGCBY", "dateTime": 1516129909728}, {"current_trial": 67, "trialdata": {"rt": -1, "trial_type": "single-stim", "word": "omelet", "stimulus": "<p id=\"stim\">OMELET</p>", "conditions": [18, 1200, "v", 18000], "internal_node_id": "0.0-49.0", "trial": 1, "time_elapsed": 403176, "serialpos": 12, "key_press": -1, "wordID": 975, "type": "PRES_VIS", "trial_index": 67}, "uniqueid": "MTK1713:3WT783CTPCOPUJJ2JUPDBDIP5TGCBY", "dateTime": 1516129912010}, {"current_trial": 68, "trialdata": {"rt": -1, "trial_type": "single-stim", "word": "pimple", "stimulus": "<p id=\"stim\">PIMPLE</p>", "conditions": [18, 1200, "v", 18000], "internal_node_id": "0.0-50.0", "trial": 1, "time_elapsed": 405257, "serialpos": 13, "key_press": -1, "wordID": 1070, "type": "PRES_VIS", "trial_index": 68}, "uniqueid": "MTK1713:3WT783CTPCOPUJJ2JUPDBDIP5TGCBY", "dateTime": 1516129914094}, {"current_trial": 69, "trialdata": {"rt": -1, "trial_type": "single-stim", "word": "wasp", "stimulus": "<p id=\"stim\">WASP</p>", "conditions": [18, 1200, "v", 18000], "internal_node_id": "0.0-51.0", "trial": 1, "time_elapsed": 407280, "serialpos": 14, "key_press": -1, "wordID": 1592, "type": "PRES_VIS", "trial_index": 69}, "uniqueid": "MTK1713:3WT783CTPCOPUJJ2JUPDBDIP5TGCBY", "dateTime": 1516129916116}, {"current_trial": 70, "trialdata": {"rt": -1, "trial_type": "single-stim", "word": "compass", "stimulus": "<p id=\"stim\">COMPASS</p>", "conditions": [18, 1200, "v", 18000], "internal_node_id": "0.0-52.0", "trial": 1, "time_elapsed": 409461, "serialpos": 15, "key_press": -1, "wordID": 357, "type": "PRES_VIS", "trial_index": 70}, "uniqueid": "MTK1713:3WT783CTPCOPUJJ2JUPDBDIP5TGCBY", "dateTime": 1516129918295}, {"current_trial": 71, "trialdata": {"rt": -1, "trial_type": "single-stim", "word": "mammal", "stimulus": "<p id=\"stim\">MAMMAL</p>", "conditions": [18, 1200, "v", 18000], "internal_node_id": "0.0-53.0", "trial": 1, "time_elapsed": 411816, "serialpos": 16, "key_press": -1, "wordID": 860, "type": "PRES_VIS", "trial_index": 71}, "uniqueid": "MTK1713:3WT783CTPCOPUJJ2JUPDBDIP5TGCBY", "dateTime": 1516129920650}, {"current_trial": 72, "trialdata": {"rt": -1, "trial_type": "single-stim", "word": "flashlight", "stimulus": "<p id=\"stim\">FLASHLIGHT</p>", "conditions": [18, 1200, "v", 18000], "internal_node_id": "0.0-54.0", "trial": 1, "time_elapsed": 414136, "serialpos": 17, "key_press": -1, "wordID": 574, "type": "PRES_VIS", "trial_index": 72}, "uniqueid": "MTK1713:3WT783CTPCOPUJJ2JUPDBDIP5TGCBY", "dateTime": 1516129922970}, {"current_trial": 73, "trialdata": {"rt": -1, "trial_type": "single-stim", "stimulus": "", "internal_node_id": "0.0-55.0-0.0", "time_elapsed": 416456, "key_press": -1, "type": "PRE_RECALL_DELAY", "trial_index": 73}, "uniqueid": "MTK1713:3WT783CTPCOPUJJ2JUPDBDIP5TGCBY", "dateTime": 1516129925290}, {"current_trial": 74, "trialdata": {"rt": -1000, "trial_type": "single-audio", "stimulus": "/static/audio/400Hz.wav", "internal_node_id": "0.0-56.0", "time_elapsed": 416958, "key_press": -1, "type": "PRE_RECALL_ALERT", "trial_index": 74}, "uniqueid": "MTK1713:3WT783CTPCOPUJJ2JUPDBDIP5TGCBY", "dateTime": 1516129925792}, {"current_trial": 75, "trialdata": {"rt": [2609, 3741, 6861, 8465, 10609, 11749, 13621, 31156], "recwords": ["flashlight", "mammal", "compass", "wasp", "honey", "slope", "bucket", "bucket"], "key_times": [1010, 1197, 1273, 1345, 1533, 1773, 1845, 1989, 2093, 2229, 2609, 2873, 3001, 3185, 3293, 3413, 3489, 3741, 4293, 4409, 4493, 5401, 5529, 5669, 5785, 5969, 6057, 6241, 6313, 6361, 6565, 6861, 7965, 8049, 8181, 8265, 8465, 8997, 9017, 9105, 9273, 9557, 9681, 9805, 10145, 10253, 10389, 10449, 10609, 10945, 11014, 11338, 11377, 11509, 11749, 12449, 12573, 12701, 12813, 12929, 13066, 13621, 17405, 18553, 30236, 30384, 30556, 30664, 30780, 30856, 31156], "trial_type": "free-recall", "conditions": [18, 1200, "v", 18000], "internal_node_id": "0.0-57.0-0.0", "key_presses": [70, 76, 65, 83, 72, 76, 73, 71, 72, 84, 13, 77, 65, 77, 77, 65, 76, 13, 83, 73, 77, 8, 8, 8, 67, 79, 77, 80, 65, 83, 83, 13, 87, 65, 83, 80, 13, 72, 71, 79, 78, 8, 8, 8, 79, 78, 69, 89, 13, 83, 76, 79, 80, 69, 13, 66, 85, 67, 75, 69, 84, 13, 70, 8, 66, 85, 67, 75, 69, 84, 13], "trial": 1, "time_elapsed": 476961, "type": "FREE_RECALL", "trial_index": 75}, "uniqueid": "MTK1713:3WT783CTPCOPUJJ2JUPDBDIP5TGCBY", "dateTime": 1516129985797}, {"current_trial": 76, "trialdata": {"rt": 16703, "trial_type": "text", "internal_node_id": "0.0-58.0", "time_elapsed": 495667, "key_press": 13, "type": "INSTRUCTIONS", "trial_index": 76}, "uniqueid": "MTK1713:3WT783CTPCOPUJJ2JUPDBDIP5TGCBY", "dateTime": 1516130004501}, {"current_trial": 77, "trialdata": {"rt": [2669, 5220, 8312, 11044], "trial_type": "math-distractor", "key_times": [2137, 2269, 2669, 4864, 4953, 5220, 7793, 8117, 8312, 8320, 9581, 10729, 10801, 11044], "responses": ["13", "13", "17", "19"], "num2": [7, 1, 3, 7, 9], "num3": [5, 5, 9, 3, 9], "conditions": [12, 1600, "v", 12000], "internal_node_id": "0.0-59.0", "key_presses": [97, 99, 13, 97, 99, 13, 97, 103, 13, 110, 8, 97, 105, 13], "trial": 2, "time_elapsed": 508670, "type": "DISTRACTOR", "trial_index": 77, "num1": [1, 7, 5, 9, 5]}, "uniqueid": "MTK1713:3WT783CTPCOPUJJ2JUPDBDIP5TGCBY", "dateTime": 1516130017504}, {"current_trial": 78, "trialdata": {"rt": -1, "trial_type": "single-stim", "stimulus": "<p id=\"stim\">10</p>", "internal_node_id": "0.0-60.0-0.0", "time_elapsed": 511672, "key_press": -1, "trial_index": 78}, "uniqueid": "MTK1713:3WT783CTPCOPUJJ2JUPDBDIP5TGCBY", "dateTime": 1516130020506}, {"current_trial": 79, "trialdata": {"rt": -1, "trial_type": "single-stim", "stimulus": "<p id=\"stim\">9</p>", "internal_node_id": "0.0-60.0-1.0", "time_elapsed": 512673, "key_press": -1, "trial_index": 79}, "uniqueid": "MTK1713:3WT783CTPCOPUJJ2JUPDBDIP5TGCBY", "dateTime": 1516130021507}, {"current_trial": 80, "trialdata": {"rt": -1, "trial_type": "single-stim", "stimulus": "<p id=\"stim\">8</p>", "internal_node_id": "0.0-60.0-2.0", "time_elapsed": 513674, "key_press": -1, "trial_index": 80}, "uniqueid": "MTK1713:3WT783CTPCOPUJJ2JUPDBDIP5TGCBY", "dateTime": 1516130022508}, {"current_trial": 81, "trialdata": {"rt": -1, "trial_type": "single-stim", "stimulus": "<p id=\"stim\">7</p>", "internal_node_id": "0.0-60.0-3.0", "time_elapsed": 514675, "key_press": -1, "trial_index": 81}, "uniqueid": "MTK1713:3WT783CTPCOPUJJ2JUPDBDIP5TGCBY", "dateTime": 1516130023509}, {"current_trial": 82, "trialdata": {"rt": -1, "trial_type": "single-stim", "stimulus": "<p id=\"stim\">6</p>", "internal_node_id": "0.0-60.0-4.0", "time_elapsed": 515677, "key_press": -1, "trial_index": 82}, "uniqueid": "MTK1713:3WT783CTPCOPUJJ2JUPDBDIP5TGCBY", "dateTime": 1516130024511}, {"current_trial": 83, "trialdata": {"rt": -1, "trial_type": "single-stim", "stimulus": "<p id=\"stim\">5</p>", "internal_node_id": "0.0-60.0-5.0", "time_elapsed": 516678, "key_press": -1, "trial_index": 83}, "uniqueid": "MTK1713:3WT783CTPCOPUJJ2JUPDBDIP5TGCBY", "dateTime": 1516130025513}, {"current_trial": 84, "trialdata": {"rt": -1, "trial_type": "single-stim", "stimulus": "<p id=\"stim\">4</p>", "internal_node_id": "0.0-60.0-6.0", "time_elapsed": 517680, "key_press": -1, "trial_index": 84}, "uniqueid": "MTK1713:3WT783CTPCOPUJJ2JUPDBDIP5TGCBY", "dateTime": 1516130026514}, {"current_trial": 85, "trialdata": {"rt": -1, "trial_type": "single-stim", "stimulus": "<p id=\"stim\">3</p>", "internal_node_id": "0.0-60.0-7.0", "time_elapsed": 518681, "key_press": -1, "trial_index": 85}, "uniqueid": "MTK1713:3WT783CTPCOPUJJ2JUPDBDIP5TGCBY", "dateTime": 1516130027515}, {"current_trial": 86, "trialdata": {"rt": -1, "trial_type": "single-stim", "stimulus": "<p id=\"stim\">2</p>", "internal_node_id": "0.0-60.0-8.0", "time_elapsed": 519683, "key_press": -1, "trial_index": 86}, "uniqueid": "MTK1713:3WT783CTPCOPUJJ2JUPDBDIP5TGCBY", "dateTime": 1516130028517}, {"current_trial": 87, "trialdata": {"rt": -1, "trial_type": "single-stim", "stimulus": "<p id=\"stim\">1</p>", "internal_node_id": "0.0-60.0-9.0", "time_elapsed": 520684, "key_press": -1, "trial_index": 87}, "uniqueid": "MTK1713:3WT783CTPCOPUJJ2JUPDBDIP5TGCBY", "dateTime": 1516130029519}, {"current_trial": 88, "trialdata": {"rt": -1, "trial_type": "single-stim", "stimulus": "<p id=\"stim\">+</p>", "internal_node_id": "0.0-61.0-0.0", "time_elapsed": 522186, "key_press": -1, "type": "FIXATION", "trial_index": 88}, "uniqueid": "MTK1713:3WT783CTPCOPUJJ2JUPDBDIP5TGCBY", "dateTime": 1516130031020}, {"current_trial": 89, "trialdata": {"rt": -1, "trial_type": "single-stim", "word": "ankle", "stimulus": "<p id=\"stim\">ANKLE</p>", "conditions": [12, 1600, "v", 12000], "internal_node_id": "0.0-62.0", "trial": 2, "time_elapsed": 523788, "serialpos": 0, "key_press": -1, "wordID": 23, "type": "PRES_VIS", "trial_index": 89}, "uniqueid": "MTK1713:3WT783CTPCOPUJJ2JUPDBDIP5TGCBY", "dateTime": 1516130032622}, {"current_trial": 90, "trialdata": {"rt": -1, "trial_type": "single-stim", "word": "marsh", "stimulus": "<p id=\"stim\">MARSH</p>", "conditions": [12, 1600, "v", 12000], "internal_node_id": "0.0-63.0", "trial": 2, "time_elapsed": 526301, "serialpos": 1, "key_press": -1, "wordID": 873, "type": "PRES_VIS", "trial_index": 90}, "uniqueid": "MTK1713:3WT783CTPCOPUJJ2JUPDBDIP5TGCBY", "dateTime": 1516130035135}, {"current_trial": 91, "trialdata": {"rt": -1, "trial_type": "single-stim", "word": "washer", "stimulus": "<p id=\"stim\">WASHER</p>", "conditions": [12, 1600, "v", 12000], "internal_node_id": "0.0-64.0", "trial": 2, "time_elapsed": 528753, "serialpos": 2, "key_press": -1, "wordID": 1591, "type": "PRES_VIS", "trial_index": 91}, "uniqueid": "MTK1713:3WT783CTPCOPUJJ2JUPDBDIP5TGCBY", "dateTime": 1516130037587}, {"current_trial": 92, "trialdata": {"rt": -1, "trial_type": "single-stim", "word": "lava", "stimulus": "<p id=\"stim\">LAVA</p>", "conditions": [12, 1600, "v", 12000], "internal_node_id": "0.0-65.0", "trial": 2, "time_elapsed": 531310, "serialpos": 3, "key_press": -1, "wordID": 803, "type": "PRES_VIS", "trial_index": 92}, "uniqueid": "MTK1713:3WT783CTPCOPUJJ2JUPDBDIP5TGCBY", "dateTime": 1516130040144}, {"current_trial": 93, "trialdata": {"rt": -1, "trial_type": "single-stim", "word": "cocoon", "stimulus": "<p id=\"stim\">COCOON</p>", "conditions": [12, 1600, "v", 12000], "internal_node_id": "0.0-66.0", "trial": 2, "time_elapsed": 533870, "serialpos": 4, "key_press": -1, "wordID": 338, "type": "PRES_VIS", "trial_index": 93}, "uniqueid": "MTK1713:3WT783CTPCOPUJJ2JUPDBDIP5TGCBY", "dateTime": 1516130042704}, {"current_trial": 94, "trialdata": {"rt": -1, "trial_type": "single-stim", "word": "female", "stimulus": "<p id=\"stim\">FEMALE</p>", "conditions": [12, 1600, "v", 12000], "internal_node_id": "0.0-67.0", "trial": 2, "time_elapsed": 536380, "serialpos": 5, "key_press": -1, "wordID": 558, "type": "PRES_VIS", "trial_index": 94}, "uniqueid": "MTK1713:3WT783CTPCOPUJJ2JUPDBDIP5TGCBY", "dateTime": 1516130045214}, {"current_trial": 95, "trialdata": {"rt": -1, "trial_type": "single-stim", "word": "blouse", "stimulus": "<p id=\"stim\">BLOUSE</p>", "conditions": [12, 1600, "v", 12000], "internal_node_id": "0.0-68.0", "trial": 2, "time_elapsed": 538810, "serialpos": 6, "key_press": -1, "wordID": 138, "type": "PRES_VIS", "trial_index": 95}, "uniqueid": "MTK1713:3WT783CTPCOPUJJ2JUPDBDIP5TGCBY", "dateTime": 1516130047644}, {"current_trial": 96, "trialdata": {"rt": -1, "trial_type": "single-stim", "word": "robin", "stimulus": "<p id=\"stim\">ROBIN</p>", "conditions": [12, 1600, "v", 12000], "internal_node_id": "0.0-69.0", "trial": 2, "time_elapsed": 541481, "serialpos": 7, "key_press": -1, "wordID": 1198, "type": "PRES_VIS", "trial_index": 96}, "uniqueid": "MTK1713:3WT783CTPCOPUJJ2JUPDBDIP5TGCBY", "dateTime": 1516130050315}, {"current_trial": 97, "trialdata": {"rt": -1, "trial_type": "single-stim", "word": "banker", "stimulus": "<p id=\"stim\">BANKER</p>", "conditions": [12, 1600, "v", 12000], "internal_node_id": "0.0-70.0", "trial": 2, "time_elapsed": 544017, "serialpos": 8, "key_press": -1, "wordID": 83, "type": "PRES_VIS", "trial_index": 97}, "uniqueid": "MTK1713:3WT783CTPCOPUJJ2JUPDBDIP5TGCBY", "dateTime": 1516130052851}, {"current_trial": 98, "trialdata": {"rt": -1, "trial_type": "single-stim", "word": "bank", "stimulus": "<p id=\"stim\">BANK</p>", "conditions": [12, 1600, "v", 12000], "internal_node_id": "0.0-71.0", "trial": 2, "time_elapsed": 546562, "serialpos": 9, "key_press": -1, "wordID": 82, "type": "PRES_VIS", "trial_index": 98}, "uniqueid": "MTK1713:3WT783CTPCOPUJJ2JUPDBDIP5TGCBY", "dateTime": 1516130055396}, {"current_trial": 99, "trialdata": {"rt": -1, "trial_type": "single-stim", "word": "wrist", "stimulus": "<p id=\"stim\">WRIST</p>", "conditions": [12, 1600, "v", 12000], "internal_node_id": "0.0-72.0", "trial": 2, "time_elapsed": 549007, "serialpos": 10, "key_press": -1, "wordID": 1625, "type": "PRES_VIS", "trial_index": 99}, "uniqueid": "MTK1713:3WT783CTPCOPUJJ2JUPDBDIP5TGCBY", "dateTime": 1516130057841}, {"current_trial": 100, "trialdata": {"rt": -1, "trial_type": "single-stim", "word": "eagle", "stimulus": "<p id=\"stim\">EAGLE</p>", "conditions": [12, 1600, "v", 12000], "internal_node_id": "0.0-73.0", "trial": 2, "time_elapsed": 551530, "serialpos": 11, "key_press": -1, "wordID": 511, "type": "PRES_VIS", "trial_index": 100}, "uniqueid": "MTK1713:3WT783CTPCOPUJJ2JUPDBDIP5TGCBY", "dateTime": 1516130060364}, {"current_trial": 101, "trialdata": {"rt": -1, "trial_type": "single-stim", "stimulus": "", "internal_node_id": "0.0-74.0-0.0", "time_elapsed": 553773, "key_press": -1, "type": "PRE_RECALL_DELAY", "trial_index": 101}, "uniqueid": "MTK1713:3WT783CTPCOPUJJ2JUPDBDIP5TGCBY", "dateTime": 1516130062607}, {"current_trial": 102, "trialdata": {"rt": -1000, "trial_type": "single-audio", "stimulus": "/static/audio/400Hz.wav", "internal_node_id": "0.0-75.0", "time_elapsed": 554275, "key_press": -1, "type": "PRE_RECALL_ALERT", "trial_index": 102}, "uniqueid": "MTK1713:3WT783CTPCOPUJJ2JUPDBDIP5TGCBY", "dateTime": 1516130063109}, {"current_trial": 103, "trialdata": {"rt": [1880, 2763, 4607, 5671, 8455, 10915, 14139, 19223, 23863, 25471], "recwords": ["eagle", "washer", "wrist", "banker", "bank", "ankle", "washer", "marsh", "robin", "eagle"], "key_times": [1021, 1129, 1336, 1464, 1556, 1880, 2048, 2108, 2341, 2475, 2580, 2627, 2763, 3384, 3587, 4007, 4135, 4263, 4607, 5047, 5215, 5299, 5387, 5467, 5507, 5671, 5911, 6099, 6863, 7287, 8455, 8855, 8959, 9123, 9359, 9455, 10915, 12679, 12747, 12963, 13119, 13383, 13459, 14139, 18203, 18291, 18463, 18699, 18751, 19223, 23024, 23199, 23443, 23563, 23639, 23863, 24635, 24691, 24959, 25095, 25163, 25471], "trial_type": "free-recall", "conditions": [12, 1600, "v", 12000], "internal_node_id": "0.0-76.0-0.0", "key_presses": [69, 65, 71, 76, 69, 13, 87, 65, 83, 72, 69, 82, 13, 87, 82, 73, 83, 84, 13, 66, 65, 78, 75, 69, 82, 13, 66, 65, 78, 75, 13, 65, 78, 75, 76, 69, 13, 87, 65, 83, 72, 69, 82, 13, 77, 65, 82, 83, 72, 13, 82, 79, 66, 73, 78, 13, 69, 65, 71, 76, 69, 13], "trial": 2, "time_elapsed": 614278, "type": "FREE_RECALL", "trial_index": 103}, "uniqueid": "MTK1713:3WT783CTPCOPUJJ2JUPDBDIP5TGCBY", "dateTime": 1516130123114}, {"current_trial": 104, "trialdata": {"rt": 1123, "trial_type": "text", "internal_node_id": "0.0-77.0", "time_elapsed": 617405, "key_press": 13, "type": "INSTRUCTIONS", "trial_index": 104}, "uniqueid": "MTK1713:3WT783CTPCOPUJJ2JUPDBDIP5TGCBY", "dateTime": 1516130126239}, {"current_trial": 105, "trialdata": {"rt": [2121, 4273, 6241, 7802, 10782], "trial_type": "math-distractor", "key_times": [1666, 1898, 2121, 4054, 4273, 5882, 6002, 6241, 7610, 7802, 10282, 10582, 10782], "responses": ["14", "7", "15", "6", "15"], "num2": [2, 4, 4, 2, 7, 5], "num3": [3, 1, 6, 3, 5, 7], "conditions": [24, 800, "v", 12000], "internal_node_id": "0.0-78.0", "key_presses": [97, 100, 13, 103, 13, 97, 101, 13, 102, 13, 97, 101, 13], "trial": 3, "time_elapsed": 631409, "type": "DISTRACTOR", "trial_index": 105, "num1": [9, 2, 5, 1, 2, 2]}, "uniqueid": "MTK1713:3WT783CTPCOPUJJ2JUPDBDIP5TGCBY", "dateTime": 1516130140243}, {"current_trial": 106, "trialdata": {"rt": -1, "trial_type": "single-stim", "stimulus": "<p id=\"stim\">10</p>", "internal_node_id": "0.0-79.0-0.0", "time_elapsed": 634411, "key_press": -1, "trial_index": 106}, "uniqueid": "MTK1713:3WT783CTPCOPUJJ2JUPDBDIP5TGCBY", "dateTime": 1516130143245}, {"current_trial": 107, "trialdata": {"rt": -1, "trial_type": "single-stim", "stimulus": "<p id=\"stim\">9</p>", "internal_node_id": "0.0-79.0-1.0", "time_elapsed": 635413, "key_press": -1, "trial_index": 107}, "uniqueid": "MTK1713:3WT783CTPCOPUJJ2JUPDBDIP5TGCBY", "dateTime": 1516130144247}, {"current_trial": 108, "trialdata": {"rt": -1, "trial_type": "single-stim", "stimulus": "<p id=\"stim\">8</p>", "internal_node_id": "0.0-79.0-2.0", "time_elapsed": 636415, "key_press": -1, "trial_index": 108}, "uniqueid": "MTK1713:3WT783CTPCOPUJJ2JUPDBDIP5TGCBY", "dateTime": 1516130145249}, {"current_trial": 109, "trialdata": {"rt": -1, "trial_type": "single-stim", "stimulus": "<p id=\"stim\">7</p>", "internal_node_id": "0.0-79.0-3.0", "time_elapsed": 637416, "key_press": -1, "trial_index": 109}, "uniqueid": "MTK1713:3WT783CTPCOPUJJ2JUPDBDIP5TGCBY", "dateTime": 1516130146250}, {"current_trial": 110, "trialdata": {"rt": -1, "trial_type": "single-stim", "stimulus": "<p id=\"stim\">6</p>", "internal_node_id": "0.0-79.0-4.0", "time_elapsed": 638417, "key_press": -1, "trial_index": 110}, "uniqueid": "MTK1713:3WT783CTPCOPUJJ2JUPDBDIP5TGCBY", "dateTime": 1516130147251}, {"current_trial": 111, "trialdata": {"rt": -1, "trial_type": "single-stim", "stimulus": "<p id=\"stim\">5</p>", "internal_node_id": "0.0-79.0-5.0", "time_elapsed": 639419, "key_press": -1, "trial_index": 111}, "uniqueid": "MTK1713:3WT783CTPCOPUJJ2JUPDBDIP5TGCBY", "dateTime": 1516130148253}, {"current_trial": 112, "trialdata": {"rt": -1, "trial_type": "single-stim", "stimulus": "<p id=\"stim\">4</p>", "internal_node_id": "0.0-79.0-6.0", "time_elapsed": 640420, "key_press": -1, "trial_index": 112}, "uniqueid": "MTK1713:3WT783CTPCOPUJJ2JUPDBDIP5TGCBY", "dateTime": 1516130149254}, {"current_trial": 113, "trialdata": {"rt": -1, "trial_type": "single-stim", "stimulus": "<p id=\"stim\">3</p>", "internal_node_id": "0.0-79.0-7.0", "time_elapsed": 641421, "key_press": -1, "trial_index": 113}, "uniqueid": "MTK1713:3WT783CTPCOPUJJ2JUPDBDIP5TGCBY", "dateTime": 1516130150255}, {"current_trial": 114, "trialdata": {"rt": -1, "trial_type": "single-stim", "stimulus": "<p id=\"stim\">2</p>", "internal_node_id": "0.0-79.0-8.0", "time_elapsed": 642422, "key_press": -1, "trial_index": 114}, "uniqueid": "MTK1713:3WT783CTPCOPUJJ2JUPDBDIP5TGCBY", "dateTime": 1516130151256}, {"current_trial": 115, "trialdata": {"rt": -1, "trial_type": "single-stim", "stimulus": "<p id=\"stim\">1</p>", "internal_node_id": "0.0-79.0-9.0", "time_elapsed": 643423, "key_press": -1, "trial_index": 115}, "uniqueid": "MTK1713:3WT783CTPCOPUJJ2JUPDBDIP5TGCBY", "dateTime": 1516130152257}, {"current_trial": 116, "trialdata": {"rt": -1, "trial_type": "single-stim", "stimulus": "<p id=\"stim\">+</p>", "internal_node_id": "0.0-80.0-0.0", "time_elapsed": 644925, "key_press": -1, "type": "FIXATION", "trial_index": 116}, "uniqueid": "MTK1713:3WT783CTPCOPUJJ2JUPDBDIP5TGCBY", "dateTime": 1516130153759}, {"current_trial": 117, "trialdata": {"rt": -1, "trial_type": "single-stim", "word": "stream", "stimulus": "<p id=\"stim\">STREAM</p>", "conditions": [24, 800, "v", 12000], "internal_node_id": "0.0-81.0", "trial": 3, "time_elapsed": 645726, "serialpos": 0, "key_press": -1, "wordID": 1391, "type": "PRES_VIS", "trial_index": 117}, "uniqueid": "MTK1713:3WT783CTPCOPUJJ2JUPDBDIP5TGCBY", "dateTime": 1516130154560}, {"current_trial": 118, "trialdata": {"rt": -1, "trial_type": "single-stim", "word": "blackboard", "stimulus": "<p id=\"stim\">BLACKBOARD</p>", "conditions": [24, 800, "v", 12000], "internal_node_id": "0.0-82.0", "trial": 3, "time_elapsed": 647410, "serialpos": 1, "key_press": -1, "wordID": 132, "type": "PRES_VIS", "trial_index": 118}, "uniqueid": "MTK1713:3WT783CTPCOPUJJ2JUPDBDIP5TGCBY", "dateTime": 1516130156244}, {"current_trial": 119, "trialdata": {"rt": -1, "trial_type": "single-stim", "word": "cod", "stimulus": "<p id=\"stim\">COD</p>", "conditions": [24, 800, "v", 12000], "internal_node_id": "0.0-83.0", "trial": 3, "time_elapsed": 649111, "serialpos": 2, "key_press": -1, "wordID": 339, "type": "PRES_VIS", "trial_index": 119}, "uniqueid": "MTK1713:3WT783CTPCOPUJJ2JUPDBDIP5TGCBY", "dateTime": 1516130157945}, {"current_trial": 120, "trialdata": {"rt": -1, "trial_type": "single-stim", "word": "permit", "stimulus": "<p id=\"stim\">PERMIT</p>", "conditions": [24, 800, "v", 12000], "internal_node_id": "0.0-84.0", "trial": 3, "time_elapsed": 650911, "serialpos": 3, "key_press": -1, "wordID": 1050, "type": "PRES_VIS", "trial_index": 120}, "uniqueid": "MTK1713:3WT783CTPCOPUJJ2JUPDBDIP5TGCBY", "dateTime": 1516130159745}, {"current_trial": 121, "trialdata": {"rt": -1, "trial_type": "single-stim", "word": "outlaw", "stimulus": "<p id=\"stim\">OUTLAW</p>", "conditions": [24, 800, "v", 12000], "internal_node_id": "0.0-85.0", "trial": 3, "time_elapsed": 652721, "serialpos": 4, "key_press": -1, "wordID": 988, "type": "PRES_VIS", "trial_index": 121}, "uniqueid": "MTK1713:3WT783CTPCOPUJJ2JUPDBDIP5TGCBY", "dateTime": 1516130161555}, {"current_trial": 122, "trialdata": {"rt": -1, "trial_type": "single-stim", "word": "salmon", "stimulus": "<p id=\"stim\">SALMON</p>", "conditions": [24, 800, "v", 12000], "internal_node_id": "0.0-86.0", "trial": 3, "time_elapsed": 654509, "serialpos": 5, "key_press": -1, "wordID": 1226, "type": "PRES_VIS", "trial_index": 122}, "uniqueid": "MTK1713:3WT783CTPCOPUJJ2JUPDBDIP5TGCBY", "dateTime": 1516130163343}, {"current_trial": 123, "trialdata": {"rt": -1, "trial_type": "single-stim", "word": "stomach", "stimulus": "<p id=\"stim\">STOMACH</p>", "conditions": [24, 800, "v", 12000], "internal_node_id": "0.0-87.0", "trial": 3, "time_elapsed": 656211, "serialpos": 6, "key_press": -1, "wordID": 1383, "type": "PRES_VIS", "trial_index": 123}, "uniqueid": "MTK1713:3WT783CTPCOPUJJ2JUPDBDIP5TGCBY", "dateTime": 1516130165045}, {"current_trial": 124, "trialdata": {"rt": -1, "trial_type": "single-stim", "word": "lady", "stimulus": "<p id=\"stim\">LADY</p>", "conditions": [24, 800, "v", 12000], "internal_node_id": "0.0-88.0", "trial": 3, "time_elapsed": 658142, "serialpos": 7, "key_press": -1, "wordID": 793, "type": "PRES_VIS", "trial_index": 124}, "uniqueid": "MTK1713:3WT783CTPCOPUJJ2JUPDBDIP5TGCBY", "dateTime": 1516130166976}, {"current_trial": 125, "trialdata": {"rt": -1, "trial_type": "single-stim", "word": "valley", "stimulus": "<p id=\"stim\">VALLEY</p>", "conditions": [24, 800, "v", 12000], "internal_node_id": "0.0-89.0", "trial": 3, "time_elapsed": 660095, "serialpos": 8, "key_press": -1, "wordID": 1544, "type": "PRES_VIS", "trial_index": 125}, "uniqueid": "MTK1713:3WT783CTPCOPUJJ2JUPDBDIP5TGCBY", "dateTime": 1516130168929}, {"current_trial": 126, "trialdata": {"rt": -1, "trial_type": "single-stim", "word": "swimmer", "stimulus": "<p id=\"stim\">SWIMMER</p>", "conditions": [24, 800, "v", 12000], "internal_node_id": "0.0-90.0", "trial": 3, "time_elapsed": 662046, "serialpos": 9, "key_press": -1, "wordID": 1419, "type": "PRES_VIS", "trial_index": 126}, "uniqueid": "MTK1713:3WT783CTPCOPUJJ2JUPDBDIP5TGCBY", "dateTime": 1516130170880}, {"current_trial": 127, "trialdata": {"rt": -1, "trial_type": "single-stim", "word": "pork", "stimulus": "<p id=\"stim\">PORK</p>", "conditions": [24, 800, "v", 12000], "internal_node_id": "0.0-91.0", "trial": 3, "time_elapsed": 663887, "serialpos": 10, "key_press": -1, "wordID": 1107, "type": "PRES_VIS", "trial_index": 127}, "uniqueid": "MTK1713:3WT783CTPCOPUJJ2JUPDBDIP5TGCBY", "dateTime": 1516130172721}, {"current_trial": 128, "trialdata": {"rt": -1, "trial_type": "single-stim", "word": "seafood", "stimulus": "<p id=\"stim\">SEAFOOD</p>", "conditions": [24, 800, "v", 12000], "internal_node_id": "0.0-92.0", "trial": 3, "time_elapsed": 665713, "serialpos": 11, "key_press": -1, "wordID": 1259, "type": "PRES_VIS", "trial_index": 128}, "uniqueid": "MTK1713:3WT783CTPCOPUJJ2JUPDBDIP5TGCBY", "dateTime": 1516130174547}, {"current_trial": 129, "trialdata": {"rt": -1, "trial_type": "single-stim", "word": "tablet", "stimulus": "<p id=\"stim\">TABLET</p>", "conditions": [24, 800, "v", 12000], "internal_node_id": "0.0-93.0", "trial": 3, "time_elapsed": 667415, "serialpos": 12, "key_press": -1, "wordID": 1426, "type": "PRES_VIS", "trial_index": 129}, "uniqueid": "MTK1713:3WT783CTPCOPUJJ2JUPDBDIP5TGCBY", "dateTime": 1516130176250}, {"current_trial": 130, "trialdata": {"rt": -1, "trial_type": "single-stim", "word": "typist", "stimulus": "<p id=\"stim\">TYPIST</p>", "conditions": [24, 800, "v", 12000], "internal_node_id": "0.0-94.0", "trial": 3, "time_elapsed": 669187, "serialpos": 13, "key_press": -1, "wordID": 1531, "type": "PRES_VIS", "trial_index": 130}, "uniqueid": "MTK1713:3WT783CTPCOPUJJ2JUPDBDIP5TGCBY", "dateTime": 1516130178021}, {"current_trial": 131, "trialdata": {"rt": -1, "trial_type": "single-stim", "word": "scallop", "stimulus": "<p id=\"stim\">SCALLOP</p>", "conditions": [24, 800, "v", 12000], "internal_node_id": "0.0-95.0", "trial": 3, "time_elapsed": 671026, "serialpos": 14, "key_press": -1, "wordID": 1241, "type": "PRES_VIS", "trial_index": 131}, "uniqueid": "MTK1713:3WT783CTPCOPUJJ2JUPDBDIP5TGCBY", "dateTime": 1516130179860}, {"current_trial": 132, "trialdata": {"rt": -1, "trial_type": "single-stim", "word": "cyclone", "stimulus": "<p id=\"stim\">CYCLONE</p>", "conditions": [24, 800, "v", 12000], "internal_node_id": "0.0-96.0", "trial": 3, "time_elapsed": 672663, "serialpos": 15, "key_press": -1, "wordID": 430, "type": "PRES_VIS", "trial_index": 132}, "uniqueid": "MTK1713:3WT783CTPCOPUJJ2JUPDBDIP5TGCBY", "dateTime": 1516130181497}, {"current_trial": 133, "trialdata": {"rt": -1, "trial_type": "single-stim", "word": "island", "stimulus": "<p id=\"stim\">ISLAND</p>", "conditions": [24, 800, "v", 12000], "internal_node_id": "0.0-97.0", "trial": 3, "time_elapsed": 674486, "serialpos": 16, "key_press": -1, "wordID": 744, "type": "PRES_VIS", "trial_index": 133}, "uniqueid": "MTK1713:3WT783CTPCOPUJJ2JUPDBDIP5TGCBY", "dateTime": 1516130183320}, {"current_trial": 134, "trialdata": {"rt": -1, "trial_type": "single-stim", "word": "sketch", "stimulus": "<p id=\"stim\">SKETCH</p>", "conditions": [24, 800, "v", 12000], "internal_node_id": "0.0-98.0", "trial": 3, "time_elapsed": 676346, "serialpos": 17, "key_press": -1, "wordID": 1314, "type": "PRES_VIS", "trial_index": 134}, "uniqueid": "MTK1713:3WT783CTPCOPUJJ2JUPDBDIP5TGCBY", "dateTime": 1516130185180}, {"current_trial": 135, "trialdata": {"rt": -1, "trial_type": "single-stim", "word": "puppy", "stimulus": "<p id=\"stim\">PUPPY</p>", "conditions": [24, 800, "v", 12000], "internal_node_id": "0.0-99.0", "trial": 3, "time_elapsed": 678282, "serialpos": 18, "key_press": -1, "wordID": 1143, "type": "PRES_VIS", "trial_index": 135}, "uniqueid": "MTK1713:3WT783CTPCOPUJJ2JUPDBDIP5TGCBY", "dateTime": 1516130187116}, {"current_trial": 136, "trialdata": {"rt": -1, "trial_type": "single-stim", "word": "patrol", "stimulus": "<p id=\"stim\">PATROL</p>", "conditions": [24, 800, "v", 12000], "internal_node_id": "0.0-100.0", "trial": 3, "time_elapsed": 679917, "serialpos": 19, "key_press": -1, "wordID": 1026, "type": "PRES_VIS", "trial_index": 136}, "uniqueid": "MTK1713:3WT783CTPCOPUJJ2JUPDBDIP5TGCBY", "dateTime": 1516130188751}, {"current_trial": 137, "trialdata": {"rt": -1, "trial_type": "single-stim", "word": "chemist", "stimulus": "<p id=\"stim\">CHEMIST</p>", "conditions": [24, 800, "v", 12000], "internal_node_id": "0.0-101.0", "trial": 3, "time_elapsed": 681615, "serialpos": 20, "key_press": -1, "wordID": 291, "type": "PRES_VIS", "trial_index": 137}, "uniqueid": "MTK1713:3WT783CTPCOPUJJ2JUPDBDIP5TGCBY", "dateTime": 1516130190449}, {"current_trial": 138, "trialdata": {"rt": -1, "trial_type": "single-stim", "word": "oyster", "stimulus": "<p id=\"stim\">OYSTER</p>", "conditions": [24, 800, "v", 12000], "internal_node_id": "0.0-102.0", "trial": 3, "time_elapsed": 683385, "serialpos": 21, "key_press": -1, "wordID": 994, "type": "PRES_VIS", "trial_index": 138}, "uniqueid": "MTK1713:3WT783CTPCOPUJJ2JUPDBDIP5TGCBY", "dateTime": 1516130192219}, {"current_trial": 139, "trialdata": {"rt": -1, "trial_type": "single-stim", "word": "college", "stimulus": "<p id=\"stim\">COLLEGE</p>", "conditions": [24, 800, "v", 12000], "internal_node_id": "0.0-103.0", "trial": 3, "time_elapsed": 685317, "serialpos": 22, "key_press": -1, "wordID": 345, "type": "PRES_VIS", "trial_index": 139}, "uniqueid": "MTK1713:3WT783CTPCOPUJJ2JUPDBDIP5TGCBY", "dateTime": 1516130194152}, {"current_trial": 140, "trialdata": {"rt": -1, "trial_type": "single-stim", "word": "student", "stimulus": "<p id=\"stim\">STUDENT</p>", "conditions": [24, 800, "v", 12000], "internal_node_id": "0.0-104.0", "trial": 3, "time_elapsed": 687104, "serialpos": 23, "key_press": -1, "wordID": 1394, "type": "PRES_VIS", "trial_index": 140}, "uniqueid": "MTK1713:3WT783CTPCOPUJJ2JUPDBDIP5TGCBY", "dateTime": 1516130195938}, {"current_trial": 141, "trialdata": {"rt": -1, "trial_type": "single-stim", "stimulus": "", "internal_node_id": "0.0-105.0-0.0", "time_elapsed": 689296, "key_press": -1, "type": "PRE_RECALL_DELAY", "trial_index": 141}, "uniqueid": "MTK1713:3WT783CTPCOPUJJ2JUPDBDIP5TGCBY", "dateTime": 1516130198131}, {"current_trial": 142, "trialdata": {"rt": -1000, "trial_type": "single-audio", "stimulus": "/static/audio/400Hz.wav", "internal_node_id": "0.0-106.0", "time_elapsed": 689798, "key_press": -1, "type": "PRE_RECALL_ALERT", "trial_index": 142}, "uniqueid": "MTK1713:3WT783CTPCOPUJJ2JUPDBDIP5TGCBY", "dateTime": 1516130198632}, {"current_trial": 143, "trialdata": {"rt": [1782, 2978, 4070, 6806, 11182, 12262, 13421, 14757, 16133, 19129, 24037, 47464], "recwords": ["college", "student", "beaker", "chemist", "puppy", "stream", "sketch", "cod", "seafood", "scallop", "pork", "salmon"], "key_times": [859, 1050, 1246, 1366, 1434, 1594, 1674, 1782, 2022, 2258, 2454, 2542, 2610, 2710, 2826, 2978, 3434, 3522, 3578, 3714, 3794, 3870, 4070, 4354, 4470, 4598, 4746, 4806, 4906, 5050, 6806, 10262, 10562, 10774, 10902, 10978, 11182, 11330, 11522, 11706, 11762, 11790, 11906, 12262, 12558, 12654, 12762, 12878, 13101, 13177, 13421, 13737, 14014, 14094, 14757, 14965, 15185, 15257, 15401, 15669, 15817, 15905, 16133, 16317, 16473, 16553, 16641, 16786, 16873, 16977, 17425, 17565, 17773, 18505, 19129, 23254, 23309, 23453, 23533, 24037, 41961, 42212, 42316, 42457, 42633, 42809, 42900, 43232, 43344, 46540, 46624, 46728, 46812, 47024, 47104, 47464], "trial_type": "free-recall", "conditions": [24, 800, "v", 12000], "internal_node_id": "0.0-107.0-0.0", "key_presses": [67, 79, 76, 76, 69, 71, 69, 13, 83, 84, 85, 68, 69, 78, 84, 13, 66, 69, 65, 75, 69, 82, 13, 67, 72, 69, 77, 73, 83, 84, 13, 80, 85, 80, 80, 89, 13, 83, 84, 82, 69, 65, 77, 13, 83, 75, 69, 84, 67, 72, 13, 67, 79, 68, 13, 83, 69, 65, 70, 79, 79, 68, 13, 83, 67, 65, 76, 76, 80, 219, 8, 8, 79, 80, 13, 80, 79, 82, 75, 13, 83, 69, 65, 70, 80, 80, 68, 17, 8, 83, 65, 76, 77, 79, 78, 13], "trial": 3, "time_elapsed": 749802, "type": "FREE_RECALL", "trial_index": 143}, "uniqueid": "MTK1713:3WT783CTPCOPUJJ2JUPDBDIP5TGCBY", "dateTime": 1516130258639}, {"current_trial": 144, "trialdata": {"rt": 915, "trial_type": "text", "internal_node_id": "0.0-108.0", "time_elapsed": 752720, "key_press": 13, "type": "INSTRUCTIONS", "trial_index": 144}, "uniqueid": "MTK1713:3WT783CTPCOPUJJ2JUPDBDIP5TGCBY", "dateTime": 1516130261554}, {"current_trial": 145, "trialdata": {"rt": [2192, 4589, 6377, 9148, 11339], "trial_type": "math-distractor", "key_times": [1965, 2192, 4353, 4589, 5929, 6208, 6377, 8784, 8964, 9148, 10972, 11196, 11339], "responses": ["8", "8", "10", "20", "15"], "num2": [1, 5, 3, 7, 1, 2], "num3": [3, 2, 1, 7, 8, 9], "conditions": [12, 800, "v", 12000], "internal_node_id": "0.0-109.0", "key_presses": [104, 13, 104, 13, 97, 96, 13, 98, 96, 13, 97, 101, 13], "trial": 4, "time_elapsed": 766724, "type": "DISTRACTOR", "trial_index": 145, "num1": [4, 1, 6, 6, 6, 4]}, "uniqueid": "MTK1713:3WT783CTPCOPUJJ2JUPDBDIP5TGCBY", "dateTime": 1516130275559}, {"current_trial": 146, "trialdata": {"rt": -1, "trial_type": "single-stim", "stimulus": "<p id=\"stim\">10</p>", "internal_node_id": "0.0-110.0-0.0", "time_elapsed": 769726, "key_press": -1, "trial_index": 146}, "uniqueid": "MTK1713:3WT783CTPCOPUJJ2JUPDBDIP5TGCBY", "dateTime": 1516130278560}, {"current_trial": 147, "trialdata": {"rt": -1, "trial_type": "single-stim", "stimulus": "<p id=\"stim\">9</p>", "internal_node_id": "0.0-110.0-1.0", "time_elapsed": 770728, "key_press": -1, "trial_index": 147}, "uniqueid": "MTK1713:3WT783CTPCOPUJJ2JUPDBDIP5TGCBY", "dateTime": 1516130279562}, {"current_trial": 148, "trialdata": {"rt": -1, "trial_type": "single-stim", "stimulus": "<p id=\"stim\">8</p>", "internal_node_id": "0.0-110.0-2.0", "time_elapsed": 771730, "key_press": -1, "trial_index": 148}, "uniqueid": "MTK1713:3WT783CTPCOPUJJ2JUPDBDIP5TGCBY", "dateTime": 1516130280564}, {"current_trial": 149, "trialdata": {"rt": -1, "trial_type": "single-stim", "stimulus": "<p id=\"stim\">7</p>", "internal_node_id": "0.0-110.0-3.0", "time_elapsed": 772731, "key_press": -1, "trial_index": 149}, "uniqueid": "MTK1713:3WT783CTPCOPUJJ2JUPDBDIP5TGCBY", "dateTime": 1516130281565}, {"current_trial": 150, "trialdata": {"rt": -1, "trial_type": "single-stim", "stimulus": "<p id=\"stim\">6</p>", "internal_node_id": "0.0-110.0-4.0", "time_elapsed": 773732, "key_press": -1, "trial_index": 150}, "uniqueid": "MTK1713:3WT783CTPCOPUJJ2JUPDBDIP5TGCBY", "dateTime": 1516130282567}, {"current_trial": 151, "trialdata": {"rt": -1, "trial_type": "single-stim", "stimulus": "<p id=\"stim\">5</p>", "internal_node_id": "0.0-110.0-5.0", "time_elapsed": 774734, "key_press": -1, "trial_index": 151}, "uniqueid": "MTK1713:3WT783CTPCOPUJJ2JUPDBDIP5TGCBY", "dateTime": 1516130283568}, {"current_trial": 152, "trialdata": {"rt": -1, "trial_type": "single-stim", "stimulus": "<p id=\"stim\">4</p>", "internal_node_id": "0.0-110.0-6.0", "time_elapsed": 775735, "key_press": -1, "trial_index": 152}, "uniqueid": "MTK1713:3WT783CTPCOPUJJ2JUPDBDIP5TGCBY", "dateTime": 1516130284569}, {"current_trial": 153, "trialdata": {"rt": -1, "trial_type": "single-stim", "stimulus": "<p id=\"stim\">3</p>", "internal_node_id": "0.0-110.0-7.0", "time_elapsed": 776736, "key_press": -1, "trial_index": 153}, "uniqueid": "MTK1713:3WT783CTPCOPUJJ2JUPDBDIP5TGCBY", "dateTime": 1516130285570}, {"current_trial": 154, "trialdata": {"rt": -1, "trial_type": "single-stim", "stimulus": "<p id=\"stim\">2</p>", "internal_node_id": "0.0-110.0-8.0", "time_elapsed": 777737, "key_press": -1, "trial_index": 154}, "uniqueid": "MTK1713:3WT783CTPCOPUJJ2JUPDBDIP5TGCBY", "dateTime": 1516130286571}, {"current_trial": 155, "trialdata": {"rt": -1, "trial_type": "single-stim", "stimulus": "<p id=\"stim\">1</p>", "internal_node_id": "0.0-110.0-9.0", "time_elapsed": 778738, "key_press": -1, "trial_index": 155}, "uniqueid": "MTK1713:3WT783CTPCOPUJJ2JUPDBDIP5TGCBY", "dateTime": 1516130287572}, {"current_trial": 156, "trialdata": {"rt": -1, "trial_type": "single-stim", "stimulus": "<p id=\"stim\">+</p>", "internal_node_id": "0.0-111.0-0.0", "time_elapsed": 780239, "key_press": -1, "type": "FIXATION", "trial_index": 156}, "uniqueid": "MTK1713:3WT783CTPCOPUJJ2JUPDBDIP5TGCBY", "dateTime": 1516130289073}, {"current_trial": 157, "trialdata": {"rt": -1, "trial_type": "single-stim", "word": "tombstone", "stimulus": "<p id=\"stim\">TOMBSTONE</p>", "conditions": [12, 800, "v", 12000], "internal_node_id": "0.0-112.0", "trial": 4, "time_elapsed": 781040, "serialpos": 0, "key_press": -1, "wordID": 1477, "type": "PRES_VIS", "trial_index": 157}, "uniqueid": "MTK1713:3WT783CTPCOPUJJ2JUPDBDIP5TGCBY", "dateTime": 1516130289874}, {"current_trial": 158, "trialdata": {"rt": -1, "trial_type": "single-stim", "word": "orange", "stimulus": "<p id=\"stim\">ORANGE</p>", "conditions": [12, 800, "v", 12000], "internal_node_id": "0.0-113.0", "trial": 4, "time_elapsed": 783038, "serialpos": 1, "key_press": -1, "wordID": 979, "type": "PRES_VIS", "trial_index": 158}, "uniqueid": "MTK1713:3WT783CTPCOPUJJ2JUPDBDIP5TGCBY", "dateTime": 1516130291872}, {"current_trial": 159, "trialdata": {"rt": -1, "trial_type": "single-stim", "word": "suitcase", "stimulus": "<p id=\"stim\">SUITCASE</p>", "conditions": [12, 800, "v", 12000], "internal_node_id": "0.0-114.0", "trial": 4, "time_elapsed": 784905, "serialpos": 2, "key_press": -1, "wordID": 1402, "type": "PRES_VIS", "trial_index": 159}, "uniqueid": "MTK1713:3WT783CTPCOPUJJ2JUPDBDIP5TGCBY", "dateTime": 1516130293739}, {"current_trial": 160, "trialdata": {"rt": -1, "trial_type": "single-stim", "word": "knapsack", "stimulus": "<p id=\"stim\">KNAPSACK</p>", "conditions": [12, 800, "v", 12000], "internal_node_id": "0.0-115.0", "trial": 4, "time_elapsed": 786798, "serialpos": 3, "key_press": -1, "wordID": 782, "type": "PRES_VIS", "trial_index": 160}, "uniqueid": "MTK1713:3WT783CTPCOPUJJ2JUPDBDIP5TGCBY", "dateTime": 1516130295632}, {"current_trial": 161, "trialdata": {"rt": -1, "trial_type": "single-stim", "word": "cashier", "stimulus": "<p id=\"stim\">CASHIER</p>", "conditions": [12, 800, "v", 12000], "internal_node_id": "0.0-116.0", "trial": 4, "time_elapsed": 788719, "serialpos": 4, "key_press": -1, "wordID": 253, "type": "PRES_VIS", "trial_index": 161}, "uniqueid": "MTK1713:3WT783CTPCOPUJJ2JUPDBDIP5TGCBY", "dateTime": 1516130297553}, {"current_trial": 162, "trialdata": {"rt": -1, "trial_type": "single-stim", "word": "nightgown", "stimulus": "<p id=\"stim\">NIGHTGOWN</p>", "conditions": [12, 800, "v", 12000], "internal_node_id": "0.0-117.0", "trial": 4, "time_elapsed": 790323, "serialpos": 5, "key_press": -1, "wordID": 952, "type": "PRES_VIS", "trial_index": 162}, "uniqueid": "MTK1713:3WT783CTPCOPUJJ2JUPDBDIP5TGCBY", "dateTime": 1516130299157}, {"current_trial": 163, "trialdata": {"rt": -1, "trial_type": "single-stim", "word": "pistol", "stimulus": "<p id=\"stim\">PISTOL</p>", "conditions": [12, 800, "v", 12000], "internal_node_id": "0.0-118.0", "trial": 4, "time_elapsed": 792175, "serialpos": 6, "key_press": -1, "wordID": 1074, "type": "PRES_VIS", "trial_index": 163}, "uniqueid": "MTK1713:3WT783CTPCOPUJJ2JUPDBDIP5TGCBY", "dateTime": 1516130301010}, {"current_trial": 164, "trialdata": {"rt": -1, "trial_type": "single-stim", "word": "sculpture", "stimulus": "<p id=\"stim\">SCULPTURE</p>", "conditions": [12, 800, "v", 12000], "internal_node_id": "0.0-119.0", "trial": 4, "time_elapsed": 793949, "serialpos": 7, "key_press": -1, "wordID": 1257, "type": "PRES_VIS", "trial_index": 164}, "uniqueid": "MTK1713:3WT783CTPCOPUJJ2JUPDBDIP5TGCBY", "dateTime": 1516130302783}, {"current_trial": 165, "trialdata": {"rt": -1, "trial_type": "single-stim", "word": "waitress", "stimulus": "<p id=\"stim\">WAITRESS</p>", "conditions": [12, 800, "v", 12000], "internal_node_id": "0.0-120.0", "trial": 4, "time_elapsed": 795602, "serialpos": 8, "key_press": -1, "wordID": 1580, "type": "PRES_VIS", "trial_index": 165}, "uniqueid": "MTK1713:3WT783CTPCOPUJJ2JUPDBDIP5TGCBY", "dateTime": 1516130304436}, {"current_trial": 166, "trialdata": {"rt": -1, "trial_type": "single-stim", "word": "garbage", "stimulus": "<p id=\"stim\">GARBAGE</p>", "conditions": [12, 800, "v", 12000], "internal_node_id": "0.0-121.0", "trial": 4, "time_elapsed": 797487, "serialpos": 9, "key_press": -1, "wordID": 621, "type": "PRES_VIS", "trial_index": 166}, "uniqueid": "MTK1713:3WT783CTPCOPUJJ2JUPDBDIP5TGCBY", "dateTime": 1516130306321}, {"current_trial": 167, "trialdata": {"rt": -1, "trial_type": "single-stim", "word": "baby", "stimulus": "<p id=\"stim\">BABY</p>", "conditions": [12, 800, "v", 12000], "internal_node_id": "0.0-122.0", "trial": 4, "time_elapsed": 799165, "serialpos": 10, "key_press": -1, "wordID": 63, "type": "PRES_VIS", "trial_index": 167}, "uniqueid": "MTK1713:3WT783CTPCOPUJJ2JUPDBDIP5TGCBY", "dateTime": 1516130307999}, {"current_trial": 168, "trialdata": {"rt": -1, "trial_type": "single-stim", "word": "record", "stimulus": "<p id=\"stim\">RECORD</p>", "conditions": [12, 800, "v", 12000], "internal_node_id": "0.0-123.0", "trial": 4, "time_elapsed": 801010, "serialpos": 11, "key_press": -1, "wordID": 1175, "type": "PRES_VIS", "trial_index": 168}, "uniqueid": "MTK1713:3WT783CTPCOPUJJ2JUPDBDIP5TGCBY", "dateTime": 1516130309844}, {"current_trial": 169, "trialdata": {"rt": -1, "trial_type": "single-stim", "stimulus": "", "internal_node_id": "0.0-124.0-0.0", "time_elapsed": 803219, "key_press": -1, "type": "PRE_RECALL_DELAY", "trial_index": 169}, "uniqueid": "MTK1713:3WT783CTPCOPUJJ2JUPDBDIP5TGCBY", "dateTime": 1516130312053}, {"current_trial": 170, "trialdata": {"rt": -1000, "trial_type": "single-audio", "stimulus": "/static/audio/400Hz.wav", "internal_node_id": "0.0-125.0", "time_elapsed": 803720, "key_press": -1, "type": "PRE_RECALL_ALERT", "trial_index": 170}, "uniqueid": "MTK1713:3WT783CTPCOPUJJ2JUPDBDIP5TGCBY", "dateTime": 1516130312554}, {"current_trial": 171, "trialdata": {"rt": [1600, 2868, 4928, 7172, 9524, 13852, 29895], "recwords": ["baby", "record", "backpack", "pistol", "knapsack", "baby", "nightgown"], "key_times": [957, 1069, 1172, 1196, 1600, 1980, 2072, 2265, 2376, 2493, 2705, 2868, 4157, 4236, 4317, 4377, 4577, 4645, 4712, 4800, 4928, 6024, 6193, 6292, 6597, 6677, 6740, 6820, 7049, 7172, 7809, 7892, 8013, 8137, 8421, 8492, 8672, 8761, 9524, 13289, 13400, 13460, 13500, 13852, 27164, 27248, 27371, 27483, 27611, 27851, 27964, 28087, 28151, 29895], "trial_type": "free-recall", "conditions": [12, 800, "v", 12000], "internal_node_id": "0.0-126.0-0.0", "key_presses": [66, 65, 66, 89, 13, 82, 69, 67, 79, 82, 68, 13, 66, 65, 67, 75, 80, 65, 67, 75, 13, 80, 73, 84, 8, 83, 84, 79, 76, 13, 75, 78, 65, 80, 83, 65, 67, 75, 13, 66, 65, 66, 89, 13, 78, 73, 71, 72, 84, 71, 79, 87, 78, 13], "trial": 4, "time_elapsed": 863722, "type": "FREE_RECALL", "trial_index": 171}, "uniqueid": "MTK1713:3WT783CTPCOPUJJ2JUPDBDIP5TGCBY", "dateTime": 1516130372560}, {"current_trial": 172, "trialdata": {"rt": 1045, "trial_type": "text", "internal_node_id": "0.0-127.0", "time_elapsed": 866771, "key_press": 13, "type": "INSTRUCTIONS", "trial_index": 172}, "uniqueid": "MTK1713:3WT783CTPCOPUJJ2JUPDBDIP5TGCBY", "dateTime": 1516130375605}, {"current_trial": 173, "trialdata": {"rt": [3589, 6433, 9468, 11528], "trial_type": "math-distractor", "key_times": [2374, 3381, 3589, 5502, 5573, 6433, 7566, 7777, 9325, 9468, 10989, 11284, 11528], "responses": ["17", "21", "8", "17"], "num2": [7, 7, 2, 7, 4], "num3": [4, 6, 4, 8, 4], "conditions": [12, 800, "v", 12000], "internal_node_id": "0.0-128.0", "key_presses": [97, 103, 13, 98, 97, 13, 97, 96, 104, 13, 97, 103, 13], "trial": 5, "time_elapsed": 880774, "type": "DISTRACTOR", "trial_index": 173, "num1": [6, 8, 2, 2, 1]}, "uniqueid": "MTK1713:3WT783CTPCOPUJJ2JUPDBDIP5TGCBY", "dateTime": 1516130389609}, {"current_trial": 174, "trialdata": {"rt": -1, "trial_type": "single-stim", "stimulus": "<p id=\"stim\">10</p>", "internal_node_id": "0.0-129.0-0.0", "time_elapsed": 883776, "key_press": -1, "trial_index": 174}, "uniqueid": "MTK1713:3WT783CTPCOPUJJ2JUPDBDIP5TGCBY", "dateTime": 1516130392610}, {"current_trial": 175, "trialdata": {"rt": -1, "trial_type": "single-stim", "stimulus": "<p id=\"stim\">9</p>", "internal_node_id": "0.0-129.0-1.0", "time_elapsed": 884778, "key_press": -1, "trial_index": 175}, "uniqueid": "MTK1713:3WT783CTPCOPUJJ2JUPDBDIP5TGCBY", "dateTime": 1516130393612}, {"current_trial": 176, "trialdata": {"rt": -1, "trial_type": "single-stim", "stimulus": "<p id=\"stim\">8</p>", "internal_node_id": "0.0-129.0-2.0", "time_elapsed": 885779, "key_press": -1, "trial_index": 176}, "uniqueid": "MTK1713:3WT783CTPCOPUJJ2JUPDBDIP5TGCBY", "dateTime": 1516130394613}, {"current_trial": 177, "trialdata": {"rt": -1, "trial_type": "single-stim", "stimulus": "<p id=\"stim\">7</p>", "internal_node_id": "0.0-129.0-3.0", "time_elapsed": 886780, "key_press": -1, "trial_index": 177}, "uniqueid": "MTK1713:3WT783CTPCOPUJJ2JUPDBDIP5TGCBY", "dateTime": 1516130395614}, {"current_trial": 178, "trialdata": {"rt": -1, "trial_type": "single-stim", "stimulus": "<p id=\"stim\">6</p>", "internal_node_id": "0.0-129.0-4.0", "time_elapsed": 887782, "key_press": -1, "trial_index": 178}, "uniqueid": "MTK1713:3WT783CTPCOPUJJ2JUPDBDIP5TGCBY", "dateTime": 1516130396616}, {"current_trial": 179, "trialdata": {"rt": -1, "trial_type": "single-stim", "stimulus": "<p id=\"stim\">5</p>", "internal_node_id": "0.0-129.0-5.0", "time_elapsed": 888784, "key_press": -1, "trial_index": 179}, "uniqueid": "MTK1713:3WT783CTPCOPUJJ2JUPDBDIP5TGCBY", "dateTime": 1516130397618}, {"current_trial": 180, "trialdata": {"rt": -1, "trial_type": "single-stim", "stimulus": "<p id=\"stim\">4</p>", "internal_node_id": "0.0-129.0-6.0", "time_elapsed": 889785, "key_press": -1, "trial_index": 180}, "uniqueid": "MTK1713:3WT783CTPCOPUJJ2JUPDBDIP5TGCBY", "dateTime": 1516130398619}, {"current_trial": 181, "trialdata": {"rt": -1, "trial_type": "single-stim", "stimulus": "<p id=\"stim\">3</p>", "internal_node_id": "0.0-129.0-7.0", "time_elapsed": 890787, "key_press": -1, "trial_index": 181}, "uniqueid": "MTK1713:3WT783CTPCOPUJJ2JUPDBDIP5TGCBY", "dateTime": 1516130399621}, {"current_trial": 182, "trialdata": {"rt": -1, "trial_type": "single-stim", "stimulus": "<p id=\"stim\">2</p>", "internal_node_id": "0.0-129.0-8.0", "time_elapsed": 891788, "key_press": -1, "trial_index": 182}, "uniqueid": "MTK1713:3WT783CTPCOPUJJ2JUPDBDIP5TGCBY", "dateTime": 1516130400622}, {"current_trial": 183, "trialdata": {"rt": -1, "trial_type": "single-stim", "stimulus": "<p id=\"stim\">1</p>", "internal_node_id": "0.0-129.0-9.0", "time_elapsed": 892790, "key_press": -1, "trial_index": 183}, "uniqueid": "MTK1713:3WT783CTPCOPUJJ2JUPDBDIP5TGCBY", "dateTime": 1516130401624}, {"current_trial": 184, "trialdata": {"rt": -1, "trial_type": "single-stim", "stimulus": "<p id=\"stim\">+</p>", "internal_node_id": "0.0-130.0-0.0", "time_elapsed": 894293, "key_press": -1, "type": "FIXATION", "trial_index": 184}, "uniqueid": "MTK1713:3WT783CTPCOPUJJ2JUPDBDIP5TGCBY", "dateTime": 1516130403127}, {"current_trial": 185, "trialdata": {"rt": -1, "trial_type": "single-stim", "word": "braces", "stimulus": "<p id=\"stim\">BRACES</p>", "conditions": [12, 800, "v", 12000], "internal_node_id": "0.0-131.0", "trial": 5, "time_elapsed": 895095, "serialpos": 0, "key_press": -1, "wordID": 163, "type": "PRES_VIS", "trial_index": 185}, "uniqueid": "MTK1713:3WT783CTPCOPUJJ2JUPDBDIP5TGCBY", "dateTime": 1516130403929}, {"current_trial": 186, "trialdata": {"rt": -1, "trial_type": "single-stim", "word": "lily", "stimulus": "<p id=\"stim\">LILY</p>", "conditions": [12, 800, "v", 12000], "internal_node_id": "0.0-132.0", "trial": 5, "time_elapsed": 896783, "serialpos": 1, "key_press": -1, "wordID": 820, "type": "PRES_VIS", "trial_index": 186}, "uniqueid": "MTK1713:3WT783CTPCOPUJJ2JUPDBDIP5TGCBY", "dateTime": 1516130405617}, {"current_trial": 187, "trialdata": {"rt": -1, "trial_type": "single-stim", "word": "clam", "stimulus": "<p id=\"stim\">CLAM</p>", "conditions": [12, 800, "v", 12000], "internal_node_id": "0.0-133.0", "trial": 5, "time_elapsed": 898480, "serialpos": 2, "key_press": -1, "wordID": 314, "type": "PRES_VIS", "trial_index": 187}, "uniqueid": "MTK1713:3WT783CTPCOPUJJ2JUPDBDIP5TGCBY", "dateTime": 1516130407314}, {"current_trial": 188, "trialdata": {"rt": -1, "trial_type": "single-stim", "word": "cricket", "stimulus": "<p id=\"stim\">CRICKET</p>", "conditions": [12, 800, "v", 12000], "internal_node_id": "0.0-134.0", "trial": 5, "time_elapsed": 900418, "serialpos": 3, "key_press": -1, "wordID": 407, "type": "PRES_VIS", "trial_index": 188}, "uniqueid": "MTK1713:3WT783CTPCOPUJJ2JUPDBDIP5TGCBY", "dateTime": 1516130409252}, {"current_trial": 189, "trialdata": {"rt": -1, "trial_type": "single-stim", "word": "river", "stimulus": "<p id=\"stim\">RIVER</p>", "conditions": [12, 800, "v", 12000], "internal_node_id": "0.0-135.0", "trial": 5, "time_elapsed": 902109, "serialpos": 4, "key_press": -1, "wordID": 1193, "type": "PRES_VIS", "trial_index": 189}, "uniqueid": "MTK1713:3WT783CTPCOPUJJ2JUPDBDIP5TGCBY", "dateTime": 1516130410943}, {"current_trial": 190, "trialdata": {"rt": -1, "trial_type": "single-stim", "word": "doughnut", "stimulus": "<p id=\"stim\">DOUGHNUT</p>", "conditions": [12, 800, "v", 12000], "internal_node_id": "0.0-136.0", "trial": 5, "time_elapsed": 903877, "serialpos": 5, "key_press": -1, "wordID": 489, "type": "PRES_VIS", "trial_index": 190}, "uniqueid": "MTK1713:3WT783CTPCOPUJJ2JUPDBDIP5TGCBY", "dateTime": 1516130412711}, {"current_trial": 191, "trialdata": {"rt": -1, "trial_type": "single-stim", "word": "pecan", "stimulus": "<p id=\"stim\">PECAN</p>", "conditions": [12, 800, "v", 12000], "internal_node_id": "0.0-137.0", "trial": 5, "time_elapsed": 905791, "serialpos": 6, "key_press": -1, "wordID": 1035, "type": "PRES_VIS", "trial_index": 191}, "uniqueid": "MTK1713:3WT783CTPCOPUJJ2JUPDBDIP5TGCBY", "dateTime": 1516130414626}, {"current_trial": 192, "trialdata": {"rt": -1, "trial_type": "single-stim", "word": "rebel", "stimulus": "<p id=\"stim\">REBEL</p>", "conditions": [12, 800, "v", 12000], "internal_node_id": "0.0-138.0", "trial": 5, "time_elapsed": 907394, "serialpos": 7, "key_press": -1, "wordID": 1171, "type": "PRES_VIS", "trial_index": 192}, "uniqueid": "MTK1713:3WT783CTPCOPUJJ2JUPDBDIP5TGCBY", "dateTime": 1516130416228}, {"current_trial": 193, "trialdata": {"rt": -1, "trial_type": "single-stim", "word": "brook", "stimulus": "<p id=\"stim\">BROOK</p>", "conditions": [12, 800, "v", 12000], "internal_node_id": "0.0-139.0", "trial": 5, "time_elapsed": 909375, "serialpos": 8, "key_press": -1, "wordID": 176, "type": "PRES_VIS", "trial_index": 193}, "uniqueid": "MTK1713:3WT783CTPCOPUJJ2JUPDBDIP5TGCBY", "dateTime": 1516130418209}, {"current_trial": 194, "trialdata": {"rt": -1, "trial_type": "single-stim", "word": "sticker", "stimulus": "<p id=\"stim\">STICKER</p>", "conditions": [12, 800, "v", 12000], "internal_node_id": "0.0-140.0", "trial": 5, "time_elapsed": 911077, "serialpos": 9, "key_press": -1, "wordID": 1381, "type": "PRES_VIS", "trial_index": 194}, "uniqueid": "MTK1713:3WT783CTPCOPUJJ2JUPDBDIP5TGCBY", "dateTime": 1516130419911}, {"current_trial": 195, "trialdata": {"rt": -1, "trial_type": "single-stim", "word": "badge", "stimulus": "<p id=\"stim\">BADGE</p>", "conditions": [12, 800, "v", 12000], "internal_node_id": "0.0-141.0", "trial": 5, "time_elapsed": 912713, "serialpos": 10, "key_press": -1, "wordID": 67, "type": "PRES_VIS", "trial_index": 195}, "uniqueid": "MTK1713:3WT783CTPCOPUJJ2JUPDBDIP5TGCBY", "dateTime": 1516130421547}, {"current_trial": 196, "trialdata": {"rt": -1, "trial_type": "single-stim", "word": "trout", "stimulus": "<p id=\"stim\">TROUT</p>", "conditions": [12, 800, "v", 12000], "internal_node_id": "0.0-142.0", "trial": 5, "time_elapsed": 914522, "serialpos": 11, "key_press": -1, "wordID": 1510, "type": "PRES_VIS", "trial_index": 196}, "uniqueid": "MTK1713:3WT783CTPCOPUJJ2JUPDBDIP5TGCBY", "dateTime": 1516130423356}, {"current_trial": 197, "trialdata": {"rt": -1, "trial_type": "single-stim", "stimulus": "", "internal_node_id": "0.0-143.0-0.0", "time_elapsed": 916819, "key_press": -1, "type": "PRE_RECALL_DELAY", "trial_index": 197}, "uniqueid": "MTK1713:3WT783CTPCOPUJJ2JUPDBDIP5TGCBY", "dateTime": 1516130425654}, {"current_trial": 198, "trialdata": {"rt": -1000, "trial_type": "single-audio", "stimulus": "/static/audio/400Hz.wav", "internal_node_id": "0.0-144.0", "time_elapsed": 917321, "key_press": -1, "type": "PRE_RECALL_ALERT", "trial_index": 198}, "uniqueid": "MTK1713:3WT783CTPCOPUJJ2JUPDBDIP5TGCBY", "dateTime": 1516130426155}, {"current_trial": 199, "trialdata": {"rt": [1493, 2345, 3169, 5001, 6977, 8573, 16529], "recwords": ["trout", "sticker", "river", "clam", "pecan", "rebel", "badge"], "key_times": [822, 906, 1158, 1246, 1338, 1493, 1621, 1722, 1862, 1986, 2094, 2177, 2241, 2345, 2465, 2598, 2754, 2934, 3023, 3169, 3302, 3401, 3462, 3574, 5001, 5518, 5606, 5778, 5850, 5974, 6977, 7149, 7254, 7502, 7646, 7770, 8573, 15398, 15586, 15649, 15897, 15977, 16529], "trial_type": "free-recall", "conditions": [12, 800, "v", 12000], "internal_node_id": "0.0-145.0-0.0", "key_presses": [84, 82, 79, 85, 84, 13, 83, 84, 73, 67, 75, 69, 82, 13, 82, 73, 86, 69, 82, 13, 67, 76, 65, 77, 13, 80, 69, 67, 65, 78, 13, 82, 69, 66, 69, 76, 13, 66, 65, 68, 71, 69, 13], "trial": 5, "time_elapsed": 977325, "type": "FREE_RECALL", "trial_index": 199}, "uniqueid": "MTK1713:3WT783CTPCOPUJJ2JUPDBDIP5TGCBY", "dateTime": 1516130486162}, {"current_trial": 200, "trialdata": {"rt": 3109, "trial_type": "text", "internal_node_id": "0.0-146.0", "time_elapsed": 982438, "key_press": 13, "type": "INSTRUCTIONS", "trial_index": 200}, "uniqueid": "MTK1713:3WT783CTPCOPUJJ2JUPDBDIP5TGCBY", "dateTime": 1516130491273}, {"current_trial": 201, "trialdata": {"rt": [3034, 4550, 7826], "trial_type": "math-distractor", "key_times": [2783, 2890, 3034, 4354, 4426, 4550, 7407, 7767, 7826, 11445, 11601], "responses": ["15", "12", "18"], "num2": [3, 6, 3, 9], "num3": [5, 4, 7, 7], "conditions": [12, 1600, "v", 12000], "internal_node_id": "0.0-147.0", "key_presses": [97, 101, 13, 97, 98, 13, 97, 104, 13, 98, 98], "trial": 6, "time_elapsed": 996441, "type": "DISTRACTOR", "trial_index": 201, "num1": [7, 2, 8, 5]}, "uniqueid": "MTK1713:3WT783CTPCOPUJJ2JUPDBDIP5TGCBY", "dateTime": 1516130505276}, {"current_trial": 202, "trialdata": {"rt": -1, "trial_type": "single-stim", "stimulus": "<p id=\"stim\">10</p>", "internal_node_id": "0.0-148.0-0.0", "time_elapsed": 999444, "key_press": -1, "trial_index": 202}, "uniqueid": "MTK1713:3WT783CTPCOPUJJ2JUPDBDIP5TGCBY", "dateTime": 1516130508278}, {"current_trial": 203, "trialdata": {"rt": -1, "trial_type": "single-stim", "stimulus": "<p id=\"stim\">9</p>", "internal_node_id": "0.0-148.0-1.0", "time_elapsed": 1000445, "key_press": -1, "trial_index": 203}, "uniqueid": "MTK1713:3WT783CTPCOPUJJ2JUPDBDIP5TGCBY", "dateTime": 1516130509279}, {"current_trial": 204, "trialdata": {"rt": -1, "trial_type": "single-stim", "stimulus": "<p id=\"stim\">8</p>", "internal_node_id": "0.0-148.0-2.0", "time_elapsed": 1001447, "key_press": -1, "trial_index": 204}, "uniqueid": "MTK1713:3WT783CTPCOPUJJ2JUPDBDIP5TGCBY", "dateTime": 1516130510281}, {"current_trial": 205, "trialdata": {"rt": -1, "trial_type": "single-stim", "stimulus": "<p id=\"stim\">7</p>", "internal_node_id": "0.0-148.0-3.0", "time_elapsed": 1002449, "key_press": -1, "trial_index": 205}, "uniqueid": "MTK1713:3WT783CTPCOPUJJ2JUPDBDIP5TGCBY", "dateTime": 1516130511283}, {"current_trial": 206, "trialdata": {"rt": -1, "trial_type": "single-stim", "stimulus": "<p id=\"stim\">6</p>", "internal_node_id": "0.0-148.0-4.0", "time_elapsed": 1003450, "key_press": -1, "trial_index": 206}, "uniqueid": "MTK1713:3WT783CTPCOPUJJ2JUPDBDIP5TGCBY", "dateTime": 1516130512284}, {"current_trial": 207, "trialdata": {"rt": -1, "trial_type": "single-stim", "stimulus": "<p id=\"stim\">5</p>", "internal_node_id": "0.0-148.0-5.0", "time_elapsed": 1004451, "key_press": -1, "trial_index": 207}, "uniqueid": "MTK1713:3WT783CTPCOPUJJ2JUPDBDIP5TGCBY", "dateTime": 1516130513285}, {"current_trial": 208, "trialdata": {"rt": -1, "trial_type": "single-stim", "stimulus": "<p id=\"stim\">4</p>", "internal_node_id": "0.0-148.0-6.0", "time_elapsed": 1005453, "key_press": -1, "trial_index": 208}, "uniqueid": "MTK1713:3WT783CTPCOPUJJ2JUPDBDIP5TGCBY", "dateTime": 1516130514287}, {"current_trial": 209, "trialdata": {"rt": -1, "trial_type": "single-stim", "stimulus": "<p id=\"stim\">3</p>", "internal_node_id": "0.0-148.0-7.0", "time_elapsed": 1006455, "key_press": -1, "trial_index": 209}, "uniqueid": "MTK1713:3WT783CTPCOPUJJ2JUPDBDIP5TGCBY", "dateTime": 1516130515289}, {"current_trial": 210, "trialdata": {"rt": -1, "trial_type": "single-stim", "stimulus": "<p id=\"stim\">2</p>", "internal_node_id": "0.0-148.0-8.0", "time_elapsed": 1007456, "key_press": -1, "trial_index": 210}, "uniqueid": "MTK1713:3WT783CTPCOPUJJ2JUPDBDIP5TGCBY", "dateTime": 1516130516290}, {"current_trial": 211, "trialdata": {"rt": -1, "trial_type": "single-stim", "stimulus": "<p id=\"stim\">1</p>", "internal_node_id": "0.0-148.0-9.0", "time_elapsed": 1008458, "key_press": -1, "trial_index": 211}, "uniqueid": "MTK1713:3WT783CTPCOPUJJ2JUPDBDIP5TGCBY", "dateTime": 1516130517292}, {"current_trial": 212, "trialdata": {"rt": -1, "trial_type": "single-stim", "stimulus": "<p id=\"stim\">+</p>", "internal_node_id": "0.0-149.0-0.0", "time_elapsed": 1009960, "key_press": -1, "type": "FIXATION", "trial_index": 212}, "uniqueid": "MTK1713:3WT783CTPCOPUJJ2JUPDBDIP5TGCBY", "dateTime": 1516130518794}, {"current_trial": 213, "trialdata": {"rt": -1, "trial_type": "single-stim", "word": "forehead", "stimulus": "<p id=\"stim\">FOREHEAD</p>", "conditions": [12, 1600, "v", 12000], "internal_node_id": "0.0-150.0", "trial": 6, "time_elapsed": 1011561, "serialpos": 0, "key_press": -1, "wordID": 591, "type": "PRES_VIS", "trial_index": 213}, "uniqueid": "MTK1713:3WT783CTPCOPUJJ2JUPDBDIP5TGCBY", "dateTime": 1516130520395}, {"current_trial": 214, "trialdata": {"rt": -1, "trial_type": "single-stim", "word": "egypt", "stimulus": "<p id=\"stim\">EGYPT</p>", "conditions": [12, 1600, "v", 12000], "internal_node_id": "0.0-151.0", "trial": 6, "time_elapsed": 1014248, "serialpos": 1, "key_press": -1, "wordID": 518, "type": "PRES_VIS", "trial_index": 214}, "uniqueid": "MTK1713:3WT783CTPCOPUJJ2JUPDBDIP5TGCBY", "dateTime": 1516130523083}, {"current_trial": 215, "trialdata": {"rt": -1, "trial_type": "single-stim", "word": "sparrow", "stimulus": "<p id=\"stim\">SPARROW</p>", "conditions": [12, 1600, "v", 12000], "internal_node_id": "0.0-152.0", "trial": 6, "time_elapsed": 1016879, "serialpos": 2, "key_press": -1, "wordID": 1346, "type": "PRES_VIS", "trial_index": 215}, "uniqueid": "MTK1713:3WT783CTPCOPUJJ2JUPDBDIP5TGCBY", "dateTime": 1516130525713}, {"current_trial": 216, "trialdata": {"rt": -1, "trial_type": "single-stim", "word": "chest", "stimulus": "<p id=\"stim\">CHEST</p>", "conditions": [12, 1600, "v", 12000], "internal_node_id": "0.0-153.0", "trial": 6, "time_elapsed": 1019346, "serialpos": 3, "key_press": -1, "wordID": 294, "type": "PRES_VIS", "trial_index": 216}, "uniqueid": "MTK1713:3WT783CTPCOPUJJ2JUPDBDIP5TGCBY", "dateTime": 1516130528180}, {"current_trial": 217, "trialdata": {"rt": -1, "trial_type": "single-stim", "word": "dragon", "stimulus": "<p id=\"stim\">DRAGON</p>", "conditions": [12, 1600, "v", 12000], "internal_node_id": "0.0-154.0", "trial": 6, "time_elapsed": 1022025, "serialpos": 4, "key_press": -1, "wordID": 491, "type": "PRES_VIS", "trial_index": 217}, "uniqueid": "MTK1713:3WT783CTPCOPUJJ2JUPDBDIP5TGCBY", "dateTime": 1516130530859}, {"current_trial": 218, "trialdata": {"rt": -1, "trial_type": "single-stim", "word": "expert", "stimulus": "<p id=\"stim\">EXPERT</p>", "conditions": [12, 1600, "v", 12000], "internal_node_id": "0.0-155.0", "trial": 6, "time_elapsed": 1024607, "serialpos": 5, "key_press": -1, "wordID": 542, "type": "PRES_VIS", "trial_index": 218}, "uniqueid": "MTK1713:3WT783CTPCOPUJJ2JUPDBDIP5TGCBY", "dateTime": 1516130533442}, {"current_trial": 219, "trialdata": {"rt": -1, "trial_type": "single-stim", "word": "kleenex", "stimulus": "<p id=\"stim\">KLEENEX</p>", "conditions": [12, 1600, "v", 12000], "internal_node_id": "0.0-156.0", "trial": 6, "time_elapsed": 1027222, "serialpos": 6, "key_press": -1, "wordID": 781, "type": "PRES_VIS", "trial_index": 219}, "uniqueid": "MTK1713:3WT783CTPCOPUJJ2JUPDBDIP5TGCBY", "dateTime": 1516130536056}, {"current_trial": 220, "trialdata": {"rt": -1, "trial_type": "single-stim", "word": "quarter", "stimulus": "<p id=\"stim\">QUARTER</p>", "conditions": [12, 1600, "v", 12000], "internal_node_id": "0.0-157.0", "trial": 6, "time_elapsed": 1029914, "serialpos": 7, "key_press": -1, "wordID": 1147, "type": "PRES_VIS", "trial_index": 220}, "uniqueid": "MTK1713:3WT783CTPCOPUJJ2JUPDBDIP5TGCBY", "dateTime": 1516130538748}, {"current_trial": 221, "trialdata": {"rt": -1, "trial_type": "single-stim", "word": "headband", "stimulus": "<p id=\"stim\">HEADBAND</p>", "conditions": [12, 1600, "v", 12000], "internal_node_id": "0.0-158.0", "trial": 6, "time_elapsed": 1032549, "serialpos": 8, "key_press": -1, "wordID": 695, "type": "PRES_VIS", "trial_index": 221}, "uniqueid": "MTK1713:3WT783CTPCOPUJJ2JUPDBDIP5TGCBY", "dateTime": 1516130541383}, {"current_trial": 222, "trialdata": {"rt": -1, "trial_type": "single-stim", "word": "shirt", "stimulus": "<p id=\"stim\">SHIRT</p>", "conditions": [12, 1600, "v", 12000], "internal_node_id": "0.0-159.0", "trial": 6, "time_elapsed": 1035276, "serialpos": 9, "key_press": -1, "wordID": 1286, "type": "PRES_VIS", "trial_index": 222}, "uniqueid": "MTK1713:3WT783CTPCOPUJJ2JUPDBDIP5TGCBY", "dateTime": 1516130544110}, {"current_trial": 223, "trialdata": {"rt": -1, "trial_type": "single-stim", "word": "poet", "stimulus": "<p id=\"stim\">POET</p>", "conditions": [12, 1600, "v", 12000], "internal_node_id": "0.0-160.0", "trial": 6, "time_elapsed": 1037961, "serialpos": 10, "key_press": -1, "wordID": 1094, "type": "PRES_VIS", "trial_index": 223}, "uniqueid": "MTK1713:3WT783CTPCOPUJJ2JUPDBDIP5TGCBY", "dateTime": 1516130546796}, {"current_trial": 224, "trialdata": {"rt": -1, "trial_type": "single-stim", "word": "rooster", "stimulus": "<p id=\"stim\">ROOSTER</p>", "conditions": [12, 1600, "v", 12000], "internal_node_id": "0.0-161.0", "trial": 6, "time_elapsed": 1040651, "serialpos": 11, "key_press": -1, "wordID": 1208, "type": "PRES_VIS", "trial_index": 224}, "uniqueid": "MTK1713:3WT783CTPCOPUJJ2JUPDBDIP5TGCBY", "dateTime": 1516130549486}, {"current_trial": 225, "trialdata": {"rt": -1, "trial_type": "single-stim", "stimulus": "", "internal_node_id": "0.0-162.0-0.0", "time_elapsed": 1043202, "key_press": -1, "type": "PRE_RECALL_DELAY", "trial_index": 225}, "uniqueid": "MTK1713:3WT783CTPCOPUJJ2JUPDBDIP5TGCBY", "dateTime": 1516130552036}, {"current_trial": 226, "trialdata": {"rt": -1000, "trial_type": "single-audio", "stimulus": "/static/audio/400Hz.wav", "internal_node_id": "0.0-163.0", "time_elapsed": 1043703, "key_press": -1, "type": "PRE_RECALL_ALERT", "trial_index": 226}, "uniqueid": "MTK1713:3WT783CTPCOPUJJ2JUPDBDIP5TGCBY", "dateTime": 1516130552537}, {"current_trial": 227, "trialdata": {"rt": [1955, 3319, 4547, 6531, 7907, 9923, 18822, 31250, 36945], "recwords": ["rooster", "sparrow", "egypt", "headband", "forehead", "chest", "quarter", "chest", "kleenex"], "key_times": [1236, 1359, 1487, 1555, 1648, 1791, 1879, 1955, 2091, 2223, 2307, 2735, 2863, 2963, 3035, 3319, 3535, 3807, 4099, 4299, 4391, 4547, 5599, 5663, 5735, 5851, 5983, 6055, 6163, 6295, 6531, 7075, 7187, 7283, 7363, 7471, 7571, 7635, 7775, 7907, 8387, 8519, 8567, 8679, 8935, 9923, 17806, 17934, 18078, 18110, 18354, 18470, 18530, 18822, 30102, 30226, 30290, 30366, 30518, 31250, 36022, 36130, 36222, 36414, 36550, 36634, 36846, 36945], "trial_type": "free-recall", "conditions": [12, 1600, "v", 12000], "internal_node_id": "0.0-164.0-0.0", "key_presses": [82, 79, 79, 83, 84, 69, 82, 13, 83, 80, 65, 82, 82, 79, 87, 13, 69, 71, 89, 80, 84, 13, 72, 69, 65, 68, 66, 65, 78, 68, 13, 70, 79, 82, 69, 72, 69, 65, 68, 13, 67, 72, 69, 83, 84, 13, 81, 85, 65, 82, 84, 69, 82, 13, 67, 72, 69, 83, 84, 13, 75, 76, 69, 69, 78, 69, 88, 13], "trial": 6, "time_elapsed": 1103706, "type": "FREE_RECALL", "trial_index": 227}, "uniqueid": "MTK1713:3WT783CTPCOPUJJ2JUPDBDIP5TGCBY", "dateTime": 1516130612545}, {"current_trial": 228, "trialdata": {"rt": 2054, "trial_type": "text", "internal_node_id": "0.0-165.0", "time_elapsed": 1107765, "key_press": 13, "type": "INSTRUCTIONS", "trial_index": 228}, "uniqueid": "MTK1713:3WT783CTPCOPUJJ2JUPDBDIP5TGCBY", "dateTime": 1516130616599}, {"current_trial": 229, "trialdata": {"rt": [2968, 5700, 7976, 9976, 11644, 13512, 14884, 17384, 20808], "trial_type": "math-distractor", "key_times": [1706, 1997, 2968, 5277, 5453, 5700, 7629, 7801, 7976, 9429, 9749, 9976, 11089, 11432, 11644, 12953, 13276, 13512, 14361, 14605, 14884, 16129, 16737, 17085, 17384, 18889, 20621, 20808], "responses": ["13", "22", "11", "19", "14", "19", "16", "9", "17"], "num2": [3, 9, 6, 9, 4, 9, 4, 6, 8, 8], "num3": [2, 9, 4, 1, 2, 5, 6, 2, 2, 6], "conditions": [12, 1600, "v", 24000], "internal_node_id": "0.0-166.0", "key_presses": [97, 99, 13, 98, 98, 13, 97, 97, 13, 97, 105, 13, 97, 100, 13, 97, 105, 13, 97, 102, 13, 97, 8, 105, 13, 97, 103, 13], "trial": 7, "time_elapsed": 1133769, "type": "DISTRACTOR", "trial_index": 229, "num1": [8, 3, 1, 9, 8, 5, 6, 1, 7, 7]}, "uniqueid": "MTK1713:3WT783CTPCOPUJJ2JUPDBDIP5TGCBY", "dateTime": 1516130642603}, {"current_trial": 230, "trialdata": {"rt": -1, "trial_type": "single-stim", "stimulus": "<p id=\"stim\">10</p>", "internal_node_id": "0.0-167.0-0.0", "time_elapsed": 1136771, "key_press": -1, "trial_index": 230}, "uniqueid": "MTK1713:3WT783CTPCOPUJJ2JUPDBDIP5TGCBY", "dateTime": 1516130645605}, {"current_trial": 231, "trialdata": {"rt": -1, "trial_type": "single-stim", "stimulus": "<p id=\"stim\">9</p>", "internal_node_id": "0.0-167.0-1.0", "time_elapsed": 1137773, "key_press": -1, "trial_index": 231}, "uniqueid": "MTK1713:3WT783CTPCOPUJJ2JUPDBDIP5TGCBY", "dateTime": 1516130646607}, {"current_trial": 232, "trialdata": {"rt": -1, "trial_type": "single-stim", "stimulus": "<p id=\"stim\">8</p>", "internal_node_id": "0.0-167.0-2.0", "time_elapsed": 1138774, "key_press": -1, "trial_index": 232}, "uniqueid": "MTK1713:3WT783CTPCOPUJJ2JUPDBDIP5TGCBY", "dateTime": 1516130647608}, {"current_trial": 233, "trialdata": {"rt": -1, "trial_type": "single-stim", "stimulus": "<p id=\"stim\">7</p>", "internal_node_id": "0.0-167.0-3.0", "time_elapsed": 1139776, "key_press": -1, "trial_index": 233}, "uniqueid": "MTK1713:3WT783CTPCOPUJJ2JUPDBDIP5TGCBY", "dateTime": 1516130648610}, {"current_trial": 234, "trialdata": {"rt": -1, "trial_type": "single-stim", "stimulus": "<p id=\"stim\">6</p>", "internal_node_id": "0.0-167.0-4.0", "time_elapsed": 1140777, "key_press": -1, "trial_index": 234}, "uniqueid": "MTK1713:3WT783CTPCOPUJJ2JUPDBDIP5TGCBY", "dateTime": 1516130649611}, {"current_trial": 235, "trialdata": {"rt": -1, "trial_type": "single-stim", "stimulus": "<p id=\"stim\">5</p>", "internal_node_id": "0.0-167.0-5.0", "time_elapsed": 1141778, "key_press": -1, "trial_index": 235}, "uniqueid": "MTK1713:3WT783CTPCOPUJJ2JUPDBDIP5TGCBY", "dateTime": 1516130650612}, {"current_trial": 236, "trialdata": {"rt": -1, "trial_type": "single-stim", "stimulus": "<p id=\"stim\">4</p>", "internal_node_id": "0.0-167.0-6.0", "time_elapsed": 1142780, "key_press": -1, "trial_index": 236}, "uniqueid": "MTK1713:3WT783CTPCOPUJJ2JUPDBDIP5TGCBY", "dateTime": 1516130651614}, {"current_trial": 237, "trialdata": {"rt": -1, "trial_type": "single-stim", "stimulus": "<p id=\"stim\">3</p>", "internal_node_id": "0.0-167.0-7.0", "time_elapsed": 1143781, "key_press": -1, "trial_index": 237}, "uniqueid": "MTK1713:3WT783CTPCOPUJJ2JUPDBDIP5TGCBY", "dateTime": 1516130652615}, {"current_trial": 238, "trialdata": {"rt": -1, "trial_type": "single-stim", "stimulus": "<p id=\"stim\">2</p>", "internal_node_id": "0.0-167.0-8.0", "time_elapsed": 1144783, "key_press": -1, "trial_index": 238}, "uniqueid": "MTK1713:3WT783CTPCOPUJJ2JUPDBDIP5TGCBY", "dateTime": 1516130653618}, {"current_trial": 239, "trialdata": {"rt": -1, "trial_type": "single-stim", "stimulus": "<p id=\"stim\">1</p>", "internal_node_id": "0.0-167.0-9.0", "time_elapsed": 1145785, "key_press": -1, "trial_index": 239}, "uniqueid": "MTK1713:3WT783CTPCOPUJJ2JUPDBDIP5TGCBY", "dateTime": 1516130654619}, {"current_trial": 240, "trialdata": {"rt": -1, "trial_type": "single-stim", "stimulus": "<p id=\"stim\">+</p>", "internal_node_id": "0.0-168.0-0.0", "time_elapsed": 1147287, "key_press": -1, "type": "FIXATION", "trial_index": 240}, "uniqueid": "MTK1713:3WT783CTPCOPUJJ2JUPDBDIP5TGCBY", "dateTime": 1516130656121}, {"current_trial": 241, "trialdata": {"rt": -1, "trial_type": "single-stim", "word": "ozone", "stimulus": "<p id=\"stim\">OZONE</p>", "conditions": [12, 1600, "v", 24000], "internal_node_id": "0.0-169.0", "trial": 7, "time_elapsed": 1148888, "serialpos": 0, "key_press": -1, "wordID": 995, "type": "PRES_VIS", "trial_index": 241}, "uniqueid": "MTK1713:3WT783CTPCOPUJJ2JUPDBDIP5TGCBY", "dateTime": 1516130657722}, {"current_trial": 242, "trialdata": {"rt": -1, "trial_type": "single-stim", "word": "barrel", "stimulus": "<p id=\"stim\">BARREL</p>", "conditions": [12, 1600, "v", 24000], "internal_node_id": "0.0-170.0", "trial": 7, "time_elapsed": 1151418, "serialpos": 1, "key_press": -1, "wordID": 90, "type": "PRES_VIS", "trial_index": 242}, "uniqueid": "MTK1713:3WT783CTPCOPUJJ2JUPDBDIP5TGCBY", "dateTime": 1516130660252}, {"current_trial": 243, "trialdata": {"rt": -1, "trial_type": "single-stim", "word": "sandwich", "stimulus": "<p id=\"stim\">SANDWICH</p>", "conditions": [12, 1600, "v", 24000], "internal_node_id": "0.0-171.0", "trial": 7, "time_elapsed": 1153972, "serialpos": 2, "key_press": -1, "wordID": 1231, "type": "PRES_VIS", "trial_index": 243}, "uniqueid": "MTK1713:3WT783CTPCOPUJJ2JUPDBDIP5TGCBY", "dateTime": 1516130662806}, {"current_trial": 244, "trialdata": {"rt": -1, "trial_type": "single-stim", "word": "lumber", "stimulus": "<p id=\"stim\">LUMBER</p>", "conditions": [12, 1600, "v", 24000], "internal_node_id": "0.0-172.0", "trial": 7, "time_elapsed": 1156630, "serialpos": 3, "key_press": -1, "wordID": 847, "type": "PRES_VIS", "trial_index": 244}, "uniqueid": "MTK1713:3WT783CTPCOPUJJ2JUPDBDIP5TGCBY", "dateTime": 1516130665464}, {"current_trial": 245, "trialdata": {"rt": -1, "trial_type": "single-stim", "word": "ulcer", "stimulus": "<p id=\"stim\">ULCER</p>", "conditions": [12, 1600, "v", 24000], "internal_node_id": "0.0-173.0", "trial": 7, "time_elapsed": 1159056, "serialpos": 4, "key_press": -1, "wordID": 1532, "type": "PRES_VIS", "trial_index": 245}, "uniqueid": "MTK1713:3WT783CTPCOPUJJ2JUPDBDIP5TGCBY", "dateTime": 1516130667890}, {"current_trial": 246, "trialdata": {"rt": -1, "trial_type": "single-stim", "word": "stove", "stimulus": "<p id=\"stim\">STOVE</p>", "conditions": [12, 1600, "v", 24000], "internal_node_id": "0.0-174.0", "trial": 7, "time_elapsed": 1161609, "serialpos": 5, "key_press": -1, "wordID": 1387, "type": "PRES_VIS", "trial_index": 246}, "uniqueid": "MTK1713:3WT783CTPCOPUJJ2JUPDBDIP5TGCBY", "dateTime": 1516130670443}, {"current_trial": 247, "trialdata": {"rt": -1, "trial_type": "single-stim", "word": "dust", "stimulus": "<p id=\"stim\">DUST</p>", "conditions": [12, 1600, "v", 24000], "internal_node_id": "0.0-175.0", "trial": 7, "time_elapsed": 1164358, "serialpos": 6, "key_press": -1, "wordID": 507, "type": "PRES_VIS", "trial_index": 247}, "uniqueid": "MTK1713:3WT783CTPCOPUJJ2JUPDBDIP5TGCBY", "dateTime": 1516130673193}, {"current_trial": 248, "trialdata": {"rt": -1, "trial_type": "single-stim", "word": "cattle", "stimulus": "<p id=\"stim\">CATTLE</p>", "conditions": [12, 1600, "v", 24000], "internal_node_id": "0.0-176.0", "trial": 7, "time_elapsed": 1166925, "serialpos": 7, "key_press": -1, "wordID": 260, "type": "PRES_VIS", "trial_index": 248}, "uniqueid": "MTK1713:3WT783CTPCOPUJJ2JUPDBDIP5TGCBY", "dateTime": 1516130675759}, {"current_trial": 249, "trialdata": {"rt": -1, "trial_type": "single-stim", "word": "tile", "stimulus": "<p id=\"stim\">TILE</p>", "conditions": [12, 1600, "v", 24000], "internal_node_id": "0.0-177.0", "trial": 7, "time_elapsed": 1169512, "serialpos": 8, "key_press": -1, "wordID": 1467, "type": "PRES_VIS", "trial_index": 249}, "uniqueid": "MTK1713:3WT783CTPCOPUJJ2JUPDBDIP5TGCBY", "dateTime": 1516130678346}, {"current_trial": 250, "trialdata": {"rt": -1, "trial_type": "single-stim", "word": "brick", "stimulus": "<p id=\"stim\">BRICK</p>", "conditions": [12, 1600, "v", 24000], "internal_node_id": "0.0-178.0", "trial": 7, "time_elapsed": 1172010, "serialpos": 9, "key_press": -1, "wordID": 171, "type": "PRES_VIS", "trial_index": 250}, "uniqueid": "MTK1713:3WT783CTPCOPUJJ2JUPDBDIP5TGCBY", "dateTime": 1516130680845}, {"current_trial": 251, "trialdata": {"rt": -1, "trial_type": "single-stim", "word": "smog", "stimulus": "<p id=\"stim\">SMOG</p>", "conditions": [12, 1600, "v", 24000], "internal_node_id": "0.0-179.0", "trial": 7, "time_elapsed": 1174607, "serialpos": 10, "key_press": -1, "wordID": 1329, "type": "PRES_VIS", "trial_index": 251}, "uniqueid": "MTK1713:3WT783CTPCOPUJJ2JUPDBDIP5TGCBY", "dateTime": 1516130683441}, {"current_trial": 252, "trialdata": {"rt": -1, "trial_type": "single-stim", "word": "salt", "stimulus": "<p id=\"stim\">SALT</p>", "conditions": [12, 1600, "v", 24000], "internal_node_id": "0.0-180.0", "trial": 7, "time_elapsed": 1177159, "serialpos": 11, "key_press": -1, "wordID": 1228, "type": "PRES_VIS", "trial_index": 252}, "uniqueid": "MTK1713:3WT783CTPCOPUJJ2JUPDBDIP5TGCBY", "dateTime": 1516130685993}, {"current_trial": 253, "trialdata": {"rt": -1, "trial_type": "single-stim", "stimulus": "", "internal_node_id": "0.0-181.0-0.0", "time_elapsed": 1179345, "key_press": -1, "type": "PRE_RECALL_DELAY", "trial_index": 253}, "uniqueid": "MTK1713:3WT783CTPCOPUJJ2JUPDBDIP5TGCBY", "dateTime": 1516130688179}, {"current_trial": 254, "trialdata": {"rt": -1000, "trial_type": "single-audio", "stimulus": "/static/audio/400Hz.wav", "internal_node_id": "0.0-182.0", "time_elapsed": 1179846, "key_press": -1, "type": "PRE_RECALL_ALERT", "trial_index": 254}, "uniqueid": "MTK1713:3WT783CTPCOPUJJ2JUPDBDIP5TGCBY", "dateTime": 1516130688680}, {"current_trial": 255, "trialdata": {"rt": [1562, 2374, 3154, 4990, 7978, 19550, 20877, 24781], "recw