{"condition": 0, "counterbalance": 1451, "assignmentId": "3TUI152ZZCUSBMBTMFXJP6UXKR1Q1W", "workerId": "MTK1076", "hitId": "34YWR3PJ28HAQATTM8J9GPBWWSBX0F", "currenttrial": 626, "bonus": 0, "data": [{"uniqueid": "MTK1076:3TUI152ZZCUSBMBTMFXJP6UXKR1Q1W", "current_trial": 0, "dateTime": 1513097264891, "trialdata": {"rt": 13326, "key_press": 74, "type": "INSTRUCTIONS", "trial_type": "text", "trial_index": 0, "time_elapsed": 13335, "internal_node_id": "0.0-0.0"}}, {"uniqueid": "MTK1076:3TUI152ZZCUSBMBTMFXJP6UXKR1Q1W", "current_trial": 1, "dateTime": 1513097271213, "trialdata": {"rt": 6314, "key_press": 175, "type": "INSTRUCTIONS", "trial_type": "text", "trial_index": 1, "time_elapsed": 19658, "internal_node_id": "0.0-1.0"}}, {"uniqueid": "MTK1076:3TUI152ZZCUSBMBTMFXJP6UXKR1Q1W", "current_trial": 2, "dateTime": 1513097297347, "trialdata": {"rt": [26086], "responses": ["ocean"], "type": "AUDIO_TEST", "trial_type": "audio-test", "trial_index": 2, "time_elapsed": 45792, "internal_node_id": "0.0-2.0"}}, {"uniqueid": "MTK1076:3TUI152ZZCUSBMBTMFXJP6UXKR1Q1W", "current_trial": 3, "dateTime": 1513097302262, "trialdata": {"rt": [4907], "responses": ["crystal"], "type": "AUDIO_TEST", "trial_type": "audio-test", "trial_index": 3, "time_elapsed": 50707, "internal_node_id": "0.0-3.0"}}, {"uniqueid": "MTK1076:3TUI152ZZCUSBMBTMFXJP6UXKR1Q1W", "current_trial": 4, "dateTime": 1513097306365, "trialdata": {"rt": [4096], "responses": ["spice"], "type": "AUDIO_TEST", "trial_type": "audio-test", "trial_index": 4, "time_elapsed": 54809, "internal_node_id": "0.0-4.0"}}, {"uniqueid": "MTK1076:3TUI152ZZCUSBMBTMFXJP6UXKR1Q1W", "current_trial": 5, "dateTime": 1513097324566, "trialdata": {"rt": 17448, "responses": "{\"Q0\":\"11:00 PM\",\"Q1\":\"5:10 AM\",\"Q2\":\"5\"}", "type": "SLEEP_SURVEY", "trial_type": "survey-text", "trial_index": 5, "time_elapsed": 73011, "internal_node_id": "0.0-5.0"}}, {"uniqueid": "MTK1076:3TUI152ZZCUSBMBTMFXJP6UXKR1Q1W", "current_trial": 6, "dateTime": 1513097360880, "trialdata": {"rt": 35312, "key_press": 75, "type": "INSTRUCTIONS", "trial_type": "text", "trial_index": 6, "time_elapsed": 109325, "internal_node_id": "0.0-6.0"}}, {"uniqueid": "MTK1076:3TUI152ZZCUSBMBTMFXJP6UXKR1Q1W", "current_trial": 7, "dateTime": 1513097388693, "trialdata": {"rt": 27311, "key_press": 76, "type": "INSTRUCTIONS", "trial_type": "text", "trial_index": 7, "time_elapsed": 137138, "internal_node_id": "0.0-7.0"}}, {"uniqueid": "MTK1076:3TUI152ZZCUSBMBTMFXJP6UXKR1Q1W", "current_trial": 8, "dateTime": 1513097396874, "trialdata": {"rt": 7679, "key_press": 75, "type": "INSTRUCTIONS", "trial_type": "text", "trial_index": 8, "time_elapsed": 145319, "internal_node_id": "0.0-8.0"}}, {"uniqueid": "MTK1076:3TUI152ZZCUSBMBTMFXJP6UXKR1Q1W", "current_trial": 9, "dateTime": 1513097415903, "trialdata": {"rt": [3983, 6895, 9087, 10673, 12260, 16283, 17914], "responses": ["17", "14", "18", "20", "16", "23", "6"], "num1": [9, 4, 5, 9, 2, 9, 2, 2], "num2": [1, 4, 4, 9, 7, 6, 1, 7], "num3": [7, 6, 9, 2, 7, 8, 3, 5], "type": "DISTRACTOR", "conditions": [18, 1200, "v", 18000], "trial": 0, "trial_type": "math-distractor", "trial_index": 9, "time_elapsed": 164348, "internal_node_id": "0.0-9.0"}}, {"uniqueid": "MTK1076:3TUI152ZZCUSBMBTMFXJP6UXKR1Q1W", "current_trial": 10, "dateTime": 1513097418907, "trialdata": {"rt": -1, "stimulus": "<p id=\"stim\">10</p>", "key_press": -1, "trial_type": "single-stim", "trial_index": 10, "time_elapsed": 167352, "internal_node_id": "0.0-10.0-0.0"}}, {"uniqueid": "MTK1076:3TUI152ZZCUSBMBTMFXJP6UXKR1Q1W", "current_trial": 11, "dateTime": 1513097419907, "trialdata": {"rt": -1, "stimulus": "<p id=\"stim\">9</p>", "key_press": -1, "trial_type": "single-stim", "trial_index": 11, "time_elapsed": 168352, "internal_node_id": "0.0-10.0-1.0"}}, {"uniqueid": "MTK1076:3TUI152ZZCUSBMBTMFXJP6UXKR1Q1W", "current_trial": 12, "dateTime": 1513097420909, "trialdata": {"rt": -1, "stimulus": "<p id=\"stim\">8</p>", "key_press": -1, "trial_type": "single-stim", "trial_index": 12, "time_elapsed": 169354, "internal_node_id": "0.0-10.0-2.0"}}, {"uniqueid": "MTK1076:3TUI152ZZCUSBMBTMFXJP6UXKR1Q1W", "current_trial": 13, "dateTime": 1513097421912, "trialdata": {"rt": -1, "stimulus": "<p id=\"stim\">7</p>", "key_press": -1, "trial_type": "single-stim", "trial_index": 13, "time_elapsed": 170357, "internal_node_id": "0.0-10.0-3.0"}}, {"uniqueid": "MTK1076:3TUI152ZZCUSBMBTMFXJP6UXKR1Q1W", "current_trial": 14, "dateTime": 1513097422913, "trialdata": {"rt": -1, "stimulus": "<p id=\"stim\">6</p>", "key_press": -1, "trial_type": "single-stim", "trial_index": 14, "time_elapsed": 171358, "internal_node_id": "0.0-10.0-4.0"}}, {"uniqueid": "MTK1076:3TUI152ZZCUSBMBTMFXJP6UXKR1Q1W", "current_trial": 15, "dateTime": 1513097423915, "trialdata": {"rt": -1, "stimulus": "<p id=\"stim\">5</p>", "key_press": -1, "trial_type": "single-stim", "trial_index": 15, "time_elapsed": 172360, "internal_node_id": "0.0-10.0-5.0"}}, {"uniqueid": "MTK1076:3TUI152ZZCUSBMBTMFXJP6UXKR1Q1W", "current_trial": 16, "dateTime": 1513097424918, "trialdata": {"rt": -1, "stimulus": "<p id=\"stim\">4</p>", "key_press": -1, "trial_type": "single-stim", "trial_index": 16, "time_elapsed": 173363, "internal_node_id": "0.0-10.0-6.0"}}, {"uniqueid": "MTK1076:3TUI152ZZCUSBMBTMFXJP6UXKR1Q1W", "current_trial": 17, "dateTime": 1513097425918, "trialdata": {"rt": -1, "stimulus": "<p id=\"stim\">3</p>", "key_press": -1, "trial_type": "single-stim", "trial_index": 17, "time_elapsed": 174363, "internal_node_id": "0.0-10.0-7.0"}}, {"uniqueid": "MTK1076:3TUI152ZZCUSBMBTMFXJP6UXKR1Q1W", "current_trial": 18, "dateTime": 1513097426920, "trialdata": {"rt": -1, "stimulus": "<p id=\"stim\">2</p>", "key_press": -1, "trial_type": "single-stim", "trial_index": 18, "time_elapsed": 175365, "internal_node_id": "0.0-10.0-8.0"}}, {"uniqueid": "MTK1076:3TUI152ZZCUSBMBTMFXJP6UXKR1Q1W", "current_trial": 19, "dateTime": 1513097427922, "trialdata": {"rt": 399, "stimulus": "<p id=\"stim\">1</p>", "key_press": 175, "trial_type": "single-stim", "trial_index": 19, "time_elapsed": 176367, "internal_node_id": "0.0-10.0-9.0"}}, {"uniqueid": "MTK1076:3TUI152ZZCUSBMBTMFXJP6UXKR1Q1W", "current_trial": 20, "dateTime": 1513097429423, "trialdata": {"rt": 70, "stimulus": "<p id=\"stim\">+</p>", "key_press": 175, "type": "FIXATION", "trial_type": "single-stim", "trial_index": 20, "time_elapsed": 177868, "internal_node_id": "0.0-11.0-0.0"}}, {"uniqueid": "MTK1076:3TUI152ZZCUSBMBTMFXJP6UXKR1Q1W", "current_trial": 21, "dateTime": 1513097430625, "trialdata": {"rt": -1, "stimulus": "<p id=\"stim\">SERVER</p>", "key_press": -1, "type": "PRES_VIS", "word": "server", "wordID": 1271, "conditions": [18, 1200, "v", 18000], "trial": 0, "serialpos": 0, "trial_type": "single-stim", "trial_index": 21, "time_elapsed": 179070, "internal_node_id": "0.0-12.0"}}, {"uniqueid": "MTK1076:3TUI152ZZCUSBMBTMFXJP6UXKR1Q1W", "current_trial": 22, "dateTime": 1513097432670, "trialdata": {"rt": -1, "stimulus": "<p id=\"stim\">BUNNY</p>", "key_press": -1, "type": "PRES_VIS", "word": "bunny", "wordID": 197, "conditions": [18, 1200, "v", 18000], "trial": 0, "serialpos": 1, "trial_type": "single-stim", "trial_index": 22, "time_elapsed": 181115, "internal_node_id": "0.0-13.0"}}, {"uniqueid": "MTK1076:3TUI152ZZCUSBMBTMFXJP6UXKR1Q1W", "current_trial": 23, "dateTime": 1513097435049, "trialdata": {"rt": -1, "stimulus": "<p id=\"stim\">SALAD</p>", "key_press": -1, "type": "PRES_VIS", "word": "salad", "wordID": 1223, "conditions": [18, 1200, "v", 18000], "trial": 0, "serialpos": 2, "trial_type": "single-stim", "trial_index": 23, "time_elapsed": 183494, "internal_node_id": "0.0-14.0"}}, {"uniqueid": "MTK1076:3TUI152ZZCUSBMBTMFXJP6UXKR1Q1W", "current_trial": 24, "dateTime": 1513097437163, "trialdata": {"rt": -1, "stimulus": "<p id=\"stim\">LIGHTNING</p>", "key_press": -1, "type": "PRES_VIS", "word": "lightning", "wordID": 819, "conditions": [18, 1200, "v", 18000], "trial": 0, "serialpos": 3, "trial_type": "single-stim", "trial_index": 24, "time_elapsed": 185608, "internal_node_id": "0.0-15.0"}}, {"uniqueid": "MTK1076:3TUI152ZZCUSBMBTMFXJP6UXKR1Q1W", "current_trial": 25, "dateTime": 1513097439294, "trialdata": {"rt": -1, "stimulus": "<p id=\"stim\">KNIFE</p>", "key_press": -1, "type": "PRES_VIS", "word": "knife", "wordID": 784, "conditions": [18, 1200, "v", 18000], "trial": 0, "serialpos": 4, "trial_type": "single-stim", "trial_index": 25, "time_elapsed": 187739, "internal_node_id": "0.0-16.0"}}, {"uniqueid": "MTK1076:3TUI152ZZCUSBMBTMFXJP6UXKR1Q1W", "current_trial": 26, "dateTime": 1513097441437, "trialdata": {"rt": -1, "stimulus": "<p id=\"stim\">MILK</p>", "key_press": -1, "type": "PRES_VIS", "word": "milk", "wordID": 894, "conditions": [18, 1200, "v", 18000], "trial": 0, "serialpos": 5, "trial_type": "single-stim", "trial_index": 26, "time_elapsed": 189882, "internal_node_id": "0.0-17.0"}}, {"uniqueid": "MTK1076:3TUI152ZZCUSBMBTMFXJP6UXKR1Q1W", "current_trial": 27, "dateTime": 1513097443823, "trialdata": {"rt": -1, "stimulus": "<p id=\"stim\">ARMY</p>", "key_press": -1, "type": "PRES_VIS", "word": "army", "wordID": 38, "conditions": [18, 1200, "v", 18000], "trial": 0, "serialpos": 6, "trial_type": "single-stim", "trial_index": 27, "time_elapsed": 192268, "internal_node_id": "0.0-18.0"}}, {"uniqueid": "MTK1076:3TUI152ZZCUSBMBTMFXJP6UXKR1Q1W", "current_trial": 28, "dateTime": 1513097445940, "trialdata": {"rt": -1, "stimulus": "<p id=\"stim\">GRAVE</p>", "key_press": -1, "type": "PRES_VIS", "word": "grave", "wordID": 657, "conditions": [18, 1200, "v", 18000], "trial": 0, "serialpos": 7, "trial_type": "single-stim", "trial_index": 28, "time_elapsed": 194385, "internal_node_id": "0.0-19.0"}}, {"uniqueid": "MTK1076:3TUI152ZZCUSBMBTMFXJP6UXKR1Q1W", "current_trial": 29, "dateTime": 1513097448054, "trialdata": {"rt": -1, "stimulus": "<p id=\"stim\">LADY</p>", "key_press": -1, "type": "PRES_VIS", "word": "lady", "wordID": 793, "conditions": [18, 1200, "v", 18000], "trial": 0, "serialpos": 8, "trial_type": "single-stim", "trial_index": 29, "time_elapsed": 196499, "internal_node_id": "0.0-20.0"}}, {"uniqueid": "MTK1076:3TUI152ZZCUSBMBTMFXJP6UXKR1Q1W", "current_trial": 30, "dateTime": 1513097450412, "trialdata": {"rt": -1, "stimulus": "<p id=\"stim\">PADDING</p>", "key_press": -1, "type": "PRES_VIS", "word": "padding", "wordID": 998, "conditions": [18, 1200, "v", 18000], "trial": 0, "serialpos": 9, "trial_type": "single-stim", "trial_index": 30, "time_elapsed": 198856, "internal_node_id": "0.0-21.0"}}, {"uniqueid": "MTK1076:3TUI152ZZCUSBMBTMFXJP6UXKR1Q1W", "current_trial": 31, "dateTime": 1513097452577, "trialdata": {"rt": -1, "stimulus": "<p id=\"stim\">CONTRACT</p>", "key_press": -1, "type": "PRES_VIS", "word": "contract", "wordID": 367, "conditions": [18, 1200, "v", 18000], "trial": 0, "serialpos": 10, "trial_type": "single-stim", "trial_index": 31, "time_elapsed": 201022, "internal_node_id": "0.0-22.0"}}, {"uniqueid": "MTK1076:3TUI152ZZCUSBMBTMFXJP6UXKR1Q1W", "current_trial": 32, "dateTime": 1513097454849, "trialdata": {"rt": -1, "stimulus": "<p id=\"stim\">CLAMP</p>", "key_press": -1, "type": "PRES_VIS", "word": "clamp", "wordID": 315, "conditions": [18, 1200, "v", 18000], "trial": 0, "serialpos": 11, "trial_type": "single-stim", "trial_index": 32, "time_elapsed": 203294, "internal_node_id": "0.0-23.0"}}, {"uniqueid": "MTK1076:3TUI152ZZCUSBMBTMFXJP6UXKR1Q1W", "current_trial": 33, "dateTime": 1513097456961, "trialdata": {"rt": -1, "stimulus": "<p id=\"stim\">CREATURE</p>", "key_press": -1, "type": "PRES_VIS", "word": "creature", "wordID": 402, "conditions": [18, 1200, "v", 18000], "trial": 0, "serialpos": 12, "trial_type": "single-stim", "trial_index": 33, "time_elapsed": 205405, "internal_node_id": "0.0-24.0"}}, {"uniqueid": "MTK1076:3TUI152ZZCUSBMBTMFXJP6UXKR1Q1W", "current_trial": 34, "dateTime": 1513097459049, "trialdata": {"rt": -1, "stimulus": "<p id=\"stim\">LEG</p>", "key_press": -1, "type": "PRES_VIS", "word": "leg", "wordID": 808, "conditions": [18, 1200, "v", 18000], "trial": 0, "serialpos": 13, "trial_type": "single-stim", "trial_index": 34, "time_elapsed": 207494, "internal_node_id": "0.0-25.0"}}, {"uniqueid": "MTK1076:3TUI152ZZCUSBMBTMFXJP6UXKR1Q1W", "current_trial": 35, "dateTime": 1513097461084, "trialdata": {"rt": -1, "stimulus": "<p id=\"stim\">STAPLE</p>", "key_press": -1, "type": "PRES_VIS", "word": "staple", "wordID": 1370, "conditions": [18, 1200, "v", 18000], "trial": 0, "serialpos": 14, "trial_type": "single-stim", "trial_index": 35, "time_elapsed": 209529, "internal_node_id": "0.0-26.0"}}, {"uniqueid": "MTK1076:3TUI152ZZCUSBMBTMFXJP6UXKR1Q1W", "current_trial": 36, "dateTime": 1513097463208, "trialdata": {"rt": -1, "stimulus": "<p id=\"stim\">KEEPER</p>", "key_press": -1, "type": "PRES_VIS", "word": "keeper", "wordID": 768, "conditions": [18, 1200, "v", 18000], "trial": 0, "serialpos": 15, "trial_type": "single-stim", "trial_index": 36, "time_elapsed": 211652, "internal_node_id": "0.0-27.0"}}, {"uniqueid": "MTK1076:3TUI152ZZCUSBMBTMFXJP6UXKR1Q1W", "current_trial": 37, "dateTime": 1513097465380, "trialdata": {"rt": -1, "stimulus": "<p id=\"stim\">SCRIBBLE</p>", "key_press": -1, "type": "PRES_VIS", "word": "scribble", "wordID": 1255, "conditions": [18, 1200, "v", 18000], "trial": 0, "serialpos": 16, "trial_type": "single-stim", "trial_index": 37, "time_elapsed": 213825, "internal_node_id": "0.0-28.0"}}, {"uniqueid": "MTK1076:3TUI152ZZCUSBMBTMFXJP6UXKR1Q1W", "current_trial": 38, "dateTime": 1513097467617, "trialdata": {"rt": -1, "stimulus": "<p id=\"stim\">ANKLE</p>", "key_press": -1, "type": "PRES_VIS", "word": "ankle", "wordID": 23, "conditions": [18, 1200, "v", 18000], "trial": 0, "serialpos": 17, "trial_type": "single-stim", "trial_index": 38, "time_elapsed": 216062, "internal_node_id": "0.0-29.0"}}, {"uniqueid": "MTK1076:3TUI152ZZCUSBMBTMFXJP6UXKR1Q1W", "current_trial": 39, "dateTime": 1513097469764, "trialdata": {"rt": -1, "stimulus": "", "key_press": -1, "type": "PRE_RECALL_DELAY", "trial_type": "single-stim", "trial_index": 39, "time_elapsed": 218209, "internal_node_id": "0.0-30.0-0.0"}}, {"uniqueid": "MTK1076:3TUI152ZZCUSBMBTMFXJP6UXKR1Q1W", "current_trial": 40, "dateTime": 1513097470272, "trialdata": {"rt": -1000, "stimulus": "/static/audio/400Hz.wav", "key_press": -1, "type": "PRE_RECALL_ALERT", "trial_type": "single-audio", "trial_index": 40, "time_elapsed": 218717, "internal_node_id": "0.0-31.0"}}, {"uniqueid": "MTK1076:3TUI152ZZCUSBMBTMFXJP6UXKR1Q1W", "current_trial": 41, "dateTime": 1513097530280, "trialdata": {"rt": [3839, 5092, 6078, 8667, 10319, 15095, 35985, 48132], "recwords": ["bunny", "server", "salad", "staple", "ankle", "grave", "scribble", ""], "type": "FREE_RECALL", "conditions": [18, 1200, "v", 18000], "trial": 0, "trial_type": "free-recall", "trial_index": 41, "time_elapsed": 278721, "internal_node_id": "0.0-32.0-0.0"}}, {"uniqueid": "MTK1076:3TUI152ZZCUSBMBTMFXJP6UXKR1Q1W", "current_trial": 42, "dateTime": 1513097533876, "trialdata": {"rt": 1594, "key_press": 74, "type": "INSTRUCTIONS", "trial_type": "text", "trial_index": 42, "time_elapsed": 282321, "internal_node_id": "0.0-33.0"}}, {"uniqueid": "MTK1076:3TUI152ZZCUSBMBTMFXJP6UXKR1Q1W", "current_trial": 43, "dateTime": 1513097553880, "trialdata": {"rt": [2732, 4760, 8803, 10217, 12315, 14554], "responses": ["16", "16", "12", "19", "13", "15"], "num1": [8, 5, 1, 5, 6, 9, 5], "num2": [3, 3, 6, 5, 5, 3, 8], "num3": [5, 8, 5, 9, 2, 3, 7], "type": "DISTRACTOR", "conditions": [18, 1200, "a", 18000], "trial": 1, "trial_type": "math-distractor", "trial_index": 43, "time_elapsed": 302325, "internal_node_id": "0.0-34.0"}}, {"uniqueid": "MTK1076:3TUI152ZZCUSBMBTMFXJP6UXKR1Q1W", "current_trial": 44, "dateTime": 1513097556882, "trialdata": {"rt": -1, "stimulus": "<p id=\"stim\">10</p>", "key_press": -1, "trial_type": "single-stim", "trial_index": 44, "time_elapsed": 305327, "internal_node_id": "0.0-35.0-0.0"}}, {"uniqueid": "MTK1076:3TUI152ZZCUSBMBTMFXJP6UXKR1Q1W", "current_trial": 45, "dateTime": 1513097557884, "trialdata": {"rt": -1, "stimulus": "<p id=\"stim\">9</p>", "key_press": -1, "trial_type": "single-stim", "trial_index": 45, "time_elapsed": 306329, "internal_node_id": "0.0-35.0-1.0"}}, {"uniqueid": "MTK1076:3TUI152ZZCUSBMBTMFXJP6UXKR1Q1W", "current_trial": 46, "dateTime": 1513097558887, "trialdata": {"rt": -1, "stimulus": "<p id=\"stim\">8</p>", "key_press": -1, "trial_type": "single-stim", "trial_index": 46, "time_elapsed": 307330, "internal_node_id": "0.0-35.0-2.0"}}, {"uniqueid": "MTK1076:3TUI152ZZCUSBMBTMFXJP6UXKR1Q1W", "current_trial": 47, "dateTime": 1513097559889, "trialdata": {"rt": -1, "stimulus": "<p id=\"stim\">7</p>", "key_press": -1, "trial_type": "single-stim", "trial_index": 47, "time_elapsed": 308334, "internal_node_id": "0.0-35.0-3.0"}}, {"uniqueid": "MTK1076:3TUI152ZZCUSBMBTMFXJP6UXKR1Q1W", "current_trial": 48, "dateTime": 1513097560891, "trialdata": {"rt": -1, "stimulus": "<p id=\"stim\">6</p>", "key_press": -1, "trial_type": "single-stim", "trial_index": 48, "time_elapsed": 309336, "internal_node_id": "0.0-35.0-4.0"}}, {"uniqueid": "MTK1076:3TUI152ZZCUSBMBTMFXJP6UXKR1Q1W", "current_trial": 49, "dateTime": 1513097561892, "trialdata": {"rt": -1, "stimulus": "<p id=\"stim\">5</p>", "key_press": -1, "trial_type": "single-stim", "trial_index": 49, "time_elapsed": 310337, "internal_node_id": "0.0-35.0-5.0"}}, {"uniqueid": "MTK1076:3TUI152ZZCUSBMBTMFXJP6UXKR1Q1W", "current_trial": 50, "dateTime": 1513097562894, "trialdata": {"rt": -1, "stimulus": "<p id=\"stim\">4</p>", "key_press": -1, "trial_type": "single-stim", "trial_index": 50, "time_elapsed": 311339, "internal_node_id": "0.0-35.0-6.0"}}, {"uniqueid": "MTK1076:3TUI152ZZCUSBMBTMFXJP6UXKR1Q1W", "current_trial": 51, "dateTime": 1513097563896, "trialdata": {"rt": -1, "stimulus": "<p id=\"stim\">3</p>", "key_press": -1, "trial_type": "single-stim", "trial_index": 51, "time_elapsed": 312341, "internal_node_id": "0.0-35.0-7.0"}}, {"uniqueid": "MTK1076:3TUI152ZZCUSBMBTMFXJP6UXKR1Q1W", "current_trial": 52, "dateTime": 1513097564897, "trialdata": {"rt": -1, "stimulus": "<p id=\"stim\">2</p>", "key_press": -1, "trial_type": "single-stim", "trial_index": 52, "time_elapsed": 313342, "internal_node_id": "0.0-35.0-8.0"}}, {"uniqueid": "MTK1076:3TUI152ZZCUSBMBTMFXJP6UXKR1Q1W", "current_trial": 53, "dateTime": 1513097565899, "trialdata": {"rt": -1, "stimulus": "<p id=\"stim\">1</p>", "key_press": -1, "trial_type": "single-stim", "trial_index": 53, "time_elapsed": 314344, "internal_node_id": "0.0-35.0-9.0"}}, {"uniqueid": "MTK1076:3TUI152ZZCUSBMBTMFXJP6UXKR1Q1W", "current_trial": 54, "dateTime": 1513097567401, "trialdata": {"rt": -1, "stimulus": "<p id=\"stim\">+</p>", "key_press": -1, "type": "FIXATION", "trial_type": "single-stim", "trial_index": 54, "time_elapsed": 315846, "internal_node_id": "0.0-36.0-0.0"}}, {"uniqueid": "MTK1076:3TUI152ZZCUSBMBTMFXJP6UXKR1Q1W", "current_trial": 55, "dateTime": 1513097569758, "trialdata": {"rt": -1000, "stimulus": "/static/audio/wordpool/BARLEY.wav", "key_press": -1, "type": "PRES_AUD", "word": "barley", "wordID": 87, "conditions": [18, 1200, "a", 18000], "trial": 1, "serialpos": 0, "trial_type": "single-audio", "trial_index": 55, "time_elapsed": 318203, "internal_node_id": "0.0-37.0"}}, {"uniqueid": "MTK1076:3TUI152ZZCUSBMBTMFXJP6UXKR1Q1W", "current_trial": 56, "dateTime": 1513097571888, "trialdata": {"rt": -1000, "stimulus": "/static/audio/wordpool/LEOPARD.wav", "key_press": -1, "type": "PRES_AUD", "word": "leopard", "wordID": 811, "conditions": [18, 1200, "a", 18000], "trial": 1, "serialpos": 1, "trial_type": "single-audio", "trial_index": 56, "time_elapsed": 320333, "internal_node_id": "0.0-38.0"}}, {"uniqueid": "MTK1076:3TUI152ZZCUSBMBTMFXJP6UXKR1Q1W", "current_trial": 57, "dateTime": 1513097574296, "trialdata": {"rt": -1000, "stimulus": "/static/audio/wordpool/ITEM.wav", "key_press": -1, "type": "PRES_AUD", "word": "item", "wordID": 745, "conditions": [18, 1200, "a", 18000], "trial": 1, "serialpos": 2, "trial_type": "single-audio", "trial_index": 57, "time_elapsed": 322741, "internal_node_id": "0.0-39.0"}}, {"uniqueid": "MTK1076:3TUI152ZZCUSBMBTMFXJP6UXKR1Q1W", "current_trial": 58, "dateTime": 1513097576627, "trialdata": {"rt": -1000, "stimulus": "/static/audio/wordpool/BACON.wav", "key_press": -1, "type": "PRES_AUD", "word": "bacon", "wordID": 66, "conditions": [18, 1200, "a", 18000], "trial": 1, "serialpos": 3, "trial_type": "single-audio", "trial_index": 58, "time_elapsed": 325072, "internal_node_id": "0.0-40.0"}}, {"uniqueid": "MTK1076:3TUI152ZZCUSBMBTMFXJP6UXKR1Q1W", "current_trial": 59, "dateTime": 1513097578804, "trialdata": {"rt": -1000, "stimulus": "/static/audio/wordpool/CANAL.wav", "key_press": -1, "type": "PRES_AUD", "word": "canal", "wordID": 225, "conditions": [18, 1200, "a", 18000], "trial": 1, "serialpos": 4, "trial_type": "single-audio", "trial_index": 59, "time_elapsed": 327249, "internal_node_id": "0.0-41.0"}}, {"uniqueid": "MTK1076:3TUI152ZZCUSBMBTMFXJP6UXKR1Q1W", "current_trial": 60, "dateTime": 1513097581105, "trialdata": {"rt": -1000, "stimulus": "/static/audio/wordpool/BIKE.wav", "key_press": -1, "type": "PRES_AUD", "word": "bike", "wordID": 124, "conditions": [18, 1200, "a", 18000], "trial": 1, "serialpos": 5, "trial_type": "single-audio", "trial_index": 60, "time_elapsed": 329550, "internal_node_id": "0.0-42.0"}}, {"uniqueid": "MTK1076:3TUI152ZZCUSBMBTMFXJP6UXKR1Q1W", "current_trial": 61, "dateTime": 1513097583186, "trialdata": {"rt": -1000, "stimulus": "/static/audio/wordpool/GLOBE.wav", "key_press": -1, "type": "PRES_AUD", "word": "globe", "wordID": 640, "conditions": [18, 1200, "a", 18000], "trial": 1, "serialpos": 6, "trial_type": "single-audio", "trial_index": 61, "time_elapsed": 331631, "internal_node_id": "0.0-43.0"}}, {"uniqueid": "MTK1076:3TUI152ZZCUSBMBTMFXJP6UXKR1Q1W", "current_trial": 62, "dateTime": 1513097585454, "trialdata": {"rt": -1000, "stimulus": "/static/audio/wordpool/SANDWICH.wav", "key_press": -1, "type": "PRES_AUD", "word": "sandwich", "wordID": 1231, "conditions": [18, 1200, "a", 18000], "trial": 1, "serialpos": 7, "trial_type": "single-audio", "trial_index": 62, "time_elapsed": 333899, "internal_node_id": "0.0-44.0"}}, {"uniqueid": "MTK1076:3TUI152ZZCUSBMBTMFXJP6UXKR1Q1W", "current_trial": 63, "dateTime": 1513097587825, "trialdata": {"rt": -1000, "stimulus": "/static/audio/wordpool/TERMITE.wav", "key_press": -1, "type": "PRES_AUD", "word": "termite", "wordID": 1450, "conditions": [18, 1200, "a", 18000], "trial": 1, "serialpos": 8, "trial_type": "single-audio", "trial_index": 63, "time_elapsed": 336270, "internal_node_id": "0.0-45.0"}}, {"uniqueid": "MTK1076:3TUI152ZZCUSBMBTMFXJP6UXKR1Q1W", "current_trial": 64, "dateTime": 1513097590056, "trialdata": {"rt": -1000, "stimulus": "/static/audio/wordpool/SOFTBALL.wav", "key_press": -1, "type": "PRES_AUD", "word": "softball", "wordID": 1342, "conditions": [18, 1200, "a", 18000], "trial": 1, "serialpos": 9, "trial_type": "single-audio", "trial_index": 64, "time_elapsed": 338501, "internal_node_id": "0.0-46.0"}}, {"uniqueid": "MTK1076:3TUI152ZZCUSBMBTMFXJP6UXKR1Q1W", "current_trial": 65, "dateTime": 1513097592247, "trialdata": {"rt": -1000, "stimulus": "/static/audio/wordpool/MESSAGE.wav", "key_press": -1, "type": "PRES_AUD", "word": "message", "wordID": 887, "conditions": [18, 1200, "a", 18000], "trial": 1, "serialpos": 10, "trial_type": "single-audio", "trial_index": 65, "time_elapsed": 340692, "internal_node_id": "0.0-47.0"}}, {"uniqueid": "MTK1076:3TUI152ZZCUSBMBTMFXJP6UXKR1Q1W", "current_trial": 66, "dateTime": 1513097594344, "trialdata": {"rt": -1000, "stimulus": "/static/audio/wordpool/PERMIT.wav", "key_press": -1, "type": "PRES_AUD", "word": "permit", "wordID": 1050, "conditions": [18, 1200, "a", 18000], "trial": 1, "serialpos": 11, "trial_type": "single-audio", "trial_index": 66, "time_elapsed": 342789, "internal_node_id": "0.0-48.0"}}, {"uniqueid": "MTK1076:3TUI152ZZCUSBMBTMFXJP6UXKR1Q1W", "current_trial": 67, "dateTime": 1513097596472, "trialdata": {"rt": -1000, "stimulus": "/static/audio/wordpool/DRIVER.wav", "key_press": -1, "type": "PRES_AUD", "word": "driver", "wordID": 498, "conditions": [18, 1200, "a", 18000], "trial": 1, "serialpos": 12, "trial_type": "single-audio", "trial_index": 67, "time_elapsed": 344917, "internal_node_id": "0.0-49.0"}}, {"uniqueid": "MTK1076:3TUI152ZZCUSBMBTMFXJP6UXKR1Q1W", "current_trial": 68, "dateTime": 1513097598834, "trialdata": {"rt": -1000, "stimulus": "/static/audio/wordpool/OFFICE.wav", "key_press": -1, "type": "PRES_AUD", "word": "office", "wordID": 971, "conditions": [18, 1200, "a", 18000], "trial": 1, "serialpos": 13, "trial_type": "single-audio", "trial_index": 68, "time_elapsed": 347279, "internal_node_id": "0.0-50.0"}}, {"uniqueid": "MTK1076:3TUI152ZZCUSBMBTMFXJP6UXKR1Q1W", "current_trial": 69, "dateTime": 1513097601104, "trialdata": {"rt": -1000, "stimulus": "/static/audio/wordpool/COTTAGE.wav", "key_press": -1, "type": "PRES_AUD", "word": "cottage", "wordID": 383, "conditions": [18, 1200, "a", 18000], "trial": 1, "serialpos": 14, "trial_type": "single-audio", "trial_index": 69, "time_elapsed": 349549, "internal_node_id": "0.0-51.0"}}, {"uniqueid": "MTK1076:3TUI152ZZCUSBMBTMFXJP6UXKR1Q1W", "current_trial": 70, "dateTime": 1513097603372, "trialdata": {"rt": -1000, "stimulus": "/static/audio/wordpool/CHAUFFEUR.wav", "key_press": -1, "type": "PRES_AUD", "word": "chauffeur", "wordID": 282, "conditions": [18, 1200, "a", 18000], "trial": 1, "serialpos": 15, "trial_type": "single-audio", "trial_index": 70, "time_elapsed": 351817, "internal_node_id": "0.0-52.0"}}, {"uniqueid": "MTK1076:3TUI152ZZCUSBMBTMFXJP6UXKR1Q1W", "current_trial": 71, "dateTime": 1513097605424, "trialdata": {"rt": -1000, "stimulus": "/static/audio/wordpool/SWIMMER.wav", "key_press": -1, "type": "PRES_AUD", "word": "swimmer", "wordID": 1419, "conditions": [18, 1200, "a", 18000], "trial": 1, "serialpos": 16, "trial_type": "single-audio", "trial_index": 71, "time_elapsed": 353869, "internal_node_id": "0.0-53.0"}}, {"uniqueid": "MTK1076:3TUI152ZZCUSBMBTMFXJP6UXKR1Q1W", "current_trial": 72, "dateTime": 1513097607818, "trialdata": {"rt": -1000, "stimulus": "/static/audio/wordpool/SHELF.wav", "key_press": -1, "type": "PRES_AUD", "word": "shelf", "wordID": 1279, "conditions": [18, 1200, "a", 18000], "trial": 1, "serialpos": 17, "trial_type": "single-audio", "trial_index": 72, "time_elapsed": 356263, "internal_node_id": "0.0-54.0"}}, {"uniqueid": "MTK1076:3TUI152ZZCUSBMBTMFXJP6UXKR1Q1W", "current_trial": 73, "dateTime": 1513097609180, "trialdata": {"rt": -1, "stimulus": "", "key_press": -1, "type": "PRE_RECALL_DELAY", "trial_type": "single-stim", "trial_index": 73, "time_elapsed": 357625, "internal_node_id": "0.0-55.0-0.0"}}, {"uniqueid": "MTK1076:3TUI152ZZCUSBMBTMFXJP6UXKR1Q1W", "current_trial": 74, "dateTime": 1513097609684, "trialdata": {"rt": -1000, "stimulus": "/static/audio/400Hz.wav", "key_press": -1, "type": "PRE_RECALL_ALERT", "trial_type": "single-audio", "trial_index": 74, "time_elapsed": 358129, "internal_node_id": "0.0-56.0"}}, {"uniqueid": "MTK1076:3TUI152ZZCUSBMBTMFXJP6UXKR1Q1W", "current_trial": 75, "dateTime": 1513097669691, "trialdata": {"rt": [2215, 3328, 5714, 11954, 16304, 19326, 34542], "recwords": ["swimmer", "shelf", "chauffer", "canal", "driver", "shelf", "note"], "type": "FREE_RECALL", "conditions": [18, 1200, "a", 18000], "trial": 1, "trial_type": "free-recall", "trial_index": 75, "time_elapsed": 418133, "internal_node_id": "0.0-57.0-0.0"}}, {"uniqueid": "MTK1076:3TUI152ZZCUSBMBTMFXJP6UXKR1Q1W", "current_trial": 76, "dateTime": 1513097761015, "trialdata": {"rt": 89314, "key_press": 75, "type": "INSTRUCTIONS", "trial_type": "text", "trial_index": 76, "time_elapsed": 509452, "internal_node_id": "0.0-58.0"}}, {"uniqueid": "MTK1076:3TUI152ZZCUSBMBTMFXJP6UXKR1Q1W", "current_trial": 77, "dateTime": 1513097774020, "trialdata": {"rt": [4333, 5753, 7814, 11971], "responses": ["22", "21", "20", "22"], "num1": [8, 7, 7, 8, 2], "num2": [9, 7, 6, 5, 8], "num3": [5, 7, 7, 9, 7], "type": "DISTRACTOR", "conditions": [12, 1600, "v", 12000], "trial": 2, "trial_type": "math-distractor", "trial_index": 77, "time_elapsed": 522464, "internal_node_id": "0.0-59.0"}}, {"uniqueid": "MTK1076:3TUI152ZZCUSBMBTMFXJP6UXKR1Q1W", "current_trial": 78, "dateTime": 1513097777021, "trialdata": {"rt": -1, "stimulus": "<p id=\"stim\">10</p>", "key_press": -1, "trial_type": "single-stim", "trial_index": 78, "time_elapsed": 525466, "internal_node_id": "0.0-60.0-0.0"}}, {"uniqueid": "MTK1076:3TUI152ZZCUSBMBTMFXJP6UXKR1Q1W", "current_trial": 79, "dateTime": 1513097778022, "trialdata": {"rt": -1, "stimulus": "<p id=\"stim\">9</p>", "key_press": -1, "trial_type": "single-stim", "trial_index": 79, "time_elapsed": 526467, "internal_node_id": "0.0-60.0-1.0"}}, {"uniqueid": "MTK1076:3TUI152ZZCUSBMBTMFXJP6UXKR1Q1W", "current_trial": 80, "dateTime": 1513097779024, "trialdata": {"rt": -1, "stimulus": "<p id=\"stim\">8</p>", "key_press": -1, "trial_type": "single-stim", "trial_index": 80, "time_elapsed": 527469, "internal_node_id": "0.0-60.0-2.0"}}, {"uniqueid": "MTK1076:3TUI152ZZCUSBMBTMFXJP6UXKR1Q1W", "current_trial": 81, "dateTime": 1513097780026, "trialdata": {"rt": -1, "stimulus": "<p id=\"stim\">7</p>", "key_press": -1, "trial_type": "single-stim", "trial_index": 81, "time_elapsed": 528471, "internal_node_id": "0.0-60.0-3.0"}}, {"uniqueid": "MTK1076:3TUI152ZZCUSBMBTMFXJP6UXKR1Q1W", "current_trial": 82, "dateTime": 1513097781027, "trialdata": {"rt": -1, "stimulus": "<p id=\"stim\">6</p>", "key_press": -1, "trial_type": "single-stim", "trial_index": 82, "time_elapsed": 529472, "internal_node_id": "0.0-60.0-4.0"}}, {"uniqueid": "MTK1076:3TUI152ZZCUSBMBTMFXJP6UXKR1Q1W", "current_trial": 83, "dateTime": 1513097782029, "trialdata": {"rt": -1, "stimulus": "<p id=\"stim\">5</p>", "key_press": -1, "trial_type": "single-stim", "trial_index": 83, "time_elapsed": 530474, "internal_node_id": "0.0-60.0-5.0"}}, {"uniqueid": "MTK1076:3TUI152ZZCUSBMBTMFXJP6UXKR1Q1W", "current_trial": 84, "dateTime": 1513097783031, "trialdata": {"rt": -1, "stimulus": "<p id=\"stim\">4</p>", "key_press": -1, "trial_type": "single-stim", "trial_index": 84, "time_elapsed": 531476, "internal_node_id": "0.0-60.0-6.0"}}, {"uniqueid": "MTK1076:3TUI152ZZCUSBMBTMFXJP6UXKR1Q1W", "current_trial": 85, "dateTime": 1513097784032, "trialdata": {"rt": -1, "stimulus": "<p id=\"stim\">3</p>", "key_press": -1, "trial_type": "single-stim", "trial_index": 85, "time_elapsed": 532477, "internal_node_id": "0.0-60.0-7.0"}}, {"uniqueid": "MTK1076:3TUI152ZZCUSBMBTMFXJP6UXKR1Q1W", "current_trial": 86, "dateTime": 1513097785036, "trialdata": {"rt": -1, "stimulus": "<p id=\"stim\">2</p>", "key_press": -1, "trial_type": "single-stim", "trial_index": 86, "time_elapsed": 533479, "internal_node_id": "0.0-60.0-8.0"}}, {"uniqueid": "MTK1076:3TUI152ZZCUSBMBTMFXJP6UXKR1Q1W", "current_trial": 87, "dateTime": 1513097786038, "trialdata": {"rt": -1, "stimulus": "<p id=\"stim\">1</p>", "key_press": -1, "trial_type": "single-stim", "trial_index": 87, "time_elapsed": 534483, "internal_node_id": "0.0-60.0-9.0"}}, {"uniqueid": "MTK1076:3TUI152ZZCUSBMBTMFXJP6UXKR1Q1W", "current_trial": 88, "dateTime": 1513097787540, "trialdata": {"rt": -1, "stimulus": "<p id=\"stim\">+</p>", "key_press": -1, "type": "FIXATION", "trial_type": "single-stim", "trial_index": 88, "time_elapsed": 535985, "internal_node_id": "0.0-61.0-0.0"}}, {"uniqueid": "MTK1076:3TUI152ZZCUSBMBTMFXJP6UXKR1Q1W", "current_trial": 89, "dateTime": 1513097789142, "trialdata": {"rt": -1, "stimulus": "<p id=\"stim\">STOVE</p>", "key_press": -1, "type": "PRES_VIS", "word": "stove", "wordID": 1387, "conditions": [12, 1600, "v", 12000], "trial": 2, "serialpos": 0, "trial_type": "single-stim", "trial_index": 89, "time_elapsed": 537587, "internal_node_id": "0.0-62.0"}}, {"uniqueid": "MTK1076:3TUI152ZZCUSBMBTMFXJP6UXKR1Q1W", "current_trial": 90, "dateTime": 1513097791722, "trialdata": {"rt": -1, "stimulus": "<p id=\"stim\">DRAWING</p>", "key_press": -1, "type": "PRES_VIS", "word": "drawing", "wordID": 493, "conditions": [12, 1600, "v", 12000], "trial": 2, "serialpos": 1, "trial_type": "single-stim", "trial_index": 90, "time_elapsed": 540167, "internal_node_id": "0.0-63.0"}}, {"uniqueid": "MTK1076:3TUI152ZZCUSBMBTMFXJP6UXKR1Q1W", "current_trial": 91, "dateTime": 1513097794252, "trialdata": {"rt": -1, "stimulus": "<p id=\"stim\">BLACKBOARD</p>", "key_press": -1, "type": "PRES_VIS", "word": "blackboard", "wordID": 132, "conditions": [12, 1600, "v", 12000], "trial": 2, "serialpos": 2, "trial_type": "single-stim", "trial_index": 91, "time_elapsed": 542697, "internal_node_id": "0.0-64.0"}}, {"uniqueid": "MTK1076:3TUI152ZZCUSBMBTMFXJP6UXKR1Q1W", "current_trial": 92, "dateTime": 1513097796755, "trialdata": {"rt": -1, "stimulus": "<p id=\"stim\">SWITCH</p>", "key_press": -1, "type": "PRES_VIS", "word": "switch", "wordID": 1421, "conditions": [12, 1600, "v", 12000], "trial": 2, "serialpos": 3, "trial_type": "single-stim", "trial_index": 92, "time_elapsed": 545200, "internal_node_id": "0.0-65.0"}}, {"uniqueid": "MTK1076:3TUI152ZZCUSBMBTMFXJP6UXKR1Q1W", "current_trial": 93, "dateTime": 1513097799398, "trialdata": {"rt": -1, "stimulus": "<p id=\"stim\">TURTLE</p>", "key_press": -1, "type": "PRES_VIS", "word": "turtle", "wordID": 1521, "conditions": [12, 1600, "v", 12000], "trial": 2, "serialpos": 4, "trial_type": "single-stim", "trial_index": 93, "time_elapsed": 547843, "internal_node_id": "0.0-66.0"}}, {"uniqueid": "MTK1076:3TUI152ZZCUSBMBTMFXJP6UXKR1Q1W", "current_trial": 94, "dateTime": 1513097802056, "trialdata": {"rt": -1, "stimulus": "<p id=\"stim\">BRANDY</p>", "key_press": -1, "type": "PRES_VIS", "word": "brandy", "wordID": 168, "conditions": [12, 1600, "v", 12000], "trial": 2, "serialpos": 5, "trial_type": "single-stim", "trial_index": 94, "time_elapsed": 550501, "internal_node_id": "0.0-67.0"}}, {"uniqueid": "MTK1076:3TUI152ZZCUSBMBTMFXJP6UXKR1Q1W", "current_trial": 95, "dateTime": 1513097804719, "trialdata": {"rt": -1, "stimulus": "<p id=\"stim\">BOYFRIEND</p>", "key_press": -1, "type": "PRES_VIS", "word": "boyfriend", "wordID": 161, "conditions": [12, 1600, "v", 12000], "trial": 2, "serialpos": 6, "trial_type": "single-stim", "trial_index": 95, "time_elapsed": 553164, "internal_node_id": "0.0-68.0"}}, {"uniqueid": "MTK1076:3TUI152ZZCUSBMBTMFXJP6UXKR1Q1W", "current_trial": 96, "dateTime": 1513097807423, "trialdata": {"rt": -1, "stimulus": "<p id=\"stim\">BROTHER</p>", "key_press": -1, "type": "PRES_VIS", "word": "brother", "wordID": 178, "conditions": [12, 1600, "v", 12000], "trial": 2, "serialpos": 7, "trial_type": "single-stim", "trial_index": 96, "time_elapsed": 555868, "internal_node_id": "0.0-69.0"}}, {"uniqueid": "MTK1076:3TUI152ZZCUSBMBTMFXJP6UXKR1Q1W", "current_trial": 97, "dateTime": 1513097809970, "trialdata": {"rt": -1, "stimulus": "<p id=\"stim\">SCOTCH</p>", "key_press": -1, "type": "PRES_VIS", "word": "scotch", "wordID": 1250, "conditions": [12, 1600, "v", 12000], "trial": 2, "serialpos": 8, "trial_type": "single-stim", "trial_index": 97, "time_elapsed": 558415, "internal_node_id": "0.0-70.0"}}, {"uniqueid": "MTK1076:3TUI152ZZCUSBMBTMFXJP6UXKR1Q1W", "current_trial": 98, "dateTime": 1513097812695, "trialdata": {"rt": -1, "stimulus": "<p id=\"stim\">REPORT</p>", "key_press": -1, "type": "PRES_VIS", "word": "report", "wordID": 1183, "conditions": [12, 1600, "v", 12000], "trial": 2, "serialpos": 9, "trial_type": "single-stim", "trial_index": 98, "time_elapsed": 561140, "internal_node_id": "0.0-71.0"}}, {"uniqueid": "MTK1076:3TUI152ZZCUSBMBTMFXJP6UXKR1Q1W", "current_trial": 99, "dateTime": 1513097815234, "trialdata": {"rt": -1, "stimulus": "<p id=\"stim\">COUCH</p>", "key_press": -1, "type": "PRES_VIS", "word": "couch", "wordID": 385, "conditions": [12, 1600, "v", 12000], "trial": 2, "serialpos": 10, "trial_type": "single-stim", "trial_index": 99, "time_elapsed": 563679, "internal_node_id": "0.0-72.0"}}, {"uniqueid": "MTK1076:3TUI152ZZCUSBMBTMFXJP6UXKR1Q1W", "current_trial": 100, "dateTime": 1513097817910, "trialdata": {"rt": -1, "stimulus": "<p id=\"stim\">LODGE</p>", "key_press": -1, "type": "PRES_VIS", "word": "lodge", "wordID": 838, "conditions": [12, 1600, "v", 12000], "trial": 2, "serialpos": 11, "trial_type": "single-stim", "trial_index": 100, "time_elapsed": 566355, "internal_node_id": "0.0-73.0"}}, {"uniqueid": "MTK1076:3TUI152ZZCUSBMBTMFXJP6UXKR1Q1W", "current_trial": 101, "dateTime": 1513097820253, "trialdata": {"rt": -1, "stimulus": "", "key_press": -1, "type": "PRE_RECALL_DELAY", "trial_type": "single-stim", "trial_index": 101, "time_elapsed": 568698, "internal_node_id": "0.0-74.0-0.0"}}, {"uniqueid": "MTK1076:3TUI152ZZCUSBMBTMFXJP6UXKR1Q1W", "current_trial": 102, "dateTime": 1513097820756, "trialdata": {"rt": -1000, "stimulus": "/static/audio/400Hz.wav", "key_press": -1, "type": "PRE_RECALL_ALERT", "trial_type": "single-audio", "trial_index": 102, "time_elapsed": 569201, "internal_node_id": "0.0-75.0"}}, {"uniqueid": "MTK1076:3TUI152ZZCUSBMBTMFXJP6UXKR1Q1W", "current_trial": 103, "dateTime": 1513097880762, "trialdata": {"rt": [2304, 3707, 10363, 15253, 21008, 23971], "recwords": ["couch", "lounge", "blackboard", "writing", "brandy", "ride"], "type": "FREE_RECALL", "conditions": [12, 1600, "v", 12000], "trial": 2, "trial_type": "free-recall", "trial_index": 103, "time_elapsed": 629204, "internal_node_id": "0.0-76.0-0.0"}}, {"uniqueid": "MTK1076:3TUI152ZZCUSBMBTMFXJP6UXKR1Q1W", "current_trial": 104, "dateTime": 1513097940336, "trialdata": {"rt": 57572, "key_press": 74, "type": "INSTRUCTIONS", "trial_type": "text", "trial_index": 104, "time_elapsed": 688781, "internal_node_id": "0.0-77.0"}}, {"uniqueid": "MTK1076:3TUI152ZZCUSBMBTMFXJP6UXKR1Q1W", "current_trial": 105, "dateTime": 1513097954340, "trialdata": {"rt": [2126, 6010, 8639, 10906], "responses": ["18", "23", "14", "14"], "num1": [6, 6, 5, 8, 7], "num2": [6, 9, 3, 3, 7], "num3": [6, 8, 6, 3, 7], "type": "DISTRACTOR", "conditions": [12, 800, "a", 12000], "trial": 3, "trial_type": "math-distractor", "trial_index": 105, "time_elapsed": 702785, "internal_node_id": "0.0-78.0"}}, {"uniqueid": "MTK1076:3TUI152ZZCUSBMBTMFXJP6UXKR1Q1W", "current_trial": 106, "dateTime": 1513097957341, "trialdata": {"rt": -1, "stimulus": "<p id=\"stim\">10</p>", "key_press": -1, "trial_type": "single-stim", "trial_index": 106, "time_elapsed": 705786, "internal_node_id": "0.0-79.0-0.0"}}, {"uniqueid": "MTK1076:3TUI152ZZCUSBMBTMFXJP6UXKR1Q1W", "current_trial": 107, "dateTime": 1513097958343, "trialdata": {"rt": -1, "stimulus": "<p id=\"stim\">9</p>", "key_press": -1, "trial_type": "single-stim", "trial_index": 107, "time_elapsed": 706788, "internal_node_id": "0.0-79.0-1.0"}}, {"uniqueid": "MTK1076:3TUI152ZZCUSBMBTMFXJP6UXKR1Q1W", "current_trial": 108, "dateTime": 1513097959345, "trialdata": {"rt": -1, "stimulus": "<p id=\"stim\">8</p>", "key_press": -1, "trial_type": "single-stim", "trial_index": 108, "time_elapsed": 707790, "internal_node_id": "0.0-79.0-2.0"}}, {"uniqueid": "MTK1076:3TUI152ZZCUSBMBTMFXJP6UXKR1Q1W", "current_trial": 109, "dateTime": 1513097960346, "trialdata": {"rt": -1, "stimulus": "<p id=\"stim\">7</p>", "key_press": -1, "trial_type": "single-stim", "trial_index": 109, "time_elapsed": 708791, "internal_node_id": "0.0-79.0-3.0"}}, {"uniqueid": "MTK1076:3TUI152ZZCUSBMBTMFXJP6UXKR1Q1W", "current_trial": 110, "dateTime": 1513097961348, "trialdata": {"rt": -1, "stimulus": "<p id=\"stim\">6</p>", "key_press": -1, "trial_type": "single-stim", "trial_index": 110, "time_elapsed": 709793, "internal_node_id": "0.0-79.0-4.0"}}, {"uniqueid": "MTK1076:3TUI152ZZCUSBMBTMFXJP6UXKR1Q1W", "current_trial": 111, "dateTime": 1513097962350, "trialdata": {"rt": -1, "stimulus": "<p id=\"stim\">5</p>", "key_press": -1, "trial_type": "single-stim", "trial_index": 111, "time_elapsed": 710795, "internal_node_id": "0.0-79.0-5.0"}}, {"uniqueid": "MTK1076:3TUI152ZZCUSBMBTMFXJP6UXKR1Q1W", "current_trial": 112, "dateTime": 1513097963351, "trialdata": {"rt": -1, "stimulus": "<p id=\"stim\">4</p>", "key_press": -1, "trial_type": "single-stim", "trial_index": 112, "time_elapsed": 711796, "internal_node_id": "0.0-79.0-6.0"}}, {"uniqueid": "MTK1076:3TUI152ZZCUSBMBTMFXJP6UXKR1Q1W", "current_trial": 113, "dateTime": 1513097964353, "trialdata": {"rt": -1, "stimulus": "<p id=\"stim\">3</p>", "key_press": -1, "trial_type": "single-stim", "trial_index": 113, "time_elapsed": 712798, "internal_node_id": "0.0-79.0-7.0"}}, {"uniqueid": "MTK1076:3TUI152ZZCUSBMBTMFXJP6UXKR1Q1W", "current_trial": 114, "dateTime": 1513097965355, "trialdata": {"rt": -1, "stimulus": "<p id=\"stim\">2</p>", "key_press": -1, "trial_type": "single-stim", "trial_index": 114, "time_elapsed": 713800, "internal_node_id": "0.0-79.0-8.0"}}, {"uniqueid": "MTK1076:3TUI152ZZCUSBMBTMFXJP6UXKR1Q1W", "current_trial": 115, "dateTime": 1513097966356, "trialdata": {"rt": -1, "stimulus": "<p id=\"stim\">1</p>", "key_press": -1, "trial_type": "single-stim", "trial_index": 115, "time_elapsed": 714801, "internal_node_id": "0.0-79.0-9.0"}}, {"uniqueid": "MTK1076:3TUI152ZZCUSBMBTMFXJP6UXKR1Q1W", "current_trial": 116, "dateTime": 1513097967858, "trialdata": {"rt": -1, "stimulus": "<p id=\"stim\">+</p>", "key_press": -1, "type": "FIXATION", "trial_type": "single-stim", "trial_index": 116, "time_elapsed": 716303, "internal_node_id": "0.0-80.0-0.0"}}, {"uniqueid": "MTK1076:3TUI152ZZCUSBMBTMFXJP6UXKR1Q1W", "current_trial": 117, "dateTime": 1513097969801, "trialdata": {"rt": -1000, "stimulus": "/static/audio/wordpool/FOX.wav", "key_press": -1, "type": "PRES_AUD", "word": "fox", "wordID": 597, "conditions": [12, 800, "a", 12000], "trial": 3, "serialpos": 0, "trial_type": "single-audio", "trial_index": 117, "time_elapsed": 718246, "internal_node_id": "0.0-81.0"}}, {"uniqueid": "MTK1076:3TUI152ZZCUSBMBTMFXJP6UXKR1Q1W", "current_trial": 118, "dateTime": 1513097971569, "trialdata": {"rt": -1000, "stimulus": "/static/audio/wordpool/POWDER.wav", "key_press": -1, "type": "PRES_AUD", "word": "powder", "wordID": 1116, "conditions": [12, 800, "a", 12000], "trial": 3, "serialpos": 1, "trial_type": "single-audio", "trial_index": 118, "time_elapsed": 720014, "internal_node_id": "0.0-82.0"}}, {"uniqueid": "MTK1076:3TUI152ZZCUSBMBTMFXJP6UXKR1Q1W", "current_trial": 119, "dateTime": 1513097973321, "trialdata": {"rt": -1000, "stimulus": "/static/audio/wordpool/BEAST.wav", "key_press": -1, "type": "PRES_AUD", "word": "beast", "wordID": 107, "conditions": [12, 800, "a", 12000], "trial": 3, "serialpos": 2, "trial_type": "single-audio", "trial_index": 119, "time_elapsed": 721766, "internal_node_id": "0.0-83.0"}}, {"uniqueid": "MTK1076:3TUI152ZZCUSBMBTMFXJP6UXKR1Q1W", "current_trial": 120, "dateTime": 1513097975028, "trialdata": {"rt": -1000, "stimulus": "/static/audio/wordpool/PANTHER.wav", "key_press": -1, "type": "PRES_AUD", "word": "panther", "wordID": 1008, "conditions": [12, 800, "a", 12000], "trial": 3, "serialpos": 3, "trial_type": "single-audio", "trial_index": 120, "time_elapsed": 723473, "internal_node_id": "0.0-84.0"}}, {"uniqueid": "MTK1076:3TUI152ZZCUSBMBTMFXJP6UXKR1Q1W", "current_trial": 121, "dateTime": 1513097976749, "trialdata": {"rt": -1000, "stimulus": "/static/audio/wordpool/PLAZA.wav", "key_press": -1, "type": "PRES_AUD", "word": "plaza", "wordID": 1087, "conditions": [12, 800, "a", 12000], "trial": 3, "serialpos": 4, "trial_type": "single-audio", "trial_index": 121, "time_elapsed": 725194, "internal_node_id": "0.0-85.0"}}, {"uniqueid": "MTK1076:3TUI152ZZCUSBMBTMFXJP6UXKR1Q1W", "current_trial": 122, "dateTime": 1513097978438, "trialdata": {"rt": -1000, "stimulus": "/static/audio/wordpool/SIDEWALK.wav", "key_press": -1, "type": "PRES_AUD", "word": "sidewalk", "wordID": 1302, "conditions": [12, 800, "a", 12000], "trial": 3, "serialpos": 5, "trial_type": "single-audio", "trial_index": 122, "time_elapsed": 726883, "internal_node_id": "0.0-86.0"}}, {"uniqueid": "MTK1076:3TUI152ZZCUSBMBTMFXJP6UXKR1Q1W", "current_trial": 123, "dateTime": 1513097980279, "trialdata": {"rt": -1000, "stimulus": "/static/audio/wordpool/LOVER.wav", "key_press": -1, "type": "PRES_AUD", "word": "lover", "wordID": 845, "conditions": [12, 800, "a", 12000], "trial": 3, "serialpos": 6, "trial_type": "single-audio", "trial_index": 123, "time_elapsed": 728724, "internal_node_id": "0.0-87.0"}}, {"uniqueid": "MTK1076:3TUI152ZZCUSBMBTMFXJP6UXKR1Q1W", "current_trial": 124, "dateTime": 1513097982204, "trialdata": {"rt": -1000, "stimulus": "/static/audio/wordpool/MARINE.wav", "key_press": -1, "type": "PRES_AUD", "word": "marine", "wordID": 868, "conditions": [12, 800, "a", 12000], "trial": 3, "serialpos": 7, "trial_type": "single-audio", "trial_index": 124, "time_elapsed": 730649, "internal_node_id": "0.0-88.0"}}, {"uniqueid": "MTK1076:3TUI152ZZCUSBMBTMFXJP6UXKR1Q1W", "current_trial": 125, "dateTime": 1513097984027, "trialdata": {"rt": -1000, "stimulus": "/static/audio/wordpool/TORTOISE.wav", "key_press": -1, "type": "PRES_AUD", "word": "tortoise", "wordID": 1485, "conditions": [12, 800, "a", 12000], "trial": 3, "serialpos": 8, "trial_type": "single-audio", "trial_index": 125, "time_elapsed": 732472, "internal_node_id": "0.0-89.0"}}, {"uniqueid": "MTK1076:3TUI152ZZCUSBMBTMFXJP6UXKR1Q1W", "current_trial": 126, "dateTime": 1513097985719, "trialdata": {"rt": -1000, "stimulus": "/static/audio/wordpool/SEAGULL.wav", "key_press": -1, "type": "PRES_AUD", "word": "seagull", "wordID": 1260, "conditions": [12, 800, "a", 12000], "trial": 3, "serialpos": 9, "trial_type": "single-audio", "trial_index": 126, "time_elapsed": 734164, "internal_node_id": "0.0-90.0"}}, {"uniqueid": "MTK1076:3TUI152ZZCUSBMBTMFXJP6UXKR1Q1W", "current_trial": 127, "dateTime": 1513097987518, "trialdata": {"rt": -1000, "stimulus": "/static/audio/wordpool/COWBOY.wav", "key_press": -1, "type": "PRES_AUD", "word": "cowboy", "wordID": 394, "conditions": [12, 800, "a", 12000], "trial": 3, "serialpos": 10, "trial_type": "single-audio", "trial_index": 127, "time_elapsed": 735963, "internal_node_id": "0.0-91.0"}}, {"uniqueid": "MTK1076:3TUI152ZZCUSBMBTMFXJP6UXKR1Q1W", "current_trial": 128, "dateTime": 1513097989518, "trialdata": {"rt": -1000, "stimulus": "/static/audio/wordpool/BANK.wav", "key_press": -1, "type": "PRES_AUD", "word": "bank", "wordID": 82, "conditions": [12, 800, "a", 12000], "trial": 3, "serialpos": 11, "trial_type": "single-audio", "trial_index": 128, "time_elapsed": 737963, "internal_node_id": "0.0-92.0"}}, {"uniqueid": "MTK1076:3TUI152ZZCUSBMBTMFXJP6UXKR1Q1W", "current_trial": 129, "dateTime": 1513097990758, "trialdata": {"rt": -1, "stimulus": "", "key_press": -1, "type": "PRE_RECALL_DELAY", "trial_type": "single-stim", "trial_index": 129, "time_elapsed": 739203, "internal_node_id": "0.0-93.0-0.0"}}, {"uniqueid": "MTK1076:3TUI152ZZCUSBMBTMFXJP6UXKR1Q1W", "current_trial": 130, "dateTime": 1513097991267, "trialdata": {"rt": -1000, "stimulus": "/static/audio/400Hz.wav", "key_press": -1, "type": "PRE_RECALL_ALERT", "trial_type": "single-audio", "trial_index": 130, "time_elapsed": 739712, "internal_node_id": "0.0-94.0"}}, {"uniqueid": "MTK1076:3TUI152ZZCUSBMBTMFXJP6UXKR1Q1W", "current_trial": 131, "dateTime": 1513098051273, "trialdata": {"rt": [2385, 4225, 12357, 19729], "recwords": ["panther", "fences", "rabbit", "panther"], "type": "FREE_RECALL", "conditions": [12, 800, "a", 12000], "trial": 3, "trial_type": "free-recall", "trial_index": 131, "time_elapsed": 799715, "internal_node_id": "0.0-95.0-0.0"}}, {"uniqueid": "MTK1076:3TUI152ZZCUSBMBTMFXJP6UXKR1Q1W", "current_trial": 132, "dateTime": 1513098055543, "trialdata": {"rt": 2268, "key_press": 75, "type": "INSTRUCTIONS", "trial_type": "text", "trial_index": 132, "time_elapsed": 803988, "internal_node_id": "0.0-96.0"}}, {"uniqueid": "MTK1076:3TUI152ZZCUSBMBTMFXJP6UXKR1Q1W", "current_trial": 133, "dateTime": 1513098081546, "trialdata": {"rt": [1592, 3219, 4626, 6427, 9315, 11599, 12754, 16236, 19074, 22090], "responses": ["18", "15", "4", "15", "24", "12", "4", "15", "14", "12"], "num1": [8, 1, 2, 2, 8, 6, 1, 8, 2, 2, 8], "num2": [2, 8, 1, 5, 9, 2, 2, 3, 4, 3, 5], "num3": [8, 6, 1, 8, 7, 4, 1, 4, 8, 7, 8], "type": "DISTRACTOR", "conditions": [24, 1600, "v", 24000], "trial": 4, "trial_type": "math-distractor", "trial_index": 133, "time_elapsed": 829991, "internal_node_id": "0.0-97.0"}}, {"uniqueid": "MTK1076:3TUI152ZZCUSBMBTMFXJP6UXKR1Q1W", "current_trial": 134, "dateTime": 1513098084548, "trialdata": {"rt": -1, "stimulus": "<p id=\"stim\">10</p>", "key_press": -1, "trial_type": "single-stim", "trial_index": 134, "time_elapsed": 832993, "internal_node_id": "0.0-98.0-0.0"}}, {"uniqueid": "MTK1076:3TUI152ZZCUSBMBTMFXJP6UXKR1Q1W", "current_trial": 135, "dateTime": 1513098085550, "trialdata": {"rt": -1, "stimulus": "<p id=\"stim\">9</p>", "key_press": -1, "trial_type": "single-stim", "trial_index": 135, "time_elapsed": 833995, "internal_node_id": "0.0-98.0-1.0"}}, {"uniqueid": "MTK1076:3TUI152ZZCUSBMBTMFXJP6UXKR1Q1W", "current_trial": 136, "dateTime": 1513098086553, "trialdata": {"rt": -1, "stimulus": "<p id=\"stim\">8</p>", "key_press": -1, "trial_type": "single-stim", "trial_index": 136, "time_elapsed": 834997, "internal_node_id": "0.0-98.0-2.0"}}, {"uniqueid": "MTK1076:3TUI152ZZCUSBMBTMFXJP6UXKR1Q1W", "current_trial": 137, "dateTime": 1513098087553, "trialdata": {"rt": -1, "stimulus": "<p id=\"stim\">7</p>", "key_press": -1, "trial_type": "single-stim", "trial_index": 137, "time_elapsed": 835998, "internal_node_id": "0.0-98.0-3.0"}}, {"uniqueid": "MTK1076:3TUI152ZZCUSBMBTMFXJP6UXKR1Q1W", "current_trial": 138, "dateTime": 1513098088556, "trialdata": {"rt": -1, "stimulus": "<p id=\"stim\">6</p>", "key_press": -1, "trial_type": "single-stim", "trial_index": 138, "time_elapsed": 837000, "internal_node_id": "0.0-98.0-4.0"}}, {"uniqueid": "MTK1076:3TUI152ZZCUSBMBTMFXJP6UXKR1Q1W", "current_trial": 139, "dateTime": 1513098089557, "trialdata": {"rt": -1, "stimulus": "<p id=\"stim\">5</p>", "key_press": -1, "trial_type": "single-stim", "trial_index": 139, "time_elapsed": 838002, "internal_node_id": "0.0-98.0-5.0"}}, {"uniqueid": "MTK1076:3TUI152ZZCUSBMBTMFXJP6UXKR1Q1W", "current_trial": 140, "dateTime": 1513098090558, "trialdata": {"rt": -1, "stimulus": "<p id=\"stim\">4</p>", "key_press": -1, "trial_type": "single-stim", "trial_index": 140, "time_elapsed": 839003, "internal_node_id": "0.0-98.0-6.0"}}, {"uniqueid": "MTK1076:3TUI152ZZCUSBMBTMFXJP6UXKR1Q1W", "current_trial": 141, "dateTime": 1513098091560, "trialdata": {"rt": -1, "stimulus": "<p id=\"stim\">3</p>", "key_press": -1, "trial_type": "single-stim", "trial_index": 141, "time_elapsed": 840005, "internal_node_id": "0.0-98.0-7.0"}}, {"uniqueid": "MTK1076:3TUI152ZZCUSBMBTMFXJP6UXKR1Q1W", "current_trial": 142, "dateTime": 1513098092562, "trialdata": {"rt": -1, "stimulus": "<p id=\"stim\">2</p>", "key_press": -1, "trial_type": "single-stim", "trial_index": 142, "time_elapsed": 841007, "internal_node_id": "0.0-98.0-8.0"}}, {"uniqueid": "MTK1076:3TUI152ZZCUSBMBTMFXJP6UXKR1Q1W", "current_trial": 143, "dateTime": 1513098093563, "trialdata": {"rt": -1, "stimulus": "<p id=\"stim\">1</p>", "key_press": -1, "trial_type": "single-stim", "trial_index": 143, "time_elapsed": 842008, "internal_node_id": "0.0-98.0-9.0"}}, {"uniqueid": "MTK1076:3TUI152ZZCUSBMBTMFXJP6UXKR1Q1W", "current_trial": 144, "dateTime": 1513098095065, "trialdata": {"rt": -1, "stimulus": "<p id=\"stim\">+</p>", "key_press": -1, "type": "FIXATION", "trial_type": "single-stim", "trial_index": 144, "time_elapsed": 843510, "internal_node_id": "0.0-99.0-0.0"}}, {"uniqueid": "MTK1076:3TUI152ZZCUSBMBTMFXJP6UXKR1Q1W", "current_trial": 145, "dateTime": 1513098096666, "trialdata": {"rt": -1, "stimulus": "<p id=\"stim\">LASER</p>", "key_press": -1, "type": "PRES_VIS", "word": "laser", "wordID": 800, "conditions": [24, 1600, "v", 24000], "trial": 4, "serialpos": 0, "trial_type": "single-stim", "trial_index": 145, "time_elapsed": 845111, "internal_node_id": "0.0-100.0"}}, {"uniqueid": "MTK1076:3TUI152ZZCUSBMBTMFXJP6UXKR1Q1W", "current_trial": 146, "dateTime": 1513098099233, "trialdata": {"rt": -1, "stimulus": "<p id=\"stim\">RIVER</p>", "key_press": -1, "type": "PRES_VIS", "word": "river", "wordID": 1193, "conditions": [24, 1600, "v", 24000], "trial": 4, "serialpos": 1, "trial_type": "single-stim", "trial_index": 146, "time_elapsed": 847678, "internal_node_id": "0.0-101.0"}}, {"uniqueid": "MTK1076:3TUI152ZZCUSBMBTMFXJP6UXKR1Q1W", "current_trial": 147, "dateTime": 1513098101927, "trialdata": {"rt": -1, "stimulus": "<p id=\"stim\">HUMAN</p>", "key_press": -1, "type": "PRES_VIS", "word": "human", "wordID": 725, "conditions": [24, 1600, "v", 24000], "trial": 4, "serialpos": 2, "trial_type": "single-stim", "trial_index": 147, "time_elapsed": 850372, "internal_node_id": "0.0-102.0"}}, {"uniqueid": "MTK1076:3TUI152ZZCUSBMBTMFXJP6UXKR1Q1W", "current_trial": 148, "dateTime": 1513098104339, "trialdata": {"rt": -1, "stimulus": "<p id=\"stim\">NEUTRON</p>", "key_press": -1, "type": "PRES_VIS", "word": "neutron", "wordID": 946, "conditions": [24, 1600, "v", 24000], "trial": 4, "serialpos": 3, "trial_type": "single-stim", "trial_index": 148, "time_elapsed": 852784, "internal_node_id": "0.0-103.0"}}, {"uniqueid": "MTK1076:3TUI152ZZCUSBMBTMFXJP6UXKR1Q1W", "current_trial": 149, "dateTime": 1513098106878, "trialdata": {"rt": -1, "stimulus": "<p id=\"stim\">DOLPHIN</p>", "key_press": -1, "type": "PRES_VIS", "word": "dolphin", "wordID": 482, "conditions": [24, 1600, "v", 24000], "trial": 4, "serialpos": 4, "trial_type": "single-stim", "trial_index": 149, "time_elapsed": 855323, "internal_node_id": "0.0-104.0"}}, {"uniqueid": "MTK1076:3TUI152ZZCUSBMBTMFXJP6UXKR1Q1W", "current_trial": 150, "dateTime": 1513098109439, "trialdata": {"rt": -1, "stimulus": "<p id=\"stim\">SCISSORS</p>", "key_press": -1, "type": "PRES_VIS", "word": "scissors", "wordID": 1249, "conditions": [24, 1600, "v", 24000], "trial": 4, "serialpos": 5, "trial_type": "single-stim", "trial_index": 150, "time_elapsed": 857884, "internal_node_id": "0.0-105.0"}}, {"uniqueid": "MTK1076:3TUI152ZZCUSBMBTMFXJP6UXKR1Q1W", "current_trial": 151, "dateTime": 1513098112014, "trialdata": {"rt": -1, "stimulus": "<p id=\"stim\">OYSTER</p>", "key_press": -1, "type": "PRES_VIS", "word": "oyster", "wordID": 994, "conditions": [24, 1600, "v", 24000], "trial": 4, "serialpos": 6, "trial_type": "single-stim", "trial_index": 151, "time_elapsed": 860459, "internal_node_id": "0.0-106.0"}}, {"uniqueid": "MTK1076:3TUI152ZZCUSBMBTMFXJP6UXKR1Q1W", "current_trial": 152, "dateTime": 1513098114421, "trialdata": {"rt": -1, "stimulus": "<p id=\"stim\">SUPPER</p>", "key_press": -1, "type": "PRES_VIS", "word": "supper", "wordID": 1410, "conditions": [24, 1600, "v", 24000], "trial": 4, "serialpos": 7, "trial_type": "single-stim", "trial_index": 152, "time_elapsed": 862866, "internal_node_id": "0.0-107.0"}}, {"uniqueid": "MTK1076:3TUI152ZZCUSBMBTMFXJP6UXKR1Q1W", "current_trial": 153, "dateTime": 1513098116976, "trialdata": {"rt": -1, "stimulus": "<p id=\"stim\">DINER</p>", "key_press": -1, "type": "PRES_VIS", "word": "diner", "wordID": 466, "conditions": [24, 1600, "v", 24000], "trial": 4, "serialpos": 8, "trial_type": "single-stim", "trial_index": 153, "time_elapsed": 865421, "internal_node_id": "0.0-108.0"}}, {"uniqueid": "MTK1076:3TUI152ZZCUSBMBTMFXJP6UXKR1Q1W", "current_trial": 154, "dateTime": 1513098119736, "trialdata": {"rt": -1, "stimulus": "<p id=\"stim\">CAFE</p>", "key_press": -1, "type": "PRES_VIS", "word": "cafe", "wordID": 215, "conditions": [24, 1600, "v", 24000], "trial": 4, "serialpos": 9, "trial_type": "single-stim", "trial_index": 154, "time_elapsed": 868181, "internal_node_id": "0.0-109.0"}}, {"uniqueid": "MTK1076:3TUI152ZZCUSBMBTMFXJP6UXKR1Q1W", "current_trial": 155, "dateTime": 1513098122386, "trialdata": {"rt": -1, "stimulus": "<p id=\"stim\">PENGUIN</p>", "key_press": -1, "type": "PRES_VIS", "word": "penguin", "wordID": 1043, "conditions": [24, 1600, "v", 24000], "trial": 4, "serialpos": 10, "trial_type": "single-stim", "trial_index": 155, "time_elapsed": 870831, "internal_node_id": "0.0-110.0"}}, {"uniqueid": "MTK1076:3TUI152ZZCUSBMBTMFXJP6UXKR1Q1W", "current_trial": 156, "dateTime": 1513098124952, "trialdata": {"rt": -1, "stimulus": "<p id=\"stim\">GARBAGE</p>", "key_press": -1, "type": "PRES_VIS", "word": "garbage", "wordID": 621, "conditions": [24, 1600, "v", 24000], "trial": 4, "serialpos": 11, "trial_type": "single-stim", "trial_index": 156, "time_elapsed": 873397, "internal_node_id": "0.0-111.0"}}, {"uniqueid": "MTK1076:3TUI152ZZCUSBMBTMFXJP6UXKR1Q1W", "current_trial": 157, "dateTime": 1513098127394, "trialdata": {"rt": -1, "stimulus": "<p id=\"stim\">STALLION</p>", "key_press": -1, "type": "PRES_VIS", "word": "stallion", "wordID": 1368, "conditions": [24, 1600, "v", 24000], "trial": 4, "serialpos": 12, "trial_type": "single-stim", "trial_index": 157, "time_elapsed": 875839, "internal_node_id": "0.0-112.0"}}, {"uniqueid": "MTK1076:3TUI152ZZCUSBMBTMFXJP6UXKR1Q1W", "current_trial": 158, "dateTime": 1513098129987, "trialdata": {"rt": -1, "stimulus": "<p id=\"stim\">HORNET</p>", "key_press": -1, "type": "PRES_VIS", "word": "hornet", "wordID": 717, "conditions": [24, 1600, "v", 24000], "trial": 4, "serialpos": 13, "trial_type": "single-stim", "trial_index": 158, "time_elapsed": 878432, "internal_node_id": "0.0-113.0"}}, {"uniqueid": "MTK1076:3TUI152ZZCUSBMBTMFXJP6UXKR1Q1W", "current_trial": 159, "dateTime": 1513098132575, "trialdata": {"rt": -1, "stimulus": "<p id=\"stim\">PLIERS</p>", "key_press": -1, "type": "PRES_VIS", "word": "pliers", "wordID": 1088, "conditions": [24, 1600, "v", 24000], "trial": 4, "serialpos": 14, "trial_type": "single-stim", "trial_index": 159, "time_elapsed": 881019, "internal_node_id": "0.0-114.0"}}, {"uniqueid": "MTK1076:3TUI152ZZCUSBMBTMFXJP6UXKR1Q1W", "current_trial": 160, "dateTime": 1513098135347, "trialdata": {"rt": -1, "stimulus": "<p id=\"stim\">DRESS</p>", "key_press": -1, "type": "PRES_VIS", "word": "dress", "wordID": 494, "conditions": [24, 1600, "v", 24000], "trial": 4, "serialpos": 15, "trial_type": "single-stim", "trial_index": 160, "time_elapsed": 883790, "internal_node_id": "0.0-115.0"}}, {"uniqueid": "MTK1076:3TUI152ZZCUSBMBTMFXJP6UXKR1Q1W", "current_trial": 161, "dateTime": 1513098137790, "trialdata": {"rt": -1, "stimulus": "<p id=\"stim\">LIZARD</p>", "key_press": -1, "type": "PRES_VIS", "word": "lizard", "wordID": 833, "conditions": [24, 1600, "v", 24000], "trial": 4, "serialpos": 16, "trial_type": "single-stim", "trial_index": 161, "time_elapsed": 886235, "internal_node_id": "0.0-116.0"}}, {"uniqueid": "MTK1076:3TUI152ZZCUSBMBTMFXJP6UXKR1Q1W", "current_trial": 162, "dateTime": 1513098140574, "trialdata": {"rt": -1, "stimulus": "<p id=\"stim\">VALVE</p>", "key_press": -1, "type": "PRES_VIS", "word": "valve", "wordID": 1545, "conditions": [24, 1600, "v", 24000], "trial": 4, "serialpos": 17, "trial_type": "single-stim", "trial_index": 162, "time_elapsed": 889019, "internal_node_id": "0.0-117.0"}}, {"uniqueid": "MTK1076:3TUI152ZZCUSBMBTMFXJP6UXKR1Q1W", "current_trial": 163, "dateTime": 1513098143240, "trialdata": {"rt": -1, "stimulus": "<p id=\"stim\">ATLAS</p>", "key_press": -1, "type": "PRES_VIS", "word": "atlas", "wordID": 52, "conditions": [24, 1600, "v", 24000], "trial": 4, "serialpos": 18, "trial_type": "single-stim", "trial_index": 163, "time_elapsed": 891685, "internal_node_id": "0.0-118.0"}}, {"uniqueid": "MTK1076:3TUI152ZZCUSBMBTMFXJP6UXKR1Q1W", "current_trial": 164, "dateTime": 1513098146037, "trialdata": {"rt": -1, "stimulus": "<p id=\"stim\">SURVEY</p>", "key_press": -1, "type": "PRES_VIS", "word": "survey", "wordID": 1413, "conditions": [24, 1600, "v", 24000], "trial": 4, "serialpos": 19, "trial_type": "single-stim", "trial_index": 164, "time_elapsed": 894482, "internal_node_id": "0.0-119.0"}}, {"uniqueid": "MTK1076:3TUI152ZZCUSBMBTMFXJP6UXKR1Q1W", "current_trial": 165, "dateTime": 1513098148818, "trialdata": {"rt": -1, "stimulus": "<p id=\"stim\">KNAPSACK</p>", "key_press": -1, "type": "PRES_VIS", "word": "knapsack", "wordID": 782, "conditions": [24, 1600, "v", 24000], "trial": 4, "serialpos": 20, "trial_type": "single-stim", "trial_index": 165, "time_elapsed": 897263, "internal_node_id": "0.0-120.0"}}, {"uniqueid": "MTK1076:3TUI152ZZCUSBMBTMFXJP6UXKR1Q1W", "current_trial": 166, "dateTime": 1513098151509, "trialdata": {"rt": -1, "stimulus": "<p id=\"stim\">WASP</p>", "key_press": -1, "type": "PRES_VIS", "word": "wasp", "wordID": 1592, "conditions": [24, 1600, "v", 24000], "trial": 4, "serialpos": 21, "trial_type": "single-stim", "trial_index": 166, "time_elapsed": 899954, "internal_node_id": "0.0-121.0"}}, {"uniqueid": "MTK1076:3TUI152ZZCUSBMBTMFXJP6UXKR1Q1W", "current_trial": 167, "dateTime": 1513098154063, "trialdata": {"rt": -1, "stimulus": "<p id=\"stim\">FOREHEAD</p>", "key_press": -1, "type": "PRES_VIS", "word": "forehead", "wordID": 591, "conditions": [24, 1600, "v", 24000], "trial": 4, "serialpos": 22, "trial_type": "single-stim", "trial_index": 167, "time_elapsed": 902508, "internal_node_id": "0.0-122.0"}}, {"uniqueid": "MTK1076:3TUI152ZZCUSBMBTMFXJP6UXKR1Q1W", "current_trial": 168, "dateTime": 1513098156790, "trialdata": {"rt": -1, "stimulus": "<p id=\"stim\">CHEST</p>", "key_press": -1, "type": "PRES_VIS", "word": "chest", "wordID": 294, "conditions": [24, 1600, "v", 24000], "trial": 4, "serialpos": 23, "trial_type": "single-stim", "trial_index": 168, "time_elapsed": 905235, "internal_node_id": "0.0-123.0"}}, {"uniqueid": "MTK1076:3TUI152ZZCUSBMBTMFXJP6UXKR1Q1W", "current_trial": 169, "dateTime": 1513098158978, "trialdata": {"rt": -1, "stimulus": "", "key_press": -1, "type": "PRE_RECALL_DELAY", "trial_type": "single-stim", "trial_index": 169, "time_elapsed": 907423, "internal_node_id": "0.0-124.0-0.0"}}, {"uniqueid": "MTK1076:3TUI152ZZCUSBMBTMFXJP6UXKR1Q1W", "current_trial": 170, "dateTime": 1513098159488, "trialdata": {"rt": -1000, "stimulus": "/static/audio/400Hz.wav", "key_press": -1, "type": "PRE_RECALL_ALERT", "trial_type": "single-audio", "trial_index": 170, "time_elapsed": 907933, "internal_node_id": "0.0-125.0"}}, {"uniqueid": "MTK1076:3TUI152ZZCUSBMBTMFXJP6UXKR1Q1W", "current_trial": 171, "dateTime": 1513098219495, "trialdata": {"rt": [1938, 3507, 5447, 7574, 13279, 23109, 57972], "recwords": ["knapsack", "wasp", "laser", "river", "hornet", "diner", "atlas"], "type": "FREE_RECALL", "conditions": [24, 1600, "v", 24000], "trial": 4, "trial_type": "free-recall", "trial_index": 171, "time_elapsed": 967936, "internal_node_id": "0.0-126.0-0.0"}}, {"uniqueid": "MTK1076:3TUI152ZZCUSBMBTMFXJP6UXKR1Q1W", "current_trial": 172, "dateTime": 1513098222891, "trialdata": {"rt": 1394, "key_press": 71, "type": "INSTRUCTIONS", "trial_type": "text", "trial_index": 172, "time_elapsed": 971336, "internal_node_id": "0.0-127.0"}}, {"uniqueid": "MTK1076:3TUI152ZZCUSBMBTMFXJP6UXKR1Q1W", "current_trial": 173, "dateTime": 1513098248895, "trialdata": {"rt": [3175, 6601, 8530, 10121, 13989, 17313, 19007, 20831, 23625], "responses": ["16", "13", "12", "10", "12", "16", "10", "16", "16"], "num1": [6, 7, 3, 4, 4, 3, 2, 2, 4, 8], "num2": [7, 2, 5, 1, 7, 9, 4, 5, 7, 2], "num3": [3, 4, 4, 5, 1, 4, 4, 9, 5, 3], "type": "DISTRACTOR", "conditions": [12, 1600, "v", 24000], "trial": 5, "trial_type": "math-distractor", "trial_index": 173, "time_elapsed": 997340, "internal_node_id": "0.0-128.0"}}, {"uniqueid": "MTK1076:3TUI152ZZCUSBMBTMFXJP6UXKR1Q1W", "current_trial": 174, "dateTime": 1513098251897, "trialdata": {"rt": -1, "stimulus": "<p id=\"stim\">10</p>", "key_press": -1, "trial_type": "single-stim", "trial_index": 174, "time_elapsed": 1000342, "internal_node_id": "0.0-129.0-0.0"}}, {"uniqueid": "MTK1076:3TUI152ZZCUSBMBTMFXJP6UXKR1Q1W", "current_trial": 175, "dateTime": 1513098252899, "trialdata": {"rt": -1, "stimulus": "<p id=\"stim\">9</p>", "key_press": -1, "trial_type": "single-stim", "trial_index": 175, "time_elapsed": 1001344, "internal_node_id": "0.0-129.0-1.0"}}, {"uniqueid": "MTK1076:3TUI152ZZCUSBMBTMFXJP6UXKR1Q1W", "current_trial": 176, "dateTime": 1513098253900, "trialdata": {"rt": -1, "stimulus": "<p id=\"stim\">8</p>", "key_press": -1, "trial_type": "single-stim", "trial_index": 176, "time_elapsed": 1002345, "internal_node_id": "0.0-129.0-2.0"}}, {"uniqueid": "MTK1076:3TUI152ZZCUSBMBTMFXJP6UXKR1Q1W", "current_trial": 177, "dateTime": 1513098254902, "trialdata": {"rt": -1, "stimulus": "<p id=\"stim\">7</p>", "key_press": -1, "trial_type": "single-stim", "trial_index": 177, "time_elapsed": 1003347, "internal_node_id": "0.0-129.0-3.0"}}, {"uniqueid": "MTK1076:3TUI152ZZCUSBMBTMFXJP6UXKR1Q1W", "current_trial": 178, "dateTime": 1513098255904, "trialdata": {"rt": -1, "stimulus": "<p id=\"stim\">6</p>", "key_press": -1, "trial_type": "single-stim", "trial_index": 178, "time_elapsed": 1004349, "internal_node_id": "0.0-129.0-4.0"}}, {"uniqueid": "MTK1076:3TUI152ZZCUSBMBTMFXJP6UXKR1Q1W", "current_trial": 179, "dateTime": 1513098256905, "trialdata": {"rt": -1, "stimulus": "<p id=\"stim\">5</p>", "key_press": -1, "trial_type": "single-stim", "trial_index": 179, "time_elapsed": 1005350, "internal_node_id": "0.0-129.0-5.0"}}, {"uniqueid": "MTK1076:3TUI152ZZCUSBMBTMFXJP6UXKR1Q1W", "current_trial": 180, "dateTime": 1513098257907, "trialdata": {"rt": -1, "stimulus": "<p id=\"stim\">4</p>", "key_press": -1, "trial_type": "single-stim", "trial_index": 180, "time_elapsed": 1006352, "internal_node_id": "0.0-129.0-6.0"}}, {"uniqueid": "MTK1076:3TUI152ZZCUSBMBTMFXJP6UXKR1Q1W", "current_trial": 181, "dateTime": 1513098258909, "trialdata": {"rt": -1, "stimulus": "<p id=\"stim\">3</p>", "key_press": -1, "trial_type": "single-stim", "trial_index": 181, "time_elapsed": 1007354, "internal_node_id": "0.0-129.0-7.0"}}, {"uniqueid": "MTK1076:3TUI152ZZCUSBMBTMFXJP6UXKR1Q1W", "current_trial": 182, "dateTime": 1513098259910, "trialdata": {"rt": -1, "stimulus": "<p id=\"stim\">2</p>", "key_press": -1, "trial_type": "single-stim", "trial_index": 182, "time_elapsed": 1008355, "internal_node_id": "0.0-129.0-8.0"}}, {"uniqueid": "MTK1076:3TUI152ZZCUSBMBTMFXJP6UXKR1Q1W", "current_trial": 183, "dateTime": 1513098260912, "trialdata": {"rt": -1, "stimulus": "<p id=\"stim\">1</p>", "key_press": -1, "trial_type": "single-stim", "trial_index": 183, "time_elapsed": 1009357, "internal_node_id": "0.0-129.0-9.0"}}, {"uniqueid": "MTK1076:3TUI152ZZCUSBMBTMFXJP6UXKR1Q1W", "current_trial": 184, "dateTime": 1513098262414, "trialdata": {"rt": -1, "stimulus": "<p id=\"stim\">+</p>", "key_press": -1, "type": "FIXATION", "trial_type": "single-stim", "trial_index": 184, "time_elapsed": 1010859, "internal_node_id": "0.0-130.0-0.0"}}, {"uniqueid": "MTK1076:3TUI152ZZCUSBMBTMFXJP6UXKR1Q1W", "current_trial": 185, "dateTime": 1513098264016, "trialdata": {"rt": -1, "stimulus": "<p id=\"stim\">GUITAR</p>", "key_press": -1, "type": "PRES_VIS", "word": "guitar", "wordID": 669, "conditions": [12, 1600, "v", 24000], "trial": 5, "serialpos": 0, "trial_type": "single-stim", "trial_index": 185, "time_elapsed": 1012461, "internal_node_id": "0.0-131.0"}}, {"uniqueid": "MTK1076:3TUI152ZZCUSBMBTMFXJP6UXKR1Q1W", "current_trial": 186, "dateTime": 1513098266676, "trialdata": {"rt": -1, "stimulus": "<p id=\"stim\">HARP</p>", "key_press": -1, "type": "PRES_VIS", "word": "harp", "wordID": 688, "conditions": [12, 1600, "v", 24000], "trial": 5, "serialpos": 1, "trial_type": "single-stim", "trial_index": 186, "time_elapsed": 1015121, "internal_node_id": "0.0-132.0"}}, {"uniqueid": "MTK1076:3TUI152ZZCUSBMBTMFXJP6UXKR1Q1W", "current_trial": 187, "dateTime": 1513098269470, "trialdata": {"rt": -1, "stimulus": "<p id=\"stim\">STATUE</p>", "key_press": -1, "type": "PRES_VIS", "word": "statue", "wordID": 1373, "conditions": [12, 1600, "v", 24000], "trial": 5, "serialpos": 2, "trial_type": "single-stim", "trial_index": 187, "time_elapsed": 1017915, "internal_node_id": "0.0-133.0"}}, {"uniqueid": "MTK1076:3TUI152ZZCUSBMBTMFXJP6UXKR1Q1W", "current_trial": 188, "dateTime": 1513098272187, "trialdata": {"rt": -1, "stimulus": "<p id=\"stim\">SILK</p>", "key_press": -1, "type": "PRES_VIS", "word": "silk", "wordID": 1306, "conditions": [12, 1600, "v", 24000], "trial": 5, "serialpos": 3, "trial_type": "single-stim", "trial_index": 188, "time_elapsed": 1020632, "internal_node_id": "0.0-134.0"}}, {"uniqueid": "MTK1076:3TUI152ZZCUSBMBTMFXJP6UXKR1Q1W", "current_trial": 189, "dateTime": 1513098274721, "trialdata": {"rt": -1, "stimulus": "<p id=\"stim\">WRIST</p>", "key_press": -1, "type": "PRES_VIS", "word": "wrist", "wordID": 1625, "conditions": [12, 1600, "v", 24000], "trial": 5, "serialpos": 4, "trial_type": "single-stim", "trial_index": 189, "time_elapsed": 1023166, "internal_node_id": "0.0-135.0"}}, {"uniqueid": "MTK1076:3TUI152ZZCUSBMBTMFXJP6UXKR1Q1W", "current_trial": 190, "dateTime": 1513098277482, "trialdata": {"rt": -1, "stimulus": "<p id=\"stim\">DUST</p>", "key_press": -1, "type": "PRES_VIS", "word": "dust", "wordID": 507, "conditions": [12, 1600, "v", 24000], "trial": 5, "serialpos": 5, "trial_type": "single-stim", "trial_index": 190, "time_elapsed": 1025927, "internal_node_id": "0.0-136.0"}}, {"uniqueid": "MTK1076:3TUI152ZZCUSBMBTMFXJP6UXKR1Q1W", "current_trial": 191, "dateTime": 1513098280051, "trialdata": {"rt": -1, "stimulus": "<p id=\"stim\">WORLD</p>", "key_press": -1, "type": "PRES_VIS", "word": "world", "wordID": 1621, "conditions": [12, 1600, "v", 24000], "trial": 5, "serialpos": 6, "trial_type": "single-stim", "trial_index": 191, "time_elapsed": 1028496, "internal_node_id": "0.0-137.0"}}, {"uniqueid": "MTK1076:3TUI152ZZCUSBMBTMFXJP6UXKR1Q1W", "current_trial": 192, "dateTime": 1513098282552, "trialdata": {"rt": -1, "stimulus": "<p id=\"stim\">ELBOW</p>", "key_press": -1, "type": "PRES_VIS", "word": "elbow", "wordID": 519, "conditions": [12, 1600, "v", 24000], "trial": 5, "serialpos": 7, "trial_type": "single-stim", "trial_index": 192, "time_elapsed": 1030997, "internal_node_id": "0.0-138.0"}}, {"uniqueid": "MTK1076:3TUI152ZZCUSBMBTMFXJP6UXKR1Q1W", "current_trial": 193, "dateTime": 1513098285130, "trialdata": {"rt": -1, "stimulus": "<p id=\"stim\">RUG</p>", "key_press": -1, "type": "PRES_VIS", "word": "rug", "wordID": 1214, "conditions": [12, 1600, "v", 24000], "trial": 5, "serialpos": 8, "trial_type": "single-stim", "trial_index": 193, "time_elapsed": 1033574, "internal_node_id": "0.0-139.0"}}, {"uniqueid": "MTK1076:3TUI152ZZCUSBMBTMFXJP6UXKR1Q1W", "current_trial": 194, "dateTime": 1513098287744, "trialdata": {"rt": -1, "stimulus": "<p id=\"stim\">BADGE</p>", "key_press": -1, "type": "PRES_VIS", "word": "badge", "wordID": 67, "conditions": [12, 1600, "v", 24000], "trial": 5, "serialpos": 9, "trial_type": "single-stim", "trial_index": 194, "time_elapsed": 1036189, "internal_node_id": "0.0-140.0"}}, {"uniqueid": "MTK1076:3TUI152ZZCUSBMBTMFXJP6UXKR1Q1W", "current_trial": 195, "dateTime": 1513098290457, "trialdata": {"rt": -1, "stimulus": "<p id=\"stim\">SHERIFF</p>", "key_press": -1, "type": "PRES_VIS", "word": "sheriff", "wordID": 1283, "conditions": [12, 1600, "v", 24000], "trial": 5, "serialpos": 10, "trial_type": "single-stim", "trial_index": 195, "time_elapsed": 1038902, "internal_node_id": "0.0-141.0"}}, {"uniqueid": "MTK1076:3TUI152ZZCUSBMBTMFXJP6UXKR1Q1W", "current_trial": 196, "dateTime": 1513098293120, "trialdata": {"rt": -1, "stimulus": "<p id=\"stim\">EMPIRE</p>", "key_press": -1, "type": "PRES_VIS", "word": "empire", "wordID": 529, "conditions": [12, 1600, "v", 24000], "trial": 5, "serialpos": 11, "trial_type": "single-stim", "trial_index": 196, "time_elapsed": 1041565, "internal_node_id": "0.0-142.0"}}, {"uniqueid": "MTK1076:3TUI152ZZCUSBMBTMFXJP6UXKR1Q1W", "current_trial": 197, "dateTime": 1513098295340, "trialdata": {"rt": -1, "stimulus": "", "key_press": -1, "type": "PRE_RECALL_DELAY", "trial_type": "single-stim", "trial_index": 197, "time_elapsed": 1043785, "internal_node_id": "0.0-143.0-0.0"}}, {"uniqueid": "MTK1076:3TUI152ZZCUSBMBTMFXJP6UXKR1Q1W", "current_trial": 198, "dateTime": 1513098295843, "trialdata": {"rt": -1000, "stimulus": "/static/audio/400Hz.wav", "key_press": -1, "type": "PRE_RECALL_ALERT", "trial_type": "single-audio", "trial_index": 198, "time_elapsed": 1044288, "internal_node_id": "0.0-144.0"}}, {"uniqueid": "MTK1076:3TUI152ZZCUSBMBTMFXJP6UXKR1Q1W", "current_trial": 199, "dateTime": 1513098355851, "trialdata": {"rt": [4842, 5982, 9703, 11491, 14398, 17331, 20824], "recwords": ["guitar", "harp", "statue", "sherrifff", "empire", "elbow", "arm"], "type": "FREE_RECALL", "conditions": [12, 1600, "v", 24000], "trial": 5, "trial_type": "free-recall", "trial_index": 199, "time_elapsed": 1104292, "internal_node_id": "0.0-145.0-0.0"}}, {"uniqueid": "MTK1076:3TUI152ZZCUSBMBTMFXJP6UXKR1Q1W", "current_trial": 200, "dateTime": 1513098376917, "trialdata": {"rt": 19064, "key_press": 72, "type": "INSTRUCTIONS", "trial_type": "text", "trial_index": 200, "time_elapsed": 1125361, "internal_node_id": "0.0-146.0"}}, {"uniqueid": "MTK1076:3TUI152ZZCUSBMBTMFXJP6UXKR1Q1W", "current_trial": 201, "dateTime": 1513098402920, "trialdata": {"rt": [2007, 3272, 4680, 7285, 10282, 11861, 14199, 16486, 20080, 21360, 23939], "responses": ["8", "16", "9", "18", "20", "15", "17", "12", "21", "18", "14"], "num1": [1, 9, 2, 7, 7, 8, 8, 6, 9, 6, 7, 1], "num2": [6, 1, 1, 9, 8, 5, 5, 3, 6, 4, 2, 7], "num3": [1, 6, 6, 2, 5, 2, 4, 3, 6, 8, 5, 1], "type": "DISTRACTOR", "conditions": [24, 800, "v", 24000], "trial": 6, "trial_type": "math-distractor", "trial_index": 201, "time_elapsed": 1151365, "internal_node_id": "0.0-147.0"}}, {"uniqueid": "MTK1076:3TUI152ZZCUSBMBTMFXJP6UXKR1Q1W", "current_trial": 202, "dateTime": 1513098405922, "trialdata": {"rt": -1, "stimulus": "<p id=\"stim\">10</p>", "key_press": -1, "trial_type": "single-stim", "trial_index": 202, "time_elapsed": 1154367, "internal_node_id": "0.0-148.0-0.0"}}, {"uniqueid": "MTK1076:3TUI152ZZCUSBMBTMFXJP6UXKR1Q1W", "current_trial": 203, "dateTime": 1513098406924, "trialdata": {"rt": -1, "stimulus": "<p id=\"stim\">9</p>", "key_press": -1, "trial_type": "single-stim", "trial_index": 203, "time_elapsed": 1155369, "internal_node_id": "0.0-148.0-1.0"}}, {"uniqueid": "MTK1076:3TUI152ZZCUSBMBTMFXJP6UXKR1Q1W", "current_trial": 204, "dateTime": 1513098407926, "trialdata": {"rt": -1, "stimulus": "<p id=\"stim\">8</p>", "key_press": -1, "trial_type": "single-stim", "trial_index": 204, "time_elapsed": 1156371, "internal_node_id": "0.0-148.0-2.0"}}, {"uniqueid": "MTK1076:3TUI152ZZCUSBMBTMFXJP6UXKR1Q1W", "current_trial": 205, "dateTime": 1513098408929, "trialdata": {"rt": -1, "stimulus": "<p id=\"stim\">7</p>", "key_press": -1, "trial_type": "single-stim", "trial_index": 205, "time_elapsed": 1157374, "internal_node_id": "0.0-148.0-3.0"}}, {"uniqueid": "MTK1076:3TUI152ZZCUSBMBTMFXJP6UXKR1Q1W", "current_trial": 206, "dateTime": 1513098409931, "trialdata": {"rt": -1, "stimulus": "<p id=\"stim\">6</p>", "key_press": -1, "trial_type": "single-stim", "trial_index": 206, "time_elapsed": 1158376, "internal_node_id": "0.0-148.0-4.0"}}, {"uniqueid": "MTK1076:3TUI152ZZCUSBMBTMFXJP6UXKR1Q1W", "current_trial": 207, "dateTime": 1513098410933, "trialdata": {"rt": -1, "stimulus": "<p id=\"stim\">5</p>", "key_press": -1, "trial_type": "single-stim", "trial_index": 207, "time_elapsed": 1159378, "internal_node_id": "0.0-148.0-5.0"}}, {"uniqueid": "MTK1076:3TUI152ZZCUSBMBTMFXJP6UXKR1Q1W", "current_trial": 208, "dateTime": 1513098411934, "trialdata": {"rt": -1, "stimulus": "<p id=\"stim\">4</p>", "key_press": -1, "trial_type": "single-stim", "trial_index": 208, "time_elapsed": 1160379, "internal_node_id": "0.0-148.0-6.0"}}, {"uniqueid": "MTK1076:3TUI152ZZCUSBMBTMFXJP6UXKR1Q1W", "current_trial": 209, "dateTime": 1513098412936, "trialdata": {"rt": -1, "stimulus": "<p id=\"stim\">3</p>", "key_press": -1, "trial_type": "single-stim", "trial_index": 209, "time_elapsed": 1161381, "internal_node_id": "0.0-148.0-7.0"}}, {"uniqueid": "MTK1076:3TUI152ZZCUSBMBTMFXJP6UXKR1Q1W", "current_trial": 210, "dateTime": 1513098413938, "trialdata": {"rt": -1, "stimulus": "<p id=\"stim\">2</p>", "key_press": -1, "trial_type": "single-stim", "trial_index": 210, "time_elapsed": 1162383, "internal_node_id": "0.0-148.0-8.0"}}, {"uniqueid": "MTK1076:3TUI152ZZCUSBMBTMFXJP6UXKR1Q1W", "current_trial": 211, "dateTime": 1513098414939, "trialdata": {"rt": -1, "stimulus": "<p id=\"stim\">1</p>", "key_press": -1, "trial_type": "single-stim", "trial_index": 211, "time_elapsed": 1163384, "internal_node_id": "0.0-148.0-9.0"}}, {"uniqueid": "MTK1076:3TUI152ZZCUSBMBTMFXJP6UXKR1Q1W", "current_trial": 212, "dateTime": 1513098416441, "trialdata": {"rt": -1, "stimulus": "<p id=\"stim\">+</p>", "key_press": -1, "type": "FIXATION", "trial_type": "single-stim", "trial_index": 212, "time_elapsed": 1164886, "internal_node_id": "0.0-149.0-0.0"}}, {"uniqueid": "MTK1076:3TUI152ZZCUSBMBTMFXJP6UXKR1Q1W", "current_trial": 213, "dateTime": 1513098417243, "trialdata": {"rt": -1, "stimulus": "<p id=\"stim\">ACTRESS</p>", "key_press": -1, "type": "PRES_VIS", "word": "actress", "wordID": 5, "conditions": [24, 800, "v", 24000], "trial": 6, "serialpos": 0, "trial_type": "single-stim", "trial_index": 213, "time_elapsed": 1165688, "internal_node_id": "0.0-150.0"}}, {"uniqueid": "MTK1076:3TUI152ZZCUSBMBTMFXJP6UXKR1Q1W", "current_trial": 214, "dateTime": 1513098419160, "trialdata": {"rt": -1, "stimulus": "<p id=\"stim\">FLOWER</p>", "key_press": -1, "type": "PRES_VIS", "word": "flower", "wordID": 583, "conditions": [24, 800, "v", 24000], "trial": 6, "serialpos": 1, "trial_type": "single-stim", "trial_index": 214, "time_elapsed": 1167605, "internal_node_id": "0.0-151.0"}}, {"uniqueid": "MTK1076:3TUI152ZZCUSBMBTMFXJP6UXKR1Q1W", "current_trial": 215, "dateTime": 1513098421071, "trialdata": {"rt": -1, "stimulus": "<p id=\"stim\">CITRUS</p>", "key_press": -1, "type": "PRES_VIS", "word": "citrus", "wordID": 312, "conditions": [24, 800, "v", 24000], "trial": 6, "serialpos": 2, "trial_type": "single-stim", "trial_index": 215, "time_elapsed": 1169516, "internal_node_id": "0.0-152.0"}}, {"uniqueid": "MTK1076:3TUI152ZZCUSBMBTMFXJP6UXKR1Q1W", "current_trial": 216, "dateTime": 1513098422781, "trialdata": {"rt": -1, "stimulus": "<p id=\"stim\">DRINK</p>", "key_press": -1, "type": "PRES_VIS", "word": "drink", "wordID": 497, "conditions": [24, 800, "v", 24000], "trial": 6, "serialpos": 3, "trial_type": "single-stim", "trial_index": 216, "time_elapsed": 1171226, "internal_node_id": "0.0-153.0"}}, {"uniqueid": "MTK1076:3TUI152ZZCUSBMBTMFXJP6UXKR1Q1W", "current_trial": 217, "dateTime": 1513098424609, "trialdata": {"rt": -1, "stimulus": "<p id=\"stim\">SLUG</p>", "key_press": -1, "type": "PRES_VIS", "word": "slug", "wordID": 1328, "conditions": [24, 800, "v", 24000], "trial": 6, "serialpos": 4, "trial_type": "single-stim", "trial_index": 217, "time_elapsed": 1173054, "internal_node_id": "0.0-154.0"}}, {"uniqueid": "MTK1076:3TUI152ZZCUSBMBTMFXJP6UXKR1Q1W", "current_trial": 218, "dateTime": 1513098426337, "trialdata": {"rt": -1, "stimulus": "<p id=\"stim\">HUSBAND</p>", "key_press": -1, "type": "PRES_VIS", "word": "husband", "wordID": 727, "conditions": [24, 800, "v", 24000], "trial": 6, "serialpos": 5, "trial_type": "single-stim", "trial_index": 218, "time_elapsed": 1174782, "internal_node_id": "0.0-155.0"}}, {"uniqueid": "MTK1076:3TUI152ZZCUSBMBTMFXJP6UXKR1Q1W", "current_trial": 219, "dateTime": 1513098428274, "trialdata": {"rt": -1, "stimulus": "<p id=\"stim\">SHRUB</p>", "key_press": -1, "type": "PRES_VIS", "word": "shrub", "wordID": 1298, "conditions": [24, 800, "v", 24000], "trial": 6, "serialpos": 6, "trial_type": "single-stim", "trial_index": 219, "time_elapsed": 1176719, "internal_node_id": "0.0-156.0"}}, {"uniqueid": "MTK1076:3TUI152ZZCUSBMBTMFXJP6UXKR1Q1W", "current_trial": 220, "dateTime": 1513098429918, "trialdata": {"rt": -1, "stimulus": "<p id=\"stim\">VENUS</p>", "key_press": -1, "type": "PRES_VIS", "word": "venus", "wordID": 1556, "conditions": [24, 800, "v", 24000], "trial": 6, "serialpos": 7, "trial_type": "single-stim", "trial_index": 220, "time_elapsed": 1178363, "internal_node_id": "0.0-157.0"}}, {"uniqueid": "MTK1076:3TUI152ZZCUSBMBTMFXJP6UXKR1Q1W", "current_trial": 221, "dateTime": 1513098431839, "trialdata": {"rt": -1, "stimulus": "<p id=\"stim\">PASSAGE</p>", "key_press": -1, "type": "PRES_VIS", "word": "passage", "wordID": 1018, "conditions": [24, 800, "v", 24000], "trial": 6, "serialpos": 8, "trial_type": "single-stim", "trial_index": 221, "time_elapsed": 1180284, "internal_node_id": "0.0-158.0"}}, {"uniqueid": "MTK1076:3TUI152ZZCUSBMBTMFXJP6UXKR1Q1W", "current_trial": 222, "dateTime": 1513098433742, "trialdata": {"rt": -1, "stimulus": "<p id=\"stim\">SHIRT</p>", "key_press": -1, "type": "PRES_VIS", "word": "shirt", "wordID": 1286, "conditions": [24, 800, "v", 24000], "trial": 6, "serialpos": 9, "trial_type": "single-stim", "trial_index": 222, "time_elapsed": 1182187, "internal_node_id": "0.0-159.0"}}, {"uniqueid": "MTK1076:3TUI152ZZCUSBMBTMFXJP6UXKR1Q1W", "current_trial": 223, "dateTime": 1513098435573, "trialdata": {"rt": -1, "stimulus": "<p id=\"stim\">CUSTARD</p>", "key_press": -1, "type": "PRES_VIS", "word": "custard", "wordID": 428, "conditions": [24, 800, "v", 24000], "trial": 6, "serialpos": 10, "trial_type": "single-stim", "trial_index": 223, "time_elapsed": 1184018, "internal_node_id": "0.0-160.0"}}, {"uniqueid": "MTK1076:3TUI152ZZCUSBMBTMFXJP6UXKR1Q1W", "current_trial": 224, "dateTime": 1513098437385, "trialdata": {"rt": -1, "stimulus": "<p id=\"stim\">PUDDING</p>", "key_press": -1, "type": "PRES_VIS", "word": "pudding", "wordID": 1138, "conditions": [24, 800, "v", 24000], "trial": 6, "serialpos": 11, "trial_type": "single-stim", "trial_index": 224, "time_elapsed": 1185830, "internal_node_id": "0.0-161.0"}}, {"uniqueid": "MTK1076:3TUI152ZZCUSBMBTMFXJP6UXKR1Q1W", "current_trial": 225, "dateTime": 1513098439106, "trialdata": {"rt": -1, "stimulus": "<p id=\"stim\">TURKEY</p>", "key_press": -1, "type": "PRES_VIS", "word": "turkey", "wordID": 1519, "conditions": [24, 800, "v", 24000], "trial": 6, "serialpos": 12, "trial_type": "single-stim", "trial_index": 225, "time_elapsed": 1187551, "internal_node_id": "0.0-162.0"}}, {"uniqueid": "MTK1076:3TUI152ZZCUSBMBTMFXJP6UXKR1Q1W", "current_trial": 226, "dateTime": 1513098440806, "trialdata": {"rt": -1, "stimulus": "<p id=\"stim\">POPCORN</p>", "key_press": -1, "type": "PRES_VIS", "word": "popcorn", "wordID": 1103, "conditions": [24, 800, "v", 24000], "trial": 6, "serialpos": 13, "trial_type": "single-stim", "trial_index": 226, "time_elapsed": 1189251, "internal_node_id": "0.0-163.0"}}, {"uniqueid": "MTK1076:3TUI152ZZCUSBMBTMFXJP6UXKR1Q1W", "current_trial": 227, "dateTime": 1513098442464, "trialdata": {"rt": -1, "stimulus": "<p id=\"stim\">PATROL</p>", "key_press": -1, "type": "PRES_VIS", "word": "patrol", "wordID": 1026, "conditions": [24, 800, "v", 24000], "trial": 6, "serialpos": 14, "trial_type": "single-stim", "trial_index": 227, "time_elapsed": 1190909, "internal_node_id": "0.0-164.0"}}, {"uniqueid": "MTK1076:3TUI152ZZCUSBMBTMFXJP6UXKR1Q1W", "current_trial": 228, "dateTime": 1513098444277, "trialdata": {"rt": -1, "stimulus": "<p id=\"stim\">LOFT</p>", "key_press": -1, "type": "PRES_VIS", "word": "loft", "wordID": 839, "conditions": [24, 800, "v", 24000], "trial": 6, "serialpos": 15, "trial_type": "single-stim", "trial_index": 228, "time_elapsed": 1192722, "internal_node_id": "0.0-165.0"}}, {"uniqueid": "MTK1076:3TUI152ZZCUSBMBTMFXJP6UXKR1Q1W", "current_trial": 229, "dateTime": 1513098446124, "trialdata": {"rt": -1, "stimulus": "<p id=\"stim\">PARSLEY</p>", "key_press": -1, "type": "PRES_VIS", "word": "parsley", "wordID": 1015, "conditions": [24, 800, "v", 24000], "trial": 6, "serialpos": 16, "trial_type": "single-stim", "trial_index": 229, "time_elapsed": 1194569, "internal_node_id": "0.0-166.0"}}, {"uniqueid": "MTK1076:3TUI152ZZCUSBMBTMFXJP6UXKR1Q1W", "current_trial": 230, "dateTime": 1513098447770, "trialdata": {"rt": -1, "stimulus": "<p id=\"stim\">MUMMY</p>", "key_press": -1, "type": "PRES_VIS", "word": "mummy", "wordID": 931, "conditions": [24, 800, "v", 24000], "trial": 6, "serialpos": 17, "trial_type": "single-stim", "trial_index": 230, "time_elapsed": 1196215, "internal_node_id": "0.0-167.0"}}, {"uniqueid": "MTK1076:3TUI152ZZCUSBMBTMFXJP6UXKR1Q1W", "current_trial": 231, "dateTime": 1513098449457, "trialdata": {"rt": -1, "stimulus": "<p id=\"stim\">CRIB</p>", "key_press": -1, "type": "PRES_VIS", "word": "crib", "wordID": 406, "conditions": [24, 800, "v", 24000], "trial": 6, "serialpos": 18, "trial_type": "single-stim", "trial_index": 231, "time_elapsed": 1197902, "internal_node_id": "0.0-168.0"}}, {"uniqueid": "MTK1076:3TUI152ZZCUSBMBTMFXJP6UXKR1Q1W", "current_trial": 232, "dateTime": 1513098451349, "trialdata": {"rt": -1, "stimulus": "<p id=\"stim\">MUFFIN</p>", "key_press": -1, "type": "PRES_VIS", "word": "muffin", "wordID": 928, "conditions": [24, 800, "v", 24000], "trial": 6, "serialpos": 19, "trial_type": "single-stim", "trial_index": 232, "time_elapsed": 1199794, "internal_node_id": "0.0-169.0"}}, {"uniqueid": "MTK1076:3TUI152ZZCUSBMBTMFXJP6UXKR1Q1W", "current_trial": 233, "dateTime": 1513098453260, "trialdata": {"rt": -1, "stimulus": "<p id=\"stim\">SNACK</p>", "key_press": -1, "type": "PRES_VIS", "word": "snack", "wordID": 1330, "conditions": [24, 800, "v", 24000], "trial": 6, "serialpos": 20, "trial_type": "single-stim", "trial_index": 233, "time_elapsed": 1201705, "internal_node_id": "0.0-170.0"}}, {"uniqueid": "MTK1076:3TUI152ZZCUSBMBTMFXJP6UXKR1Q1W", "current_trial": 234, "dateTime": 1513098454896, "trialdata": {"rt": -1, "stimulus": "<p id=\"stim\">POSSUM</p>", "key_press": -1, "type": "PRES_VIS", "word": "possum", "wordID": 1111, "conditions": [24, 800, "v", 24000], "trial": 6, "serialpos": 21, "trial_type": "single-stim", "trial_index": 234, "time_elapsed": 1203341, "internal_node_id": "0.0-171.0"}}, {"uniqueid": "MTK1076:3TUI152ZZCUSBMBTMFXJP6UXKR1Q1W", "current_trial": 235, "dateTime": 1513098456603, "trialdata": {"rt": -1, "stimulus": "<p id=\"stim\">CIGAR</p>", "key_press": -1, "type": "PRES_VIS", "word": "cigar", "wordID": 307, "conditions": [24, 800, "v", 24000], "trial": 6, "serialpos": 22, "trial_type": "single-stim", "trial_index": 235, "time_elapsed": 1205048, "internal_node_id": "0.0-172.0"}}, {"uniqueid": "MTK1076:3TUI152ZZCUSBMBTMFXJP6UXKR1Q1W", "current_trial": 236, "dateTime": 1513098458411, "trialdata": {"rt": -1, "stimulus": "<p id=\"stim\">ONION</p>", "key_press": -1, "type": "PRES_VIS", "word": "onion", "wordID": 976, "conditions": [24, 800, "v", 24000], "trial": 6, "serialpos": 23, "trial_type": "single-stim", "trial_index": 236, "time_elapsed": 1206856, "internal_node_id": "0.0-173.0"}}, {"uniqueid": "MTK1076:3TUI152ZZCUSBMBTMFXJP6UXKR1Q1W", "current_trial": 237, "dateTime": 1513098460659, "trialdata": {"rt": -1, "stimulus": "", "key_press": -1, "type": "PRE_RECALL_DELAY", "trial_type": "single-stim", "trial_index": 237, "time_elapsed": 1209104, "internal_node_id": "0.0-174.0-0.0"}}, {"uniqueid": "MTK1076:3TUI152ZZCUSBMBTMFXJP6UXKR1Q1W", "current_trial": 238, "dateTime": 1513098461168, "trialdata": {"rt": -1000, "stimulus": "/static/audio/400Hz.wav", "key_press": -1, "type": "PRE_RECALL_ALERT", "trial_type": "single-audio", "trial_index": 238, "time_elapsed": 1209613, "internal_node_id": "0.0-175.0"}}, {"uniqueid": "MTK1076:3TUI152ZZCUSBMBTMFXJP6UXKR1Q1W", "current_trial": 239, "dateTime": 1513098521177, "trialdata": {"rt": [3704, 7105, 7982, 9496, 11297, 13440, 17634], "recwords": ["possum", "husband", "slu", "slug", "popcorn", "venus", "actress"], "type": "FREE_RECALL", "conditions": [24, 800, "v", 24000], "trial": 6, "trial_type": "free-recall", "trial_index": 239, "time_elapsed": 1269616, "internal_node_id": "0.0-176.0-0.0"}}, {"uniqueid": "MTK1076:3TUI152ZZCUSBMBTMFXJP6UXKR1Q1W", "current_trial": 240, "dateTime": 1513098525007, "trialdata": {"rt": 1828, "key_press": 72, "type": "INSTRUCTIONS", "trial_type": "text", "trial_index": 240, "time_elapsed": 1273452, "internal_node_id": "0.0-177.0"}}, {"uniqueid": "MTK1076:3TUI152ZZCUSBMBTMFXJP6UXKR1Q1W", "current_trial": 241, "dateTime": 1513098551011, "trialdata": {"rt": [2251, 3755, 4900, 7841, 10400, 12535, 14674, 17549, 20220, 22112, 23878], "responses": ["18", "9", "4", "20", "18", "10", "17", "14", "14", "10", "11"], "num1": [5, 1, 1, 9, 4, 2, 7, 7, 8, 4, 6, 3], "num2": [4, 7, 1, 7, 7, 2, 5, 6, 1, 5, 1, 9], "num3": [9, 1, 2, 4, 7, 6, 5, 1, 5, 1, 4, 9], "type": "DISTRACTOR", "conditions": [24, 1600, "a", 24000], "trial": 7, "trial_type": "math-distractor", "trial_index": 241, "time_elapsed": 1299456, "internal_node_id": "0.0-178.0"}}, {"uniqueid": "MTK1076:3TUI152ZZCUSBMBTMFXJP6UXKR1Q1W", "current_trial": 242, "dateTime": 1513098554012, "trialdata": {"rt": -1, "stimulus": "<p id=\"stim\">10</p>", "key_press": -1, "trial_type": "single-stim", "trial_index": 242, "time_elapsed": 1302457, "internal_node_id": "0.0-179.0-0.0"}}, {"uniqueid": "MTK1076:3TUI152ZZCUSBMBTMFXJP6UXKR1Q1W", "current_trial": 243, "dateTime": 1513098555014, "trialdata": {"rt": -1, "stimulus": "<p id=\"stim\">9</p>", "key_press": -1, "trial_type": "single-stim", "trial_index": 243, "time_elapsed": 1303459, "internal_node_id": "0.0-179.0-1.0"}}, {"uniqueid": "MTK1076:3TUI152ZZCUSBMBTMFXJP6UXKR1Q1W", "current_trial": 244, "dateTime": 1513098556015, "trialdata": {"rt": -1, "stimulus": "<p id=\"stim\">8</p>", "key_press": -1, "trial_type": "single-stim", "trial_index": 244, "time_elapsed": 1304460, "internal_node_id": "0.0-179.0-2.0"}}, {"uniqueid": "MTK1076:3TUI152ZZCUSBMBTMFXJP6UXKR1Q1W", "current_trial": 245, "dateTime": 1513098557017, "trialdata": {"rt": -1, "stimulus": "<p id=\"stim\">7</p>", "key_press": -1, "trial_type": "single-stim", "trial_index": 245, "time_elapsed": 1305462, "internal_node_id": "0.0-179.0-3.0"}}, {"uniqueid": "MTK1076:3TUI152ZZCUSBMBTMFXJP6UXKR1Q1W", "current_trial": 246, "dateTime": 1513098558019, "trialdata": {"rt": -1, "stimulus": "<p id=\"stim\">6</p>", "key_press": -1, "trial_type": "single-stim", "trial_index": 246, "time_elapsed": 1306464, "internal_node_id": "0.0-179.0-4.0"}}, {"uniqueid": "MTK1076:3TUI152ZZCUSBMBTMFXJP6UXKR1Q1W", "current_trial": 247, "dateTime": 1513098559020, "trialdata": {"rt": -1, "stimulus": "<p id=\"stim\">5</p>", "key_press": -1, "trial_type": "single-stim", "trial_index": 247, "time_elapsed": 1307465, "internal_node_id": "0.0-179.0-5.0"}}, {"uniqueid": "MTK1076:3TUI152ZZCUSBMBTMFXJP6UXKR1Q1W", "current_trial": 248, "dateTime": 1513098560022, "trialdata": {"rt": -1, "stimulus": "<p id=\"stim\">4</p>", "key_press": -1, "trial_type": "single-stim", "trial_index": 248, "time_elapsed": 1308467, "internal_node_id": "0.0-179.0-6.0"}}, {"uniqueid": "MTK1076:3TUI152ZZCUSBMBTMFXJP6UXKR1Q1W", "current_trial": 249, "dateTime": 1513098561024, "trialdata": {"rt": -1, "stimulus": "<p id=\"stim\">3</p>", "key_press": -1, "trial_type": "single-stim", "trial_index": 249, "time_elapsed": 1309469, "internal_node_id": "0.0-179.0-7.0"}}, {"uniqueid": "MTK1076:3TUI152ZZCUSBMBTMFXJP6UXKR1Q1W", "current_trial": 250, "dateTime": 1513098562025, "trialdata": {"rt": -1, "stimulus": "<p id=\"stim\">2</p>", "key_press": -1, "trial_type": "single-stim", "trial_index": 250, "time_elapsed": 1310470, "internal_node_id": "0.0-179.0-8.0"}}, {"uniqueid": "MTK1076:3TUI152ZZCUSBMBTMFXJP6UXKR1Q1W", "current_trial": 251, "dateTime": 1513098563027, "trialdata": {"rt": -1, "stimulus": "<p id=\"stim\">1</p>", "key_press": -1, "trial_type": "single-stim", "trial_index": 251, "time_elapsed": 1311472, "internal_node_id": "0.0-179.0-9.0"}}, {"uniqueid": "MTK1076:3TUI152ZZCUSBMBTMFXJP6UXKR1Q1W", "current_trial": 252, "dateTime": 1513098564529, "trialdata": {"rt": -1, "stimulus": "<p id=\"stim\">+</p>", "key_press": -1, "type": "FIXATION", "trial_type": "single-stim", "trial_index": 252, "time_elapsed": 1312974, "internal_node_id": "0.0-180.0-0.0"}}, {"uniqueid": "MTK1076:3TUI152ZZCUSBMBTMFXJP6UXKR1Q1W", "current_trial": 253, "dateTime": 1513098567033, "trialdata": {"rt": -1000, "stimulus": "/static/audio/wordpool/UMPIRE.wav", "key_press": -1, "type": "PRES_AUD", "word": "umpire", "wordID": 1534, "conditions": [24, 1600, "a", 24000], "trial": 7, "serialpos": 0, "trial_type": "single-audio", "trial_index": 253, "time_elapsed": 1315478, "internal_node_id": "0.0-181.0"}}, {"uniqueid": "MTK1076:3TUI152ZZCUSBMBTMFXJP6UXKR1Q1W", "current_trial": 254, "dateTime": 1513098569759, "trialdata": {"rt": -1000, "stimulus": "/static/audio/wordpool/ICING.wav", "key_press": -1, "type": "PRES_AUD", "word": "icing", "wordID": 731, "conditions": [24, 1600, "a", 24000], "trial": 7, "serialpos": 1, "trial_type": "single-audio", "trial_index": 254, "time_elapsed": 1318204, "internal_node_id": "0.0-182.0"}}, {"uniqueid": "MTK1076:3TUI152ZZCUSBMBTMFXJP6UXKR1Q1W", "current_trial": 255, "dateTime": 1513098572201, "trialdata": {"rt": -1000, "stimulus": "/static/audio/wordpool/BARREL.wav", "key_press": -1, "type": "PRES_AUD", "word": "barrel", "wordID": 90, "conditions": [24, 1600, "a", 24000], "trial": 7, "serialpos": 2, "trial_type": "single-audio", "trial_index": 255, "time_elapsed": 1320646, "internal_node_id": "0.0-183.0"}}, {"uniqueid": "MTK1076:3TUI152ZZCUSBMBTMFXJP6UXKR1Q1W", "current_trial": 256, "dateTime": 1513098574612, "trialdata": {"rt": -1000, "stimulus": "/static/audio/wordpool/SALMON.wav", "key_press": -1, "type": "PRES_AUD", "word": "salmon", "wordID": 1226, "conditions": [24, 1600, "a", 24000], "trial": 7, "serialpos": 3, "trial_type": "single-audio", "trial_index": 256, "time_elapsed": 1323057, "internal_node_id": "0.0-184.0"}}, {"uniqueid": "MTK1076:3TUI152ZZCUSBMBTMFXJP6UXKR1Q1W", "current_trial": 257, "dateTime": 1513098577116, "trialdata": {"rt": -1000, "stimulus": "/static/audio/wordpool/BELLY.wav", "key_press": -1, "type": "PRES_AUD", "word": "belly", "wordID": 118, "conditions": [24, 1600, "a", 24000], "trial": 7, "serialpos": 4, "trial_type": "single-audio", "trial_index": 257, "time_elapsed": 1325561, "internal_node_id": "0.0-185.0"}}, {"uniqueid": "MTK1076:3TUI152ZZCUSBMBTMFXJP6UXKR1Q1W", "current_trial": 258, "dateTime": 1513098579762, "trialdata": {"rt": -1000, "stimulus": "/static/audio/wordpool/FIDDLE.wav", "key_press": -1, "type": "PRES_AUD", "word": "fiddle", "wordID": 560, "conditions": [24, 1600, "a", 24000], "trial": 7, "serialpos": 5, "trial_type": "single-audio", "trial_index": 258, "time_elapsed": 1328207, "internal_node_id": "0.0-186.0"}}, {"uniqueid": "MTK1076:3TUI152ZZCUSBMBTMFXJP6UXKR1Q1W", "current_trial": 259, "dateTime": 1513098582341, "trialdata": {"rt": -1000, "stimulus": "/static/audio/wordpool/QUARTER.wav", "key_press": -1, "type": "PRES_AUD", "word": "quarter", "wordID": 1147, "conditions": [24, 1600, "a", 24000], "trial": 7, "serialpos": 6, "trial_type": "single-audio", "trial_index": 259, "time_elapsed": 1330786, "internal_node_id": "0.0-187.0"}}, {"uniqueid": "MTK1076:3TUI152ZZCUSBMBTMFXJP6UXKR1Q1W", "current_trial": 260, "dateTime": 1513098584926, "trialdata": {"rt": -1000, "stimulus": "/static/audio/wordpool/CABBAGE.wav", "key_press": -1, "type": "PRES_AUD", "word": "cabbage", "wordID": 209, "conditions": [24, 1600, "a", 24000], "trial": 7, "serialpos": 7, "trial_type": "single-audio", "trial_index": 260, "time_elapsed": 1333371, "internal_node_id": "0.0-188.0"}}, {"uniqueid": "MTK1076:3TUI152ZZCUSBMBTMFXJP6UXKR1Q1W", "current_trial": 261, "dateTime": 1513098587478, "trialdata": {"rt": -1000, "stimulus": "/static/audio/wordpool/COD.wav", "key_press": -1, "type": "PRES_AUD", "word": "cod", "wordID": 339, "conditions": [24, 1600, "a", 24000], "trial": 7, "serialpos": 8, "trial_type": "single-audio", "trial_index": 261, "time_elapsed": 1335923, "internal_node_id": "0.0-189.0"}}, {"uniqueid": "MTK1076:3TUI152ZZCUSBMBTMFXJP6UXKR1Q1W", "current_trial": 262, "dateTime": 1513098590138, "trialdata": {"rt": -1000, "stimulus": "/static/audio/wordpool/DIME.wav", "key_press": -1, "type": "PRES_AUD", "word": "dime", "wordID": 465, "conditions": [24, 1600, "a", 24000], "trial": 7, "serialpos": 9, "trial_type": "single-audio", "trial_index": 262, "time_elapsed": 1338583, "internal_node_id": "0.0-190.0"}}, {"uniqueid": "MTK1076:3TUI152ZZCUSBMBTMFXJP6UXKR1Q1W", "current_trial": 263, "dateTime": 1513098592814, "trialdata": {"rt": -1000, "stimulus": "/static/audio/wordpool/FRUIT.wav", "key_press": -1, "type": "PRES_AUD", "word": "fruit", "wordID": 609, "conditions": [24, 1600, "a", 24000], "trial": 7, "serialpos": 10, "trial_type": "single-audio", "trial_index": 263, "time_elapsed": 1341259, "internal_node_id": "0.0-191.0"}}, {"uniqueid": "MTK1076:3TUI152ZZCUSBMBTMFXJP6UXKR1Q1W", "current_trial": 264, "dateTime": 1513098595302, "trialdata": {"rt": -1000, "stimulus": "/static/audio/wordpool/APPLE.wav", "key_press": -1, "type": "PRES_AUD", "word": "apple", "wordID": 32, "conditions": [24, 1600, "a", 24000], "trial": 7, "serialpos": 11, "trial_type": "single-audio", "trial_index": 264, "time_elapsed": 1343747, "internal_node_id": "0.0-192.0"}}, {"uniqueid": "MTK1076:3TUI152ZZCUSBMBTMFXJP6UXKR1Q1W", "current_trial": 265, "dateTime": 1513098597902, "trialdata": {"rt": -1000, "stimulus": "/static/audio/wordpool/JELLO.wav", "key_press": -1, "type": "PRES_AUD", "word": "jello", "wordID": 753, "conditions": [24, 1600, "a", 24000], "trial": 7, "serialpos": 12, "trial_type": "single-audio", "trial_index": 265, "time_elapsed": 1346347, "internal_node_id": "0.0-193.0"}}, {"uniqueid": "MTK1076:3TUI152ZZCUSBMBTMFXJP6UXKR1Q1W", "current_trial": 266, "dateTime": 1513098600421, "trialdata": {"rt": -1000, "stimulus": "/static/audio/wordpool/PUDDLE.wav", "key_press": -1, "type": "PRES_AUD", "word": "puddle", "wordID": 1139, "conditions": [24, 1600, "a", 24000], "trial": 7, "serialpos": 13, "trial_type": "single-audio", "trial_index": 266, "time_elapsed": 1348866, "internal_node_id": "0.0-194.0"}}, {"uniqueid": "MTK1076:3TUI152ZZCUSBMBTMFXJP6UXKR1Q1W", "current_trial": 267, "dateTime": 1513098602955, "trialdata": {"rt": -1000, "stimulus": "/static/audio/wordpool/BLADE.wav", "key_press": -1, "type": "PRES_AUD", "word": "blade", "wordID": 133, "conditions": [24, 1600, "a", 24000], "trial": 7, "serialpos": 14, "trial_type": "single-audio", "trial_index": 267, "time_elapsed": 1351400, "internal_node_id": "0.0-195.0"}}, {"uniqueid": "MTK1076:3TUI152ZZCUSBMBTMFXJP6UXKR1Q1W", "current_trial": 268, "dateTime": 1513098605615, "trialdata": {"rt": -1000, "stimulus": "/static/audio/wordpool/RAZOR.wav", "key_press": -1, "type": "PRES_AUD", "word": "razor", "wordID": 1170, "conditions": [24, 1600, "a", 24000], "trial": 7, "serialpos": 15, "trial_type": "single-audio", "trial_index": 268, "time_elapsed": 1354060, "internal_node_id": "0.0-196.0"}}, {"uniqueid": "MTK1076:3TUI152ZZCUSBMBTMFXJP6UXKR1Q1W", "current_trial": 269, "dateTime": 1513098608058, "trialdata": {"rt": -1000, "stimulus": "/static/audio/wordpool/RATTLE.wav", "key_press": -1, "type": "PRES_AUD", "word": "rattle", "wordID": 1169, "conditions": [24, 1600, "a", 24000], "trial": 7, "serialpos": 16, "trial_type": "single-audio", "trial_index": 269, "time_elapsed": 1356503, "internal_node_id": "0.0-197.0"}}, {"uniqueid": "MTK1076:3TUI152ZZCUSBMBTMFXJP6UXKR1Q1W", "current_trial": 270, "dateTime": 1513098610639, "trialdata": {"rt": -1000, "stimulus": "/static/audio/wordpool/MARROW.wav", "key_press": -1, "type": "PRES_AUD", "word": "marrow", "wordID": 871, "conditions": [24, 1600, "a", 24000], "trial": 7, "serialpos": 17, "trial_type": "single-audio", "trial_index": 270, "time_elapsed": 1359084, "internal_node_id": "0.0-198.0"}}, {"uniqueid": "MTK1076:3TUI152ZZCUSBMBTMFXJP6UXKR1Q1W", "current_trial": 271, "dateTime": 1513098613347, "trialdata": {"rt": -1000, "stimulus": "/static/audio/wordpool/SIBLING.wav", "key_press": -1, "type": "PRES_AUD", "word": "sibling", "wordID": 1300, "conditions": [24, 1600, "a", 24000], "trial": 7, "serialpos": 18, "trial_type": "single-audio", "trial_index": 271, "time_elapsed": 1361792, "internal_node_id": "0.0-199.0"}}, {"uniqueid": "MTK1076:3T