{"condition": 0, "counterbalance": 199, "assignmentId": "3OSWBBLG1F46CESHOMC6KGRZ6RVDXA", "workerId": "MTK1114", "hitId": "3XDJY5RK5SSZ8UHZ04VO8L25JMB4UB", "currenttrial": 626, "bonus": 0, "data": [{"uniqueid": "MTK1114:3OSWBBLG1F46CESHOMC6KGRZ6RVDXA", "current_trial": 0, "dateTime": 1513114043676, "trialdata": {"rt": 6627, "key_press": 13, "type": "INSTRUCTIONS", "trial_type": "text", "trial_index": 0, "time_elapsed": 6629, "internal_node_id": "0.0-0.0"}}, {"uniqueid": "MTK1114:3OSWBBLG1F46CESHOMC6KGRZ6RVDXA", "current_trial": 1, "dateTime": 1513114095626, "trialdata": {"rt": 51949, "key_press": 13, "type": "INSTRUCTIONS", "trial_type": "text", "trial_index": 1, "time_elapsed": 58580, "internal_node_id": "0.0-1.0"}}, {"uniqueid": "MTK1114:3OSWBBLG1F46CESHOMC6KGRZ6RVDXA", "current_trial": 2, "dateTime": 1513114104418, "trialdata": {"rt": [8766], "responses": ["ocean"], "type": "AUDIO_TEST", "trial_type": "audio-test", "trial_index": 2, "time_elapsed": 67372, "internal_node_id": "0.0-2.0"}}, {"uniqueid": "MTK1114:3OSWBBLG1F46CESHOMC6KGRZ6RVDXA", "current_trial": 3, "dateTime": 1513114112723, "trialdata": {"rt": [8300], "responses": ["crystal"], "type": "AUDIO_TEST", "trial_type": "audio-test", "trial_index": 3, "time_elapsed": 75677, "internal_node_id": "0.0-3.0"}}, {"uniqueid": "MTK1114:3OSWBBLG1F46CESHOMC6KGRZ6RVDXA", "current_trial": 4, "dateTime": 1513114120458, "trialdata": {"rt": [7731], "responses": ["spice"], "type": "AUDIO_TEST", "trial_type": "audio-test", "trial_index": 4, "time_elapsed": 83412, "internal_node_id": "0.0-4.0"}}, {"uniqueid": "MTK1114:3OSWBBLG1F46CESHOMC6KGRZ6RVDXA", "current_trial": 5, "dateTime": 1513114149635, "trialdata": {"rt": 28425, "responses": "{\"Q0\":\"11:30\",\"Q1\":\"4:45\",\"Q2\":\"5\"}", "type": "SLEEP_SURVEY", "trial_type": "survey-text", "trial_index": 5, "time_elapsed": 112589, "internal_node_id": "0.0-5.0"}}, {"uniqueid": "MTK1114:3OSWBBLG1F46CESHOMC6KGRZ6RVDXA", "current_trial": 6, "dateTime": 1513114160908, "trialdata": {"rt": 10272, "key_press": 175, "type": "INSTRUCTIONS", "trial_type": "text", "trial_index": 6, "time_elapsed": 123862, "internal_node_id": "0.0-6.0"}}, {"uniqueid": "MTK1114:3OSWBBLG1F46CESHOMC6KGRZ6RVDXA", "current_trial": 7, "dateTime": 1513114161988, "trialdata": {"rt": 577, "key_press": 175, "type": "INSTRUCTIONS", "trial_type": "text", "trial_index": 7, "time_elapsed": 124942, "internal_node_id": "0.0-7.0"}}, {"uniqueid": "MTK1114:3OSWBBLG1F46CESHOMC6KGRZ6RVDXA", "current_trial": 8, "dateTime": 1513114168321, "trialdata": {"rt": 5833, "key_press": 175, "type": "INSTRUCTIONS", "trial_type": "text", "trial_index": 8, "time_elapsed": 131275, "internal_node_id": "0.0-8.0"}}, {"uniqueid": "MTK1114:3OSWBBLG1F46CESHOMC6KGRZ6RVDXA", "current_trial": 9, "dateTime": 1513114187325, "trialdata": {"rt": [7373, 11660, 14341], "responses": ["6", "15", "13"], "num1": [1, 5, 4, 7], "num2": [1, 2, 5, 1], "num3": [4, 8, 4, 3], "type": "DISTRACTOR", "conditions": [18, 1200, "a", 18000], "trial": 0, "trial_type": "math-distractor", "trial_index": 9, "time_elapsed": 150279, "internal_node_id": "0.0-9.0"}}, {"uniqueid": "MTK1114:3OSWBBLG1F46CESHOMC6KGRZ6RVDXA", "current_trial": 10, "dateTime": 1513114190346, "trialdata": {"rt": -1, "stimulus": "<p id=\"stim\">10</p>", "key_press": -1, "trial_type": "single-stim", "trial_index": 10, "time_elapsed": 153299, "internal_node_id": "0.0-10.0-0.0"}}, {"uniqueid": "MTK1114:3OSWBBLG1F46CESHOMC6KGRZ6RVDXA", "current_trial": 11, "dateTime": 1513114191349, "trialdata": {"rt": -1, "stimulus": "<p id=\"stim\">9</p>", "key_press": -1, "trial_type": "single-stim", "trial_index": 11, "time_elapsed": 154303, "internal_node_id": "0.0-10.0-1.0"}}, {"uniqueid": "MTK1114:3OSWBBLG1F46CESHOMC6KGRZ6RVDXA", "current_trial": 12, "dateTime": 1513114192367, "trialdata": {"rt": -1, "stimulus": "<p id=\"stim\">8</p>", "key_press": -1, "trial_type": "single-stim", "trial_index": 12, "time_elapsed": 155321, "internal_node_id": "0.0-10.0-2.0"}}, {"uniqueid": "MTK1114:3OSWBBLG1F46CESHOMC6KGRZ6RVDXA", "current_trial": 13, "dateTime": 1513114193368, "trialdata": {"rt": -1, "stimulus": "<p id=\"stim\">7</p>", "key_press": -1, "trial_type": "single-stim", "trial_index": 13, "time_elapsed": 156322, "internal_node_id": "0.0-10.0-3.0"}}, {"uniqueid": "MTK1114:3OSWBBLG1F46CESHOMC6KGRZ6RVDXA", "current_trial": 14, "dateTime": 1513114194368, "trialdata": {"rt": -1, "stimulus": "<p id=\"stim\">6</p>", "key_press": -1, "trial_type": "single-stim", "trial_index": 14, "time_elapsed": 157322, "internal_node_id": "0.0-10.0-4.0"}}, {"uniqueid": "MTK1114:3OSWBBLG1F46CESHOMC6KGRZ6RVDXA", "current_trial": 15, "dateTime": 1513114195369, "trialdata": {"rt": -1, "stimulus": "<p id=\"stim\">5</p>", "key_press": -1, "trial_type": "single-stim", "trial_index": 15, "time_elapsed": 158323, "internal_node_id": "0.0-10.0-5.0"}}, {"uniqueid": "MTK1114:3OSWBBLG1F46CESHOMC6KGRZ6RVDXA", "current_trial": 16, "dateTime": 1513114196404, "trialdata": {"rt": -1, "stimulus": "<p id=\"stim\">4</p>", "key_press": -1, "trial_type": "single-stim", "trial_index": 16, "time_elapsed": 159358, "internal_node_id": "0.0-10.0-6.0"}}, {"uniqueid": "MTK1114:3OSWBBLG1F46CESHOMC6KGRZ6RVDXA", "current_trial": 17, "dateTime": 1513114197422, "trialdata": {"rt": -1, "stimulus": "<p id=\"stim\">3</p>", "key_press": -1, "trial_type": "single-stim", "trial_index": 17, "time_elapsed": 160376, "internal_node_id": "0.0-10.0-7.0"}}, {"uniqueid": "MTK1114:3OSWBBLG1F46CESHOMC6KGRZ6RVDXA", "current_trial": 18, "dateTime": 1513114198481, "trialdata": {"rt": -1, "stimulus": "<p id=\"stim\">2</p>", "key_press": -1, "trial_type": "single-stim", "trial_index": 18, "time_elapsed": 161434, "internal_node_id": "0.0-10.0-8.0"}}, {"uniqueid": "MTK1114:3OSWBBLG1F46CESHOMC6KGRZ6RVDXA", "current_trial": 19, "dateTime": 1513114199481, "trialdata": {"rt": -1, "stimulus": "<p id=\"stim\">1</p>", "key_press": -1, "trial_type": "single-stim", "trial_index": 19, "time_elapsed": 162435, "internal_node_id": "0.0-10.0-9.0"}}, {"uniqueid": "MTK1114:3OSWBBLG1F46CESHOMC6KGRZ6RVDXA", "current_trial": 20, "dateTime": 1513114200984, "trialdata": {"rt": -1, "stimulus": "<p id=\"stim\">+</p>", "key_press": -1, "type": "FIXATION", "trial_type": "single-stim", "trial_index": 20, "time_elapsed": 163938, "internal_node_id": "0.0-11.0-0.0"}}, {"uniqueid": "MTK1114:3OSWBBLG1F46CESHOMC6KGRZ6RVDXA", "current_trial": 21, "dateTime": 1513114202994, "trialdata": {"rt": -1000, "stimulus": "/static/audio/wordpool/FRIEND.wav", "key_press": -1, "type": "PRES_AUD", "word": "friend", "wordID": 605, "conditions": [18, 1200, "a", 18000], "trial": 0, "serialpos": 0, "trial_type": "single-audio", "trial_index": 21, "time_elapsed": 165948, "internal_node_id": "0.0-12.0"}}, {"uniqueid": "MTK1114:3OSWBBLG1F46CESHOMC6KGRZ6RVDXA", "current_trial": 22, "dateTime": 1513114205081, "trialdata": {"rt": -1000, "stimulus": "/static/audio/wordpool/DRILL.wav", "key_press": -1, "type": "PRES_AUD", "word": "drill", "wordID": 496, "conditions": [18, 1200, "a", 18000], "trial": 0, "serialpos": 1, "trial_type": "single-audio", "trial_index": 22, "time_elapsed": 168035, "internal_node_id": "0.0-13.0"}}, {"uniqueid": "MTK1114:3OSWBBLG1F46CESHOMC6KGRZ6RVDXA", "current_trial": 23, "dateTime": 1513114207227, "trialdata": {"rt": -1000, "stimulus": "/static/audio/wordpool/DIVER.wav", "key_press": -1, "type": "PRES_AUD", "word": "diver", "wordID": 475, "conditions": [18, 1200, "a", 18000], "trial": 0, "serialpos": 2, "trial_type": "single-audio", "trial_index": 23, "time_elapsed": 170181, "internal_node_id": "0.0-14.0"}}, {"uniqueid": "MTK1114:3OSWBBLG1F46CESHOMC6KGRZ6RVDXA", "current_trial": 24, "dateTime": 1513114209514, "trialdata": {"rt": -1000, "stimulus": "/static/audio/wordpool/JELLO.wav", "key_press": -1, "type": "PRES_AUD", "word": "jello", "wordID": 753, "conditions": [18, 1200, "a", 18000], "trial": 0, "serialpos": 3, "trial_type": "single-audio", "trial_index": 24, "time_elapsed": 172468, "internal_node_id": "0.0-15.0"}}, {"uniqueid": "MTK1114:3OSWBBLG1F46CESHOMC6KGRZ6RVDXA", "current_trial": 25, "dateTime": 1513114211783, "trialdata": {"rt": -1000, "stimulus": "/static/audio/wordpool/BARREL.wav", "key_press": -1, "type": "PRES_AUD", "word": "barrel", "wordID": 90, "conditions": [18, 1200, "a", 18000], "trial": 0, "serialpos": 4, "trial_type": "single-audio", "trial_index": 25, "time_elapsed": 174737, "internal_node_id": "0.0-16.0"}}, {"uniqueid": "MTK1114:3OSWBBLG1F46CESHOMC6KGRZ6RVDXA", "current_trial": 26, "dateTime": 1513114213904, "trialdata": {"rt": -1000, "stimulus": "/static/audio/wordpool/COFFEE.wav", "key_press": -1, "type": "PRES_AUD", "word": "coffee", "wordID": 340, "conditions": [18, 1200, "a", 18000], "trial": 0, "serialpos": 5, "trial_type": "single-audio", "trial_index": 26, "time_elapsed": 176858, "internal_node_id": "0.0-17.0"}}, {"uniqueid": "MTK1114:3OSWBBLG1F46CESHOMC6KGRZ6RVDXA", "current_trial": 27, "dateTime": 1513114216002, "trialdata": {"rt": -1000, "stimulus": "/static/audio/wordpool/AIRPLANE.wav", "key_press": -1, "type": "PRES_AUD", "word": "airplane", "wordID": 11, "conditions": [18, 1200, "a", 18000], "trial": 0, "serialpos": 6, "trial_type": "single-audio", "trial_index": 27, "time_elapsed": 178956, "internal_node_id": "0.0-18.0"}}, {"uniqueid": "MTK1114:3OSWBBLG1F46CESHOMC6KGRZ6RVDXA", "current_trial": 28, "dateTime": 1513114218175, "trialdata": {"rt": -1000, "stimulus": "/static/audio/wordpool/AUTHOR.wav", "key_press": -1, "type": "PRES_AUD", "word": "author", "wordID": 60, "conditions": [18, 1200, "a", 18000], "trial": 0, "serialpos": 7, "trial_type": "single-audio", "trial_index": 28, "time_elapsed": 181129, "internal_node_id": "0.0-19.0"}}, {"uniqueid": "MTK1114:3OSWBBLG1F46CESHOMC6KGRZ6RVDXA", "current_trial": 29, "dateTime": 1513114220235, "trialdata": {"rt": -1000, "stimulus": "/static/audio/wordpool/SCALPEL.wav", "key_press": -1, "type": "PRES_AUD", "word": "scalpel", "wordID": 1242, "conditions": [18, 1200, "a", 18000], "trial": 0, "serialpos": 8, "trial_type": "single-audio", "trial_index": 29, "time_elapsed": 183189, "internal_node_id": "0.0-20.0"}}, {"uniqueid": "MTK1114:3OSWBBLG1F46CESHOMC6KGRZ6RVDXA", "current_trial": 30, "dateTime": 1513114222584, "trialdata": {"rt": -1000, "stimulus": "/static/audio/wordpool/CHILD.wav", "key_press": -1, "type": "PRES_AUD", "word": "child", "wordID": 298, "conditions": [18, 1200, "a", 18000], "trial": 0, "serialpos": 9, "trial_type": "single-audio", "trial_index": 30, "time_elapsed": 185537, "internal_node_id": "0.0-21.0"}}, {"uniqueid": "MTK1114:3OSWBBLG1F46CESHOMC6KGRZ6RVDXA", "current_trial": 31, "dateTime": 1513114224823, "trialdata": {"rt": -1000, "stimulus": "/static/audio/wordpool/MACHINE.wav", "key_press": -1, "type": "PRES_AUD", "word": "machine", "wordID": 851, "conditions": [18, 1200, "a", 18000], "trial": 0, "serialpos": 10, "trial_type": "single-audio", "trial_index": 31, "time_elapsed": 187777, "internal_node_id": "0.0-22.0"}}, {"uniqueid": "MTK1114:3OSWBBLG1F46CESHOMC6KGRZ6RVDXA", "current_trial": 32, "dateTime": 1513114227025, "trialdata": {"rt": -1000, "stimulus": "/static/audio/wordpool/RABBIT.wav", "key_press": -1, "type": "PRES_AUD", "word": "rabbit", "wordID": 1151, "conditions": [18, 1200, "a", 18000], "trial": 0, "serialpos": 11, "trial_type": "single-audio", "trial_index": 32, "time_elapsed": 189978, "internal_node_id": "0.0-23.0"}}, {"uniqueid": "MTK1114:3OSWBBLG1F46CESHOMC6KGRZ6RVDXA", "current_trial": 33, "dateTime": 1513114229137, "trialdata": {"rt": -1000, "stimulus": "/static/audio/wordpool/BEAVER.wav", "key_press": -1, "type": "PRES_AUD", "word": "beaver", "wordID": 108, "conditions": [18, 1200, "a", 18000], "trial": 0, "serialpos": 12, "trial_type": "single-audio", "trial_index": 33, "time_elapsed": 192091, "internal_node_id": "0.0-24.0"}}, {"uniqueid": "MTK1114:3OSWBBLG1F46CESHOMC6KGRZ6RVDXA", "current_trial": 34, "dateTime": 1513114231348, "trialdata": {"rt": -1000, "stimulus": "/static/audio/wordpool/RUST.wav", "key_press": -1, "type": "PRES_AUD", "word": "rust", "wordID": 1218, "conditions": [18, 1200, "a", 18000], "trial": 0, "serialpos": 13, "trial_type": "single-audio", "trial_index": 34, "time_elapsed": 194301, "internal_node_id": "0.0-25.0"}}, {"uniqueid": "MTK1114:3OSWBBLG1F46CESHOMC6KGRZ6RVDXA", "current_trial": 35, "dateTime": 1513114233714, "trialdata": {"rt": -1000, "stimulus": "/static/audio/wordpool/ZIPPER.wav", "key_press": -1, "type": "PRES_AUD", "word": "zipper", "wordID": 1635, "conditions": [18, 1200, "a", 18000], "trial": 0, "serialpos": 14, "trial_type": "single-audio", "trial_index": 35, "time_elapsed": 196668, "internal_node_id": "0.0-26.0"}}, {"uniqueid": "MTK1114:3OSWBBLG1F46CESHOMC6KGRZ6RVDXA", "current_trial": 36, "dateTime": 1513114235921, "trialdata": {"rt": -1000, "stimulus": "/static/audio/wordpool/ARMY.wav", "key_press": -1, "type": "PRES_AUD", "word": "army", "wordID": 38, "conditions": [18, 1200, "a", 18000], "trial": 0, "serialpos": 15, "trial_type": "single-audio", "trial_index": 36, "time_elapsed": 198875, "internal_node_id": "0.0-27.0"}}, {"uniqueid": "MTK1114:3OSWBBLG1F46CESHOMC6KGRZ6RVDXA", "current_trial": 37, "dateTime": 1513114238168, "trialdata": {"rt": -1000, "stimulus": "/static/audio/wordpool/WHISTLE.wav", "key_press": -1, "type": "PRES_AUD", "word": "whistle", "wordID": 1605, "conditions": [18, 1200, "a", 18000], "trial": 0, "serialpos": 16, "trial_type": "single-audio", "trial_index": 37, "time_elapsed": 201122, "internal_node_id": "0.0-28.0"}}, {"uniqueid": "MTK1114:3OSWBBLG1F46CESHOMC6KGRZ6RVDXA", "current_trial": 38, "dateTime": 1513114240390, "trialdata": {"rt": -1000, "stimulus": "/static/audio/wordpool/HIGHWAY.wav", "key_press": -1, "type": "PRES_AUD", "word": "highway", "wordID": 706, "conditions": [18, 1200, "a", 18000], "trial": 0, "serialpos": 17, "trial_type": "single-audio", "trial_index": 38, "time_elapsed": 203344, "internal_node_id": "0.0-29.0"}}, {"uniqueid": "MTK1114:3OSWBBLG1F46CESHOMC6KGRZ6RVDXA", "current_trial": 39, "dateTime": 1513114241749, "trialdata": {"rt": -1, "stimulus": "", "key_press": -1, "type": "PRE_RECALL_DELAY", "trial_type": "single-stim", "trial_index": 39, "time_elapsed": 204702, "internal_node_id": "0.0-30.0-0.0"}}, {"uniqueid": "MTK1114:3OSWBBLG1F46CESHOMC6KGRZ6RVDXA", "current_trial": 40, "dateTime": 1513114242250, "trialdata": {"rt": -1000, "stimulus": "/static/audio/400Hz.wav", "key_press": -1, "type": "PRE_RECALL_ALERT", "trial_type": "single-audio", "trial_index": 40, "time_elapsed": 205204, "internal_node_id": "0.0-31.0"}}, {"uniqueid": "MTK1114:3OSWBBLG1F46CESHOMC6KGRZ6RVDXA", "current_trial": 41, "dateTime": 1513114302254, "trialdata": {"rt": [8056, 11767, 14959, 17864, 24312, 27551, 30775, 34463, 38391, 42791, 46426, 49657, 53032, 58191], "recwords": ["friend", "drill", "driver", "jello", "barrel", "coffee", "airplane", "army", "highway", "rabbit", "beaver", "aipper", "zipper", "child"], "type": "FREE_RECALL", "conditions": [18, 1200, "a", 18000], "trial": 0, "trial_type": "free-recall", "trial_index": 41, "time_elapsed": 265206, "internal_node_id": "0.0-32.0-0.0"}}, {"uniqueid": "MTK1114:3OSWBBLG1F46CESHOMC6KGRZ6RVDXA", "current_trial": 42, "dateTime": 1513114306193, "trialdata": {"rt": 1927, "key_press": 13, "type": "INSTRUCTIONS", "trial_type": "text", "trial_index": 42, "time_elapsed": 269147, "internal_node_id": "0.0-33.0"}}, {"uniqueid": "MTK1114:3OSWBBLG1F46CESHOMC6KGRZ6RVDXA", "current_trial": 43, "dateTime": 1513114326196, "trialdata": {"rt": [3200, 5849, 8704, 10648, 13984, 16440], "responses": ["15", "12", "14", "9", "14", "13"], "num1": [7, 5, 5, 3, 7, 3, 9], "num2": [6, 4, 5, 5, 6, 4, 8], "num3": [2, 3, 4, 1, 1, 6, 4], "type": "DISTRACTOR", "conditions": [18, 1200, "v", 18000], "trial": 1, "trial_type": "math-distractor", "trial_index": 43, "time_elapsed": 289149, "internal_node_id": "0.0-34.0"}}, {"uniqueid": "MTK1114:3OSWBBLG1F46CESHOMC6KGRZ6RVDXA", "current_trial": 44, "dateTime": 1513114329196, "trialdata": {"rt": -1, "stimulus": "<p id=\"stim\">10</p>", "key_press": -1, "trial_type": "single-stim", "trial_index": 44, "time_elapsed": 292150, "internal_node_id": "0.0-35.0-0.0"}}, {"uniqueid": "MTK1114:3OSWBBLG1F46CESHOMC6KGRZ6RVDXA", "current_trial": 45, "dateTime": 1513114330197, "trialdata": {"rt": -1, "stimulus": "<p id=\"stim\">9</p>", "key_press": -1, "trial_type": "single-stim", "trial_index": 45, "time_elapsed": 293151, "internal_node_id": "0.0-35.0-1.0"}}, {"uniqueid": "MTK1114:3OSWBBLG1F46CESHOMC6KGRZ6RVDXA", "current_trial": 46, "dateTime": 1513114331200, "trialdata": {"rt": -1, "stimulus": "<p id=\"stim\">8</p>", "key_press": -1, "trial_type": "single-stim", "trial_index": 46, "time_elapsed": 294154, "internal_node_id": "0.0-35.0-2.0"}}, {"uniqueid": "MTK1114:3OSWBBLG1F46CESHOMC6KGRZ6RVDXA", "current_trial": 47, "dateTime": 1513114332201, "trialdata": {"rt": -1, "stimulus": "<p id=\"stim\">7</p>", "key_press": -1, "trial_type": "single-stim", "trial_index": 47, "time_elapsed": 295155, "internal_node_id": "0.0-35.0-3.0"}}, {"uniqueid": "MTK1114:3OSWBBLG1F46CESHOMC6KGRZ6RVDXA", "current_trial": 48, "dateTime": 1513114333202, "trialdata": {"rt": -1, "stimulus": "<p id=\"stim\">6</p>", "key_press": -1, "trial_type": "single-stim", "trial_index": 48, "time_elapsed": 296156, "internal_node_id": "0.0-35.0-4.0"}}, {"uniqueid": "MTK1114:3OSWBBLG1F46CESHOMC6KGRZ6RVDXA", "current_trial": 49, "dateTime": 1513114334203, "trialdata": {"rt": -1, "stimulus": "<p id=\"stim\">5</p>", "key_press": -1, "trial_type": "single-stim", "trial_index": 49, "time_elapsed": 297157, "internal_node_id": "0.0-35.0-5.0"}}, {"uniqueid": "MTK1114:3OSWBBLG1F46CESHOMC6KGRZ6RVDXA", "current_trial": 50, "dateTime": 1513114335209, "trialdata": {"rt": -1, "stimulus": "<p id=\"stim\">4</p>", "key_press": -1, "trial_type": "single-stim", "trial_index": 50, "time_elapsed": 298163, "internal_node_id": "0.0-35.0-6.0"}}, {"uniqueid": "MTK1114:3OSWBBLG1F46CESHOMC6KGRZ6RVDXA", "current_trial": 51, "dateTime": 1513114336209, "trialdata": {"rt": -1, "stimulus": "<p id=\"stim\">3</p>", "key_press": -1, "trial_type": "single-stim", "trial_index": 51, "time_elapsed": 299163, "internal_node_id": "0.0-35.0-7.0"}}, {"uniqueid": "MTK1114:3OSWBBLG1F46CESHOMC6KGRZ6RVDXA", "current_trial": 52, "dateTime": 1513114337213, "trialdata": {"rt": -1, "stimulus": "<p id=\"stim\">2</p>", "key_press": -1, "trial_type": "single-stim", "trial_index": 52, "time_elapsed": 300167, "internal_node_id": "0.0-35.0-8.0"}}, {"uniqueid": "MTK1114:3OSWBBLG1F46CESHOMC6KGRZ6RVDXA", "current_trial": 53, "dateTime": 1513114338214, "trialdata": {"rt": -1, "stimulus": "<p id=\"stim\">1</p>", "key_press": -1, "trial_type": "single-stim", "trial_index": 53, "time_elapsed": 301168, "internal_node_id": "0.0-35.0-9.0"}}, {"uniqueid": "MTK1114:3OSWBBLG1F46CESHOMC6KGRZ6RVDXA", "current_trial": 54, "dateTime": 1513114339715, "trialdata": {"rt": -1, "stimulus": "<p id=\"stim\">+</p>", "key_press": -1, "type": "FIXATION", "trial_type": "single-stim", "trial_index": 54, "time_elapsed": 302669, "internal_node_id": "0.0-36.0-0.0"}}, {"uniqueid": "MTK1114:3OSWBBLG1F46CESHOMC6KGRZ6RVDXA", "current_trial": 55, "dateTime": 1513114340916, "trialdata": {"rt": -1, "stimulus": "<p id=\"stim\">MONEY</p>", "key_press": -1, "type": "PRES_VIS", "word": "money", "wordID": 907, "conditions": [18, 1200, "v", 18000], "trial": 1, "serialpos": 0, "trial_type": "single-stim", "trial_index": 55, "time_elapsed": 303870, "internal_node_id": "0.0-37.0"}}, {"uniqueid": "MTK1114:3OSWBBLG1F46CESHOMC6KGRZ6RVDXA", "current_trial": 56, "dateTime": 1513114343278, "trialdata": {"rt": -1, "stimulus": "<p id=\"stim\">QUEEN</p>", "key_press": -1, "type": "PRES_VIS", "word": "queen", "wordID": 1148, "conditions": [18, 1200, "v", 18000], "trial": 1, "serialpos": 1, "trial_type": "single-stim", "trial_index": 56, "time_elapsed": 306232, "internal_node_id": "0.0-38.0"}}, {"uniqueid": "MTK1114:3OSWBBLG1F46CESHOMC6KGRZ6RVDXA", "current_trial": 57, "dateTime": 1513114345646, "trialdata": {"rt": -1, "stimulus": "<p id=\"stim\">LIGHTNING</p>", "key_press": -1, "type": "PRES_VIS", "word": "lightning", "wordID": 819, "conditions": [18, 1200, "v", 18000], "trial": 1, "serialpos": 2, "trial_type": "single-stim", "trial_index": 57, "time_elapsed": 308600, "internal_node_id": "0.0-39.0"}}, {"uniqueid": "MTK1114:3OSWBBLG1F46CESHOMC6KGRZ6RVDXA", "current_trial": 58, "dateTime": 1513114347914, "trialdata": {"rt": -1, "stimulus": "<p id=\"stim\">PARROT</p>", "key_press": -1, "type": "PRES_VIS", "word": "parrot", "wordID": 1014, "conditions": [18, 1200, "v", 18000], "trial": 1, "serialpos": 3, "trial_type": "single-stim", "trial_index": 58, "time_elapsed": 310868, "internal_node_id": "0.0-40.0"}}, {"uniqueid": "MTK1114:3OSWBBLG1F46CESHOMC6KGRZ6RVDXA", "current_trial": 59, "dateTime": 1513114350263, "trialdata": {"rt": -1, "stimulus": "<p id=\"stim\">LABEL</p>", "key_press": -1, "type": "PRES_VIS", "word": "label", "wordID": 789, "conditions": [18, 1200, "v", 18000], "trial": 1, "serialpos": 4, "trial_type": "single-stim", "trial_index": 59, "time_elapsed": 313217, "internal_node_id": "0.0-41.0"}}, {"uniqueid": "MTK1114:3OSWBBLG1F46CESHOMC6KGRZ6RVDXA", "current_trial": 60, "dateTime": 1513114352553, "trialdata": {"rt": -1, "stimulus": "<p id=\"stim\">SHARK</p>", "key_press": -1, "type": "PRES_VIS", "word": "shark", "wordID": 1274, "conditions": [18, 1200, "v", 18000], "trial": 1, "serialpos": 5, "trial_type": "single-stim", "trial_index": 60, "time_elapsed": 315507, "internal_node_id": "0.0-42.0"}}, {"uniqueid": "MTK1114:3OSWBBLG1F46CESHOMC6KGRZ6RVDXA", "current_trial": 61, "dateTime": 1513114354784, "trialdata": {"rt": -1, "stimulus": "<p id=\"stim\">BACKBONE</p>", "key_press": -1, "type": "PRES_VIS", "word": "backbone", "wordID": 65, "conditions": [18, 1200, "v", 18000], "trial": 1, "serialpos": 6, "trial_type": "single-stim", "trial_index": 61, "time_elapsed": 317738, "internal_node_id": "0.0-43.0"}}, {"uniqueid": "MTK1114:3OSWBBLG1F46CESHOMC6KGRZ6RVDXA", "current_trial": 62, "dateTime": 1513114356980, "trialdata": {"rt": -1, "stimulus": "<p id=\"stim\">CRAB</p>", "key_press": -1, "type": "PRES_VIS", "word": "crab", "wordID": 396, "conditions": [18, 1200, "v", 18000], "trial": 1, "serialpos": 7, "trial_type": "single-stim", "trial_index": 62, "time_elapsed": 319934, "internal_node_id": "0.0-44.0"}}, {"uniqueid": "MTK1114:3OSWBBLG1F46CESHOMC6KGRZ6RVDXA", "current_trial": 63, "dateTime": 1513114359086, "trialdata": {"rt": -1, "stimulus": "<p id=\"stim\">HANDBAG</p>", "key_press": -1, "type": "PRES_VIS", "word": "handbag", "wordID": 683, "conditions": [18, 1200, "v", 18000], "trial": 1, "serialpos": 8, "trial_type": "single-stim", "trial_index": 63, "time_elapsed": 322040, "internal_node_id": "0.0-45.0"}}, {"uniqueid": "MTK1114:3OSWBBLG1F46CESHOMC6KGRZ6RVDXA", "current_trial": 64, "dateTime": 1513114361122, "trialdata": {"rt": -1, "stimulus": "<p id=\"stim\">ZEBRA</p>", "key_press": -1, "type": "PRES_VIS", "word": "zebra", "wordID": 1634, "conditions": [18, 1200, "v", 18000], "trial": 1, "serialpos": 9, "trial_type": "single-stim", "trial_index": 64, "time_elapsed": 324076, "internal_node_id": "0.0-46.0"}}, {"uniqueid": "MTK1114:3OSWBBLG1F46CESHOMC6KGRZ6RVDXA", "current_trial": 65, "dateTime": 1513114363498, "trialdata": {"rt": -1, "stimulus": "<p id=\"stim\">OZONE</p>", "key_press": -1, "type": "PRES_VIS", "word": "ozone", "wordID": 995, "conditions": [18, 1200, "v", 18000], "trial": 1, "serialpos": 10, "trial_type": "single-stim", "trial_index": 65, "time_elapsed": 326452, "internal_node_id": "0.0-47.0"}}, {"uniqueid": "MTK1114:3OSWBBLG1F46CESHOMC6KGRZ6RVDXA", "current_trial": 66, "dateTime": 1513114365717, "trialdata": {"rt": -1, "stimulus": "<p id=\"stim\">SIBLING</p>", "key_press": -1, "type": "PRES_VIS", "word": "sibling", "wordID": 1300, "conditions": [18, 1200, "v", 18000], "trial": 1, "serialpos": 11, "trial_type": "single-stim", "trial_index": 66, "time_elapsed": 328671, "internal_node_id": "0.0-48.0"}}, {"uniqueid": "MTK1114:3OSWBBLG1F46CESHOMC6KGRZ6RVDXA", "current_trial": 67, "dateTime": 1513114367735, "trialdata": {"rt": -1, "stimulus": "<p id=\"stim\">CHAUFFEUR</p>", "key_press": -1, "type": "PRES_VIS", "word": "chauffeur", "wordID": 282, "conditions": [18, 1200, "v", 18000], "trial": 1, "serialpos": 12, "trial_type": "single-stim", "trial_index": 67, "time_elapsed": 330688, "internal_node_id": "0.0-49.0"}}, {"uniqueid": "MTK1114:3OSWBBLG1F46CESHOMC6KGRZ6RVDXA", "current_trial": 68, "dateTime": 1513114370094, "trialdata": {"rt": -1, "stimulus": "<p id=\"stim\">DRUG</p>", "key_press": -1, "type": "PRES_VIS", "word": "drug", "wordID": 500, "conditions": [18, 1200, "v", 18000], "trial": 1, "serialpos": 13, "trial_type": "single-stim", "trial_index": 68, "time_elapsed": 333045, "internal_node_id": "0.0-50.0"}}, {"uniqueid": "MTK1114:3OSWBBLG1F46CESHOMC6KGRZ6RVDXA", "current_trial": 69, "dateTime": 1513114372477, "trialdata": {"rt": -1, "stimulus": "<p id=\"stim\">SCALLOP</p>", "key_press": -1, "type": "PRES_VIS", "word": "scallop", "wordID": 1241, "conditions": [18, 1200, "v", 18000], "trial": 1, "serialpos": 14, "trial_type": "single-stim", "trial_index": 69, "time_elapsed": 335431, "internal_node_id": "0.0-51.0"}}, {"uniqueid": "MTK1114:3OSWBBLG1F46CESHOMC6KGRZ6RVDXA", "current_trial": 70, "dateTime": 1513114374845, "trialdata": {"rt": -1, "stimulus": "<p id=\"stim\">PRINCESS</p>", "key_press": -1, "type": "PRES_VIS", "word": "princess", "wordID": 1124, "conditions": [18, 1200, "v", 18000], "trial": 1, "serialpos": 15, "trial_type": "single-stim", "trial_index": 70, "time_elapsed": 337799, "internal_node_id": "0.0-52.0"}}, {"uniqueid": "MTK1114:3OSWBBLG1F46CESHOMC6KGRZ6RVDXA", "current_trial": 71, "dateTime": 1513114376911, "trialdata": {"rt": -1, "stimulus": "<p id=\"stim\">ELBOW</p>", "key_press": -1, "type": "PRES_VIS", "word": "elbow", "wordID": 519, "conditions": [18, 1200, "v", 18000], "trial": 1, "serialpos": 16, "trial_type": "single-stim", "trial_index": 71, "time_elapsed": 339865, "internal_node_id": "0.0-53.0"}}, {"uniqueid": "MTK1114:3OSWBBLG1F46CESHOMC6KGRZ6RVDXA", "current_trial": 72, "dateTime": 1513114379088, "trialdata": {"rt": -1, "stimulus": "<p id=\"stim\">LIPSTICK</p>", "key_press": -1, "type": "PRES_VIS", "word": "lipstick", "wordID": 828, "conditions": [18, 1200, "v", 18000], "trial": 1, "serialpos": 17, "trial_type": "single-stim", "trial_index": 72, "time_elapsed": 342042, "internal_node_id": "0.0-54.0"}}, {"uniqueid": "MTK1114:3OSWBBLG1F46CESHOMC6KGRZ6RVDXA", "current_trial": 73, "dateTime": 1513114381363, "trialdata": {"rt": -1, "stimulus": "", "key_press": -1, "type": "PRE_RECALL_DELAY", "trial_type": "single-stim", "trial_index": 73, "time_elapsed": 344317, "internal_node_id": "0.0-55.0-0.0"}}, {"uniqueid": "MTK1114:3OSWBBLG1F46CESHOMC6KGRZ6RVDXA", "current_trial": 74, "dateTime": 1513114381864, "trialdata": {"rt": -1000, "stimulus": "/static/audio/400Hz.wav", "key_press": -1, "type": "PRE_RECALL_ALERT", "trial_type": "single-audio", "trial_index": 74, "time_elapsed": 344818, "internal_node_id": "0.0-56.0"}}, {"uniqueid": "MTK1114:3OSWBBLG1F46CESHOMC6KGRZ6RVDXA", "current_trial": 75, "dateTime": 1513114441876, "trialdata": {"rt": [4434, 7201, 10138, 17442, 20305, 25609, 28433, 30338, 33513, 38593, 41938], "recwords": ["money", "queen", "parrott", "backbone", "handbag", "zebra", "scallop", "drill", "elbow", "chauffer", "ozone"], "type": "FREE_RECALL", "conditions": [18, 1200, "v", 18000], "trial": 1, "trial_type": "free-recall", "trial_index": 75, "time_elapsed": 404822, "internal_node_id": "0.0-57.0-0.0"}}, {"uniqueid": "MTK1114:3OSWBBLG1F46CESHOMC6KGRZ6RVDXA", "current_trial": 76, "dateTime": 1513114447143, "trialdata": {"rt": 3262, "key_press": 13, "type": "INSTRUCTIONS", "trial_type": "text", "trial_index": 76, "time_elapsed": 410092, "internal_node_id": "0.0-58.0"}}, {"uniqueid": "MTK1114:3OSWBBLG1F46CESHOMC6KGRZ6RVDXA", "current_trial": 77, "dateTime": 1513114472144, "trialdata": {"rt": [4810, 7610, 9442, 12330, 14594, 17795, 22786], "responses": ["22", "16", "9", "16", "14", "23", "21"], "num1": [5, 2, 1, 8, 4, 9, 4, 5], "num2": [8, 5, 7, 3, 4, 6, 9, 1], "num3": [9, 9, 1, 5, 6, 8, 8, 5], "type": "DISTRACTOR", "conditions": [12, 1600, "v", 24000], "trial": 2, "trial_type": "math-distractor", "trial_index": 77, "time_elapsed": 435098, "internal_node_id": "0.0-59.0"}}, {"uniqueid": "MTK1114:3OSWBBLG1F46CESHOMC6KGRZ6RVDXA", "current_trial": 78, "dateTime": 1513114475146, "trialdata": {"rt": -1, "stimulus": "<p id=\"stim\">10</p>", "key_press": -1, "trial_type": "single-stim", "trial_index": 78, "time_elapsed": 438100, "internal_node_id": "0.0-60.0-0.0"}}, {"uniqueid": "MTK1114:3OSWBBLG1F46CESHOMC6KGRZ6RVDXA", "current_trial": 79, "dateTime": 1513114476168, "trialdata": {"rt": -1, "stimulus": "<p id=\"stim\">9</p>", "key_press": -1, "trial_type": "single-stim", "trial_index": 79, "time_elapsed": 439122, "internal_node_id": "0.0-60.0-1.0"}}, {"uniqueid": "MTK1114:3OSWBBLG1F46CESHOMC6KGRZ6RVDXA", "current_trial": 80, "dateTime": 1513114477170, "trialdata": {"rt": -1, "stimulus": "<p id=\"stim\">8</p>", "key_press": -1, "trial_type": "single-stim", "trial_index": 80, "time_elapsed": 440123, "internal_node_id": "0.0-60.0-2.0"}}, {"uniqueid": "MTK1114:3OSWBBLG1F46CESHOMC6KGRZ6RVDXA", "current_trial": 81, "dateTime": 1513114478171, "trialdata": {"rt": -1, "stimulus": "<p id=\"stim\">7</p>", "key_press": -1, "trial_type": "single-stim", "trial_index": 81, "time_elapsed": 441125, "internal_node_id": "0.0-60.0-3.0"}}, {"uniqueid": "MTK1114:3OSWBBLG1F46CESHOMC6KGRZ6RVDXA", "current_trial": 82, "dateTime": 1513114479171, "trialdata": {"rt": -1, "stimulus": "<p id=\"stim\">6</p>", "key_press": -1, "trial_type": "single-stim", "trial_index": 82, "time_elapsed": 442125, "internal_node_id": "0.0-60.0-4.0"}}, {"uniqueid": "MTK1114:3OSWBBLG1F46CESHOMC6KGRZ6RVDXA", "current_trial": 83, "dateTime": 1513114480172, "trialdata": {"rt": -1, "stimulus": "<p id=\"stim\">5</p>", "key_press": -1, "trial_type": "single-stim", "trial_index": 83, "time_elapsed": 443126, "internal_node_id": "0.0-60.0-5.0"}}, {"uniqueid": "MTK1114:3OSWBBLG1F46CESHOMC6KGRZ6RVDXA", "current_trial": 84, "dateTime": 1513114481173, "trialdata": {"rt": -1, "stimulus": "<p id=\"stim\">4</p>", "key_press": -1, "trial_type": "single-stim", "trial_index": 84, "time_elapsed": 444127, "internal_node_id": "0.0-60.0-6.0"}}, {"uniqueid": "MTK1114:3OSWBBLG1F46CESHOMC6KGRZ6RVDXA", "current_trial": 85, "dateTime": 1513114482173, "trialdata": {"rt": -1, "stimulus": "<p id=\"stim\">3</p>", "key_press": -1, "trial_type": "single-stim", "trial_index": 85, "time_elapsed": 445127, "internal_node_id": "0.0-60.0-7.0"}}, {"uniqueid": "MTK1114:3OSWBBLG1F46CESHOMC6KGRZ6RVDXA", "current_trial": 86, "dateTime": 1513114483173, "trialdata": {"rt": -1, "stimulus": "<p id=\"stim\">2</p>", "key_press": -1, "trial_type": "single-stim", "trial_index": 86, "time_elapsed": 446127, "internal_node_id": "0.0-60.0-8.0"}}, {"uniqueid": "MTK1114:3OSWBBLG1F46CESHOMC6KGRZ6RVDXA", "current_trial": 87, "dateTime": 1513114484190, "trialdata": {"rt": -1, "stimulus": "<p id=\"stim\">1</p>", "key_press": -1, "trial_type": "single-stim", "trial_index": 87, "time_elapsed": 447144, "internal_node_id": "0.0-60.0-9.0"}}, {"uniqueid": "MTK1114:3OSWBBLG1F46CESHOMC6KGRZ6RVDXA", "current_trial": 88, "dateTime": 1513114485692, "trialdata": {"rt": -1, "stimulus": "<p id=\"stim\">+</p>", "key_press": -1, "type": "FIXATION", "trial_type": "single-stim", "trial_index": 88, "time_elapsed": 448646, "internal_node_id": "0.0-61.0-0.0"}}, {"uniqueid": "MTK1114:3OSWBBLG1F46CESHOMC6KGRZ6RVDXA", "current_trial": 89, "dateTime": 1513114487294, "trialdata": {"rt": -1, "stimulus": "<p id=\"stim\">ASIA</p>", "key_press": -1, "type": "PRES_VIS", "word": "asia", "wordID": 45, "conditions": [12, 1600, "v", 24000], "trial": 2, "serialpos": 0, "trial_type": "single-stim", "trial_index": 89, "time_elapsed": 450248, "internal_node_id": "0.0-62.0"}}, {"uniqueid": "MTK1114:3OSWBBLG1F46CESHOMC6KGRZ6RVDXA", "current_trial": 90, "dateTime": 1513114490012, "trialdata": {"rt": -1, "stimulus": "<p id=\"stim\">GROUND</p>", "key_press": -1, "type": "PRES_VIS", "word": "ground", "wordID": 665, "conditions": [12, 1600, "v", 24000], "trial": 2, "serialpos": 1, "trial_type": "single-stim", "trial_index": 90, "time_elapsed": 452966, "internal_node_id": "0.0-63.0"}}, {"uniqueid": "MTK1114:3OSWBBLG1F46CESHOMC6KGRZ6RVDXA", "current_trial": 91, "dateTime": 1513114492734, "trialdata": {"rt": -1, "stimulus": "<p id=\"stim\">SIDEWALK</p>", "key_press": -1, "type": "PRES_VIS", "word": "sidewalk", "wordID": 1302, "conditions": [12, 1600, "v", 24000], "trial": 2, "serialpos": 2, "trial_type": "single-stim", "trial_index": 91, "time_elapsed": 455688, "internal_node_id": "0.0-64.0"}}, {"uniqueid": "MTK1114:3OSWBBLG1F46CESHOMC6KGRZ6RVDXA", "current_trial": 92, "dateTime": 1513114495387, "trialdata": {"rt": -1, "stimulus": "<p id=\"stim\">CHURCH</p>", "key_press": -1, "type": "PRES_VIS", "word": "church", "wordID": 306, "conditions": [12, 1600, "v", 24000], "trial": 2, "serialpos": 3, "trial_type": "single-stim", "trial_index": 92, "time_elapsed": 458341, "internal_node_id": "0.0-65.0"}}, {"uniqueid": "MTK1114:3OSWBBLG1F46CESHOMC6KGRZ6RVDXA", "current_trial": 93, "dateTime": 1513114497807, "trialdata": {"rt": -1, "stimulus": "<p id=\"stim\">TUBA</p>", "key_press": -1, "type": "PRES_VIS", "word": "tuba", "wordID": 1514, "conditions": [12, 1600, "v", 24000], "trial": 2, "serialpos": 4, "trial_type": "single-stim", "trial_index": 93, "time_elapsed": 460761, "internal_node_id": "0.0-66.0"}}, {"uniqueid": "MTK1114:3OSWBBLG1F46CESHOMC6KGRZ6RVDXA", "current_trial": 94, "dateTime": 1513114500379, "trialdata": {"rt": -1, "stimulus": "<p id=\"stim\">PEACH</p>", "key_press": -1, "type": "PRES_VIS", "word": "peach", "wordID": 1030, "conditions": [12, 1600, "v", 24000], "trial": 2, "serialpos": 5, "trial_type": "single-stim", "trial_index": 94, "time_elapsed": 463333, "internal_node_id": "0.0-67.0"}}, {"uniqueid": "MTK1114:3OSWBBLG1F46CESHOMC6KGRZ6RVDXA", "current_trial": 95, "dateTime": 1513114503040, "trialdata": {"rt": -1, "stimulus": "<p id=\"stim\">MATTRESS</p>", "key_press": -1, "type": "PRES_VIS", "word": "mattress", "wordID": 878, "conditions": [12, 1600, "v", 24000], "trial": 2, "serialpos": 6, "trial_type": "single-stim", "trial_index": 95, "time_elapsed": 465994, "internal_node_id": "0.0-68.0"}}, {"uniqueid": "MTK1114:3OSWBBLG1F46CESHOMC6KGRZ6RVDXA", "current_trial": 96, "dateTime": 1513114505535, "trialdata": {"rt": -1, "stimulus": "<p id=\"stim\">CRIB</p>", "key_press": -1, "type": "PRES_VIS", "word": "crib", "wordID": 406, "conditions": [12, 1600, "v", 24000], "trial": 2, "serialpos": 7, "trial_type": "single-stim", "trial_index": 96, "time_elapsed": 468489, "internal_node_id": "0.0-69.0"}}, {"uniqueid": "MTK1114:3OSWBBLG1F46CESHOMC6KGRZ6RVDXA", "current_trial": 97, "dateTime": 1513114508117, "trialdata": {"rt": -1, "stimulus": "<p id=\"stim\">VALLEY</p>", "key_press": -1, "type": "PRES_VIS", "word": "valley", "wordID": 1544, "conditions": [12, 1600, "v", 24000], "trial": 2, "serialpos": 8, "trial_type": "single-stim", "trial_index": 97, "time_elapsed": 471071, "internal_node_id": "0.0-70.0"}}, {"uniqueid": "MTK1114:3OSWBBLG1F46CESHOMC6KGRZ6RVDXA", "current_trial": 98, "dateTime": 1513114510638, "trialdata": {"rt": -1, "stimulus": "<p id=\"stim\">BODY</p>", "key_press": -1, "type": "PRES_VIS", "word": "body", "wordID": 144, "conditions": [12, 1600, "v", 24000], "trial": 2, "serialpos": 9, "trial_type": "single-stim", "trial_index": 98, "time_elapsed": 473592, "internal_node_id": "0.0-71.0"}}, {"uniqueid": "MTK1114:3OSWBBLG1F46CESHOMC6KGRZ6RVDXA", "current_trial": 99, "dateTime": 1513114513324, "trialdata": {"rt": -1, "stimulus": "<p id=\"stim\">JAPAN</p>", "key_press": -1, "type": "PRES_VIS", "word": "japan", "wordID": 748, "conditions": [12, 1600, "v", 24000], "trial": 2, "serialpos": 10, "trial_type": "single-stim", "trial_index": 99, "time_elapsed": 476278, "internal_node_id": "0.0-72.0"}}, {"uniqueid": "MTK1114:3OSWBBLG1F46CESHOMC6KGRZ6RVDXA", "current_trial": 100, "dateTime": 1513114516037, "trialdata": {"rt": -1, "stimulus": "<p id=\"stim\">CUSTARD</p>", "key_press": -1, "type": "PRES_VIS", "word": "custard", "wordID": 428, "conditions": [12, 1600, "v", 24000], "trial": 2, "serialpos": 11, "trial_type": "single-stim", "trial_index": 100, "time_elapsed": 478991, "internal_node_id": "0.0-73.0"}}, {"uniqueid": "MTK1114:3OSWBBLG1F46CESHOMC6KGRZ6RVDXA", "current_trial": 101, "dateTime": 1513114518228, "trialdata": {"rt": -1, "stimulus": "", "key_press": -1, "type": "PRE_RECALL_DELAY", "trial_type": "single-stim", "trial_index": 101, "time_elapsed": 481182, "internal_node_id": "0.0-74.0-0.0"}}, {"uniqueid": "MTK1114:3OSWBBLG1F46CESHOMC6KGRZ6RVDXA", "current_trial": 102, "dateTime": 1513114518729, "trialdata": {"rt": -1000, "stimulus": "/static/audio/400Hz.wav", "key_press": -1, "type": "PRE_RECALL_ALERT", "trial_type": "single-audio", "trial_index": 102, "time_elapsed": 481683, "internal_node_id": "0.0-75.0"}}, {"uniqueid": "MTK1114:3OSWBBLG1F46CESHOMC6KGRZ6RVDXA", "current_trial": 103, "dateTime": 1513114578742, "trialdata": {"rt": [4424, 8168, 12296, 15640, 17528, 20352, 25512, 28488, 31894], "recwords": ["asia", "ground", "sidewalk", "church", "tuba", "peach", "body", "japan", "custard"], "type": "FREE_RECALL", "conditions": [12, 1600, "v", 24000], "trial": 2, "trial_type": "free-recall", "trial_index": 103, "time_elapsed": 541691, "internal_node_id": "0.0-76.0-0.0"}}, {"uniqueid": "MTK1114:3OSWBBLG1F46CESHOMC6KGRZ6RVDXA", "current_trial": 104, "dateTime": 1513114582994, "trialdata": {"rt": 2248, "key_press": 13, "type": "INSTRUCTIONS", "trial_type": "text", "trial_index": 104, "time_elapsed": 545948, "internal_node_id": "0.0-77.0"}}, {"uniqueid": "MTK1114:3OSWBBLG1F46CESHOMC6KGRZ6RVDXA", "current_trial": 105, "dateTime": 1513114596996, "trialdata": {"rt": [3760, 5584, 7497, 10632], "responses": ["14", "16", "17", "25"], "num1": [1, 6, 1, 9, 9], "num2": [8, 4, 7, 9, 7], "num3": [5, 6, 9, 7, 5], "type": "DISTRACTOR", "conditions": [24, 1600, "a", 12000], "trial": 3, "trial_type": "math-distractor", "trial_index": 105, "time_elapsed": 559950, "internal_node_id": "0.0-78.0"}}, {"uniqueid": "MTK1114:3OSWBBLG1F46CESHOMC6KGRZ6RVDXA", "current_trial": 106, "dateTime": 1513114599998, "trialdata": {"rt": -1, "stimulus": "<p id=\"stim\">10</p>", "key_press": -1, "trial_type": "single-stim", "trial_index": 106, "time_elapsed": 562952, "internal_node_id": "0.0-79.0-0.0"}}, {"uniqueid": "MTK1114:3OSWBBLG1F46CESHOMC6KGRZ6RVDXA", "current_trial": 107, "dateTime": 1513114601018, "trialdata": {"rt": -1, "stimulus": "<p id=\"stim\">9</p>", "key_press": -1, "trial_type": "single-stim", "trial_index": 107, "time_elapsed": 563971, "internal_node_id": "0.0-79.0-1.0"}}, {"uniqueid": "MTK1114:3OSWBBLG1F46CESHOMC6KGRZ6RVDXA", "current_trial": 108, "dateTime": 1513114602023, "trialdata": {"rt": -1, "stimulus": "<p id=\"stim\">8</p>", "key_press": -1, "trial_type": "single-stim", "trial_index": 108, "time_elapsed": 564977, "internal_node_id": "0.0-79.0-2.0"}}, {"uniqueid": "MTK1114:3OSWBBLG1F46CESHOMC6KGRZ6RVDXA", "current_trial": 109, "dateTime": 1513114603029, "trialdata": {"rt": -1, "stimulus": "<p id=\"stim\">7</p>", "key_press": -1, "trial_type": "single-stim", "trial_index": 109, "time_elapsed": 565983, "internal_node_id": "0.0-79.0-3.0"}}, {"uniqueid": "MTK1114:3OSWBBLG1F46CESHOMC6KGRZ6RVDXA", "current_trial": 110, "dateTime": 1513114604031, "trialdata": {"rt": -1, "stimulus": "<p id=\"stim\">6</p>", "key_press": -1, "trial_type": "single-stim", "trial_index": 110, "time_elapsed": 566985, "internal_node_id": "0.0-79.0-4.0"}}, {"uniqueid": "MTK1114:3OSWBBLG1F46CESHOMC6KGRZ6RVDXA", "current_trial": 111, "dateTime": 1513114605035, "trialdata": {"rt": -1, "stimulus": "<p id=\"stim\">5</p>", "key_press": -1, "trial_type": "single-stim", "trial_index": 111, "time_elapsed": 567989, "internal_node_id": "0.0-79.0-5.0"}}, {"uniqueid": "MTK1114:3OSWBBLG1F46CESHOMC6KGRZ6RVDXA", "current_trial": 112, "dateTime": 1513114606036, "trialdata": {"rt": -1, "stimulus": "<p id=\"stim\">4</p>", "key_press": -1, "trial_type": "single-stim", "trial_index": 112, "time_elapsed": 568990, "internal_node_id": "0.0-79.0-6.0"}}, {"uniqueid": "MTK1114:3OSWBBLG1F46CESHOMC6KGRZ6RVDXA", "current_trial": 113, "dateTime": 1513114607037, "trialdata": {"rt": -1, "stimulus": "<p id=\"stim\">3</p>", "key_press": -1, "trial_type": "single-stim", "trial_index": 113, "time_elapsed": 569991, "internal_node_id": "0.0-79.0-7.0"}}, {"uniqueid": "MTK1114:3OSWBBLG1F46CESHOMC6KGRZ6RVDXA", "current_trial": 114, "dateTime": 1513114608038, "trialdata": {"rt": -1, "stimulus": "<p id=\"stim\">2</p>", "key_press": -1, "trial_type": "single-stim", "trial_index": 114, "time_elapsed": 570991, "internal_node_id": "0.0-79.0-8.0"}}, {"uniqueid": "MTK1114:3OSWBBLG1F46CESHOMC6KGRZ6RVDXA", "current_trial": 115, "dateTime": 1513114609039, "trialdata": {"rt": -1, "stimulus": "<p id=\"stim\">1</p>", "key_press": -1, "trial_type": "single-stim", "trial_index": 115, "time_elapsed": 571993, "internal_node_id": "0.0-79.0-9.0"}}, {"uniqueid": "MTK1114:3OSWBBLG1F46CESHOMC6KGRZ6RVDXA", "current_trial": 116, "dateTime": 1513114610542, "trialdata": {"rt": -1, "stimulus": "<p id=\"stim\">+</p>", "key_press": -1, "type": "FIXATION", "trial_type": "single-stim", "trial_index": 116, "time_elapsed": 573496, "internal_node_id": "0.0-80.0-0.0"}}, {"uniqueid": "MTK1114:3OSWBBLG1F46CESHOMC6KGRZ6RVDXA", "current_trial": 117, "dateTime": 1513114613179, "trialdata": {"rt": -1000, "stimulus": "/static/audio/wordpool/HUSBAND.wav", "key_press": -1, "type": "PRES_AUD", "word": "husband", "wordID": 727, "conditions": [24, 1600, "a", 12000], "trial": 3, "serialpos": 0, "trial_type": "single-audio", "trial_index": 117, "time_elapsed": 576132, "internal_node_id": "0.0-81.0"}}, {"uniqueid": "MTK1114:3OSWBBLG1F46CESHOMC6KGRZ6RVDXA", "current_trial": 118, "dateTime": 1513114615648, "trialdata": {"rt": -1000, "stimulus": "/static/audio/wordpool/SALT.wav", "key_press": -1, "type": "PRES_AUD", "word": "salt", "wordID": 1228, "conditions": [24, 1600, "a", 12000], "trial": 3, "serialpos": 1, "trial_type": "single-audio", "trial_index": 118, "time_elapsed": 578601, "internal_node_id": "0.0-82.0"}}, {"uniqueid": "MTK1114:3OSWBBLG1F46CESHOMC6KGRZ6RVDXA", "current_trial": 119, "dateTime": 1513114618316, "trialdata": {"rt": -1000, "stimulus": "/static/audio/wordpool/CRITIC.wav", "key_press": -1, "type": "PRES_AUD", "word": "critic", "wordID": 409, "conditions": [24, 1600, "a", 12000], "trial": 3, "serialpos": 2, "trial_type": "single-audio", "trial_index": 119, "time_elapsed": 581269, "internal_node_id": "0.0-83.0"}}, {"uniqueid": "MTK1114:3OSWBBLG1F46CESHOMC6KGRZ6RVDXA", "current_trial": 120, "dateTime": 1513114621101, "trialdata": {"rt": -1000, "stimulus": "/static/audio/wordpool/DAUGHTER.wav", "key_press": -1, "type": "PRES_AUD", "word": "daughter", "wordID": 441, "conditions": [24, 1600, "a", 12000], "trial": 3, "serialpos": 3, "trial_type": "single-audio", "trial_index": 120, "time_elapsed": 584055, "internal_node_id": "0.0-84.0"}}, {"uniqueid": "MTK1114:3OSWBBLG1F46CESHOMC6KGRZ6RVDXA", "current_trial": 121, "dateTime": 1513114623787, "trialdata": {"rt": -1000, "stimulus": "/static/audio/wordpool/LAKE.wav", "key_press": -1, "type": "PRES_AUD", "word": "lake", "wordID": 795, "conditions": [24, 1600, "a", 12000], "trial": 3, "serialpos": 4, "trial_type": "single-audio", "trial_index": 121, "time_elapsed": 586741, "internal_node_id": "0.0-85.0"}}, {"uniqueid": "MTK1114:3OSWBBLG1F46CESHOMC6KGRZ6RVDXA", "current_trial": 122, "dateTime": 1513114626258, "trialdata": {"rt": -1000, "stimulus": "/static/audio/wordpool/PREACHER.wav", "key_press": -1, "type": "PRES_AUD", "word": "preacher", "wordID": 1118, "conditions": [24, 1600, "a", 12000], "trial": 3, "serialpos": 5, "trial_type": "single-audio", "trial_index": 122, "time_elapsed": 589212, "internal_node_id": "0.0-86.0"}}, {"uniqueid": "MTK1114:3OSWBBLG1F46CESHOMC6KGRZ6RVDXA", "current_trial": 123, "dateTime": 1513114628997, "trialdata": {"rt": -1000, "stimulus": "/static/audio/wordpool/ANKLE.wav", "key_press": -1, "type": "PRES_AUD", "word": "ankle", "wordID": 23, "conditions": [24, 1600, "a", 12000], "trial": 3, "serialpos": 6, "trial_type": "single-audio", "trial_index": 123, "time_elapsed": 591951, "internal_node_id": "0.0-87.0"}}, {"uniqueid": "MTK1114:3OSWBBLG1F46CESHOMC6KGRZ6RVDXA", "current_trial": 124, "dateTime": 1513114631787, "trialdata": {"rt": -1000, "stimulus": "/static/audio/wordpool/WAITER.wav", "key_press": -1, "type": "PRES_AUD", "word": "waiter", "wordID": 1579, "conditions": [24, 1600, "a", 12000], "trial": 3, "serialpos": 7, "trial_type": "single-audio", "trial_index": 124, "time_elapsed": 594741, "internal_node_id": "0.0-88.0"}}, {"uniqueid": "MTK1114:3OSWBBLG1F46CESHOMC6KGRZ6RVDXA", "current_trial": 125, "dateTime": 1513114634364, "trialdata": {"rt": -1000, "stimulus": "/static/audio/wordpool/SODA.wav", "key_press": -1, "type": "PRES_AUD", "word": "soda", "wordID": 1340, "conditions": [24, 1600, "a", 12000], "trial": 3, "serialpos": 8, "trial_type": "single-audio", "trial_index": 125, "time_elapsed": 597317, "internal_node_id": "0.0-89.0"}}, {"uniqueid": "MTK1114:3OSWBBLG1F46CESHOMC6KGRZ6RVDXA", "current_trial": 126, "dateTime": 1513114636920, "trialdata": {"rt": -1000, "stimulus": "/static/audio/wordpool/CANDY.wav", "key_press": -1, "type": "PRES_AUD", "word": "candy", "wordID": 229, "conditions": [24, 1600, "a", 12000], "trial": 3, "serialpos": 9, "trial_type": "single-audio", "trial_index": 126, "time_elapsed": 599874, "internal_node_id": "0.0-90.0"}}, {"uniqueid": "MTK1114:3OSWBBLG1F46CESHOMC6KGRZ6RVDXA", "current_trial": 127, "dateTime": 1513114639652, "trialdata": {"rt": -1000, "stimulus": "/static/audio/wordpool/MUSTARD.wav", "key_press": -1, "type": "PRES_AUD", "word": "mustard", "wordID": 934, "conditions": [24, 1600, "a", 12000], "trial": 3, "serialpos": 10, "trial_type": "single-audio", "trial_index": 127, "time_elapsed": 602606, "internal_node_id": "0.0-91.0"}}, {"uniqueid": "MTK1114:3OSWBBLG1F46CESHOMC6KGRZ6RVDXA", "current_trial": 128, "dateTime": 1513114642304, "trialdata": {"rt": -1000, "stimulus": "/static/audio/wordpool/ICING.wav", "key_press": -1, "type": "PRES_AUD", "word": "icing", "wordID": 731, "conditions": [24, 1600, "a", 12000], "trial": 3, "serialpos": 11, "trial_type": "single-audio", "trial_index": 128, "time_elapsed": 605258, "internal_node_id": "0.0-92.0"}}, {"uniqueid": "MTK1114:3OSWBBLG1F46CESHOMC6KGRZ6RVDXA", "current_trial": 129, "dateTime": 1513114644750, "trialdata": {"rt": -1000, "stimulus": "/static/audio/wordpool/SHELF.wav", "key_press": -1, "type": "PRES_AUD", "word": "shelf", "wordID": 1279, "conditions": [24, 1600, "a", 12000], "trial": 3, "serialpos": 12, "trial_type": "single-audio", "trial_index": 129, "time_elapsed": 607704, "internal_node_id": "0.0-93.0"}}, {"uniqueid": "MTK1114:3OSWBBLG1F46CESHOMC6KGRZ6RVDXA", "current_trial": 130, "dateTime": 1513114647205, "trialdata": {"rt": -1000, "stimulus": "/static/audio/wordpool/RAZOR.wav", "key_press": -1, "type": "PRES_AUD", "word": "razor", "wordID": 1170, "conditions": [24, 1600, "a", 12000], "trial": 3, "serialpos": 13, "trial_type": "single-audio", "trial_index": 130, "time_elapsed": 610159, "internal_node_id": "0.0-94.0"}}, {"uniqueid": "MTK1114:3OSWBBLG1F46CESHOMC6KGRZ6RVDXA", "current_trial": 131, "dateTime": 1513114649801, "trialdata": {"rt": -1000, "stimulus": "/static/audio/wordpool/WAITRESS.wav", "key_press": -1, "type": "PRES_AUD", "word": "waitress", "wordID": 1580, "conditions": [24, 1600, "a", 12000], "trial": 3, "serialpos": 14, "trial_type": "single-audio", "trial_index": 131, "time_elapsed": 612755, "internal_node_id": "0.0-95.0"}}, {"uniqueid": "MTK1114:3OSWBBLG1F46CESHOMC6KGRZ6RVDXA", "current_trial": 132, "dateTime": 1513114652227, "trialdata": {"rt": -1000, "stimulus": "/static/audio/wordpool/PACKAGE.wav", "key_press": -1, "type": "PRES_AUD", "word": "package", "wordID": 996, "conditions": [24, 1600, "a", 12000], "trial": 3, "serialpos": 15, "trial_type": "single-audio", "trial_index": 132, "time_elapsed": 615181, "internal_node_id": "0.0-96.0"}}, {"uniqueid": "MTK1114:3OSWBBLG1F46CESHOMC6KGRZ6RVDXA", "current_trial": 133, "dateTime": 1513114654932, "trialdata": {"rt": -1000, "stimulus": "/static/audio/wordpool/CONTRACT.wav", "key_press": -1, "type": "PRES_AUD", "word": "contract", "wordID": 367, "conditions": [24, 1600, "a", 12000], "trial": 3, "serialpos": 16, "trial_type": "single-audio", "trial_index": 133, "time_elapsed": 617886, "internal_node_id": "0.0-97.0"}}, {"uniqueid": "MTK1114:3OSWBBLG1F46CESHOMC6KGRZ6RVDXA", "current_trial": 134, "dateTime": 1513114657575, "trialdata": {"rt": -1000, "stimulus": "/static/audio/wordpool/HOSTESS.wav", "key_press": -1, "type": "PRES_AUD", "word": "hostess", "wordID": 722, "conditions": [24, 1600, "a", 12000], "trial": 3, "serialpos": 17, "trial_type": "single-audio", "trial_index": 134, "time_elapsed": 620528, "internal_node_id": "0.0-98.0"}}, {"uniqueid": "MTK1114:3OSWBBLG1F46CESHOMC6KGRZ6RVDXA", "current_trial": 135, "dateTime": 1513114660151, "trialdata": {"rt": -1000, "stimulus": "/static/audio/wordpool/GHETTO.wav", "key_press": -1, "type": "PRES_AUD", "word": "ghetto", "wordID": 632, "conditions": [24, 1600, "a", 12000], "trial": 3, "serialpos": 18, "trial_type": "single-audio", "trial_index": 135, "time_elapsed": 623105, "internal_node_id": "0.0-99.0"}}, {"uniqueid": "MTK1114:3OSWBBLG1F46CESHOMC6KGRZ6RVDXA", "current_trial": 136, "dateTime": 1513114662868, "trialdata": {"rt": -1000, "stimulus": "/static/audio/wordpool/MISSILE.wav", "key_press": -1, "type": "PRES_AUD", "word": "missile", "wordID": 899, "conditions": [24, 1600, "a", 12000], "trial": 3, "serialpos": 19, "trial_type": "single-audio", "trial_index": 136, "time_elapsed": 625822, "internal_node_id": "0.0-100.0"}}, {"uniqueid": "MTK1114:3OSWBBLG1F46CESHOMC6KGRZ6RVDXA", "current_trial": 137, "dateTime": 1513114665303, "trialdata": {"rt": -1000, "stimulus": "/static/audio/wordpool/SCARECROW.wav", "key_press": -1, "type": "PRES_AUD", "word": "scarecrow", "wordID": 1244, "conditions": [24, 1600, "a", 12000], "trial": 3, "serialpos": 20, "trial_type": "single-audio", "trial_index": 137, "time_elapsed": 628257, "internal_node_id": "0.0-101.0"}}, {"uniqueid": "MTK1114:3OSWBBLG1F46CESHOMC6KGRZ6RVDXA", "current_trial": 138, "dateTime": 1513114668012, "trialdata": {"rt": -1000, "stimulus": "/static/audio/wordpool/SAUSAGE.wav", "key_press": -1, "type": "PRES_AUD", "word": "sausage", "wordID": 1237, "conditions": [24, 1600, "a", 12000], "trial": 3, "serialpos": 21, "trial_type": "single-audio", "trial_index": 138, "time_elapsed": 630965, "internal_node_id": "0.0-102.0"}}, {"uniqueid": "MTK1114:3OSWBBLG1F46CESHOMC6KGRZ6RVDXA", "current_trial": 139, "dateTime": 1513114670679, "trialdata": {"rt": -1000, "stimulus": "/static/audio/wordpool/BACON.wav", "key_press": -1, "type": "PRES_AUD", "word": "bacon", "wordID": 66, "conditions": [24, 1600, "a", 12000], "trial": 3, "serialpos": 22, "trial_type": "single-audio", "trial_index": 139, "time_elapsed": 633632, "internal_node_id": "0.0-103.0"}}, {"uniqueid": "MTK1114:3OSWBBLG1F46CESHOMC6KGRZ6RVDXA", "current_trial": 140, "dateTime": 1513114673113, "trialdata": {"rt": -1000, "stimulus": "/static/audio/wordpool/ROBOT.wav", "key_press": -1, "type": "PRES_AUD", "word": "robot", "wordID": 1199, "conditions": [24, 1600, "a", 12000], "trial": 3, "serialpos": 23, "trial_type": "single-audio", "trial_index": 140, "time_elapsed": 636067, "internal_node_id": "0.0-104.0"}}, {"uniqueid": "MTK1114:3OSWBBLG1F46CESHOMC6KGRZ6RVDXA", "current_trial": 141, "dateTime": 1513114674476, "trialdata": {"rt": -1, "stimulus": "", "key_press": -1, "type": "PRE_RECALL_DELAY", "trial_type": "single-stim", "trial_index": 141, "time_elapsed": 637430, "internal_node_id": "0.0-105.0-0.0"}}, {"uniqueid": "MTK1114:3OSWBBLG1F46CESHOMC6KGRZ6RVDXA", "current_trial": 142, "dateTime": 1513114674976, "trialdata": {"rt": -1000, "stimulus": "/static/audio/400Hz.wav", "key_press": -1, "type": "PRE_RECALL_ALERT", "trial_type": "single-audio", "trial_index": 142, "time_elapsed": 637930, "internal_node_id": "0.0-106.0"}}, {"uniqueid": "MTK1114:3OSWBBLG1F46CESHOMC6KGRZ6RVDXA", "current_trial": 143, "dateTime": 1513114734980, "trialdata": {"rt": [6521, 8275, 11498, 16089, 20545, 23106, 26017, 28397, 31442, 34553, 36313, 39729, 41746, 48137, 52553, 56345], "recwords": ["husband", "salt", "critic", "daughter", "preacher", "ankle", "waiter", "aitress", "mustard", "sausage", "bacon", "razor", "shelf", "gheto", "missle", "scarecrow"], "type": "FREE_RECALL", "conditions": [24, 1600, "a", 12000], "trial": 3, "trial_type": "free-recall", "trial_index": 143, "time_elapsed": 697931, "internal_node_id": "0.0-107.0-0.0"}}, {"uniqueid": "MTK1114:3OSWBBLG1F46CESHOMC6KGRZ6RVDXA", "current_trial": 144, "dateTime": 1513114738369, "trialdata": {"rt": 1389, "key_press": 13, "type": "INSTRUCTIONS", "trial_type": "text", "trial_index": 144, "time_elapsed": 701323, "internal_node_id": "0.0-108.0"}}, {"uniqueid": "MTK1114:3OSWBBLG1F46CESHOMC6KGRZ6RVDXA", "current_trial": 145, "dateTime": 1513114764382, "trialdata": {"rt": [2544, 5927, 8279, 10447, 13287, 16439, 20039, 23343], "responses": ["13", "12", "13", "11", "14", "17", "19", "13"], "num1": [7, 1, 2, 6, 4, 9, 6, 2, 7], "num2": [4, 3, 6, 1, 8, 2, 5, 9, 3], "num3": [2, 8, 5, 4, 2, 6, 8, 2, 4], "type": "DISTRACTOR", "conditions": [24, 1600, "v", 24000], "trial": 4, "trial_type": "math-distractor", "trial_index": 145, "time_elapsed": 727335, "internal_node_id": "0.0-109.0"}}, {"uniqueid": "MTK1114:3OSWBBLG1F46CESHOMC6KGRZ6RVDXA", "current_trial": 146, "dateTime": 1513114767382, "trialdata": {"rt": -1, "stimulus": "<p id=\"stim\">10</p>", "key_press": -1, "trial_type": "single-stim", "trial_index": 146, "time_elapsed": 730336, "internal_node_id": "0.0-110.0-0.0"}}, {"uniqueid": "MTK1114:3OSWBBLG1F46CESHOMC6KGRZ6RVDXA", "current_trial": 147, "dateTime": 1513114768383, "trialdata": {"rt": -1, "stimulus": "<p id=\"stim\">9</p>", "key_press": -1, "trial_type": "single-stim", "trial_index": 147, "time_elapsed": 731337, "internal_node_id": "0.0-110.0-1.0"}}, {"uniqueid": "MTK1114:3OSWBBLG1F46CESHOMC6KGRZ6RVDXA", "current_trial": 148, "dateTime": 1513114769387, "trialdata": {"rt": -1, "stimulus": "<p id=\"stim\">8</p>", "key_press": -1, "trial_type": "single-stim", "trial_index": 148, "time_elapsed": 732341, "internal_node_id": "0.0-110.0-2.0"}}, {"uniqueid": "MTK1114:3OSWBBLG1F46CESHOMC6KGRZ6RVDXA", "current_trial": 149, "dateTime": 1513114770388, "trialdata": {"rt": -1, "stimulus": "<p id=\"stim\">7</p>", "key_press": -1, "trial_type": "single-stim", "trial_index": 149, "time_elapsed": 733342, "internal_node_id": "0.0-110.0-3.0"}}, {"uniqueid": "MTK1114:3OSWBBLG1F46CESHOMC6KGRZ6RVDXA", "current_trial": 150, "dateTime": 1513114771393, "trialdata": {"rt": -1, "stimulus": "<p id=\"stim\">6</p>", "key_press": -1, "trial_type": "single-stim", "trial_index": 150, "time_elapsed": 734347, "internal_node_id": "0.0-110.0-4.0"}}, {"uniqueid": "MTK1114:3OSWBBLG1F46CESHOMC6KGRZ6RVDXA", "current_trial": 151, "dateTime": 1513114772395, "trialdata": {"rt": -1, "stimulus": "<p id=\"stim\">5</p>", "key_press": -1, "trial_type": "single-stim", "trial_index": 151, "time_elapsed": 735349, "internal_node_id": "0.0-110.0-5.0"}}, {"uniqueid": "MTK1114:3OSWBBLG1F46CESHOMC6KGRZ6RVDXA", "current_trial": 152, "dateTime": 1513114773396, "trialdata": {"rt": -1, "stimulus": "<p id=\"stim\">4</p>", "key_press": -1, "trial_type": "single-stim", "trial_index": 152, "time_elapsed": 736350, "internal_node_id": "0.0-110.0-6.0"}}, {"uniqueid": "MTK1114:3OSWBBLG1F46CESHOMC6KGRZ6RVDXA", "current_trial": 153, "dateTime": 1513114774397, "trialdata": {"rt": -1, "stimulus": "<p id=\"stim\">3</p>", "key_press": -1, "trial_type": "single-stim", "trial_index": 153, "time_elapsed": 737351, "internal_node_id": "0.0-110.0-7.0"}}, {"uniqueid": "MTK1114:3OSWBBLG1F46CESHOMC6KGRZ6RVDXA", "current_trial": 154, "dateTime": 1513114775397, "trialdata": {"rt": -1, "stimulus": "<p id=\"stim\">2</p>", "key_press": -1, "trial_type": "single-stim", "trial_index": 154, "time_elapsed": 738351, "internal_node_id": "0.0-110.0-8.0"}}, {"uniqueid": "MTK1114:3OSWBBLG1F46CESHOMC6KGRZ6RVDXA", "current_trial": 155, "dateTime": 1513114776400, "trialdata": {"rt": -1, "stimulus": "<p id=\"stim\">1</p>", "key_press": -1, "trial_type": "single-stim", "trial_index": 155, "time_elapsed": 739353, "internal_node_id": "0.0-110.0-9.0"}}, {"uniqueid": "MTK1114:3OSWBBLG1F46CESHOMC6KGRZ6RVDXA", "current_trial": 156, "dateTime": 1513114777901, "trialdata": {"rt": -1, "stimulus": "<p id=\"stim\">+</p>", "key_press": -1, "type": "FIXATION", "trial_type": "single-stim", "trial_index": 156, "time_elapsed": 740855, "internal_node_id": "0.0-111.0-0.0"}}, {"uniqueid": "MTK1114:3OSWBBLG1F46CESHOMC6KGRZ6RVDXA", "current_trial": 157, "dateTime": 1513114779502, "trialdata": {"rt": -1, "stimulus": "<p id=\"stim\">SCOTCH</p>", "key_press": -1, "type": "PRES_VIS", "word": "scotch", "wordID": 1250, "conditions": [24, 1600, "v", 24000], "trial": 4, "serialpos": 0, "trial_type": "single-stim", "trial_index": 157, "time_elapsed": 742456, "internal_node_id": "0.0-112.0"}}, {"uniqueid": "MTK1114:3OSWBBLG1F46CESHOMC6KGRZ6RVDXA", "current_trial": 158, "dateTime": 1513114782266, "trialdata": {"rt": -1, "stimulus": "<p id=\"stim\">PIANO</p>", "key_press": -1, "type": "PRES_VIS", "word": "piano", "wordID": 1056, "conditions": [24, 1600, "v", 24000], "trial": 4, "serialpos": 1, "trial_type": "single-stim", "trial_index": 158, "time_elapsed": 745220, "internal_node_id": "0.0-113.0"}}, {"uniqueid": "MTK1114:3OSWBBLG1F46CESHOMC6KGRZ6RVDXA", "current_trial": 159, "dateTime": 1513114784791, "trialdata": {"rt": -1, "stimulus": "<p id=\"stim\">PORTRAIT</p>", "key_press": -1, "type": "PRES_VIS", "word": "portrait", "wordID": 1110, "conditions": [24, 1600, "v", 24000], "trial": 4, "serialpos": 2, "trial_type": "single-stim", "trial_index": 159, "time_elapsed": 747745, "internal_node_id": "0.0-114.0"}}, {"uniqueid": "MTK1114:3OSWBBLG1F46CESHOMC6KGRZ6RVDXA", "current_trial": 160, "dateTime": 1513114787392, "trialdata": {"rt": -1, "stimulus": "<p id=\"stim\">BRICK</p>", "key_press": -1, "type": "PRES_VIS", "word": "brick", "wordID": 171, "conditions": [24, 1600, "v", 24000], "trial": 4, "serialpos": 3, "trial_type": "single-stim", "trial_index": 160, "time_elapsed": 750346, "internal_node_id": "0.0-115.0"}}, {"uniqueid": "MTK1114:3OSWBBLG1F46CESHOMC6KGRZ6RVDXA", "current_trial": 161, "dateTime": 1513114790175, "trialdata": {"rt": -1, "stimulus": "<p id=\"stim\">SCULPTURE</p>", "key_press": -1, "type": "PRES_VIS", "word": "sculpture", "wordID": 1257, "conditions": [24, 1600, "v", 24000], "trial": 4, "serialpos": 4, "trial_type": "single-stim", "trial_index": 161, "time_elapsed": 753129, "internal_node_id": "0.0-116.0"}}, {"uniqueid": "MTK1114:3OSWBBLG1F46CESHOMC6KGRZ6RVDXA", "current_trial": 162, "dateTime": 1513114792872, "trialdata": {"rt": -1, "stimulus": "<p id=\"stim\">STATUE</p>", "key_press": -1, "type": "PRES_VIS", "word": "statue", "wordID": 1373, "conditions": [24, 1600, "v", 24000], "trial": 4, "serialpos": 5, "trial_type": "single-stim", "trial_index": 162, "time_elapsed": 755826, "internal_node_id": "0.0-117.0"}}, {"uniqueid": "MTK1114:3OSWBBLG1F46CESHOMC6KGRZ6RVDXA", "current_trial": 163, "dateTime": 1513114795357, "trialdata": {"rt": -1, "stimulus": "<p id=\"stim\">BARLEY</p>", "key_press": -1, "type": "PRES_VIS", "word": "barley", "wordID": 87, "conditions": [24, 1600, "v", 24000], "trial": 4, "serialpos": 6, "trial_type": "single-stim", "trial_index": 163, "time_elapsed": 758311, "internal_node_id": "0.0-118.0"}}, {"uniqueid": "MTK1114:3OSWBBLG1F46CESHOMC6KGRZ6RVDXA", "current_trial": 164, "dateTime": 1513114797785, "trialdata": {"rt": -1, "stimulus": "<p id=\"stim\">COUNTRY</p>", "key_press": -1, "type": "PRES_VIS", "word": "country", "wordID": 387, "conditions": [24, 1600, "v", 24000], "trial": 4, "serialpos": 7, "trial_type": "single-stim", "trial_index": 164, "time_elapsed": 760739, "internal_node_id": "0.0-119.0"}}, {"uniqueid": "MTK1114:3OSWBBLG1F46CESHOMC6KGRZ6RVDXA", "current_trial": 165, "dateTime": 1513114800573, "trialdata": {"rt": -1, "stimulus": "<p id=\"stim\">LODGE</p>", "key_press": -1, "type": "PRES_VIS", "word": "lodge", "wordID": 838, "conditions": [24, 1600, "v", 24000], "trial": 4, "serialpos": 8, "trial_type": "single-stim", "trial_index": 165, "time_elapsed": 763527, "internal_node_id": "0.0-120.0"}}, {"uniqueid": "MTK1114:3OSWBBLG1F46CESHOMC6KGRZ6RVDXA", "current_trial": 166, "dateTime": 1513114803242, "trialdata": {"rt": -1, "stimulus": "<p id=\"stim\">ATOM</p>", "key_press": -1, "type": "PRES_VIS", "word": "atom", "wordID": 54, "conditions": [24, 1600, "v", 24000], "trial": 4, "serialpos": 9, "trial_type": "single-stim", "trial_index": 166, "time_elapsed": 766196, "internal_node_id": "0.0-121.0"}}, {"uniqueid": "MTK1114:3OSWBBLG1F46CESHOMC6KGRZ6RVDXA", "current_trial": 167, "dateTime": 1513114805744, "trialdata": {"rt": -1, "stimulus": "<p id=\"stim\">MAPLE</p>", "key_press": -1, "type": "PRES_VIS", "word": "maple", "wordID": 865, "conditions": [24, 1600, "v", 24000], "trial": 4, "serialpos": 10, "trial_type": "single-stim", "trial_index": 167, "time_elapsed": 768698, "internal_node_id": "0.0-122.0"}}, {"uniqueid": "MTK1114:3OSWBBLG1F46CESHOMC6KGRZ6RVDXA", "current_trial": 168, "dateTime": 1513114808501, "trialdata": {"rt": -1, "stimulus": "<p id=\"stim\">HARP</p>", "key_press": -1, "type": "PRES_VIS", "word": "harp", "wordID": 688, "conditions": [24, 1600, "v", 24000], "trial": 4, "serialpos": 11, "trial_type": "single-stim", "trial_index": 168, "time_elapsed": 771455, "internal_node_id": "0.0-123.0"}}, {"uniqueid": "MTK1114:3OSWBBLG1F46CESHOMC6KGRZ6RVDXA", "current_trial": 169, "dateTime": 1513114811228, "trialdata": {"rt": -1, "stimulus": "<p id=\"stim\">FLOWER</p>", "key_press": -1, "type": "PRES_VIS", "word": "flower", "wordID": 583, "conditions": [24, 1600, "v", 24000], "trial": 4, "serialpos": 12, "trial_type": "single-stim", "trial_index": 169, "time_elapsed": 774181, "internal_node_id": "0.0-124.0"}}, {"uniqueid": "MTK1114:3OSWBBLG1F46CESHOMC6KGRZ6RVDXA", "current_trial": 170, "dateTime": 1513114813935, "trialdata": {"rt": -1, "stimulus": "<p id=\"stim\">MUFFIN</p>", "key_press": -1, "type": "PRES_VIS", "word": "muffin", "wordID": 928, "conditions": [24, 1600, "v", 24000], "trial": 4, "serialpos": 13, "trial_type": "single-stim", "trial_index": 170, "time_elapsed": 776889, "internal_node_id": "0.0-125.0"}}, {"uniqueid": "MTK1114:3OSWBBLG1F46CESHOMC6KGRZ6RVDXA", "current_trial": 171, "dateTime": 1513114816350, "trialdata": {"rt": -1, "stimulus": "<p id=\"stim\">LOVER</p>", "key_press": -1, "type": "PRES_VIS", "word": "lover", "wordID": 845, "conditions": [24, 1600, "v", 24000], "trial": 4, "serialpos": 14, "trial_type": "single-stim", "trial_index": 171, "time_elapsed": 779304, "internal_node_id": "0.0-126.0"}}, {"uniqueid": "MTK1114:3OSWBBLG1F46CESHOMC6KGRZ6RVDXA", "current_trial": 172, "dateTime": 1513114818982, "trialdata": {"rt": -1, "stimulus": "<p id=\"stim\">DENIM</p>", "key_press": -1, "type": "PRES_VIS", "word": "denim", "wordID": 445, "conditions": [24, 1600, "v", 24000], "trial": 4, "serialpos": 15, "trial_type": "single-stim", "trial_index": 172, "time_elapsed": 781936, "internal_node_id": "0.0-127.0"}}, {"uniqueid": "MTK1114:3OSWBBLG1F46CESHOMC6KGRZ6RVDXA", "current_trial": 173, "dateTime": 1513114821616, "trialdata": {"rt": -1, "stimulus": "<p id=\"stim\">ITEM</p>", "key_press": -1, "type": "PRES_VIS", "word": "item", "wordID": 745, "conditions": [24, 1600, "v", 24000], "trial": 4, "serialpos": 16, "trial_type": "single-stim", "trial_index": 173, "time_elapsed": 784570, "internal_node_id": "0.0-128.0"}}, {"uniqueid": "MTK1114:3OSWBBLG1F46CESHOMC6KGRZ6RVDXA", "current_trial": 174, "dateTime": 1513114824311, "trialdata": {"rt": -1, "stimulus": "<p id=\"stim\">WAGON</p>", "key_press": -1, "type": "PRES_VIS", "word": "wagon", "wordID": 1577, "conditions": [24, 1600, "v", 24000], "trial": 4, "serialpos": 17, "trial_type": "single-stim", "trial_index": 174, "time_elapsed": 787265, "internal_node_id": "0.0-129.0"}}, {"uniqueid": "MTK1114:3OSWBBLG1F46CESHOMC6KGRZ6RVDXA", "current_trial": 175, "dateTime": 1513114826831, "trialdata": {"rt": -1, "stimulus": "<p id=\"stim\">TRACTOR</p>", "key_press": -1, "type": "PRES_VIS", "word": "tractor", "wordID": 1492, "conditions": [24, 1600, "v", 24000], "trial": 4, "serialpos": 18, "trial_type": "single-stim", "trial_index": 175, "time_elapsed": 789785, "internal_node_id": "0.0-130.0"}}, {"uniqueid": "MTK1114:3OSWBBLG1F46CESHOMC6KGRZ6RVDXA", "current_trial": 176, "dateTime": 1513114829540, "trialdata": {"rt": -1, "stimulus": "<p id=\"stim\">FLESH</p>", "key_press": -1, "type": "PRES_VIS", "word": "flesh", "wordID": 578, "conditions": [24, 1600, "v", 24000], "trial": 4, "serialpos": 19, "trial_type": "single-stim", "trial_index": 176, "time_elapsed": 792494, "internal_node_id": "0.0-131.0"}}, {"uniqueid": "MTK1114:3OSWBBLG1F46CESHOMC6KGRZ6RVDXA", "current_trial": 177, "dateTime": 1513114831962, "trialdata": {"rt": -1, "stimulus": "<p id=\"stim\">LEOPARD</p>", "key_press": -1, "type": "PRES_VIS", "word": "leopard", "wordID": 811, "conditions": [24, 1600, "v", 24000], "trial": 4, "serialpos": 20, "trial_type": "single-stim", "trial_index": 177, "time_elapsed": 794916, "internal_node_id": "0.0-132.0"}}, {"uniqueid": "MTK1114:3OSWBBLG1F46CESHOMC6KGRZ6RVDXA", "current_trial": 178, "dateTime": 1513114834606, "trialdata": {"rt": -1, "stimulus": "<p id=\"stim\">CLOTHES</p>", "key_press": -1, "type": "PRES_VIS", "word": "clothes", "wordID": 326, "conditions": [24, 1600, "v", 24000], "trial": 4, "serialpos": 21, "trial_type": "single-stim", "trial_index": 178, "time_elapsed": 797559, "internal_node_id": "0.0-133.0"}}, {"uniqueid": "MTK1114:3OSWBBLG1F46CESHOMC6KGRZ6RVDXA", "current_trial": 179, "dateTime": 1513114837377, "trialdata": {"rt": -1, "stimulus": "<p id=\"stim\">STAR</p>", "key_press": -1, "type": "PRES_VIS", "word": "star", "wordID": 1372, "conditions": [24, 1600, "v", 24000], "trial": 4, "serialpos": 22, "trial_type": "single-stim", "trial_index": 179, "time_elapsed": 800331, "internal_node_id": "0.0-134.0"}}, {"uniqueid": "MTK1114:3OSWBBLG1F46CESHOMC6KGRZ6RVDXA", "current_trial": 180, "dateTime": 1513114840011, "trialdata": {"rt": -1, "stimulus": "<p id=\"stim\">HUMAN</p>", "key_press": -1, "type": "PRES_VIS", "word": "human", "wordID": 725, "conditions": [24, 1600, "v", 24000], "trial": 4, "serialpos": 23, "trial_type": "single-stim", "trial_index": 180, "time_elapsed": 802965, "internal_node_id": "0.0-135.0"}}, {"uniqueid": "MTK1114:3OSWBBLG1F46CESHOMC6KGRZ6RVDXA", "current_trial": 181, "dateTime": 1513114842285, "trialdata": {"rt": -1, "stimulus": "", "key_press": -1, "type": "PRE_RECALL_DELAY", "trial_type": "single-stim", "trial_index": 181, "time_elapsed": 805238, "internal_node_id": "0.0-136.0-0.0"}}, {"uniqueid": "MTK1114:3OSWBBLG1F46CESHOMC6KGRZ6RVDXA", "current_trial": 182, "dateTime": 1513114842786, "trialdata": {"rt": -1000, "stimulus": "/static/audio/400Hz.wav", "key_press": -1, "type": "PRE_RECALL_ALERT", "trial_type": "single-audio", "trial_index": 182, "time_elapsed": 805739, "internal_node_id": "0.0-137.0"}}, {"uniqueid": "MTK1114:3OSWBBLG1F46CESHOMC6KGRZ6RVDXA", "current_trial": 183, "dateTime": 1513114902790, "trialdata": {"rt": [4456, 8695, 14799, 18200, 20903, 24175, 27535, 29993, 32799, 37584, 42079, 43719, 45911, 52631, 58648], "recwords": ["human", "clothes", "leopard", "denim", "wagon", "tractor", "scotch", "piano", "brick", "sulpture", "barley", "atom", "maple", "flower", "tractor"], "type": "FREE_RECALL", "conditions": [24, 1600, "v", 24000], "trial": 4, "trial_type": "free-recall", "trial_index": 183, "time_elapsed": 865742, "internal_node_id": "0.0-138.0-0.0"}}, {"uniqueid": "MTK1114:3OSWBBLG1F46CESHOMC6KGRZ6RVDXA", "current_trial": 184, "dateTime": 1513114907433, "trialdata": {"rt": 2642, "key_press": 13, "type": "INSTRUCTIONS", "trial_type": "text", "trial_index": 184, "time_elapsed": 870387, "internal_node_id": "0.0-139.0"}}, {"uniqueid": "MTK1114:3OSWBBLG1F46CESHOMC6KGRZ6RVDXA", "current_trial": 185, "dateTime": 1513114921442, "trialdata": {"rt": [3697, 7130, 11377], "responses": ["10", "23", "19"], "num1": [7, 8, 6, 6], "num2": [1, 7, 6, 5], "num3": [2, 8, 7, 7], "type": "DISTRACTOR", "conditions": [24, 800, "v", 12000], "trial": 5, "trial_type": "math-distractor", "trial_index": 185, "time_elapsed": 884396, "internal_node_id": "0.0-140.0"}}, {"uniqueid": "MTK1114:3OSWBBLG1F46CESHOMC6KGRZ6RVDXA", "current_trial": 186, "dateTime": 1513114924443, "trialdata": {"rt": -1, "stimulus": "<p id=\"stim\">10</p>", "key_press": -1, "trial_type": "single-stim", "trial_index": 186, "time_elapsed": 887397, "internal_node_id": "0.0-141.0-0.0"}}, {"uniqueid": "MTK1114:3OSWBBLG1F46CESHOMC6KGRZ6RVDXA", "current_trial": 187, "dateTime": 1513114925443, "trialdata": {"rt": -1, "stimulus": "<p id=\"stim\">9</p>", "key_press": -1, "trial_type": "single-stim", "trial_index": 187, "time_elapsed": 888397, "internal_node_id": "0.0-141.0-1.0"}}, {"uniqueid": "MTK1114:3OSWBBLG1F46CESHOMC6KGRZ6RVDXA", "current_trial": 188, "dateTime": 1513114926444, "trialdata": {"rt": -1, "stimulus": "<p id=\"stim\">8</p>", "key_press": -1, "trial_type": "single-stim", "trial_index": 188, "time_elapsed": 889398, "internal_node_id": "0.0-141.0-2.0"}}, {"uniqueid": "MTK1114:3OSWBBLG1F46CESHOMC6KGRZ6RVDXA", "current_trial": 189, "dateTime": 1513114927445, "trialdata": {"rt": -1, "stimulus": "<p id=\"stim\">7</p>", "key_press": -1, "trial_type": "single-stim", "trial_index": 189, "time_elapsed": 890399, "internal_node_id": "0.0-141.0-3.0"}}, {"uniqueid": "MTK1114:3OSWBBLG1F46CESHOMC6KGRZ6RVDXA", "current_trial": 190, "dateTime": 1513114928446, "trialdata": {"rt": -1, "stimulus": "<p id=\"stim\">6</p>", "key_press": -1, "trial_type": "single-stim", "trial_index": 190, "time_elapsed": 891400, "internal_node_id": "0.0-141.0-4.0"}}, {"uniqueid": "MTK1114:3OSWBBLG1F46CESHOMC6KGRZ6RVDXA", "current_trial": 191, "dateTime": 1513114929448, "trialdata": {"rt": -1, "stimulus": "<p id=\"stim\">5</p>", "key_press": -1, "trial_type": "single-stim", "trial_index": 191, "time_elapsed": 892401, "internal_node_id": "0.0-141.0-5.0"}}, {"uniqueid": "MTK1114:3OSWBBLG1F46CESHOMC6KGRZ6RVDXA", "current_trial": 192, "dateTime": 1513114930448, "trialdata": {"rt": -1, "stimulus": "<p id=\"stim\">4</p>", "key_press": -1, "trial_type": "single-stim", "trial_index": 192, "time_elapsed": 893402, "internal_node_id": "0.0-141.0-6.0"}}, {"uniqueid": "MTK1114:3OSWBBLG1F46CESHOMC6KGRZ6RVDXA", "current_trial": 193, "dateTime": 1513114931448, "trialdata": {"rt": -1, "stimulus": "<p id=\"stim\">3</p>", "key_press": -1, "trial_type": "single-stim", "trial_index": 193, "time_elapsed": 894402, "internal_node_id": "0.0-141.0-7.0"}}, {"uniqueid": "MTK1114:3OSWBBLG1F46CESHOMC6KGRZ6RVDXA", "current_trial": 194, "dateTime": 1513114932452, "trialdata": {"rt": -1, "stimulus": "<p id=\"stim\">2</p>", "key_press": -1, "trial_type": "single-stim", "trial_index": 194, "time_elapsed": 895405, "internal_node_id": "0.0-141.0-8.0"}}, {"uniqueid": "MTK1114:3OSWBBLG1F46CESHOMC6KGRZ6RVDXA", "current_trial": 195, "dateTime": 1513114933453, "trialdata": {"rt": -1, "stimulus": "<p id=\"stim\">1</p>", "key_press": -1, "trial_type": "single-stim", "trial_index": 195, "time_elapsed": 896407, "internal_node_id": "0.0-141.0-9.0"}}, {"uniqueid": "MTK1114:3OSWBBLG1F46CESHOMC6KGRZ6RVDXA", "current_trial": 196, "dateTime": 1513114934954, "trialdata": {"rt": -1, "stimulus": "<p id=\"stim\">+</p>", "key_press": -1, "type": "FIXATION", "trial_type": "single-stim", "trial_index": 196, "time_elapsed": 897908, "internal_node_id": "0.0-142.0-0.0"}}, {"uniqueid": "MTK1114:3OSWBBLG1F46CESHOMC6KGRZ6RVDXA", "current_trial": 197, "dateTime": 1513114935762, "trialdata": {"rt": -1, "stimulus": "<p id=\"stim\">COUCH</p>", "key_press": -1, "type": "PRES_VIS", "word": "couch", "wordID": 385, "conditions": [24, 800, "v", 12000], "trial": 5, "serialpos": 0, "trial_type": "single-stim", "trial_index": 197, "time_elapsed": 898716, "internal_node_id": "0.0-143.0"}}, {"uniqueid": "MTK1114:3OSWBBLG1F46CESHOMC6KGRZ6RVDXA", "current_trial": 198, "dateTime": 1513114937481, "trialdata": {"rt": -1, "stimulus": "<p id=\"stim\">COOKBOOK</p>", "key_press": -1, "type": "PRES_VIS", "word": "cookbook", "wordID": 372, "conditions": [24, 800, "v", 12000], "trial": 5, "serialpos": 1, "trial_type": "single-stim", "trial_index": 198, "time_elapsed": 900435, "internal_node_id": "0.0-144.0"}}, {"uniqueid": "MTK1114:3OSWBBLG1F46CESHOMC6KGRZ6RVDXA", "current_trial": 199, "dateTime": 1513114939479, "trialdata": {"rt": -1, "stimulus": "<p id=\"stim\">GARDEN</p>", "key_press": -1, "type": "PRES_VIS", "word": "garden", "wordID": 622, "conditions": [24, 800, "v", 12000], "trial": 5, "serialpos": 2, "trial_type": "single-stim", "trial_index": 199, "time_elapsed": 902432, "internal_node_id": "0.0-145.0"}}, {"uniqueid": "MTK1114:3OSWBBLG1F46CESHOMC6KGRZ6RVDXA", "current_trial": 200, "dateTime": 1513114941274, "trialdata": {"rt": -1, "stimulus": "<p id=\"stim\">PLAZA</p>", "key_press": -1, "type": "PRES_VIS", "word": "plaza", "wordID": 1087, "conditions": [24, 800, "v", 12000], "trial": 5, "serialpos": 3, "trial_type": "single-stim", "trial_index": 200, "time_elapsed": 904228, "internal_node_id": "0.0-146.0"}}, {"uniqueid": "MTK1114:3OSWBBLG1F46CESHOMC6KGRZ6RVDXA", "current_trial": 201, "dateTime": 1513114943197, "trialdata": {"rt": -1, "stimulus": "<p id=\"stim\">CLAM</p>", "key_press": -1, "type": "PRES_VIS", "word": "clam", "wordID": 314, "conditions": [24, 800, "v", 12000], "trial": 5, "serialpos": 4, "trial_type": "single-stim", "trial_index": 201, "time_elapsed": 906151, "internal_node_id": "0.0-147.0"}}, {"uniqueid": "MTK1114:3OSWBBLG1F46CESHOMC6KGRZ6RVDXA", "current_trial": 202, "dateTime": 1513114945134, "trialdata": {"rt": -1, "stimulus": "<p id=\"stim\">SLIME</p>", "key_press": -1, "type": "PRES_VIS", "word": "slime", "wordID": 1326, "conditions": [24, 800, "v", 12000], "trial": 5, "serialpos": 5, "trial_type": "single-stim", "trial_index": 202, "time_elapsed": 908088, "internal_node_id": "0.0-148.0"}}, {"uniqueid": "MTK1114:3OSWBBLG1F46CESHOMC6KGRZ6RVDXA", "current_trial": 203, "dateTime": 1513114946981, "trialdata": {"rt": -1, "stimulus": "<p id=\"stim\">CANAL</p>", "key_press": -1, "type": "PRES_VIS", "word": "canal", "wordID": 225, "conditions": [24, 800, "v", 12000], "trial": 5, "serialpos": 6, "trial_type": "single-stim", "trial_index": 203, "time_elapsed": 909935, "internal_node_id": "0.0-149.0"}}, {"uniqueid": "MTK1114:3OSWBBLG1F46CESHOMC6KGRZ6RVDXA", "current_trial": 204, "dateTime": 1513114948730, "trialdata": {"rt": -1, "stimulus": "<p id=\"stim\">PASSAGE</p>", "key_press": -1, "type": "PRES_VIS", "word": "passage", "wordID": 1018, "conditions": [24, 800, "v", 12000], "trial": 5, "serialpos": 7, "trial_type": "single-stim", "trial_index": 204, "time_elapsed": 911684, "internal_node_id": "0.0-150.0"}}, {"uniqueid": "MTK1114:3OSWBBLG1F46CESHOMC6KGRZ6RVDXA", "current_trial": 205, "dateTime": 1513114950717, "trialdata": {"rt": -1, "stimulus": "<p id=\"stim\">LACE</p>", "key_press": -1, "type": "PRES_VIS", "word": "lace", "wordID": 791, "conditions": [24, 800, "v", 12000], "trial": 5, "serialpos": 8, "trial_type": "single-stim", "trial_index": 205, "time_elapsed": 913670, "internal_node_id": "0.0-151.0"}}, {"uniqueid": "MTK1114:3OSWBBLG1F46CESHOMC6KGRZ6RVDXA", "current_trial": 206, "dateTime": 1513114952677, "trialdata": {"rt": -1, "stimulus": "<p id=\"stim\">EUROPE</p>", "key_press": -1, "type": "PRES_VIS", "word": "europe", "wordID": 540, "conditions": [24, 800, "v", 12000], "trial": 5, "serialpos": 9, "trial_type": "single-stim", "trial_index": 206, "time_elapsed": 915631, "internal_node_id": "0.0-152.0"}}, {"uniqueid": "MTK1114:3OSWBBLG1F46CESHOMC6KGRZ6RVDXA", "current_trial": 207, "dateTime": 1513114954431, "trialdata": {"rt": -1, "stimulus": "<p id=\"stim\">EGYPT</p>", "key_press": -1, "type": "PRES_VIS", "word": "egypt", "wordID": 518, "conditions": [24, 800, "v", 12000], "trial": 5, "serialpos": 10, "trial_type": "single-stim", "trial_index": 207, "time_elapsed": 917385, "internal_node_id": "0.0-153.0"}}, {"uniqueid": "MTK1114:3OSWBBLG1F46CESHOMC6KGRZ6RVDXA", "current_trial": 208, "dateTime": 1513114956200, "trialdata": {"rt": -1, "stimulus": "<p id=\"stim\">OYSTER</p>", "key_press": -1, "type": "PRES_VIS", "word": "oyster", "wordID": 994, "conditions": [24, 800, "v", 12000], "trial": 5, "serialpos": 11, "trial_type": "single-stim", "trial_index": 208, "time_elapsed": 919154, "internal_node_id": "0.0-154.0"}}, {"uniqueid": "MTK1114:3OSWBBLG1F46CESHOMC6KGRZ6RVDXA", "current_trial": 209, "dateTime": 1513114958040, "trialdata": {"rt": -1, "stimulus": "<p id=\"stim\">SERVANT</p>", "key_press": -1, "type": "PRES_VIS", "word": "servant", "wordID": 1270, "conditions": [24, 800, "v", 12000], "trial": 5, "serialpos": 12, "trial_type": "single-stim", "trial_index": 209, "time_elapsed": 920994, "internal_node_id": "0.0-155.0"}}, {"uniqueid": "MTK1114:3OSWBBLG1F46CESHOMC6KGRZ6RVDXA", "current_trial": 210, "dateTime": 1513114959801, "trialdata": {"rt": -1, "stimulus": "<p id=\"stim\">COOK</p>", "key_press": -1, "type": "PRES_VIS", "word": "cook", "wordID": 371, "conditions": [24, 800, "v", 12000], "trial": 5, "serialpos": 13, "trial_type": "single-stim", "trial_index": 210, "time_elapsed": 922755, "internal_node_id": "0.0-156.0"}}, {"uniqueid": "MTK1114:3OSWBBLG1F46CESHOMC6KGRZ6RVDXA", "current_trial": 211, "dateTime": 1513114961629, "trialdata": {"rt": -1, "stimulus": "<p id=\"stim\">DRAGON</p>", "key_press": -1, "type": "PRES_VIS", "word": "dragon", "wordID": 491, "conditions": [24, 800, "v", 12000], "trial": 5, "serialpos": 14, "trial_type": "single-stim", "trial_index": 211, "time_elapsed": 924583, "internal_node_id": "0.0-157.0"}}, {"uniqueid": "MTK1114:3OSWBBLG1F46CESHOMC6KGRZ6RVDXA", "current_trial": 212, "dateTime": 1513114963313, "trialdata": {"rt": -1, "stimulus": "<p id=\"stim\">GOBLIN</p>", "key_press": -1, "type": "PRES_VIS", "word": "goblin", "wordID": 644, "conditions": [24, 800, "v", 12000], "trial": 5, "serialpos": 15, "trial_type": "single-stim", "trial_index": 212, "time_elapsed": 926267, "internal_node_id": "0.0-158.0"}}, {"uniqueid": "MTK1114:3OSWBBLG1F46CESHOMC6KGRZ6RVDXA", "current_trial": 213, "dateTime": 1513114965026, "trialdata": {"rt": -1, "stimulus": "<p id=\"stim\">WIDOW</p>", "key_press": -1, "type": "PRES_VIS", "word": "widow", "wordID": 1607, "conditions": [24, 800, "v", 12000], "trial": 5, "serialpos": 16, "trial_type": "single-stim", "trial_index": 213, "time_elapsed": 927980, "internal_node_id": "0.0-159.0"}}, {"uniqueid": "MTK1114:3OSWBBLG1F46CESHOMC6KGRZ6RVDXA", "current_trial": 214, "dateTime": 1513114966812, "trialdata": {"rt": -1, "stimulus": "<p id=\"stim\">GANGSTER</p>", "key_press": -1, "type": "PRES_VIS", "word": "gangster", "wordID": 619, "conditions": [24, 800, "v", 12000], "trial": 5, "serialpos": 17, "trial_type": "single-stim", "trial_index": 214, "time_elapsed": 929766, "internal_node_id": "0.0-160.0"}}, {"uniqueid": "MTK1114:3OSWBBLG1F46CESHOMC6KGRZ6RVDXA", "current_trial": 215, "dateTime": 1513114968513, "trialdata": {"rt": -1, "stimulus": "<p id=\"stim\">NOVEL</p>", "key_press": -1, "type": "PRES_VIS", "word": "novel", "wordID": 959, "conditions": [24, 800, "v", 12000], "trial": 5, "serialpos": 18, "trial_type": "single-stim", "trial_index": 215, "time_elapsed": 931467, "internal_node_id": "0.0-161.0"}}, {"uniqueid": "MTK1114:3OSWBBLG1F46CESHOMC6KGRZ6RVDXA", "current_trial": 216, "dateTime": 1513114970188, "trialdata": {"rt": -1, "stimulus": "<p id=\"stim\">TWIG</p>", "key_press": -1, "type": "PRES_VIS", "word": "twig", "wordID": 1526, "conditions": [24, 800, "v", 12000], "trial": 5, "serialpos": 19, "trial_type": "single-stim", "trial_index": 216, "time_elapsed": 933142, "internal_node_id": "0.0-162.0"}}, {"uniqueid": "MTK1114:3OSWBBLG1F46CESHOMC6KGRZ6RVDXA", "current_trial": 217, "dateTime": 1513114971825, "trialdata": {"rt": -1, "stimulus": "<p id=\"stim\">MARSH</p>", "key_press": -1, "type": "PRES_VIS", "word": "marsh", "wordID": 873, "conditions": [24, 800, "v", 12000], "trial": 5, "serialpos": 20, "trial_type": "single-stim", "trial_index": 217, "time_elapsed": 934779, "internal_node_id": "0.0-163.0"}}, {"uniqueid": "MTK1114:3OSWBBLG1F46CESHOMC6KGRZ6RVDXA", "current_trial": 218, "dateTime": 1513114973756, "trialdata": {"rt": -1, "stimulus": "<p id=\"stim\">SEAFOOD</p>", "key_press": -1, "type": "PRES_VIS", "word": "seafood", "wordID": 1259, "conditions": [24, 800, "v", 12000], "trial": 5, "serialpos": 21, "trial_type": "single-stim", "trial_index": 218, "time_elapsed": 936709, "internal_node_id": "0.0-164.0"}}, {"uniqueid": "MTK1114:3OSWBBLG1F46CESHOMC6KGRZ6RVDXA", "current_trial": 219, "dateTime": 1513114975458, "trialdata": {"rt": -1, "stimulus": "<p id=\"stim\">SPOUSE</p>", "key_press": -1, "type": "PRES_VIS", "word": "spouse", "wordID": 1357, "conditions": [24, 800, "v", 12000], "trial": 5, "serialpos": 22, "trial_type": "single-stim", "trial_index": 219, "time_elapsed": 938412, "internal_node_id": "0.0-165.0"}}, {"uniqueid": "MTK1114:3OSWBBLG1F46CESHOMC6KGRZ6RVDXA", "current_trial": 220, "dateTime": 1513114977389, "trialdata": {"rt": -1, "stimulus": "<p id=\"stim\">RIVER</p>", "key_press": -1, "type": "PRES_VIS", "word": "river", "wordID": 1193, "conditions": [24, 800, "v", 12000], "trial": 5, "serialpos": 23, "trial_type": "single-stim", "trial_index": 220, "time_elapsed": 940343, "internal_node_id": "0.0-166.0"}}, {"uniqueid": "MTK1114:3OSWBBLG1F46CESHOMC6KGRZ6RVDXA", "current_trial": 221, "dateTime": 1513114979763, "trialdata": {"rt": -1, "stimulus": "", "key_press": -1, "type": "PRE_RECALL_DELAY", "trial_type": "single-stim", "trial_index": 221, "time_elapsed": 942717, "internal_node_id": "0.0-167.0-0.0"}}, {"uniqueid": "MTK1114:3OSWBBLG1F46CESHOMC6KGRZ6RVDXA", "current_trial": 222, "dateTime": 1513114980264, "trialdata": {"rt": -1000, "stimulus": "/static/audio/400Hz.wav", "key_press": -1, "type": "PRE_RECALL_ALERT", "trial_type": "single-audio", "trial_index": 222, "time_elapsed": 943218, "internal_node_id": "0.0-168.0"}}, {"uniqueid": "MTK1114:3OSWBBLG1F46CESHOMC6KGRZ6RVDXA", "current_trial": 223, "dateTime": 1513115040268, "trialdata": {"rt": [5202, 11026, 14241, 17297, 24658, 27345, 29417, 32201, 35209, 38601, 41289, 45025, 48969, 52601], "recwords": ["couch", "cookbook", "garden", "plaza", "river", "seafood", "novel", "window", "dragon", "cook", "servant", "egypt", "europe", "slime"], "type": "FREE_RECALL", "conditions": [24, 800, "v", 12000], "trial": 5, "trial_type": "free-recall", "trial_index": 223, "time_elapsed": 1003220, "internal_node_id": "0.0-169.0-0.0"}}, {"uniqueid": "MTK1114:3OSWBBLG1F46CESHOMC6KGRZ6RVDXA", "current_trial": 224, "dateTime": 1513115044346, "trialdata": {"rt": 2077, "key_press": 13, "type": "INSTRUCTIONS", "trial_type": "text", "trial_index": 224, "time_elapsed": 1007300, "internal_node_id": "0.0-170.0"}}, {"uniqueid": "MTK1114:3OSWBBLG1F46CESHOMC6KGRZ6RVDXA", "current_trial": 225, "dateTime": 1513115070362, "trialdata": {"rt": [2359, 5329, 7913, 10697, 13433, 15449, 17932, 20009], "responses": ["16", "19", "23", "21", "19", "9", "17", "11"], "num1": [2, 9, 8, 9, 8, 1, 4, 5, 3], "num2": [7, 7, 9, 9, 2, 2, 5, 2, 8], "num3": [7, 3, 7, 3, 9, 6, 8, 4, 8], "type": "DISTRACTOR", "conditions": [12, 800, "a", 24000], "trial": 6, "trial_type": "math-distractor", "trial_index": 225, "time_elapsed": 1033315, "internal_node_id": "0.0-171.0"}}, {"uniqueid": "MTK1114:3OSWBBLG1F46CESHOMC6KGRZ6RVDXA", "current_trial": 226, "dateTime": 1513115073362, "trialdata": {"rt": -1, "stimulus": "<p id=\"stim\">10</p>", "key_press": -1, "trial_type": "single-stim", "trial_index": 226, "time_elapsed": 1036316, "internal_node_id": "0.0-172.0-0.0"}}, {"uniqueid": "MTK1114:3OSWBBLG1F46CESHOMC6KGRZ6RVDXA", "current_trial": 227, "dateTime": 1513115074363, "trialdata": {"rt": -1, "stimulus": "<p id=\"stim\">9</p>", "key_press": -1, "trial_type": "single-stim", "trial_index": 227, "time_elapsed": 1037317, "internal_node_id": "0.0-172.0-1.0"}}, {"uniqueid": "MTK1114:3OSWBBLG1F46CESHOMC6KGRZ6RVDXA", "current_trial": 228, "dateTime": 1513115075364, "trialdata": {"rt": -1, "stimulus": "<p id=\"stim\">8</p>", "key_press": -1, "trial_type": "single-stim", "trial_index": 228, "time_elapsed": 1038318, "internal_node_id": "0.0-172.0-2.0"}}, {"uniqueid": "MTK1114:3OSWBBLG1F46CESHOMC6KGRZ6RVDXA", "current_trial": 229, "dateTime": 1513115076364, "trialdata": {"rt": -1, "stimulus": "<p id=\"stim\">7</p>", "key_press": -1, "trial_type": "single-stim", "trial_index": 229, "time_elapsed": 1039318, "internal_node_id": "0.0-172.0-3.0"}}, {"uniqueid": "MTK1114:3OSWBBLG1F46CESHOMC6KGRZ6RVDXA", "current_trial": 230, "dateTime": 1513115077367, "trialdata": {"rt": -1, "stimulus": "<p id=\"stim\">6</p>", "key_press": -1, "trial_type": "single-stim", "trial_index": 230, "time_elapsed": 1040320, "internal_node_id": "0.0-172.0-4.0"}}, {"uniqueid": "MTK1114:3OSWBBLG1F46CESHOMC6KGRZ6RVDXA", "current_trial": 231, "dateTime": 1513115078367, "trialdata": {"rt": -1, "stimulus": "<p id=\"stim\">5</p>", "key_press": -1, "trial_type": "single-stim", "trial_index": 231, "time_elapsed": 1041321, "internal_node_id": "0.0-172.0-5.0"}}, {"uniqueid": "MTK1114:3OSWBBLG1F46CESHOMC6KGRZ6RVDXA", "current_trial": 232, "dateTime": 1513115079367, "trialdata": {"rt": -1, "stimulus": "<p id=\"stim\">4</p>", "key_press": -1, "trial_type": "single-stim", "trial_index": 232, "time_elapsed": 1042321, "internal_node_id": "0.0-172.0-6.0"}}, {"uniqueid": "MTK1114:3OSWBBLG1F46CESHOMC6KGRZ6RVDXA", "current_trial": 233, "dateTime": 1513115080369, "trialdata": {"rt": -1, "stimulus": "<p id=\"stim\">3</p>", "key_press": -1, "trial_type": "single-stim", "trial_index": 233, "time_elapsed": 1043322, "internal_node_id": "0.0-172.0-7.0"}}, {"uniqueid": "MTK1114:3OSWBBLG1F46CESHOMC6KGRZ6RVDXA", "current_trial": 234, "dateTime": 1513115081369, "trialdata": {"rt": -1, "stimulus": "<p id=\"stim\">2</p>", "key_press": -1, "trial_type": "single-stim", "trial_index": 234, "time_elapsed": 1044323, "internal_node_id": "0.0-172.0-8.0"}}, {"uniqueid": "MTK1114:3OSWBBLG1F46CESHOMC6KGRZ6RVDXA", "current_trial": 235, "dateTime": 1513115082369, "trialdata": {"rt": -1, "stimulus": "<p id=\"stim\">1</p>", "key_press": -1, "trial_type": "single-stim", "trial_index": 235, "time_elapsed": 1045323, "internal_node_id": "0.0-172.0-9.0"}}, {"uniqueid": "MTK1114:3OSWBBLG1F46CESHOMC6KGRZ6RVDXA", "current_trial": 236, "dateTime": 1513115083872, "trialdata": {"rt": -1, "stimulus": "<p id=\"stim\">+</p>", "key_press": -1, "type": "FIXATION", "trial_type": "single-stim", "trial_index": 236, "time_elapsed": 1046826, "internal_node_id": "0.0-173.0-0.0"}}, {"uniqueid": "MTK1114:3OSWBBLG1F46CESHOMC6KGRZ6RVDXA", "current_trial": 237, "dateTime": 1513115085535, "trialdata": {"rt": -1000, "stimulus": "/static/audio/wordpool/FOREHEAD.wav", "key_press": -1, "type": "PRES_AUD", "word": "forehead", "wordID": 591, "conditions": [12, 800, "a", 24000], "trial": 6, "serialpos": 0, "trial_type": "single-audio", "trial_index": 237, "time_elapsed": 1048488, "internal_node_id": "0.0-174.0"}}, {"uniqueid": "MTK1114:3OSWBBLG1F46CESHOMC6KGRZ6RVDXA", "current_trial": 238, "dateTime": 1513115087169, "trialdata": {"rt": -1000, "stimulus": "/static/audio/wordpool/ROD.wav", "key_press": -1, "type": "PRES_AUD", "word": "rod", "wordID": 1202, "conditions": [12, 800, "a", 24000], "trial": 6, "serialpos": 1, "trial_type": "single-audio", "trial_index": 238, "time_elapsed": 1050123, "internal_node_id": "0.0-175.0"}}, {"uniqueid": "MTK1114:3OSWBBLG1F46CESHOMC6KGRZ6RVDXA", "current_trial": 239, "dateTime": 1513115088868, "trialdata": {"rt": -1000, "stimulus": "/static/audio/wordpool/PICNIC.wav", "key_press": -1, "type": "PRES_AUD", "word": "picnic", "wordID": 1059, "conditions": [12, 800, "a", 24000], "trial": 6, "serialpos": 2, "trial_type": "single-audio", "trial_index": 239, "time_elapsed": 1051822, "internal_node_id": "0.0-176.0"}}, {"uniqueid": "MTK1114:3OSWBBLG1F46CESHOMC6KGRZ6RVDXA", "current_trial": 240, "dateTime": 1513115090514, "trialdata": {"rt": -1000, "stimulus": "/static/audio/wordpool/PIZZA.wav", "key_press": -1, "type": "PRES_AUD", "word": "pizza", "wordID": 1078, "conditions": [12, 800, "a", 24000], "trial": 6, "serialpos": 3, "trial_type": "single-audio", "trial_index": 240, "time_elapsed": 1053467, "internal_node_id": "0.0-177.0"}}, {"uniqueid": "MTK1114:3OSWBBLG1F46CESHOMC6KGRZ6RVDXA", "current_trial": 241, "dateTime": 1513115092414, "trialdata": {"rt": -1000, "stimulus": "/static/audio/wordpool/CARROT.wav", "key_press": -1, "type": "PRES_AUD", "word": "carrot", "wordID": 248, "conditions": [12, 800, "a", 24000], "trial": 6, "serialpos": 4, "trial_type": "single-audio", "trial_index": 241, "time_elapsed": 1055367, "internal_node_id": "0.0-178.0"}}, {"uniqueid": "MTK1114:3OSWBBLG1F46CESHOMC6KGRZ6RVDXA", "current_trial": 242, "dateTime": 1513115094291, "trialdata": {"rt": -1000, "stimulus": "/static/audio/wordpool/GUITAR.wav", "key_press": -1, "type": "PRES_AUD", "word": "guitar", "wordID": 669, "conditions": [12, 800, "a", 24000], "trial": 6, "serialpos": 5, "trial_type": "single-audio", "trial_index": 242, "time_elapsed": 1057244, "internal_node_id": "0.0-179.0"}}, {"uniqueid": "MTK1114:3OSWBBLG1F46CESHOMC6KGRZ6RVDXA", "current_trial": 243, "dateTime": 1513115095946, "trialdata": {"rt": -1000, "stimulus": "/static/audio/wordpool/SUPPER.wav", "key_press": -1, "type": "PRES_AUD", "word": "supper", "wordID": 1410, "conditions": [12, 800, "a", 24000], "trial": 6, "serialpos": 6, "trial_type": "single-audio", "trial_index": 243, "time_elapsed": 1058900, "internal_node_id": "0.0-180.0"}}, {"uniqueid": "MTK1114:3OSWBBLG1F46CESHOMC6KGRZ6RVDXA", "current_trial": 244, "dateTime": 1513115097727, "trialdata": {"rt": -1000, "stimulus": "/static/audio/wordpool/BANQUET.wav", "key_press": -1, "type": "PRES_AUD", "word": "banquet", "wordID": 85, "conditions": [12, 800, "a", 24000], "trial": 6, "serialpos": 7, "trial_type": "single-audio", "trial_index": 244, "time_elapsed": 1060681, "internal_node_id": "0.0-181.0"}}, {"uniqueid": "MTK1114:3OSWBBLG1F46CESHOMC6KGRZ6RVDXA", "current_trial": 245, "dateTime": 1513115099464, "trialdata": {"rt": -1000, "stimulus": "/static/audio/wordpool/PUPPY.wav", "key_press": -1, "type": "PRES_AUD", "word": "puppy", "wordID": 1143, "conditions": [12, 800, "a", 24000], "trial": 6, "serialpos": 8, "trial_type": "single-audio", "trial_index": 245, "time_elapsed": 1062417, "internal_node_id": "0.0-182.0"}}, {"uniqueid": "MTK1114:3OSWBBLG1F46CESHOMC6KGRZ6RVDXA", "current_trial": 246, "dateTime": 1513115101401, "trialdata": {"rt": -1000, "stimulus": "/static/audio/wordpool/YARN.wav", "key_press": -1, "type": "PRES_AUD", "word": "yarn", "wordID": 1630, "conditions": [12, 800, "a", 24000], "trial": 6, "serialpos": 9, "trial_type": "single-audio", "trial_index": 246, "time_elapsed": 1064355, "internal_node_id": "0.0-183.0"}}, {"uniqueid": "MTK1114:3OSWBBLG1F46CESHOMC6KGRZ6RVDXA", "current_trial": 247, "dateTime": 1513115103004, "trialdata": {"rt": -1000, "stimulus": "/static/audio/wordpool/JUDGE.wav", "key_press": -1, "type": "PRES_AUD", "word": "judge", "wordID": 760, "conditions": [12, 800, "a", 24000], "trial": 6, "serialpos": 10, "trial_type": "single-audio", "trial_index": 247, "time_elapsed": 1065958, "internal_node_id": "0.0-184.0"}}, {"uniqueid": "MTK1114:3OSWBBLG1F46CESHOMC6KGRZ6RVDXA", "current_trial": 248, "dateTime": 1513115104813, "trialdata": {"rt": -1000, "stimulus": "/static/audio/wordpool/JURY.wav", "key_press": -1, "type": "PRES_AUD", "word": "jury", "wordID": 765, "conditions": [12, 800, "a", 24000], "trial": 6, "serialpos": 11, "trial_type": "single-audio", "trial_index": 248, "time_elapsed": 1067767, "internal_node_id": "0.0-185.0"}}, {"uniqueid": "MTK1114:3OSWBBLG1F46CESHOMC6KGRZ6RVDXA", "current_trial": 249, "dateTime": 1513115106204, "trialdata": {"rt": -1, "stimulus": "", "key_press": -1, "type": "PRE_RECALL_DELAY", "trial_type": "single-stim", "trial_index": 249, "time_elapsed": 1069158, "internal_node_id": "0.0-186.0-0.0"}}, {"uniqueid": "MTK1114:3OSWBBLG1F46CESHOMC6KGRZ6RVDXA", "current_trial": 250, "dateTime": 1513115106705, "trialdata": {"rt": -1000, "stimulus": "/static/audio/400Hz.wav", "key_press": -1, "type": "PRE_RECALL_ALERT", "trial_type": "single-audio", "trial_index": 250, "time_elapsed": 1069659, "internal_node_id": "0.0-187.0"}}, {"uniqueid": "MTK1114:3OSWBBLG1F46CESHOMC6KGRZ6RVDXA", "current_trial": 251, "dateTime": 1513115166712, "trialdata": {"rt": [4728, 6911, 11176, 13943, 17096, 19528, 21864, 25431, 29312, 31991, 36999, 38391], "recwords": ["froehead", "ride", "picnic", "pizza", "carrot", "guitar", "supper", "banquet", "puppy", "yarn", "judge", "jury"], "type": "FREE_RECALL", "conditions": [12, 800, "a", 24000], "trial": 6, "trial_type": "free-recall", "trial_index": 251, "time_elapsed": 1129661, "internal_node_id": "0.0-188.0-0.0"}}, {"uniqueid": "MTK1114:3OSWBBLG1F46CESHOMC6KGRZ6RVDXA", "current_trial": 252, "dateTime": 1513115169906, "trialdata": {"rt": 1193, "key_press": 13, "type": "INSTRUCTIONS", "trial_type": "text", "trial_index": 252, "time_elapsed": 1132860, "internal_node_id": "0.0-189.0"}}, {"uniqueid": "MTK1114:3OSWBBLG1F46CESHOMC6KGRZ6RVDXA", "current_trial": 253, "dateTime": 1513115183909, "trialdata": {"rt": [3361, 6327, 9087, 11143], "responses": ["17", "14", "13", "8"], "num1": [5, 4, 2, 3, 5], "num2": [9, 3, 8, 4, 6], "num3": [3, 7, 3, 1, 2], "type": "DISTRACTOR", "conditions": [12, 1600, "v", 12000], "trial": 7, "trial_type": "math-distractor", "trial_index": 253, "time_elapsed": 1146862, "internal_node_id": "0.0-190.0"}}, {"uniqueid": "MTK1114:3OSWBBLG1F46CESHOMC6KGRZ6RVDXA", "current_trial": 254, "dateTime": 1513115186911, "trialdata": {"rt": -1, "stimulus": "<p id=\"stim\">10</p>", "key_press": -1, "trial_type": "single-stim", "trial_index": 254, "time_elapsed": 1149865, "internal_node_id": "0.0-191.0-0.0"}}, {"uniqueid": "MTK1114:3OSWBBLG1F46CESHOMC6KGRZ6RVDXA", "current_trial": 255, "dateTime": 1513115187912, "trialdata": {"rt": -1, "stimulus": "<p id=\"stim\">9</p>", "key_press": -1, "trial_type": "single-stim", "trial_index": 255, "time_elapsed": 1150866, "internal_node_id": "0.0-191.0-1.0"}}, {"uniqueid": "MTK1114:3OSWBBLG1F46CESHOMC6KGRZ6RVDXA", "current_trial": 256, "dateTime": 1513115188912, "trialdata": {"rt": -1, "stimulus": "<p id=\"stim\">8</p>", "key_press": -1, "trial_type": "single-stim", "trial_index": 256, "time_elapsed": 1151866, "internal_node_id": "0.0-191.0-2.0"}}, {"uniqueid": "MTK1114:3OSWBBLG1F46CESHOMC6KGRZ6RVDXA", "current_trial": 257, "dateTime": 1513115189913, "trialdata": {"rt": -1, "stimulus": "<p id=\"stim\">7</p>", "key_press": -1, "trial_type": "single-stim", "trial_index": 257, "time_elapsed": 1152867, "internal_node_id": "0.0-191.0-3.0"}}, {"uniqueid": "MTK1114:3OSWBBLG1F46CESHOMC6KGRZ6RVDXA", "current_trial": 258, "dateTime": 1513115190914, "trialdata": {"rt": -1, "stimulus": "<p id=\"stim\">6</p>", "key_press": -1, "trial_type": "single-stim", "trial_index": 258, "time_elapsed": 1153868, "internal_node_id": "0.0-191.0-4.0"}}, {"uniqueid": "MTK1114:3OSWBBLG1F46CESHOMC6KGRZ6RVDXA", "current_trial": 259, "dateTime": 1513115191916, "trialdata": {"rt": -1, "stimulus": "<p id=\"stim\">5</p>", "key_press": -1, "trial_type": "single-stim", "trial_index": 259, "time_elapsed": 1154869, "internal_node_id": "0.0-191.0-5.0"}}, {"uniqueid": "MTK1114:3OSWBBLG1F46CESHOMC6KGRZ6RVDXA", "current_trial": 260, "dateTime": 1513115192917, "trialdata": {"rt": -1, "stimulus": "<p id=\"stim\">4</p>", "key_press": -1, "trial_type": "single-stim", "trial_index": 260, "time_elapsed": 1155870, "internal_node_id": "0.0-191.0-6.0"}}, {"uniqueid": "MTK1114:3OSWBBLG1F46CESHOMC6KGRZ6RVDXA", "current_trial": 261, "dateTime": 1513115193917, "trialdata": {"rt": -1, "stimulus": "<p id=\"stim\">3</p>", "key_press": -1, "trial_type": "single-stim", "trial_index": 261, "time_elapsed": 1156871, "internal_node_id": "0.0-191.0-7.0"}}, {"uniqueid": "MTK1114:3OSWBBLG1F46CESHOMC6KGRZ6RVDXA", "current_trial": 262, "dateTime": 1513115194918, "trialdata": {"rt": -1, "stimulus": "<p id=\"stim\">2</p>", "key_press": -1, "trial_type": "single-stim", "trial_index": 262, "time_elapsed": 1157872, "internal_node_id": "0.0-191.0-8.0"}}, {"uniqueid": "MTK1114:3OSWBBLG1F46CESHOMC6KGRZ6RVDXA", "current_trial": 263, "dateTime": 1513115195924, "trialdata": {"rt": -1, "stimulus": "<p id=\"stim\">1</p>", "key_press": -1, "trial_type": "single-stim", "trial_index": 263, "time_elapsed": 1158878, "internal_node_id": "0.0-191.0-9.0"}}, {"uniqueid": "MTK1114:3OSWBBLG1F46CESHOMC6KGRZ6RVDXA", "current_trial": 264, "dateTime": 1513115197440, "trialdata": {"rt": -1, "stimulus": "<p id=\"stim\">+</p>", "key_press": -1, "type": "FIXATION", "trial_type": "single-stim", "trial_index": 264, "time_elapsed": 1160394, "internal_node_id": "0.0-192.0-0.0"}}, {"uniqueid": "MTK1114:3OSWBBLG1F46CESHOMC6KGRZ6RVDXA", "current_trial": 265, "dateTime": 1513115199040, "trialdata": {"rt": -1, "stimulus": "<p id=\"stim\">ONION</p>", "key_press": -1, "type": "PRES_VIS", "word": "onion", "wordID": 976, "conditions": [12, 1600, "v", 12000], "trial": 7, "serialpos": 0, "trial_type": "single-stim", "trial_index": 265, "time_elapsed": 1161994, "internal_node_id": "0.0-193.0"}}, {"uniqueid": "MTK1114:3OSWBBLG1F46CESHOMC6KGRZ6RVDXA", "current_trial": 266, "dateTime": 1513115201635, "trialdata": {"rt": -1, "stimulus": "<p id=\"stim\">PEBBLE</p>", "key_press": -1, "type": "PRES_VIS", "word": "pebble", "wordID": 1034, "conditions": [12, 1600, "v", 12000], "trial": 7, "serialpos": 1, "trial_type": "single-stim", "trial_index": 266, "time_elapsed": 1164589, "internal_node_id": "0.0-194.0"}}, {"uniqueid": "MTK1114:3OSWBBLG1F46CESHOMC6KGRZ6RVDXA", "current_trial": 267, "dateTime": 1513115204340, "trialdata": {"rt": -1, "stimulus": "<p id=\"stim\">CREVICE</p>", "key_press": -1, "type": "PRES_VIS", "word": "crevice", "wordID": 404, "conditions": [12, 1600, "v", 12000], "trial": 7, "serialpos": 2, "trial_type": "single-stim", "trial_index": 267, "time_elapsed": 1167294, "internal_node_id": "0.0-195.0"}}, {"uniqueid": "MTK1114:3OSWBBLG1F46CESHOMC6KGRZ6RVDXA", "current_trial": 268, "dateTime": 1513115206822, "trialdata": {"rt": -1, "stimulus": "<p id=\"stim\">BADGE</p>", "key_press": -1, "type": "PRES_VIS", "word": "badge", "wordID": 67, "conditions": [12, 1600, "v", 12000], "trial": 7, "serialpos": 3, "trial_type": "single-stim", "trial_index": 268, "time_elapsed": 1169776, "internal_node_id": "0.0-196.0"}}, {"uniqueid": "MTK1114:3OSWBBLG1F46CESHOMC6KGRZ6RVDXA", "current_trial": 269, "dateTime": 1513115209356, "trialdata": {"rt": -1, "stimulus": "<p id=\"stim\">BANK</p>", "key_press": -1, "type": "PRES_VIS", "word": "bank", "wordID": 82, "conditions": [12, 1600, "v", 12000], "trial": 7, "serialpos": 4, "trial_type": "single-stim", "trial_index": 269, "time_elapsed": 1172310, "internal_node_id": "0.0-197.0"}}, {"uniqueid": "MTK1114:3OSWBBLG1F46CESHOMC6KGRZ6RVDXA", "current_trial": 270, "dateTime": 1513115212058, "trialdata": {"rt": -1, "stimulus": "<p id=\"stim\">BLADE</p>", "key_press": -1, "type": "PRES_VIS", "word": "blade", "wordID": 133, "conditions": [12, 1600, "v", 12000], "trial": 7, "serialpos": 5, "trial_type": "single-stim", "trial_index": 270, "time_elapsed": 1175012, "internal_node_id": "0.0-198.0"}}, {"uniqueid": "MTK1114:3OSWBBLG1F46CESHOMC6KGRZ6RVDXA", "current_trial": 27