{"assignmentId": "3HMVI3QICKZ1KO2FDPED2SXZM49Y19", "workerId": "MTK1672", "questiondata": {"origin": "United States", "strat-rehearsal": "60", "marital": "Married/Domestic Partnership", "education": "Some college", "ethnicity": "Not Hispanic", "color_depth": 24, "distracted": "No", "wrote-notes": "Yes", "strat-other": "I took notes of those words that I thought that I would have major trouble in remembering.", "screen_width": 1920, "avail_screen_width": 1920, "avail_screen_height": 1040, "strat-image": "63", "language": "English", "gender": "Male", "age": "50", "gender_other": "", "race": ["White"], "strat-categorize": "55", "pixel_depth": 24, "strat-spatial": "69", "strat-story": "46", "race_other": "", "screen_height": 1080}, "bonus": 0, "hitId": "3Z33IC0JC0T0IFCBMP1KLFF4KHL9VH", "counterbalance": 1083, "useragent": "Mozilla/5.0 (Windows NT 10.0; Win64; x64) AppleWebKit/537.36 (KHTML, like Gecko) Chrome/63.0.3239.132 Safari/537.36", "eventdata": [{"eventtype": "initialized", "interval": 0, "value": null, "timestamp": 1516125148526}, {"eventtype": "window_resize", "interval": 0, "value": [1920, 1033], "timestamp": 1516125148526}, {"eventtype": "focus", "interval": 8789, "value": "off", "timestamp": 1516125157315}, {"eventtype": "focus", "interval": 8981, "value": "on", "timestamp": 1516125166296}, {"eventtype": "window_resize", "interval": 3885, "value": [1920, 989], "timestamp": 1516125170181}, {"eventtype": "focus", "interval": 22626, "value": "off", "timestamp": 1516125192807}, {"eventtype": "focus", "interval": 3825, "value": "on", "timestamp": 1516125196632}, {"eventtype": "focus", "interval": 1637875, "value": "off", "timestamp": 1516126834507}, {"eventtype": "focus", "interval": 20999, "value": "on", "timestamp": 1516126855506}], "data": [{"current_trial": 0, "trialdata": {"rt": 6149, "trial_type": "text", "internal_node_id": "0.0-0.0", "time_elapsed": 6151, "key_press": 13, "type": "INSTRUCTIONS", "trial_index": 0}, "uniqueid": "MTK1672:3HMVI3QICKZ1KO2FDPED2SXZM49Y19", "dateTime": 1516125171911}, {"current_trial": 1, "trialdata": {"rt": 14342, "trial_type": "text", "internal_node_id": "0.0-1.0", "time_elapsed": 20494, "key_press": 13, "type": "INSTRUCTIONS", "trial_index": 1}, "uniqueid": "MTK1672:3HMVI3QICKZ1KO2FDPED2SXZM49Y19", "dateTime": 1516125186254}, {"current_trial": 2, "trialdata": {"rt": [14748], "trial_type": "audio-test", "responses": ["ocean"], "internal_node_id": "0.0-2.0", "time_elapsed": 35245, "type": "AUDIO_TEST", "trial_index": 2}, "uniqueid": "MTK1672:3HMVI3QICKZ1KO2FDPED2SXZM49Y19", "dateTime": 1516125201006}, {"current_trial": 3, "trialdata": {"rt": [5606], "trial_type": "audio-test", "responses": ["crystal"], "internal_node_id": "0.0-3.0", "time_elapsed": 40854, "type": "AUDIO_TEST", "trial_index": 3}, "uniqueid": "MTK1672:3HMVI3QICKZ1KO2FDPED2SXZM49Y19", "dateTime": 1516125206614}, {"current_trial": 4, "trialdata": {"rt": [6670], "trial_type": "audio-test", "responses": ["spice"], "internal_node_id": "0.0-4.0", "time_elapsed": 47525, "type": "AUDIO_TEST", "trial_index": 4}, "uniqueid": "MTK1672:3HMVI3QICKZ1KO2FDPED2SXZM49Y19", "dateTime": 1516125213285}, {"current_trial": 5, "trialdata": {"rt": 20865, "trial_type": "survey-text", "responses": "{\"Q0\":\"9pm\",\"Q1\":\"7am\",\"Q2\":\"4\"}", "internal_node_id": "0.0-5.0", "time_elapsed": 69143, "type": "SLEEP_SURVEY", "trial_index": 5}, "uniqueid": "MTK1672:3HMVI3QICKZ1KO2FDPED2SXZM49Y19", "dateTime": 1516125234903}, {"current_trial": 6, "trialdata": {"rt": 25630, "trial_type": "text", "internal_node_id": "0.0-6.0", "time_elapsed": 95774, "key_press": 13, "type": "INSTRUCTIONS", "trial_index": 6}, "uniqueid": "MTK1672:3HMVI3QICKZ1KO2FDPED2SXZM49Y19", "dateTime": 1516125261534}, {"current_trial": 7, "trialdata": {"rt": 9370, "trial_type": "text", "internal_node_id": "0.0-7.0", "time_elapsed": 105645, "key_press": 13, "type": "INSTRUCTIONS", "trial_index": 7}, "uniqueid": "MTK1672:3HMVI3QICKZ1KO2FDPED2SXZM49Y19", "dateTime": 1516125271405}, {"current_trial": 8, "trialdata": {"rt": 3402, "trial_type": "text", "internal_node_id": "0.0-8.0", "time_elapsed": 109550, "key_press": 13, "type": "INSTRUCTIONS", "trial_index": 8}, "uniqueid": "MTK1672:3HMVI3QICKZ1KO2FDPED2SXZM49Y19", "dateTime": 1516125275310}, {"current_trial": 9, "trialdata": {"rt": [4920, 8264, 11592, 13872, 17200], "trial_type": "math-distractor", "key_times": [3185, 3321, 4920, 7625, 7768, 8264, 11073, 11194, 11592, 13193, 13290, 13872, 16745, 16850, 17200], "responses": ["18", "10", "15", "12", "16"], "num2": [7, 4, 4, 1, 3, 7], "num3": [9, 3, 9, 6, 7, 7], "conditions": [18, 1200, "a", 18000], "internal_node_id": "0.0-9.0", "key_presses": [97, 104, 13, 97, 96, 13, 97, 101, 13, 97, 98, 13, 97, 102, 13], "trial": 0, "time_elapsed": 128559, "type": "DISTRACTOR", "trial_index": 9, "num1": [2, 3, 2, 5, 6, 4]}, "uniqueid": "MTK1672:3HMVI3QICKZ1KO2FDPED2SXZM49Y19", "dateTime": 1516125294319}, {"current_trial": 10, "trialdata": {"rt": -1, "trial_type": "single-stim", "stimulus": "<p id=\"stim\">10</p>", "internal_node_id": "0.0-10.0-0.0", "time_elapsed": 131564, "key_press": -1, "trial_index": 10}, "uniqueid": "MTK1672:3HMVI3QICKZ1KO2FDPED2SXZM49Y19", "dateTime": 1516125297324}, {"current_trial": 11, "trialdata": {"rt": -1, "trial_type": "single-stim", "stimulus": "<p id=\"stim\">9</p>", "internal_node_id": "0.0-10.0-1.0", "time_elapsed": 132566, "key_press": -1, "trial_index": 11}, "uniqueid": "MTK1672:3HMVI3QICKZ1KO2FDPED2SXZM49Y19", "dateTime": 1516125298326}, {"current_trial": 12, "trialdata": {"rt": -1, "trial_type": "single-stim", "stimulus": "<p id=\"stim\">8</p>", "internal_node_id": "0.0-10.0-2.0", "time_elapsed": 133567, "key_press": -1, "trial_index": 12}, "uniqueid": "MTK1672:3HMVI3QICKZ1KO2FDPED2SXZM49Y19", "dateTime": 1516125299327}, {"current_trial": 13, "trialdata": {"rt": -1, "trial_type": "single-stim", "stimulus": "<p id=\"stim\">7</p>", "internal_node_id": "0.0-10.0-3.0", "time_elapsed": 134569, "key_press": -1, "trial_index": 13}, "uniqueid": "MTK1672:3HMVI3QICKZ1KO2FDPED2SXZM49Y19", "dateTime": 1516125300329}, {"current_trial": 14, "trialdata": {"rt": -1, "trial_type": "single-stim", "stimulus": "<p id=\"stim\">6</p>", "internal_node_id": "0.0-10.0-4.0", "time_elapsed": 135570, "key_press": -1, "trial_index": 14}, "uniqueid": "MTK1672:3HMVI3QICKZ1KO2FDPED2SXZM49Y19", "dateTime": 1516125301330}, {"current_trial": 15, "trialdata": {"rt": -1, "trial_type": "single-stim", "stimulus": "<p id=\"stim\">5</p>", "internal_node_id": "0.0-10.0-5.0", "time_elapsed": 136572, "key_press": -1, "trial_index": 15}, "uniqueid": "MTK1672:3HMVI3QICKZ1KO2FDPED2SXZM49Y19", "dateTime": 1516125302332}, {"current_trial": 16, "trialdata": {"rt": -1, "trial_type": "single-stim", "stimulus": "<p id=\"stim\">4</p>", "internal_node_id": "0.0-10.0-6.0", "time_elapsed": 137574, "key_press": -1, "trial_index": 16}, "uniqueid": "MTK1672:3HMVI3QICKZ1KO2FDPED2SXZM49Y19", "dateTime": 1516125303334}, {"current_trial": 17, "trialdata": {"rt": -1, "trial_type": "single-stim", "stimulus": "<p id=\"stim\">3</p>", "internal_node_id": "0.0-10.0-7.0", "time_elapsed": 138576, "key_press": -1, "trial_index": 17}, "uniqueid": "MTK1672:3HMVI3QICKZ1KO2FDPED2SXZM49Y19", "dateTime": 1516125304336}, {"current_trial": 18, "trialdata": {"rt": -1, "trial_type": "single-stim", "stimulus": "<p id=\"stim\">2</p>", "internal_node_id": "0.0-10.0-8.0", "time_elapsed": 139578, "key_press": -1, "trial_index": 18}, "uniqueid": "MTK1672:3HMVI3QICKZ1KO2FDPED2SXZM49Y19", "dateTime": 1516125305338}, {"current_trial": 19, "trialdata": {"rt": -1, "trial_type": "single-stim", "stimulus": "<p id=\"stim\">1</p>", "internal_node_id": "0.0-10.0-9.0", "time_elapsed": 140579, "key_press": -1, "trial_index": 19}, "uniqueid": "MTK1672:3HMVI3QICKZ1KO2FDPED2SXZM49Y19", "dateTime": 1516125306339}, {"current_trial": 20, "trialdata": {"rt": -1, "trial_type": "single-stim", "stimulus": "<p id=\"stim\">+</p>", "internal_node_id": "0.0-11.0-0.0", "time_elapsed": 142080, "key_press": -1, "type": "FIXATION", "trial_index": 20}, "uniqueid": "MTK1672:3HMVI3QICKZ1KO2FDPED2SXZM49Y19", "dateTime": 1516125307841}, {"current_trial": 21, "trialdata": {"rt": -1000, "trial_type": "single-audio", "word": "actress", "stimulus": "/static/audio/wordpool/ACTRESS.wav", "conditions": [18, 1200, "a", 18000], "internal_node_id": "0.0-12.0", "trial": 0, "time_elapsed": 144438, "serialpos": 0, "key_press": -1, "wordID": 5, "type": "PRES_AUD", "trial_index": 21}, "uniqueid": "MTK1672:3HMVI3QICKZ1KO2FDPED2SXZM49Y19", "dateTime": 1516125310198}, {"current_trial": 22, "trialdata": {"rt": -1000, "trial_type": "single-audio", "word": "plaza", "stimulus": "/static/audio/wordpool/PLAZA.wav", "conditions": [18, 1200, "a", 18000], "internal_node_id": "0.0-13.0", "trial": 0, "time_elapsed": 146805, "serialpos": 1, "key_press": -1, "wordID": 1087, "type": "PRES_AUD", "trial_index": 22}, "uniqueid": "MTK1672:3HMVI3QICKZ1KO2FDPED2SXZM49Y19", "dateTime": 1516125312565}, {"current_trial": 23, "trialdata": {"rt": -1000, "trial_type": "single-audio", "word": "donkey", "stimulus": "/static/audio/wordpool/DONKEY.wav", "conditions": [18, 1200, "a", 18000], "internal_node_id": "0.0-14.0", "trial": 0, "time_elapsed": 149031, "serialpos": 2, "key_press": -1, "wordID": 483, "type": "PRES_AUD", "trial_index": 23}, "uniqueid": "MTK1672:3HMVI3QICKZ1KO2FDPED2SXZM49Y19", "dateTime": 1516125314791}, {"current_trial": 24, "trialdata": {"rt": -1000, "trial_type": "single-audio", "word": "orchid", "stimulus": "/static/audio/wordpool/ORCHID.wav", "conditions": [18, 1200, "a", 18000], "internal_node_id": "0.0-15.0", "trial": 0, "time_elapsed": 151380, "serialpos": 3, "key_press": -1, "wordID": 981, "type": "PRES_AUD", "trial_index": 24}, "uniqueid": "MTK1672:3HMVI3QICKZ1KO2FDPED2SXZM49Y19", "dateTime": 1516125317140}, {"current_trial": 25, "trialdata": {"rt": -1000, "trial_type": "single-audio", "word": "robber", "stimulus": "/static/audio/wordpool/ROBBER.wav", "conditions": [18, 1200, "a", 18000], "internal_node_id": "0.0-16.0", "trial": 0, "time_elapsed": 153489, "serialpos": 4, "key_press": -1, "wordID": 1196, "type": "PRES_AUD", "trial_index": 25}, "uniqueid": "MTK1672:3HMVI3QICKZ1KO2FDPED2SXZM49Y19", "dateTime": 1516125319249}, {"current_trial": 26, "trialdata": {"rt": -1000, "trial_type": "single-audio", "word": "toaster", "stimulus": "/static/audio/wordpool/TOASTER.wav", "conditions": [18, 1200, "a", 18000], "internal_node_id": "0.0-17.0", "trial": 0, "time_elapsed": 155632, "serialpos": 5, "key_press": -1, "wordID": 1471, "type": "PRES_AUD", "trial_index": 26}, "uniqueid": "MTK1672:3HMVI3QICKZ1KO2FDPED2SXZM49Y19", "dateTime": 1516125321392}, {"current_trial": 27, "trialdata": {"rt": -1000, "trial_type": "single-audio", "word": "hornet", "stimulus": "/static/audio/wordpool/HORNET.wav", "conditions": [18, 1200, "a", 18000], "internal_node_id": "0.0-18.0", "trial": 0, "time_elapsed": 158009, "serialpos": 6, "key_press": -1, "wordID": 717, "type": "PRES_AUD", "trial_index": 27}, "uniqueid": "MTK1672:3HMVI3QICKZ1KO2FDPED2SXZM49Y19", "dateTime": 1516125323769}, {"current_trial": 28, "trialdata": {"rt": -1000, "trial_type": "single-audio", "word": "dress", "stimulus": "/static/audio/wordpool/DRESS.wav", "conditions": [18, 1200, "a", 18000], "internal_node_id": "0.0-19.0", "trial": 0, "time_elapsed": 160043, "serialpos": 7, "key_press": -1, "wordID": 494, "type": "PRES_AUD", "trial_index": 28}, "uniqueid": "MTK1672:3HMVI3QICKZ1KO2FDPED2SXZM49Y19", "dateTime": 1516125325803}, {"current_trial": 29, "trialdata": {"rt": -1000, "trial_type": "single-audio", "word": "candy", "stimulus": "/static/audio/wordpool/CANDY.wav", "conditions": [18, 1200, "a", 18000], "internal_node_id": "0.0-20.0", "trial": 0, "time_elapsed": 162119, "serialpos": 8, "key_press": -1, "wordID": 229, "type": "PRES_AUD", "trial_index": 29}, "uniqueid": "MTK1672:3HMVI3QICKZ1KO2FDPED2SXZM49Y19", "dateTime": 1516125327880}, {"current_trial": 30, "trialdata": {"rt": -1000, "trial_type": "single-audio", "word": "ankle", "stimulus": "/static/audio/wordpool/ANKLE.wav", "conditions": [18, 1200, "a", 18000], "internal_node_id": "0.0-21.0", "trial": 0, "time_elapsed": 164313, "serialpos": 9, "key_press": -1, "wordID": 23, "type": "PRES_AUD", "trial_index": 30}, "uniqueid": "MTK1672:3HMVI3QICKZ1KO2FDPED2SXZM49Y19", "dateTime": 1516125330074}, {"current_trial": 31, "trialdata": {"rt": -1000, "trial_type": "single-audio", "word": "parsley", "stimulus": "/static/audio/wordpool/PARSLEY.wav", "conditions": [18, 1200, "a", 18000], "internal_node_id": "0.0-22.0", "trial": 0, "time_elapsed": 166341, "serialpos": 10, "key_press": -1, "wordID": 1015, "type": "PRES_AUD", "trial_index": 31}, "uniqueid": "MTK1672:3HMVI3QICKZ1KO2FDPED2SXZM49Y19", "dateTime": 1516125332101}, {"current_trial": 32, "trialdata": {"rt": -1000, "trial_type": "single-audio", "word": "hood", "stimulus": "/static/audio/wordpool/HOOD.wav", "conditions": [18, 1200, "a", 18000], "internal_node_id": "0.0-23.0", "trial": 0, "time_elapsed": 168539, "serialpos": 11, "key_press": -1, "wordID": 713, "type": "PRES_AUD", "trial_index": 32}, "uniqueid": "MTK1672:3HMVI3QICKZ1KO2FDPED2SXZM49Y19", "dateTime": 1516125334299}, {"current_trial": 33, "trialdata": {"rt": -1000, "trial_type": "single-audio", "word": "seal", "stimulus": "/static/audio/wordpool/SEAL.wav", "conditions": [18, 1200, "a", 18000], "internal_node_id": "0.0-24.0", "trial": 0, "time_elapsed": 170860, "serialpos": 12, "key_press": -1, "wordID": 1261, "type": "PRES_AUD", "trial_index": 33}, "uniqueid": "MTK1672:3HMVI3QICKZ1KO2FDPED2SXZM49Y19", "dateTime": 1516125336620}, {"current_trial": 34, "trialdata": {"rt": -1000, "trial_type": "single-audio", "word": "notebook", "stimulus": "/static/audio/wordpool/NOTEBOOK.wav", "conditions": [18, 1200, "a", 18000], "internal_node_id": "0.0-25.0", "trial": 0, "time_elapsed": 172992, "serialpos": 13, "key_press": -1, "wordID": 958, "type": "PRES_AUD", "trial_index": 34}, "uniqueid": "MTK1672:3HMVI3QICKZ1KO2FDPED2SXZM49Y19", "dateTime": 1516125338752}, {"current_trial": 35, "trialdata": {"rt": -1000, "trial_type": "single-audio", "word": "servant", "stimulus": "/static/audio/wordpool/SERVANT.wav", "conditions": [18, 1200, "a", 18000], "internal_node_id": "0.0-26.0", "trial": 0, "time_elapsed": 175203, "serialpos": 14, "key_press": -1, "wordID": 1270, "type": "PRES_AUD", "trial_index": 35}, "uniqueid": "MTK1672:3HMVI3QICKZ1KO2FDPED2SXZM49Y19", "dateTime": 1516125340963}, {"current_trial": 36, "trialdata": {"rt": -1000, "trial_type": "single-audio", "word": "mustard", "stimulus": "/static/audio/wordpool/MUSTARD.wav", "conditions": [18, 1200, "a", 18000], "internal_node_id": "0.0-27.0", "trial": 0, "time_elapsed": 177270, "serialpos": 15, "key_press": -1, "wordID": 934, "type": "PRES_AUD", "trial_index": 36}, "uniqueid": "MTK1672:3HMVI3QICKZ1KO2FDPED2SXZM49Y19", "dateTime": 1516125343030}, {"current_trial": 37, "trialdata": {"rt": -1000, "trial_type": "single-audio", "word": "sunset", "stimulus": "/static/audio/wordpool/SUNSET.wav", "conditions": [18, 1200, "a", 18000], "internal_node_id": "0.0-28.0", "trial": 0, "time_elapsed": 179555, "serialpos": 16, "key_press": -1, "wordID": 1407, "type": "PRES_AUD", "trial_index": 37}, "uniqueid": "MTK1672:3HMVI3QICKZ1KO2FDPED2SXZM49Y19", "dateTime": 1516125345315}, {"current_trial": 38, "trialdata": {"rt": -1000, "trial_type": "single-audio", "word": "eagle", "stimulus": "/static/audio/wordpool/EAGLE.wav", "conditions": [18, 1200, "a", 18000], "internal_node_id": "0.0-29.0", "trial": 0, "time_elapsed": 181722, "serialpos": 17, "key_press": -1, "wordID": 511, "type": "PRES_AUD", "trial_index": 38}, "uniqueid": "MTK1672:3HMVI3QICKZ1KO2FDPED2SXZM49Y19", "dateTime": 1516125347482}, {"current_trial": 39, "trialdata": {"rt": -1, "trial_type": "single-stim", "stimulus": "", "internal_node_id": "0.0-30.0-0.0", "time_elapsed": 183054, "key_press": -1, "type": "PRE_RECALL_DELAY", "trial_index": 39}, "uniqueid": "MTK1672:3HMVI3QICKZ1KO2FDPED2SXZM49Y19", "dateTime": 1516125348814}, {"current_trial": 40, "trialdata": {"rt": -1000, "trial_type": "single-audio", "stimulus": "/static/audio/400Hz.wav", "internal_node_id": "0.0-31.0", "time_elapsed": 183556, "key_press": -1, "type": "PRE_RECALL_ALERT", "trial_index": 40}, "uniqueid": "MTK1672:3HMVI3QICKZ1KO2FDPED2SXZM49Y19", "dateTime": 1516125349316}, {"current_trial": 41, "trialdata": {"rt": [5719, 7823, 10071, 12319, 14951, 17871, 19823, 22783, 24295, 26607, 30071, 33135, 34655, 44719], "recwords": ["actress", "plaza", "robber", "toaster", "hornet", "dress", "candy", "parsly", "hood", "seal", "notebook", "sunset", "eagle", "dirty"], "key_times": [2959, 3216, 3455, 4080, 4177, 4767, 4911, 5159, 5287, 5719, 6616, 6872, 6929, 7209, 7447, 7823, 8792, 8945, 9160, 9320, 9609, 9656, 10071, 11223, 11312, 11392, 11567, 11711, 11921, 11977, 12319, 13384, 13503, 13824, 14224, 14465, 14593, 14951, 15863, 17160, 17248, 17503, 17639, 17871, 18873, 18985, 19087, 19288, 19423, 19823, 21609, 21705, 21864, 22081, 22223, 22415, 22783, 23536, 23801, 23921, 24057, 24295, 25152, 25551, 25615, 25800, 25952, 26368, 26607, 28464, 28600, 28687, 28880, 29217, 29449, 29561, 29695, 30071, 31703, 31823, 31976, 32201, 32656, 32792, 33135, 33729, 33863, 34095, 34216, 34321, 34655, 43599, 43727, 43850, 44120, 44223, 44719], "trial_type": "free-recall", "conditions": [18, 1200, "a", 18000], "internal_node_id": "0.0-32.0-0.0", "key_presses": [65, 67, 82, 8, 84, 82, 69, 83, 83, 13, 80, 76, 65, 90, 65, 13, 82, 79, 66, 66, 69, 82, 13, 84, 79, 65, 83, 84, 69, 82, 13, 72, 79, 82, 78, 69, 84, 13, 68, 82, 69, 83, 83, 13, 67, 65, 78, 68, 89, 13, 80, 65, 82, 83, 76, 89, 13, 72, 79, 79, 68, 13, 68, 8, 83, 69, 65, 76, 13, 78, 79, 84, 69, 66, 79, 79, 75, 13, 83, 85, 78, 83, 69, 84, 13, 69, 65, 71, 76, 69, 13, 68, 73, 82, 84, 89, 13], "trial": 0, "time_elapsed": 243560, "type": "FREE_RECALL", "trial_index": 41}, "uniqueid": "MTK1672:3HMVI3QICKZ1KO2FDPED2SXZM49Y19", "dateTime": 1516125409325}, {"current_trial": 42, "trialdata": {"rt": 6457, "trial_type": "text", "internal_node_id": "0.0-33.0", "time_elapsed": 252022, "key_press": 13, "type": "INSTRUCTIONS", "trial_index": 42}, "uniqueid": "MTK1672:3HMVI3QICKZ1KO2FDPED2SXZM49Y19", "dateTime": 1516125417782}, {"current_trial": 43, "trialdata": {"rt": [3694, 6319, 8830, 10958, 12630, 14782, 17830], "trial_type": "math-distractor", "key_times": [2759, 2822, 3694, 5792, 5974, 6319, 8360, 8504, 8830, 10599, 10735, 10958, 12263, 12311, 12630, 14358, 14512, 14782, 17223, 17534, 17830], "responses": ["12", "15", "13", "11", "12", "21", "21"], "num2": [7, 1, 3, 1, 5, 9, 9, 2], "num3": [1, 9, 7, 7, 2, 3, 7, 9], "conditions": [18, 1200, "a", 18000], "internal_node_id": "0.0-34.0", "key_presses": [97, 98, 13, 97, 101, 13, 97, 99, 13, 97, 97, 13, 97, 98, 13, 98, 97, 13, 98, 97, 13], "trial": 1, "time_elapsed": 272025, "type": "DISTRACTOR", "trial_index": 43, "num1": [4, 5, 3, 2, 5, 9, 5, 2]}, "uniqueid": "MTK1672:3HMVI3QICKZ1KO2FDPED2SXZM49Y19", "dateTime": 1516125437785}, {"current_trial": 44, "trialdata": {"rt": -1, "trial_type": "single-stim", "stimulus": "<p id=\"stim\">10</p>", "internal_node_id": "0.0-35.0-0.0", "time_elapsed": 275028, "key_press": -1, "trial_index": 44}, "uniqueid": "MTK1672:3HMVI3QICKZ1KO2FDPED2SXZM49Y19", "dateTime": 1516125440788}, {"current_trial": 45, "trialdata": {"rt": -1, "trial_type": "single-stim", "stimulus": "<p id=\"stim\">9</p>", "internal_node_id": "0.0-35.0-1.0", "time_elapsed": 276031, "key_press": -1, "trial_index": 45}, "uniqueid": "MTK1672:3HMVI3QICKZ1KO2FDPED2SXZM49Y19", "dateTime": 1516125441791}, {"current_trial": 46, "trialdata": {"rt": -1, "trial_type": "single-stim", "stimulus": "<p id=\"stim\">8</p>", "internal_node_id": "0.0-35.0-2.0", "time_elapsed": 277033, "key_press": -1, "trial_index": 46}, "uniqueid": "MTK1672:3HMVI3QICKZ1KO2FDPED2SXZM49Y19", "dateTime": 1516125442793}, {"current_trial": 47, "trialdata": {"rt": -1, "trial_type": "single-stim", "stimulus": "<p id=\"stim\">7</p>", "internal_node_id": "0.0-35.0-3.0", "time_elapsed": 278035, "key_press": -1, "trial_index": 47}, "uniqueid": "MTK1672:3HMVI3QICKZ1KO2FDPED2SXZM49Y19", "dateTime": 1516125443795}, {"current_trial": 48, "trialdata": {"rt": -1, "trial_type": "single-stim", "stimulus": "<p id=\"stim\">6</p>", "internal_node_id": "0.0-35.0-4.0", "time_elapsed": 279036, "key_press": -1, "trial_index": 48}, "uniqueid": "MTK1672:3HMVI3QICKZ1KO2FDPED2SXZM49Y19", "dateTime": 1516125444796}, {"current_trial": 49, "trialdata": {"rt": -1, "trial_type": "single-stim", "stimulus": "<p id=\"stim\">5</p>", "internal_node_id": "0.0-35.0-5.0", "time_elapsed": 280038, "key_press": -1, "trial_index": 49}, "uniqueid": "MTK1672:3HMVI3QICKZ1KO2FDPED2SXZM49Y19", "dateTime": 1516125445798}, {"current_trial": 50, "trialdata": {"rt": -1, "trial_type": "single-stim", "stimulus": "<p id=\"stim\">4</p>", "internal_node_id": "0.0-35.0-6.0", "time_elapsed": 281040, "key_press": -1, "trial_index": 50}, "uniqueid": "MTK1672:3HMVI3QICKZ1KO2FDPED2SXZM49Y19", "dateTime": 1516125446800}, {"current_trial": 51, "trialdata": {"rt": -1, "trial_type": "single-stim", "stimulus": "<p id=\"stim\">3</p>", "internal_node_id": "0.0-35.0-7.0", "time_elapsed": 282041, "key_press": -1, "trial_index": 51}, "uniqueid": "MTK1672:3HMVI3QICKZ1KO2FDPED2SXZM49Y19", "dateTime": 1516125447803}, {"current_trial": 52, "trialdata": {"rt": -1, "trial_type": "single-stim", "stimulus": "<p id=\"stim\">2</p>", "internal_node_id": "0.0-35.0-8.0", "time_elapsed": 283044, "key_press": -1, "trial_index": 52}, "uniqueid": "MTK1672:3HMVI3QICKZ1KO2FDPED2SXZM49Y19", "dateTime": 1516125448804}, {"current_trial": 53, "trialdata": {"rt": -1, "trial_type": "single-stim", "stimulus": "<p id=\"stim\">1</p>", "internal_node_id": "0.0-35.0-9.0", "time_elapsed": 284045, "key_press": -1, "trial_index": 53}, "uniqueid": "MTK1672:3HMVI3QICKZ1KO2FDPED2SXZM49Y19", "dateTime": 1516125449805}, {"current_trial": 54, "trialdata": {"rt": -1, "trial_type": "single-stim", "stimulus": "<p id=\"stim\">+</p>", "internal_node_id": "0.0-36.0-0.0", "time_elapsed": 285547, "key_press": -1, "type": "FIXATION", "trial_index": 54}, "uniqueid": "MTK1672:3HMVI3QICKZ1KO2FDPED2SXZM49Y19", "dateTime": 1516125451307}, {"current_trial": 55, "trialdata": {"rt": -1000, "trial_type": "single-audio", "word": "champagne", "stimulus": "/static/audio/wordpool/CHAMPAGNE.wav", "conditions": [18, 1200, "a", 18000], "internal_node_id": "0.0-37.0", "trial": 1, "time_elapsed": 287680, "serialpos": 0, "key_press": -1, "wordID": 277, "type": "PRES_AUD", "trial_index": 55}, "uniqueid": "MTK1672:3HMVI3QICKZ1KO2FDPED2SXZM49Y19", "dateTime": 1516125453440}, {"current_trial": 56, "trialdata": {"rt": -1000, "trial_type": "single-audio", "word": "truck", "stimulus": "/static/audio/wordpool/TRUCK.wav", "conditions": [18, 1200, "a", 18000], "internal_node_id": "0.0-38.0", "trial": 1, "time_elapsed": 289999, "serialpos": 1, "key_press": -1, "wordID": 1511, "type": "PRES_AUD", "trial_index": 56}, "uniqueid": "MTK1672:3HMVI3QICKZ1KO2FDPED2SXZM49Y19", "dateTime": 1516125455759}, {"current_trial": 57, "trialdata": {"rt": -1000, "trial_type": "single-audio", "word": "finger", "stimulus": "/static/audio/wordpool/FINGER.wav", "conditions": [18, 1200, "a", 18000], "internal_node_id": "0.0-39.0", "trial": 1, "time_elapsed": 292233, "serialpos": 2, "key_press": -1, "wordID": 566, "type": "PRES_AUD", "trial_index": 57}, "uniqueid": "MTK1672:3HMVI3QICKZ1KO2FDPED2SXZM49Y19", "dateTime": 1516125457994}, {"current_trial": 58, "trialdata": {"rt": -1000, "trial_type": "single-audio", "word": "sibling", "stimulus": "/static/audio/wordpool/SIBLING.wav", "conditions": [18, 1200, "a", 18000], "internal_node_id": "0.0-40.0", "trial": 1, "time_elapsed": 294456, "serialpos": 3, "key_press": -1, "wordID": 1300, "type": "PRES_AUD", "trial_index": 58}, "uniqueid": "MTK1672:3HMVI3QICKZ1KO2FDPED2SXZM49Y19", "dateTime": 1516125460216}, {"current_trial": 59, "trialdata": {"rt": -1000, "trial_type": "single-audio", "word": "gift", "stimulus": "/static/audio/wordpool/GIFT.wav", "conditions": [18, 1200, "a", 18000], "internal_node_id": "0.0-41.0", "trial": 1, "time_elapsed": 296636, "serialpos": 4, "key_press": -1, "wordID": 634, "type": "PRES_AUD", "trial_index": 59}, "uniqueid": "MTK1672:3HMVI3QICKZ1KO2FDPED2SXZM49Y19", "dateTime": 1516125462396}, {"current_trial": 60, "trialdata": {"rt": -1000, "trial_type": "single-audio", "word": "forest", "stimulus": "/static/audio/wordpool/FOREST.wav", "conditions": [18, 1200, "a", 18000], "internal_node_id": "0.0-42.0", "trial": 1, "time_elapsed": 298877, "serialpos": 5, "key_press": -1, "wordID": 592, "type": "PRES_AUD", "trial_index": 60}, "uniqueid": "MTK1672:3HMVI3QICKZ1KO2FDPED2SXZM49Y19", "dateTime": 1516125464638}, {"current_trial": 61, "trialdata": {"rt": -1000, "trial_type": "single-audio", "word": "whiskers", "stimulus": "/static/audio/wordpool/WHISKERS.wav", "conditions": [18, 1200, "a", 18000], "internal_node_id": "0.0-43.0", "trial": 1, "time_elapsed": 301131, "serialpos": 6, "key_press": -1, "wordID": 1604, "type": "PRES_AUD", "trial_index": 61}, "uniqueid": "MTK1672:3HMVI3QICKZ1KO2FDPED2SXZM49Y19", "dateTime": 1516125466891}, {"current_trial": 62, "trialdata": {"rt": -1000, "trial_type": "single-audio", "word": "cyclone", "stimulus": "/static/audio/wordpool/CYCLONE.wav", "conditions": [18, 1200, "a", 18000], "internal_node_id": "0.0-44.0", "trial": 1, "time_elapsed": 303280, "serialpos": 7, "key_press": -1, "wordID": 430, "type": "PRES_AUD", "trial_index": 62}, "uniqueid": "MTK1672:3HMVI3QICKZ1KO2FDPED2SXZM49Y19", "dateTime": 1516125469040}, {"current_trial": 63, "trialdata": {"rt": -1000, "trial_type": "single-audio", "word": "fungus", "stimulus": "/static/audio/wordpool/FUNGUS.wav", "conditions": [18, 1200, "a", 18000], "internal_node_id": "0.0-45.0", "trial": 1, "time_elapsed": 305674, "serialpos": 8, "key_press": -1, "wordID": 613, "type": "PRES_AUD", "trial_index": 63}, "uniqueid": "MTK1672:3HMVI3QICKZ1KO2FDPED2SXZM49Y19", "dateTime": 1516125471434}, {"current_trial": 64, "trialdata": {"rt": -1000, "trial_type": "single-audio", "word": "turnip", "stimulus": "/static/audio/wordpool/TURNIP.wav", "conditions": [18, 1200, "a", 18000], "internal_node_id": "0.0-46.0", "trial": 1, "time_elapsed": 307828, "serialpos": 9, "key_press": -1, "wordID": 1520, "type": "PRES_AUD", "trial_index": 64}, "uniqueid": "MTK1672:3HMVI3QICKZ1KO2FDPED2SXZM49Y19", "dateTime": 1516125473588}, {"current_trial": 65, "trialdata": {"rt": -1000, "trial_type": "single-audio", "word": "agent", "stimulus": "/static/audio/wordpool/AGENT.wav", "conditions": [18, 1200, "a", 18000], "internal_node_id": "0.0-47.0", "trial": 1, "time_elapsed": 310068, "serialpos": 10, "key_press": -1, "wordID": 9, "type": "PRES_AUD", "trial_index": 65}, "uniqueid": "MTK1672:3HMVI3QICKZ1KO2FDPED2SXZM49Y19", "dateTime": 1516125475828}, {"current_trial": 66, "trialdata": {"rt": -1000, "trial_type": "single-audio", "word": "shark", "stimulus": "/static/audio/wordpool/SHARK.wav", "conditions": [18, 1200, "a", 18000], "internal_node_id": "0.0-48.0", "trial": 1, "time_elapsed": 312107, "serialpos": 11, "key_press": -1, "wordID": 1274, "type": "PRES_AUD", "trial_index": 66}, "uniqueid": "MTK1672:3HMVI3QICKZ1KO2FDPED2SXZM49Y19", "dateTime": 1516125477867}, {"current_trial": 67, "trialdata": {"rt": -1000, "trial_type": "single-audio", "word": "cod", "stimulus": "/static/audio/wordpool/COD.wav", "conditions": [18, 1200, "a", 18000], "internal_node_id": "0.0-49.0", "trial": 1, "time_elapsed": 314382, "serialpos": 12, "key_press": -1, "wordID": 339, "type": "PRES_AUD", "trial_index": 67}, "uniqueid": "MTK1672:3HMVI3QICKZ1KO2FDPED2SXZM49Y19", "dateTime": 1516125480142}, {"current_trial": 68, "trialdata": {"rt": -1000, "trial_type": "single-audio", "word": "message", "stimulus": "/static/audio/wordpool/MESSAGE.wav", "conditions": [18, 1200, "a", 18000], "internal_node_id": "0.0-50.0", "trial": 1, "time_elapsed": 316647, "serialpos": 13, "key_press": -1, "wordID": 887, "type": "PRES_AUD", "trial_index": 68}, "uniqueid": "MTK1672:3HMVI3QICKZ1KO2FDPED2SXZM49Y19", "dateTime": 1516125482409}, {"current_trial": 69, "trialdata": {"rt": -1000, "trial_type": "single-audio", "word": "crater", "stimulus": "/static/audio/wordpool/CRATER.wav", "conditions": [18, 1200, "a", 18000], "internal_node_id": "0.0-51.0", "trial": 1, "time_elapsed": 318807, "serialpos": 14, "key_press": -1, "wordID": 399, "type": "PRES_AUD", "trial_index": 69}, "uniqueid": "MTK1672:3HMVI3QICKZ1KO2FDPED2SXZM49Y19", "dateTime": 1516125484567}, {"current_trial": 70, "trialdata": {"rt": -1000, "trial_type": "single-audio", "word": "survey", "stimulus": "/static/audio/wordpool/SURVEY.wav", "conditions": [18, 1200, "a", 18000], "internal_node_id": "0.0-52.0", "trial": 1, "time_elapsed": 320967, "serialpos": 15, "key_press": -1, "wordID": 1413, "type": "PRES_AUD", "trial_index": 70}, "uniqueid": "MTK1672:3HMVI3QICKZ1KO2FDPED2SXZM49Y19", "dateTime": 1516125486728}, {"current_trial": 71, "trialdata": {"rt": -1000, "trial_type": "single-audio", "word": "gallon", "stimulus": "/static/audio/wordpool/GALLON.wav", "conditions": [18, 1200, "a", 18000], "internal_node_id": "0.0-53.0", "trial": 1, "time_elapsed": 322986, "serialpos": 16, "key_press": -1, "wordID": 617, "type": "PRES_AUD", "trial_index": 71}, "uniqueid": "MTK1672:3HMVI3QICKZ1KO2FDPED2SXZM49Y19", "dateTime": 1516125488746}, {"current_trial": 72, "trialdata": {"rt": -1000, "trial_type": "single-audio", "word": "perfume", "stimulus": "/static/audio/wordpool/PERFUME.wav", "conditions": [18, 1200, "a", 18000], "internal_node_id": "0.0-54.0", "trial": 1, "time_elapsed": 325110, "serialpos": 17, "key_press": -1, "wordID": 1048, "type": "PRES_AUD", "trial_index": 72}, "uniqueid": "MTK1672:3HMVI3QICKZ1KO2FDPED2SXZM49Y19", "dateTime": 1516125490870}, {"current_trial": 73, "trialdata": {"rt": -1, "trial_type": "single-stim", "stimulus": "", "internal_node_id": "0.0-55.0-0.0", "time_elapsed": 326378, "key_press": -1, "type": "PRE_RECALL_DELAY", "trial_index": 73}, "uniqueid": "MTK1672:3HMVI3QICKZ1KO2FDPED2SXZM49Y19", "dateTime": 1516125492138}, {"current_trial": 74, "trialdata": {"rt": -1000, "trial_type": "single-audio", "stimulus": "/static/audio/400Hz.wav", "internal_node_id": "0.0-56.0", "time_elapsed": 326880, "key_press": -1, "type": "PRE_RECALL_ALERT", "trial_index": 74}, "uniqueid": "MTK1672:3HMVI3QICKZ1KO2FDPED2SXZM49Y19", "dateTime": 1516125492640}, {"current_trial": 75, "trialdata": {"rt": [5443, 7411, 8899, 11179, 15491, 19043, 21371, 22812, 25571, 28539, 31067, 34715, 36203, 39155, 41540, 44403, 46659, 49067], "recwords": ["champagne", "trust", "finger", "sibling", "forrest", "whiskers", "cyclone", "fun", "fungus", "turnip", "agent", "shark", "cod", "message", "crater", "survey", "gallon", "perfume"], "key_times": [2934, 3003, 3099, 3259, 3517, 3677, 4516, 4645, 4916, 5443, 6125, 6267, 6403, 6620, 6795, 7411, 7820, 7955, 8051, 8235, 8491, 8556, 8899, 9115, 9235, 9491, 9971, 10131, 10251, 10492, 11179, 14213, 14332, 14476, 14636, 14828, 15036, 15180, 15491, 15755, 16276, 16452, 16629, 16787, 17316, 17539, 17739, 17779, 18580, 19043, 19844, 19955, 20204, 20340, 20540, 20804, 20908, 21371, 22468, 22644, 22804, 22812, 23067, 23780, 24085, 24467, 24652, 24973, 25091, 25211, 25571, 26597, 26780, 26924, 27507, 27660, 27916, 28539, 29339, 29756, 29860, 30172, 30395, 30516, 30636, 31067, 33716, 33836, 33940, 34076, 34244, 34715, 35643, 35755, 35980, 36203, 37269, 37563, 37804, 37916, 38084, 38261, 38373, 39155, 39877, 40253, 40645, 40859, 41101, 41164, 41540, 43212, 43412, 43564, 43780, 43931, 44085, 44403, 45381, 45611, 45908, 46028, 46189, 46269, 46659, 47660, 47972, 48027, 48197, 48291, 48595, 48685, 49067], "trial_type": "free-recall", "conditions": [18, 1200, "a", 18000], "internal_node_id": "0.0-57.0-0.0", "key_presses": [67, 72, 65, 77, 80, 65, 71, 78, 69, 13, 84, 82, 85, 83, 84, 13, 70, 73, 78, 71, 69, 82, 13, 83, 73, 66, 76, 73, 78, 71, 13, 70, 79, 82, 82, 69, 83, 84, 13, 87, 72, 73, 83, 84, 8, 75, 69, 82, 83, 13, 67, 89, 67, 76, 79, 78, 69, 13, 70, 85, 78, 32, 71, 8, 70, 85, 78, 71, 85, 83, 13, 84, 85, 82, 78, 73, 80, 13, 71, 8, 65, 71, 69, 78, 84, 13, 83, 72, 65, 82, 75, 13, 67, 79, 68, 13, 77, 69, 83, 83, 65, 71, 69, 13, 67, 82, 65, 84, 69, 82, 13, 83, 85, 82, 86, 69, 89, 13, 71, 65, 76, 76, 79, 78, 13, 80, 69, 82, 70, 85, 77, 69, 13], "trial": 1, "time_elapsed": 386885, "type": "FREE_RECALL", "trial_index": 75}, "uniqueid": "MTK1672:3HMVI3QICKZ1KO2FDPED2SXZM49Y19", "dateTime": 1516125552649}, {"current_trial": 76, "trialdata": {"rt": 7339, "trial_type": "text", "internal_node_id": "0.0-58.0", "time_elapsed": 396230, "key_press": 13, "type": "INSTRUCTIONS", "trial_index": 76}, "uniqueid": "MTK1672:3HMVI3QICKZ1KO2FDPED2SXZM49Y19", "dateTime": 1516125561990}, {"current_trial": 77, "trialdata": {"rt": [2917, 5245, 8397, 10445], "trial_type": "math-distractor", "key_times": [2389, 2622, 2917, 4815, 4958, 5245, 7903, 8078, 8397, 10086, 10150, 10445], "responses": ["17", "14", "19", "16"], "num2": [6, 9, 8, 2, 5], "num3": [3, 2, 7, 6, 7], "conditions": [12, 800, "a", 12000], "internal_node_id": "0.0-59.0", "key_presses": [97, 103, 13, 97, 100, 13, 97, 105, 13, 97, 102, 13], "trial": 2, "time_elapsed": 409234, "type": "DISTRACTOR", "trial_index": 77, "num1": [8, 3, 4, 8, 8]}, "uniqueid": "MTK1672:3HMVI3QICKZ1KO2FDPED2SXZM49Y19", "dateTime": 1516125574994}, {"current_trial": 78, "trialdata": {"rt": -1, "trial_type": "single-stim", "stimulus": "<p id=\"stim\">10</p>", "internal_node_id": "0.0-60.0-0.0", "time_elapsed": 412236, "key_press": -1, "trial_index": 78}, "uniqueid": "MTK1672:3HMVI3QICKZ1KO2FDPED2SXZM49Y19", "dateTime": 1516125577996}, {"current_trial": 79, "trialdata": {"rt": -1, "trial_type": "single-stim", "stimulus": "<p id=\"stim\">9</p>", "internal_node_id": "0.0-60.0-1.0", "time_elapsed": 413238, "key_press": -1, "trial_index": 79}, "uniqueid": "MTK1672:3HMVI3QICKZ1KO2FDPED2SXZM49Y19", "dateTime": 1516125578998}, {"current_trial": 80, "trialdata": {"rt": -1, "trial_type": "single-stim", "stimulus": "<p id=\"stim\">8</p>", "internal_node_id": "0.0-60.0-2.0", "time_elapsed": 414240, "key_press": -1, "trial_index": 80}, "uniqueid": "MTK1672:3HMVI3QICKZ1KO2FDPED2SXZM49Y19", "dateTime": 1516125580000}, {"current_trial": 81, "trialdata": {"rt": -1, "trial_type": "single-stim", "stimulus": "<p id=\"stim\">7</p>", "internal_node_id": "0.0-60.0-3.0", "time_elapsed": 415242, "key_press": -1, "trial_index": 81}, "uniqueid": "MTK1672:3HMVI3QICKZ1KO2FDPED2SXZM49Y19", "dateTime": 1516125581002}, {"current_trial": 82, "trialdata": {"rt": -1, "trial_type": "single-stim", "stimulus": "<p id=\"stim\">6</p>", "internal_node_id": "0.0-60.0-4.0", "time_elapsed": 416243, "key_press": -1, "trial_index": 82}, "uniqueid": "MTK1672:3HMVI3QICKZ1KO2FDPED2SXZM49Y19", "dateTime": 1516125582003}, {"current_trial": 83, "trialdata": {"rt": -1, "trial_type": "single-stim", "stimulus": "<p id=\"stim\">5</p>", "internal_node_id": "0.0-60.0-5.0", "time_elapsed": 417245, "key_press": -1, "trial_index": 83}, "uniqueid": "MTK1672:3HMVI3QICKZ1KO2FDPED2SXZM49Y19", "dateTime": 1516125583005}, {"current_trial": 84, "trialdata": {"rt": -1, "trial_type": "single-stim", "stimulus": "<p id=\"stim\">4</p>", "internal_node_id": "0.0-60.0-6.0", "time_elapsed": 418246, "key_press": -1, "trial_index": 84}, "uniqueid": "MTK1672:3HMVI3QICKZ1KO2FDPED2SXZM49Y19", "dateTime": 1516125584006}, {"current_trial": 85, "trialdata": {"rt": -1, "trial_type": "single-stim", "stimulus": "<p id=\"stim\">3</p>", "internal_node_id": "0.0-60.0-7.0", "time_elapsed": 419249, "key_press": -1, "trial_index": 85}, "uniqueid": "MTK1672:3HMVI3QICKZ1KO2FDPED2SXZM49Y19", "dateTime": 1516125585009}, {"current_trial": 86, "trialdata": {"rt": -1, "trial_type": "single-stim", "stimulus": "<p id=\"stim\">2</p>", "internal_node_id": "0.0-60.0-8.0", "time_elapsed": 420250, "key_press": -1, "trial_index": 86}, "uniqueid": "MTK1672:3HMVI3QICKZ1KO2FDPED2SXZM49Y19", "dateTime": 1516125586010}, {"current_trial": 87, "trialdata": {"rt": -1, "trial_type": "single-stim", "stimulus": "<p id=\"stim\">1</p>", "internal_node_id": "0.0-60.0-9.0", "time_elapsed": 421252, "key_press": -1, "trial_index": 87}, "uniqueid": "MTK1672:3HMVI3QICKZ1KO2FDPED2SXZM49Y19", "dateTime": 1516125587012}, {"current_trial": 88, "trialdata": {"rt": -1, "trial_type": "single-stim", "stimulus": "<p id=\"stim\">+</p>", "internal_node_id": "0.0-61.0-0.0", "time_elapsed": 422754, "key_press": -1, "type": "FIXATION", "trial_index": 88}, "uniqueid": "MTK1672:3HMVI3QICKZ1KO2FDPED2SXZM49Y19", "dateTime": 1516125588514}, {"current_trial": 89, "trialdata": {"rt": -1000, "trial_type": "single-audio", "word": "blender", "stimulus": "/static/audio/wordpool/BLENDER.wav", "conditions": [12, 800, "a", 12000], "internal_node_id": "0.0-62.0", "trial": 2, "time_elapsed": 424359, "serialpos": 0, "key_press": -1, "wordID": 135, "type": "PRES_AUD", "trial_index": 89}, "uniqueid": "MTK1672:3HMVI3QICKZ1KO2FDPED2SXZM49Y19", "dateTime": 1516125590119}, {"current_trial": 90, "trialdata": {"rt": -1000, "trial_type": "single-audio", "word": "fragrance", "stimulus": "/static/audio/wordpool/FRAGRANCE.wav", "conditions": [12, 800, "a", 12000], "internal_node_id": "0.0-63.0", "trial": 2, "time_elapsed": 426053, "serialpos": 1, "key_press": -1, "wordID": 598, "type": "PRES_AUD", "trial_index": 90}, "uniqueid": "MTK1672:3HMVI3QICKZ1KO2FDPED2SXZM49Y19", "dateTime": 1516125591813}, {"current_trial": 91, "trialdata": {"rt": -1000, "trial_type": "single-audio", "word": "knapsack", "stimulus": "/static/audio/wordpool/KNAPSACK.wav", "conditions": [12, 800, "a", 12000], "internal_node_id": "0.0-64.0", "trial": 2, "time_elapsed": 428012, "serialpos": 2, "key_press": -1, "wordID": 782, "type": "PRES_AUD", "trial_index": 91}, "uniqueid": "MTK1672:3HMVI3QICKZ1KO2FDPED2SXZM49Y19", "dateTime": 1516125593772}, {"current_trial": 92, "trialdata": {"rt": -1000, "trial_type": "single-audio", "word": "gangster", "stimulus": "/static/audio/wordpool/GANGSTER.wav", "conditions": [12, 800, "a", 12000], "internal_node_id": "0.0-65.0", "trial": 2, "time_elapsed": 429809, "serialpos": 3, "key_press": -1, "wordID": 619, "type": "PRES_AUD", "trial_index": 92}, "uniqueid": "MTK1672:3HMVI3QICKZ1KO2FDPED2SXZM49Y19", "dateTime": 1516125595569}, {"current_trial": 93, "trialdata": {"rt": -1000, "trial_type": "single-audio", "word": "lady", "stimulus": "/static/audio/wordpool/LADY.wav", "conditions": [12, 800, "a", 12000], "internal_node_id": "0.0-66.0", "trial": 2, "time_elapsed": 431792, "serialpos": 4, "key_press": -1, "wordID": 793, "type": "PRES_AUD", "trial_index": 93}, "uniqueid": "MTK1672:3HMVI3QICKZ1KO2FDPED2SXZM49Y19", "dateTime": 1516125597552}, {"current_trial": 94, "trialdata": {"rt": -1000, "trial_type": "single-audio", "word": "paper", "stimulus": "/static/audio/wordpool/PAPER.wav", "conditions": [12, 800, "a", 12000], "internal_node_id": "0.0-67.0", "trial": 2, "time_elapsed": 433415, "serialpos": 5, "key_press": -1, "wordID": 1010, "type": "PRES_AUD", "trial_index": 94}, "uniqueid": "MTK1672:3HMVI3QICKZ1KO2FDPED2SXZM49Y19", "dateTime": 1516125599175}, {"current_trial": 95, "trialdata": {"rt": -1000, "trial_type": "single-audio", "word": "seafood", "stimulus": "/static/audio/wordpool/SEAFOOD.wav", "conditions": [12, 800, "a", 12000], "internal_node_id": "0.0-68.0", "trial": 2, "time_elapsed": 435386, "serialpos": 6, "key_press": -1, "wordID": 1259, "type": "PRES_AUD", "trial_index": 95}, "uniqueid": "MTK1672:3HMVI3QICKZ1KO2FDPED2SXZM49Y19", "dateTime": 1516125601146}, {"current_trial": 96, "trialdata": {"rt": -1000, "trial_type": "single-audio", "word": "virus", "stimulus": "/static/audio/wordpool/VIRUS.wav", "conditions": [12, 800, "a", 12000], "internal_node_id": "0.0-69.0", "trial": 2, "time_elapsed": 437090, "serialpos": 7, "key_press": -1, "wordID": 1571, "type": "PRES_AUD", "trial_index": 96}, "uniqueid": "MTK1672:3HMVI3QICKZ1KO2FDPED2SXZM49Y19", "dateTime": 1516125602850}, {"current_trial": 97, "trialdata": {"rt": -1000, "trial_type": "single-audio", "word": "salmon", "stimulus": "/static/audio/wordpool/SALMON.wav", "conditions": [12, 800, "a", 12000], "internal_node_id": "0.0-70.0", "trial": 2, "time_elapsed": 439035, "serialpos": 8, "key_press": -1, "wordID": 1226, "type": "PRES_AUD", "trial_index": 97}, "uniqueid": "MTK1672:3HMVI3QICKZ1KO2FDPED2SXZM49Y19", "dateTime": 1516125604795}, {"current_trial": 98, "trialdata": {"rt": -1000, "trial_type": "single-audio", "word": "oyster", "stimulus": "/static/audio/wordpool/OYSTER.wav", "conditions": [12, 800, "a", 12000], "internal_node_id": "0.0-71.0", "trial": 2, "time_elapsed": 440773, "serialpos": 9, "key_press": -1, "wordID": 994, "type": "PRES_AUD", "trial_index": 98}, "uniqueid": "MTK1672:3HMVI3QICKZ1KO2FDPED2SXZM49Y19", "dateTime": 1516125606533}, {"current_trial": 99, "trialdata": {"rt": -1000, "trial_type": "single-audio", "word": "trombone", "stimulus": "/static/audio/wordpool/TROMBONE.wav", "conditions": [12, 800, "a", 12000], "internal_node_id": "0.0-72.0", "trial": 2, "time_elapsed": 442732, "serialpos": 10, "key_press": -1, "wordID": 1507, "type": "PRES_AUD", "trial_index": 99}, "uniqueid": "MTK1672:3HMVI3QICKZ1KO2FDPED2SXZM49Y19", "dateTime": 1516125608492}, {"current_trial": 100, "trialdata": {"rt": -1000, "trial_type": "single-audio", "word": "skillet", "stimulus": "/static/audio/wordpool/SKILLET.wav", "conditions": [12, 800, "a", 12000], "internal_node_id": "0.0-73.0", "trial": 2, "time_elapsed": 444378, "serialpos": 11, "key_press": -1, "wordID": 1316, "type": "PRES_AUD", "trial_index": 100}, "uniqueid": "MTK1672:3HMVI3QICKZ1KO2FDPED2SXZM49Y19", "dateTime": 1516125610138}, {"current_trial": 101, "trialdata": {"rt": -1, "trial_type": "single-stim", "stimulus": "", "internal_node_id": "0.0-74.0-0.0", "time_elapsed": 445698, "key_press": -1, "type": "PRE_RECALL_DELAY", "trial_index": 101}, "uniqueid": "MTK1672:3HMVI3QICKZ1KO2FDPED2SXZM49Y19", "dateTime": 1516125611458}, {"current_trial": 102, "trialdata": {"rt": -1000, "trial_type": "single-audio", "stimulus": "/static/audio/400Hz.wav", "internal_node_id": "0.0-75.0", "time_elapsed": 446200, "key_press": -1, "type": "PRE_RECALL_ALERT", "trial_index": 102}, "uniqueid": "MTK1672:3HMVI3QICKZ1KO2FDPED2SXZM49Y19", "dateTime": 1516125611960}, {"current_trial": 103, "trialdata": {"rt": [4116, 7228, 9292, 11748, 14189, 16644, 18076, 23228, 31092], "recwords": ["skillet", "trombone", "oyster", "salmon", "seafood", "paper", "lady", "fragrance", "seafood"], "key_times": [2783, 2917, 3068, 3317, 3414, 3685, 3805, 4116, 4789, 4917, 5365, 5525, 5805, 5933, 6221, 6317, 7228, 7734, 7932, 8413, 8589, 8846, 8902, 9292, 9877, 10310, 10384, 10558, 10718, 10949, 11149, 11205, 11748, 12421, 12558, 12710, 13293, 13509, 13653, 13773, 14189, 15413, 15524, 15701, 15981, 16045, 16644, 17260, 17348, 17556, 17716, 18076, 21405, 21540, 21709, 21997, 22172, 22365, 22518, 22693, 22910, 23228, 24277, 26533, 29453, 29685, 29829, 30180, 30437, 30549, 30670, 31092], "trial_type": "free-recall", "conditions": [12, 800, "a", 12000], "internal_node_id": "0.0-76.0-0.0", "key_presses": [83, 75, 73, 76, 76, 69, 84, 13, 84, 82, 79, 77, 66, 79, 78, 69, 13, 79, 89, 83, 84, 69, 82, 13, 68, 8, 83, 65, 76, 77, 79, 78, 13, 83, 69, 65, 70, 79, 79, 68, 13, 80, 65, 80, 69, 82, 13, 76, 65, 68, 89, 13, 70, 82, 65, 71, 82, 65, 78, 67, 69, 13, 83, 8, 83, 69, 65, 70, 79, 79, 68, 13], "trial": 2, "time_elapsed": 506204, "type": "FREE_RECALL", "trial_index": 103}, "uniqueid": "MTK1672:3HMVI3QICKZ1KO2FDPED2SXZM49Y19", "dateTime": 1516125671966}, {"current_trial": 104, "trialdata": {"rt": 2942, "trial_type": "text", "internal_node_id": "0.0-77.0", "time_elapsed": 511150, "key_press": 13, "type": "INSTRUCTIONS", "trial_index": 104}, "uniqueid": "MTK1672:3HMVI3QICKZ1KO2FDPED2SXZM49Y19", "dateTime": 1516125676910}, {"current_trial": 105, "trialdata": {"rt": [2566, 4118, 7726, 9862, 11390, 13654, 16215, 18614, 21358], "trial_type": "math-distractor", "key_times": [2062, 2278, 2566, 3855, 4118, 7159, 7408, 7726, 9478, 9663, 9862, 11102, 11390, 13206, 13328, 13654, 15830, 15975, 16215, 18152, 18303, 18614, 20974, 21136, 21358], "responses": ["17", "5", "16", "16", "9", "15", "21", "18", "23"], "num2": [8, 2, 4, 2, 4, 3, 8, 9, 9, 4], "num3": [2, 1, 3, 5, 1, 6, 6, 3, 7, 1], "conditions": [12, 1600, "a", 24000], "internal_node_id": "0.0-78.0", "key_presses": [97, 103, 13, 101, 13, 97, 102, 13, 97, 102, 13, 105, 13, 97, 101, 13, 98, 97, 13, 97, 104, 13, 98, 99, 13], "trial": 3, "time_elapsed": 537154, "type": "DISTRACTOR", "trial_index": 105, "num1": [7, 2, 9, 9, 4, 6, 7, 6, 7, 7]}, "uniqueid": "MTK1672:3HMVI3QICKZ1KO2FDPED2SXZM49Y19", "dateTime": 1516125702914}, {"current_trial": 106, "trialdata": {"rt": -1, "trial_type": "single-stim", "stimulus": "<p id=\"stim\">10</p>", "internal_node_id": "0.0-79.0-0.0", "time_elapsed": 540157, "key_press": -1, "trial_index": 106}, "uniqueid": "MTK1672:3HMVI3QICKZ1KO2FDPED2SXZM49Y19", "dateTime": 1516125705917}, {"current_trial": 107, "trialdata": {"rt": -1, "trial_type": "single-stim", "stimulus": "<p id=\"stim\">9</p>", "internal_node_id": "0.0-79.0-1.0", "time_elapsed": 541160, "key_press": -1, "trial_index": 107}, "uniqueid": "MTK1672:3HMVI3QICKZ1KO2FDPED2SXZM49Y19", "dateTime": 1516125706920}, {"current_trial": 108, "trialdata": {"rt": -1, "trial_type": "single-stim", "stimulus": "<p id=\"stim\">8</p>", "internal_node_id": "0.0-79.0-2.0", "time_elapsed": 542162, "key_press": -1, "trial_index": 108}, "uniqueid": "MTK1672:3HMVI3QICKZ1KO2FDPED2SXZM49Y19", "dateTime": 1516125707922}, {"current_trial": 109, "trialdata": {"rt": -1, "trial_type": "single-stim", "stimulus": "<p id=\"stim\">7</p>", "internal_node_id": "0.0-79.0-3.0", "time_elapsed": 543163, "key_press": -1, "trial_index": 109}, "uniqueid": "MTK1672:3HMVI3QICKZ1KO2FDPED2SXZM49Y19", "dateTime": 1516125708923}, {"current_trial": 110, "trialdata": {"rt": -1, "trial_type": "single-stim", "stimulus": "<p id=\"stim\">6</p>", "internal_node_id": "0.0-79.0-4.0", "time_elapsed": 544165, "key_press": -1, "trial_index": 110}, "uniqueid": "MTK1672:3HMVI3QICKZ1KO2FDPED2SXZM49Y19", "dateTime": 1516125709925}, {"current_trial": 111, "trialdata": {"rt": -1, "trial_type": "single-stim", "stimulus": "<p id=\"stim\">5</p>", "internal_node_id": "0.0-79.0-5.0", "time_elapsed": 545166, "key_press": -1, "trial_index": 111}, "uniqueid": "MTK1672:3HMVI3QICKZ1KO2FDPED2SXZM49Y19", "dateTime": 1516125710926}, {"current_trial": 112, "trialdata": {"rt": -1, "trial_type": "single-stim", "stimulus": "<p id=\"stim\">4</p>", "internal_node_id": "0.0-79.0-6.0", "time_elapsed": 546168, "key_press": -1, "trial_index": 112}, "uniqueid": "MTK1672:3HMVI3QICKZ1KO2FDPED2SXZM49Y19", "dateTime": 1516125711928}, {"current_trial": 113, "trialdata": {"rt": -1, "trial_type": "single-stim", "stimulus": "<p id=\"stim\">3</p>", "internal_node_id": "0.0-79.0-7.0", "time_elapsed": 547171, "key_press": -1, "trial_index": 113}, "uniqueid": "MTK1672:3HMVI3QICKZ1KO2FDPED2SXZM49Y19", "dateTime": 1516125712931}, {"current_trial": 114, "trialdata": {"rt": -1, "trial_type": "single-stim", "stimulus": "<p id=\"stim\">2</p>", "internal_node_id": "0.0-79.0-8.0", "time_elapsed": 548172, "key_press": -1, "trial_index": 114}, "uniqueid": "MTK1672:3HMVI3QICKZ1KO2FDPED2SXZM49Y19", "dateTime": 1516125713932}, {"current_trial": 115, "trialdata": {"rt": -1, "trial_type": "single-stim", "stimulus": "<p id=\"stim\">1</p>", "internal_node_id": "0.0-79.0-9.0", "time_elapsed": 549174, "key_press": -1, "trial_index": 115}, "uniqueid": "MTK1672:3HMVI3QICKZ1KO2FDPED2SXZM49Y19", "dateTime": 1516125714934}, {"current_trial": 116, "trialdata": {"rt": -1, "trial_type": "single-stim", "stimulus": "<p id=\"stim\">+</p>", "internal_node_id": "0.0-80.0-0.0", "time_elapsed": 550675, "key_press": -1, "type": "FIXATION", "trial_index": 116}, "uniqueid": "MTK1672:3HMVI3QICKZ1KO2FDPED2SXZM49Y19", "dateTime": 1516125716435}, {"current_trial": 117, "trialdata": {"rt": -1000, "trial_type": "single-audio", "word": "sculpture", "stimulus": "/static/audio/wordpool/SCULPTURE.wav", "conditions": [12, 1600, "a", 24000], "internal_node_id": "0.0-81.0", "trial": 3, "time_elapsed": 553290, "serialpos": 0, "key_press": -1, "wordID": 1257, "type": "PRES_AUD", "trial_index": 117}, "uniqueid": "MTK1672:3HMVI3QICKZ1KO2FDPED2SXZM49Y19", "dateTime": 1516125719050}, {"current_trial": 118, "trialdata": {"rt": -1000, "trial_type": "single-audio", "word": "statue", "stimulus": "/static/audio/wordpool/STATUE.wav", "conditions": [12, 1600, "a", 24000], "internal_node_id": "0.0-82.0", "trial": 3, "time_elapsed": 556076, "serialpos": 1, "key_press": -1, "wordID": 1373, "type": "PRES_AUD", "trial_index": 118}, "uniqueid": "MTK1672:3HMVI3QICKZ1KO2FDPED2SXZM49Y19", "dateTime": 1516125721836}, {"current_trial": 119, "trialdata": {"rt": -1000, "trial_type": "single-audio", "word": "fireplace", "stimulus": "/static/audio/wordpool/FIREPLACE.wav", "conditions": [12, 1600, "a", 24000], "internal_node_id": "0.0-83.0", "trial": 3, "time_elapsed": 558711, "serialpos": 2, "key_press": -1, "wordID": 569, "type": "PRES_AUD", "trial_index": 119}, "uniqueid": "MTK1672:3HMVI3QICKZ1KO2FDPED2SXZM49Y19", "dateTime": 1516125724471}, {"current_trial": 120, "trialdata": {"rt": -1000, "trial_type": "single-audio", "word": "fox", "stimulus": "/static/audio/wordpool/FOX.wav", "conditions": [12, 1600, "a", 24000], "internal_node_id": "0.0-84.0", "trial": 3, "time_elapsed": 561451, "serialpos": 3, "key_press": -1, "wordID": 597, "type": "PRES_AUD", "trial_index": 120}, "uniqueid": "MTK1672:3HMVI3QICKZ1KO2FDPED2SXZM49Y19", "dateTime": 1516125727211}, {"current_trial": 121, "trialdata": {"rt": -1000, "trial_type": "single-audio", "word": "mask", "stimulus": "/static/audio/wordpool/MASK.wav", "conditions": [12, 1600, "a", 24000], "internal_node_id": "0.0-85.0", "trial": 3, "time_elapsed": 564223, "serialpos": 4, "key_press": -1, "wordID": 875, "type": "PRES_AUD", "trial_index": 121}, "uniqueid": "MTK1672:3HMVI3QICKZ1KO2FDPED2SXZM49Y19", "dateTime": 1516125729985}, {"current_trial": 122, "trialdata": {"rt": -1000, "trial_type": "single-audio", "word": "tribe", "stimulus": "/static/audio/wordpool/TRIBE.wav", "conditions": [12, 1600, "a", 24000], "internal_node_id": "0.0-86.0", "trial": 3, "time_elapsed": 566687, "serialpos": 5, "key_press": -1, "wordID": 1504, "type": "PRES_AUD", "trial_index": 122}, "uniqueid": "MTK1672:3HMVI3QICKZ1KO2FDPED2SXZM49Y19", "dateTime": 1516125732447}, {"current_trial": 123, "trialdata": {"rt": -1000, "trial_type": "single-audio", "word": "france", "stimulus": "/static/audio/wordpool/FRANCE.wav", "conditions": [12, 1600, "a", 24000], "internal_node_id": "0.0-87.0", "trial": 3, "time_elapsed": 569273, "serialpos": 6, "key_press": -1, "wordID": 600, "type": "PRES_AUD", "trial_index": 123}, "uniqueid": "MTK1672:3HMVI3QICKZ1KO2FDPED2SXZM49Y19", "dateTime": 1516125735033}, {"current_trial": 124, "trialdata": {"rt": -1000, "trial_type": "single-audio", "word": "bike", "stimulus": "/static/audio/wordpool/BIKE.wav", "conditions": [12, 1600, "a", 24000], "internal_node_id": "0.0-88.0", "trial": 3, "time_elapsed": 571742, "serialpos": 7, "key_press": -1, "wordID": 124, "type": "PRES_AUD", "trial_index": 124}, "uniqueid": "MTK1672:3HMVI3QICKZ1KO2FDPED2SXZM49Y19", "dateTime": 1516125737502}, {"current_trial": 125, "trialdata": {"rt": -1000, "trial_type": "single-audio", "word": "doughnut", "stimulus": "/static/audio/wordpool/DOUGHNUT.wav", "conditions": [12, 1600, "a", 24000], "internal_node_id": "0.0-89.0", "trial": 3, "time_elapsed": 574347, "serialpos": 8, "key_press": -1, "wordID": 489, "type": "PRES_AUD", "trial_index": 125}, "uniqueid": "MTK1672:3HMVI3QICKZ1KO2FDPED2SXZM49Y19", "dateTime": 1516125740107}, {"current_trial": 126, "trialdata": {"rt": -1000, "trial_type": "single-audio", "word": "europe", "stimulus": "/static/audio/wordpool/EUROPE.wav", "conditions": [12, 1600, "a", 24000], "internal_node_id": "0.0-90.0", "trial": 3, "time_elapsed": 576846, "serialpos": 9, "key_press": -1, "wordID": 540, "type": "PRES_AUD", "trial_index": 126}, "uniqueid": "MTK1672:3HMVI3QICKZ1KO2FDPED2SXZM49Y19", "dateTime": 1516125742606}, {"current_trial": 127, "trialdata": {"rt": -1000, "trial_type": "single-audio", "word": "mars", "stimulus": "/static/audio/wordpool/MARS.wav", "conditions": [12, 1600, "a", 24000], "internal_node_id": "0.0-91.0", "trial": 3, "time_elapsed": 579278, "serialpos": 10, "key_press": -1, "wordID": 872, "type": "PRES_AUD", "trial_index": 127}, "uniqueid": "MTK1672:3HMVI3QICKZ1KO2FDPED2SXZM49Y19", "dateTime": 1516125745038}, {"current_trial": 128, "trialdata": {"rt": -1000, "trial_type": "single-audio", "word": "rifle", "stimulus": "/static/audio/wordpool/RIFLE.wav", "conditions": [12, 1600, "a", 24000], "internal_node_id": "0.0-92.0", "trial": 3, "time_elapsed": 581693, "serialpos": 11, "key_press": -1, "wordID": 1191, "type": "PRES_AUD", "trial_index": 128}, "uniqueid": "MTK1672:3HMVI3QICKZ1KO2FDPED2SXZM49Y19", "dateTime": 1516125747453}, {"current_trial": 129, "trialdata": {"rt": -1, "trial_type": "single-stim", "stimulus": "", "internal_node_id": "0.0-93.0-0.0", "time_elapsed": 583043, "key_press": -1, "type": "PRE_RECALL_DELAY", "trial_index": 129}, "uniqueid": "MTK1672:3HMVI3QICKZ1KO2FDPED2SXZM49Y19", "dateTime": 1516125748803}, {"current_trial": 130, "trialdata": {"rt": -1000, "trial_type": "single-audio", "stimulus": "/static/audio/400Hz.wav", "internal_node_id": "0.0-94.0", "time_elapsed": 583544, "key_press": -1, "type": "PRE_RECALL_ALERT", "trial_index": 130}, "uniqueid": "MTK1672:3HMVI3QICKZ1KO2FDPED2SXZM49Y19", "dateTime": 1516125749304}, {"current_trial": 131, "trialdata": {"rt": [4076, 5740, 8244, 10436, 11620, 12941, 14269, 16028, 16997, 19221, 23092, 42005], "recwords": ["rifle", "mars", "europe", "donut", "bike", "france", "trigbe", "mask", "fox", "fireplace", "statue", "sculpture"], "key_times": [2964, 3125, 3356, 3596, 3772, 4076, 4684, 4796, 4948, 5284, 5740, 6572, 6796, 7148, 7436, 7652, 7868, 8244, 9294, 9485, 9726, 9934, 10126, 10436, 10942, 11070, 11270, 11382, 11620, 11926, 12062, 12212, 12364, 12484, 12677, 12941, 13261, 13396, 13621, 13797, 13807, 14013, 14269, 14861, 15309, 15509, 15732, 16028, 16388, 16542, 16725, 16997, 17316, 17462, 17574, 17948, 18245, 18476, 18565, 18797, 18997, 19221, 20477, 20820, 20949, 21204, 21364, 21492, 21581, 22094, 22182, 22429, 23092, 36015, 36228, 36510, 36781, 37230, 37485, 37702, 37885, 38149, 38388, 38494, 38606, 39054, 39606, 39773, 39942, 40150, 40269, 41142, 41310, 41470, 41684, 41790, 42005], "trial_type": "free-recall", "conditions": [12, 1600, "a", 24000], "internal_node_id": "0.0-95.0-0.0", "key_presses": [82, 73, 70, 76, 69, 13, 77, 65, 82, 83, 13, 69, 85, 82, 79, 80, 69, 13, 68, 79, 78, 85, 84, 13, 66, 73, 75, 69, 13, 70, 82, 65, 78, 67, 69, 13, 84, 82, 73, 71, 66, 69, 13, 77, 65, 83, 75, 13, 70, 79, 88, 13, 70, 73, 82, 69, 80, 76, 65, 67, 69, 13, 83, 84, 65, 84, 85, 82, 69, 8, 8, 69, 13, 83, 67, 85, 77, 8, 76, 80, 85, 84, 85, 82, 69, 187, 8, 8, 8, 8, 8, 8, 84, 85, 82, 69, 13], "trial": 3, "time_elapsed": 643546, "type": "FREE_RECALL", "trial_index": 131}, "uniqueid": "MTK1672:3HMVI3QICKZ1KO2FDPED2SXZM49Y19", "dateTime": 1516125809309}, {"current_trial": 132, "trialdata": {"rt": 1033, "trial_type": "text", "internal_node_id": "0.0-96.0", "time_elapsed": 646582, "key_press": 13, "type": "INSTRUCTIONS", "trial_index": 132}, "uniqueid": "MTK1672:3HMVI3QICKZ1KO2FDPED2SXZM49Y19", "dateTime": 1516125812342}, {"current_trial": 133, "trialdata": {"rt": [2557, 4909, 7284, 10781], "trial_type": "math-distractor", "key_times": [2222, 2310, 2557, 4596, 4909, 6838, 6974, 7284, 10359, 10534, 10781], "responses": ["13", "9", "20", "18"], "num2": [8, 4, 9, 6, 9], "num3": [2, 2, 4, 3, 3], "conditions": [12, 1600, "a", 12000], "internal_node_id": "0.0-97.0", "key_presses": [97, 99, 13, 105, 13, 98, 96, 13, 97, 104, 13], "trial": 4, "time_elapsed": 660587, "type": "DISTRACTOR", "trial_index": 133, "num1": [3, 3, 7, 9, 3]}, "uniqueid": "MTK1672:3HMVI3QICKZ1KO2FDPED2SXZM49Y19", "dateTime": 1516125826347}, {"current_trial": 134, "trialdata": {"rt": -1, "trial_type": "single-stim", "stimulus": "<p id=\"stim\">10</p>", "internal_node_id": "0.0-98.0-0.0", "time_elapsed": 663588, "key_press": -1, "trial_index": 134}, "uniqueid": "MTK1672:3HMVI3QICKZ1KO2FDPED2SXZM49Y19", "dateTime": 1516125829348}, {"current_trial": 135, "trialdata": {"rt": -1, "trial_type": "single-stim", "stimulus": "<p id=\"stim\">9</p>", "internal_node_id": "0.0-98.0-1.0", "time_elapsed": 664589, "key_press": -1, "trial_index": 135}, "uniqueid": "MTK1672:3HMVI3QICKZ1KO2FDPED2SXZM49Y19", "dateTime": 1516125830349}, {"current_trial": 136, "trialdata": {"rt": -1, "trial_type": "single-stim", "stimulus": "<p id=\"stim\">8</p>", "internal_node_id": "0.0-98.0-2.0", "time_elapsed": 665591, "key_press": -1, "trial_index": 136}, "uniqueid": "MTK1672:3HMVI3QICKZ1KO2FDPED2SXZM49Y19", "dateTime": 1516125831351}, {"current_trial": 137, "trialdata": {"rt": -1, "trial_type": "single-stim", "stimulus": "<p id=\"stim\">7</p>", "internal_node_id": "0.0-98.0-3.0", "time_elapsed": 666593, "key_press": -1, "trial_index": 137}, "uniqueid": "MTK1672:3HMVI3QICKZ1KO2FDPED2SXZM49Y19", "dateTime": 1516125832353}, {"current_trial": 138, "trialdata": {"rt": -1, "trial_type": "single-stim", "stimulus": "<p id=\"stim\">6</p>", "internal_node_id": "0.0-98.0-4.0", "time_elapsed": 667594, "key_press": -1, "trial_index": 138}, "uniqueid": "MTK1672:3HMVI3QICKZ1KO2FDPED2SXZM49Y19", "dateTime": 1516125833354}, {"current_trial": 139, "trialdata": {"rt": -1, "trial_type": "single-stim", "stimulus": "<p id=\"stim\">5</p>", "internal_node_id": "0.0-98.0-5.0", "time_elapsed": 668595, "key_press": -1, "trial_index": 139}, "uniqueid": "MTK1672:3HMVI3QICKZ1KO2FDPED2SXZM49Y19", "dateTime": 1516125834355}, {"current_trial": 140, "trialdata": {"rt": -1, "trial_type": "single-stim", "stimulus": "<p id=\"stim\">4</p>", "internal_node_id": "0.0-98.0-6.0", "time_elapsed": 669598, "key_press": -1, "trial_index": 140}, "uniqueid": "MTK1672:3HMVI3QICKZ1KO2FDPED2SXZM49Y19", "dateTime": 1516125835358}, {"current_trial": 141, "trialdata": {"rt": -1, "trial_type": "single-stim", "stimulus": "<p id=\"stim\">3</p>", "internal_node_id": "0.0-98.0-7.0", "time_elapsed": 670599, "key_press": -1, "trial_index": 141}, "uniqueid": "MTK1672:3HMVI3QICKZ1KO2FDPED2SXZM49Y19", "dateTime": 1516125836359}, {"current_trial": 142, "trialdata": {"rt": -1, "trial_type": "single-stim", "stimulus": "<p id=\"stim\">2</p>", "internal_node_id": "0.0-98.0-8.0", "time_elapsed": 671600, "key_press": -1, "trial_index": 142}, "uniqueid": "MTK1672:3HMVI3QICKZ1KO2FDPED2SXZM49Y19", "dateTime": 1516125837360}, {"current_trial": 143, "trialdata": {"rt": -1, "trial_type": "single-stim", "stimulus": "<p id=\"stim\">1</p>", "internal_node_id": "0.0-98.0-9.0", "time_elapsed": 672601, "key_press": -1, "trial_index": 143}, "uniqueid": "MTK1672:3HMVI3QICKZ1KO2FDPED2SXZM49Y19", "dateTime": 1516125838361}, {"current_trial": 144, "trialdata": {"rt": -1, "trial_type": "single-stim", "stimulus": "<p id=\"stim\">+</p>", "internal_node_id": "0.0-99.0-0.0", "time_elapsed": 674102, "key_press": -1, "type": "FIXATION", "trial_index": 144}, "uniqueid": "MTK1672:3HMVI3QICKZ1KO2FDPED2SXZM49Y19", "dateTime": 1516125839862}, {"current_trial": 145, "trialdata": {"rt": -1000, "trial_type": "single-audio", "word": "friend", "stimulus": "/static/audio/wordpool/FRIEND.wav", "conditions": [12, 1600, "a", 12000], "internal_node_id": "0.0-100.0", "trial": 4, "time_elapsed": 676586, "serialpos": 0, "key_press": -1, "wordID": 605, "type": "PRES_AUD", "trial_index": 145}, "uniqueid": "MTK1672:3HMVI3QICKZ1KO2FDPED2SXZM49Y19", "dateTime": 1516125842346}, {"current_trial": 146, "trialdata": {"rt": -1000, "trial_type": "single-audio", "word": "beef", "stimulus": "/static/audio/wordpool/BEEF.wav", "conditions": [12, 1600, "a", 12000], "internal_node_id": "0.0-101.0", "trial": 4, "time_elapsed": 679051, "serialpos": 1, "key_press": -1, "wordID": 112, "type": "PRES_AUD", "trial_index": 146}, "uniqueid": "MTK1672:3HMVI3QICKZ1KO2FDPED2SXZM49Y19", "dateTime": 1516125844811}, {"current_trial": 147, "trialdata": {"rt": -1000, "trial_type": "single-audio", "word": "pudding", "stimulus": "/static/audio/wordpool/PUDDING.wav", "conditions": [12, 1600, "a", 12000], "internal_node_id": "0.0-102.0", "trial": 4, "time_elapsed": 681692, "serialpos": 2, "key_press": -1, "wordID": 1138, "type": "PRES_AUD", "trial_index": 147}, "uniqueid": "MTK1672:3HMVI3QICKZ1KO2FDPED2SXZM49Y19", "dateTime": 1516125847452}, {"current_trial": 148, "trialdata": {"rt": -1000, "trial_type": "single-audio", "word": "sandwich", "stimulus": "/static/audio/wordpool/SANDWICH.wav", "conditions": [12, 1600, "a", 12000], "internal_node_id": "0.0-103.0", "trial": 4, "time_elapsed": 684154, "serialpos": 3, "key_press": -1, "wordID": 1231, "type": "PRES_AUD", "trial_index": 148}, "uniqueid": "MTK1672:3HMVI3QICKZ1KO2FDPED2SXZM49Y19", "dateTime": 1516125849915}, {"current_trial": 149, "trialdata": {"rt": -1000, "trial_type": "single-audio", "word": "piston", "stimulus": "/static/audio/wordpool/PISTON.wav", "conditions": [12, 1600, "a", 12000], "internal_node_id": "0.0-104.0", "trial": 4, "time_elapsed": 686782, "serialpos": 4, "key_press": -1, "wordID": 1075, "type": "PRES_AUD", "trial_index": 149}, "uniqueid": "MTK1672:3HMVI3QICKZ1KO2FDPED2SXZM49Y19", "dateTime": 1516125852542}, {"current_trial": 150, "trialdata": {"rt": -1000, "trial_type": "single-audio", "word": "gymnast", "stimulus": "/static/audio/wordpool/GYMNAST.wav", "conditions": [12, 1600, "a", 12000], "internal_node_id": "0.0-105.0", "trial": 4, "time_elapsed": 689225, "serialpos": 5, "key_press": -1, "wordID": 674, "type": "PRES_AUD", "trial_index": 150}, "uniqueid": "MTK1672:3HMVI3QICKZ1KO2FDPED2SXZM49Y19", "dateTime": 1516125854985}, {"current_trial": 151, "trialdata": {"rt": -1000, "trial_type": "single-audio", "word": "custard", "stimulus": "/static/audio/wordpool/CUSTARD.wav", "conditions": [12, 1600, "a", 12000], "internal_node_id": "0.0-106.0", "trial": 4, "time_elapsed": 691635, "serialpos": 6, "key_press": -1, "wordID": 428, "type": "PRES_AUD", "trial_index": 151}, "uniqueid": "MTK1672:3HMVI3QICKZ1KO2FDPED2SXZM49Y19", "dateTime": 1516125857395}, {"current_trial": 152, "trialdata": {"rt": -1000, "trial_type": "single-audio", "word": "badge", "stimulus": "/static/audio/wordpool/BADGE.wav", "conditions": [12, 1600, "a", 12000], "internal_node_id": "0.0-107.0", "trial": 4, "time_elapsed": 694207, "serialpos": 7, "key_press": -1, "wordID": 67, "type": "PRES_AUD", "trial_index": 152}, "uniqueid": "MTK1672:3HMVI3QICKZ1KO2FDPED2SXZM49Y19", "dateTime": 1516125859967}, {"current_trial": 153, "trialdata": {"rt": -1000, "trial_type": "single-audio", "word": "sticker", "stimulus": "/static/audio/wordpool/STICKER.wav", "conditions": [12, 1600, "a", 12000], "internal_node_id": "0.0-108.0", "trial": 4, "time_elapsed": 696747, "serialpos": 8, "key_press": -1, "wordID": 1381, "type": "PRES_AUD", "trial_index": 153}, "uniqueid": "MTK1672:3HMVI3QICKZ1KO2FDPED2SXZM49Y19", "dateTime": 1516125862507}, {"current_trial": 154, "trialdata": {"rt": -1000, "trial_type": "single-audio", "word": "apron", "stimulus": "/static/audio/wordpool/APRON.wav", "conditions": [12, 1600, "a", 12000], "internal_node_id": "0.0-109.0", "trial": 4, "time_elapsed": 699227, "serialpos": 9, "key_press": -1, "wordID": 34, "type": "PRES_AUD", "trial_index": 154}, "uniqueid": "MTK1672:3HMVI3QICKZ1KO2FDPED2SXZM49Y19", "dateTime": 1516125864987}, {"current_trial": 155, "trialdata": {"rt": -1000, "trial_type": "single-audio", "word": "elbow", "stimulus": "/static/audio/wordpool/ELBOW.wav", "conditions": [12, 1600, "a", 12000], "internal_node_id": "0.0-110.0", "trial": 4, "time_elapsed": 701807, "serialpos": 10, "key_press": -1, "wordID": 519, "type": "PRES_AUD", "trial_index": 155}, "uniqueid": "MTK1672:3HMVI3QICKZ1KO2FDPED2SXZM49Y19", "dateTime": 1516125867567}, {"current_trial": 156, "trialdata": {"rt": -1000, "trial_type": "single-audio", "word": "omelet", "stimulus": "/static/audio/wordpool/OMELET.wav", "conditions": [12, 1600, "a", 12000], "internal_node_id": "0.0-111.0", "trial": 4, "time_elapsed": 704312, "serialpos": 11, "key_press": -1, "wordID": 975, "type": "PRES_AUD", "trial_index": 156}, "uniqueid": "MTK1672:3HMVI3QICKZ1KO2FDPED2SXZM49Y19", "dateTime": 1516125870072}, {"current_trial": 157, "trialdata": {"rt": -1, "trial_type": "single-stim", "stimulus": "", "internal_node_id": "0.0-112.0-0.0", "time_elapsed": 705699, "key_press": -1, "type": "PRE_RECALL_DELAY", "trial_index": 157}, "uniqueid": "MTK1672:3HMVI3QICKZ1KO2FDPED2SXZM49Y19", "dateTime": 1516125871460}, {"current_trial": 158, "trialdata": {"rt": -1000, "trial_type": "single-audio", "stimulus": "/static/audio/400Hz.wav", "internal_node_id": "0.0-113.0", "time_elapsed": 706201, "key_press": -1, "type": "PRE_RECALL_ALERT", "trial_index": 158}, "uniqueid": "MTK1672:3HMVI3QICKZ1KO2FDPED2SXZM49Y19", "dateTime": 1516125871961}, {"current_trial": 159, "trialdata": {"rt": [2931, 4435, 7171, 9835, 11972, 14876, 19388, 22659, 27827, 30756, 33012, 34435], "recwords": ["omlet", "elbow", "apron", "sticker", "badgy", "custard", "gymnast", "piston", "sandwich", "pudding", "beef", "friend"], "key_times": [1572, 1667, 2220, 2308, 2412, 2931, 3524, 3637, 3827, 3932, 4164, 4435, 5115, 5828, 6060, 6206, 6524, 7171, 7955, 8692, 8812, 9012, 9171, 9420, 9484, 9835, 10309, 10445, 10613, 11299, 11452, 11972, 12956, 13076, 13188, 13339, 13900, 14076, 14228, 14876, 16451, 16611, 16828, 17451, 18501, 18731, 18883, 19388, 20484, 20709, 20803, 21309, 21445, 21693, 21759, 22124, 22275, 22316, 22659, 24355, 24620, 25067, 25147, 25419, 25893, 26341, 27179, 27396, 27476, 27827, 28685, 29029, 29363, 29556, 29972, 30099, 30180, 30259, 30379, 30756, 31693, 31925, 32037, 32620, 33012, 33453, 33597, 33748, 33885, 34029, 34124, 34435], "trial_type": "free-recall", "conditions": [12, 1600, "a", 12000], "internal_node_id": "0.0-114.0-0.0", "key_presses": [79, 77, 76, 69, 84, 13, 69, 76, 66, 79, 87, 13, 65, 80, 82, 79, 78, 13, 83, 84, 73, 67, 75, 69, 82, 13, 66, 65, 68, 71, 89, 13, 67, 85, 83, 84, 65, 82, 68, 13, 71, 89, 77, 78, 65, 83, 84, 13, 80, 79, 83, 8, 8, 73, 83, 84, 79, 78, 13, 83, 67, 8, 65, 78, 68, 87, 73, 67, 72, 13, 66, 8, 80, 85, 68, 68, 73, 78, 71, 13, 66, 69, 69, 70, 13, 70, 82, 73, 69, 78, 68, 13], "trial": 4, "time_elapsed": 766203, "type": "FREE_RECALL", "trial_index": 159}, "uniqueid": "MTK1672:3HMVI3QICKZ1KO2FDPED2SXZM49Y19", "dateTime": 1516125931966}, {"current_trial": 160, "trialdata": {"rt": 1127, "trial_type": "text", "internal_node_id": "0.0-115.0", "time_elapsed": 769334, "key_press": 13, "type": "INSTRUCTIONS", "trial_index": 160}, "uniqueid": "MTK1672:3HMVI3QICKZ1KO2FDPED2SXZM49Y19", "dateTime": 1516125935094}, {"current_trial": 161, "trialdata": {"rt": [2518, 5326, 7662, 10222, 12006, 13830, 16478, 18261, 21742], "trial_type": "math-distractor", "key_times": [2118, 2285, 2518, 4958, 4990, 5326, 7230, 7382, 7662, 9807, 9951, 10222, 11599, 11733, 12006, 13566, 13830, 15911, 16030, 16478, 17991, 18261, 21056, 21206, 21742], "responses": ["20", "15", "14", "20", "11", "9", "13", "8", "23"], "num2": [9, 5, 3, 9, 1, 2, 4, 5, 7, 8], "num3": [3, 2, 9, 7, 9, 2, 6, 2, 8, 6], "conditions": [24, 800, "a", 24000], "internal_node_id": "0.0-116.0", "key_presses": [98, 96, 13, 97, 101, 13, 97, 100, 13, 98, 96, 13, 97, 97, 13, 105, 13, 97, 99, 13, 104, 13, 98, 99, 13], "trial": 5, "time_elapsed": 795338, "type": "DISTRACTOR", "trial_index": 161, "num1": [8, 8, 2, 4, 1, 5, 3, 1, 8, 4]}, "uniqueid": "MTK1672:3HMVI3QICKZ1KO2FDPED2SXZM49Y19", "dateTime": 1516125961098}, {"current_trial": 162, "trialdata": {"rt": -1, "trial_type": "single-stim", "stimulus": "<p id=\"stim\">10</p>", "internal_node_id": "0.0-117.0-0.0", "time_elapsed": 798340, "key_press": -1, "trial_index": 162}, "uniqueid": "MTK1672:3HMVI3QICKZ1KO2FDPED2SXZM49Y19", "dateTime": 1516125964100}, {"current_trial": 163, "trialdata": {"rt": -1, "trial_type": "single-stim", "stimulus": "<p id=\"stim\">9</p>", "internal_node_id": "0.0-117.0-1.0", "time_elapsed": 799342, "key_press": -1, "trial_index": 163}, "uniqueid": "MTK1672:3HMVI3QICKZ1KO2FDPED2SXZM49Y19", "dateTime": 1516125965102}, {"current_trial": 164, "trialdata": {"rt": -1, "trial_type": "single-stim", "stimulus": "<p id=\"stim\">8</p>", "internal_node_id": "0.0-117.0-2.0", "time_elapsed": 800342, "key_press": -1, "trial_index": 164}, "uniqueid": "MTK1672:3HMVI3QICKZ1KO2FDPED2SXZM49Y19", "dateTime": 1516125966104}, {"current_trial": 165, "trialdata": {"rt": -1, "trial_type": "single-stim", "stimulus": "<p id=\"stim\">7</p>", "internal_node_id": "0.0-117.0-3.0", "time_elapsed": 801346, "key_press": -1, "trial_index": 165}, "uniqueid": "MTK1672:3HMVI3QICKZ1KO2FDPED2SXZM49Y19", "dateTime": 1516125967106}, {"current_trial": 166, "trialdata": {"rt": -1, "trial_type": "single-stim", "stimulus": "<p id=\"stim\">6</p>", "internal_node_id": "0.0-117.0-4.0", "time_elapsed": 802348, "key_press": -1, "trial_index": 166}, "uniqueid": "MTK1672:3HMVI3QICKZ1KO2FDPED2SXZM49Y19", "dateTime": 1516125968108}, {"current_trial": 167, "trialdata": {"rt": -1, "trial_type": "single-stim", "stimulus": "<p id=\"stim\">5</p>", "internal_node_id": "0.0-117.0-5.0", "time_elapsed": 803350, "key_press": -1, "trial_index": 167}, "uniqueid": "MTK1672:3HMVI3QICKZ1KO2FDPED2SXZM49Y19", "dateTime": 1516125969110}, {"current_trial": 168, "trialdata": {"rt": -1, "trial_type": "single-stim", "stimulus": "<p id=\"stim\">4</p>", "internal_node_id": "0.0-117.0-6.0", "time_elapsed": 804352, "key_press": -1, "trial_index": 168}, "uniqueid": "MTK1672:3HMVI3QICKZ1KO2FDPED2SXZM49Y19", "dateTime": 1516125970112}, {"current_trial": 169, "trialdata": {"rt": -1, "trial_type": "single-stim", "stimulus": "<p id=\"stim\">3</p>", "internal_node_id": "0.0-117.0-7.0", "time_elapsed": 805353, "key_press": -1, "trial_index": 169}, "uniqueid": "MTK1672:3HMVI3QICKZ1KO2FDPED2SXZM49Y19", "dateTime": 1516125971113}, {"current_trial": 170, "trialdata": {"rt": -1, "trial_type": "single-stim", "stimulus": "<p id=\"stim\">2</p>", "internal_node_id": "0.0-117.0-8.0", "time_elapsed": 806353, "key_press": -1, "trial_index": 170}, "uniqueid": "MTK1672:3HMVI3QICKZ1KO2FDPED2SXZM49Y19", "dateTime": 1516125972113}, {"current_trial": 171, "trialdata": {"rt": -1, "trial_type": "single-stim", "stimulus": "<p id=\"stim\">1</p>", "internal_node_id": "0.0-117.0-9.0", "time_elapsed": 807355, "key_press": -1, "trial_index": 171}, "uniqueid": "MTK1672:3HMVI3QICKZ1KO2FDPED2SXZM49Y19", "dateTime": 1516125973115}, {"current_trial": 172, "trialdata": {"rt": -1, "trial_type": "single-stim", "stimulus": "<p id=\"stim\">+</p>", "internal_node_id": "0.0-118.0-0.0", "time_elapsed": 808856, "key_press": -1, "type": "FIXATION", "trial_index": 172}, "uniqueid": "MTK1672:3HMVI3QICKZ1KO2FDPED2SXZM49Y19", "dateTime": 1516125974616}, {"current_trial": 173, "trialdata": {"rt": -1000, "trial_type": "single-audio", "word": "peanut", "stimulus": "/static/audio/wordpool/PEANUT.wav", "conditions": [24, 800, "a", 24000], "internal_node_id": "0.0-119.0", "trial": 5, "time_elapsed": 810656, "serialpos": 0, "key_press": -1, "wordID": 1031, "type": "PRES_AUD", "trial_index": 173}, "uniqueid": "MTK1672:3HMVI3QICKZ1KO2FDPED2SXZM49Y19", "dateTime": 1516125976416}, {"current_trial": 174, "trialdata": {"rt": -1000, "trial_type": "single-audio", "word": "brick", "stimulus": "/static/audio/wordpool/BRICK.wav", "conditions": [24, 800, "a", 24000], "internal_node_id": "0.0-120.0", "trial": 5, "time_elapsed": 812433, "serialpos": 1, "key_press": -1, "wordID": 171, "type": "PRES_AUD", "trial_index": 174}, "uniqueid": "MTK1672:3HMVI3QICKZ1KO2FDPED2SXZM49Y19", "dateTime": 1516125978194}, {"current_trial": 175, "trialdata": {"rt": -1000, "trial_type": "single-audio", "word": "cellar", "stimulus": "/static/audio/wordpool/CELLAR.wav", "conditions": [24, 800, "a", 24000], "internal_node_id": "0.0-121.0", "trial": 5, "time_elapsed": 814040, "serialpos": 2, "key_press": -1, "wordID": 266, "type": "PRES_AUD", "trial_index": 175}, "uniqueid": "MTK1672:3HMVI3QICKZ1KO2FDPED2SXZM49Y19", "dateTime": 1516125979800}, {"current_trial": 176, "trialdata": {"rt": -1000, "trial_type": "single-audio", "word": "concert", "stimulus": "/static/audio/wordpool/CONCERT.wav", "conditions": [24, 800, "a", 24000], "internal_node_id": "0.0-122.0", "trial": 5, "time_elapsed": 815950, "serialpos": 3, "key_press": -1, "wordID": 359, "type": "PRES_AUD", "trial_index": 176}, "uniqueid": "MTK1672:3HMVI3QICKZ1KO2FDPED2SXZM49Y19", "dateTime": 1516125981710}, {"current_trial": 177, "trialdata": {"rt": -1000, "trial_type": "single-audio", "word": "sparrow", "stimulus": "/static/audio/wordpool/SPARROW.wav", "conditions": [24, 800, "a", 24000], "internal_node_id": "0.0-123.0", "trial": 5, "time_elapsed": 817635, "serialpos": 4, "key_press": -1, "wordID": 1346, "type": "PRES_AUD", "trial_index": 177}, "uniqueid": "MTK1672:3HMVI3QICKZ1KO2FDPED2SXZM49Y19", "dateTime": 1516125983395}, {"current_trial": 178, "trialdata": {"rt": -1000, "trial_type": "single-audio", "word": "hostess", "stimulus": "/static/audio/wordpool/HOSTESS.wav", "conditions": [24, 800, "a", 24000], "internal_node_id": "0.0-124.0", "trial": 5, "time_elapsed": 819582, "serialpos": 5, "key_press": -1, "wordID": 722, "type": "PRES_AUD", "trial_index": 178}, "uniqueid": "MTK1672:3HMVI3QICKZ1KO2FDPED2SXZM49Y19", "dateTime": 1516125985342}, {"current_trial": 179, "trialdata": {"rt": -1000, "trial_type": "single-audio", "word": "arm", "stimulus": "/static/audio/wordpool/ARM.wav", "conditions": [24, 800, "a", 24000], "internal_node_id": "0.0-125.0", "trial": 5, "time_elapsed": 821196, "serialpos": 6, "key_press": -1, "wordID": 37, "type": "PRES_AUD", "trial_index": 179}, "uniqueid": "MTK1672:3HMVI3QICKZ1KO2FDPED2SXZM49Y19", "dateTime": 1516125986956}, {"current_trial": 180, "trialdata": {"rt": -1000, "trial_type": "single-audio", "word": "asia", "stimulus": "/static/audio/wordpool/ASIA.wav", "conditions": [24, 800, "a", 24000], "internal_node_id": "0.0-126.0", "trial": 5, "time_elapsed": 822922, "serialpos": 7, "key_press": -1, "wordID": 45, "type": "PRES_AUD", "trial_index": 180}, "uniqueid": "MTK1672:3HMVI3QICKZ1KO2FDPED2SXZM49Y19", "dateTime": 1516125988682}, {"current_trial": 181, "trialdata": {"rt": -1000, "trial_type": "single-audio", "word": "japan", "stimulus": "/static/audio/wordpool/JAPAN.wav", "conditions": [24, 800, "a", 24000], "internal_node_id": "0.0-127.0", "trial": 5, "time_elapsed": 824653, "serialpos": 8, "key_press": -1, "wordID": 748, "type": "PRES_AUD", "trial_index": 181}, "uniqueid": "MTK1672:3HMVI3QICKZ1KO2FDPED2SXZM49Y19", "dateTime": 1516125990413}, {"current_trial": 182, "trialdata": {"rt": -1000, "trial_type": "single-audio", "word": "crayon", "stimulus": "/static/audio/wordpool/CRAYON.wav", "conditions": [24, 800, "a", 24000], "internal_node_id": "0.0-128.0", "trial": 5, "time_elapsed": 826287, "serialpos": 9, "key_press": -1, "wordID": 400, "type": "PRES_AUD", "trial_index": 182}, "uniqueid": "MTK1672:3HMVI3QICKZ1KO2FDPED2SXZM49Y19", "dateTime": 1516125992047}, {"current_trial": 183, "trialdata": {"rt": -1000, "trial_type": "single-audio", "word": "patient", "stimulus": "/static/audio/wordpool/PATIENT.wav", "conditions": [24, 800, "a", 24000], "internal_node_id": "0.0-129.0", "trial": 5, "time_elapsed": 828288, "serialpos": 10, "key_press": -1, "wordID": 1023, "type": "PRES_AUD", "trial_index": 183}, "uniqueid": "MTK1672:3HMVI3QICKZ1KO2FDPED2SXZM49Y19", "dateTime": 1516125994048}, {"current_trial": 184, "trialdata": {"rt": -1000, "trial_type": "single-audio", "word": "leg", "stimulus": "/static/audio/wordpool/LEG.wav", "conditions": [24, 800, "a", 24000], "internal_node_id": "0.0-130.0", "trial": 5, "time_elapsed": 829970, "serialpos": 11, "key_press": -1, "wordID": 808, "type": "PRES_AUD", "trial_index": 184}, "uniqueid": "MTK1672:3HMVI3QICKZ1KO2FDPED2SXZM49Y19", "dateTime": 1516125995731}, {"current_trial": 185, "trialdata": {"rt": -1000, "trial_type": "single-audio", "word": "slide", "stimulus": "/static/audio/wordpool/SLIDE.wav", "conditions": [24, 800, "a", 24000], "internal_node_id": "0.0-131.0", "trial": 5, "time_elapsed": 831654, "serialpos": 12, "key_press": -1, "wordID": 1325, "type": "PRES_AUD", "trial_index": 185}, "uniqueid": "MTK1672:3HMVI3QICKZ1KO2FDPED2SXZM49Y19", "dateTime": 1516125997414}, {"current_trial": 186, "trialdata": {"rt": -1000, "trial_type": "single-audio", "word": "county", "stimulus": "/static/audio/wordpool/COUNTY.wav", "conditions": [24, 800, "a", 24000], "internal_node_id": "0.0-132.0", "trial": 5, "time_elapsed": 833373, "serialpos": 13, "key_press": -1, "wordID": 388, "type": "PRES_AUD", "trial_index": 186}, "uniqueid": "MTK1672:3HMVI3QICKZ1KO2FDPED2SXZM49Y19", "dateTime": 1516125999133}, {"current_trial": 187, "trialdata": {"rt": -1000, "trial_type": "single-audio", "word": "sheriff", "stimulus": "/static/audio/wordpool/SHERIFF.wav", "conditions": [24, 800, "a", 24000], "internal_node_id": "0.0-133.0", "trial": 5, "time_elapsed": 835289, "serialpos": 14, "key_press": -1, "wordID": 1283, "type": "PRES_AUD", "trial_index": 187}, "uniqueid": "MTK1672:3HMVI3QICKZ1KO2FDPED2SXZM49Y19", "dateTime": 1516126001049}, {"current_trial": 188, "trialdata": {"rt": -1000, "trial_type": "single-audio", "word": "rattle", "stimulus": "/static/audio/wordpool/RATTLE.wav", "conditions": [24, 800, "a", 24000], "internal_node_id": "0.0-134.0", "trial": 5, "time_elapsed": 837038, "serialpos": 15, "key_press": -1, "wordID": 1169, "type": "PRES_AUD", "trial_index": 188}, "uniqueid": "MTK1672:3HMVI3QICKZ1KO2FDPED2SXZM49Y19", "dateTime": 1516126002798}, {"current_trial": 189, "trialdata": {"rt": -1000, "trial_type": "single-audio", "word": "tuba", "stimulus": "/static/audio/wordpool/TUBA.wav", "conditions": [24, 800, "a", 24000], "internal_node_id": "0.0-135.0", "trial": 5, "time_elapsed": 838820, "serialpos": 16, "key_press": -1, "wordID": 1514, "type": "PRES_AUD", "trial_index": 189}, "uniqueid": "MTK1672:3HMVI3QICKZ1KO2FDPED2SXZM49Y19", "dateTime": 1516126004580}, {"current_trial": 190, "trialdata": {"rt": -1000, "trial_type": "single-audio", "word": "outdoors", "stimulus": "/static/audio/wordpool/OUTDOORS.wav", "conditions": [24, 800, "a", 24000], "internal_node_id": "0.0-136.0", "trial": 5, "time_elapsed": 840670, "serialpos": 17, "key_press": -1, "wordID": 986, "type": "PRES_AUD", "trial_index": 190}, "uniqueid": "MTK1672:3HMVI3QICKZ1KO2FDPED2SXZM49Y19", "dateTime": 1516126006430}, {"current_trial": 191, "trialdata": {"rt": -1000, "trial_type": "single-audio", "word": "hamper", "stimulus": "/static/audio/wordpool/HAMPER.wav", "conditions": [24, 800, "a", 24000], "internal_node_id": "0.0-137.0", "trial": 5, "time_elapsed": 842329, "serialpos": 18, "key_press": -1, "wordID": 681, "type": "PRES_AUD", "trial_index": 191}, "uniqueid": "MTK1672:3HMVI3QICKZ1KO2FDPED2SXZM49Y19", "dateTime": 1516126008089}, {"current_trial": 192, "trialdata": {"rt": -1000, "trial_type": "single-audio", "word": "burglar", "stimulus": "/static/audio/wordpool/BURGLAR.wav", "conditions": [24, 800, "a", 24000], "internal_node_id": "0.0-138.0", "trial": 5, "time_elapsed": 843934, "serialpos": 19, "key_press": -1, "wordID": 199, "type": "PRES_AUD", "trial_index": 192}, "uniqueid": "MTK1672:3HMVI3QICKZ1KO2FDPED2SXZM49Y19", "dateTime": 1516126009694}, {"current_trial": 193, "trialdata": {"rt": -1000, "trial_type": "single-audio", "word": "powder", "stimulus": "/static/audio/wordpool/POWDER.wav", "conditions": [24, 800, "a", 24000], "internal_node_id": "0.0-139.0", "trial": 5, "time_elapsed": 845874, "serialpos": 20, "key_press": -1, "wordID": 1116, "type": "PRES_AUD", "trial_index": 193}, "uniqueid": "MTK1672:3HMVI3QICKZ1KO2FDPED2SXZM49Y19", "dateTime": 1516126011634}, {"current_trial": 194, "trialdata": {"rt": -1000, "trial_type": "single-audio", "word": "cousin", "stimulus": "/static/audio/wordpool/COUSIN.wav", "conditions": [24, 800, "a", 24000], "internal_node_id": "0.0-140.0", "trial": 5, "time_elapsed": 847475, "serialpos": 21, "key_press": -1, "wordID": 391, "type": "PRES_AUD", "trial_index": 194}, "uniqueid": "MTK1672:3HMVI3QICKZ1KO2FDPED2SXZM49Y19", "dateTime": 1516126013236}, {"current_trial": 195, "trialdata": {"rt": -1000, "trial_type": "single-audio", "word": "thief", "stimulus": "/static/audio/wordpool/THIEF.wav", "conditions": [24, 800, "a", 24000], "internal_node_id": "0.0-141.0", "trial": 5, "time_elapsed": 849432, "serialpos": 22, "key_press": -1, "wordID": 1455, "type": "PRES_AUD", "trial_index": 195}, "uniqueid": "MTK1672:3HMVI3QICKZ1KO2FDPED2SXZM49Y19", "dateTime": 1516126015193}, {"current_trial": 196, "trialdata": {"rt": -1000, "trial_type": "single-audio", "word": "sunrise", "stimulus": "/static/audio/wordpool/SUNRISE.wav", "conditions": [24, 800, "a", 24000], "internal_node_id": "0.0-142.0", "trial": 5, "time_elapsed": 851396, "serialpos": 23, "key_press": -1, "wordID": 1406, "type": "PRES_AUD", "trial_index": 196}, "uniqueid": "MTK1672:3HMVI3QICKZ1KO2FDPED2SXZM49Y19", "dateTime": 1516126017156}, {"current_trial": 197, "trialdata": {"rt": -1, "trial_type": "single-stim", "stimulus": "", "internal_node_id": "0.0-143.0-0.0", "time_elapsed": 852771, "key_press": -1, "type": "PRE_RECALL_DELAY", "trial_index": 197}, "uniqueid": "MTK1672:3HMVI3QICKZ1KO2FDPED2SXZM49Y19", "dateTime": 1516126018531}, {"current_trial": 198, "trialdata": {"rt": -1000, "trial_type": "single-audio", "stimulus": "/static/audio/400Hz.wav", "internal_node_id": "0.0-144.0", "time_elapsed": 853273, "key_press": -1, "type": "PRE_RECALL_ALERT", "trial_index": 198}, "uniqueid": "MTK1672:3HMVI3QICKZ1KO2FDPED2SXZM49Y19", "dateTime": 1516126019033}, {"current_trial": 199, "trialdata": {"rt": [5765, 7437, 9005, 11852, 17804, 20788, 23348, 26844, 28276, 31396, 33429, 36045, 39317, 41229, 43229, 46860, 51629, 54188, 56189], "recwords": ["peanut", "brick", "cellar", "concert", "arm", "asle", "japan", "crayon", "asia", "leg", "county", "sheriff", "sunrise", "theif", "cousin", "rarade", "outdoors", "tuba", "rattle"], "key_times": [4349, 4525, 4757, 5069, 5269, 5372, 5765, 6350, 6525, 6758, 6934, 7054, 7437, 7949, 8117, 8332, 8445, 8557, 8741, 9005, 9341, 9845, 9941, 10110, 10436, 10573, 10853, 10917, 11421, 11852, 12428, 14556, 14813, 14997, 17199, 17350, 17492, 17804, 18828, 19948, 20165, 20309, 20788, 22277, 22366, 22655, 22773, 23038, 23348, 25357, 25572, 25734, 25966, 26213, 26261, 26844, 27172, 27421, 27532, 27852, 28276, 30294, 30430, 30708, 31396, 32382, 32557, 32629, 32820, 33006, 33160, 33429, 33694, 33789, 34012, 34373, 35181, 35582, 35693, 36045, 36781, 37437, 37605, 38108, 38237, 38589, 38677, 39317, 39853, 39949, 40126, 40206, 40364, 40845, 40927, 41229, 42246, 42372, 42445, 42622, 42741, 42854, 43229, 44596, 45045, 45422, 45598, 45878, 46055, 46860, 47884, 48972, 49133, 49342, 49717, 50076, 50285, 50573, 50781, 50885, 51045, 51205, 51629, 53268, 53413, 53693, 53797, 54188, 54982, 55117, 55372, 55501, 55597, 55702, 56189], "trial_type": "free-recall", "conditions": [24, 800, "a", 24000], "internal_node_id": "0.0-145.0-0.0", "key_presses": [80, 69, 65, 78, 85, 84, 13, 66, 82, 73, 67, 75, 13, 67, 69, 76, 76, 65, 82, 13, 67, 79, 78, 83, 8, 67, 69, 82, 84, 13, 83, 8, 8, 8, 65, 82, 77, 13, 65, 83, 76, 69, 13, 74, 65, 80, 65, 78, 13, 67, 82, 65, 89, 79, 78, 13, 65, 83, 73, 65, 13, 76, 69, 71, 13, 67, 79, 85, 78, 84, 89, 13, 83, 72, 69, 82, 73, 70, 70, 13, 83, 85, 78, 82, 73, 83, 69, 13, 84, 72, 69, 73, 82, 8, 70, 13, 67, 79, 85, 83, 73, 78, 13, 82, 65, 82, 65, 68, 69, 13, 66, 8, 8, 8, 79, 85, 84, 68, 79, 79, 82, 83, 13, 84, 85, 66, 65, 13, 82, 65, 84, 84, 76, 69, 13], "trial": 5, "time_elapsed": 913276, "type": "FREE_RECALL", "trial_index": 199}, "uniqueid": "MTK1672:3HMVI3QICKZ1KO2FDPED2SXZM49Y19", "dateTime": 1516126079042}, {"current_trial": 200, "trialdata": {"rt": 28699, "trial_type": "text", "internal_node_id": "0.0-146.0", "time_elapsed": 943982, "key_press": 13, "type": "INSTRUCTIONS", "trial_index": 200}, "uniqueid": "MTK1672:3HMVI3QICKZ1KO2FDPED2SXZM49Y19", "dateTime": 1516126109742}, {"current_trial": 201, "trialdata": {"rt": [2693, 5333, 7204, 8797, 11397], "trial_type": "math-distractor", "key_times": [2269, 2365, 2693, 4925, 5093, 5333, 6805, 6916, 7204, 8422, 8469, 8797, 10893, 11109, 11397], "responses": ["12", "15", "19", "12", "17"], "num2": [4, 4, 9, 5, 3, 8], "num3": [5, 2, 9, 5, 6, 8], "conditions": [24, 1600, "a", 12000], "internal_node_id": "0.0-147.0", "key_presses": [97, 98, 13, 97, 101, 13, 97, 105, 13, 97, 98, 13, 97, 103, 13], "trial": 6, "time_elapsed": 957986, "type": "DISTRACTOR", "trial_index": 201, "num1": [3, 7, 1, 2, 8, 9]}, "uniqueid": "MTK1672:3HMVI3QICKZ1KO2FDPED2SXZM49Y19", "dateTime": 1516126123746}, {"current_trial": 202, "trialdata": {"rt": -1, "trial_type": "single-stim", "stimulus": "<p id=\"stim\">10</p>", "internal_node_id": "0.0-148.0-0.0", "time_elapsed": 960989, "key_press": -1, "trial_index": 202}, "uniqueid": "MTK1672:3HMVI3QICKZ1KO2FDPED2SXZM49Y19", "dateTime": 1516126126750}, {"current_trial": 203, "trialdata": {"rt": -1, "trial_type": "single-stim", "stimulus": "<p id=\"stim\">9</p>", "internal_node_id": "0.0-148.0-1.0", "time_elapsed": 961990, "key_press": -1, "trial_index": 203}, "uniqueid": "MTK1672:3HMVI3QICKZ1KO2FDPED2SXZM49Y19", "dateTime": 1516126127750}, {"current_trial": 204, "trialdata": {"rt": -1, "trial_type": "single-stim", "stimulus": "<p id=\"stim\">8</p>", "internal_node_id": "0.0-148.0-2.0", "time_elapsed": 962992, "key_press": -1, "trial_index": 204}, "uniqueid": "MTK1672:3HMVI3QICKZ1KO2FDPED2SXZM49Y19", "dateTime": 1516126128752}, {"current_trial": 205, "trialdata": {"rt": -1, "trial_type": "single-stim", "stimulus": "<p id=\"stim\">7</p>", "internal_node_id": "0.0-148.0-3.0", "time_elapsed": 963994, "key_press": -1, "trial_index": 205}, "uniqueid": "MTK1672:3HMVI3QICKZ1KO2FDPED2SXZM49Y19", "dateTime": 1516126129754}, {"current_trial": 206, "trialdata": {"rt": -1, "trial_type": "single-stim", "stimulus": "<p id=\"stim\">6</p>", "internal_node_id": "0.0-148.0-4.0", "time_elapsed": 964996, "key_press": -1, "trial_index": 206}, "uniqueid": "MTK1672:3HMVI3QICKZ1KO2FDPED2SXZM49Y19", "dateTime": 1516126130756}, {"current_trial": 207, "trialdata": {"rt": -1, "trial_type": "single-stim", "stimulus": "<p id=\"stim\">5</p>", "internal_node_id": "0.0-148.0-5.0", "time_elapsed": 965997, "key_press": -1, "trial_index": 207}, "uniqueid": "MTK1672:3HMVI3QICKZ1KO2FDPED2SXZM49Y19", "dateTime": 1516126131757}, {"current_trial": 208, "trialdata": {"rt": -1, "trial_type": "single-stim", "stimulus": "<p id=\"stim\">4</p>", "internal_node_id": "0.0-148.0-6.0", "time_elapsed": 966998, "key_press": -1, "trial_index": 208}, "uniqueid": "MTK1672:3HMVI3QICKZ1KO2FDPED2SXZM49Y19", "dateTime": 1516126132758}, {"current_trial": 209, "trialdata": {"rt": -1, "trial_type": "single-stim", "stimulus": "<p id=\"stim\">3</p>", "internal_node_id": "0.0-148.0-7.0", "time_elapsed": 968000, "key_press": -1, "trial_index": 209}, "uniqueid": "MTK1672:3HMVI3QICKZ1KO2FDPED2SXZM49Y19", "dateTime": 1516126133760}, {"current_trial": 210, "trialdata": {"rt": -1, "trial_type": "single-stim", "stimulus": "<p id=\"stim\">2</p>", "internal_node_id": "0.0-148.0-8.0", "time_elapsed": 969002, "key_press": -1, "trial_index": 210}, "uniqueid": "MTK1672:3HMVI3QICKZ1KO2FDPED2SXZM49Y19", "dateTime": 1516126134762}, {"current_trial": 211, "trialdata": {"rt": -1, "trial_type": "single-stim", "stimulus": "<p id=\"stim\">1</p>", "internal_node_id": "0.0-148.0-9.0", "time_elapsed": 970004, "key_press": -1, "trial_index": 211}, "uniqueid": "MTK1672:3HMVI3QICKZ1KO2FDPED2SXZM49Y19", "dateTime": 1516126135764}, {"current_trial": 212, "trialdata": {"rt": -1, "trial_type": "single-stim", "stimulus": "<p id=\"stim\">+</p>", "internal_node_id": "0.0-149.0-0.0", "time_elapsed": 971505, "key_press": -1, "type": "FIXATION", "trial_index": 212}, "uniqueid": "MTK1672:3HMVI3QICKZ1KO2FDPED2SXZM49Y19", "dateTime": 1516126137265}, {"current_trial": 213, "trialdata": {"rt": -1000, "trial_type": "single-audio", "word": "freckle", "stimulus": "/static/audio/wordpool/FRECKLE.wav", "conditions": [24, 1600, "a", 12000], "internal_node_id": "0.0-150.0", "trial": 6, "time_elapsed": 974148, "serialpos": 0, "key_press": -1, "wordID": 601, "type": "PRES_AUD", "trial_index": 213}, "uniqueid": "MTK1672:3HMVI3QICKZ1KO2FDPED2SXZM49Y19", "dateTime": 1516126139908}, {"current_trial": 214, "trialdata": {"rt": -1000, "trial_type": "single-audio", "word": "actor", "stimulus": "/static/audio/wordpool/ACTOR.wav", "conditions": [24, 1600, "a", 12000], "internal_node_id": "0.0-151.0", "trial": 6, "time_elapsed": 976721, "serialpos": 1, "key_press": -1, "wordID": 4, "type": "PRES_AUD", "trial_index": 214}, "uniqueid": "MTK1672:3HMVI3QICKZ1KO2FDPED2SXZM49Y19", "dateTime": 1516126142481}, {"current_trial": 215, "trialdata": {"rt": -1000, "trial_type": "single-audio", "word": "iceberg", "stimulus": "/static/audio/wordpool/ICEBERG.wav", "conditions": [24, 1600, "a", 12000], "internal_node_id": "0.0-152.0", "trial": 6, "time_elapsed": 979198, "serialpos": 2, "key_press": -1, "wordID": 730, "type": "PRES_AUD", "trial_index": 215}, "uniqueid": "MTK1672:3HMVI3QICKZ1KO2FDPED2SXZM49Y19", "dateTime": 1516126144959}, {"current_trial": 216, "trialdata": {"rt": -1000, "trial_type": "single-audio", "word": "pimple", "stimulus": "/static/audio/wordpool/PIMPLE.wav", "conditions": [24, 1600, "a", 12000], "internal_node_id": "0.0-153.0", "trial": 6, "time_elapsed": 981629, "serialpos": 3, "key_press": -1, "wordID": 1070, "type": "PRES_AUD", "trial_index": 216}, "uniqueid": "MTK1672:3HMVI3QICKZ1KO2FDPED2SXZM49Y19", "dateTime": 1516126147389}, {"current_trial": 217, "trialdata": {"rt": -1000, "trial_type": "single-audio", "word": "dentist", "stimulus": "/static/audio/wordpool/DENTIST.wav", "conditions": [24, 1600, "a", 12000], "internal_node_id": "0.0-154.0", "trial": 6, "time_elapsed": 984286, "serialpos": 4, "key_press": -1, "wordID": 446, "type": "PRES_AUD", "trial_index": 217}, "uniqueid": "MTK1672:3HMVI3QICKZ1KO2FDPED2SXZM49Y19", "dateTime": 1516126150046}, {"current_trial": 218, "trialdata": {"rt": -1000, "trial_type": "single-audio", "word": "lizard", "stimulus": "/static/audio/wordpool/LIZARD.wav", "conditions": [24, 1600, "a", 12000], "internal_node_id": "0.0-155.0", "trial": 6, "time_elapsed": 987028, "serialpos": 5, "key_press": -1, "wordID": 833, "type": "PRES_AUD", "trial_index": 218}, "uniqueid": "MTK1672:3HMVI3QICKZ1KO2FDPED2SXZM49Y19", "dateTime": 1516126152788}, {"current_trial": 219, "trialdata": {"rt": -1000, "trial_type": "single-audio", "word": "raft", "stimulus": "/static/audio/wordpool/RAFT.wav", "conditions": [24, 1600, "a", 12000], "internal_node_id": "0.0-156.0", "trial": 6, "time_elapsed": 989768, "serialpos": 6, "key_press": -1, "wordID": 1158, "type": "PRES_AUD", "trial_index": 219}, "uniqueid": "MTK1672:3HMVI3QICKZ1KO2FDPED2SXZM49Y19", "dateTime": 1516126155528}, {"current_trial": 220, "trialdata": {"rt": -1000, "trial_type": "single-audio", "word": "cross", "stimulus": "/static/audio/wordpool/CROSS.wav", "conditions": [24, 1600, "a", 12000], "internal_node_id": "0.0-157.0", "trial": 6, "time_elapsed": 992342, "serialpos": 7, "key_press": -1, "wordID": 412, "type": "PRES_AUD", "trial_index": 220}, "uniqueid": "MTK1672:3HMVI3QICKZ1KO2FDPED2SXZM49Y19", "dateTime": 1516126158102}, {"current_trial": 221, "trialdata": {"rt": -1000, "trial_type": "single-audio", "word": "zipper", "stimulus": "/static/audio/wordpool/ZIPPER.wav", "conditions": [24, 1600, "a", 12000], "internal_node_id": "0.0-158.0", "trial": 6, "time_elapsed": 994990, "serialpos": 8, "key_press": -1, "wordID": 1635, "type": "PRES_AUD", "trial_index": 221}, "uniqueid": "MTK1672:3HMVI3QICKZ1KO2FDPED2SXZM49Y19", "dateTime": 1516126160751}, {"current_trial": 222, "trialdata": {"rt": -1000, "trial_type": "single-audio", "word": "clamp", "stimulus": "/static/audio/wordpool/CLAMP.wav", "conditions": [24, 1600, "a", 12000], "internal_node_id": "0.0-159.0", "trial": 6, "time_elapsed": 997685, "serialpos": 9, "key_press": -1, "wordID": 315, "type": "PRES_AUD", "trial_index": 222}, "uniqueid": "MTK1672:3HMVI3QICKZ1KO2FDPED2SXZM49Y19", "dateTime": 1516126163445}, {"current_trial": 223, "trialdata": {"rt": -1000, "trial_type": "single-audio", "word": "apple", "stimulus": "/static/audio/wordpool/APPLE.wav", "conditions": [24, 1600, "a", 12000], "internal_node_id": "0.0-160.0", "trial": 6, "time_elapsed": 1000284, "serialpos": 10, "key_press": -1, "wordID": 32, "type": "PRES_AUD", "trial_index": 223}, "uniqueid": "MTK1672:3HMVI3QICKZ1KO2FDPED2SXZM49Y19", "dateTime": 1516126166044}, {"current_trial": 224, "trialdata": {"rt": -1000, "trial_type": "single-audio", "word": "fruit", "stimulus": "/static/audio/wordpool/FRUIT.wav", "conditions": [24, 1600, "a", 12000], "internal_node_id": "0.0-161.0", "trial": 6, "time_elapsed": 1003027, "serialpos": 11, "key_press": -1, "wordID": 609, "type": "PRES_AUD", "trial_index": 224}, "uniqueid": "MTK1672:3HMVI3QICKZ1KO2FDPED2SXZM49Y19", "dateTime": 1516126168787}, {"current_trial": 225, "trialdata": {"rt": -1000, "trial_type": "single-audio", "word": "tutu", "stimulus": "/static/audio/wordpool/TUTU.wav", "conditions": [24, 1600, "a", 12000], "internal_node_id": "0.0-162.0", "trial": 6, "time_elapsed": 1005758, "serialpos": 12, "key_press": -1, "wordID": 1523, "type": "PRES_AUD", "trial_index": 225}, "uniqueid": "MTK1672:3HMVI3QICKZ1KO2FDPED2SXZM49Y19", "dateTime": 1516126171518}, {"current_trial": 226, "trialdata": {"rt": -1000, "trial_type": "single-audio", "word": "author", "stimulus": "/static/audio/wordpool/AUTHOR.wav", "conditions": [24, 1600, "a", 12000], "internal_node_id": "0.0-163.0", "trial": 6, "time_elapsed": 1008172, "serialpos": 13, "key_press": -1, "wordID": 60, "type": "PRES_AUD", "trial_index": 226}, "uniqueid": "MTK1672:3HMVI3QICKZ1KO2FDPED2SXZM49Y19", "dateTime": 1516126173932}, {"current_trial": 227, "trialdata": {"rt": -1000, "trial_type": "single-audio", "word": "expert", "stimulus": "/static/audio/wordpool/EXPERT.wav", "conditions": [24, 1600, "a", 12000], "internal_node_id": "0.0-164.0", "trial": 6, "time_elapsed": 1010703, "serialpos": 14, "key_press": -1, "wordID": 542, "type": "PRES_AUD", "trial_index": 227}, "uniqueid": "MTK1672:3HMVI3QICKZ1KO2FDPED2SXZM49Y19", "dateTime": 1516126176463}, {"current_trial": 228, "trialdata": {"rt": -1000, "trial_type": "single-audio", "word": "shrub", "stimulus": "/static/audio/wordpool/SHRUB.wav", "conditions": [24, 1600, "a", 12000], "internal_node_id": "0.0-165.0", "trial": 6, "time_elapsed": 1013419, "serialpos": 15, "key_press": -1, "wordID": 1298, "type": "PRES_AUD", "trial_index": 228}, "uniqueid": "MTK1672:3HMVI3QICKZ1KO2FDPED2SXZM49Y19", "dateTime": 1516126179179}, {"current_trial": 229, "trialdata": {"rt": -1000, "trial_type": "single-audio", "word": "pork", "stimulus": "/static/audio/wordpool/PORK.wav", "conditions": [24, 1600, "a", 12000], "internal_node_id": "0.0-166.0", "trial": 6, "time_elapsed": 1015829, "serialpos": 16, "key_press": -1, "wordID": 1107, "type": "PRES_AUD", "trial_index": 229}, "uniqueid": "MTK1672:3HMVI3QICKZ1KO2FDPED2SXZM49Y19", "dateTime": 1516126181589}, {"current_trial": 230, "trialdata": {"rt": -1000, "trial_type": "single-audio", "word": "church", "stimulus": "/static/audio/wordpool/CHURCH.wav", "conditions": [24, 1600, "a", 12000], "internal_node_id": "0.0-167.0", "trial": 6, "time_elapsed": 1018274, "serialpos": 17, "key_press": -1, "wordID": 306, "type": "PRES_AUD", "trial_index": 230}, "uniqueid": "MTK1672:3HMVI3QICKZ1KO2FDPED2SXZM49Y19", "dateTime": 1516126184034}, {"current_trial": 231, "trialdata": {"rt": -1000, "trial_type": "single-audio", "word": "chapel", "stimulus": "/static/audio/wordpool/CHAPEL.wav", "conditions": [24, 1600, "a", 12000], "internal_node_id": "0.0-168.0", "trial": 6, "time_elapsed": 1020858, "serialpos": 18, "key_press": -1, "wordID": 279, "type": "PRES_AUD", "trial_index": 231}, "uniqueid": "MTK1672:3HMVI3QICKZ1KO2FDPED2SXZM49Y19", "dateTime": 1516126186618}, {"current_trial": 232, "trialdata": {"rt": -1000, "trial_type": "single-audio", "word": "sausage", "stimulus": "/static/audio/wordpool/SAUSAGE.wav", "conditions": [24, 1600, "a", 12000], "internal_node_id": "0.0-169.0", "trial": 6, "time_elapsed": 1023450, "serialpos": 19, "key_press": -1, "wordID": 1237, "type": "PRES_AUD", "trial_index": 232}, "uniqueid": "MTK1672:3HMVI3QICKZ1KO2FDPED2SXZM49Y19", "dateTime": 1516126189210}, {"current_trial": 233, "trialdata": {"rt": -1000, "trial_type": "single-audio", "word": "valve", "stimulus": "/static/audio/wordpool/VALVE.wav", "conditions": [24, 1600, "a", 12000], "internal_node_id": "0.0-170.0", "trial": 6, "time_elapsed": 1026094, "serialpos": 20, "key_press": -1, "wordID": 1545, "type": "PRES_AUD", "trial_index": 233}, "uniqueid": "MTK1672:3HMVI3QICKZ1KO2FDPED2SXZM49Y19", "dateTime": 1516126191855}, {"current_trial": 234, "trialdata": {"rt": -1000, "trial_type": "single-audio", "word": "pigeon", "stimulus": "/static/audio/wordpool/PIGEON.wav", "conditions": [24, 1600, "a", 12000], "internal_node_id": "0.0-171.0", "trial": 6, "time_elapsed": 1028703, "serialpos": 21, "key_press": -1, "wordID": 1064, "type": "PRES_AUD", "trial_index": 234}, "uniqueid": "MTK1672:3HMVI3QICKZ1KO2FDPED2SXZM49Y19", "dateTime": 1516126194463}, {"current_trial": 235, "trialdata": {"rt": -1000, "trial_type": "single-audio", "word": "beaver", "stimulus": "/static/audio/wordpool/BEAVER.wav", "conditions": [24, 1600, "a", 12000], "internal_node_id": "0.0-172.0", "trial": 6, "time_elapsed": 1031192, "serialpos": 22, "key_press": -1, "wordID": 108, "type": "PRES_AUD", "trial_index": 235}, "uniqueid": "MTK1672:3HMVI3QICKZ1KO2FDPED2SXZM49Y19", "dateTime": 1516126196952}, {"current_trial": 236, "trialdata": {"rt": -1000, "trial_type": "single-audio", "word": "ointment", "stimulus": "/static/audio/wordpool/OINTMENT.wav", "conditions": [24, 1600, "a", 12000], "internal_node_id": "0.0-173.0", "trial": 6, "time_elapsed": 1033983, "serialpos": 23, "key_press": -1, "wordID": 973, "type": "PRES_AUD", "trial_index": 236}, "uniqueid": "MTK1672:3HMVI3QICKZ1KO2FDPED2SXZM49Y19", "dateTime": 1516126199743}, {"current_trial": 237, "trialdata": {"rt": -1, "trial_type": "single-stim", "stimulus": "", "internal_node_id": "0.0-174.0-0.0", "time_elapsed": 1035228, "key_press": -1, "type": "PRE_RECALL_DELAY", "trial_index": 237}, "uniqueid": "MTK1672:3HMVI3QICKZ1KO2FDPED2SXZM49Y19", "dateTime": 1516126200988}, {"current_trial": 238, "trialdata": {"rt": -1000, "trial_type": "single-audio", "stimulus": "/static/audio/400Hz.wav", "internal_node_id": "0.0-175.0", "time_elapsed": 1035730, "key_press": -1, "type": "PRE_RECALL_ALERT", "trial_index": 238}, "uniqueid": "MTK1672:3HMVI3QICKZ1KO2FDPED2SXZM49Y19", "dateTime": 1516126201490}, {"current_trial": 239, "trialdata": {"rt": [6019, 7915, 11091, 13323, 15755, 17683, 18755, 20475, 23371, 25499, 27387, 29955, 31659, 34627, 37019, 38579, 41762, 44139, 46139, 48379, 51019, 53626, 56875, 59979], "recwords": ["freckle", "actor", "iceberg", "pimple", "dentist", "lizard", "raft", "cross", "zipper", "clamp", "apple", "fruit", "tutu", "author", "expert", "shub", "pork", "church", "chapel", "sausage", "valve", "pigeon", "beaver", "ointment"], "key_times": [2499, 2699, 3699, 3994, 4147, 4420, 4779, 5347, 5459, 6019, 6885, 7138, 7387, 7507, 7667, 7915, 8508, 8715, 9011, 9091, 9275, 9572, 9931, 10003, 10459, 11091, 11779, 12139, 12259, 12508, 12754, 12875, 13323, 13915, 14107, 14411, 14747, 14842, 15131, 15283, 15755, 16467, 16578, 16803, 17035, 17235, 17411, 17683, 18011, 18147, 18339, 18507, 18755, 19028, 19212, 19364, 19939, 20083, 20475, 21132, 21476, 21563, 21804, 22091, 22235, 22531, 22571, 23371, 24412, 24604, 24683, 24859, 25066, 25499, 26243, 26547, 26707, 26931, 27083, 27387, 28755, 28891, 29067, 29250,