{"assignmentId": "37UQDCYH6Y2YRGMCXU82W3KI6L5V7F", "workerId": "MTK1367", "questiondata": {"origin": "United States", "strat-rehearsal": "58", "marital": "Married/Domestic Partnership", "education": "Associate degree", "ethnicity": "Not Hispanic", "color_depth": 24, "distracted": "No", "wrote-notes": "No", "strat-other": "", "screen_width": 1600, "avail_screen_width": 1600, "avail_screen_height": 860, "strat-image": "68", "language": "English", "gender": "Female", "age": "33", "gender_other": "", "race": ["White"], "strat-categorize": "87", "pixel_depth": 24, "strat-spatial": "68", "strat-story": "79", "race_other": "", "screen_height": 900}, "bonus": 0, "hitId": "3XUSYT70IT8WS4OCV8IXMI84H0E0DC", "counterbalance": 1957, "useragent": "Mozilla/5.0 (Windows NT 10.0; Win64; x64) AppleWebKit/537.36 (KHTML, like Gecko) Chrome/63.0.3239.132 Safari/537.36", "eventdata": [{"eventtype": "initialized", "interval": 0, "value": null, "timestamp": 1515866130393}, {"eventtype": "window_resize", "interval": 0, "value": [1596, 845], "timestamp": 1515866130393}], "data": [{"current_trial": 0, "trialdata": {"rt": 13093, "trial_type": "text", "internal_node_id": "0.0-0.0", "time_elapsed": 13109, "key_press": 32, "type": "INSTRUCTIONS", "trial_index": 0}, "uniqueid": "MTK1367:37UQDCYH6Y2YRGMCXU82W3KI6L5V7F", "dateTime": 1515866144442}, {"current_trial": 1, "trialdata": {"rt": 45851, "trial_type": "text", "internal_node_id": "0.0-1.0", "time_elapsed": 58977, "key_press": 32, "type": "INSTRUCTIONS", "trial_index": 1}, "uniqueid": "MTK1367:37UQDCYH6Y2YRGMCXU82W3KI6L5V7F", "dateTime": 1515866190304}, {"current_trial": 2, "trialdata": {"rt": [15467], "trial_type": "audio-test", "responses": ["ocean"], "internal_node_id": "0.0-2.0", "time_elapsed": 74486, "type": "AUDIO_TEST", "trial_index": 2}, "uniqueid": "MTK1367:37UQDCYH6Y2YRGMCXU82W3KI6L5V7F", "dateTime": 1515866205812}, {"current_trial": 3, "trialdata": {"rt": [12026], "trial_type": "audio-test", "responses": ["crystal"], "internal_node_id": "0.0-3.0", "time_elapsed": 86524, "type": "AUDIO_TEST", "trial_index": 3}, "uniqueid": "MTK1367:37UQDCYH6Y2YRGMCXU82W3KI6L5V7F", "dateTime": 1515866217851}, {"current_trial": 4, "trialdata": {"rt": [9469], "trial_type": "audio-test", "responses": ["spice"], "internal_node_id": "0.0-4.0", "time_elapsed": 96007, "type": "AUDIO_TEST", "trial_index": 4}, "uniqueid": "MTK1367:37UQDCYH6Y2YRGMCXU82W3KI6L5V7F", "dateTime": 1515866227333}, {"current_trial": 5, "trialdata": {"rt": 24603, "trial_type": "survey-text", "responses": "{\"Q0\":\"10:45\",\"Q1\":\"5:30\",\"Q2\":\"4\"}", "internal_node_id": "0.0-5.0", "time_elapsed": 121378, "type": "SLEEP_SURVEY", "trial_index": 5}, "uniqueid": "MTK1367:37UQDCYH6Y2YRGMCXU82W3KI6L5V7F", "dateTime": 1515866252704}, {"current_trial": 6, "trialdata": {"rt": 130440, "trial_type": "text", "internal_node_id": "0.0-6.0", "time_elapsed": 252825, "key_press": 32, "type": "INSTRUCTIONS", "trial_index": 6}, "uniqueid": "MTK1367:37UQDCYH6Y2YRGMCXU82W3KI6L5V7F", "dateTime": 1515866384152}, {"current_trial": 7, "trialdata": {"rt": 27133, "trial_type": "text", "internal_node_id": "0.0-7.0", "time_elapsed": 280466, "key_press": 32, "type": "INSTRUCTIONS", "trial_index": 7}, "uniqueid": "MTK1367:37UQDCYH6Y2YRGMCXU82W3KI6L5V7F", "dateTime": 1515866411792}, {"current_trial": 8, "trialdata": {"rt": 83396, "trial_type": "text", "internal_node_id": "0.0-8.0", "time_elapsed": 364368, "key_press": 32, "type": "INSTRUCTIONS", "trial_index": 8}, "uniqueid": "MTK1367:37UQDCYH6Y2YRGMCXU82W3KI6L5V7F", "dateTime": 1515866495695}, {"current_trial": 9, "trialdata": {"rt": [6988, 13338, 16411], "trial_type": "math-distractor", "key_times": [4163, 4178, 4747, 5540, 5603, 6531, 6988, 12278, 12378, 13338, 15621, 15852, 16411], "responses": ["13", "11", "12"], "num2": [2, 5, 6, 1], "num3": [4, 2, 3, 9], "conditions": [18, 1200, "v", 18000], "internal_node_id": "0.0-9.0", "key_presses": [97, 97, 99, 8, 8, 99, 13, 97, 97, 13, 97, 98, 13], "trial": 0, "time_elapsed": 383383, "type": "DISTRACTOR", "trial_index": 9, "num1": [7, 4, 3, 7]}, "uniqueid": "MTK1367:37UQDCYH6Y2YRGMCXU82W3KI6L5V7F", "dateTime": 1515866514710}, {"current_trial": 10, "trialdata": {"rt": -1, "trial_type": "single-stim", "stimulus": "<p id=\"stim\">10</p>", "internal_node_id": "0.0-10.0-0.0", "time_elapsed": 386394, "key_press": -1, "trial_index": 10}, "uniqueid": "MTK1367:37UQDCYH6Y2YRGMCXU82W3KI6L5V7F", "dateTime": 1515866517721}, {"current_trial": 11, "trialdata": {"rt": -1, "trial_type": "single-stim", "stimulus": "<p id=\"stim\">9</p>", "internal_node_id": "0.0-10.0-1.0", "time_elapsed": 387398, "key_press": -1, "trial_index": 11}, "uniqueid": "MTK1367:37UQDCYH6Y2YRGMCXU82W3KI6L5V7F", "dateTime": 1515866518724}, {"current_trial": 12, "trialdata": {"rt": -1, "trial_type": "single-stim", "stimulus": "<p id=\"stim\">8</p>", "internal_node_id": "0.0-10.0-2.0", "time_elapsed": 388402, "key_press": -1, "trial_index": 12}, "uniqueid": "MTK1367:37UQDCYH6Y2YRGMCXU82W3KI6L5V7F", "dateTime": 1515866519728}, {"current_trial": 13, "trialdata": {"rt": -1, "trial_type": "single-stim", "stimulus": "<p id=\"stim\">7</p>", "internal_node_id": "0.0-10.0-3.0", "time_elapsed": 389405, "key_press": -1, "trial_index": 13}, "uniqueid": "MTK1367:37UQDCYH6Y2YRGMCXU82W3KI6L5V7F", "dateTime": 1515866520731}, {"current_trial": 14, "trialdata": {"rt": -1, "trial_type": "single-stim", "stimulus": "<p id=\"stim\">6</p>", "internal_node_id": "0.0-10.0-4.0", "time_elapsed": 390409, "key_press": -1, "trial_index": 14}, "uniqueid": "MTK1367:37UQDCYH6Y2YRGMCXU82W3KI6L5V7F", "dateTime": 1515866521735}, {"current_trial": 15, "trialdata": {"rt": -1, "trial_type": "single-stim", "stimulus": "<p id=\"stim\">5</p>", "internal_node_id": "0.0-10.0-5.0", "time_elapsed": 391411, "key_press": -1, "trial_index": 15}, "uniqueid": "MTK1367:37UQDCYH6Y2YRGMCXU82W3KI6L5V7F", "dateTime": 1515866522737}, {"current_trial": 16, "trialdata": {"rt": -1, "trial_type": "single-stim", "stimulus": "<p id=\"stim\">4</p>", "internal_node_id": "0.0-10.0-6.0", "time_elapsed": 392418, "key_press": -1, "trial_index": 16}, "uniqueid": "MTK1367:37UQDCYH6Y2YRGMCXU82W3KI6L5V7F", "dateTime": 1515866523744}, {"current_trial": 17, "trialdata": {"rt": -1, "trial_type": "single-stim", "stimulus": "<p id=\"stim\">3</p>", "internal_node_id": "0.0-10.0-7.0", "time_elapsed": 393424, "key_press": -1, "trial_index": 17}, "uniqueid": "MTK1367:37UQDCYH6Y2YRGMCXU82W3KI6L5V7F", "dateTime": 1515866524750}, {"current_trial": 18, "trialdata": {"rt": -1, "trial_type": "single-stim", "stimulus": "<p id=\"stim\">2</p>", "internal_node_id": "0.0-10.0-8.0", "time_elapsed": 394427, "key_press": -1, "trial_index": 18}, "uniqueid": "MTK1367:37UQDCYH6Y2YRGMCXU82W3KI6L5V7F", "dateTime": 1515866525753}, {"current_trial": 19, "trialdata": {"rt": -1, "trial_type": "single-stim", "stimulus": "<p id=\"stim\">1</p>", "internal_node_id": "0.0-10.0-9.0", "time_elapsed": 395432, "key_press": -1, "trial_index": 19}, "uniqueid": "MTK1367:37UQDCYH6Y2YRGMCXU82W3KI6L5V7F", "dateTime": 1515866526758}, {"current_trial": 20, "trialdata": {"rt": -1, "trial_type": "single-stim", "stimulus": "<p id=\"stim\">+</p>", "internal_node_id": "0.0-11.0-0.0", "time_elapsed": 396938, "key_press": -1, "type": "FIXATION", "trial_index": 20}, "uniqueid": "MTK1367:37UQDCYH6Y2YRGMCXU82W3KI6L5V7F", "dateTime": 1515866528265}, {"current_trial": 21, "trialdata": {"rt": -1, "trial_type": "single-stim", "word": "fireplace", "stimulus": "<p id=\"stim\">FIREPLACE</p>", "conditions": [18, 1200, "v", 18000], "internal_node_id": "0.0-12.0", "trial": 0, "time_elapsed": 398157, "serialpos": 0, "key_press": -1, "wordID": 569, "type": "PRES_VIS", "trial_index": 21}, "uniqueid": "MTK1367:37UQDCYH6Y2YRGMCXU82W3KI6L5V7F", "dateTime": 1515866529484}, {"current_trial": 22, "trialdata": {"rt": -1, "trial_type": "single-stim", "word": "ulcer", "stimulus": "<p id=\"stim\">ULCER</p>", "conditions": [18, 1200, "v", 18000], "internal_node_id": "0.0-13.0", "trial": 0, "time_elapsed": 400271, "serialpos": 1, "key_press": -1, "wordID": 1532, "type": "PRES_VIS", "trial_index": 22}, "uniqueid": "MTK1367:37UQDCYH6Y2YRGMCXU82W3KI6L5V7F", "dateTime": 1515866531598}, {"current_trial": 23, "trialdata": {"rt": -1, "trial_type": "single-stim", "word": "statue", "stimulus": "<p id=\"stim\">STATUE</p>", "conditions": [18, 1200, "v", 18000], "internal_node_id": "0.0-14.0", "trial": 0, "time_elapsed": 402621, "serialpos": 2, "key_press": -1, "wordID": 1373, "type": "PRES_VIS", "trial_index": 23}, "uniqueid": "MTK1367:37UQDCYH6Y2YRGMCXU82W3KI6L5V7F", "dateTime": 1515866533948}, {"current_trial": 24, "trialdata": {"rt": -1, "trial_type": "single-stim", "word": "tunnel", "stimulus": "<p id=\"stim\">TUNNEL</p>", "conditions": [18, 1200, "v", 18000], "internal_node_id": "0.0-15.0", "trial": 0, "time_elapsed": 404797, "serialpos": 3, "key_press": -1, "wordID": 1518, "type": "PRES_VIS", "trial_index": 24}, "uniqueid": "MTK1367:37UQDCYH6Y2YRGMCXU82W3KI6L5V7F", "dateTime": 1515866536124}, {"current_trial": 25, "trialdata": {"rt": -1, "trial_type": "single-stim", "word": "necklace", "stimulus": "<p id=\"stim\">NECKLACE</p>", "conditions": [18, 1200, "v", 18000], "internal_node_id": "0.0-16.0", "trial": 0, "time_elapsed": 407020, "serialpos": 4, "key_press": -1, "wordID": 939, "type": "PRES_VIS", "trial_index": 25}, "uniqueid": "MTK1367:37UQDCYH6Y2YRGMCXU82W3KI6L5V7F", "dateTime": 1515866538347}, {"current_trial": 26, "trialdata": {"rt": -1, "trial_type": "single-stim", "word": "mammal", "stimulus": "<p id=\"stim\">MAMMAL</p>", "conditions": [18, 1200, "v", 18000], "internal_node_id": "0.0-17.0", "trial": 0, "time_elapsed": 409347, "serialpos": 5, "key_press": -1, "wordID": 860, "type": "PRES_VIS", "trial_index": 26}, "uniqueid": "MTK1367:37UQDCYH6Y2YRGMCXU82W3KI6L5V7F", "dateTime": 1515866540673}, {"current_trial": 27, "trialdata": {"rt": -1, "trial_type": "single-stim", "word": "blouse", "stimulus": "<p id=\"stim\">BLOUSE</p>", "conditions": [18, 1200, "v", 18000], "internal_node_id": "0.0-18.0", "trial": 0, "time_elapsed": 411556, "serialpos": 6, "key_press": -1, "wordID": 138, "type": "PRES_VIS", "trial_index": 27}, "uniqueid": "MTK1367:37UQDCYH6Y2YRGMCXU82W3KI6L5V7F", "dateTime": 1515866542882}, {"current_trial": 28, "trialdata": {"rt": -1, "trial_type": "single-stim", "word": "kleenex", "stimulus": "<p id=\"stim\">KLEENEX</p>", "conditions": [18, 1200, "v", 18000], "internal_node_id": "0.0-19.0", "trial": 0, "time_elapsed": 413871, "serialpos": 7, "key_press": -1, "wordID": 781, "type": "PRES_VIS", "trial_index": 28}, "uniqueid": "MTK1367:37UQDCYH6Y2YRGMCXU82W3KI6L5V7F", "dateTime": 1515866545198}, {"current_trial": 29, "trialdata": {"rt": -1, "trial_type": "single-stim", "word": "switch", "stimulus": "<p id=\"stim\">SWITCH</p>", "conditions": [18, 1200, "v", 18000], "internal_node_id": "0.0-20.0", "trial": 0, "time_elapsed": 416263, "serialpos": 8, "key_press": -1, "wordID": 1421, "type": "PRES_VIS", "trial_index": 29}, "uniqueid": "MTK1367:37UQDCYH6Y2YRGMCXU82W3KI6L5V7F", "dateTime": 1515866547590}, {"current_trial": 30, "trialdata": {"rt": -1, "trial_type": "single-stim", "word": "sparrow", "stimulus": "<p id=\"stim\">SPARROW</p>", "conditions": [18, 1200, "v", 18000], "internal_node_id": "0.0-21.0", "trial": 0, "time_elapsed": 418342, "serialpos": 9, "key_press": -1, "wordID": 1346, "type": "PRES_VIS", "trial_index": 30}, "uniqueid": "MTK1367:37UQDCYH6Y2YRGMCXU82W3KI6L5V7F", "dateTime": 1515866549669}, {"current_trial": 31, "trialdata": {"rt": -1, "trial_type": "single-stim", "word": "empire", "stimulus": "<p id=\"stim\">EMPIRE</p>", "conditions": [18, 1200, "v", 18000], "internal_node_id": "0.0-22.0", "trial": 0, "time_elapsed": 420699, "serialpos": 10, "key_press": -1, "wordID": 529, "type": "PRES_VIS", "trial_index": 31}, "uniqueid": "MTK1367:37UQDCYH6Y2YRGMCXU82W3KI6L5V7F", "dateTime": 1515866552025}, {"current_trial": 32, "trialdata": {"rt": -1, "trial_type": "single-stim", "word": "washer", "stimulus": "<p id=\"stim\">WASHER</p>", "conditions": [18, 1200, "v", 18000], "internal_node_id": "0.0-23.0", "trial": 0, "time_elapsed": 422749, "serialpos": 11, "key_press": -1, "wordID": 1591, "type": "PRES_VIS", "trial_index": 32}, "uniqueid": "MTK1367:37UQDCYH6Y2YRGMCXU82W3KI6L5V7F", "dateTime": 1515866554076}, {"current_trial": 33, "trialdata": {"rt": -1, "trial_type": "single-stim", "word": "scissors", "stimulus": "<p id=\"stim\">SCISSORS</p>", "conditions": [18, 1200, "v", 18000], "internal_node_id": "0.0-24.0", "trial": 0, "time_elapsed": 425132, "serialpos": 12, "key_press": -1, "wordID": 1249, "type": "PRES_VIS", "trial_index": 33}, "uniqueid": "MTK1367:37UQDCYH6Y2YRGMCXU82W3KI6L5V7F", "dateTime": 1515866556459}, {"current_trial": 34, "trialdata": {"rt": -1, "trial_type": "single-stim", "word": "lodge", "stimulus": "<p id=\"stim\">LODGE</p>", "conditions": [18, 1200, "v", 18000], "internal_node_id": "0.0-25.0", "trial": 0, "time_elapsed": 427384, "serialpos": 13, "key_press": -1, "wordID": 838, "type": "PRES_VIS", "trial_index": 34}, "uniqueid": "MTK1367:37UQDCYH6Y2YRGMCXU82W3KI6L5V7F", "dateTime": 1515866558710}, {"current_trial": 35, "trialdata": {"rt": -1, "trial_type": "single-stim", "word": "marrow", "stimulus": "<p id=\"stim\">MARROW</p>", "conditions": [18, 1200, "v", 18000], "internal_node_id": "0.0-26.0", "trial": 0, "time_elapsed": 429716, "serialpos": 14, "key_press": -1, "wordID": 871, "type": "PRES_VIS", "trial_index": 35}, "uniqueid": "MTK1367:37UQDCYH6Y2YRGMCXU82W3KI6L5V7F", "dateTime": 1515866561042}, {"current_trial": 36, "trialdata": {"rt": -1, "trial_type": "single-stim", "word": "crayon", "stimulus": "<p id=\"stim\">CRAYON</p>", "conditions": [18, 1200, "v", 18000], "internal_node_id": "0.0-27.0", "trial": 0, "time_elapsed": 431816, "serialpos": 15, "key_press": -1, "wordID": 400, "type": "PRES_VIS", "trial_index": 36}, "uniqueid": "MTK1367:37UQDCYH6Y2YRGMCXU82W3KI6L5V7F", "dateTime": 1515866563142}, {"current_trial": 37, "trialdata": {"rt": -1, "trial_type": "single-stim", "word": "nurse", "stimulus": "<p id=\"stim\">NURSE</p>", "conditions": [18, 1200, "v", 18000], "internal_node_id": "0.0-28.0", "trial": 0, "time_elapsed": 434161, "serialpos": 16, "key_press": -1, "wordID": 962, "type": "PRES_VIS", "trial_index": 37}, "uniqueid": "MTK1367:37UQDCYH6Y2YRGMCXU82W3KI6L5V7F", "dateTime": 1515866565487}, {"current_trial": 38, "trialdata": {"rt": -1, "trial_type": "single-stim", "word": "jungle", "stimulus": "<p id=\"stim\">JUNGLE</p>", "conditions": [18, 1200, "v", 18000], "internal_node_id": "0.0-29.0", "trial": 0, "time_elapsed": 436473, "serialpos": 17, "key_press": -1, "wordID": 763, "type": "PRES_VIS", "trial_index": 38}, "uniqueid": "MTK1367:37UQDCYH6Y2YRGMCXU82W3KI6L5V7F", "dateTime": 1515866567800}, {"current_trial": 39, "trialdata": {"rt": -1, "trial_type": "single-stim", "stimulus": "", "internal_node_id": "0.0-30.0-0.0", "time_elapsed": 438993, "key_press": -1, "type": "PRE_RECALL_DELAY", "trial_index": 39}, "uniqueid": "MTK1367:37UQDCYH6Y2YRGMCXU82W3KI6L5V7F", "dateTime": 1515866570319}, {"current_trial": 40, "trialdata": {"rt": -1000, "trial_type": "single-audio", "stimulus": "/static/audio/400Hz.wav", "internal_node_id": "0.0-31.0", "time_elapsed": 439505, "key_press": -1, "type": "PRE_RECALL_ALERT", "trial_index": 40}, "uniqueid": "MTK1367:37UQDCYH6Y2YRGMCXU82W3KI6L5V7F", "dateTime": 1515866570831}, {"current_trial": 41, "trialdata": {"rt": [3797, 5829, 8845, 10189, 12166, 19694], "recwords": ["fireplace", "statue", "jungle", "nurse", "blouse", "scraper"], "key_times": [1585, 1775, 1974, 2070, 2285, 2430, 2557, 2936, 2982, 3797, 4431, 4783, 4904, 5159, 5298, 5422, 5829, 7846, 8014, 8222, 8383, 8494, 8589, 8845, 9326, 9456, 9631, 9824, 10003, 10189, 10846, 11014, 11166, 11335, 11439, 11600, 12166, 16820, 17023, 17231, 17423, 17481, 18712, 19166, 19327, 19375, 19694], "trial_type": "free-recall", "conditions": [18, 1200, "v", 18000], "internal_node_id": "0.0-32.0-0.0", "key_presses": [70, 73, 82, 69, 80, 76, 65, 67, 69, 13, 83, 84, 65, 84, 85, 69, 13, 74, 85, 78, 71, 76, 69, 13, 78, 85, 82, 83, 69, 13, 66, 76, 79, 85, 83, 69, 13, 83, 67, 82, 65, 83, 8, 80, 69, 82, 13], "trial": 0, "time_elapsed": 499521, "type": "FREE_RECALL", "trial_index": 41}, "uniqueid": "MTK1367:37UQDCYH6Y2YRGMCXU82W3KI6L5V7F", "dateTime": 1515866630864}, {"current_trial": 42, "trialdata": {"rt": 22921, "trial_type": "text", "internal_node_id": "0.0-33.0", "time_elapsed": 524463, "key_press": 32, "type": "INSTRUCTIONS", "trial_index": 42}, "uniqueid": "MTK1367:37UQDCYH6Y2YRGMCXU82W3KI6L5V7F", "dateTime": 1515866655790}, {"current_trial": 43, "trialdata": {"rt": [5611, 9086, 12828], "trial_type": "math-distractor", "key_times": [4484, 4693, 5611, 8303, 8484, 9086, 12189, 12342, 12828, 17648, 17846], "responses": ["15", "19", "18"], "num2": [9, 3, 6, 3], "num3": [2, 8, 4, 1], "conditions": [18, 1200, "v", 18000], "internal_node_id": "0.0-34.0", "key_presses": [97, 101, 13, 97, 105, 13, 97, 104, 13, 97, 98], "trial": 1, "time_elapsed": 544476, "type": "DISTRACTOR", "trial_index": 43, "num1": [4, 8, 8, 8]}, "uniqueid": "MTK1367:37UQDCYH6Y2YRGMCXU82W3KI6L5V7F", "dateTime": 1515866675803}, {"current_trial": 44, "trialdata": {"rt": -1, "trial_type": "single-stim", "stimulus": "<p id=\"stim\">10</p>", "internal_node_id": "0.0-35.0-0.0", "time_elapsed": 547482, "key_press": -1, "trial_index": 44}, "uniqueid": "MTK1367:37UQDCYH6Y2YRGMCXU82W3KI6L5V7F", "dateTime": 1515866678808}, {"current_trial": 45, "trialdata": {"rt": -1, "trial_type": "single-stim", "stimulus": "<p id=\"stim\">9</p>", "internal_node_id": "0.0-35.0-1.0", "time_elapsed": 548486, "key_press": -1, "trial_index": 45}, "uniqueid": "MTK1367:37UQDCYH6Y2YRGMCXU82W3KI6L5V7F", "dateTime": 1515866679813}, {"current_trial": 46, "trialdata": {"rt": -1, "trial_type": "single-stim", "stimulus": "<p id=\"stim\">8</p>", "internal_node_id": "0.0-35.0-2.0", "time_elapsed": 549491, "key_press": -1, "trial_index": 46}, "uniqueid": "MTK1367:37UQDCYH6Y2YRGMCXU82W3KI6L5V7F", "dateTime": 1515866680818}, {"current_trial": 47, "trialdata": {"rt": -1, "trial_type": "single-stim", "stimulus": "<p id=\"stim\">7</p>", "internal_node_id": "0.0-35.0-3.0", "time_elapsed": 550499, "key_press": -1, "trial_index": 47}, "uniqueid": "MTK1367:37UQDCYH6Y2YRGMCXU82W3KI6L5V7F", "dateTime": 1515866681825}, {"current_trial": 48, "trialdata": {"rt": -1, "trial_type": "single-stim", "stimulus": "<p id=\"stim\">6</p>", "internal_node_id": "0.0-35.0-4.0", "time_elapsed": 551506, "key_press": -1, "trial_index": 48}, "uniqueid": "MTK1367:37UQDCYH6Y2YRGMCXU82W3KI6L5V7F", "dateTime": 1515866682833}, {"current_trial": 49, "trialdata": {"rt": -1, "trial_type": "single-stim", "stimulus": "<p id=\"stim\">5</p>", "internal_node_id": "0.0-35.0-5.0", "time_elapsed": 552514, "key_press": -1, "trial_index": 49}, "uniqueid": "MTK1367:37UQDCYH6Y2YRGMCXU82W3KI6L5V7F", "dateTime": 1515866683841}, {"current_trial": 50, "trialdata": {"rt": -1, "trial_type": "single-stim", "stimulus": "<p id=\"stim\">4</p>", "internal_node_id": "0.0-35.0-6.0", "time_elapsed": 553518, "key_press": -1, "trial_index": 50}, "uniqueid": "MTK1367:37UQDCYH6Y2YRGMCXU82W3KI6L5V7F", "dateTime": 1515866684845}, {"current_trial": 51, "trialdata": {"rt": -1, "trial_type": "single-stim", "stimulus": "<p id=\"stim\">3</p>", "internal_node_id": "0.0-35.0-7.0", "time_elapsed": 554521, "key_press": -1, "trial_index": 51}, "uniqueid": "MTK1367:37UQDCYH6Y2YRGMCXU82W3KI6L5V7F", "dateTime": 1515866685848}, {"current_trial": 52, "trialdata": {"rt": -1, "trial_type": "single-stim", "stimulus": "<p id=\"stim\">2</p>", "internal_node_id": "0.0-35.0-8.0", "time_elapsed": 555528, "key_press": -1, "trial_index": 52}, "uniqueid": "MTK1367:37UQDCYH6Y2YRGMCXU82W3KI6L5V7F", "dateTime": 1515866686854}, {"current_trial": 53, "trialdata": {"rt": -1, "trial_type": "single-stim", "stimulus": "<p id=\"stim\">1</p>", "internal_node_id": "0.0-35.0-9.0", "time_elapsed": 556531, "key_press": -1, "trial_index": 53}, "uniqueid": "MTK1367:37UQDCYH6Y2YRGMCXU82W3KI6L5V7F", "dateTime": 1515866687859}, {"current_trial": 54, "trialdata": {"rt": -1, "trial_type": "single-stim", "stimulus": "<p id=\"stim\">+</p>", "internal_node_id": "0.0-36.0-0.0", "time_elapsed": 558038, "key_press": -1, "type": "FIXATION", "trial_index": 54}, "uniqueid": "MTK1367:37UQDCYH6Y2YRGMCXU82W3KI6L5V7F", "dateTime": 1515866689365}, {"current_trial": 55, "trialdata": {"rt": -1, "trial_type": "single-stim", "word": "costume", "stimulus": "<p id=\"stim\">COSTUME</p>", "conditions": [18, 1200, "v", 18000], "internal_node_id": "0.0-37.0", "trial": 1, "time_elapsed": 559241, "serialpos": 0, "key_press": -1, "wordID": 382, "type": "PRES_VIS", "trial_index": 55}, "uniqueid": "MTK1367:37UQDCYH6Y2YRGMCXU82W3KI6L5V7F", "dateTime": 1515866690567}, {"current_trial": 56, "trialdata": {"rt": -1, "trial_type": "single-stim", "word": "softball", "stimulus": "<p id=\"stim\">SOFTBALL</p>", "conditions": [18, 1200, "v", 18000], "internal_node_id": "0.0-38.0", "trial": 1, "time_elapsed": 561455, "serialpos": 1, "key_press": -1, "wordID": 1342, "type": "PRES_VIS", "trial_index": 56}, "uniqueid": "MTK1367:37UQDCYH6Y2YRGMCXU82W3KI6L5V7F", "dateTime": 1515866692781}, {"current_trial": 57, "trialdata": {"rt": -1, "trial_type": "single-stim", "word": "scallop", "stimulus": "<p id=\"stim\">SCALLOP</p>", "conditions": [18, 1200, "v", 18000], "internal_node_id": "0.0-39.0", "trial": 1, "time_elapsed": 563749, "serialpos": 2, "key_press": -1, "wordID": 1241, "type": "PRES_VIS", "trial_index": 57}, "uniqueid": "MTK1367:37UQDCYH6Y2YRGMCXU82W3KI6L5V7F", "dateTime": 1515866695076}, {"current_trial": 58, "trialdata": {"rt": -1, "trial_type": "single-stim", "word": "scarf", "stimulus": "<p id=\"stim\">SCARF</p>", "conditions": [18, 1200, "v", 18000], "internal_node_id": "0.0-40.0", "trial": 1, "time_elapsed": 565825, "serialpos": 3, "key_press": -1, "wordID": 1245, "type": "PRES_VIS", "trial_index": 58}, "uniqueid": "MTK1367:37UQDCYH6Y2YRGMCXU82W3KI6L5V7F", "dateTime": 1515866697151}, {"current_trial": 59, "trialdata": {"rt": -1, "trial_type": "single-stim", "word": "guard", "stimulus": "<p id=\"stim\">GUARD</p>", "conditions": [18, 1200, "v", 18000], "internal_node_id": "0.0-41.0", "trial": 1, "time_elapsed": 567899, "serialpos": 4, "key_press": -1, "wordID": 666, "type": "PRES_VIS", "trial_index": 59}, "uniqueid": "MTK1367:37UQDCYH6Y2YRGMCXU82W3KI6L5V7F", "dateTime": 1515866699225}, {"current_trial": 60, "trialdata": {"rt": -1, "trial_type": "single-stim", "word": "silk", "stimulus": "<p id=\"stim\">SILK</p>", "conditions": [18, 1200, "v", 18000], "internal_node_id": "0.0-42.0", "trial": 1, "time_elapsed": 569982, "serialpos": 5, "key_press": -1, "wordID": 1306, "type": "PRES_VIS", "trial_index": 60}, "uniqueid": "MTK1367:37UQDCYH6Y2YRGMCXU82W3KI6L5V7F", "dateTime": 1515866701309}, {"current_trial": 61, "trialdata": {"rt": -1, "trial_type": "single-stim", "word": "princess", "stimulus": "<p id=\"stim\">PRINCESS</p>", "conditions": [18, 1200, "v", 18000], "internal_node_id": "0.0-43.0", "trial": 1, "time_elapsed": 572230, "serialpos": 6, "key_press": -1, "wordID": 1124, "type": "PRES_VIS", "trial_index": 61}, "uniqueid": "MTK1367:37UQDCYH6Y2YRGMCXU82W3KI6L5V7F", "dateTime": 1515866703556}, {"current_trial": 62, "trialdata": {"rt": -1, "trial_type": "single-stim", "word": "expert", "stimulus": "<p id=\"stim\">EXPERT</p>", "conditions": [18, 1200, "v", 18000], "internal_node_id": "0.0-44.0", "trial": 1, "time_elapsed": 574248, "serialpos": 7, "key_press": -1, "wordID": 542, "type": "PRES_VIS", "trial_index": 62}, "uniqueid": "MTK1367:37UQDCYH6Y2YRGMCXU82W3KI6L5V7F", "dateTime": 1515866705575}, {"current_trial": 63, "trialdata": {"rt": -1, "trial_type": "single-stim", "word": "item", "stimulus": "<p id=\"stim\">ITEM</p>", "conditions": [18, 1200, "v", 18000], "internal_node_id": "0.0-45.0", "trial": 1, "time_elapsed": 576591, "serialpos": 8, "key_press": -1, "wordID": 745, "type": "PRES_VIS", "trial_index": 63}, "uniqueid": "MTK1367:37UQDCYH6Y2YRGMCXU82W3KI6L5V7F", "dateTime": 1515866707918}, {"current_trial": 64, "trialdata": {"rt": -1, "trial_type": "single-stim", "word": "dancer", "stimulus": "<p id=\"stim\">DANCER</p>", "conditions": [18, 1200, "v", 18000], "internal_node_id": "0.0-46.0", "trial": 1, "time_elapsed": 578878, "serialpos": 9, "key_press": -1, "wordID": 436, "type": "PRES_VIS", "trial_index": 64}, "uniqueid": "MTK1367:37UQDCYH6Y2YRGMCXU82W3KI6L5V7F", "dateTime": 1515866710205}, {"current_trial": 65, "trialdata": {"rt": -1, "trial_type": "single-stim", "word": "camel", "stimulus": "<p id=\"stim\">CAMEL</p>", "conditions": [18, 1200, "v", 18000], "internal_node_id": "0.0-47.0", "trial": 1, "time_elapsed": 581279, "serialpos": 10, "key_press": -1, "wordID": 222, "type": "PRES_VIS", "trial_index": 65}, "uniqueid": "MTK1367:37UQDCYH6Y2YRGMCXU82W3KI6L5V7F", "dateTime": 1515866712606}, {"current_trial": 66, "trialdata": {"rt": -1, "trial_type": "single-stim", "word": "turnip", "stimulus": "<p id=\"stim\">TURNIP</p>", "conditions": [18, 1200, "v", 18000], "internal_node_id": "0.0-48.0", "trial": 1, "time_elapsed": 583413, "serialpos": 11, "key_press": -1, "wordID": 1520, "type": "PRES_VIS", "trial_index": 66}, "uniqueid": "MTK1367:37UQDCYH6Y2YRGMCXU82W3KI6L5V7F", "dateTime": 1515866714739}, {"current_trial": 67, "trialdata": {"rt": -1, "trial_type": "single-stim", "word": "ozone", "stimulus": "<p id=\"stim\">OZONE</p>", "conditions": [18, 1200, "v", 18000], "internal_node_id": "0.0-49.0", "trial": 1, "time_elapsed": 585534, "serialpos": 12, "key_press": -1, "wordID": 995, "type": "PRES_VIS", "trial_index": 67}, "uniqueid": "MTK1367:37UQDCYH6Y2YRGMCXU82W3KI6L5V7F", "dateTime": 1515866716861}, {"current_trial": 68, "trialdata": {"rt": -1, "trial_type": "single-stim", "word": "glass", "stimulus": "<p id=\"stim\">GLASS</p>", "conditions": [18, 1200, "v", 18000], "internal_node_id": "0.0-50.0", "trial": 1, "time_elapsed": 587841, "serialpos": 13, "key_press": -1, "wordID": 638, "type": "PRES_VIS", "trial_index": 68}, "uniqueid": "MTK1367:37UQDCYH6Y2YRGMCXU82W3KI6L5V7F", "dateTime": 1515866719206}, {"current_trial": 69, "trialdata": {"rt": -1, "trial_type": "single-stim", "word": "pastry", "stimulus": "<p id=\"stim\">PASTRY</p>", "conditions": [18, 1200, "v", 18000], "internal_node_id": "0.0-51.0", "trial": 1, "time_elapsed": 589969, "serialpos": 14, "key_press": -1, "wordID": 1021, "type": "PRES_VIS", "trial_index": 69}, "uniqueid": "MTK1367:37UQDCYH6Y2YRGMCXU82W3KI6L5V7F", "dateTime": 1515866721296}, {"current_trial": 70, "trialdata": {"rt": -1, "trial_type": "single-stim", "word": "belly", "stimulus": "<p id=\"stim\">BELLY</p>", "conditions": [18, 1200, "v", 18000], "internal_node_id": "0.0-52.0", "trial": 1, "time_elapsed": 592265, "serialpos": 15, "key_press": -1, "wordID": 118, "type": "PRES_VIS", "trial_index": 70}, "uniqueid": "MTK1367:37UQDCYH6Y2YRGMCXU82W3KI6L5V7F", "dateTime": 1515866723592}, {"current_trial": 71, "trialdata": {"rt": -1, "trial_type": "single-stim", "word": "taxi", "stimulus": "<p id=\"stim\">TAXI</p>", "conditions": [18, 1200, "v", 18000], "internal_node_id": "0.0-53.0", "trial": 1, "time_elapsed": 594525, "serialpos": 16, "key_press": -1, "wordID": 1437, "type": "PRES_VIS", "trial_index": 71}, "uniqueid": "MTK1367:37UQDCYH6Y2YRGMCXU82W3KI6L5V7F", "dateTime": 1515866725851}, {"current_trial": 72, "trialdata": {"rt": -1, "trial_type": "single-stim", "word": "shorts", "stimulus": "<p id=\"stim\">SHORTS</p>", "conditions": [18, 1200, "v", 18000], "internal_node_id": "0.0-54.0", "trial": 1, "time_elapsed": 596904, "serialpos": 17, "key_press": -1, "wordID": 1292, "type": "PRES_VIS", "trial_index": 72}, "uniqueid": "MTK1367:37UQDCYH6Y2YRGMCXU82W3KI6L5V7F", "dateTime": 1515866728230}, {"current_trial": 73, "trialdata": {"rt": -1, "trial_type": "single-stim", "stimulus": "", "internal_node_id": "0.0-55.0-0.0", "time_elapsed": 599019, "key_press": -1, "type": "PRE_RECALL_DELAY", "trial_index": 73}, "uniqueid": "MTK1367:37UQDCYH6Y2YRGMCXU82W3KI6L5V7F", "dateTime": 1515866730346}, {"current_trial": 74, "trialdata": {"rt": -1000, "trial_type": "single-audio", "stimulus": "/static/audio/400Hz.wav", "internal_node_id": "0.0-56.0", "time_elapsed": 599523, "key_press": -1, "type": "PRE_RECALL_ALERT", "trial_index": 74}, "uniqueid": "MTK1367:37UQDCYH6Y2YRGMCXU82W3KI6L5V7F", "dateTime": 1515866730849}, {"current_trial": 75, "trialdata": {"rt": [3040, 6448, 8112, 10308, 12833, 25388, 47715, 57269], "recwords": ["costumes", "golfball", "scallops", "shorts", "silk", "ozone", "blouse", "stretch"], "key_times": [1388, 1594, 1738, 2025, 2201, 2433, 2530, 2714, 3040, 3721, 3874, 4049, 4369, 5409, 5602, 6049, 6178, 6448, 6758, 6979, 7088, 7267, 7415, 7554, 7699, 7777, 8112, 9321, 9393, 9554, 9714, 9890, 10035, 10308, 12067, 12194, 12387, 12547, 12833, 24133, 24556, 24708, 24900, 25071, 25388, 45652, 46557, 46820, 47092, 47259, 47477, 47715, 55620, 55824, 56047, 56133, 56325, 56558, 56717, 57269], "trial_type": "free-recall", "conditions": [18, 1200, "v", 18000], "internal_node_id": "0.0-57.0-0.0", "key_presses": [67, 79, 83, 84, 85, 77, 69, 83, 13, 71, 79, 76, 70, 66, 65, 76, 76, 13, 83, 67, 65, 76, 76, 79, 80, 83, 13, 83, 72, 79, 82, 84, 83, 13, 83, 73, 76, 75, 13, 79, 90, 79, 78, 69, 13, 66, 76, 79, 85, 83, 69, 13, 83, 84, 82, 69, 84, 67, 72, 13], "trial": 1, "time_elapsed": 659530, "type": "FREE_RECALL", "trial_index": 75}, "uniqueid": "MTK1367:37UQDCYH6Y2YRGMCXU82W3KI6L5V7F", "dateTime": 1515866790863}, {"current_trial": 76, "trialdata": {"rt": 2337, "trial_type": "text", "internal_node_id": "0.0-58.0", "time_elapsed": 663880, "key_press": 32, "type": "INSTRUCTIONS", "trial_index": 76}, "uniqueid": "MTK1367:37UQDCYH6Y2YRGMCXU82W3KI6L5V7F", "dateTime": 1515866795208}, {"current_trial": 77, "trialdata": {"rt": [3458, 10147, 15698, 19747], "trial_type": "math-distractor", "key_times": [2766, 2835, 3458, 9562, 9723, 10147, 15262, 15348, 15698, 18879, 19100, 19747, 23493, 23659], "responses": ["18", "19", "19", "17"], "num2": [8, 8, 8, 3, 7], "num3": [2, 5, 6, 8, 7], "conditions": [24, 1600, "v", 24000], "internal_node_id": "0.0-59.0", "key_presses": [97, 104, 13, 97, 105, 13, 97, 105, 13, 97, 103, 13, 98, 96], "trial": 2, "time_elapsed": 688894, "type": "DISTRACTOR", "trial_index": 77, "num1": [8, 6, 5, 6, 6]}, "uniqueid": "MTK1367:37UQDCYH6Y2YRGMCXU82W3KI6L5V7F", "dateTime": 1515866820220}, {"current_trial": 78, "trialdata": {"rt": -1, "trial_type": "single-stim", "stimulus": "<p id=\"stim\">10</p>", "internal_node_id": "0.0-60.0-0.0", "time_elapsed": 691904, "key_press": -1, "trial_index": 78}, "uniqueid": "MTK1367:37UQDCYH6Y2YRGMCXU82W3KI6L5V7F", "dateTime": 1515866823231}, {"current_trial": 79, "trialdata": {"rt": -1, "trial_type": "single-stim", "stimulus": "<p id=\"stim\">9</p>", "internal_node_id": "0.0-60.0-1.0", "time_elapsed": 692910, "key_press": -1, "trial_index": 79}, "uniqueid": "MTK1367:37UQDCYH6Y2YRGMCXU82W3KI6L5V7F", "dateTime": 1515866824236}, {"current_trial": 80, "trialdata": {"rt": -1, "trial_type": "single-stim", "stimulus": "<p id=\"stim\">8</p>", "internal_node_id": "0.0-60.0-2.0", "time_elapsed": 693914, "key_press": -1, "trial_index": 80}, "uniqueid": "MTK1367:37UQDCYH6Y2YRGMCXU82W3KI6L5V7F", "dateTime": 1515866825240}, {"current_trial": 81, "trialdata": {"rt": -1, "trial_type": "single-stim", "stimulus": "<p id=\"stim\">7</p>", "internal_node_id": "0.0-60.0-3.0", "time_elapsed": 694918, "key_press": -1, "trial_index": 81}, "uniqueid": "MTK1367:37UQDCYH6Y2YRGMCXU82W3KI6L5V7F", "dateTime": 1515866826244}, {"current_trial": 82, "trialdata": {"rt": -1, "trial_type": "single-stim", "stimulus": "<p id=\"stim\">6</p>", "internal_node_id": "0.0-60.0-4.0", "time_elapsed": 695923, "key_press": -1, "trial_index": 82}, "uniqueid": "MTK1367:37UQDCYH6Y2YRGMCXU82W3KI6L5V7F", "dateTime": 1515866827249}, {"current_trial": 83, "trialdata": {"rt": -1, "trial_type": "single-stim", "stimulus": "<p id=\"stim\">5</p>", "internal_node_id": "0.0-60.0-5.0", "time_elapsed": 696927, "key_press": -1, "trial_index": 83}, "uniqueid": "MTK1367:37UQDCYH6Y2YRGMCXU82W3KI6L5V7F", "dateTime": 1515866828253}, {"current_trial": 84, "trialdata": {"rt": -1, "trial_type": "single-stim", "stimulus": "<p id=\"stim\">4</p>", "internal_node_id": "0.0-60.0-6.0", "time_elapsed": 697931, "key_press": -1, "trial_index": 84}, "uniqueid": "MTK1367:37UQDCYH6Y2YRGMCXU82W3KI6L5V7F", "dateTime": 1515866829257}, {"current_trial": 85, "trialdata": {"rt": -1, "trial_type": "single-stim", "stimulus": "<p id=\"stim\">3</p>", "internal_node_id": "0.0-60.0-7.0", "time_elapsed": 698934, "key_press": -1, "trial_index": 85}, "uniqueid": "MTK1367:37UQDCYH6Y2YRGMCXU82W3KI6L5V7F", "dateTime": 1515866830261}, {"current_trial": 86, "trialdata": {"rt": -1, "trial_type": "single-stim", "stimulus": "<p id=\"stim\">2</p>", "internal_node_id": "0.0-60.0-8.0", "time_elapsed": 699940, "key_press": -1, "trial_index": 86}, "uniqueid": "MTK1367:37UQDCYH6Y2YRGMCXU82W3KI6L5V7F", "dateTime": 1515866831267}, {"current_trial": 87, "trialdata": {"rt": -1, "trial_type": "single-stim", "stimulus": "<p id=\"stim\">1</p>", "internal_node_id": "0.0-60.0-9.0", "time_elapsed": 700945, "key_press": -1, "trial_index": 87}, "uniqueid": "MTK1367:37UQDCYH6Y2YRGMCXU82W3KI6L5V7F", "dateTime": 1515866832272}, {"current_trial": 88, "trialdata": {"rt": -1, "trial_type": "single-stim", "stimulus": "<p id=\"stim\">+</p>", "internal_node_id": "0.0-61.0-0.0", "time_elapsed": 702451, "key_press": -1, "type": "FIXATION", "trial_index": 88}, "uniqueid": "MTK1367:37UQDCYH6Y2YRGMCXU82W3KI6L5V7F", "dateTime": 1515866833777}, {"current_trial": 89, "trialdata": {"rt": -1, "trial_type": "single-stim", "word": "bug", "stimulus": "<p id=\"stim\">BUG</p>", "conditions": [24, 1600, "v", 24000], "internal_node_id": "0.0-62.0", "trial": 2, "time_elapsed": 704055, "serialpos": 0, "key_press": -1, "wordID": 186, "type": "PRES_VIS", "trial_index": 89}, "uniqueid": "MTK1367:37UQDCYH6Y2YRGMCXU82W3KI6L5V7F", "dateTime": 1515866835381}, {"current_trial": 90, "trialdata": {"rt": -1, "trial_type": "single-stim", "word": "hero", "stimulus": "<p id=\"stim\">HERO</p>", "conditions": [24, 1600, "v", 24000], "internal_node_id": "0.0-63.0", "trial": 2, "time_elapsed": 706852, "serialpos": 1, "key_press": -1, "wordID": 705, "type": "PRES_VIS", "trial_index": 90}, "uniqueid": "MTK1367:37UQDCYH6Y2YRGMCXU82W3KI6L5V7F", "dateTime": 1515866838178}, {"current_trial": 91, "trialdata": {"rt": -1, "trial_type": "single-stim", "word": "church", "stimulus": "<p id=\"stim\">CHURCH</p>", "conditions": [24, 1600, "v", 24000], "internal_node_id": "0.0-64.0", "trial": 2, "time_elapsed": 709491, "serialpos": 2, "key_press": -1, "wordID": 306, "type": "PRES_VIS", "trial_index": 91}, "uniqueid": "MTK1367:37UQDCYH6Y2YRGMCXU82W3KI6L5V7F", "dateTime": 1515866840819}, {"current_trial": 92, "trialdata": {"rt": -1, "trial_type": "single-stim", "word": "drink", "stimulus": "<p id=\"stim\">DRINK</p>", "conditions": [24, 1600, "v", 24000], "internal_node_id": "0.0-65.0", "trial": 2, "time_elapsed": 711943, "serialpos": 3, "key_press": -1, "wordID": 497, "type": "PRES_VIS", "trial_index": 92}, "uniqueid": "MTK1367:37UQDCYH6Y2YRGMCXU82W3KI6L5V7F", "dateTime": 1515866843269}, {"current_trial": 93, "trialdata": {"rt": -1, "trial_type": "single-stim", "word": "onion", "stimulus": "<p id=\"stim\">ONION</p>", "conditions": [24, 1600, "v", 24000], "internal_node_id": "0.0-66.0", "trial": 2, "time_elapsed": 714399, "serialpos": 4, "key_press": -1, "wordID": 976, "type": "PRES_VIS", "trial_index": 93}, "uniqueid": "MTK1367:37UQDCYH6Y2YRGMCXU82W3KI6L5V7F", "dateTime": 1515866845725}, {"current_trial": 94, "trialdata": {"rt": -1, "trial_type": "single-stim", "word": "zebra", "stimulus": "<p id=\"stim\">ZEBRA</p>", "conditions": [24, 1600, "v", 24000], "internal_node_id": "0.0-67.0", "trial": 2, "time_elapsed": 716906, "serialpos": 5, "key_press": -1, "wordID": 1634, "type": "PRES_VIS", "trial_index": 94}, "uniqueid": "MTK1367:37UQDCYH6Y2YRGMCXU82W3KI6L5V7F", "dateTime": 1515866848232}, {"current_trial": 95, "trialdata": {"rt": -1, "trial_type": "single-stim", "word": "flower", "stimulus": "<p id=\"stim\">FLOWER</p>", "conditions": [24, 1600, "v", 24000], "internal_node_id": "0.0-68.0", "trial": 2, "time_elapsed": 719623, "serialpos": 6, "key_press": -1, "wordID": 583, "type": "PRES_VIS", "trial_index": 95}, "uniqueid": "MTK1367:37UQDCYH6Y2YRGMCXU82W3KI6L5V7F", "dateTime": 1515866850950}, {"current_trial": 96, "trialdata": {"rt": -1, "trial_type": "single-stim", "word": "salad", "stimulus": "<p id=\"stim\">SALAD</p>", "conditions": [24, 1600, "v", 24000], "internal_node_id": "0.0-69.0", "trial": 2, "time_elapsed": 722267, "serialpos": 7, "key_press": -1, "wordID": 1223, "type": "PRES_VIS", "trial_index": 96}, "uniqueid": "MTK1367:37UQDCYH6Y2YRGMCXU82W3KI6L5V7F", "dateTime": 1515866853594}, {"current_trial": 97, "trialdata": {"rt": -1, "trial_type": "single-stim", "word": "salmon", "stimulus": "<p id=\"stim\">SALMON</p>", "conditions": [24, 1600, "v", 24000], "internal_node_id": "0.0-70.0", "trial": 2, "time_elapsed": 724906, "serialpos": 8, "key_press": -1, "wordID": 1226, "type": "PRES_VIS", "trial_index": 97}, "uniqueid": "MTK1367:37UQDCYH6Y2YRGMCXU82W3KI6L5V7F", "dateTime": 1515866856232}, {"current_trial": 98, "trialdata": {"rt": -1, "trial_type": "single-stim", "word": "crab", "stimulus": "<p id=\"stim\">CRAB</p>", "conditions": [24, 1600, "v", 24000], "internal_node_id": "0.0-71.0", "trial": 2, "time_elapsed": 727459, "serialpos": 9, "key_press": -1, "wordID": 396, "type": "PRES_VIS", "trial_index": 98}, "uniqueid": "MTK1367:37UQDCYH6Y2YRGMCXU82W3KI6L5V7F", "dateTime": 1515866858786}, {"current_trial": 99, "trialdata": {"rt": -1, "trial_type": "single-stim", "word": "cabbage", "stimulus": "<p id=\"stim\">CABBAGE</p>", "conditions": [24, 1600, "v", 24000], "internal_node_id": "0.0-72.0", "trial": 2, "time_elapsed": 730258, "serialpos": 10, "key_press": -1, "wordID": 209, "type": "PRES_VIS", "trial_index": 99}, "uniqueid": "MTK1367:37UQDCYH6Y2YRGMCXU82W3KI6L5V7F", "dateTime": 1515866861584}, {"current_trial": 100, "trialdata": {"rt": -1, "trial_type": "single-stim", "word": "liver", "stimulus": "<p id=\"stim\">LIVER</p>", "conditions": [24, 1600, "v", 24000], "internal_node_id": "0.0-73.0", "trial": 2, "time_elapsed": 732823, "serialpos": 11, "key_press": -1, "wordID": 832, "type": "PRES_VIS", "trial_index": 100}, "uniqueid": "MTK1367:37UQDCYH6Y2YRGMCXU82W3KI6L5V7F", "dateTime": 1515866864151}, {"current_trial": 101, "trialdata": {"rt": -1, "trial_type": "single-stim", "word": "barrel", "stimulus": "<p id=\"stim\">BARREL</p>", "conditions": [24, 1600, "v", 24000], "internal_node_id": "0.0-74.0", "trial": 2, "time_elapsed": 735475, "serialpos": 12, "key_press": -1, "wordID": 90, "type": "PRES_VIS", "trial_index": 101}, "uniqueid": "MTK1367:37UQDCYH6Y2YRGMCXU82W3KI6L5V7F", "dateTime": 1515866866802}, {"current_trial": 102, "trialdata": {"rt": -1, "trial_type": "single-stim", "word": "banker", "stimulus": "<p id=\"stim\">BANKER</p>", "conditions": [24, 1600, "v", 24000], "internal_node_id": "0.0-75.0", "trial": 2, "time_elapsed": 737902, "serialpos": 13, "key_press": -1, "wordID": 83, "type": "PRES_VIS", "trial_index": 102}, "uniqueid": "MTK1367:37UQDCYH6Y2YRGMCXU82W3KI6L5V7F", "dateTime": 1515866869228}, {"current_trial": 103, "trialdata": {"rt": -1, "trial_type": "single-stim", "word": "lover", "stimulus": "<p id=\"stim\">LOVER</p>", "conditions": [24, 1600, "v", 24000], "internal_node_id": "0.0-76.0", "trial": 2, "time_elapsed": 740426, "serialpos": 14, "key_press": -1, "wordID": 845, "type": "PRES_VIS", "trial_index": 103}, "uniqueid": "MTK1367:37UQDCYH6Y2YRGMCXU82W3KI6L5V7F", "dateTime": 1515866871753}, {"current_trial": 104, "trialdata": {"rt": -1, "trial_type": "single-stim", "word": "brook", "stimulus": "<p id=\"stim\">BROOK</p>", "conditions": [24, 1600, "v", 24000], "internal_node_id": "0.0-77.0", "trial": 2, "time_elapsed": 742993, "serialpos": 15, "key_press": -1, "wordID": 176, "type": "PRES_VIS", "trial_index": 104}, "uniqueid": "MTK1367:37UQDCYH6Y2YRGMCXU82W3KI6L5V7F", "dateTime": 1515866874319}, {"current_trial": 105, "trialdata": {"rt": -1, "trial_type": "single-stim", "word": "critic", "stimulus": "<p id=\"stim\">CRITIC</p>", "conditions": [24, 1600, "v", 24000], "internal_node_id": "0.0-78.0", "trial": 2, "time_elapsed": 745719, "serialpos": 16, "key_press": -1, "wordID": 409, "type": "PRES_VIS", "trial_index": 105}, "uniqueid": "MTK1367:37UQDCYH6Y2YRGMCXU82W3KI6L5V7F", "dateTime": 1515866877045}, {"current_trial": 106, "trialdata": {"rt": -1, "trial_type": "single-stim", "word": "dress", "stimulus": "<p id=\"stim\">DRESS</p>", "conditions": [24, 1600, "v", 24000], "internal_node_id": "0.0-79.0", "trial": 2, "time_elapsed": 748144, "serialpos": 17, "key_press": -1, "wordID": 494, "type": "PRES_VIS", "trial_index": 106}, "uniqueid": "MTK1367:37UQDCYH6Y2YRGMCXU82W3KI6L5V7F", "dateTime": 1515866879471}, {"current_trial": 107, "trialdata": {"rt": -1, "trial_type": "single-stim", "word": "patrol", "stimulus": "<p id=\"stim\">PATROL</p>", "conditions": [24, 1600, "v", 24000], "internal_node_id": "0.0-80.0", "trial": 2, "time_elapsed": 750868, "serialpos": 18, "key_press": -1, "wordID": 1026, "type": "PRES_VIS", "trial_index": 107}, "uniqueid": "MTK1367:37UQDCYH6Y2YRGMCXU82W3KI6L5V7F", "dateTime": 1515866882195}, {"current_trial": 108, "trialdata": {"rt": -1, "trial_type": "single-stim", "word": "jelly", "stimulus": "<p id=\"stim\">JELLY</p>", "conditions": [24, 1600, "v", 24000], "internal_node_id": "0.0-81.0", "trial": 2, "time_elapsed": 753642, "serialpos": 19, "key_press": -1, "wordID": 754, "type": "PRES_VIS", "trial_index": 108}, "uniqueid": "MTK1367:37UQDCYH6Y2YRGMCXU82W3KI6L5V7F", "dateTime": 1515866884968}, {"current_trial": 109, "trialdata": {"rt": -1, "trial_type": "single-stim", "word": "custard", "stimulus": "<p id=\"stim\">CUSTARD</p>", "conditions": [24, 1600, "v", 24000], "internal_node_id": "0.0-82.0", "trial": 2, "time_elapsed": 756090, "serialpos": 20, "key_press": -1, "wordID": 428, "type": "PRES_VIS", "trial_index": 109}, "uniqueid": "MTK1367:37UQDCYH6Y2YRGMCXU82W3KI6L5V7F", "dateTime": 1515866887416}, {"current_trial": 110, "trialdata": {"rt": -1, "trial_type": "single-stim", "word": "cellar", "stimulus": "<p id=\"stim\">CELLAR</p>", "conditions": [24, 1600, "v", 24000], "internal_node_id": "0.0-83.0", "trial": 2, "time_elapsed": 758571, "serialpos": 21, "key_press": -1, "wordID": 266, "type": "PRES_VIS", "trial_index": 110}, "uniqueid": "MTK1367:37UQDCYH6Y2YRGMCXU82W3KI6L5V7F", "dateTime": 1515866889898}, {"current_trial": 111, "trialdata": {"rt": -1, "trial_type": "single-stim", "word": "fleet", "stimulus": "<p id=\"stim\">FLEET</p>", "conditions": [24, 1600, "v", 24000], "internal_node_id": "0.0-84.0", "trial": 2, "time_elapsed": 761163, "serialpos": 22, "key_press": -1, "wordID": 577, "type": "PRES_VIS", "trial_index": 111}, "uniqueid": "MTK1367:37UQDCYH6Y2YRGMCXU82W3KI6L5V7F", "dateTime": 1515866892489}, {"current_trial": 112, "trialdata": {"rt": -1, "trial_type": "single-stim", "word": "river", "stimulus": "<p id=\"stim\">RIVER</p>", "conditions": [24, 1600, "v", 24000], "internal_node_id": "0.0-85.0", "trial": 2, "time_elapsed": 763876, "serialpos": 23, "key_press": -1, "wordID": 1193, "type": "PRES_VIS", "trial_index": 112}, "uniqueid": "MTK1367:37UQDCYH6Y2YRGMCXU82W3KI6L5V7F", "dateTime": 1515866895203}, {"current_trial": 113, "trialdata": {"rt": -1, "trial_type": "single-stim", "stimulus": "", "internal_node_id": "0.0-86.0-0.0", "time_elapsed": 766003, "key_press": -1, "type": "PRE_RECALL_DELAY", "trial_index": 113}, "uniqueid": "MTK1367:37UQDCYH6Y2YRGMCXU82W3KI6L5V7F", "dateTime": 1515866897330}, {"current_trial": 114, "trialdata": {"rt": -1000, "trial_type": "single-audio", "stimulus": "/static/audio/400Hz.wav", "internal_node_id": "0.0-87.0", "time_elapsed": 766509, "key_press": -1, "type": "PRE_RECALL_ALERT", "trial_index": 114}, "uniqueid": "MTK1367:37UQDCYH6Y2YRGMCXU82W3KI6L5V7F", "dateTime": 1515866897835}, {"current_trial": 115, "trialdata": {"rt": [1688, 3704, 7440, 9063, 11095, 12543, 13728, 15249, 19760, 32016], "recwords": ["bug", "hero", "liver", "salmon", "cabbage", "river", "banker", "lover", "crab", "brook"], "key_times": [1394, 1410, 1528, 1688, 1896, 2104, 2269, 2857, 3704, 6279, 6432, 6680, 6760, 6929, 7440, 7865, 7939, 8120, 8312, 8489, 8648, 9063, 9729, 9824, 10165, 10280, 10409, 10535, 10737, 11095, 11635, 11825, 12064, 12176, 12337, 12543, 12932, 13014, 13153, 13280, 13440, 13552, 13728, 14377, 14576, 14737, 14833, 15001, 15249, 18857, 19051, 19251, 19529, 19760, 30914, 31080, 31314, 31471, 31632, 32016], "trial_type": "free-recall", "conditions": [24, 1600, "v", 24000], "internal_node_id": "0.0-88.0-0.0", "key_presses": [66, 85, 71, 32, 72, 69, 82, 79, 32, 76, 73, 86, 69, 82, 13, 83, 65, 76, 77, 79, 78, 13, 67, 65, 66, 66, 65, 71, 69, 13, 82, 73, 86, 69, 82, 13, 66, 65, 78, 75, 69, 82, 13, 76, 79, 86, 69, 82, 13, 67, 82, 65, 66, 13, 66, 82, 79, 79, 75, 13], "trial": 2, "time_elapsed": 826518, "type": "FREE_RECALL", "trial_index": 115}, "uniqueid": "MTK1367:37UQDCYH6Y2YRGMCXU82W3KI6L5V7F", "dateTime": 1515866957859}, {"current_trial": 116, "trialdata": {"rt": 335512, "trial_type": "text", "internal_node_id": "0.0-89.0", "time_elapsed": 1164049, "key_press": 32, "type": "INSTRUCTIONS", "trial_index": 116}, "uniqueid": "MTK1367:37UQDCYH6Y2YRGMCXU82W3KI6L5V7F", "dateTime": 1515867295375}, {"current_trial": 117, "trialdata": {"rt": [3845, 9095, 11540, 15949, 18253, 22925], "trial_type": "math-distractor", "key_times": [3358, 3413, 3845, 8616, 8626, 9095, 10960, 11110, 11540, 15404, 15606, 15949, 17702, 17892, 18253, 22584, 22594, 22925], "responses": ["13", "15", "14", "17", "14", "18"], "num2": [4, 9, 1, 6, 2, 8, 1], "num3": [8, 3, 9, 7, 8, 6, 5], "conditions": [24, 800, "v", 24000], "internal_node_id": "0.0-90.0", "key_presses": [97, 99, 13, 97, 101, 13, 97, 100, 13, 97, 103, 13, 97, 100, 13, 97, 104, 13], "trial": 3, "time_elapsed": 1190071, "type": "DISTRACTOR", "trial_index": 117, "num1": [1, 3, 4, 4, 4, 4, 9]}, "uniqueid": "MTK1367:37UQDCYH6Y2YRGMCXU82W3KI6L5V7F", "dateTime": 1515867321398}, {"current_trial": 118, "trialdata": {"rt": -1, "trial_type": "single-stim", "stimulus": "<p id=\"stim\">10</p>", "internal_node_id": "0.0-91.0-0.0", "time_elapsed": 1193077, "key_press": -1, "trial_index": 118}, "uniqueid": "MTK1367:37UQDCYH6Y2YRGMCXU82W3KI6L5V7F", "dateTime": 1515867324403}, {"current_trial": 119, "trialdata": {"rt": -1, "trial_type": "single-stim", "stimulus": "<p id=\"stim\">9</p>", "internal_node_id": "0.0-91.0-1.0", "time_elapsed": 1194080, "key_press": -1, "trial_index": 119}, "uniqueid": "MTK1367:37UQDCYH6Y2YRGMCXU82W3KI6L5V7F", "dateTime": 1515867325407}, {"current_trial": 120, "trialdata": {"rt": -1, "trial_type": "single-stim", "stimulus": "<p id=\"stim\">8</p>", "internal_node_id": "0.0-91.0-2.0", "time_elapsed": 1195085, "key_press": -1, "trial_index": 120}, "uniqueid": "MTK1367:37UQDCYH6Y2YRGMCXU82W3KI6L5V7F", "dateTime": 1515867326412}, {"current_trial": 121, "trialdata": {"rt": -1, "trial_type": "single-stim", "stimulus": "<p id=\"stim\">7</p>", "internal_node_id": "0.0-91.0-3.0", "time_elapsed": 1196090, "key_press": -1, "trial_index": 121}, "uniqueid": "MTK1367:37UQDCYH6Y2YRGMCXU82W3KI6L5V7F", "dateTime": 1515867327416}, {"current_trial": 122, "trialdata": {"rt": -1, "trial_type": "single-stim", "stimulus": "<p id=\"stim\">6</p>", "internal_node_id": "0.0-91.0-4.0", "time_elapsed": 1197095, "key_press": -1, "trial_index": 122}, "uniqueid": "MTK1367:37UQDCYH6Y2YRGMCXU82W3KI6L5V7F", "dateTime": 1515867328422}, {"current_trial": 123, "trialdata": {"rt": -1, "trial_type": "single-stim", "stimulus": "<p id=\"stim\">5</p>", "internal_node_id": "0.0-91.0-5.0", "time_elapsed": 1198099, "key_press": -1, "trial_index": 123}, "uniqueid": "MTK1367:37UQDCYH6Y2YRGMCXU82W3KI6L5V7F", "dateTime": 1515867329425}, {"current_trial": 124, "trialdata": {"rt": -1, "trial_type": "single-stim", "stimulus": "<p id=\"stim\">4</p>", "internal_node_id": "0.0-91.0-6.0", "time_elapsed": 1199104, "key_press": -1, "trial_index": 124}, "uniqueid": "MTK1367:37UQDCYH6Y2YRGMCXU82W3KI6L5V7F", "dateTime": 1515867330431}, {"current_trial": 125, "trialdata": {"rt": -1, "trial_type": "single-stim", "stimulus": "<p id=\"stim\">3</p>", "internal_node_id": "0.0-91.0-7.0", "time_elapsed": 1200109, "key_press": -1, "trial_index": 125}, "uniqueid": "MTK1367:37UQDCYH6Y2YRGMCXU82W3KI6L5V7F", "dateTime": 1515867331435}, {"current_trial": 126, "trialdata": {"rt": -1, "trial_type": "single-stim", "stimulus": "<p id=\"stim\">2</p>", "internal_node_id": "0.0-91.0-8.0", "time_elapsed": 1201112, "key_press": -1, "trial_index": 126}, "uniqueid": "MTK1367:37UQDCYH6Y2YRGMCXU82W3KI6L5V7F", "dateTime": 1515867332439}, {"current_trial": 127, "trialdata": {"rt": -1, "trial_type": "single-stim", "stimulus": "<p id=\"stim\">1</p>", "internal_node_id": "0.0-91.0-9.0", "time_elapsed": 1202117, "key_press": -1, "trial_index": 127}, "uniqueid": "MTK1367:37UQDCYH6Y2YRGMCXU82W3KI6L5V7F", "dateTime": 1515867333443}, {"current_trial": 128, "trialdata": {"rt": -1, "trial_type": "single-stim", "stimulus": "<p id=\"stim\">+</p>", "internal_node_id": "0.0-92.0-0.0", "time_elapsed": 1203622, "key_press": -1, "type": "FIXATION", "trial_index": 128}, "uniqueid": "MTK1367:37UQDCYH6Y2YRGMCXU82W3KI6L5V7F", "dateTime": 1515867334948}, {"current_trial": 129, "trialdata": {"rt": -1, "trial_type": "single-stim", "word": "zipper", "stimulus": "<p id=\"stim\">ZIPPER</p>", "conditions": [24, 800, "v", 24000], "internal_node_id": "0.0-93.0", "trial": 3, "time_elapsed": 1204427, "serialpos": 0, "key_press": -1, "wordID": 1635, "type": "PRES_VIS", "trial_index": 129}, "uniqueid": "MTK1367:37UQDCYH6Y2YRGMCXU82W3KI6L5V7F", "dateTime": 1515867335753}, {"current_trial": 130, "trialdata": {"rt": -1, "trial_type": "single-stim", "word": "rooster", "stimulus": "<p id=\"stim\">ROOSTER</p>", "conditions": [24, 800, "v", 24000], "internal_node_id": "0.0-94.0", "trial": 3, "time_elapsed": 1206337, "serialpos": 1, "key_press": -1, "wordID": 1208, "type": "PRES_VIS", "trial_index": 130}, "uniqueid": "MTK1367:37UQDCYH6Y2YRGMCXU82W3KI6L5V7F", "dateTime": 1515867337665}, {"current_trial": 131, "trialdata": {"rt": -1, "trial_type": "single-stim", "word": "chauffeur", "stimulus": "<p id=\"stim\">CHAUFFEUR</p>", "conditions": [24, 800, "v", 24000], "internal_node_id": "0.0-95.0", "trial": 3, "time_elapsed": 1208316, "serialpos": 2, "key_press": -1, "wordID": 282, "type": "PRES_VIS", "trial_index": 131}, "uniqueid": "MTK1367:37UQDCYH6Y2YRGMCXU82W3KI6L5V7F", "dateTime": 1515867339642}, {"current_trial": 132, "trialdata": {"rt": -1, "trial_type": "single-stim", "word": "woman", "stimulus": "<p id=\"stim\">WOMAN</p>", "conditions": [24, 800, "v", 24000], "internal_node_id": "0.0-96.0", "trial": 3, "time_elapsed": 1210242, "serialpos": 3, "key_press": -1, "wordID": 1619, "type": "PRES_VIS", "trial_index": 132}, "uniqueid": "MTK1367:37UQDCYH6Y2YRGMCXU82W3KI6L5V7F", "dateTime": 1515867341568}, {"current_trial": 133, "trialdata": {"rt": -1, "trial_type": "single-stim", "word": "seal", "stimulus": "<p id=\"stim\">SEAL</p>", "conditions": [24, 800, "v", 24000], "internal_node_id": "0.0-97.0", "trial": 3, "time_elapsed": 1211861, "serialpos": 4, "key_press": -1, "wordID": 1261, "type": "PRES_VIS", "trial_index": 133}, "uniqueid": "MTK1367:37UQDCYH6Y2YRGMCXU82W3KI6L5V7F", "dateTime": 1515867343188}, {"current_trial": 134, "trialdata": {"rt": -1, "trial_type": "single-stim", "word": "fox", "stimulus": "<p id=\"stim\">FOX</p>", "conditions": [24, 800, "v", 24000], "internal_node_id": "0.0-98.0", "trial": 3, "time_elapsed": 1213832, "serialpos": 5, "key_press": -1, "wordID": 597, "type": "PRES_VIS", "trial_index": 134}, "uniqueid": "MTK1367:37UQDCYH6Y2YRGMCXU82W3KI6L5V7F", "dateTime": 1515867345158}, {"current_trial": 135, "trialdata": {"rt": -1, "trial_type": "single-stim", "word": "dashboard", "stimulus": "<p id=\"stim\">DASHBOARD</p>", "conditions": [24, 800, "v", 24000], "internal_node_id": "0.0-99.0", "trial": 3, "time_elapsed": 1215706, "serialpos": 6, "key_press": -1, "wordID": 440, "type": "PRES_VIS", "trial_index": 135}, "uniqueid": "MTK1367:37UQDCYH6Y2YRGMCXU82W3KI6L5V7F", "dateTime": 1515867347032}, {"current_trial": 136, "trialdata": {"rt": -1, "trial_type": "single-stim", "word": "velvet", "stimulus": "<p id=\"stim\">VELVET</p>", "conditions": [24, 800, "v", 24000], "internal_node_id": "0.0-100.0", "trial": 3, "time_elapsed": 1217644, "serialpos": 7, "key_press": -1, "wordID": 1554, "type": "PRES_VIS", "trial_index": 136}, "uniqueid": "MTK1367:37UQDCYH6Y2YRGMCXU82W3KI6L5V7F", "dateTime": 1515867348971}, {"current_trial": 137, "trialdata": {"rt": -1, "trial_type": "single-stim", "word": "plaza", "stimulus": "<p id=\"stim\">PLAZA</p>", "conditions": [24, 800, "v", 24000], "internal_node_id": "0.0-101.0", "trial": 3, "time_elapsed": 1219593, "serialpos": 8, "key_press": -1, "wordID": 1087, "type": "PRES_VIS", "trial_index": 137}, "uniqueid": "MTK1367:37UQDCYH6Y2YRGMCXU82W3KI6L5V7F", "dateTime": 1515867350920}, {"current_trial": 138, "trialdata": {"rt": -1, "trial_type": "single-stim", "word": "banquet", "stimulus": "<p id=\"stim\">BANQUET</p>", "conditions": [24, 800, "v", 24000], "internal_node_id": "0.0-102.0", "trial": 3, "time_elapsed": 1221515, "serialpos": 9, "key_press": -1, "wordID": 85, "type": "PRES_VIS", "trial_index": 138}, "uniqueid": "MTK1367:37UQDCYH6Y2YRGMCXU82W3KI6L5V7F", "dateTime": 1515867352841}, {"current_trial": 139, "trialdata": {"rt": -1, "trial_type": "single-stim", "word": "sword", "stimulus": "<p id=\"stim\">SWORD</p>", "conditions": [24, 800, "v", 24000], "internal_node_id": "0.0-103.0", "trial": 3, "time_elapsed": 1223145, "serialpos": 10, "key_press": -1, "wordID": 1422, "type": "PRES_VIS", "trial_index": 139}, "uniqueid": "MTK1367:37UQDCYH6Y2YRGMCXU82W3KI6L5V7F", "dateTime": 1515867354471}, {"current_trial": 140, "trialdata": {"rt": -1, "trial_type": "single-stim", "word": "knife", "stimulus": "<p id=\"stim\">KNIFE</p>", "conditions": [24, 800, "v", 24000], "internal_node_id": "0.0-104.0", "trial": 3, "time_elapsed": 1224948, "serialpos": 11, "key_press": -1, "wordID": 784, "type": "PRES_VIS", "trial_index": 140}, "uniqueid": "MTK1367:37UQDCYH6Y2YRGMCXU82W3KI6L5V7F", "dateTime": 1515867356274}, {"current_trial": 141, "trialdata": {"rt": -1, "trial_type": "single-stim", "word": "robber", "stimulus": "<p id=\"stim\">ROBBER</p>", "conditions": [24, 800, "v", 24000], "internal_node_id": "0.0-105.0", "trial": 3, "time_elapsed": 1226591, "serialpos": 12, "key_press": -1, "wordID": 1196, "type": "PRES_VIS", "trial_index": 141}, "uniqueid": "MTK1367:37UQDCYH6Y2YRGMCXU82W3KI6L5V7F", "dateTime": 1515867357917}, {"current_trial": 142, "trialdata": {"rt": -1, "trial_type": "single-stim", "word": "valve", "stimulus": "<p id=\"stim\">VALVE</p>", "conditions": [24, 800, "v", 24000], "internal_node_id": "0.0-106.0", "trial": 3, "time_elapsed": 1228331, "serialpos": 13, "key_press": -1, "wordID": 1545, "type": "PRES_VIS", "trial_index": 142}, "uniqueid": "MTK1367:37UQDCYH6Y2YRGMCXU82W3KI6L5V7F", "dateTime": 1515867359657}, {"current_trial": 143, "trialdata": {"rt": -1, "trial_type": "single-stim", "word": "eagle", "stimulus": "<p id=\"stim\">EAGLE</p>", "conditions": [24, 800, "v", 24000], "internal_node_id": "0.0-107.0", "trial": 3, "time_elapsed": 1230114, "serialpos": 14, "key_press": -1, "wordID": 511, "type": "PRES_VIS", "trial_index": 143}, "uniqueid": "MTK1367:37UQDCYH6Y2YRGMCXU82W3KI6L5V7F", "dateTime": 1515867361440}, {"current_trial": 144, "trialdata": {"rt": -1, "trial_type": "single-stim", "word": "husband", "stimulus": "<p id=\"stim\">HUSBAND</p>", "conditions": [24, 800, "v", 24000], "internal_node_id": "0.0-108.0", "trial": 3, "time_elapsed": 1231832, "serialpos": 15, "key_press": -1, "wordID": 727, "type": "PRES_VIS", "trial_index": 144}, "uniqueid": "MTK1367:37UQDCYH6Y2YRGMCXU82W3KI6L5V7F", "dateTime": 1515867363158}, {"current_trial": 145, "trialdata": {"rt": -1, "trial_type": "single-stim", "word": "spouse", "stimulus": "<p id=\"stim\">SPOUSE</p>", "conditions": [24, 800, "v", 24000], "internal_node_id": "0.0-109.0", "trial": 3, "time_elapsed": 1233445, "serialpos": 16, "key_press": -1, "wordID": 1357, "type": "PRES_VIS", "trial_index": 145}, "uniqueid": "MTK1367:37UQDCYH6Y2YRGMCXU82W3KI6L5V7F", "dateTime": 1515867364771}, {"current_trial": 146, "trialdata": {"rt": -1, "trial_type": "single-stim", "word": "canyon", "stimulus": "<p id=\"stim\">CANYON</p>", "conditions": [24, 800, "v", 24000], "internal_node_id": "0.0-110.0", "trial": 3, "time_elapsed": 1235363, "serialpos": 17, "key_press": -1, "wordID": 234, "type": "PRES_VIS", "trial_index": 146}, "uniqueid": "MTK1367:37UQDCYH6Y2YRGMCXU82W3KI6L5V7F", "dateTime": 1515867366689}, {"current_trial": 147, "trialdata": {"rt": -1, "trial_type": "single-stim", "word": "braces", "stimulus": "<p id=\"stim\">BRACES</p>", "conditions": [24, 800, "v", 24000], "internal_node_id": "0.0-111.0", "trial": 3, "time_elapsed": 1237080, "serialpos": 18, "key_press": -1, "wordID": 163, "type": "PRES_VIS", "trial_index": 147}, "uniqueid": "MTK1367:37UQDCYH6Y2YRGMCXU82W3KI6L5V7F", "dateTime": 1515867368406}, {"current_trial": 148, "trialdata": {"rt": -1, "trial_type": "single-stim", "word": "rust", "stimulus": "<p id=\"stim\">RUST</p>", "conditions": [24, 800, "v", 24000], "internal_node_id": "0.0-112.0", "trial": 3, "time_elapsed": 1238861, "serialpos": 19, "key_press": -1, "wordID": 1218, "type": "PRES_VIS", "trial_index": 148}, "uniqueid": "MTK1367:37UQDCYH6Y2YRGMCXU82W3KI6L5V7F", "dateTime": 1515867370188}, {"current_trial": 149, "trialdata": {"rt": -1, "trial_type": "single-stim", "word": "carriage", "stimulus": "<p id=\"stim\">CARRIAGE</p>", "conditions": [24, 800, "v", 24000], "internal_node_id": "0.0-113.0", "trial": 3, "time_elapsed": 1240489, "serialpos": 20, "key_press": -1, "wordID": 247, "type": "PRES_VIS", "trial_index": 149}, "uniqueid": "MTK1367:37UQDCYH6Y2YRGMCXU82W3KI6L5V7F", "dateTime": 1515867371816}, {"current_trial": 150, "trialdata": {"rt": -1, "trial_type": "single-stim", "word": "piston", "stimulus": "<p id=\"stim\">PISTON</p>", "conditions": [24, 800, "v", 24000], "internal_node_id": "0.0-114.0", "trial": 3, "time_elapsed": 1242321, "serialpos": 21, "key_press": -1, "wordID": 1075, "type": "PRES_VIS", "trial_index": 150}, "uniqueid": "MTK1367:37UQDCYH6Y2YRGMCXU82W3KI6L5V7F", "dateTime": 1515867373648}, {"current_trial": 151, "trialdata": {"rt": -1, "trial_type": "single-stim", "word": "perch", "stimulus": "<p id=\"stim\">PERCH</p>", "conditions": [24, 800, "v", 24000], "internal_node_id": "0.0-115.0", "trial": 3, "time_elapsed": 1244140, "serialpos": 22, "key_press": -1, "wordID": 1047, "type": "PRES_VIS", "trial_index": 151}, "uniqueid": "MTK1367:37UQDCYH6Y2YRGMCXU82W3KI6L5V7F", "dateTime": 1515867375467}, {"current_trial": 152, "trialdata": {"rt": -1, "trial_type": "single-stim", "word": "spider", "stimulus": "<p id=\"stim\">SPIDER</p>", "conditions": [24, 800, "v", 24000], "internal_node_id": "0.0-116.0", "trial": 3, "time_elapsed": 1245983, "serialpos": 23, "key_press": -1, "wordID": 1350, "type": "PRES_VIS", "trial_index": 152}, "uniqueid": "MTK1367:37UQDCYH6Y2YRGMCXU82W3KI6L5V7F", "dateTime": 1515867377309}, {"current_trial": 153, "trialdata": {"rt": -1, "trial_type": "single-stim", "stimulus": "", "internal_node_id": "0.0-117.0-0.0", "time_elapsed": 1248391, "key_press": -1, "type": "PRE_RECALL_DELAY", "trial_index": 153}, "uniqueid": "MTK1367:37UQDCYH6Y2YRGMCXU82W3KI6L5V7F", "dateTime": 1515867379717}, {"current_trial": 154, "trialdata": {"rt": -1000, "trial_type": "single-audio", "stimulus": "/static/audio/400Hz.wav", "internal_node_id": "0.0-118.0", "time_elapsed": 1248895, "key_press": -1, "type": "PRE_RECALL_ALERT", "trial_index": 154}, "uniqueid": "MTK1367:37UQDCYH6Y2YRGMCXU82W3KI6L5V7F", "dateTime": 1515867380221}, {"current_trial": 155, "trialdata": {"rt": [1898, 4914, 8716, 10515, 11875, 15345, 17055, 19276, 22179, 25995, 27405, 37762], "recwords": ["spider", "perch", "piston", "carriage", "rust", "husband", "spouse", "velvet", "rooster", "chaufer", "woman", "piston"], "key_times": [1026, 1051, 1258, 1524, 1592, 1722, 1898, 3307, 3457, 3594, 3913, 4124, 4914, 6425, 6441, 7115, 8055, 8080, 8202, 8282, 8474, 8716, 9866, 9876, 9898, 9917, 9947, 10034, 10178, 10289, 10515, 11061, 11315, 11442, 11665, 11875, 13556, 13994, 14338, 14881, 15009, 15106, 15202, 15345, 15735, 15978, 16186, 16411, 16506, 16698, 17055, 18282, 18419, 18578, 18739, 18835, 19002, 19276, 20918, 21075, 21218, 21329, 21523, 21666, 21762, 22179, 23727, 23843, 23970, 24114, 24610, 24936, 25507, 25995, 26638, 26761, 26956, 27050, 27163, 27405, 35614, 36053, 36179, 36420, 36548, 36755, 37762], "trial_type": "free-recall", "conditions": [24, 800, "v", 24000], "internal_node_id": "0.0-119.0-0.0", "key_presses": [83, 80, 73, 68, 69, 82, 32, 80, 69, 82, 67, 72, 32, 80, 79, 8, 73, 83, 84, 79, 78, 32, 67, 65, 82, 82, 73, 65, 71, 69, 32, 82, 85, 83, 84, 32, 72, 85, 83, 66, 65, 78, 68, 32, 83, 80, 79, 85, 83, 69, 32, 86, 69, 76, 86, 69, 84, 32, 82, 79, 79, 83, 84, 69, 82, 32, 67, 72, 65, 85, 70, 69, 82, 32, 87, 79, 77, 65, 78, 32, 80, 73, 83, 84, 79, 78, 13], "trial": 3, "time_elapsed": 1308907, "type": "FREE_RECALL", "trial_index": 155}, "uniqueid": "MTK1367:37UQDCYH6Y2YRGMCXU82W3KI6L5V7F", "dateTime": 1515867440248}, {"current_trial": 156, "trialdata": {"rt": 1939, "trial_type": "text", "internal_node_id": "0.0-120.0", "time_elapsed": 1312864, "key_press": 32, "type": "INSTRUCTIONS", "trial_index": 156}, "uniqueid": "MTK1367:37UQDCYH6Y2YRGMCXU82W3KI6L5V7F", "dateTime": 1515867444190}, {"current_trial": 157, "trialdata": {"rt": [4370, 10250], "trial_type": "math-distractor", "key_times": [2657, 2721, 3666, 3978, 4370, 9781, 9929, 10250], "responses": ["16", "26"], "num2": [5, 9, 5], "num3": [3, 9, 7], "conditions": [24, 800, "v", 12000], "internal_node_id": "0.0-121.0", "key_presses": [97, 101, 8, 102, 13, 98, 102, 13], "trial": 4, "time_elapsed": 1326880, "type": "DISTRACTOR", "trial_index": 157, "num1": [8, 8, 8]}, "uniqueid": "MTK1367:37UQDCYH6Y2YRGMCXU82W3KI6L5V7F", "dateTime": 1515867458206}, {"current_trial": 158, "trialdata": {"rt": -1, "trial_type": "single-stim", "stimulus": "<p id=\"stim\">10</p>", "internal_node_id": "0.0-122.0-0.0", "time_elapsed": 1329895, "key_press": -1, "trial_index": 158}, "uniqueid": "MTK1367:37UQDCYH6Y2YRGMCXU82W3KI6L5V7F", "dateTime": 1515867461221}, {"current_trial": 159, "trialdata": {"rt": -1, "trial_type": "single-stim", "stimulus": "<p id=\"stim\">9</p>", "internal_node_id": "0.0-122.0-1.0", "time_elapsed": 1330900, "key_press": -1, "trial_index": 159}, "uniqueid": "MTK1367:37UQDCYH6Y2YRGMCXU82W3KI6L5V7F", "dateTime": 1515867462227}, {"current_trial": 160, "trialdata": {"rt": -1, "trial_type": "single-stim", "stimulus": "<p id=\"stim\">8</p>", "internal_node_id": "0.0-122.0-2.0", "time_elapsed": 1331905, "key_press": -1, "trial_index": 160}, "uniqueid": "MTK1367:37UQDCYH6Y2YRGMCXU82W3KI6L5V7F", "dateTime": 1515867463231}, {"current_trial": 161, "trialdata": {"rt": -1, "trial_type": "single-stim", "stimulus": "<p id=\"stim\">7</p>", "internal_node_id": "0.0-122.0-3.0", "time_elapsed": 1332909, "key_press": -1, "trial_index": 161}, "uniqueid": "MTK1367:37UQDCYH6Y2YRGMCXU82W3KI6L5V7F", "dateTime": 1515867464235}, {"current_trial": 162, "trialdata": {"rt": -1, "trial_type": "single-stim", "stimulus": "<p id=\"stim\">6</p>", "internal_node_id": "0.0-122.0-4.0", "time_elapsed": 1333913, "key_press": -1, "trial_index": 162}, "uniqueid": "MTK1367:37UQDCYH6Y2YRGMCXU82W3KI6L5V7F", "dateTime": 1515867465239}, {"current_trial": 163, "trialdata": {"rt": -1, "trial_type": "single-stim", "stimulus": "<p id=\"stim\">5</p>", "internal_node_id": "0.0-122.0-5.0", "time_elapsed": 1334918, "key_press": -1, "trial_index": 163}, "uniqueid": "MTK1367:37UQDCYH6Y2YRGMCXU82W3KI6L5V7F", "dateTime": 1515867466244}, {"current_trial": 164, "trialdata": {"rt": -1, "trial_type": "single-stim", "stimulus": "<p id=\"stim\">4</p>", "internal_node_id": "0.0-122.0-6.0", "time_elapsed": 1335922, "key_press": -1, "trial_index": 164}, "uniqueid": "MTK1367:37UQDCYH6Y2YRGMCXU82W3KI6L5V7F", "dateTime": 1515867467249}, {"current_trial": 165, "trialdata": {"rt": -1, "trial_type": "single-stim", "stimulus": "<p id=\"stim\">3</p>", "internal_node_id": "0.0-122.0-7.0", "time_elapsed": 1336927, "key_press": -1, "trial_index": 165}, "uniqueid": "MTK1367:37UQDCYH6Y2YRGMCXU82W3KI6L5V7F", "dateTime": 1515867468254}, {"current_trial": 166, "trialdata": {"rt": -1, "trial_type": "single-stim", "stimulus": "<p id=\"stim\">2</p>", "internal_node_id": "0.0-122.0-8.0", "time_elapsed": 1337931, "key_press": -1, "trial_index": 166}, "uniqueid": "MTK1367:37UQDCYH6Y2YRGMCXU82W3KI6L5V7F", "dateTime": 1515867469257}, {"current_trial": 167, "trialdata": {"rt": -1, "trial_type": "single-stim", "stimulus": "<p id=\"stim\">1</p>", "internal_node_id": "0.0-122.0-9.0", "time_elapsed": 1338936, "key_press": -1, "trial_index": 167}, "uniqueid": "MTK1367:37UQDCYH6Y2YRGMCXU82W3KI6L5V7F", "dateTime": 1515867470262}, {"current_trial": 168, "trialdata": {"rt": -1, "trial_type": "single-stim", "stimulus": "<p id=\"stim\">+</p>", "internal_node_id": "0.0-123.0-0.0", "time_elapsed": 1340440, "key_press": -1, "type": "FIXATION", "trial_index": 168}, "uniqueid": "MTK1367:37UQDCYH6Y2YRGMCXU82W3KI6L5V7F", "dateTime": 1515867471767}, {"current_trial": 169, "trialdata": {"rt": -1, "trial_type": "single-stim", "word": "proton", "stimulus": "<p id=\"stim\">PROTON</p>", "conditions": [24, 800, "v", 12000], "internal_node_id": "0.0-124.0", "trial": 4, "time_elapsed": 1341245, "serialpos": 0, "key_press": -1, "wordID": 1131, "type": "PRES_VIS", "trial_index": 169}, "uniqueid": "MTK1367:37UQDCYH6Y2YRGMCXU82W3KI6L5V7F", "dateTime": 1515867472571}, {"current_trial": 170, "trialdata": {"rt": -1, "trial_type": "single-stim", "word": "badge", "stimulus": "<p id=\"stim\">BADGE</p>", "conditions": [24, 800, "v", 12000], "internal_node_id": "0.0-125.0", "trial": 4, "time_elapsed": 1342940, "serialpos": 1, "key_press": -1, "wordID": 67, "type": "PRES_VIS", "trial_index": 170}, "uniqueid": "MTK1367:37UQDCYH6Y2YRGMCXU82W3KI6L5V7F", "dateTime": 1515867474266}, {"current_trial": 171, "trialdata": {"rt": -1, "trial_type": "single-stim", "word": "sticker", "stimulus": "<p id=\"stim\">STICKER</p>", "conditions": [24, 800, "v", 12000], "internal_node_id": "0.0-126.0", "trial": 4, "time_elapsed": 1344682, "serialpos": 2, "key_press": -1, "wordID": 1381, "type": "PRES_VIS", "trial_index": 171}, "uniqueid": "MTK1367:37UQDCYH6Y2YRGMCXU82W3KI6L5V7F", "dateTime": 1515867476008}, {"current_trial": 172, "trialdata": {"rt": -1, "trial_type": "single-stim", "word": "igloo", "stimulus": "<p id=\"stim\">IGLOO</p>", "conditions": [24, 800, "v", 12000], "internal_node_id": "0.0-127.0", "trial": 4, "time_elapsed": 1346456, "serialpos": 3, "key_press": -1, "wordID": 733, "type": "PRES_VIS", "trial_index": 172}, "uniqueid": "MTK1367:37UQDCYH6Y2YRGMCXU82W3KI6L5V7F", "dateTime": 1515867477782}, {"current_trial": 173, "trialdata": {"rt": -1, "trial_type": "single-stim", "word": "sidewalk", "stimulus": "<p id=\"stim\">SIDEWALK</p>", "conditions": [24, 800, "v", 12000], "internal_node_id": "0.0-128.0", "trial": 4, "time_elapsed": 1348257, "serialpos": 4, "key_press": -1, "wordID": 1302, "type": "PRES_VIS", "trial_index": 173}, "uniqueid": "MTK1367:37UQDCYH6Y2YRGMCXU82W3KI6L5V7F", "dateTime": 1515867479583}, {"current_trial": 174, "trialdata": {"rt": -1, "trial_type": "single-stim", "word": "parsley", "stimulus": "<p id=\"stim\">PARSLEY</p>", "conditions": [24, 800, "v", 12000], "internal_node_id": "0.0-129.0", "trial": 4, "time_elapsed": 1350059, "serialpos": 5, "key_press": -1, "wordID": 1015, "type": "PRES_VIS", "trial_index": 174}, "uniqueid": "MTK1367:37UQDCYH6Y2YRGMCXU82W3KI6L5V7F", "dateTime": 1515867481385}, {"current_trial": 175, "trialdata": {"rt": -1, "trial_type": "single-stim", "word": "machine", "stimulus": "<p id=\"stim\">MACHINE</p>", "conditions": [24, 800, "v", 12000], "internal_node_id": "0.0-130.0", "trial": 4, "time_elapsed": 1351913, "serialpos": 6, "key_press": -1, "wordID": 851, "type": "PRES_VIS", "trial_index": 175}, "uniqueid": "MTK1367:37UQDCYH6Y2YRGMCXU82W3KI6L5V7F", "dateTime": 1515867483239}, {"current_trial": 176, "trialdata": {"rt": -1, "trial_type": "single-stim", "word": "pebble", "stimulus": "<p id=\"stim\">PEBBLE</p>", "conditions": [24, 800, "v", 12000], "internal_node_id": "0.0-131.0", "trial": 4, "time_elapsed": 1353522, "serialpos": 7, "key_press": -1, "wordID": 1034, "type": "PRES_VIS", "trial_index": 176}, "uniqueid": "MTK1367:37UQDCYH6Y2YRGMCXU82W3KI6L5V7F", "dateTime": 1515867484848}, {"current_trial": 177, "trialdata": {"rt": -1, "trial_type": "single-stim", "word": "human", "stimulus": "<p id=\"stim\">HUMAN</p>", "conditions": [24, 800, "v", 12000], "internal_node_id": "0.0-132.0", "trial": 4, "time_elapsed": 1355363, "serialpos": 8, "key_press": -1, "wordID": 725, "type": "PRES_VIS", "trial_index": 177}, "uniqueid": "MTK1367:37UQDCYH6Y2YRGMCXU82W3KI6L5V7F", "dateTime": 1515867486689}, {"current_trial": 178, "trialdata": {"rt": -1, "trial_type": "single-stim", "word": "shortcake", "stimulus": "<p id=\"stim\">SHORTCAKE</p>", "conditions": [24, 800, "v", 12000], "internal_node_id": "0.0-133.0", "trial": 4, "time_elapsed": 1357051, "serialpos": 9, "key_press": -1, "wordID": 1291, "type": "PRES_VIS", "trial_index": 178}, "uniqueid": "MTK1367:37UQDCYH6Y2YRGMCXU82W3KI6L5V7F", "dateTime": 1515867488378}, {"current_trial": 179, "trialdata": {"rt": -1, "trial_type": "single-stim", "word": "sunset", "stimulus": "<p id=\"stim\">SUNSET</p>", "conditions": [24, 800, "v", 12000], "internal_node_id": "0.0-134.0", "trial": 4, "time_elapsed": 1358852, "serialpos": 10, "key_press": -1, "wordID": 1407, "type": "PRES_VIS", "trial_index": 179}, "uniqueid": "MTK1367:37UQDCYH6Y2YRGMCXU82W3KI6L5V7F", "dateTime": 1515867490178}, {"current_trial": 180, "trialdata": {"rt": -1, "trial_type": "single-stim", "word": "lettuce", "stimulus": "<p id=\"stim\">LETTUCE</p>", "conditions": [24, 800, "v", 12000], "internal_node_id": "0.0-135.0", "trial": 4, "time_elapsed": 1360796, "serialpos": 11, "key_press": -1, "wordID": 813, "type": "PRES_VIS", "trial_index": 180}, "uniqueid": "MTK1367:37UQDCYH6Y2YRGMCXU82W3KI6L5V7F", "dateTime": 1515867492123}, {"current_trial": 181, "trialdata": {"rt": -1, "trial_type": "single-stim", "word": "primate", "stimulus": "<p id=\"stim\">PRIMATE</p>", "conditions": [24, 800, "v", 12000], "internal_node_id": "0.0-136.0", "trial": 4, "time_elapsed": 1362727, "serialpos": 12, "key_press": -1, "wordID": 1122, "type": "PRES_VIS", "trial_index": 181}, "uniqueid": "MTK1367:37UQDCYH6Y2YRGMCXU82W3KI6L5V7F", "dateTime": 1515867494059}, {"current_trial": 182, "trialdata": {"rt": -1, "trial_type": "single-stim", "word": "freckle", "stimulus": "<p id=\"stim\">FRECKLE</p>", "conditions": [24, 800, "v", 12000], "internal_node_id": "0.0-137.0", "trial": 4, "time_elapsed": 1364409, "serialpos": 13, "key_press": -1, "wordID": 601, "type": "PRES_VIS", "trial_index": 182}, "uniqueid": "MTK1367:37UQDCYH6Y2YRGMCXU82W3KI6L5V7F", "dateTime": 1515867495736}, {"current_trial": 183, "trialdata": {"rt": -1, "trial_type": "single-stim", "word": "nomad", "stimulus": "<p id=\"stim\">NOMAD</p>", "conditions": [24, 800, "v", 12000], "internal_node_id": "0.0-138.0", "trial": 4, "time_elapsed": 1366097, "serialpos": 14, "key_press": -1, "wordID": 954, "type": "PRES_VIS", "trial_index": 183}, "uniqueid": "MTK1367:37UQDCYH6Y2YRGMCXU82W3KI6L5V7F", "dateTime": 1515867497424}, {"current_trial": 184, "trialdata": {"rt": -1, "trial_type": "single-stim", "word": "headband", "stimulus": "<p id=\"stim\">HEADBAND</p>", "conditions": [24, 800, "v", 12000], "internal_node_id": "0.0-139.0", "trial": 4, "time_elapsed": 1367870, "serialpos": 15, "key_press": -1, "wordID": 695, "type": "PRES_VIS", "trial_index": 184}, "uniqueid": "MTK1367:37UQDCYH6Y2YRGMCXU82W3KI6L5V7F", "dateTime": 1515867499197}, {"current_trial": 185, "trialdata": {"rt": -1, "trial_type": "single-stim", "word": "bank", "stimulus": "<p id=\"stim\">BANK</p>", "conditions": [24, 800, "v", 12000], "internal_node_id": "0.0-140.0", "trial": 4, "time_elapsed": 1369769, "serialpos": 16, "key_press": -1, "wordID": 82, "type": "PRES_VIS", "trial_index": 185}, "uniqueid": "MTK1367:37UQDCYH6Y2YRGMCXU82W3KI6L5V7F", "dateTime": 1515867501095}, {"current_trial": 186, "trialdata": {"rt": -1, "trial_type": "single-stim", "word": "finger", "stimulus": "<p id=\"stim\">FINGER</p>", "conditions": [24, 800, "v", 12000], "internal_node_id": "0.0-141.0", "trial": 4, "time_elapsed": 1371500, "serialpos": 17, "key_press": -1, "wordID": 566, "type": "PRES_VIS", "trial_index": 186}, "uniqueid": "MTK1367:37UQDCYH6Y2YRGMCXU82W3KI6L5V7F", "dateTime": 1515867502826}, {"current_trial": 187, "trialdata": {"rt": -1, "trial_type": "single-stim", "word": "hand", "stimulus": "<p id=\"stim\">HAND</p>", "conditions": [24, 800, "v", 12000], "internal_node_id": "0.0-142.0", "trial": 4, "time_elapsed": 1373247, "serialpos": 18, "key_press": -1, "wordID": 682, "type": "PRES_VIS", "trial_index": 187}, "uniqueid": "MTK1367:37UQDCYH6Y2YRGMCXU82W3KI6L5V7F", "dateTime": 1515867504573}, {"current_trial": 188, "trialdata": {"rt": -1, "trial_type": "single-stim", "word": "bike", "stimulus": "<p id=\"stim\">BIKE</p>", "conditions": [24, 800, "v", 12000], "internal_node_id": "0.0-143.0", "trial": 4, "time_elapsed": 1375086, "serialpos": 19, "key_press": -1, "wordID": 124, "type": "PRES_VIS", "trial_index": 188}, "uniqueid": "MTK1367:37UQDCYH6Y2YRGMCXU82W3KI6L5V7F", "dateTime": 1515867506412}, {"current_trial": 189, "trialdata": {"rt": -1, "trial_type": "single-stim", "word": "police", "stimulus": "<p id=\"stim\">POLICE</p>", "conditions": [24, 800, "v", 12000], "internal_node_id": "0.0-144.0", "trial": 4, "time_elapsed": 1376943, "serialpos": 20, "key_press": -1, "wordID": 1097, "type": "PRES_VIS", "trial_index": 189}, "uniqueid": "MTK1367:37UQDCYH6Y2YRGMCXU82W3KI6L5V7F", "dateTime": 1515867508270}, {"current_trial": 190, "trialdata": {"rt": -1, "trial_type": "single-stim", "word": "guitar", "stimulus": "<p id=\"stim\">GUITAR</p>", "conditions": [24, 800, "v", 12000], "internal_node_id": "0.0-145.0", "trial": 4, "time_elapsed": 1378566, "serialpos": 21, "key_press": -1, "wordID": 669, "type": "PRES_VIS", "trial_index": 190}, "uniqueid": "MTK1367:37UQDCYH6Y2YRGMCXU82W3KI6L5V7F", "dateTime": 1515867509893}, {"current_trial": 191, "trialdata": {"rt": -1, "trial_type": "single-stim", "word": "tuba", "stimulus": "<p id=\"stim\">TUBA</p>", "conditions": [24, 800, "v", 12000], "internal_node_id": "0.0-146.0", "trial": 4, "time_elapsed": 1380522, "serialpos": 22, "key_press": -1, "wordID": 1514, "type": "PRES_VIS", "trial_index": 191}, "uniqueid": "MTK1367:37UQDCYH6Y2YRGMCXU82W3KI6L5V7F", "dateTime": 1515867511849}, {"current_trial": 192, "trialdata": {"rt": -1, "trial_type": "single-stim", "word": "shirt", "stimulus": "<p id=\"stim\">SHIRT</p>", "conditions": [24, 800, "v", 12000], "internal_node_id": "0.0-147.0", "trial": 4, "time_elapsed": 1382336, "serialpos": 23, "key_press": -1, "wordID": 1286, "type": "PRES_VIS", "trial_index": 192}, "uniqueid": "MTK1367:37UQDCYH6Y2YRGMCXU82W3KI6L5V7F", "dateTime": 1515867513662}, {"current_trial": 193, "trialdata": {"rt": -1, "trial_type": "single-stim", "stimulus": "", "internal_node_id": "0.0-148.0-0.0", "time_elapsed": 1384553, "key_press": -1, "type": "PRE_RECALL_DELAY", "trial_index": 193}, "uniqueid": "MTK1367:37UQDCYH6Y2YRGMCXU82W3KI6L5V7F", "dateTime": 1515867515880}, {"current_trial": 194, "trialdata": {"rt": -1000, "trial_type": "single-audio", "stimulus": "/static/audio/400Hz.wav", "internal_node_id": "0.0-149.0", "time_elapsed": 1385057, "key_press": -1, "type": "PRE_RECALL_ALERT", "trial_index": 194}, "uniqueid": "MTK1367:37UQDCYH6Y2YRGMCXU82W3KI6L5V7F", "dateTime": 1515867516383}, {"current_trial": 195, "trialdata": {"rt": [3652, 5225, 7049, 9274, 11667, 20938, 52933, 59372], "recwords": ["shirt", "tuba", "guitar", "bike", "police", "freckle", "igloo", "parsley"], "key_times": [1171, 1188, 1224, 1466, 2842, 3154, 3282, 3652, 4322, 4635, 4843, 4988, 5225, 5827, 5991, 6170, 6363, 6570, 6778, 7049, 7620, 7890, 8290, 8451, 9274, 9988, 10147, 10314, 10443, 10602, 10755, 11667, 19835, 19851, 19863, 20130, 20492, 20651, 20763, 20938, 51879, 52173, 52317, 52477, 52604, 52933, 57117, 57133, 57143, 57614, 58269, 58429, 58605, 58685, 58965, 59372], "trial_type": "free-recall", "conditions": [24, 800, "v", 12000], "internal_node_id": "0.0-150.0-0.0", "key_presses": [83, 72, 73, 84, 8, 82, 84, 13, 84, 85, 66, 65, 13, 71, 85, 73, 84, 65, 82, 13, 66, 73, 75, 69, 13, 80, 79, 76, 73, 67, 69, 13, 70, 82, 69, 67, 75, 76, 69, 13, 73, 71, 76, 79, 79, 13, 80, 65, 83, 8, 82, 83, 76, 69, 89, 13], "trial": 4, "time_elapsed": 1445081, "type": "FREE_RECALL", "trial_index": 195}, "uniqueid": "MTK1367:37UQDCYH6Y2YRGMCXU82W3KI6L5V7F", "dateTime": 1515867576432}, {"current_trial": 196, "trialdata": {"rt": 4240, "trial_type": "text", "internal_node_id": "0.0-151.0", "time_elapsed": 1451349, "key_press": 32, "type": "INSTRUCTIONS", "trial_index": 196}, "uniqueid": "MTK1367:37UQDCYH6Y2YRGMCXU82W3KI6L5V7F", "dateTime": 1515867582675}, {"current_trial": 197, "trialdata": {"rt": [2884, 5565, 9315, 12156, 18614, 21637], "trial_type": "math-distractor", "key_times": [2381, 2430, 2884, 5125, 5309, 5565, 8904, 8997, 9315, 11813, 11968, 12156, 15790, 17485, 17997, 18172, 18614, 21216, 21406, 21637], "responses": ["19", "13", "15", "14", "24", "15"], "num2": [8, 3, 4, 5, 7, 3, 2], "num3": [3, 6, 3, 1, 6, 3, 7], "conditions": [12, 800, "v", 24000], "internal_node_id": "0.0-152.0", "key_presses": [97, 105, 13, 97, 99, 13, 97, 101, 13, 97, 100, 13, 99, 8, 98, 100, 13, 97, 101, 13], "trial": 5, "time_elapsed": 1477361, "type": "DISTRACTOR", "trial_index": 197, "num1": [8, 4, 8, 8, 5, 9, 9]}, "uniqueid": "MTK1367:37UQDCYH6Y2YRGMCXU82W3KI6L5V7F", "dateTime": 1515867608688}, {"current_trial": 198, "trialdata": {"rt": -1, "trial_type": "single-stim", "stimulus": "<p id=\"stim\">10</p>", "internal_node_id": "0.0-153.0-0.0", "time_elapsed": 1480367, "key_press": -1, "trial_index": 198}, "uniqueid": "MTK1367:37UQDCYH6Y2YRGMCXU82W3KI6L5V7F", "dateTime": 1515867611694}, {"current_trial": 199, "trialdata": {"rt": -1, "trial_type": "single-stim", "stimulus": "<p id=\"stim\">9</p>", "internal_node_id": "0.0-153.0-1.0", "time_elapsed": 1481372, "key_press": -1, "trial_index": 199}, "uniqueid": "MTK1367:37UQDCYH6Y2YRGMCXU82W3KI6L5V7F", "dateTime": 1515867612698}, {"current_trial": 200, "trialdata": {"rt": -1, "trial_type": "single-stim", "stimulus": "<p id=\"stim\">8</p>", "internal_node_id": "0.0-153.0-2.0", "time_elapsed": 1482377, "key_press": -1, "trial_index": 200}, "uniqueid": "MTK1367:37UQDCYH6Y2YRGMCXU82W3KI6L5V7F", "dateTime": 1515867613707}, {"current_trial": 201, "trialdata": {"rt": -1, "trial_type": "single-stim", "stimulus": "<p id=\"stim\">7</p>", "internal_node_id": "0.0-153.0-3.0", "time_elapsed": 1483386, "key_press": -1, "trial_index": 201}, "uniqueid": "MTK1367:37UQDCYH6Y2YRGMCXU82W3KI6L5V7F", "dateTime": 1515867614713}, {"current_trial": 202, "trialdata": {"rt": -1, "trial_type": "single-stim", "stimulus": "<p id=\"stim\">6</p>", "internal_node_id": "0.0-153.0-4.0", "time_elapsed": 1484391, "key_press": -1, "trial_index": 202}, "uniqueid": "MTK1367:37UQDCYH6Y2YRGMCXU82W3KI6L5V7F", "dateTime": 1515867615718}, {"current_trial": 203, "trialdata": {"rt": -1, "trial_type": "single-stim", "stimulus": "<p id=\"stim\">5</p>", "internal_node_id": "0.0-153.0-5.0", "time_elapsed": 1485409, "key_press": -1, "trial_index": 203}, "uniqueid": "MTK1367:37UQDCYH6Y2YRGMCXU82W3KI6L5V7F", "dateTime": 1515867616736}, {"current_trial": 204, "trialdata": {"rt": -1, "trial_type": "single-stim", "stimulus": "<p id=\"stim\">4</p>", "internal_node_id": "0.0-153.0-6.0", "time_elapsed": 1486415, "key_press": -1, "trial_index": 204}, "uniqueid": "MTK1367:37UQDCYH6Y2YRGMCXU82W3KI6L5V7F", "dateTime": 1515867617742}, {"current_trial": 205, "trialdata": {"rt": -1, "trial_type": "single-stim", "stimulus": "<p id=\"stim\">3</p>", "internal_node_id": "0.0-153.0-7.0", "time_elapsed": 1487419, "key_press": -1, "trial_index": 205}, "uniqueid": "MTK1367:37UQDCYH6Y2YRGMCXU82W3KI6L5V7F", "dateTime": 1515867618746}, {"current_trial": 206, "trialdata": {"rt": -1, "trial_type": "single-stim", "stimulus": "<p id=\"stim\">2</p>", "internal_node_id": "0.0-153.0-8.0", "time_elapsed": 1488423, "key_press": -1, "trial_index": 206}, "uniqueid": "MTK1367:37UQDCYH6Y2YRGMCXU82W3KI6L5V7F", "dateTime": 1515867619750}, {"current_trial": 207, "trialdata": {"rt": -1, "trial_type": "single-stim", "stimulus": "<p id=\"stim\">1</p>", "internal_node_id": "0.0-153.0-9.0", "time_elapsed": 1489427, "key_press": -1, "trial_index": 207}, "uniqueid": "MTK1367:37UQDCYH6Y2YRGMCXU82W3KI6L5V7F", "dateTime": 1515867620754}, {"current_trial": 208, "trialdata": {"rt": -1, "trial_type": "single-stim", "stimulus": "<p id=\"stim\">+</p>", "internal_node_id": "0.0-154.0-0.0", "time_elapsed": 1490932, "key_press": -1, "type": "FIXATION", "trial_index": 208}, "uniqueid": "MTK1367:37UQDCYH6Y2YRGMCXU82W3KI6L5V7F", "dateTime": 1515867622259}, {"current_trial": 209, "trialdata": {"rt": -1, "trial_type": "single-stim", "word": "hook", "stimulus": "<p id=\"stim\">HOOK</p>", "conditions": [12, 800, "v", 24000], "internal_node_id": "0.0-155.0", "trial": 5, "time_elapsed": 1491737, "serialpos": 0, "key_press": -1, "wordID": 714, "type": "PRES_VIS", "trial_index": 209}, "uniqueid": "MTK1367:37UQDCYH6Y2YRGMCXU82W3KI6L5V7F", "dateTime": 1515867623064}, {"current_trial": 210, "trialdata": {"rt": -1, "trial_type": "single-stim", "word": "marsh", "stimulus": "<p id=\"stim\">MARSH</p>", "conditions": [12, 800, "v", 24000], "internal_node_id": "0.0-156.0", "trial": 5, "time_elapsed": 1493425, "serialpos": 1, "key_press": -1, "wordID": 873, "type": "PRES_VIS", "trial_index": 210}, "uniqueid": "MTK1367:37UQDCYH6Y2YRGMCXU82W3KI6L5V7F", "dateTime": 1515867624752}, {"current_trial": 211, "trialdata": {"rt": -1, "trial_type": "single-stim", "word": "cottage", "stimulus": "<p id=\"stim\">COTTAGE</p>", "conditions": [12, 800, "v", 24000], "internal_node_id": "0.0-157.0", "trial": 5, "time_elapsed": 1495105, "serialpos": 2, "key_press": -1, "wordID": 383, "type": "PRES_VIS", "trial_index": 211}, "uniqueid": "MTK1367:37UQDCYH6Y2YRGMCXU82W3KI6L5V7F", "dateTime": 1515867626432}, {"current_trial": 212, "trialdata": {"rt": -1, "trial_type": "single-stim", "word": "spool", "stimulus": "<p id=\"stim\">SPOOL</p>", "conditions": [12, 800, "v", 24000], "internal_node_id": "0.0-158.0", "trial": 5, "time_elapsed": 1497040, "serialpos": 3, "key_press": -1, "wordID": 1355, "type": "PRES_VIS", "trial_index": 212}, "uniqueid": "MTK1367:37UQDCYH6Y2YRGMCXU82W3KI6L5V7F", "dateTime": 1515867628367}, {"current_trial": 213, "trialdata": {"rt": -1, "trial_type": "single-stim", "word": "lake", "stimulus": "<p id=\"stim\">LAKE</p>", "conditions": [12, 800, "v", 24000], "internal_node_id": "0.0-159.0", "trial": 5, "time_elapsed": 1498744, "serialpos": 4, "key_press": -1, "wordID": 795, "type": "PRES_VIS", "trial_index": 213}, "uniqueid": "MTK1367:37UQDCYH6Y2YRGMCXU82W3KI6L5V7F", "dateTime": 1515867630071}, {"current_trial": 214, "trialdata": {"rt": -1, "trial_type": "single-stim", "word": "wrist", "stimulus": "<p id=\"stim\">WRIST</p>", "conditions": [12, 800, "v", 24000], "internal_node_id": "0.0-160.0", "trial": 5, "time_elapsed": 1500688, "serialpos": 5, "key_press": -1, "wordID": 1625, "type": "PRES_VIS", "trial_index": 214}, "uniqueid": "MTK1367:37UQDCYH6Y2YRGMCXU82W3KI6L5V7F", "dateTime": 1515867632015}, {"current_trial": 215, "trialdata": {"rt": -1, "trial_type": "single-stim", "word": "xerox", "stimulus": "<p id=\"stim\">XEROX</p>", "conditions": [12, 800, "v", 24000], "internal_node_id": "0.0-161.0", "trial": 5, "time_elapsed": 1502403, "serialpos": 6, "key_press": -1, "wordID": 1627, "type": "PRES_VIS", "trial_index": 215}, "uniqueid": "MTK1367:37UQDCYH6Y2YRGMCXU82W3KI6L5V7F", "dateTime": 1515867633729}, {"current_trial": 216, "trialdata": {"rt": -1, "trial_type": "single-stim", "word": "nightgown", "stimulus": "<p id=\"stim\">NIGHTGOWN</p>", "conditions": [12, 800, "v", 24000], "internal_node_id": "0.0-162.0", "trial": 5, "time_elapsed": 1504196, "serialpos": 7, "key_press": -1, "wordID": 952, "type": "PRES_VIS", "trial_index": 216}, "uniqueid": "MTK1367:37UQDCYH6Y2YRGMCXU82W3KI6L5V7F", "dateTime": 1515867635522}, {"current_trial": 217, "trialdata": {"rt": -1, "trial_type": "single-stim", "word": "chapel", "stimulus": "<p id=\"stim\">CHAPEL</p>", "conditions": [12, 800, "v", 24000], "internal_node_id": "0.0-163.0", "trial": 5, "time_elapsed": 1506179, "serialpos": 8, "key_press": -1, "wordID": 279, "type": "PRES_VIS", "trial_index": 217}, "uniqueid": "MTK1367:37UQDCYH6Y2YRGMCXU82W3KI6L5V7F", "dateTime": 1515867637506}, {"current_trial": 218, "trialdata": {"rt": -1, "trial_type": "single-stim", "word": "padding", "stimulus": "<p id=\"stim\">PADDING</p>", "conditions": [12, 800, "v", 24000], "internal_node_id": "0.0-164.0", "trial": 5, "time_elapsed": 1508159, "serialpos": 9, "key_press": -1, "wordID": 998, "type": "PRES_VIS", "trial_index": 218}, "uniqueid": "MTK1367:37UQDCYH6Y2YRGMCXU82W3KI6L5V7F", "dateTime": 1515867639485}, {"current_trial": 219, "trialdata": {"rt": -1, "trial_type": "single-stim", "word": "lizard", "stimulus": "<p id=\"stim\">LIZARD</p>", "conditions": [12, 800, "v", 24000], "internal_node_id": "0.0-165.0", "trial": 5, "time_elapsed": 1509998, "serialpos": 10, "key_press": -1, "wordID": 833, "type": "PRES_VIS", "trial_index": 219}, "uniqueid": "MTK1367:37UQDCYH6Y2YRGMCXU82W3KI6L5V7F", "dateTime": 1515867641325}, {"current_trial": 220, "trialdata": {"rt": -1, "trial_type": "single-stim", "word": "chipmunk", "stimulus": "<p id=\"stim\">CHIPMUNK</p>", "conditions": [12, 800, "v", 24000], "internal_node_id": "0.0-166.0", "trial": 5, "time_elapsed": 1511647, "serialpos": 11, "key_press": -1, "wordID": 303, "type": "PRES_VIS", "trial_index": 220}, "uniqueid": "MTK1367:37UQDCYH6Y2YRGMCXU82W3KI6L5V7F", "dateTime": 1515867642977}, {"current_trial": 221, "trialdata": {"rt": -1, "trial_type": "single-stim", "stimulus": "", "internal_node_id": "0.0-167.0-0.0", "time_elapsed": 1513882, "key_press": -1, "type": "PRE_RECALL_DELAY", "trial_index": 221}, "uniqueid": "MTK1367:37UQDCYH6Y2YRGMCXU82W3KI6L5V7F", "dateTime": 1515867645208}, {"current_trial": 222, "trialdata": {"rt": -1000, "trial_type": "single-audio", "stimulus": "/static/audio/400Hz.wav", "internal_node_id": "0.0-168.0", "time_elapsed": 1514386, "key_press": -1, "type": "PRE_RECALL_ALERT", "trial_index": 222}, "uniqueid": "MTK1367:37UQDCYH6Y2YRGMCXU82W3KI6L5V7F", "dateTime": 1515867645712}, {"current_trial": 223, "trialdata": {"rt": [3600, 6681, 8321, 10017, 13657], "recwords": ["lizard", "chipmunk", "padding", "chapel", "monkey"], "key_times": [1538, 1689, 1945, 2074, 2345, 2522, 3600, 4299, 4482, 4869, 5186, 5467, 5706, 6190, 6321, 6681, 7170, 7346, 7554, 7730, 7786, 7954, 8042, 8321, 9169, 9184, 9346, 9490, 9667, 9762, 10017, 10540, 10690, 10914, 11186, 11331, 11604, 13657], "trial_type": "free-recall", "conditions": [12, 800, "v", 24000], "internal_node_id": "0.0-169.0-0.0", "key_presses": [76, 73, 90, 65, 82, 68, 13, 67, 72, 73, 80, 77, 85, 78, 75, 13, 80, 65, 68, 68, 73, 78, 71, 13, 67, 72, 65, 80, 69, 76, 13, 77, 79, 78, 75, 69, 89, 13], "trial": 5, "time_elapsed": 1574400, "type": "FREE_RECALL", "trial_index": 223}, "uniqueid": "MTK1367:37UQDCYH6Y2YRGMCXU82W3KI6L5V7F", "dateTime": 1515867705747}, {"current_trial": 224, "trialdata": {"rt": 340074, "trial_type": "text", "internal_node_id": "0.0-170.0", "time_elapsed": 1916498, "key_press": 32, "type": "INSTRUCTIONS", "trial_index": 224}, "uniqueid": "MTK1367:37UQDCYH6Y2YRGMCXU82W3KI6L5V7F", "dateTime": 1515868047825}, {"current_trial": 225, "trialdata": {"rt": [3406, 7175, 9872, 12439, 16224, 19345, 22688], "trial_type": "math-distractor", "key_times": [2890, 3032, 3406, 6656, 6832, 7175, 9403, 9560, 9872, 11697, 12049, 12439, 15719, 15862, 16224, 19065, 19345, 22243, 22367, 22688], "responses": ["16", "14", "12", "17", "16", "8", "19"], "num2": [9, 7, 3, 7, 8, 2, 7, 7], "num3": [2, 1, 8, 8, 3, 3, 3, 8], "conditions": [12, 1600, "v", 24000], "internal_node_id": "0.0-171.0", "key_presses": [97, 102, 13, 97, 100, 13, 97, 98, 13, 97, 103, 13, 97, 102, 13, 104, 13, 97, 105, 13], "trial": 6, "time_elapsed": 1942518, "type": "DISTRACTOR", "trial_index": 225, "num1": [5, 6, 1, 2, 7, 3, 9, 5]}, "uniqueid": "MTK1367:37UQDCYH6Y2YRGMCXU82W3KI6L5V7F", "dateTime": 1515868073846}, {"current_trial": 226, "trialdata": {"rt": -1, "trial_type": "single-stim", "stimulus": "<p id=\"stim\">10</p>", "internal_node_id": "0.0-172.0-0.0", "time_elapsed": 1945525, "key_press": -1, "trial_index": 226}, "uniqueid": "MTK1367:37UQDCYH6Y2YRGMCXU82W3KI6L5V7F", "dateTime": 1515868076852}, {"current_trial": 227, "trialdata": {"rt": -1, "trial_type": "single-stim", "stimulus": "<p id=\"stim\">9</p>", "internal_node_id": "0.0-172.0-1.0", "time_elapsed": 1946531, "key_press": -1, "trial_index": 227}, "uniqueid": "MTK1367:37UQDCYH6Y2YRGMCXU82W3KI6L5V7F", "dateTime": 1515868077859}, {"current_trial": 228, "trialdata": {"rt": -1, "trial_type": "single-stim", "stimulus": "<p id=\"stim\">8</p>", "internal_node_id": "0.0-172.0-2.0", "time_elapsed": 1947536, "key_press": -1, "trial_index": 228}, "uniqueid": "MTK1367:37UQDCYH6Y2YRGMCXU82W3KI6L5V7F", "dateTime": 1515868078864}, {"current_trial": 229, "trialdata": {"rt": -1, "trial_type": "single-stim", "stimulus": "<p id=\"stim\">7</p>", "internal_node_id": "0.0-172.0-3.0", "time_elapsed": 1948544, "key_press": -1, "trial_index": 229}, "uniqueid": "MTK1367:37UQDCYH6Y2YRGMCXU82W3KI6L5V7F", "dateTime": 1515868079871}, {"current_trial": 230, "trialdata": {"rt": -1, "trial_type": "single-stim", "stimulus": "<p id=\"stim\">6</p>", "internal_node_id": "0.0-172.0-4.0", "time_elapsed": 1949549, "key_press": -1, "trial_index": 230}, "uniqueid": "MTK1367:37UQDCYH6Y2YRGMCXU82W3KI6L5V7F", "dateTime": 1515868080877}, {"current_trial": 231, "trialdata": {"rt": -1, "trial_type": "single-stim", "stimulus": "<p id=\"stim\">5</p>", "internal_node_id": "0.0-172.0-5.0", "time_elapsed": 1950557, "key_press": -1, "trial_index": 231}, "uniqueid": "MTK1367:37UQDCYH6Y2YRGMCXU82W3KI6L5V7F", "dateTime": 1515868081885}, {"current_trial": 232, "trialdata": {"rt": -1, "trial_type": "single-stim", "stimulus": "<p id=\"stim\">4</p>", "internal_node_id": "0.0-172.0-6.0", "time_elapsed": 1951563, "key_press": -1, "trial_index": 232}, "uniqueid": "MTK1367:37UQDCYH6Y2YRGMCXU82W3KI6L5V7F", "dateTime": 1515868082890}, {"current_trial": 233, "trialdata": {"rt": -1, "trial_type": "single-stim", "stimulus": "<p id=\"stim\">3</p>", "internal_node_id": "0.0-172.0-7.0", "time_elapsed": 1952569, "key_press": -1, "trial_index": 233}, "uniqueid": "MTK1367:37UQDCYH6Y2YRGMCXU82W3KI6L5V7F", "dateTime": 1515868083897}, {"current_trial": 234, "trialdata": {"rt": -1, "trial_type": "single-stim", "stimulus": "<p id=\"stim\">2</p>", "internal_node_id": "0.0-172.0-8.0", "time_elapsed": 1953575, "key_press": -1, "trial_index": 234}, "uniqueid": "MTK1367:37UQDCYH6Y2YRGMCXU82W3KI6L5V7F", "dateTime": 1515868084912}, {"current_trial": 235, "trialdata": {"rt": -1, "trial_type": "single-stim", "stimulus": "<p id=\"stim\">1</p>", "internal_node_id": "0.0-172.0-9.0", "time_elapsed": 1954595, "key_press": -1, "trial_index": 235}, "uniqueid": "MTK1367:37UQDCYH6Y2YRGMCXU82W3KI6L5V7F", "dateTime": 1515868085921}, {"current_trial": 236, "trialdata": {"rt": -1, "trial_type": "single-stim", "stimulus": "<p id=\"stim\">+</p>", "internal_node_id": "0.0-173.0-0.0", "time_elapsed": 1956100, "key_press": -1, "type": "FIXATION", "trial_index": 236}, "uniqueid": "MTK1367:37UQDCYH6Y2YRGMCXU82W3KI6L5V7F", "dateTime": 1515868087427}, {"current_trial": 237, "trialdata": {"rt": -1, "trial_type": "single-stim", "word": "money", "stimulus": "<p id=\"stim\">MONEY</p>", "conditions": [12, 1600, "v", 24000], "internal_node_id": "0.0-174.0", "trial": 6, "time_elapsed": 1957705, "serialpos": 0, "key_press": -1, "wordID": 907, "type": "PRES_VIS", "trial_index": 237}, "uniqueid": "MTK1367:37UQDCYH6Y2YRGMCXU82W3KI6L5V7F", "dateTime": 1515868089032}, {"current_trial": 238, "trialdata": {"rt": -1, "trial_type": "single-stim", "word": "globe", "stimulus": "<p id=\"stim\">GLOBE</p>", "conditions": [12, 1600, "v", 24000], "internal_node_id": "0.0-175.0", "trial": 6, "time_elapsed": 1960437, "serialpos": 1, "key_press": -1, "wordID": 640, "type": "PRES_VIS", "trial_index": 238}, "uniqueid": "MTK1367:37UQDCYH6Y2YRGMCXU82W3KI6L5V7F", "dateTime": 1515868091764}, {"current_trial": 239, "trialdata": {"rt": -1, "trial_type": "single-stim", "word": "world", "stimulus": "<p id=\"stim\">WORLD</p>", "conditions": [12, 1600, "v", 24000], "internal_node_id": "0.0-176.0", "trial": 6, "time_elapsed": 1963082, "serialpos": 2, "key_press": -1, "wordID": 1621, "type": "PRES_VIS", "trial_index": 239}, "uniqueid": "MTK1367:37UQDCYH6Y2YRGMCXU82W3KI6L5V7F", "dateTime": 1515868094408}, {"current_trial": 240, "trialdata": {"rt": -1, "trial_type": "single-stim", "word": "record", "stimulus": "<p id=\"stim\">RECORD</p>", "conditions": [12, 1600, "v", 24000], "internal_node_id": "0.0-177.0", "trial": 6, "time_elapsed": 1965493, "serialpos": 3, "key_press": -1, "wordID": 1175, "type": "PRES_VIS", "trial_index": 240}, "uniqueid": "MTK1367:37UQDCYH6Y2YRGMCXU82W3KI6L5V7F", "dateTime": 1515868096820}, {"current_trial": 241, "trialdata": {"rt": -1, "trial_type": "single-stim", "word": "shark", "stimulus": "<p id=\"stim\">SHARK</p>", "conditions": [12, 1600, "v", 24000], "internal_node_id": "0.0-178.0", "trial": 6, "time_elapsed": 1967995, "serialpos": 4, "key_press": -1, "wordID": 1274, "type": "PRES_VIS", "trial_index": 241}, "uniqueid": "MTK1367:37UQDCYH6Y2YRGMCXU82W3KI6L5V7F", "dateTime": 1515868099322}, {"current_trial": 242, "trialdata": {"rt": -1, "trial_type": "single-stim", "word": "tourist", "stimulus": "<p id=\"stim\">TOURIST</p>", "conditions": [12, 1600, "v", 24000], "internal_node_id": "0.0-179.0", "trial": 6, "time_elapsed": 1970689, "serialpos": 5, "key_press": -1, "wordID": 1487, "type": "PRES_VIS", "trial_index": 242}, "uniqueid": "MTK1367:37UQDCYH6Y2YRGMCXU82W3KI6L5V7F", "dateTime": 1515868102016}, {"current_trial": 243, "trialdata": {"rt": -1, "trial_type": "single-stim", "word": "actor", "stimulus": "<p id=\"stim\">ACTOR</p>", "conditions": [12, 1600, "v", 24000], "internal_node_id": "0.0-180.0", "trial": 6, "time_elapsed": 1973115, "serialpos": 6, "key_press": -1, "wordID": 4, "type": "PRES_VIS", "trial_index": 243}, "uniqueid": "MTK1367:37UQDCYH6Y2YRGMCXU82W3KI6L5V7F", "dateTime": 1515868104442}, {"current_trial": 244, "trialdata": {"rt": -1, "trial_type": "single-stim", "word": "penguin", "stimulus": "<p id=\"stim\">PENGUIN</p>", "conditions": [12, 1600, "v", 24000], "internal_node_id": "0.0-181.0", "trial": 6, "time_elapsed": 1975590, "serialpos": 7, "key_press": -1, "wordID": 1043, "type": "PRES_VIS", "trial_index": 244}, "uniqueid": "MTK1367:37UQDCYH6Y2YRGMCXU82W3KI6L5V7F", "dateTime": 1515868106917}, {"current_trial": 245, "trialdata": {"rt": -1, "trial_type": "single-stim", "word": "viking", "stimulus": "<p id=\"stim\">VIKING</p>", "conditions": [12, 1600, "v", 24000], "internal_node_id": "0.0-182.0", "trial": 6, "time_elapsed": 1978357, "serialpos": 8, "key_press": -1, "wordID": 1564, "type": "PRES_VIS", "trial_index": 245}, "uniqueid": "MTK1367:37UQDCYH6Y2YRGMCXU82W3KI6L5V7F", "dateTime": 1515868109684}, {"current_trial": 246, "trialdata": {"rt": -1, "trial_type": "single-stim", "word": "pocket", "stimulus": "<p id=\"stim\">POCKET</p>", "conditions": [12, 1600, "v", 24000], "internal_node_id": "0.0-183.0", "trial": 6, "time_elapsed": 1980773, "serialpos": 9, "key_press": -1, "wordID": 1092, "type": "PRES_VIS", "trial_index": 246}, "uniqueid": "MTK1367:37UQDCYH6Y2YRGMCXU82W3KI6L5V7F", "dateTime": 1515868112100}, {"current_trial": 247, "trialdata": {"rt": -1, "trial_type": "single-stim", "word": "turtle", "stimulus": "<p id=\"stim\">TURTLE</p>", "conditions": [12, 1600, "v", 24000], "internal_node_id": "0.0-184.0", "trial": 6, "time_elapsed": 1983405, "serialpos": 10, "key_press": -1, "wordID": 1521, "type": "PRES_VIS", "trial_index": 247}, "uniqueid": "MTK1367:37UQDCYH6Y2YRGMCXU82W3KI6L5V7F", "dateTime": 1515868114732}, {"current_trial": 248, "trialdata": {"rt": -1, "trial_type": "single-stim", "word": "flipper", "stimulus": "<p id=\"stim\">FLIPPER</p>", "conditions": [12, 1600, "v", 24000], "internal_node_id": "0.0-185.0", "trial": 6, "time_elapsed": 1985933, "serialpos": 11, "key_press": -1, "wordID": 579, "type": "PRES_VIS", "trial_index": 248}, "uniqueid": "MTK1367:37UQDCYH6Y2YRGMCXU82W3KI6L5V7F", "dateTime": 1515868117260}, {"current_trial": 249, "trialdata": {"rt": -1, "trial_type": "single-stim", "stimulus": "", "internal_node_id": "0.0-186.0-0.0", "time_elapsed": 1988299, "key_press": -1, "type": "PRE_RECALL_DELAY", "trial_index": 249}, "uniqueid": "MTK1367:37UQDCYH6Y2YRGMCXU82W3KI6L5V7F", "dateTime": 1515868119626}, {"current_trial": 250, "trialdata": {"rt": -1000, "trial_type": "single-audio", "stimulus": "/static/audio/400Hz.wav", "internal_node_id": "0.0-187.0", "time_elapsed": 1988804, "key_press": -1, "type": "PRE_RECALL_ALERT", "trial_index": 250}, "uniqueid": "MTK1367:37UQDCYH6Y2YRGMCXU82W3KI6L5V7F", "dateTime": 1515868120130}, {"current_trial": 251, "trialdata": {"rt": [2359, 3920, 6627, 8767, 10433, 12104, 22948, 41209, 42699, 44927], "recwords": ["flipper", "actor", "penguin", "globe", "world", "shark", "shark", "memory", "money", "globe"], "key_times": [1041, 1257, 1465, 1736, 1881, 1999, 2104, 2359, 2977, 3185, 3393, 3537, 3634, 3920, 4681, 5050, 5176, 5537, 5717, 5889, 6066, 6627, 7544, 7672, 7833, 8121, 8235, 8767, 9289, 9485, 9690, 9866, 9994, 10433, 11116, 11297, 11377, 11585, 11702, 12104, 21955, 22072, 22155, 22427, 22562, 22948, 38557, 38720, 38875, 39179, 39307, 41010, 41209, 41778, 41946, 42163, 42234, 42491, 42699, 44073, 44226, 44355, 44547, 44659, 44927], "trial_type": "free-recall", "conditions": [12, 1600, "v", 24000], "internal_node_id": "0.0-188.0-0.0", "key_presses": [70, 76, 73, 80, 80, 69, 82, 13, 65, 67, 84, 79, 82, 13, 80, 69, 78, 71, 85, 73, 78, 13, 71, 76, 79, 66, 69, 13, 87, 79, 82, 76, 68, 13, 83, 72, 65, 82, 75, 13, 83, 72, 65, 82, 75, 13, 77, 69, 77, 79, 82, 89, 13, 77, 79, 78, 69, 89, 13, 71, 76, 79, 66, 69, 13], "trial": 6, "time_elapsed": 2048820, "type": "FREE_RECALL", "trial_index": 251}, "uniqueid": "MTK1367:37UQDCYH6Y2YRGMCXU82W3KI6L5V7F", "dateTime": 1515868180182}, {"current_trial": 252, "trialdata": {"rt": 4691, "trial_type": "text", "internal_node_id": "0.0-189.0", "time_elapsed": 2055551, "key_press": 32, "type": "INSTRUCTIONS", "trial_index": 252}, "uniqueid": "MTK1367:37UQDCYH6Y2YRGMCXU82W3KI6L5V7F", "dateTime": 1515868186877}, {"current_trial": 253, "trialdata": {"rt": [4108], "trial_type": "math-distractor", "key_times": [3573, 3793, 4108], "responses": ["13"], "num2": [6, 6], "num3": [2, 9], "conditions": [12, 1600, "v", 12000], "internal_node_id": "0.0-190.0", "key_presses": [97, 99, 13], "trial": 7, "time_elapsed": 2069566, "type": "DISTRACTOR", "trial_index": 253, "num1": [5, 7]}, "uniqueid": "MTK1367:37UQDCYH6Y2YRGMCXU82W3KI6L5V7F", "dateTime": 1515868200892}, {"current_trial": 254, "trialdata": {"rt": -1, "trial_type": "single-stim", "stimulus": "<p id=\"stim\">10</p>", "internal_node_id": "0.0-191.0-0.0", "time_elapsed": 2072601, "key_press": -1, "trial_index": 254}, "uniqueid": "MTK1367:37UQDCYH6Y2YRGMCXU82W3KI6L5V7F", "dateTime": 15158682