{"assignmentId": "323Q6SJS8JN6O86YAOPA5U6QWVNHFR", "workerId": "MTK1435", "questiondata": {"origin": "United States", "strat-rehearsal": "55", "marital": "Married/Domestic Partnership", "education": "Some college", "ethnicity": "Not Hispanic", "color_depth": 24, "distracted": "No", "wrote-notes": "No", "strat-other": "", "screen_width": 1920, "avail_screen_width": 1920, "avail_screen_height": 1040, "strat-image": "80", "language": "english", "gender": "Female", "age": "52", "gender_other": "", "race": ["White"], "strat-categorize": "69", "pixel_depth": 24, "strat-spatial": "52", "strat-story": "38", "race_other": "", "screen_height": 1080}, "bonus": 0, "hitId": "30ZKOOGW2WDY1M6I7HVVAMJ81QOA1Q", "counterbalance": 1032, "useragent": "Mozilla/5.0 (Windows NT 10.0; Win64; x64) AppleWebKit/537.36 (KHTML, like Gecko) Chrome/63.0.3239.84 Safari/537.36", "eventdata": [{"eventtype": "initialized", "interval": 0, "value": null, "timestamp": 1515881247882}, {"eventtype": "window_resize", "interval": 0, "value": [1920, 1033], "timestamp": 1515881247882}, {"eventtype": "focus", "interval": 340327, "value": "off", "timestamp": 1515881588209}, {"eventtype": "focus", "interval": 19404, "value": "on", "timestamp": 1515881607613}], "data": [{"current_trial": 0, "trialdata": {"rt": 2590, "trial_type": "text", "internal_node_id": "0.0-0.0", "time_elapsed": 2593, "key_press": 32, "type": "INSTRUCTIONS", "trial_index": 0}, "uniqueid": "MTK1435:323Q6SJS8JN6O86YAOPA5U6QWVNHFR", "dateTime": 1515881251238}, {"current_trial": 1, "trialdata": {"rt": 28499, "trial_type": "text", "internal_node_id": "0.0-1.0", "time_elapsed": 31096, "key_press": 32, "type": "INSTRUCTIONS", "trial_index": 1}, "uniqueid": "MTK1435:323Q6SJS8JN6O86YAOPA5U6QWVNHFR", "dateTime": 1515881279739}, {"current_trial": 2, "trialdata": {"rt": [19529], "trial_type": "audio-test", "responses": ["ocean"], "internal_node_id": "0.0-2.0", "time_elapsed": 50641, "type": "AUDIO_TEST", "trial_index": 2}, "uniqueid": "MTK1435:323Q6SJS8JN6O86YAOPA5U6QWVNHFR", "dateTime": 1515881299284}, {"current_trial": 3, "trialdata": {"rt": [15471], "trial_type": "audio-test", "responses": ["crystal"], "internal_node_id": "0.0-3.0", "time_elapsed": 66121, "type": "AUDIO_TEST", "trial_index": 3}, "uniqueid": "MTK1435:323Q6SJS8JN6O86YAOPA5U6QWVNHFR", "dateTime": 1515881314764}, {"current_trial": 4, "trialdata": {"rt": [6407], "trial_type": "audio-test", "responses": ["spice"], "internal_node_id": "0.0-4.0", "time_elapsed": 72536, "type": "AUDIO_TEST", "trial_index": 4}, "uniqueid": "MTK1435:323Q6SJS8JN6O86YAOPA5U6QWVNHFR", "dateTime": 1515881321179}, {"current_trial": 5, "trialdata": {"rt": 25805, "trial_type": "survey-text", "responses": "{\"Q0\":\"12:00\",\"Q1\":\"7:40\",\"Q2\":\"4\"}", "internal_node_id": "0.0-5.0", "time_elapsed": 99094, "type": "SLEEP_SURVEY", "trial_index": 5}, "uniqueid": "MTK1435:323Q6SJS8JN6O86YAOPA5U6QWVNHFR", "dateTime": 1515881347737}, {"current_trial": 6, "trialdata": {"rt": 44656, "trial_type": "text", "internal_node_id": "0.0-6.0", "time_elapsed": 144751, "key_press": 32, "type": "INSTRUCTIONS", "trial_index": 6}, "uniqueid": "MTK1435:323Q6SJS8JN6O86YAOPA5U6QWVNHFR", "dateTime": 1515881393395}, {"current_trial": 7, "trialdata": {"rt": 18929, "trial_type": "text", "internal_node_id": "0.0-7.0", "time_elapsed": 164183, "key_press": 32, "type": "INSTRUCTIONS", "trial_index": 7}, "uniqueid": "MTK1435:323Q6SJS8JN6O86YAOPA5U6QWVNHFR", "dateTime": 1515881412826}, {"current_trial": 8, "trialdata": {"rt": 10850, "trial_type": "text", "internal_node_id": "0.0-8.0", "time_elapsed": 175535, "key_press": 32, "type": "INSTRUCTIONS", "trial_index": 8}, "uniqueid": "MTK1435:323Q6SJS8JN6O86YAOPA5U6QWVNHFR", "dateTime": 1515881424178}, {"current_trial": 9, "trialdata": {"rt": [9648, 12071, 13839, 16423], "trial_type": "math-distractor", "key_times": [1600, 1856, 2840, 8632, 9648, 11424, 11656, 12071, 13344, 13584, 13839, 15808, 16040, 16423], "responses": ["13", "14", "14", "20"], "num2": [5, 3, 4, 5, 6], "num3": [5, 6, 1, 8, 7], "conditions": [18, 1200, "v", 18000], "internal_node_id": "0.0-9.0", "key_presses": [97, 99, 32, 8, 13, 97, 100, 13, 97, 100, 13, 98, 96, 13], "trial": 0, "time_elapsed": 194544, "type": "DISTRACTOR", "trial_index": 9, "num1": [3, 5, 9, 7, 9]}, "uniqueid": "MTK1435:323Q6SJS8JN6O86YAOPA5U6QWVNHFR", "dateTime": 1515881443188}, {"current_trial": 10, "trialdata": {"rt": -1, "trial_type": "single-stim", "stimulus": "<p id=\"stim\">10</p>", "internal_node_id": "0.0-10.0-0.0", "time_elapsed": 197548, "key_press": -1, "trial_index": 10}, "uniqueid": "MTK1435:323Q6SJS8JN6O86YAOPA5U6QWVNHFR", "dateTime": 1515881446191}, {"current_trial": 11, "trialdata": {"rt": -1, "trial_type": "single-stim", "stimulus": "<p id=\"stim\">9</p>", "internal_node_id": "0.0-10.0-1.0", "time_elapsed": 198550, "key_press": -1, "trial_index": 11}, "uniqueid": "MTK1435:323Q6SJS8JN6O86YAOPA5U6QWVNHFR", "dateTime": 1515881447193}, {"current_trial": 12, "trialdata": {"rt": -1, "trial_type": "single-stim", "stimulus": "<p id=\"stim\">8</p>", "internal_node_id": "0.0-10.0-2.0", "time_elapsed": 199551, "key_press": -1, "trial_index": 12}, "uniqueid": "MTK1435:323Q6SJS8JN6O86YAOPA5U6QWVNHFR", "dateTime": 1515881448194}, {"current_trial": 13, "trialdata": {"rt": -1, "trial_type": "single-stim", "stimulus": "<p id=\"stim\">7</p>", "internal_node_id": "0.0-10.0-3.0", "time_elapsed": 200552, "key_press": -1, "trial_index": 13}, "uniqueid": "MTK1435:323Q6SJS8JN6O86YAOPA5U6QWVNHFR", "dateTime": 1515881449195}, {"current_trial": 14, "trialdata": {"rt": -1, "trial_type": "single-stim", "stimulus": "<p id=\"stim\">6</p>", "internal_node_id": "0.0-10.0-4.0", "time_elapsed": 201554, "key_press": -1, "trial_index": 14}, "uniqueid": "MTK1435:323Q6SJS8JN6O86YAOPA5U6QWVNHFR", "dateTime": 1515881450197}, {"current_trial": 15, "trialdata": {"rt": -1, "trial_type": "single-stim", "stimulus": "<p id=\"stim\">5</p>", "internal_node_id": "0.0-10.0-5.0", "time_elapsed": 202556, "key_press": -1, "trial_index": 15}, "uniqueid": "MTK1435:323Q6SJS8JN6O86YAOPA5U6QWVNHFR", "dateTime": 1515881451199}, {"current_trial": 16, "trialdata": {"rt": -1, "trial_type": "single-stim", "stimulus": "<p id=\"stim\">4</p>", "internal_node_id": "0.0-10.0-6.0", "time_elapsed": 203558, "key_press": -1, "trial_index": 16}, "uniqueid": "MTK1435:323Q6SJS8JN6O86YAOPA5U6QWVNHFR", "dateTime": 1515881452201}, {"current_trial": 17, "trialdata": {"rt": -1, "trial_type": "single-stim", "stimulus": "<p id=\"stim\">3</p>", "internal_node_id": "0.0-10.0-7.0", "time_elapsed": 204560, "key_press": -1, "trial_index": 17}, "uniqueid": "MTK1435:323Q6SJS8JN6O86YAOPA5U6QWVNHFR", "dateTime": 1515881453203}, {"current_trial": 18, "trialdata": {"rt": -1, "trial_type": "single-stim", "stimulus": "<p id=\"stim\">2</p>", "internal_node_id": "0.0-10.0-8.0", "time_elapsed": 205562, "key_press": -1, "trial_index": 18}, "uniqueid": "MTK1435:323Q6SJS8JN6O86YAOPA5U6QWVNHFR", "dateTime": 1515881454205}, {"current_trial": 19, "trialdata": {"rt": -1, "trial_type": "single-stim", "stimulus": "<p id=\"stim\">1</p>", "internal_node_id": "0.0-10.0-9.0", "time_elapsed": 206564, "key_press": -1, "trial_index": 19}, "uniqueid": "MTK1435:323Q6SJS8JN6O86YAOPA5U6QWVNHFR", "dateTime": 1515881455207}, {"current_trial": 20, "trialdata": {"rt": -1, "trial_type": "single-stim", "stimulus": "<p id=\"stim\">+</p>", "internal_node_id": "0.0-11.0-0.0", "time_elapsed": 208065, "key_press": -1, "type": "FIXATION", "trial_index": 20}, "uniqueid": "MTK1435:323Q6SJS8JN6O86YAOPA5U6QWVNHFR", "dateTime": 1515881456709}, {"current_trial": 21, "trialdata": {"rt": -1, "trial_type": "single-stim", "word": "match", "stimulus": "<p id=\"stim\">MATCH</p>", "conditions": [18, 1200, "v", 18000], "internal_node_id": "0.0-12.0", "trial": 0, "time_elapsed": 209267, "serialpos": 0, "key_press": -1, "wordID": 877, "type": "PRES_VIS", "trial_index": 21}, "uniqueid": "MTK1435:323Q6SJS8JN6O86YAOPA5U6QWVNHFR", "dateTime": 1515881457910}, {"current_trial": 22, "trialdata": {"rt": -1, "trial_type": "single-stim", "word": "body", "stimulus": "<p id=\"stim\">BODY</p>", "conditions": [18, 1200, "v", 18000], "internal_node_id": "0.0-13.0", "trial": 0, "time_elapsed": 211333, "serialpos": 1, "key_press": -1, "wordID": 144, "type": "PRES_VIS", "trial_index": 22}, "uniqueid": "MTK1435:323Q6SJS8JN6O86YAOPA5U6QWVNHFR", "dateTime": 1515881459977}, {"current_trial": 23, "trialdata": {"rt": -1, "trial_type": "single-stim", "word": "catcher", "stimulus": "<p id=\"stim\">CATCHER</p>", "conditions": [18, 1200, "v", 18000], "internal_node_id": "0.0-14.0", "trial": 0, "time_elapsed": 213615, "serialpos": 2, "key_press": -1, "wordID": 257, "type": "PRES_VIS", "trial_index": 23}, "uniqueid": "MTK1435:323Q6SJS8JN6O86YAOPA5U6QWVNHFR", "dateTime": 1515881462258}, {"current_trial": 24, "trialdata": {"rt": -1, "trial_type": "single-stim", "word": "bacon", "stimulus": "<p id=\"stim\">BACON</p>", "conditions": [18, 1200, "v", 18000], "internal_node_id": "0.0-15.0", "trial": 0, "time_elapsed": 215775, "serialpos": 3, "key_press": -1, "wordID": 66, "type": "PRES_VIS", "trial_index": 24}, "uniqueid": "MTK1435:323Q6SJS8JN6O86YAOPA5U6QWVNHFR", "dateTime": 1515881464418}, {"current_trial": 25, "trialdata": {"rt": -1, "trial_type": "single-stim", "word": "island", "stimulus": "<p id=\"stim\">ISLAND</p>", "conditions": [18, 1200, "v", 18000], "internal_node_id": "0.0-16.0", "trial": 0, "time_elapsed": 218150, "serialpos": 4, "key_press": -1, "wordID": 744, "type": "PRES_VIS", "trial_index": 25}, "uniqueid": "MTK1435:323Q6SJS8JN6O86YAOPA5U6QWVNHFR", "dateTime": 1515881466793}, {"current_trial": 26, "trialdata": {"rt": -1, "trial_type": "single-stim", "word": "padding", "stimulus": "<p id=\"stim\">PADDING</p>", "conditions": [18, 1200, "v", 18000], "internal_node_id": "0.0-17.0", "trial": 0, "time_elapsed": 220400, "serialpos": 5, "key_press": -1, "wordID": 998, "type": "PRES_VIS", "trial_index": 26}, "uniqueid": "MTK1435:323Q6SJS8JN6O86YAOPA5U6QWVNHFR", "dateTime": 1515881469044}, {"current_trial": 27, "trialdata": {"rt": -1, "trial_type": "single-stim", "word": "robin", "stimulus": "<p id=\"stim\">ROBIN</p>", "conditions": [18, 1200, "v", 18000], "internal_node_id": "0.0-18.0", "trial": 0, "time_elapsed": 222485, "serialpos": 6, "key_press": -1, "wordID": 1198, "type": "PRES_VIS", "trial_index": 27}, "uniqueid": "MTK1435:323Q6SJS8JN6O86YAOPA5U6QWVNHFR", "dateTime": 1515881471128}, {"current_trial": 28, "trialdata": {"rt": -1, "trial_type": "single-stim", "word": "hiker", "stimulus": "<p id=\"stim\">HIKER</p>", "conditions": [18, 1200, "v", 18000], "internal_node_id": "0.0-19.0", "trial": 0, "time_elapsed": 224567, "serialpos": 7, "key_press": -1, "wordID": 707, "type": "PRES_VIS", "trial_index": 28}, "uniqueid": "MTK1435:323Q6SJS8JN6O86YAOPA5U6QWVNHFR", "dateTime": 1515881473211}, {"current_trial": 29, "trialdata": {"rt": -1, "trial_type": "single-stim", "word": "gift", "stimulus": "<p id=\"stim\">GIFT</p>", "conditions": [18, 1200, "v", 18000], "internal_node_id": "0.0-20.0", "trial": 0, "time_elapsed": 226790, "serialpos": 8, "key_press": -1, "wordID": 634, "type": "PRES_VIS", "trial_index": 29}, "uniqueid": "MTK1435:323Q6SJS8JN6O86YAOPA5U6QWVNHFR", "dateTime": 1515881475433}, {"current_trial": 30, "trialdata": {"rt": -1, "trial_type": "single-stim", "word": "pocket", "stimulus": "<p id=\"stim\">POCKET</p>", "conditions": [18, 1200, "v", 18000], "internal_node_id": "0.0-21.0", "trial": 0, "time_elapsed": 228911, "serialpos": 9, "key_press": -1, "wordID": 1092, "type": "PRES_VIS", "trial_index": 30}, "uniqueid": "MTK1435:323Q6SJS8JN6O86YAOPA5U6QWVNHFR", "dateTime": 1515881477554}, {"current_trial": 31, "trialdata": {"rt": -1, "trial_type": "single-stim", "word": "mop", "stimulus": "<p id=\"stim\">MOP</p>", "conditions": [18, 1200, "v", 18000], "internal_node_id": "0.0-22.0", "trial": 0, "time_elapsed": 231306, "serialpos": 10, "key_press": -1, "wordID": 915, "type": "PRES_VIS", "trial_index": 31}, "uniqueid": "MTK1435:323Q6SJS8JN6O86YAOPA5U6QWVNHFR", "dateTime": 1515881479949}, {"current_trial": 32, "trialdata": {"rt": -1, "trial_type": "single-stim", "word": "outfit", "stimulus": "<p id=\"stim\">OUTFIT</p>", "conditions": [18, 1200, "v", 18000], "internal_node_id": "0.0-23.0", "trial": 0, "time_elapsed": 233488, "serialpos": 11, "key_press": -1, "wordID": 987, "type": "PRES_VIS", "trial_index": 32}, "uniqueid": "MTK1435:323Q6SJS8JN6O86YAOPA5U6QWVNHFR", "dateTime": 1515881482131}, {"current_trial": 33, "trialdata": {"rt": -1, "trial_type": "single-stim", "word": "twig", "stimulus": "<p id=\"stim\">TWIG</p>", "conditions": [18, 1200, "v", 18000], "internal_node_id": "0.0-24.0", "trial": 0, "time_elapsed": 235606, "serialpos": 12, "key_press": -1, "wordID": 1526, "type": "PRES_VIS", "trial_index": 33}, "uniqueid": "MTK1435:323Q6SJS8JN6O86YAOPA5U6QWVNHFR", "dateTime": 1515881484249}, {"current_trial": 34, "trialdata": {"rt": -1, "trial_type": "single-stim", "word": "lace", "stimulus": "<p id=\"stim\">LACE</p>", "conditions": [18, 1200, "v", 18000], "internal_node_id": "0.0-25.0", "trial": 0, "time_elapsed": 237658, "serialpos": 13, "key_press": -1, "wordID": 791, "type": "PRES_VIS", "trial_index": 34}, "uniqueid": "MTK1435:323Q6SJS8JN6O86YAOPA5U6QWVNHFR", "dateTime": 1515881486301}, {"current_trial": 35, "trialdata": {"rt": -1, "trial_type": "single-stim", "word": "cobra", "stimulus": "<p id=\"stim\">COBRA</p>", "conditions": [18, 1200, "v", 18000], "internal_node_id": "0.0-26.0", "trial": 0, "time_elapsed": 239893, "serialpos": 14, "key_press": -1, "wordID": 335, "type": "PRES_VIS", "trial_index": 35}, "uniqueid": "MTK1435:323Q6SJS8JN6O86YAOPA5U6QWVNHFR", "dateTime": 1515881488536}, {"current_trial": 36, "trialdata": {"rt": -1, "trial_type": "single-stim", "word": "glove", "stimulus": "<p id=\"stim\">GLOVE</p>", "conditions": [18, 1200, "v", 18000], "internal_node_id": "0.0-27.0", "trial": 0, "time_elapsed": 242261, "serialpos": 15, "key_press": -1, "wordID": 641, "type": "PRES_VIS", "trial_index": 36}, "uniqueid": "MTK1435:323Q6SJS8JN6O86YAOPA5U6QWVNHFR", "dateTime": 1515881490904}, {"current_trial": 37, "trialdata": {"rt": -1, "trial_type": "single-stim", "word": "motel", "stimulus": "<p id=\"stim\">MOTEL</p>", "conditions": [18, 1200, "v", 18000], "internal_node_id": "0.0-28.0", "trial": 0, "time_elapsed": 244513, "serialpos": 16, "key_press": -1, "wordID": 918, "type": "PRES_VIS", "trial_index": 37}, "uniqueid": "MTK1435:323Q6SJS8JN6O86YAOPA5U6QWVNHFR", "dateTime": 1515881493156}, {"current_trial": 38, "trialdata": {"rt": -1, "trial_type": "single-stim", "word": "doughnut", "stimulus": "<p id=\"stim\">DOUGHNUT</p>", "conditions": [18, 1200, "v", 18000], "internal_node_id": "0.0-29.0", "trial": 0, "time_elapsed": 246774, "serialpos": 17, "key_press": -1, "wordID": 489, "type": "PRES_VIS", "trial_index": 38}, "uniqueid": "MTK1435:323Q6SJS8JN6O86YAOPA5U6QWVNHFR", "dateTime": 1515881495417}, {"current_trial": 39, "trialdata": {"rt": -1, "trial_type": "single-stim", "stimulus": "", "internal_node_id": "0.0-30.0-0.0", "time_elapsed": 249170, "key_press": -1, "type": "PRE_RECALL_DELAY", "trial_index": 39}, "uniqueid": "MTK1435:323Q6SJS8JN6O86YAOPA5U6QWVNHFR", "dateTime": 1515881497814}, {"current_trial": 40, "trialdata": {"rt": -1000, "trial_type": "single-audio", "stimulus": "/static/audio/400Hz.wav", "internal_node_id": "0.0-31.0", "time_elapsed": 249674, "key_press": -1, "type": "PRE_RECALL_ALERT", "trial_index": 40}, "uniqueid": "MTK1435:323Q6SJS8JN6O86YAOPA5U6QWVNHFR", "dateTime": 1515881498317}, {"current_trial": 41, "trialdata": {"rt": [2433, 3969, 5241, 6857, 8369, 9553], "recwords": ["match", "island", "lace", "bacon", "island", "motel"], "key_times": [1003, 1122, 1298, 1562, 1666, 2433, 2746, 2874, 3018, 3114, 3250, 3442, 3969, 4250, 4290, 4506, 4771, 5241, 5818, 5914, 6178, 6266, 6410, 6857, 7402, 7514, 7650, 7770, 7890, 8098, 8369, 8642, 8802, 8929, 9066, 9242, 9553], "trial_type": "free-recall", "conditions": [18, 1200, "v", 18000], "internal_node_id": "0.0-32.0-0.0", "key_presses": [77, 65, 84, 67, 72, 13, 73, 83, 76, 65, 78, 68, 13, 76, 65, 67, 69, 13, 66, 65, 67, 79, 78, 13, 73, 83, 76, 65, 78, 68, 13, 77, 79, 84, 69, 76, 13], "trial": 0, "time_elapsed": 309679, "type": "FREE_RECALL", "trial_index": 41}, "uniqueid": "MTK1435:323Q6SJS8JN6O86YAOPA5U6QWVNHFR", "dateTime": 1515881558325}, {"current_trial": 42, "trialdata": {"rt": 52443, "trial_type": "text", "internal_node_id": "0.0-33.0", "time_elapsed": 364127, "key_press": 32, "type": "INSTRUCTIONS", "trial_index": 42}, "uniqueid": "MTK1435:323Q6SJS8JN6O86YAOPA5U6QWVNHFR", "dateTime": 1515881612770}, {"current_trial": 43, "trialdata": {"rt": [3539, 7283, 8851, 10331, 11843, 13979, 16251, 17835], "trial_type": "math-distractor", "key_times": [2700, 2964, 3539, 6652, 7004, 7283, 8476, 8652, 8851, 9908, 10108, 10331, 11412, 11612, 11843, 13499, 13748, 13979, 15852, 16020, 16251, 17372, 17588, 17835], "responses": ["14", "12", "14", "14", "24", "20", "23", "19"], "num2": [3, 3, 8, 6, 8, 4, 9, 7, 9], "num3": [2, 1, 2, 4, 8, 8, 9, 4, 3], "conditions": [18, 1200, "v", 18000], "internal_node_id": "0.0-34.0", "key_presses": [97, 100, 13, 97, 98, 13, 97, 100, 13, 97, 100, 13, 98, 100, 13, 98, 96, 13, 98, 99, 13, 97, 105, 13], "trial": 1, "time_elapsed": 384131, "type": "DISTRACTOR", "trial_index": 43, "num1": [9, 8, 4, 4, 8, 8, 5, 8, 4]}, "uniqueid": "MTK1435:323Q6SJS8JN6O86YAOPA5U6QWVNHFR", "dateTime": 1515881632775}, {"current_trial": 44, "trialdata": {"rt": -1, "trial_type": "single-stim", "stimulus": "<p id=\"stim\">10</p>", "internal_node_id": "0.0-35.0-0.0", "time_elapsed": 387134, "key_press": -1, "trial_index": 44}, "uniqueid": "MTK1435:323Q6SJS8JN6O86YAOPA5U6QWVNHFR", "dateTime": 1515881635777}, {"current_trial": 45, "trialdata": {"rt": -1, "trial_type": "single-stim", "stimulus": "<p id=\"stim\">9</p>", "internal_node_id": "0.0-35.0-1.0", "time_elapsed": 388136, "key_press": -1, "trial_index": 45}, "uniqueid": "MTK1435:323Q6SJS8JN6O86YAOPA5U6QWVNHFR", "dateTime": 1515881636779}, {"current_trial": 46, "trialdata": {"rt": -1, "trial_type": "single-stim", "stimulus": "<p id=\"stim\">8</p>", "internal_node_id": "0.0-35.0-2.0", "time_elapsed": 389138, "key_press": -1, "trial_index": 46}, "uniqueid": "MTK1435:323Q6SJS8JN6O86YAOPA5U6QWVNHFR", "dateTime": 1515881637781}, {"current_trial": 47, "trialdata": {"rt": -1, "trial_type": "single-stim", "stimulus": "<p id=\"stim\">7</p>", "internal_node_id": "0.0-35.0-3.0", "time_elapsed": 390139, "key_press": -1, "trial_index": 47}, "uniqueid": "MTK1435:323Q6SJS8JN6O86YAOPA5U6QWVNHFR", "dateTime": 1515881638782}, {"current_trial": 48, "trialdata": {"rt": -1, "trial_type": "single-stim", "stimulus": "<p id=\"stim\">6</p>", "internal_node_id": "0.0-35.0-4.0", "time_elapsed": 391141, "key_press": -1, "trial_index": 48}, "uniqueid": "MTK1435:323Q6SJS8JN6O86YAOPA5U6QWVNHFR", "dateTime": 1515881639787}, {"current_trial": 49, "trialdata": {"rt": -1, "trial_type": "single-stim", "stimulus": "<p id=\"stim\">5</p>", "internal_node_id": "0.0-35.0-5.0", "time_elapsed": 392146, "key_press": -1, "trial_index": 49}, "uniqueid": "MTK1435:323Q6SJS8JN6O86YAOPA5U6QWVNHFR", "dateTime": 1515881640789}, {"current_trial": 50, "trialdata": {"rt": -1, "trial_type": "single-stim", "stimulus": "<p id=\"stim\">4</p>", "internal_node_id": "0.0-35.0-6.0", "time_elapsed": 393148, "key_press": -1, "trial_index": 50}, "uniqueid": "MTK1435:323Q6SJS8JN6O86YAOPA5U6QWVNHFR", "dateTime": 1515881641791}, {"current_trial": 51, "trialdata": {"rt": -1, "trial_type": "single-stim", "stimulus": "<p id=\"stim\">3</p>", "internal_node_id": "0.0-35.0-7.0", "time_elapsed": 394149, "key_press": -1, "trial_index": 51}, "uniqueid": "MTK1435:323Q6SJS8JN6O86YAOPA5U6QWVNHFR", "dateTime": 1515881642792}, {"current_trial": 52, "trialdata": {"rt": -1, "trial_type": "single-stim", "stimulus": "<p id=\"stim\">2</p>", "internal_node_id": "0.0-35.0-8.0", "time_elapsed": 395151, "key_press": -1, "trial_index": 52}, "uniqueid": "MTK1435:323Q6SJS8JN6O86YAOPA5U6QWVNHFR", "dateTime": 1515881643794}, {"current_trial": 53, "trialdata": {"rt": -1, "trial_type": "single-stim", "stimulus": "<p id=\"stim\">1</p>", "internal_node_id": "0.0-35.0-9.0", "time_elapsed": 396152, "key_press": -1, "trial_index": 53}, "uniqueid": "MTK1435:323Q6SJS8JN6O86YAOPA5U6QWVNHFR", "dateTime": 1515881644795}, {"current_trial": 54, "trialdata": {"rt": -1, "trial_type": "single-stim", "stimulus": "<p id=\"stim\">+</p>", "internal_node_id": "0.0-36.0-0.0", "time_elapsed": 397654, "key_press": -1, "type": "FIXATION", "trial_index": 54}, "uniqueid": "MTK1435:323Q6SJS8JN6O86YAOPA5U6QWVNHFR", "dateTime": 1515881646297}, {"current_trial": 55, "trialdata": {"rt": -1, "trial_type": "single-stim", "word": "box", "stimulus": "<p id=\"stim\">BOX</p>", "conditions": [18, 1200, "v", 18000], "internal_node_id": "0.0-37.0", "trial": 1, "time_elapsed": 398856, "serialpos": 0, "key_press": -1, "wordID": 158, "type": "PRES_VIS", "trial_index": 55}, "uniqueid": "MTK1435:323Q6SJS8JN6O86YAOPA5U6QWVNHFR", "dateTime": 1515881647499}, {"current_trial": 56, "trialdata": {"rt": -1, "trial_type": "single-stim", "word": "salt", "stimulus": "<p id=\"stim\">SALT</p>", "conditions": [18, 1200, "v", 18000], "internal_node_id": "0.0-38.0", "trial": 1, "time_elapsed": 400903, "serialpos": 1, "key_press": -1, "wordID": 1228, "type": "PRES_VIS", "trial_index": 56}, "uniqueid": "MTK1435:323Q6SJS8JN6O86YAOPA5U6QWVNHFR", "dateTime": 1515881649546}, {"current_trial": 57, "trialdata": {"rt": -1, "trial_type": "single-stim", "word": "drug", "stimulus": "<p id=\"stim\">DRUG</p>", "conditions": [18, 1200, "v", 18000], "internal_node_id": "0.0-39.0", "trial": 1, "time_elapsed": 402907, "serialpos": 2, "key_press": -1, "wordID": 500, "type": "PRES_VIS", "trial_index": 57}, "uniqueid": "MTK1435:323Q6SJS8JN6O86YAOPA5U6QWVNHFR", "dateTime": 1515881651550}, {"current_trial": 58, "trialdata": {"rt": -1, "trial_type": "single-stim", "word": "mustard", "stimulus": "<p id=\"stim\">MUSTARD</p>", "conditions": [18, 1200, "v", 18000], "internal_node_id": "0.0-40.0", "trial": 1, "time_elapsed": 405099, "serialpos": 3, "key_press": -1, "wordID": 934, "type": "PRES_VIS", "trial_index": 58}, "uniqueid": "MTK1435:323Q6SJS8JN6O86YAOPA5U6QWVNHFR", "dateTime": 1515881653742}, {"current_trial": 59, "trialdata": {"rt": -1, "trial_type": "single-stim", "word": "girl", "stimulus": "<p id=\"stim\">GIRL</p>", "conditions": [18, 1200, "v", 18000], "internal_node_id": "0.0-41.0", "trial": 1, "time_elapsed": 407446, "serialpos": 4, "key_press": -1, "wordID": 636, "type": "PRES_VIS", "trial_index": 59}, "uniqueid": "MTK1435:323Q6SJS8JN6O86YAOPA5U6QWVNHFR", "dateTime": 1515881656089}, {"current_trial": 60, "trialdata": {"rt": -1, "trial_type": "single-stim", "word": "orchid", "stimulus": "<p id=\"stim\">ORCHID</p>", "conditions": [18, 1200, "v", 18000], "internal_node_id": "0.0-42.0", "trial": 1, "time_elapsed": 409816, "serialpos": 5, "key_press": -1, "wordID": 981, "type": "PRES_VIS", "trial_index": 60}, "uniqueid": "MTK1435:323Q6SJS8JN6O86YAOPA5U6QWVNHFR", "dateTime": 1515881658459}, {"current_trial": 61, "trialdata": {"rt": -1, "trial_type": "single-stim", "word": "washer", "stimulus": "<p id=\"stim\">WASHER</p>", "conditions": [18, 1200, "v", 18000], "internal_node_id": "0.0-43.0", "trial": 1, "time_elapsed": 411975, "serialpos": 6, "key_press": -1, "wordID": 1591, "type": "PRES_VIS", "trial_index": 61}, "uniqueid": "MTK1435:323Q6SJS8JN6O86YAOPA5U6QWVNHFR", "dateTime": 1515881660618}, {"current_trial": 62, "trialdata": {"rt": -1, "trial_type": "single-stim", "word": "saddle", "stimulus": "<p id=\"stim\">SADDLE</p>", "conditions": [18, 1200, "v", 18000], "internal_node_id": "0.0-44.0", "trial": 1, "time_elapsed": 414209, "serialpos": 7, "key_press": -1, "wordID": 1220, "type": "PRES_VIS", "trial_index": 62}, "uniqueid": "MTK1435:323Q6SJS8JN6O86YAOPA5U6QWVNHFR", "dateTime": 1515881662852}, {"current_trial": 63, "trialdata": {"rt": -1, "trial_type": "single-stim", "word": "raft", "stimulus": "<p id=\"stim\">RAFT</p>", "conditions": [18, 1200, "v", 18000], "internal_node_id": "0.0-45.0", "trial": 1, "time_elapsed": 416295, "serialpos": 8, "key_press": -1, "wordID": 1158, "type": "PRES_VIS", "trial_index": 63}, "uniqueid": "MTK1435:323Q6SJS8JN6O86YAOPA5U6QWVNHFR", "dateTime": 1515881664938}, {"current_trial": 64, "trialdata": {"rt": -1, "trial_type": "single-stim", "word": "cashew", "stimulus": "<p id=\"stim\">CASHEW</p>", "conditions": [18, 1200, "v", 18000], "internal_node_id": "0.0-46.0", "trial": 1, "time_elapsed": 418408, "serialpos": 9, "key_press": -1, "wordID": 252, "type": "PRES_VIS", "trial_index": 64}, "uniqueid": "MTK1435:323Q6SJS8JN6O86YAOPA5U6QWVNHFR", "dateTime": 1515881667052}, {"current_trial": 65, "trialdata": {"rt": -1, "trial_type": "single-stim", "word": "panther", "stimulus": "<p id=\"stim\">PANTHER</p>", "conditions": [18, 1200, "v", 18000], "internal_node_id": "0.0-47.0", "trial": 1, "time_elapsed": 420413, "serialpos": 10, "key_press": -1, "wordID": 1008, "type": "PRES_VIS", "trial_index": 65}, "uniqueid": "MTK1435:323Q6SJS8JN6O86YAOPA5U6QWVNHFR", "dateTime": 1515881669057}, {"current_trial": 66, "trialdata": {"rt": -1, "trial_type": "single-stim", "word": "kitchen", "stimulus": "<p id=\"stim\">KITCHEN</p>", "conditions": [18, 1200, "v", 18000], "internal_node_id": "0.0-48.0", "trial": 1, "time_elapsed": 422669, "serialpos": 11, "key_press": -1, "wordID": 777, "type": "PRES_VIS", "trial_index": 66}, "uniqueid": "MTK1435:323Q6SJS8JN6O86YAOPA5U6QWVNHFR", "dateTime": 1515881671313}, {"current_trial": 67, "trialdata": {"rt": -1, "trial_type": "single-stim", "word": "female", "stimulus": "<p id=\"stim\">FEMALE</p>", "conditions": [18, 1200, "v", 18000], "internal_node_id": "0.0-49.0", "trial": 1, "time_elapsed": 425005, "serialpos": 12, "key_press": -1, "wordID": 558, "type": "PRES_VIS", "trial_index": 67}, "uniqueid": "MTK1435:323Q6SJS8JN6O86YAOPA5U6QWVNHFR", "dateTime": 1515881673648}, {"current_trial": 68, "trialdata": {"rt": -1, "trial_type": "single-stim", "word": "canal", "stimulus": "<p id=\"stim\">CANAL</p>", "conditions": [18, 1200, "v", 18000], "internal_node_id": "0.0-50.0", "trial": 1, "time_elapsed": 427121, "serialpos": 13, "key_press": -1, "wordID": 225, "type": "PRES_VIS", "trial_index": 68}, "uniqueid": "MTK1435:323Q6SJS8JN6O86YAOPA5U6QWVNHFR", "dateTime": 1515881675768}, {"current_trial": 69, "trialdata": {"rt": -1, "trial_type": "single-stim", "word": "bunny", "stimulus": "<p id=\"stim\">BUNNY</p>", "conditions": [18, 1200, "v", 18000], "internal_node_id": "0.0-51.0", "trial": 1, "time_elapsed": 429137, "serialpos": 14, "key_press": -1, "wordID": 197, "type": "PRES_VIS", "trial_index": 69}, "uniqueid": "MTK1435:323Q6SJS8JN6O86YAOPA5U6QWVNHFR", "dateTime": 1515881677780}, {"current_trial": 70, "trialdata": {"rt": -1, "trial_type": "single-stim", "word": "forehead", "stimulus": "<p id=\"stim\">FOREHEAD</p>", "conditions": [18, 1200, "v", 18000], "internal_node_id": "0.0-52.0", "trial": 1, "time_elapsed": 431356, "serialpos": 15, "key_press": -1, "wordID": 591, "type": "PRES_VIS", "trial_index": 70}, "uniqueid": "MTK1435:323Q6SJS8JN6O86YAOPA5U6QWVNHFR", "dateTime": 1515881679999}, {"current_trial": 71, "trialdata": {"rt": -1, "trial_type": "single-stim", "word": "donor", "stimulus": "<p id=\"stim\">DONOR</p>", "conditions": [18, 1200, "v", 18000], "internal_node_id": "0.0-53.0", "trial": 1, "time_elapsed": 433504, "serialpos": 16, "key_press": -1, "wordID": 484, "type": "PRES_VIS", "trial_index": 71}, "uniqueid": "MTK1435:323Q6SJS8JN6O86YAOPA5U6QWVNHFR", "dateTime": 1515881682148}, {"current_trial": 72, "trialdata": {"rt": -1, "trial_type": "single-stim", "word": "apple", "stimulus": "<p id=\"stim\">APPLE</p>", "conditions": [18, 1200, "v", 18000], "internal_node_id": "0.0-54.0", "trial": 1, "time_elapsed": 435712, "serialpos": 17, "key_press": -1, "wordID": 32, "type": "PRES_VIS", "trial_index": 72}, "uniqueid": "MTK1435:323Q6SJS8JN6O86YAOPA5U6QWVNHFR", "dateTime": 1515881684355}, {"current_trial": 73, "trialdata": {"rt": -1, "trial_type": "single-stim", "stimulus": "", "internal_node_id": "0.0-55.0-0.0", "time_elapsed": 438061, "key_press": -1, "type": "PRE_RECALL_DELAY", "trial_index": 73}, "uniqueid": "MTK1435:323Q6SJS8JN6O86YAOPA5U6QWVNHFR", "dateTime": 1515881686704}, {"current_trial": 74, "trialdata": {"rt": -1000, "trial_type": "single-audio", "stimulus": "/static/audio/400Hz.wav", "internal_node_id": "0.0-56.0", "time_elapsed": 438563, "key_press": -1, "type": "PRE_RECALL_ALERT", "trial_index": 74}, "uniqueid": "MTK1435:323Q6SJS8JN6O86YAOPA5U6QWVNHFR", "dateTime": 1515881687206}, {"current_trial": 75, "trialdata": {"rt": [2064, 4040, 5256, 6520, 8416, 10312, 17432, 24224, 34112, 52248], "recwords": ["box", "female", "apple", "donor", "garage", "cashew", "washer", "forehead", "orchid", "canal"], "key_times": [865, 953, 1209, 2064, 2769, 2904, 3089, 3256, 3321, 3641, 4040, 4265, 4457, 4601, 4825, 4953, 5256, 5521, 5577, 5833, 5969, 6193, 6520, 7193, 7409, 7585, 7769, 7929, 8217, 8416, 8625, 8809, 9121, 9217, 9473, 9593, 10312, 16369, 16545, 16777, 16897, 17041, 17145, 17432, 22889, 23033, 23177, 23257, 23465, 23577, 23705, 23993, 24224, 33153, 33312, 33560, 33641, 33737, 33904, 34112, 51369, 51520, 51664, 51793, 51968, 52248], "trial_type": "free-recall", "conditions": [18, 1200, "v", 18000], "internal_node_id": "0.0-57.0-0.0", "key_presses": [66, 79, 88, 13, 70, 69, 77, 65, 76, 69, 13, 65, 80, 80, 76, 69, 13, 68, 79, 78, 79, 82, 13, 71, 65, 82, 65, 71, 69, 13, 67, 65, 83, 72, 69, 87, 13, 87, 65, 83, 72, 69, 82, 13, 70, 79, 82, 69, 72, 69, 65, 68, 13, 79, 82, 67, 72, 73, 68, 13, 67, 65, 78, 65, 76, 13], "trial": 1, "time_elapsed": 498567, "type": "FREE_RECALL", "trial_index": 75}, "uniqueid": "MTK1435:323Q6SJS8JN6O86YAOPA5U6QWVNHFR", "dateTime": 1515881747216}, {"current_trial": 76, "trialdata": {"rt": 4248, "trial_type": "text", "internal_node_id": "0.0-58.0", "time_elapsed": 504822, "key_press": 32, "type": "INSTRUCTIONS", "trial_index": 76}, "uniqueid": "MTK1435:323Q6SJS8JN6O86YAOPA5U6QWVNHFR", "dateTime": 1515881753466}, {"current_trial": 77, "trialdata": {"rt": [3101, 6013, 9157, 11517, 14782, 16469, 17973, 20549, 23429], "trial_type": "math-distractor", "key_times": [2693, 2877, 3101, 5653, 5829, 6013, 8749, 8909, 9157, 10989, 11237, 11517, 14349, 14550, 14782, 16038, 16229, 16469, 17565, 17757, 17973, 20142, 20325, 20549, 23013, 23197, 23429], "responses": ["25", "20", "22", "19", "16", "16", "15", "16", "13"], "num2": [7, 5, 8, 8, 7, 9, 6, 4, 6, 6], "num3": [9, 9, 7, 6, 5, 1, 1, 7, 7, 9], "conditions": [24, 1600, "v", 24000], "internal_node_id": "0.0-59.0", "key_presses": [98, 101, 13, 98, 96, 13, 98, 98, 13, 97, 105, 13, 97, 102, 13, 97, 102, 13, 97, 101, 13, 97, 102, 13, 97, 99, 13], "trial": 2, "time_elapsed": 529826, "type": "DISTRACTOR", "trial_index": 77, "num1": [9, 6, 7, 5, 4, 6, 8, 5, 8, 7]}, "uniqueid": "MTK1435:323Q6SJS8JN6O86YAOPA5U6QWVNHFR", "dateTime": 1515881778469}, {"current_trial": 78, "trialdata": {"rt": -1, "trial_type": "single-stim", "stimulus": "<p id=\"stim\">10</p>", "internal_node_id": "0.0-60.0-0.0", "time_elapsed": 532828, "key_press": -1, "trial_index": 78}, "uniqueid": "MTK1435:323Q6SJS8JN6O86YAOPA5U6QWVNHFR", "dateTime": 1515881781472}, {"current_trial": 79, "trialdata": {"rt": -1, "trial_type": "single-stim", "stimulus": "<p id=\"stim\">9</p>", "internal_node_id": "0.0-60.0-1.0", "time_elapsed": 533830, "key_press": -1, "trial_index": 79}, "uniqueid": "MTK1435:323Q6SJS8JN6O86YAOPA5U6QWVNHFR", "dateTime": 1515881782473}, {"current_trial": 80, "trialdata": {"rt": -1, "trial_type": "single-stim", "stimulus": "<p id=\"stim\">8</p>", "internal_node_id": "0.0-60.0-2.0", "time_elapsed": 534831, "key_press": -1, "trial_index": 80}, "uniqueid": "MTK1435:323Q6SJS8JN6O86YAOPA5U6QWVNHFR", "dateTime": 1515881783474}, {"current_trial": 81, "trialdata": {"rt": -1, "trial_type": "single-stim", "stimulus": "<p id=\"stim\">7</p>", "internal_node_id": "0.0-60.0-3.0", "time_elapsed": 535833, "key_press": -1, "trial_index": 81}, "uniqueid": "MTK1435:323Q6SJS8JN6O86YAOPA5U6QWVNHFR", "dateTime": 1515881784476}, {"current_trial": 82, "trialdata": {"rt": -1, "trial_type": "single-stim", "stimulus": "<p id=\"stim\">6</p>", "internal_node_id": "0.0-60.0-4.0", "time_elapsed": 536835, "key_press": -1, "trial_index": 82}, "uniqueid": "MTK1435:323Q6SJS8JN6O86YAOPA5U6QWVNHFR", "dateTime": 1515881785478}, {"current_trial": 83, "trialdata": {"rt": -1, "trial_type": "single-stim", "stimulus": "<p id=\"stim\">5</p>", "internal_node_id": "0.0-60.0-5.0", "time_elapsed": 537836, "key_press": -1, "trial_index": 83}, "uniqueid": "MTK1435:323Q6SJS8JN6O86YAOPA5U6QWVNHFR", "dateTime": 1515881786479}, {"current_trial": 84, "trialdata": {"rt": -1, "trial_type": "single-stim", "stimulus": "<p id=\"stim\">4</p>", "internal_node_id": "0.0-60.0-6.0", "time_elapsed": 538837, "key_press": -1, "trial_index": 84}, "uniqueid": "MTK1435:323Q6SJS8JN6O86YAOPA5U6QWVNHFR", "dateTime": 1515881787480}, {"current_trial": 85, "trialdata": {"rt": -1, "trial_type": "single-stim", "stimulus": "<p id=\"stim\">3</p>", "internal_node_id": "0.0-60.0-7.0", "time_elapsed": 539839, "key_press": -1, "trial_index": 85}, "uniqueid": "MTK1435:323Q6SJS8JN6O86YAOPA5U6QWVNHFR", "dateTime": 1515881788482}, {"current_trial": 86, "trialdata": {"rt": -1, "trial_type": "single-stim", "stimulus": "<p id=\"stim\">2</p>", "internal_node_id": "0.0-60.0-8.0", "time_elapsed": 540841, "key_press": -1, "trial_index": 86}, "uniqueid": "MTK1435:323Q6SJS8JN6O86YAOPA5U6QWVNHFR", "dateTime": 1515881789484}, {"current_trial": 87, "trialdata": {"rt": -1, "trial_type": "single-stim", "stimulus": "<p id=\"stim\">1</p>", "internal_node_id": "0.0-60.0-9.0", "time_elapsed": 541842, "key_press": -1, "trial_index": 87}, "uniqueid": "MTK1435:323Q6SJS8JN6O86YAOPA5U6QWVNHFR", "dateTime": 1515881790485}, {"current_trial": 88, "trialdata": {"rt": -1, "trial_type": "single-stim", "stimulus": "<p id=\"stim\">+</p>", "internal_node_id": "0.0-61.0-0.0", "time_elapsed": 543344, "key_press": -1, "type": "FIXATION", "trial_index": 88}, "uniqueid": "MTK1435:323Q6SJS8JN6O86YAOPA5U6QWVNHFR", "dateTime": 1515881791987}, {"current_trial": 89, "trialdata": {"rt": -1, "trial_type": "single-stim", "word": "oyster", "stimulus": "<p id=\"stim\">OYSTER</p>", "conditions": [24, 1600, "v", 24000], "internal_node_id": "0.0-62.0", "trial": 2, "time_elapsed": 544945, "serialpos": 0, "key_press": -1, "wordID": 994, "type": "PRES_VIS", "trial_index": 89}, "uniqueid": "MTK1435:323Q6SJS8JN6O86YAOPA5U6QWVNHFR", "dateTime": 1515881793588}, {"current_trial": 90, "trialdata": {"rt": -1, "trial_type": "single-stim", "word": "snail", "stimulus": "<p id=\"stim\">SNAIL</p>", "conditions": [24, 1600, "v", 24000], "internal_node_id": "0.0-63.0", "trial": 2, "time_elapsed": 547430, "serialpos": 1, "key_press": -1, "wordID": 1331, "type": "PRES_VIS", "trial_index": 90}, "uniqueid": "MTK1435:323Q6SJS8JN6O86YAOPA5U6QWVNHFR", "dateTime": 1515881796073}, {"current_trial": 91, "trialdata": {"rt": -1, "trial_type": "single-stim", "word": "fireplace", "stimulus": "<p id=\"stim\">FIREPLACE</p>", "conditions": [24, 1600, "v", 24000], "internal_node_id": "0.0-64.0", "trial": 2, "time_elapsed": 549921, "serialpos": 2, "key_press": -1, "wordID": 569, "type": "PRES_VIS", "trial_index": 91}, "uniqueid": "MTK1435:323Q6SJS8JN6O86YAOPA5U6QWVNHFR", "dateTime": 1515881798564}, {"current_trial": 92, "trialdata": {"rt": -1, "trial_type": "single-stim", "word": "stove", "stimulus": "<p id=\"stim\">STOVE</p>", "conditions": [24, 1600, "v", 24000], "internal_node_id": "0.0-65.0", "trial": 2, "time_elapsed": 552617, "serialpos": 3, "key_press": -1, "wordID": 1387, "type": "PRES_VIS", "trial_index": 92}, "uniqueid": "MTK1435:323Q6SJS8JN6O86YAOPA5U6QWVNHFR", "dateTime": 1515881801260}, {"current_trial": 93, "trialdata": {"rt": -1, "trial_type": "single-stim", "word": "nurse", "stimulus": "<p id=\"stim\">NURSE</p>", "conditions": [24, 1600, "v", 24000], "internal_node_id": "0.0-66.0", "trial": 2, "time_elapsed": 555072, "serialpos": 4, "key_press": -1, "wordID": 962, "type": "PRES_VIS", "trial_index": 93}, "uniqueid": "MTK1435:323Q6SJS8JN6O86YAOPA5U6QWVNHFR", "dateTime": 1515881803715}, {"current_trial": 94, "trialdata": {"rt": -1, "trial_type": "single-stim", "word": "goblin", "stimulus": "<p id=\"stim\">GOBLIN</p>", "conditions": [24, 1600, "v", 24000], "internal_node_id": "0.0-67.0", "trial": 2, "time_elapsed": 557569, "serialpos": 5, "key_press": -1, "wordID": 644, "type": "PRES_VIS", "trial_index": 94}, "uniqueid": "MTK1435:323Q6SJS8JN6O86YAOPA5U6QWVNHFR", "dateTime": 1515881806212}, {"current_trial": 95, "trialdata": {"rt": -1, "trial_type": "single-stim", "word": "crab", "stimulus": "<p id=\"stim\">CRAB</p>", "conditions": [24, 1600, "v", 24000], "internal_node_id": "0.0-68.0", "trial": 2, "time_elapsed": 560040, "serialpos": 6, "key_press": -1, "wordID": 396, "type": "PRES_VIS", "trial_index": 95}, "uniqueid": "MTK1435:323Q6SJS8JN6O86YAOPA5U6QWVNHFR", "dateTime": 1515881808683}, {"current_trial": 96, "trialdata": {"rt": -1, "trial_type": "single-stim", "word": "beast", "stimulus": "<p id=\"stim\">BEAST</p>", "conditions": [24, 1600, "v", 24000], "internal_node_id": "0.0-69.0", "trial": 2, "time_elapsed": 562519, "serialpos": 7, "key_press": -1, "wordID": 107, "type": "PRES_VIS", "trial_index": 96}, "uniqueid": "MTK1435:323Q6SJS8JN6O86YAOPA5U6QWVNHFR", "dateTime": 1515881811162}, {"current_trial": 97, "trialdata": {"rt": -1, "trial_type": "single-stim", "word": "summit", "stimulus": "<p id=\"stim\">SUMMIT</p>", "conditions": [24, 1600, "v", 24000], "internal_node_id": "0.0-70.0", "trial": 2, "time_elapsed": 564929, "serialpos": 8, "key_press": -1, "wordID": 1404, "type": "PRES_VIS", "trial_index": 97}, "uniqueid": "MTK1435:323Q6SJS8JN6O86YAOPA5U6QWVNHFR", "dateTime": 1515881813572}, {"current_trial": 98, "trialdata": {"rt": -1, "trial_type": "single-stim", "word": "concert", "stimulus": "<p id=\"stim\">CONCERT</p>", "conditions": [24, 1600, "v", 24000], "internal_node_id": "0.0-71.0", "trial": 2, "time_elapsed": 567400, "serialpos": 9, "key_press": -1, "wordID": 359, "type": "PRES_VIS", "trial_index": 98}, "uniqueid": "MTK1435:323Q6SJS8JN6O86YAOPA5U6QWVNHFR", "dateTime": 1515881816043}, {"current_trial": 99, "trialdata": {"rt": -1, "trial_type": "single-stim", "word": "radish", "stimulus": "<p id=\"stim\">RADISH</p>", "conditions": [24, 1600, "v", 24000], "internal_node_id": "0.0-72.0", "trial": 2, "time_elapsed": 570155, "serialpos": 10, "key_press": -1, "wordID": 1157, "type": "PRES_VIS", "trial_index": 99}, "uniqueid": "MTK1435:323Q6SJS8JN6O86YAOPA5U6QWVNHFR", "dateTime": 1515881818798}, {"current_trial": 100, "trialdata": {"rt": -1, "trial_type": "single-stim", "word": "scallop", "stimulus": "<p id=\"stim\">SCALLOP</p>", "conditions": [24, 1600, "v", 24000], "internal_node_id": "0.0-73.0", "trial": 2, "time_elapsed": 572635, "serialpos": 11, "key_press": -1, "wordID": 1241, "type": "PRES_VIS", "trial_index": 100}, "uniqueid": "MTK1435:323Q6SJS8JN6O86YAOPA5U6QWVNHFR", "dateTime": 1515881821279}, {"current_trial": 101, "trialdata": {"rt": -1, "trial_type": "single-stim", "word": "knapsack", "stimulus": "<p id=\"stim\">KNAPSACK</p>", "conditions": [24, 1600, "v", 24000], "internal_node_id": "0.0-74.0", "trial": 2, "time_elapsed": 575144, "serialpos": 12, "key_press": -1, "wordID": 782, "type": "PRES_VIS", "trial_index": 101}, "uniqueid": "MTK1435:323Q6SJS8JN6O86YAOPA5U6QWVNHFR", "dateTime": 1515881823787}, {"current_trial": 102, "trialdata": {"rt": -1, "trial_type": "single-stim", "word": "mask", "stimulus": "<p id=\"stim\">MASK</p>", "conditions": [24, 1600, "v", 24000], "internal_node_id": "0.0-75.0", "trial": 2, "time_elapsed": 577933, "serialpos": 13, "key_press": -1, "wordID": 875, "type": "PRES_VIS", "trial_index": 102}, "uniqueid": "MTK1435:323Q6SJS8JN6O86YAOPA5U6QWVNHFR", "dateTime": 1515881826576}, {"current_trial": 103, "trialdata": {"rt": -1, "trial_type": "single-stim", "word": "bank", "stimulus": "<p id=\"stim\">BANK</p>", "conditions": [24, 1600, "v", 24000], "internal_node_id": "0.0-76.0", "trial": 2, "time_elapsed": 580583, "serialpos": 14, "key_press": -1, "wordID": 82, "type": "PRES_VIS", "trial_index": 103}, "uniqueid": "MTK1435:323Q6SJS8JN6O86YAOPA5U6QWVNHFR", "dateTime": 1515881829226}, {"current_trial": 104, "trialdata": {"rt": -1, "trial_type": "single-stim", "word": "garbage", "stimulus": "<p id=\"stim\">GARBAGE</p>", "conditions": [24, 1600, "v", 24000], "internal_node_id": "0.0-77.0", "trial": 2, "time_elapsed": 583265, "serialpos": 15, "key_press": -1, "wordID": 621, "type": "PRES_VIS", "trial_index": 104}, "uniqueid": "MTK1435:323Q6SJS8JN6O86YAOPA5U6QWVNHFR", "dateTime": 1515881831908}, {"current_trial": 105, "trialdata": {"rt": -1, "trial_type": "single-stim", "word": "sheriff", "stimulus": "<p id=\"stim\">SHERIFF</p>", "conditions": [24, 1600, "v", 24000], "internal_node_id": "0.0-78.0", "trial": 2, "time_elapsed": 585696, "serialpos": 16, "key_press": -1, "wordID": 1283, "type": "PRES_VIS", "trial_index": 105}, "uniqueid": "MTK1435:323Q6SJS8JN6O86YAOPA5U6QWVNHFR", "dateTime": 1515881834339}, {"current_trial": 106, "trialdata": {"rt": -1, "trial_type": "single-stim", "word": "blouse", "stimulus": "<p id=\"stim\">BLOUSE</p>", "conditions": [24, 1600, "v", 24000], "internal_node_id": "0.0-79.0", "trial": 2, "time_elapsed": 588469, "serialpos": 17, "key_press": -1, "wordID": 138, "type": "PRES_VIS", "trial_index": 106}, "uniqueid": "MTK1435:323Q6SJS8JN6O86YAOPA5U6QWVNHFR", "dateTime": 1515881837112}, {"current_trial": 107, "trialdata": {"rt": -1, "trial_type": "single-stim", "word": "cashier", "stimulus": "<p id=\"stim\">CASHIER</p>", "conditions": [24, 1600, "v", 24000], "internal_node_id": "0.0-80.0", "trial": 2, "time_elapsed": 591046, "serialpos": 18, "key_press": -1, "wordID": 253, "type": "PRES_VIS", "trial_index": 107}, "uniqueid": "MTK1435:323Q6SJS8JN6O86YAOPA5U6QWVNHFR", "dateTime": 1515881839689}, {"current_trial": 108, "trialdata": {"rt": -1, "trial_type": "single-stim", "word": "termite", "stimulus": "<p id=\"stim\">TERMITE</p>", "conditions": [24, 1600, "v", 24000], "internal_node_id": "0.0-81.0", "trial": 2, "time_elapsed": 593593, "serialpos": 19, "key_press": -1, "wordID": 1450, "type": "PRES_VIS", "trial_index": 108}, "uniqueid": "MTK1435:323Q6SJS8JN6O86YAOPA5U6QWVNHFR", "dateTime": 1515881842236}, {"current_trial": 109, "trialdata": {"rt": -1, "trial_type": "single-stim", "word": "piano", "stimulus": "<p id=\"stim\">PIANO</p>", "conditions": [24, 1600, "v", 24000], "internal_node_id": "0.0-82.0", "trial": 2, "time_elapsed": 596233, "serialpos": 20, "key_press": -1, "wordID": 1056, "type": "PRES_VIS", "trial_index": 109}, "uniqueid": "MTK1435:323Q6SJS8JN6O86YAOPA5U6QWVNHFR", "dateTime": 1515881844876}, {"current_trial": 110, "trialdata": {"rt": -1, "trial_type": "single-stim", "word": "lover", "stimulus": "<p id=\"stim\">LOVER</p>", "conditions": [24, 1600, "v", 24000], "internal_node_id": "0.0-83.0", "trial": 2, "time_elapsed": 598879, "serialpos": 21, "key_press": -1, "wordID": 845, "type": "PRES_VIS", "trial_index": 110}, "uniqueid": "MTK1435:323Q6SJS8JN6O86YAOPA5U6QWVNHFR", "dateTime": 1515881847522}, {"current_trial": 111, "trialdata": {"rt": -1, "trial_type": "single-stim", "word": "boyfriend", "stimulus": "<p id=\"stim\">BOYFRIEND</p>", "conditions": [24, 1600, "v", 24000], "internal_node_id": "0.0-84.0", "trial": 2, "time_elapsed": 601594, "serialpos": 22, "key_press": -1, "wordID": 161, "type": "PRES_VIS", "trial_index": 111}, "uniqueid": "MTK1435:323Q6SJS8JN6O86YAOPA5U6QWVNHFR", "dateTime": 1515881850237}, {"current_trial": 112, "trialdata": {"rt": -1, "trial_type": "single-stim", "word": "fungus", "stimulus": "<p id=\"stim\">FUNGUS</p>", "conditions": [24, 1600, "v", 24000], "internal_node_id": "0.0-85.0", "trial": 2, "time_elapsed": 604253, "serialpos": 23, "key_press": -1, "wordID": 613, "type": "PRES_VIS", "trial_index": 112}, "uniqueid": "MTK1435:323Q6SJS8JN6O86YAOPA5U6QWVNHFR", "dateTime": 1515881852896}, {"current_trial": 113, "trialdata": {"rt": -1, "trial_type": "single-stim", "stimulus": "", "internal_node_id": "0.0-86.0-0.0", "time_elapsed": 606705, "key_press": -1, "type": "PRE_RECALL_DELAY", "trial_index": 113}, "uniqueid": "MTK1435:323Q6SJS8JN6O86YAOPA5U6QWVNHFR", "dateTime": 1515881855348}, {"current_trial": 114, "trialdata": {"rt": -1000, "trial_type": "single-audio", "stimulus": "/static/audio/400Hz.wav", "internal_node_id": "0.0-87.0", "time_elapsed": 607207, "key_press": -1, "type": "PRE_RECALL_ALERT", "trial_index": 114}, "uniqueid": "MTK1435:323Q6SJS8JN6O86YAOPA5U6QWVNHFR", "dateTime": 1515881855850}, {"current_trial": 115, "trialdata": {"rt": [1716, 2932, 4284, 5468, 8636, 11212, 12676, 13996, 16228, 21060, 49300, 52563], "recwords": ["mask", "bank", "cashier", "termite", "garbage", "snail", "fungus", "crab", "scallop", "beast", "scallop", "knapsack"], "key_times": [933, 1052, 1173, 1404, 1716, 1884, 1981, 2076, 2212, 2932, 3060, 3228, 3484, 3573, 3732, 3868, 3972, 4284, 4432, 4493, 4604, 4692, 4812, 5020, 5188, 5468, 5660, 5796, 5956, 6228, 6356, 6692, 7116, 8636, 10100, 10220, 10404, 10525, 10644, 11212, 11428, 11492, 11700, 11860, 12020, 12220, 12676, 13236, 13452, 13557, 13788, 13996, 14268, 14500, 14620, 14996, 15157, 15364, 15636, 16228, 19396, 19628, 19780, 19916, 20180, 21060, 46909, 47132, 47244, 47404, 47577, 47820, 48786, 49300, 50452, 50652, 50812, 50972, 51164, 51340, 52220, 52316, 52563], "trial_type": "free-recall", "conditions": [24, 1600, "v", 24000], "internal_node_id": "0.0-88.0-0.0", "key_presses": [77, 65, 83, 75, 32, 66, 65, 78, 75, 32, 67, 65, 83, 72, 73, 69, 82, 32, 84, 69, 82, 77, 73, 84, 69, 32, 71, 65, 82, 66, 65, 71, 69, 32, 83, 78, 65, 73, 76, 13, 70, 85, 78, 71, 85, 83, 13, 67, 82, 65, 66, 13, 83, 67, 65, 76, 76, 79, 80, 13, 66, 69, 65, 83, 84, 13, 83, 67, 65, 76, 76, 79, 80, 13, 75, 78, 65, 80, 83, 65, 67, 75, 13], "trial": 2, "time_elapsed": 667211, "type": "FREE_RECALL", "trial_index": 115}, "uniqueid": "MTK1435:323Q6SJS8JN6O86YAOPA5U6QWVNHFR", "dateTime": 1515881915857}, {"current_trial": 116, "trialdata": {"rt": 2053, "trial_type": "text", "internal_node_id": "0.0-89.0", "time_elapsed": 671270, "key_press": 32, "type": "INSTRUCTIONS", "trial_index": 116}, "uniqueid": "MTK1435:323Q6SJS8JN6O86YAOPA5U6QWVNHFR", "dateTime": 1515881919913}, {"current_trial": 117, "trialdata": {"rt": [2114, 4363, 6746, 8659, 11907, 15403, 16747, 20298, 22178], "trial_type": "math-distractor", "key_times": [1595, 1867, 2114, 3899, 4123, 4363, 6346, 6547, 6746, 8253, 8443, 8659, 11435, 11666, 11907, 14987, 15154, 15403, 16499, 16747, 19924, 20115, 20298, 21715, 21930, 22178, 23667, 23867], "responses": ["17", "25", "20", "20", "18", "26", "9", "15", "19"], "num2": [6, 9, 7, 8, 3, 9, 5, 1, 4, 1], "num3": [5, 8, 5, 3, 8, 8, 1, 8, 6, 8], "conditions": [12, 800, "v", 24000], "internal_node_id": "0.0-90.0", "key_presses": [97, 103, 13, 98, 101, 13, 98, 96, 13, 98, 96, 13, 97, 104, 13, 98, 102, 13, 105, 13, 97, 101, 13, 97, 105, 13, 97, 101], "trial": 3, "time_elapsed": 697275, "type": "DISTRACTOR", "trial_index": 117, "num1": [6, 8, 8, 9, 7, 9, 3, 6, 9, 6]}, "uniqueid": "MTK1435:323Q6SJS8JN6O86YAOPA5U6QWVNHFR", "dateTime": 1515881945918}, {"current_trial": 118, "trialdata": {"rt": -1, "trial_type": "single-stim", "stimulus": "<p id=\"stim\">10</p>", "internal_node_id": "0.0-91.0-0.0", "time_elapsed": 700278, "key_press": -1, "trial_index": 118}, "uniqueid": "MTK1435:323Q6SJS8JN6O86YAOPA5U6QWVNHFR", "dateTime": 1515881948921}, {"current_trial": 119, "trialdata": {"rt": -1, "trial_type": "single-stim", "stimulus": "<p id=\"stim\">9</p>", "internal_node_id": "0.0-91.0-1.0", "time_elapsed": 701279, "key_press": -1, "trial_index": 119}, "uniqueid": "MTK1435:323Q6SJS8JN6O86YAOPA5U6QWVNHFR", "dateTime": 1515881949922}, {"current_trial": 120, "trialdata": {"rt": -1, "trial_type": "single-stim", "stimulus": "<p id=\"stim\">8</p>", "internal_node_id": "0.0-91.0-2.0", "time_elapsed": 702281, "key_press": -1, "trial_index": 120}, "uniqueid": "MTK1435:323Q6SJS8JN6O86YAOPA5U6QWVNHFR", "dateTime": 1515881950924}, {"current_trial": 121, "trialdata": {"rt": -1, "trial_type": "single-stim", "stimulus": "<p id=\"stim\">7</p>", "internal_node_id": "0.0-91.0-3.0", "time_elapsed": 703283, "key_press": -1, "trial_index": 121}, "uniqueid": "MTK1435:323Q6SJS8JN6O86YAOPA5U6QWVNHFR", "dateTime": 1515881951926}, {"current_trial": 122, "trialdata": {"rt": -1, "trial_type": "single-stim", "stimulus": "<p id=\"stim\">6</p>", "internal_node_id": "0.0-91.0-4.0", "time_elapsed": 704285, "key_press": -1, "trial_index": 122}, "uniqueid": "MTK1435:323Q6SJS8JN6O86YAOPA5U6QWVNHFR", "dateTime": 1515881952928}, {"current_trial": 123, "trialdata": {"rt": -1, "trial_type": "single-stim", "stimulus": "<p id=\"stim\">5</p>", "internal_node_id": "0.0-91.0-5.0", "time_elapsed": 705285, "key_press": -1, "trial_index": 123}, "uniqueid": "MTK1435:323Q6SJS8JN6O86YAOPA5U6QWVNHFR", "dateTime": 1515881953928}, {"current_trial": 124, "trialdata": {"rt": -1, "trial_type": "single-stim", "stimulus": "<p id=\"stim\">4</p>", "internal_node_id": "0.0-91.0-6.0", "time_elapsed": 706287, "key_press": -1, "trial_index": 124}, "uniqueid": "MTK1435:323Q6SJS8JN6O86YAOPA5U6QWVNHFR", "dateTime": 1515881954930}, {"current_trial": 125, "trialdata": {"rt": -1, "trial_type": "single-stim", "stimulus": "<p id=\"stim\">3</p>", "internal_node_id": "0.0-91.0-7.0", "time_elapsed": 707288, "key_press": -1, "trial_index": 125}, "uniqueid": "MTK1435:323Q6SJS8JN6O86YAOPA5U6QWVNHFR", "dateTime": 1515881955931}, {"current_trial": 126, "trialdata": {"rt": -1, "trial_type": "single-stim", "stimulus": "<p id=\"stim\">2</p>", "internal_node_id": "0.0-91.0-8.0", "time_elapsed": 708289, "key_press": -1, "trial_index": 126}, "uniqueid": "MTK1435:323Q6SJS8JN6O86YAOPA5U6QWVNHFR", "dateTime": 1515881956932}, {"current_trial": 127, "trialdata": {"rt": -1, "trial_type": "single-stim", "stimulus": "<p id=\"stim\">1</p>", "internal_node_id": "0.0-91.0-9.0", "time_elapsed": 709290, "key_press": -1, "trial_index": 127}, "uniqueid": "MTK1435:323Q6SJS8JN6O86YAOPA5U6QWVNHFR", "dateTime": 1515881957933}, {"current_trial": 128, "trialdata": {"rt": -1, "trial_type": "single-stim", "stimulus": "<p id=\"stim\">+</p>", "internal_node_id": "0.0-92.0-0.0", "time_elapsed": 710791, "key_press": -1, "type": "FIXATION", "trial_index": 128}, "uniqueid": "MTK1435:323Q6SJS8JN6O86YAOPA5U6QWVNHFR", "dateTime": 1515881959434}, {"current_trial": 129, "trialdata": {"rt": -1, "trial_type": "single-stim", "word": "leg", "stimulus": "<p id=\"stim\">LEG</p>", "conditions": [12, 800, "v", 24000], "internal_node_id": "0.0-93.0", "trial": 3, "time_elapsed": 711592, "serialpos": 0, "key_press": -1, "wordID": 808, "type": "PRES_VIS", "trial_index": 129}, "uniqueid": "MTK1435:323Q6SJS8JN6O86YAOPA5U6QWVNHFR", "dateTime": 1515881960236}, {"current_trial": 130, "trialdata": {"rt": -1, "trial_type": "single-stim", "word": "rabbit", "stimulus": "<p id=\"stim\">RABBIT</p>", "conditions": [12, 800, "v", 24000], "internal_node_id": "0.0-94.0", "trial": 3, "time_elapsed": 713251, "serialpos": 1, "key_press": -1, "wordID": 1151, "type": "PRES_VIS", "trial_index": 130}, "uniqueid": "MTK1435:323Q6SJS8JN6O86YAOPA5U6QWVNHFR", "dateTime": 1515881961894}, {"current_trial": 131, "trialdata": {"rt": -1, "trial_type": "single-stim", "word": "tortoise", "stimulus": "<p id=\"stim\">TORTOISE</p>", "conditions": [12, 800, "v", 24000], "internal_node_id": "0.0-95.0", "trial": 3, "time_elapsed": 714897, "serialpos": 2, "key_press": -1, "wordID": 1485, "type": "PRES_VIS", "trial_index": 131}, "uniqueid": "MTK1435:323Q6SJS8JN6O86YAOPA5U6QWVNHFR", "dateTime": 1515881963540}, {"current_trial": 132, "trialdata": {"rt": -1, "trial_type": "single-stim", "word": "flesh", "stimulus": "<p id=\"stim\">FLESH</p>", "conditions": [12, 800, "v", 24000], "internal_node_id": "0.0-96.0", "trial": 3, "time_elapsed": 716539, "serialpos": 3, "key_press": -1, "wordID": 578, "type": "PRES_VIS", "trial_index": 132}, "uniqueid": "MTK1435:323Q6SJS8JN6O86YAOPA5U6QWVNHFR", "dateTime": 1515881965182}, {"current_trial": 133, "trialdata": {"rt": -1, "trial_type": "single-stim", "word": "shoulder", "stimulus": "<p id=\"stim\">SHOULDER</p>", "conditions": [12, 800, "v", 24000], "internal_node_id": "0.0-97.0", "trial": 3, "time_elapsed": 718239, "serialpos": 4, "key_press": -1, "wordID": 1293, "type": "PRES_VIS", "trial_index": 133}, "uniqueid": "MTK1435:323Q6SJS8JN6O86YAOPA5U6QWVNHFR", "dateTime": 1515881966882}, {"current_trial": 134, "trialdata": {"rt": -1, "trial_type": "single-stim", "word": "briefcase", "stimulus": "<p id=\"stim\">BRIEFCASE</p>", "conditions": [12, 800, "v", 24000], "internal_node_id": "0.0-98.0", "trial": 3, "time_elapsed": 720103, "serialpos": 5, "key_press": -1, "wordID": 174, "type": "PRES_VIS", "trial_index": 134}, "uniqueid": "MTK1435:323Q6SJS8JN6O86YAOPA5U6QWVNHFR", "dateTime": 1515881968746}, {"current_trial": 135, "trialdata": {"rt": -1, "trial_type": "single-stim", "word": "blender", "stimulus": "<p id=\"stim\">BLENDER</p>", "conditions": [12, 800, "v", 24000], "internal_node_id": "0.0-99.0", "trial": 3, "time_elapsed": 721759, "serialpos": 6, "key_press": -1, "wordID": 135, "type": "PRES_VIS", "trial_index": 135}, "uniqueid": "MTK1435:323Q6SJS8JN6O86YAOPA5U6QWVNHFR", "dateTime": 1515881970402}, {"current_trial": 136, "trialdata": {"rt": -1, "trial_type": "single-stim", "word": "sparrow", "stimulus": "<p id=\"stim\">SPARROW</p>", "conditions": [12, 800, "v", 24000], "internal_node_id": "0.0-100.0", "trial": 3, "time_elapsed": 723651, "serialpos": 7, "key_press": -1, "wordID": 1346, "type": "PRES_VIS", "trial_index": 136}, "uniqueid": "MTK1435:323Q6SJS8JN6O86YAOPA5U6QWVNHFR", "dateTime": 1515881972294}, {"current_trial": 137, "trialdata": {"rt": -1, "trial_type": "single-stim", "word": "comet", "stimulus": "<p id=\"stim\">COMET</p>", "conditions": [12, 800, "v", 24000], "internal_node_id": "0.0-101.0", "trial": 3, "time_elapsed": 725397, "serialpos": 8, "key_press": -1, "wordID": 352, "type": "PRES_VIS", "trial_index": 137}, "uniqueid": "MTK1435:323Q6SJS8JN6O86YAOPA5U6QWVNHFR", "dateTime": 1515881974040}, {"current_trial": 138, "trialdata": {"rt": -1, "trial_type": "single-stim", "word": "chest", "stimulus": "<p id=\"stim\">CHEST</p>", "conditions": [12, 800, "v", 24000], "internal_node_id": "0.0-102.0", "trial": 3, "time_elapsed": 727145, "serialpos": 9, "key_press": -1, "wordID": 294, "type": "PRES_VIS", "trial_index": 138}, "uniqueid": "MTK1435:323Q6SJS8JN6O86YAOPA5U6QWVNHFR", "dateTime": 1515881975788}, {"current_trial": 139, "trialdata": {"rt": -1, "trial_type": "single-stim", "word": "spider", "stimulus": "<p id=\"stim\">SPIDER</p>", "conditions": [12, 800, "v", 24000], "internal_node_id": "0.0-103.0", "trial": 3, "time_elapsed": 728893, "serialpos": 10, "key_press": -1, "wordID": 1350, "type": "PRES_VIS", "trial_index": 139}, "uniqueid": "MTK1435:323Q6SJS8JN6O86YAOPA5U6QWVNHFR", "dateTime": 1515881977536}, {"current_trial": 140, "trialdata": {"rt": -1, "trial_type": "single-stim", "word": "elbow", "stimulus": "<p id=\"stim\">ELBOW</p>", "conditions": [12, 800, "v", 24000], "internal_node_id": "0.0-104.0", "trial": 3, "time_elapsed": 730627, "serialpos": 11, "key_press": -1, "wordID": 519, "type": "PRES_VIS", "trial_index": 140}, "uniqueid": "MTK1435:323Q6SJS8JN6O86YAOPA5U6QWVNHFR", "dateTime": 1515881979270}, {"current_trial": 141, "trialdata": {"rt": -1, "trial_type": "single-stim", "stimulus": "", "internal_node_id": "0.0-105.0-0.0", "time_elapsed": 733097, "key_press": -1, "type": "PRE_RECALL_DELAY", "trial_index": 141}, "uniqueid": "MTK1435:323Q6SJS8JN6O86YAOPA5U6QWVNHFR", "dateTime": 1515881981740}, {"current_trial": 142, "trialdata": {"rt": -1000, "trial_type": "single-audio", "stimulus": "/static/audio/400Hz.wav", "internal_node_id": "0.0-106.0", "time_elapsed": 733598, "key_press": -1, "type": "PRE_RECALL_ALERT", "trial_index": 142}, "uniqueid": "MTK1435:323Q6SJS8JN6O86YAOPA5U6QWVNHFR", "dateTime": 1515881982242}, {"current_trial": 143, "trialdata": {"rt": [1636, 2668, 4148, 5844, 12380, 49092, 53204, 56116], "recwords": ["spider", "elbow", "shoulder", "chest", "leg", "shoulder", "chest", "elbow"], "key_times": [621, 756, 924, 1052, 1268, 1348, 1636, 1836, 1916, 2124, 2236, 2412, 2668, 2860, 2964, 3140, 3228, 3380, 3524, 3836, 3940, 4148, 4324, 4404, 4548, 4724, 4956, 5844, 11829, 11940, 12172, 12380, 47502, 47637, 47845, 47877, 48093, 48277, 48541, 48653, 49092, 52357, 52429, 52589, 52773, 52981, 53204, 55413, 55501, 55661, 55805, 55917, 56116], "trial_type": "free-recall", "conditions": [12, 800, "v", 24000], "internal_node_id": "0.0-107.0-0.0", "key_presses": [83, 80, 73, 68, 69, 82, 13, 69, 76, 66, 79, 87, 13, 83, 72, 79, 85, 76, 68, 69, 82, 13, 67, 72, 69, 83, 84, 13, 76, 69, 71, 13, 83, 72, 79, 85, 76, 68, 69, 82, 13, 67, 72, 69, 83, 84, 13, 69, 76, 66, 79, 87, 13], "trial": 3, "time_elapsed": 793603, "type": "FREE_RECALL", "trial_index": 143}, "uniqueid": "MTK1435:323Q6SJS8JN6O86YAOPA5U6QWVNHFR", "dateTime": 1515882042251}, {"current_trial": 144, "trialdata": {"rt": 1068, "trial_type": "text", "internal_node_id": "0.0-108.0", "time_elapsed": 796678, "key_press": 32, "type": "INSTRUCTIONS", "trial_index": 144}, "uniqueid": "MTK1435:323Q6SJS8JN6O86YAOPA5U6QWVNHFR", "dateTime": 1515882045321}, {"current_trial": 145, "trialdata": {"rt": [1940, 4068, 5884, 8860, 11829], "trial_type": "math-distractor", "key_times": [1221, 1445, 1940, 3621, 3829, 4068, 5501, 5701, 5884, 8446, 8653, 8860, 11421, 11597, 11829], "responses": ["14", "15", "20", "15", "16"], "num2": [5, 6, 9, 3, 5, 9], "num3": [5, 7, 9, 9, 3, 2], "conditions": [12, 1600, "v", 12000], "internal_node_id": "0.0-109.0", "key_presses": [97, 100, 13, 97, 101, 13, 98, 96, 13, 97, 101, 13, 97, 102, 13], "trial": 4, "time_elapsed": 810682, "type": "DISTRACTOR", "trial_index": 145, "num1": [4, 2, 2, 3, 8, 6]}, "uniqueid": "MTK1435:323Q6SJS8JN6O86YAOPA5U6QWVNHFR", "dateTime": 1515882059325}, {"current_trial": 146, "trialdata": {"rt": -1, "trial_type": "single-stim", "stimulus": "<p id=\"stim\">10</p>", "internal_node_id": "0.0-110.0-0.0", "time_elapsed": 813684, "key_press": -1, "trial_index": 146}, "uniqueid": "MTK1435:323Q6SJS8JN6O86YAOPA5U6QWVNHFR", "dateTime": 1515882062327}, {"current_trial": 147, "trialdata": {"rt": -1, "trial_type": "single-stim", "stimulus": "<p id=\"stim\">9</p>", "internal_node_id": "0.0-110.0-1.0", "time_elapsed": 814685, "key_press": -1, "trial_index": 147}, "uniqueid": "MTK1435:323Q6SJS8JN6O86YAOPA5U6QWVNHFR", "dateTime": 1515882063328}, {"current_trial": 148, "trialdata": {"rt": -1, "trial_type": "single-stim", "stimulus": "<p id=\"stim\">8</p>", "internal_node_id": "0.0-110.0-2.0", "time_elapsed": 815687, "key_press": -1, "trial_index": 148}, "uniqueid": "MTK1435:323Q6SJS8JN6O86YAOPA5U6QWVNHFR", "dateTime": 1515882064330}, {"current_trial": 149, "trialdata": {"rt": -1, "trial_type": "single-stim", "stimulus": "<p id=\"stim\">7</p>", "internal_node_id": "0.0-110.0-3.0", "time_elapsed": 816689, "key_press": -1, "trial_index": 149}, "uniqueid": "MTK1435:323Q6SJS8JN6O86YAOPA5U6QWVNHFR", "dateTime": 1515882065332}, {"current_trial": 150, "trialdata": {"rt": -1, "trial_type": "single-stim", "stimulus": "<p id=\"stim\">6</p>", "internal_node_id": "0.0-110.0-4.0", "time_elapsed": 817690, "key_press": -1, "trial_index": 150}, "uniqueid": "MTK1435:323Q6SJS8JN6O86YAOPA5U6QWVNHFR", "dateTime": 1515882066333}, {"current_trial": 151, "trialdata": {"rt": -1, "trial_type": "single-stim", "stimulus": "<p id=\"stim\">5</p>", "internal_node_id": "0.0-110.0-5.0", "time_elapsed": 818691, "key_press": -1, "trial_index": 151}, "uniqueid": "MTK1435:323Q6SJS8JN6O86YAOPA5U6QWVNHFR", "dateTime": 1515882067335}, {"current_trial": 152, "trialdata": {"rt": -1, "trial_type": "single-stim", "stimulus": "<p id=\"stim\">4</p>", "internal_node_id": "0.0-110.0-6.0", "time_elapsed": 819693, "key_press": -1, "trial_index": 152}, "uniqueid": "MTK1435:323Q6SJS8JN6O86YAOPA5U6QWVNHFR", "dateTime": 1515882068336}, {"current_trial": 153, "trialdata": {"rt": -1, "trial_type": "single-stim", "stimulus": "<p id=\"stim\">3</p>", "internal_node_id": "0.0-110.0-7.0", "time_elapsed": 820694, "key_press": -1, "trial_index": 153}, "uniqueid": "MTK1435:323Q6SJS8JN6O86YAOPA5U6QWVNHFR", "dateTime": 1515882069337}, {"current_trial": 154, "trialdata": {"rt": -1, "trial_type": "single-stim", "stimulus": "<p id=\"stim\">2</p>", "internal_node_id": "0.0-110.0-8.0", "time_elapsed": 821698, "key_press": -1, "trial_index": 154}, "uniqueid": "MTK1435:323Q6SJS8JN6O86YAOPA5U6QWVNHFR", "dateTime": 1515882070341}, {"current_trial": 155, "trialdata": {"rt": -1, "trial_type": "single-stim", "stimulus": "<p id=\"stim\">1</p>", "internal_node_id": "0.0-110.0-9.0", "time_elapsed": 822699, "key_press": -1, "trial_index": 155}, "uniqueid": "MTK1435:323Q6SJS8JN6O86YAOPA5U6QWVNHFR", "dateTime": 1515882071342}, {"current_trial": 156, "trialdata": {"rt": -1, "trial_type": "single-stim", "stimulus": "<p id=\"stim\">+</p>", "internal_node_id": "0.0-111.0-0.0", "time_elapsed": 824200, "key_press": -1, "type": "FIXATION", "trial_index": 156}, "uniqueid": "MTK1435:323Q6SJS8JN6O86YAOPA5U6QWVNHFR", "dateTime": 1515882072844}, {"current_trial": 157, "trialdata": {"rt": -1, "trial_type": "single-stim", "word": "brandy", "stimulus": "<p id=\"stim\">BRANDY</p>", "conditions": [12, 1600, "v", 12000], "internal_node_id": "0.0-112.0", "trial": 4, "time_elapsed": 825803, "serialpos": 0, "key_press": -1, "wordID": 168, "type": "PRES_VIS", "trial_index": 157}, "uniqueid": "MTK1435:323Q6SJS8JN6O86YAOPA5U6QWVNHFR", "dateTime": 1515882074446}, {"current_trial": 158, "trialdata": {"rt": -1, "trial_type": "single-stim", "word": "tuba", "stimulus": "<p id=\"stim\">TUBA</p>", "conditions": [12, 1600, "v", 12000], "internal_node_id": "0.0-113.0", "trial": 4, "time_elapsed": 828232, "serialpos": 1, "key_press": -1, "wordID": 1514, "type": "PRES_VIS", "trial_index": 158}, "uniqueid": "MTK1435:323Q6SJS8JN6O86YAOPA5U6QWVNHFR", "dateTime": 1515882076875}, {"current_trial": 159, "trialdata": {"rt": -1, "trial_type": "single-stim", "word": "rebel", "stimulus": "<p id=\"stim\">REBEL</p>", "conditions": [12, 1600, "v", 12000], "internal_node_id": "0.0-114.0", "trial": 4, "time_elapsed": 830853, "serialpos": 2, "key_press": -1, "wordID": 1171, "type": "PRES_VIS", "trial_index": 159}, "uniqueid": "MTK1435:323Q6SJS8JN6O86YAOPA5U6QWVNHFR", "dateTime": 1515882079496}, {"current_trial": 160, "trialdata": {"rt": -1, "trial_type": "single-stim", "word": "woman", "stimulus": "<p id=\"stim\">WOMAN</p>", "conditions": [12, 1600, "v", 12000], "internal_node_id": "0.0-115.0", "trial": 4, "time_elapsed": 833289, "serialpos": 3, "key_press": -1, "wordID": 1619, "type": "PRES_VIS", "trial_index": 160}, "uniqueid": "MTK1435:323Q6SJS8JN6O86YAOPA5U6QWVNHFR", "dateTime": 1515882081932}, {"current_trial": 161, "trialdata": {"rt": -1, "trial_type": "single-stim", "word": "victim", "stimulus": "<p id=\"stim\">VICTIM</p>", "conditions": [12, 1600, "v", 12000], "internal_node_id": "0.0-116.0", "trial": 4, "time_elapsed": 835711, "serialpos": 4, "key_press": -1, "wordID": 1561, "type": "PRES_VIS", "trial_index": 161}, "uniqueid": "MTK1435:323Q6SJS8JN6O86YAOPA5U6QWVNHFR", "dateTime": 1515882084354}, {"current_trial": 162, "trialdata": {"rt": -1, "trial_type": "single-stim", "word": "trombone", "stimulus": "<p id=\"stim\">TROMBONE</p>", "conditions": [12, 1600, "v", 12000], "internal_node_id": "0.0-117.0", "trial": 4, "time_elapsed": 838366, "serialpos": 5, "key_press": -1, "wordID": 1507, "type": "PRES_VIS", "trial_index": 162}, "uniqueid": "MTK1435:323Q6SJS8JN6O86YAOPA5U6QWVNHFR", "dateTime": 1515882087009}, {"current_trial": 163, "trialdata": {"rt": -1, "trial_type": "single-stim", "word": "notebook", "stimulus": "<p id=\"stim\">NOTEBOOK</p>", "conditions": [12, 1600, "v", 12000], "internal_node_id": "0.0-118.0", "trial": 4, "time_elapsed": 840782, "serialpos": 6, "key_press": -1, "wordID": 958, "type": "PRES_VIS", "trial_index": 163}, "uniqueid": "MTK1435:323Q6SJS8JN6O86YAOPA5U6QWVNHFR", "dateTime": 1515882089425}, {"current_trial": 164, "trialdata": {"rt": -1, "trial_type": "single-stim", "word": "bullet", "stimulus": "<p id=\"stim\">BULLET</p>", "conditions": [12, 1600, "v", 12000], "internal_node_id": "0.0-119.0", "trial": 4, "time_elapsed": 843254, "serialpos": 7, "key_press": -1, "wordID": 193, "type": "PRES_VIS", "trial_index": 164}, "uniqueid": "MTK1435:323Q6SJS8JN6O86YAOPA5U6QWVNHFR", "dateTime": 1515882091897}, {"current_trial": 165, "trialdata": {"rt": -1, "trial_type": "single-stim", "word": "loft", "stimulus": "<p id=\"stim\">LOFT</p>", "conditions": [12, 1600, "v", 12000], "internal_node_id": "0.0-120.0", "trial": 4, "time_elapsed": 845797, "serialpos": 8, "key_press": -1, "wordID": 839, "type": "PRES_VIS", "trial_index": 165}, "uniqueid": "MTK1435:323Q6SJS8JN6O86YAOPA5U6QWVNHFR", "dateTime": 1515882094440}, {"current_trial": 166, "trialdata": {"rt": -1, "trial_type": "single-stim", "word": "couch", "stimulus": "<p id=\"stim\">COUCH</p>", "conditions": [12, 1600, "v", 12000], "internal_node_id": "0.0-121.0", "trial": 4, "time_elapsed": 848318, "serialpos": 9, "key_press": -1, "wordID": 385, "type": "PRES_VIS", "trial_index": 166}, "uniqueid": "MTK1435:323Q6SJS8JN6O86YAOPA5U6QWVNHFR", "dateTime": 1515882096961}, {"current_trial": 167, "trialdata": {"rt": -1, "trial_type": "single-stim", "word": "tile", "stimulus": "<p id=\"stim\">TILE</p>", "conditions": [12, 1600, "v", 12000], "internal_node_id": "0.0-122.0", "trial": 4, "time_elapsed": 850872, "serialpos": 10, "key_press": -1, "wordID": 1467, "type": "PRES_VIS", "trial_index": 167}, "uniqueid": "MTK1435:323Q6SJS8JN6O86YAOPA5U6QWVNHFR", "dateTime": 1515882099515}, {"current_trial": 168, "trialdata": {"rt": -1, "trial_type": "single-stim", "word": "army", "stimulus": "<p id=\"stim\">ARMY</p>", "conditions": [12, 1600, "v", 12000], "internal_node_id": "0.0-123.0", "trial": 4, "time_elapsed": 853648, "serialpos": 11, "key_press": -1, "wordID": 38, "type": "PRES_VIS", "trial_index": 168}, "uniqueid": "MTK1435:323Q6SJS8JN6O86YAOPA5U6QWVNHFR", "dateTime": 1515882102291}, {"current_trial": 169, "trialdata": {"rt": -1, "trial_type": "single-stim", "stimulus": "", "internal_node_id": "0.0-124.0-0.0", "time_elapsed": 856091, "key_press": -1, "type": "PRE_RECALL_DELAY", "trial_index": 169}, "uniqueid": "MTK1435:323Q6SJS8JN6O86YAOPA5U6QWVNHFR", "dateTime": 1515882104734}, {"current_trial": 170, "trialdata": {"rt": -1000, "trial_type": "single-audio", "stimulus": "/static/audio/400Hz.wav", "internal_node_id": "0.0-125.0", "time_elapsed": 856593, "key_press": -1, "type": "PRE_RECALL_ALERT", "trial_index": 170}, "uniqueid": "MTK1435:323Q6SJS8JN6O86YAOPA5U6QWVNHFR", "dateTime": 1515882105236}, {"current_trial": 171, "trialdata": {"rt": [1353, 3369, 5977, 7305, 9121, 10754, 13585, 16961, 31689], "recwords": ["army", "tuba", "rabbit", "brandy", "rebel", "couch", "tile", "brandy", "army"], "key_times": [387, 570, 714, 986, 1353, 1650, 1738, 1946, 2274, 3369, 4962, 5122, 5402, 5546, 5690, 5834, 5977, 6170, 6346, 6426, 6522, 6754, 6914, 7305, 7818, 7994, 8314, 8578, 8754, 9121, 9851, 9930, 10010, 10250, 10298, 10754, 12850, 12946, 13058, 13242, 13585, 15946, 16154, 16202, 16362, 16514, 16674, 16961, 30739, 30914, 31170, 31410, 31689], "trial_type": "free-recall", "conditions": [12, 1600, "v", 12000], "internal_node_id": "0.0-126.0-0.0", "key_presses": [65, 82, 77, 89, 13, 84, 85, 66, 65, 13, 82, 65, 66, 66, 73, 84, 13, 66, 82, 65, 78, 68, 89, 13, 82, 69, 66, 69, 76, 13, 67, 79, 85, 67, 72, 13, 84, 73, 76, 69, 13, 66, 82, 65, 78, 68, 89, 13, 65, 82, 77, 89, 13], "trial": 4, "time_elapsed": 916597, "type": "FREE_RECALL", "trial_index": 171}, "uniqueid": "MTK1435:323Q6SJS8JN6O86YAOPA5U6QWVNHFR", "dateTime": 1515882165245}, {"current_trial": 172, "trialdata": {"rt": 1546, "trial_type": "text", "internal_node_id": "0.0-127.0", "time_elapsed": 920150, "key_press": 32, "type": "INSTRUCTIONS", "trial_index": 172}, "uniqueid": "MTK1435:323Q6SJS8JN6O86YAOPA5U6QWVNHFR", "dateTime": 1515882168793}, {"current_trial": 173, "trialdata": {"rt": [3650, 5114, 6906, 8722, 10170, 11730, 13178, 14954, 16418, 18986, 20722, 22986], "trial_type": "math-distractor", "key_times": [3315, 3459, 3650, 4715, 4907, 5114, 6491, 6699, 6906, 8227, 8459, 8722, 9691, 9931, 10170, 11299, 11507, 11730, 12747, 12947, 13178, 14539, 14731, 14954, 16003, 16195, 16418, 18475, 18723, 18986, 20283, 20491, 20722, 22051, 22251, 22986], "responses": ["23", "13", "13", "17", "19", "15", "16", "16", "14", "18", "12", "14"], "num2": [9, 8, 1, 8, 5, 7, 4, 8, 9, 9, 3, 1, 5], "num3": [9, 1, 5, 6, 5, 2, 8, 6, 4, 2, 1, 7, 2], "conditions": [24, 1600, "v", 24000], "internal_node_id": "0.0-128.0", "key_presses": [98, 99, 13, 97, 99, 13, 97, 99, 13, 97, 103, 13, 97, 105, 13, 97, 101, 13, 97, 102, 13, 97, 102, 13, 97, 100, 13, 97, 104, 13, 97, 98, 13, 97, 100, 13], "trial": 5, "time_elapsed": 946155, "type": "DISTRACTOR", "trial_index": 173, "num1": [5, 4, 7, 3, 9, 6, 4, 2, 1, 7, 8, 6, 1]}, "uniqueid": "MTK1435:323Q6SJS8JN6O86YAOPA5U6QWVNHFR", "dateTime": 1515882194799}, {"current_trial": 174, "trialdata": {"rt": -1, "trial_type": "single-stim", "stimulus": "<p id=\"stim\">10</p>", "internal_node_id": "0.0-129.0-0.0", "time_elapsed": 949158, "key_press": -1, "trial_index": 174}, "uniqueid": "MTK1435:323Q6SJS8JN6O86YAOPA5U6QWVNHFR", "dateTime": 1515882197801}, {"current_trial": 175, "trialdata": {"rt": -1, "trial_type": "single-stim", "stimulus": "<p id=\"stim\">9</p>", "internal_node_id": "0.0-129.0-1.0", "time_elapsed": 950159, "key_press": -1, "trial_index": 175}, "uniqueid": "MTK1435:323Q6SJS8JN6O86YAOPA5U6QWVNHFR", "dateTime": 1515882198802}, {"current_trial": 176, "trialdata": {"rt": -1, "trial_type": "single-stim", "stimulus": "<p id=\"stim\">8</p>", "internal_node_id": "0.0-129.0-2.0", "time_elapsed": 951161, "key_press": -1, "trial_index": 176}, "uniqueid": "MTK1435:323Q6SJS8JN6O86YAOPA5U6QWVNHFR", "dateTime": 1515882199804}, {"current_trial": 177, "trialdata": {"rt": -1, "trial_type": "single-stim", "stimulus": "<p id=\"stim\">7</p>", "internal_node_id": "0.0-129.0-3.0", "time_elapsed": 952163, "key_press": -1, "trial_index": 177}, "uniqueid": "MTK1435:323Q6SJS8JN6O86YAOPA5U6QWVNHFR", "dateTime": 1515882200806}, {"current_trial": 178, "trialdata": {"rt": -1, "trial_type": "single-stim", "stimulus": "<p id=\"stim\">6</p>", "internal_node_id": "0.0-129.0-4.0", "time_elapsed": 953164, "key_press": -1, "trial_index": 178}, "uniqueid": "MTK1435:323Q6SJS8JN6O86YAOPA5U6QWVNHFR", "dateTime": 1515882201808}, {"current_trial": 179, "trialdata": {"rt": -1, "trial_type": "single-stim", "stimulus": "<p id=\"stim\">5</p>", "internal_node_id": "0.0-129.0-5.0", "time_elapsed": 954166, "key_press": -1, "trial_index": 179}, "uniqueid": "MTK1435:323Q6SJS8JN6O86YAOPA5U6QWVNHFR", "dateTime": 1515882202809}, {"current_trial": 180, "trialdata": {"rt": -1, "trial_type": "single-stim", "stimulus": "<p id=\"stim\">4</p>", "internal_node_id": "0.0-129.0-6.0", "time_elapsed": 955167, "key_press": -1, "trial_index": 180}, "uniqueid": "MTK1435:323Q6SJS8JN6O86YAOPA5U6QWVNHFR", "dateTime": 1515882203813}, {"current_trial": 181, "trialdata": {"rt": -1, "trial_type": "single-stim", "stimulus": "<p id=\"stim\">3</p>", "internal_node_id": "0.0-129.0-7.0", "time_elapsed": 956171, "key_press": -1, "trial_index": 181}, "uniqueid": "MTK1435:323Q6SJS8JN6O86YAOPA5U6QWVNHFR", "dateTime": 1515882204814}, {"current_trial": 182, "trialdata": {"rt": -1, "trial_type": "single-stim", "stimulus": "<p id=\"stim\">2</p>", "internal_node_id": "0.0-129.0-8.0", "time_elapsed": 957172, "key_press": -1, "trial_index": 182}, "uniqueid": "MTK1435:323Q6SJS8JN6O86YAOPA5U6QWVNHFR", "dateTime": 1515882205816}, {"current_trial": 183, "trialdata": {"rt": -1, "trial_type": "single-stim", "stimulus": "<p id=\"stim\">1</p>", "internal_node_id": "0.0-129.0-9.0", "time_elapsed": 958174, "key_press": -1, "trial_index": 183}, "uniqueid": "MTK1435:323Q6SJS8JN6O86YAOPA5U6QWVNHFR", "dateTime": 1515882206817}, {"current_trial": 184, "trialdata": {"rt": -1, "trial_type": "single-stim", "stimulus": "<p id=\"stim\">+</p>", "internal_node_id": "0.0-130.0-0.0", "time_elapsed": 959677, "key_press": -1, "type": "FIXATION", "trial_index": 184}, "uniqueid": "MTK1435:323Q6SJS8JN6O86YAOPA5U6QWVNHFR", "dateTime": 1515882208320}, {"current_trial": 185, "trialdata": {"rt": -1, "trial_type": "single-stim", "word": "peach", "stimulus": "<p id=\"stim\">PEACH</p>", "conditions": [24, 1600, "v", 24000], "internal_node_id": "0.0-131.0", "trial": 5, "time_elapsed": 961278, "serialpos": 0, "key_press": -1, "wordID": 1030, "type": "PRES_VIS", "trial_index": 185}, "uniqueid": "MTK1435:323Q6SJS8JN6O86YAOPA5U6QWVNHFR", "dateTime": 1515882209921}, {"current_trial": 186, "trialdata": {"rt": -1, "trial_type": "single-stim", "word": "airplane", "stimulus": "<p id=\"stim\">AIRPLANE</p>", "conditions": [24, 1600, "v", 24000], "internal_node_id": "0.0-132.0", "trial": 5, "time_elapsed": 964014, "serialpos": 1, "key_press": -1, "wordID": 11, "type": "PRES_VIS", "trial_index": 186}, "uniqueid": "MTK1435:323Q6SJS8JN6O86YAOPA5U6QWVNHFR", "dateTime": 1515882212657}, {"current_trial": 187, "trialdata": {"rt": -1, "trial_type": "single-stim", "word": "candy", "stimulus": "<p id=\"stim\">CANDY</p>", "conditions": [24, 1600, "v", 24000], "internal_node_id": "0.0-133.0", "trial": 5, "time_elapsed": 966452, "serialpos": 2, "key_press": -1, "wordID": 229, "type": "PRES_VIS", "trial_index": 187}, "uniqueid": "MTK1435:323Q6SJS8JN6O86YAOPA5U6QWVNHFR", "dateTime": 1515882215095}, {"current_trial": 188, "trialdata": {"rt": -1, "trial_type": "single-stim", "word": "snack", "stimulus": "<p id=\"stim\">SNACK</p>", "conditions": [24, 1600, "v", 24000], "internal_node_id": "0.0-134.0", "trial": 5, "time_elapsed": 969230, "serialpos": 3, "key_press": -1, "wordID": 1330, "type": "PRES_VIS", "trial_index": 188}, "uniqueid": "MTK1435:323Q6SJS8JN6O86YAOPA5U6QWVNHFR", "dateTime": 1515882217873}, {"current_trial": 189, "trialdata": {"rt": -1, "trial_type": "single-stim", "word": "pigment", "stimulus": "<p id=\"stim\">PIGMENT</p>", "conditions": [24, 1600, "v", 24000], "internal_node_id": "0.0-135.0", "trial": 5, "time_elapsed": 971999, "serialpos": 4, "key_press": -1, "wordID": 1065, "type": "PRES_VIS", "trial_index": 189}, "uniqueid": "MTK1435:323Q6SJS8JN6O86YAOPA5U6QWVNHFR", "dateTime": 1515882220642}, {"current_trial": 190, "trialdata": {"rt": -1, "trial_type": "single-stim", "word": "toaster", "stimulus": "<p id=\"stim\">TOASTER</p>", "conditions": [24, 1600, "v", 24000], "internal_node_id": "0.0-136.0", "trial": 5, "time_elapsed": 974484, "serialpos": 5, "key_press": -1, "wordID": 1471, "type": "PRES_VIS", "trial_index": 190}, "uniqueid": "MTK1435:323Q6SJS8JN6O86YAOPA5U6QWVNHFR", "dateTime": 1515882223127}, {"current_trial": 191, "trialdata": {"rt": -1, "trial_type": "single-stim", "word": "venus", "stimulus": "<p id=\"stim\">VENUS</p>", "conditions": [24, 1600, "v", 24000], "internal_node_id": "0.0-137.0", "trial": 5, "time_elapsed": 977251, "serialpos": 6, "key_press": -1, "wordID": 1556, "type": "PRES_VIS", "trial_index": 191}, "uniqueid": "MTK1435:323Q6SJS8JN6O86YAOPA5U6QWVNHFR", "dateTime": 1515882225894}, {"current_trial": 192, "trialdata": {"rt": -1, "trial_type": "single-stim", "word": "belly", "stimulus": "<p id=\"stim\">BELLY</p>", "conditions": [24, 1600, "v", 24000], "internal_node_id": "0.0-138.0", "trial": 5, "time_elapsed": 979749, "serialpos": 7, "key_press": -1, "wordID": 118, "type": "PRES_VIS", "trial_index": 192}, "uniqueid": "MTK1435:323Q6SJS8JN6O86YAOPA5U6QWVNHFR", "dateTime": 1515882228392}, {"current_trial": 193, "trialdata": {"rt": -1, "trial_type": "single-stim", "word": "robot", "stimulus": "<p id=\"stim\">ROBOT</p>", "conditions": [24, 1600, "v", 24000], "internal_node_id": "0.0-139.0", "trial": 5, "time_elapsed": 982269, "serialpos": 8, "key_press": -1, "wordID": 1199, "type": "PRES_VIS", "trial_index": 193}, "uniqueid": "MTK1435:323Q6SJS8JN6O86YAOPA5U6QWVNHFR", "dateTime": 1515882230912}, {"current_trial": 194, "trialdata": {"rt": -1, "trial_type": "single-stim", "word": "fruit", "stimulus": "<p id=\"stim\">FRUIT</p>", "conditions": [24, 1600, "v", 24000], "internal_node_id": "0.0-140.0", "trial": 5, "time_elapsed": 984816, "serialpos": 9, "key_press": -1, "wordID": 609, "type": "PRES_VIS", "trial_index": 194}, "uniqueid": "MTK1435:323Q6SJS8JN6O86YAOPA5U6QWVNHFR", "dateTime": 1515882233459}, {"current_trial": 195, "trialdata": {"rt": -1, "trial_type": "single-stim", "word": "shelf", "stimulus": "<p id=\"stim\">SHELF</p>", "conditions": [24, 1600, "v", 24000], "internal_node_id": "0.0-141.0", "trial": 5, "time_elapsed": 987585, "serialpos": 10, "key_press": -1, "wordID": 1279, "type": "PRES_VIS", "trial_index": 195}, "uniqueid": "MTK1435:323Q6SJS8JN6O86YAOPA5U6QWVNHFR", "dateTime": 1515882236229}, {"current_trial": 196, "trialdata": {"rt": -1, "trial_type": "single-stim", "word": "crayon", "stimulus": "<p id=\"stim\">CRAYON</p>", "conditions": [24, 1600, "v", 24000], "internal_node_id": "0.0-142.0", "trial": 5, "time_elapsed": 990164, "serialpos": 11, "key_press": -1, "wordID": 400, "type": "PRES_VIS", "trial_index": 196}, "uniqueid": "MTK1435:323Q6SJS8JN6O86YAOPA5U6QWVNHFR", "dateTime": 1515882238807}, {"current_trial": 197, "trialdata": {"rt": -1, "trial_type": "single-stim", "word": "dresser", "stimulus": "<p id=\"stim\">DRESSER</p>", "conditions": [24, 1600, "v", 24000], "internal_node_id": "0.0-143.0", "trial": 5, "time_elapsed": 992683, "serialpos": 12, "key_press": -1, "wordID": 495, "type": "PRES_VIS", "trial_index": 197}, "uniqueid": "MTK1435:323Q6SJS8JN6O86YAOPA5U6QWVNHFR", "dateTime": 1515882241326}, {"current_trial": 198, "trialdata": {"rt": -1, "trial_type": "single-stim", "word": "mattress", "stimulus": "<p id=\"stim\">MATTRESS</p>", "conditions": [24, 1600, "v", 24000], "internal_node_id": "0.0-144.0", "trial": 5, "time_elapsed": 995142, "serialpos": 13, "key_press": -1, "wordID": 878, "type": "PRES_VIS", "trial_index": 198}, "uniqueid": "MTK1435:323Q6SJS8JN6O86YAOPA5U6QWVNHFR", "dateTime": 1515882243785}, {"current_trial": 199, "trialdata": {"rt": -1, "trial_type": "single-stim", "word": "gymnast", "stimulus": "<p id=\"stim\">GYMNAST</p>", "conditions": [24, 1600, "v", 24000], "internal_node_id": "0.0-145.0", "trial": 5, "time_elapsed": 997557, "serialpos": 14, "key_press": -1, "wordID": 674, "type": "PRES_VIS", "trial_index": 199}, "uniqueid": "MTK1435:323Q6SJS8JN6O86YAOPA5U6QWVNHFR", "dateTime": 1515882246200}, {"current_trial": 200, "trialdata": {"rt": -1, "trial_type": "single-stim", "word": "salmon", "stimulus": "<p id=\"stim\">SALMON</p>", "conditions": [24, 1600, "v", 24000], "internal_node_id": "0.0-146.0", "trial": 5, "time_elapsed": 1000074, "serialpos": 15, "key_press": -1, "wordID": 1226, "type": "PRES_VIS", "trial_index": 200}, "uniqueid": "MTK1435:323Q6SJS8JN6O86YAOPA5U6QWVNHFR", "dateTime": 1515882248718}, {"current_trial": 201, "trialdata": {"rt": -1, "trial_type": "single-stim", "word": "trout", "stimulus": "<p id=\"stim\">TROUT</p>", "conditions": [24, 1600, "v", 24000], "internal_node_id": "0.0-147.0", "trial": 5, "time_elapsed": 1002482, "serialpos": 16, "key_press": -1, "wordID": 1510, "type": "PRES_VIS", "trial_index": 201}, "uniqueid": "MTK1435:323Q6SJS8JN6O86YAOPA5U6QWVNHFR", "dateTime": 1515882251125}, {"current_trial": 202, "trialdata": {"rt": -1, "trial_type": "single-stim", "word": "critic", "stimulus": "<p id=\"stim\">CRITIC</p>", "conditions": [24, 1600, "v", 24000], "internal_node_id": "0.0-148.0", "trial": 5, "time_elapsed": 1005277, "serialpos": 17, "key_press": -1, "wordID": 409, "type": "PRES_VIS", "trial_index": 202}, "uniqueid": "MTK1435:323Q6SJS8JN6O86YAOPA5U6QWVNHFR", "dateTime": 1515882253921}, {"current_trial": 203, "trialdata": {"rt": -1, "trial_type": "single-stim", "word": "lava", "stimulus": "<p id=\"stim\">LAVA</p>", "conditions": [24, 1600, "v", 24000], "internal_node_id": "0.0-149.0", "trial": 5, "time_elapsed": 1008032, "serialpos": 18, "key_press": -1, "wordID": 803, "type": "PRES_VIS", "trial_index": 203}, "uniqueid": "MTK1435:323Q6SJS8JN6O86YAOPA5U6QWVNHFR", "dateTime": 1515882256675}, {"current_trial": 204, "trialdata": {"rt": -1, "trial_type": "single-stim", "word": "garlic", "stimulus": "<p id=\"stim\">GARLIC</p>", "conditions": [24, 1600, "v", 24000], "internal_node_id": "0.0-150.0", "trial": 5, "time_elapsed": 1010736, "serialpos": 19, "key_press": -1, "wordID": 623, "type": "PRES_VIS", "trial_index": 204}, "uniqueid": "MTK1435:323Q6SJS8JN6O86YAOPA5U6QWVNHFR", "dateTime": 1515882259379}, {"current_trial": 205, "trialdata": {"rt": -1, "trial_type": "single-stim", "word": "crib", "stimulus": "<p id=\"stim\">CRIB</p>", "conditions": [24, 1600, "v", 24000], "internal_node_id": "0.0-151.0", "trial": 5, "time_elapsed": 1013326, "serialpos": 20, "key_press": -1, "wordID": 406, "type": "PRES_VIS", "trial_index": 205}, "uniqueid": "MTK1435:323Q6SJS8JN6O86YAOPA5U6QWVNHFR", "dateTime": 1515882261969}, {"current_trial": 206, "trialdata": {"rt": -1, "trial_type": "single-stim", "word": "crater", "stimulus": "<p id=\"stim\">CRATER</p>", "conditions": [24, 1600, "v", 24000], "internal_node_id": "0.0-152.0", "trial": 5, "time_elapsed": 1015794, "serialpos": 21, "key_press": -1, "wordID": 399, "type": "PRES_VIS", "trial_index": 206}, "uniqueid": "MTK1435:323Q6SJS8JN6O86YAOPA5U6QWVNHFR", "dateTime": 1515882264437}, {"current_trial": 207, "trialdata": {"rt": -1, "trial_type": "single-stim", "word": "space", "stimulus": "<p id=\"stim\">SPACE</p>", "conditions": [24, 1600, "v", 24000], "internal_node_id": "0.0-153.0", "trial": 5, "time_elapsed": 1018430, "serialpos": 22, "key_press": -1, "wordID": 1344, "type": "PRES_VIS", "trial_index": 207}, "uniqueid": "MTK1435:323Q6SJS8JN6O86YAOPA5U6QWVNHFR", "dateTime": 1515882267073}, {"current_trial": 208, "trialdata": {"rt": -1, "trial_type": "single-stim", "word": "cupboard", "stimulus": "<p id=\"stim\">CUPBOARD</p>", "conditions": [24, 1600, "v", 24000], "internal_node_id": "0.0-154.0", "trial": 5, "time_elapsed": 1021176, "serialpos": 23, "key_press": -1, "wordID": 424, "type": "PRES_VIS", "trial_index": 208}, "uniqueid": "MTK1435:323Q6SJS8JN6O86YAOPA5U6QWVNHFR", "dateTime": 1515882269820}, {"current_trial": 209, "trialdata": {"rt": -1, "trial_type": "single-stim", "stimulus": "", "internal_node_id": "0.0-155.0-0.0", "time_elapsed": 1023503, "key_press": -1, "type": "PRE_RECALL_DELAY", "trial_index": 209}, "uniqueid": "MTK1435:323Q6SJS8JN6O86YAOPA5U6QWVNHFR", "dateTime": 1515882272146}, {"current_trial": 210, "trialdata": {"rt": -1000, "trial_type": "single-audio", "stimulus": "/static/audio/400Hz.wav", "internal_node_id": "0.0-156.0", "time_elapsed": 1024005, "key_press": -1, "type": "PRE_RECALL_ALERT", "trial_index": 210}, "uniqueid": "MTK1435:323Q6SJS8JN6O86YAOPA5U6QWVNHFR", "dateTime": 1515882272648}, {"current_trial": 211, "trialdata": {"rt": [3253, 4861, 7197, 8181, 10373, 12965, 20261, 23109, 39005, 48269], "recwords": ["cupboard", "crib", "mattress", "shelf", "candy", "tuna", "steak", "peach", "toaster", "snack"], "key_times": [486, 622, 838, 1654, 1966, 2230, 2334, 2477, 2598, 2886, 3253, 4014, 4198, 4382, 4574, 4861, 5550, 5638, 5838, 6174, 6414, 6485, 6806, 6958, 7197, 7422, 7526, 7654, 7750, 7974, 8181, 9446, 9582, 9702, 9846, 9998, 10373, 11390, 11454, 11766, 12334, 12965, 17262, 18966, 19214, 19390, 19606, 20261, 22206, 22366, 22485, 22774, 22838, 23109, 37566, 37726, 37878, 38110, 38334, 38502, 38590, 39005, 47414, 47542, 47662, 47960, 48006, 48269], "trial_type": "free-recall", "conditions": [24, 1600, "v", 24000], "internal_node_id": "0.0-157.0-0.0", "key_presses": [67, 85, 66, 8, 80, 66, 79, 65, 82, 68, 13, 67, 82, 73, 66, 13, 77, 65, 84, 84, 82, 69, 83, 83, 13, 83, 72, 69, 76, 70, 13, 67, 65, 78, 68, 89, 13, 84, 85, 78, 65, 13, 83, 84, 69, 65, 75, 13, 80, 69, 65, 67, 72, 13, 84, 79, 65, 83, 84, 69, 82, 13, 83, 78, 65, 67, 75, 13], "trial": 5, "time_elapsed": 1084009, "type": "FREE_RECALL", "trial_index": 211}, "uniqueid": "MTK1435:323Q6SJS8JN6O86YAOPA5U6QWVNHFR", "dateTime": 1515882332658}, {"current_trial": 212, "trialdata": {"rt": 1292, "trial_type": "text", "internal_node_id": "0.0-158.0", "time_elapsed": 1087309, "key_press": 32, "type": "INSTRUCTIONS", "trial_index": 212}, "uniqueid": "MTK1435:323Q6SJS8JN6O86YAOPA5U6QWVNHFR", "dateTime": 1515882335953}, {"current_trial": 213, "trialdata": {"rt": [2619, 5443, 7083, 8539, 11139], "trial_type": "math-distractor", "key_times": [1932, 2108, 2619, 4268, 4468, 5443, 6651, 6852, 7083, 8212, 8539, 10676, 10916, 11139], "responses": ["16", "21", "16", "8", "18"], "num2": [3, 6, 6, 3, 4, 1], "num3": [5, 9, 4, 1, 5, 2], "conditions": [12, 800, "v", 12000], "internal_node_id": "0.0-159.0", "key_presses": [97, 102, 13, 98, 97, 13, 97, 102, 13, 104, 13, 97, 104, 13], "trial": 6, "time_elapsed": 1101314, "type": "DISTRACTOR", "trial_index": 213, "num1": [8, 6, 6, 4, 9, 9]}, "uniqueid": "MTK1435:323Q6SJS8JN6O86YAOPA5U6QWVNHFR", "dateTime": 1515882349960}, {"current_trial": 214, "trialdata": {"rt": -1, "trial_type": "single-stim", "stimulus": "<p id=\"stim\">10</p>", "internal_node_id": "0.0-160.0-0.0", "time_elapsed": 1104319, "key_press": -1, "trial_index": 214}, "uniqueid": "MTK1435:323Q6SJS8JN6O86YAOPA5U6QWVNHFR", "dateTime": 1515882352962}, {"current_trial": 215, "trialdata": {"rt": -1, "trial_type": "single-stim", "stimulus": "<p id=\"stim\">9</p>", "internal_node_id": "0.0-160.0-1.0", "time_elapsed": 1105321, "key_press": -1, "trial_index": 215}, "uniqueid": "MTK1435:323Q6SJS8JN6O86YAOPA5U6QWVNHFR", "dateTime": 1515882353964}, {"current_trial": 216, "trialdata": {"rt": -1, "trial_type": "single-stim", "stimulus": "<p id=\"stim\">8</p>", "internal_node_id": "0.0-160.0-2.0", "time_elapsed": 1106322, "key_press": -1, "trial_index": 216}, "uniqueid": "MTK1435:323Q6SJS8JN6O86YAOPA5U6QWVNHFR", "dateTime": 1515882354965}, {"current_trial": 217, "trialdata": {"rt": -1, "trial_type": "single-stim", "stimulus": "<p id=\"stim\">7</p>", "internal_node_id": "0.0-160.0-3.0", "time_elapsed": 1107324, "key_press": -1, "trial_index": 217}, "uniqueid": "MTK1435:323Q6SJS8JN6O86YAOPA5U6QWVNHFR", "dateTime": 1515882355967}, {"current_trial": 218, "trialdata": {"rt": -1, "trial_type": "single-stim", "stimulus": "<p id=\"stim\">6</p>", "internal_node_id": "0.0-160.0-4.0", "time_elapsed": 1108325, "key_press": -1, "trial_index": 218}, "uniqueid": "MTK1435:323Q6SJS8JN6O86YAOPA5U6QWVNHFR", "dateTime": 1515882356968}, {"current_trial": 219, "trialdata": {"rt": -1, "trial_type": "single-stim", "stimulus": "<p id=\"stim\">5</p>", "internal_node_id": "0.0-160.0-5.0", "time_elapsed": 1109327, "key_press": -1, "trial_index": 219}, "uniqueid": "MTK1435:323Q6SJS8JN6O86YAOPA5U6QWVNHFR", "dateTime": 1515882357970}, {"current_trial": 220, "trialdata": {"rt": -1, "trial_type": "single-stim", "stimulus": "<p id=\"stim\">4</p>", "internal_node_id": "0.0-160.0-6.0", "time_elapsed": 1110328, "key_press": -1, "trial_index": 220}, "uniqueid": "MTK1435:323Q6SJS8JN6O86YAOPA5U6QWVNHFR", "dateTime": 1515882358971}, {"current_trial": 221, "trialdata": {"rt": -1, "trial_type": "single-stim", "stimulus": "<p id=\"stim\">3</p>", "internal_node_id": "0.0-160.0-7.0", "time_elapsed": 1111330, "key_press": -1, "trial_index": 221}, "uniqueid": "MTK1435:323Q6SJS8JN6O86YAOPA5U6QWVNHFR", "dateTime": 1515882359973}, {"current_trial": 222, "trialdata": {"rt": -1, "trial_type": "single-stim", "stimulus": "<p id=\"stim\">2</p>", "internal_node_id": "0.0-160.0-8.0", "time_elapsed": 1112332, "key_press": -1, "trial_index": 222}, "uniqueid": "MTK1435:323Q6SJS8JN6O86YAOPA5U6QWVNHFR", "dateTime": 1515882360975}, {"current_trial": 223, "trialdata": {"rt": -1, "trial_type": "single-stim", "stimulus": "<p id=\"stim\">1</p>", "internal_node_id": "0.0-160.0-9.0", "time_elapsed": 1113333, "key_press": -1, "trial_index": 223}, "uniqueid": "MTK1435:323Q6SJS8JN6O86YAOPA5U6QWVNHFR", "dateTime": 1515882361976}, {"current_trial": 224, "trialdata": {"rt": -1, "trial_type": "single-stim", "stimulus": "<p id=\"stim\">+</p>", "internal_node_id": "0.0-161.0-0.0", "time_elapsed": 1114835, "key_press": -1, "type": "FIXATION", "trial_index": 224}, "uniqueid": "MTK1435:323Q6SJS8JN6O86YAOPA5U6QWVNHFR", "dateTime": 1515882363478}, {"current_trial": 225, "trialdata": {"rt": -1, "trial_type": "single-stim", "word": "lightning", "stimulus": "<p id=\"stim\">LIGHTNING</p>", "conditions": [12, 800, "v", 12000], "internal_node_id": "0.0-162.0", "trial": 6, "time_elapsed": 1115637, "serialpos": 0, "key_press": -1, "wordID": 819, "type": "PRES_VIS", "trial_index": 225}, "uniqueid": "MTK1435:323Q6SJS8JN6O86YAOPA5U6QWVNHFR", "dateTime": 1515882364280}, {"current_trial": 226, "trialdata": {"rt": -1, "trial_type": "single-stim", "word": "maple", "stimulus": "<p id=\"stim\">MAPLE</p>", "conditions": [12, 800, "v", 12000], "internal_node_id": "0.0-163.0", "trial": 6, "time_elapsed": 1117359, "serialpos": 1, "key_press": -1, "wordID": 865, "type": "PRES_VIS", "trial_index": 226}, "uniqueid": "MTK1435:323Q6SJS8JN6O86YAOPA5U6QWVNHFR", "dateTime": 1515882366002}, {"current_trial": 227, "trialdata": {"rt": -1, "trial_type": "single-stim", "word": "casket", "stimulus": "<p id=\"stim\">CASKET</p>", "conditions": [12, 800, "v", 12000], "internal_node_id": "0.0-164.0", "trial": 6, "time_elapsed": 1119083, "serialpos": 2, "key_press": -1, "wordID": 254, "type": "PRES_VIS", "trial_index": 227}, "uniqueid": "MTK1435:323Q6SJS8JN6O86YAOPA5U6QWVNHFR", "dateTime": 1515882367726}, {"current_trial": 228, "trialdata": {"rt": -1, "trial_type": "single-stim", "word": "river", "stimulus": "<p id=\"stim\">RIVER</p>", "conditions": [12, 800, "v", 12000], "internal_node_id": "0.0-165.0", "trial": 6, "time_elapsed": 1120716, "serialpos": 3, "key_press": -1, "wordID": 1193, "type": "PRES_VIS", "trial_index": 228}, "uniqueid": "MTK1435:323Q6SJS8JN6O86YAOPA5U6QWVNHFR", "dateTime": 1515882369359}, {"current_trial": 229, "trialdata": {"rt": -1, "trial_type": "single-stim", "word": "canyon", "stimulus": "<p id=\"stim\">CANYON</p>", "conditions": [12, 800, "v", 12000], "internal_node_id": "0.0-166.0", "trial": 6, "time_elapsed": 1122560, "serialpos": 4, "key_press": -1, "wordID": 234, "type": "PRES_VIS", "trial_index": 229}, "uniqueid": "MTK1435:323Q6SJS8JN6O86YAOPA5U6QWVNHFR", "dateTime": 1515882371203}, {"current_trial": 230, "trialdata": {"rt": -1, "trial_type": "single-stim", "word": "basement", "stimulus": "<p id=\"stim\">BASEMENT</p>", "conditions": [12, 800, "v", 12000], "internal_node_id": "0.0-167.0", "trial": 6, "time_elapsed": 1124259, "serialpos": 5, "key_press": -1, "wordID": 93, "type": "PRES_VIS", "trial_index": 230}, "uniqueid": "MTK1435:323Q6SJS8JN6O86YAOPA5U6QWVNHFR", "dateTime": 1515882372902}, {"current_trial": 231, "trialdata": {"rt": -1, "trial_type": "single-stim", "word": "lapel", "stimulus": "<p id=\"stim\">LAPEL</p>", "conditions": [12, 800, "v", 12000], "internal_node_id": "0.0-168.0", "trial": 6, "time_elapsed": 1125900, "serialpos": 6, "key_press": -1, "wordID": 799, "type": "PRES_VIS", "trial_index": 231}, "uniqueid": "MTK1435:323Q6SJS8JN6O86YAOPA5U6QWVNHFR", "dateTime": 1515882374543}, {"current_trial": 232, "trialdata": {"rt": -1, "trial_type": "single-stim", "word": "chapel", "stimulus": "<p id=\"stim\">CHAPEL</p>", "conditions": [12, 800, "v", 12000], "internal_node_id": "0.0-169.0", "trial": 6, "time_elapsed": 1127712, "serialpos": 7, "key_press": -1, "wordID": 279, "type": "PRES_VIS", "trial_index": 232}, "uniqueid": "MTK1435:323Q6SJS8JN6O86YAOPA5U6QWVNHFR", "dateTime": 1515882376355}, {"current_trial": 233, "trialdata": {"rt": -1, "trial_type": "single-stim", "word": "church", "stimulus": "<p id=\"stim\">CHURCH</p>", "conditions": [12, 800, "v", 12000], "internal_node_id": "0.0-170.0", "trial": 6, "time_elapsed": 1129608, "serialpos": 8, "key_press": -1, "wordID": 306, "type": "PRES_VIS", "trial_index": 233}, "uniqueid": "MTK1435:323Q6SJS8JN6O86YAOPA5U6QWVNHFR", "dateTime": 1515882378251}, {"current_trial": 234, "trialdata": {"rt": -1, "trial_type": "single-stim", "word": "dolphin", "stimulus": "<p id=\"stim\">DOLPHIN</p>", "conditions": [12, 800, "v", 12000], "internal_node_id": "0.0-171.0", "trial": 6, "time_elapsed": 1131563, "serialpos": 9, "key_press": -1, "wordID": 482, "type": "PRES_VIS", "trial_index": 234}, "uniqueid": "MTK1435:323Q6SJS8JN6O86YAOPA5U6QWVNHFR", "dateTime": 1515882380206}, {"current_trial": 235, "trialdata": {"rt": -1, "trial_type": "single-stim", "word": "cellar", "stimulus": "<p id=\"stim\">CELLAR</p>", "conditions": [12, 800, "v", 12000], "internal_node_id": "0.0-172.0", "trial": 6, "time_elapsed": 1133546, "serialpos": 10, "key_press": -1, "wordID": 266, "type": "PRES_VIS", "trial_index": 235}, "uniqueid": "MTK1435:323Q6SJS8JN6O86YAOPA5U6QWVNHFR", "dateTime": 1515882382189}, {"current_trial": 236, "trialdata": {"rt": -1, "trial_type": "single-stim", "word": "badge", "stimulus": "<p id=\"stim\">BADGE</p>", "conditions": [12, 800, "v", 12000], "internal_node_id": "0.0-173.0", "trial": 6, "time_elapsed": 1135194, "serialpos": 11, "key_press": -1, "wordID": 67, "type": "PRES_VIS", "trial_index": 236}, "uniqueid": "MTK1435:323Q6SJS8JN6O86YAOPA5U6QWVNHFR", "dateTime": 1515882383837}, {"current_trial": 237, "trialdata": {"rt": -1, "trial_type": "single-stim", "stimulus": "", "internal_node_id": "0.0-174.0-0.0", "time_elapsed": 1137385, "key_press": -1, "type": "PRE_RECALL_DELAY", "trial_index": 237}, "uniqueid": "MTK1435:323Q6SJS8JN6O86YAOPA5U6QWVNHFR", "dateTime": 1515882386028}, {"current_trial": 238, "trialdata": {"rt": -1000, "trial_type": "single-audio", "stimulus": "/static/audio/400Hz.wav", "internal_node_id": "0.0-175.0", "time_elapsed": 1137894, "key_press": -1, "type": "PRE_RECALL_ALERT", "trial_index": 238}, "uniqueid": "MTK1435:323Q6SJS8JN6O86YAOPA5U6QWVNHFR", "dateTime": 1515882386537}, {"current_trial": 239, "trialdata": {"rt": [3197, 4645, 5901, 7805, 11141, 13041, 14573, 21037, 23501, 34741, 36021], "recwords": ["dolphin", "cellar", "badge", "lightening", "basement", "maple", "fig", "match", "badge", "chapel", "church"], "key_times": [1262, 1390, 1974, 2262, 2406, 2526, 2662, 3197, 3486, 3710, 3734, 3926, 4190, 4390, 4645, 4830, 4934, 5150, 5390, 5583, 5901, 6222, 6334, 6510, 6590, 6758, 6918, 7054, 7230, 7334, 7518, 7805, 9806, 9925, 10094, 10245, 10446, 10574, 10694, 10894, 11141, 12038, 12157, 12302, 12646, 12829, 13041, 14054, 14126, 14334, 14573, 20174, 20286, 20422, 20710, 20798, 21037, 22662, 22726, 22950, 23118, 23261, 23501, 33782, 33878, 34005, 34165, 34366, 34486, 34741, 34958, 35046, 35230, 35302, 35590, 35694, 36021], "trial_type": "free-recall", "conditions": [12, 800, "v", 12000], "internal_node_id": "0.0-176.0-0.0", "key_presses": [68, 79, 76, 80, 72, 73, 78, 13, 67, 69, 76, 76, 65, 82, 13, 66, 65, 68, 71, 69, 13, 76, 73, 71, 72, 84, 69, 78, 73, 78, 71, 13, 66, 65, 83, 69, 77, 69, 78, 84, 13, 77, 65, 80, 76, 69, 13, 70, 73, 71, 13, 77, 65, 84, 67, 72, 13, 66, 65, 68, 71, 69, 13, 67, 72, 65, 80, 69, 76, 13, 67, 72, 85, 82, 67, 72, 13], "trial": 6, "time_elapsed": 1197896, "type": "FREE_RECALL", "trial_index": 239}, "uniqueid": "MTK1435:323Q6SJS8JN6O86YAOPA5U6QWVNHFR", "dateTime": 1515882446545}, {"current_trial": 240, "trialdata": {"rt": 1750, "trial_type": "text", "internal_node_id": "0.0-177.0", "time_elapsed": 1201653, "key_press": 32, "type": "INSTRUCTIONS", "trial_index": 240}, "uniqueid": "MTK1435:323Q6SJS8JN6O86YAOPA5U6QWVNHFR", "dateTime": 1515882450296}, {"current_trial": 241, "trialdata": {"rt": [2076, 4260, 6212, 7636, 9308, 11388], "trial_type": "math-distractor", "key_times": [1628, 1836, 2076, 3783, 4028, 4260, 5812, 5996, 6212, 7196, 7420, 7636, 8909, 9076, 9308, 11020, 11196, 11388], "responses": ["16", "17", "21", "10", "11", "12"], "num2": [9, 7, 6, 4, 2, 1, 1], "num3": [4, 6, 7, 1, 4, 4, 7], "conditions": [24, 800, "v", 12000], "internal_node_id": "0.0-178.0", "key_presses": [97, 102, 13, 97, 103, 13, 98, 97, 13, 97, 96, 13, 97, 97, 13, 97, 98, 13], "trial": 7, "time_elapsed": 1215659, "type": "DISTRACTOR", "trial_index": 241, "num1": [3, 4, 8, 5, 5, 7, 1]}, "uniqueid": "MTK1435:323Q6SJS8JN6O86YAOPA5U6QWVNHFR", "dateTime": 1515882464302}, {"current_trial": 242, "trialdata": {"rt": -1, "trial_type": "single-stim", "stimulus": "<p id=\"stim\">10</p>", "internal_node_id": "0.0-179.0-0.0", "time_elapsed": 1218661, "key_press": -1, "trial_index": 242}, "uniqueid": "MTK1435:323Q6SJS8JN6O86YAOPA5U6QWVNHFR", "dateTime": 1515882467304}, {"current_trial": 243, "trialdata": {"rt": -1, "trial_type": "single-stim", "stimulus": "<p id=\"stim\">9</p>", "internal_node_id": "0.0-179.0-1.0", "time_elapsed": 1219663, "key_press": -1, "trial_index": 243}, "uniqueid": "MTK1435:323Q6SJS8JN6O86YAOPA5U6QWVNHFR", "dateTime": 1515882468306}, {"current_trial": 244, "trialdata": {"rt": -1, "trial_type": "single-stim", "stimulus": "<p id=\"stim\">8</p>", "internal_node_id": "0.0-179.0-2.0", "time_elapsed": 1220665, "key_press": -1, "trial_index": 244}, "uniqueid": "MTK1435:323Q6SJS8JN6O86YAOPA5U6QWVNHFR", "dateTime": 1515882469308}, {"current_trial": 245, "trialdata": {"rt": -1, "trial_type": "single-stim", "stimulus": "<p id=\"stim\">7</p>", "internal_node_id": "0.0-179.0-3.0", "time_elapsed": 1221666, "key_press": -1, "trial_index": 245}, "uniqueid": "MTK1435:323Q6SJS8JN6O86YAOPA5U6QWVNHFR", "dateTime": 1515882470309}, {"current_trial": 246, "trialdata": {"rt": -1, "trial_type": "single-stim", "stimulus": "<p id=\"stim\">6</p>", "internal_node_id": "0.0-179.0-4.0", "time_elapsed": 1222668, "key_press": -1, "trial_index": 246}, "uniqueid": "MTK1435:323Q6SJS8JN6O86YAOPA5U6QWVNHFR", "dateTime": 1515882471311}, {"current_trial": 247, "trialdata": {"rt": -1, "trial_type": "single-stim", "stimulus": "<p id=\"stim\">5</p>", "internal_node_id": "0.0-179.0-5.0", "time_elapsed": 1223670, "key_press": -1, "trial_index": 247}, "uniqueid": "MTK1435:323Q6SJS8JN6O86YAOPA5U6QWVNHFR", "dateTime": 1515882472313}, {"current_trial": 248, "trialdata": {"rt": -1, "trial_type": "single-stim", "stimulus": "<p id=\"stim\">4</p>", "internal_node_id": "0.0-179.0-6.0", "time_elapsed": 1224672, "key_press": -1, "trial_index": 248}, "uniqueid": "MTK1435:323Q6SJS8JN6O86YAOPA5U6QWVNHFR", "dateTime": 1515882473315}, {"current_trial": 249, "trialdata": {"rt": -1, "trial_type": "single-stim", "stimulus": "<p id=\"stim\">3</p>", "internal_node_id": "0.0-179.0-7.0", "time_elapsed": 1225674, "key_press": -1, "trial_index": 249}, "uniqueid": "MTK1435:323Q6SJS8JN6O86YAOPA5U6QWVNHFR", "dateTime": 1515882474317}, {"current_trial": 250, "trialdata": {"rt": -1, "trial_type": "single-stim", "stimulus": "<p id=\"stim\">2</p>", "internal_node_id": "0.0-179.0-8.0", "time_elapsed": 1226675, "key_press": -1, "trial_index": 250}, "uniqueid": "MTK1435:323Q6SJS8JN6O86YAOPA5U6QWVNHFR", "dateTime": 1515882475318}, {"current_trial": 251, "trialdata": {"rt": -1, "trial_type": "single-stim", "stimulus": "<p id=\"stim\">1</p>", "internal_node_id": "0.0-179.0-9.0", "time_elapsed": 1227677, "key_press": -1, "trial_index": 251}, "uniqueid": "MTK1435:323Q6SJS8JN6O86YAOPA5U6QWVNHFR", "dateTime": 1515882476320}, {"current_trial": 252, "trialdata": {"rt": -1, "trial_type": "single-stim", "stimulus": "<p id=\"stim\">+</p>", "internal_node_id": "0.0-180.0-0.0", "time_elapsed": 1229179, "key_press": -1, "type": "FIXATION", "trial_index": 252}, "uniqueid": "MTK1435:323Q6SJS8JN6O86YAOPA5U6QWVNHFR", "dateTime": 1515882477822}, {"current_trial": 253, "trialdata": {"rt": -1, "trial_type": "single-stim", "word": "world", "stimulus": "<p id=\"stim\">WORLD</p>", "conditions": [24, 800, "v", 12000], "internal_node_id": "0.0-181.0", "trial": 7, "time_elapsed": 1229981, "serialpos": 0, "key_press": -1, "wordID": 1621, "type": "PRES_VIS", "trial_index": 