{"condition": 0, "counterbalance": 2170, "assignmentId": "3UXUOQ9OKF4EZSJEMZH60G65J5BA7M", "workerId": "MTK1246", "hitId": "3BKZLF990Z6NE8O282ZQE99NC5VQYB", "currenttrial": 626, "bonus": 0, "data": [{"uniqueid": "MTK1246:3UXUOQ9OKF4EZSJEMZH60G65J5BA7M", "current_trial": 0, "dateTime": 1513467928430, "trialdata": {"rt": 2276, "key_press": 32, "type": "INSTRUCTIONS", "trial_type": "text", "trial_index": 0, "time_elapsed": 2281, "internal_node_id": "0.0-0.0"}}, {"uniqueid": "MTK1246:3UXUOQ9OKF4EZSJEMZH60G65J5BA7M", "current_trial": 1, "dateTime": 1513467940395, "trialdata": {"rt": 11962, "key_press": 32, "type": "INSTRUCTIONS", "trial_type": "text", "trial_index": 1, "time_elapsed": 14248, "internal_node_id": "0.0-1.0"}}, {"uniqueid": "MTK1246:3UXUOQ9OKF4EZSJEMZH60G65J5BA7M", "current_trial": 2, "dateTime": 1513467953497, "trialdata": {"rt": [13087], "responses": ["ocean"], "type": "AUDIO_TEST", "trial_type": "audio-test", "trial_index": 2, "time_elapsed": 27350, "internal_node_id": "0.0-2.0"}}, {"uniqueid": "MTK1246:3UXUOQ9OKF4EZSJEMZH60G65J5BA7M", "current_trial": 3, "dateTime": 1513467960425, "trialdata": {"rt": [6918], "responses": ["crystal"], "type": "AUDIO_TEST", "trial_type": "audio-test", "trial_index": 3, "time_elapsed": 34278, "internal_node_id": "0.0-3.0"}}, {"uniqueid": "MTK1246:3UXUOQ9OKF4EZSJEMZH60G65J5BA7M", "current_trial": 4, "dateTime": 1513467964490, "trialdata": {"rt": [4056], "responses": ["spice"], "type": "AUDIO_TEST", "trial_type": "audio-test", "trial_index": 4, "time_elapsed": 38343, "internal_node_id": "0.0-4.0"}}, {"uniqueid": "MTK1246:3UXUOQ9OKF4EZSJEMZH60G65J5BA7M", "current_trial": 5, "dateTime": 1513467984010, "trialdata": {"rt": 18764, "responses": "{\"Q0\":\"12:00 AM\",\"Q1\":\"9:00 AM\",\"Q2\":\"5\"}", "type": "SLEEP_SURVEY", "trial_type": "survey-text", "trial_index": 5, "time_elapsed": 57863, "internal_node_id": "0.0-5.0"}}, {"uniqueid": "MTK1246:3UXUOQ9OKF4EZSJEMZH60G65J5BA7M", "current_trial": 6, "dateTime": 1513467996525, "trialdata": {"rt": 11511, "key_press": 13, "type": "INSTRUCTIONS", "trial_type": "text", "trial_index": 6, "time_elapsed": 70378, "internal_node_id": "0.0-6.0"}}, {"uniqueid": "MTK1246:3UXUOQ9OKF4EZSJEMZH60G65J5BA7M", "current_trial": 7, "dateTime": 1513468005594, "trialdata": {"rt": 8567, "key_press": 32, "type": "INSTRUCTIONS", "trial_type": "text", "trial_index": 7, "time_elapsed": 79447, "internal_node_id": "0.0-7.0"}}, {"uniqueid": "MTK1246:3UXUOQ9OKF4EZSJEMZH60G65J5BA7M", "current_trial": 8, "dateTime": 1513468008137, "trialdata": {"rt": 2041, "key_press": 32, "type": "INSTRUCTIONS", "trial_type": "text", "trial_index": 8, "time_elapsed": 81990, "internal_node_id": "0.0-8.0"}}, {"uniqueid": "MTK1246:3UXUOQ9OKF4EZSJEMZH60G65J5BA7M", "current_trial": 9, "dateTime": 1513468027187, "trialdata": {"rt": [2571, 4329, 7083, 11338, 13290], "responses": ["6", "10", "24", "21", "9"], "num1": [2, 1, 8, 6, 1, 3], "num2": [3, 7, 8, 7, 5, 8], "num3": [1, 2, 6, 8, 3, 7], "type": "DISTRACTOR", "conditions": [18, 1200, "a", 18000], "trial": 0, "trial_type": "math-distractor", "trial_index": 9, "time_elapsed": 101040, "internal_node_id": "0.0-9.0"}}, {"uniqueid": "MTK1246:3UXUOQ9OKF4EZSJEMZH60G65J5BA7M", "current_trial": 10, "dateTime": 1513468030192, "trialdata": {"rt": -1, "stimulus": "<p id=\"stim\">10</p>", "key_press": -1, "trial_type": "single-stim", "trial_index": 10, "time_elapsed": 104045, "internal_node_id": "0.0-10.0-0.0"}}, {"uniqueid": "MTK1246:3UXUOQ9OKF4EZSJEMZH60G65J5BA7M", "current_trial": 11, "dateTime": 1513468031194, "trialdata": {"rt": -1, "stimulus": "<p id=\"stim\">9</p>", "key_press": -1, "trial_type": "single-stim", "trial_index": 11, "time_elapsed": 105047, "internal_node_id": "0.0-10.0-1.0"}}, {"uniqueid": "MTK1246:3UXUOQ9OKF4EZSJEMZH60G65J5BA7M", "current_trial": 12, "dateTime": 1513468032196, "trialdata": {"rt": -1, "stimulus": "<p id=\"stim\">8</p>", "key_press": -1, "trial_type": "single-stim", "trial_index": 12, "time_elapsed": 106049, "internal_node_id": "0.0-10.0-2.0"}}, {"uniqueid": "MTK1246:3UXUOQ9OKF4EZSJEMZH60G65J5BA7M", "current_trial": 13, "dateTime": 1513468033198, "trialdata": {"rt": -1, "stimulus": "<p id=\"stim\">7</p>", "key_press": -1, "trial_type": "single-stim", "trial_index": 13, "time_elapsed": 107051, "internal_node_id": "0.0-10.0-3.0"}}, {"uniqueid": "MTK1246:3UXUOQ9OKF4EZSJEMZH60G65J5BA7M", "current_trial": 14, "dateTime": 1513468034200, "trialdata": {"rt": -1, "stimulus": "<p id=\"stim\">6</p>", "key_press": -1, "trial_type": "single-stim", "trial_index": 14, "time_elapsed": 108053, "internal_node_id": "0.0-10.0-4.0"}}, {"uniqueid": "MTK1246:3UXUOQ9OKF4EZSJEMZH60G65J5BA7M", "current_trial": 15, "dateTime": 1513468035203, "trialdata": {"rt": -1, "stimulus": "<p id=\"stim\">5</p>", "key_press": -1, "trial_type": "single-stim", "trial_index": 15, "time_elapsed": 109056, "internal_node_id": "0.0-10.0-5.0"}}, {"uniqueid": "MTK1246:3UXUOQ9OKF4EZSJEMZH60G65J5BA7M", "current_trial": 16, "dateTime": 1513468036204, "trialdata": {"rt": -1, "stimulus": "<p id=\"stim\">4</p>", "key_press": -1, "trial_type": "single-stim", "trial_index": 16, "time_elapsed": 110057, "internal_node_id": "0.0-10.0-6.0"}}, {"uniqueid": "MTK1246:3UXUOQ9OKF4EZSJEMZH60G65J5BA7M", "current_trial": 17, "dateTime": 1513468037207, "trialdata": {"rt": -1, "stimulus": "<p id=\"stim\">3</p>", "key_press": -1, "trial_type": "single-stim", "trial_index": 17, "time_elapsed": 111060, "internal_node_id": "0.0-10.0-7.0"}}, {"uniqueid": "MTK1246:3UXUOQ9OKF4EZSJEMZH60G65J5BA7M", "current_trial": 18, "dateTime": 1513468038210, "trialdata": {"rt": -1, "stimulus": "<p id=\"stim\">2</p>", "key_press": -1, "trial_type": "single-stim", "trial_index": 18, "time_elapsed": 112063, "internal_node_id": "0.0-10.0-8.0"}}, {"uniqueid": "MTK1246:3UXUOQ9OKF4EZSJEMZH60G65J5BA7M", "current_trial": 19, "dateTime": 1513468039211, "trialdata": {"rt": -1, "stimulus": "<p id=\"stim\">1</p>", "key_press": -1, "trial_type": "single-stim", "trial_index": 19, "time_elapsed": 113064, "internal_node_id": "0.0-10.0-9.0"}}, {"uniqueid": "MTK1246:3UXUOQ9OKF4EZSJEMZH60G65J5BA7M", "current_trial": 20, "dateTime": 1513468040714, "trialdata": {"rt": -1, "stimulus": "<p id=\"stim\">+</p>", "key_press": -1, "type": "FIXATION", "trial_type": "single-stim", "trial_index": 20, "time_elapsed": 114567, "internal_node_id": "0.0-11.0-0.0"}}, {"uniqueid": "MTK1246:3UXUOQ9OKF4EZSJEMZH60G65J5BA7M", "current_trial": 21, "dateTime": 1513468042967, "trialdata": {"rt": -1000, "stimulus": "/static/audio/wordpool/LODGE.wav", "key_press": -1, "type": "PRES_AUD", "word": "lodge", "wordID": 838, "conditions": [18, 1200, "a", 18000], "trial": 0, "serialpos": 0, "trial_type": "single-audio", "trial_index": 21, "time_elapsed": 116820, "internal_node_id": "0.0-12.0"}}, {"uniqueid": "MTK1246:3UXUOQ9OKF4EZSJEMZH60G65J5BA7M", "current_trial": 22, "dateTime": 1513468044997, "trialdata": {"rt": -1000, "stimulus": "/static/audio/wordpool/LOVER.wav", "key_press": -1, "type": "PRES_AUD", "word": "lover", "wordID": 845, "conditions": [18, 1200, "a", 18000], "trial": 0, "serialpos": 1, "trial_type": "single-audio", "trial_index": 22, "time_elapsed": 118849, "internal_node_id": "0.0-13.0"}}, {"uniqueid": "MTK1246:3UXUOQ9OKF4EZSJEMZH60G65J5BA7M", "current_trial": 23, "dateTime": 1513468047308, "trialdata": {"rt": -1000, "stimulus": "/static/audio/wordpool/STICKER.wav", "key_press": -1, "type": "PRES_AUD", "word": "sticker", "wordID": 1381, "conditions": [18, 1200, "a", 18000], "trial": 0, "serialpos": 2, "trial_type": "single-audio", "trial_index": 23, "time_elapsed": 121161, "internal_node_id": "0.0-14.0"}}, {"uniqueid": "MTK1246:3UXUOQ9OKF4EZSJEMZH60G65J5BA7M", "current_trial": 24, "dateTime": 1513468049640, "trialdata": {"rt": -1000, "stimulus": "/static/audio/wordpool/OUTLAW.wav", "key_press": -1, "type": "PRES_AUD", "word": "outlaw", "wordID": 988, "conditions": [18, 1200, "a", 18000], "trial": 0, "serialpos": 3, "trial_type": "single-audio", "trial_index": 24, "time_elapsed": 123493, "internal_node_id": "0.0-15.0"}}, {"uniqueid": "MTK1246:3UXUOQ9OKF4EZSJEMZH60G65J5BA7M", "current_trial": 25, "dateTime": 1513468052044, "trialdata": {"rt": -1000, "stimulus": "/static/audio/wordpool/CREVICE.wav", "key_press": -1, "type": "PRES_AUD", "word": "crevice", "wordID": 404, "conditions": [18, 1200, "a", 18000], "trial": 0, "serialpos": 4, "trial_type": "single-audio", "trial_index": 25, "time_elapsed": 125897, "internal_node_id": "0.0-16.0"}}, {"uniqueid": "MTK1246:3UXUOQ9OKF4EZSJEMZH60G65J5BA7M", "current_trial": 26, "dateTime": 1513468054340, "trialdata": {"rt": -1000, "stimulus": "/static/audio/wordpool/BADGE.wav", "key_press": -1, "type": "PRES_AUD", "word": "badge", "wordID": 67, "conditions": [18, 1200, "a", 18000], "trial": 0, "serialpos": 5, "trial_type": "single-audio", "trial_index": 26, "time_elapsed": 128192, "internal_node_id": "0.0-17.0"}}, {"uniqueid": "MTK1246:3UXUOQ9OKF4EZSJEMZH60G65J5BA7M", "current_trial": 27, "dateTime": 1513468056594, "trialdata": {"rt": -1000, "stimulus": "/static/audio/wordpool/FRAME.wav", "key_press": -1, "type": "PRES_AUD", "word": "frame", "wordID": 599, "conditions": [18, 1200, "a", 18000], "trial": 0, "serialpos": 6, "trial_type": "single-audio", "trial_index": 27, "time_elapsed": 130447, "internal_node_id": "0.0-18.0"}}, {"uniqueid": "MTK1246:3UXUOQ9OKF4EZSJEMZH60G65J5BA7M", "current_trial": 28, "dateTime": 1513468058625, "trialdata": {"rt": -1000, "stimulus": "/static/audio/wordpool/BACKBONE.wav", "key_press": -1, "type": "PRES_AUD", "word": "backbone", "wordID": 65, "conditions": [18, 1200, "a", 18000], "trial": 0, "serialpos": 7, "trial_type": "single-audio", "trial_index": 28, "time_elapsed": 132478, "internal_node_id": "0.0-19.0"}}, {"uniqueid": "MTK1246:3UXUOQ9OKF4EZSJEMZH60G65J5BA7M", "current_trial": 29, "dateTime": 1513468060719, "trialdata": {"rt": -1000, "stimulus": "/static/audio/wordpool/FLAG.wav", "key_press": -1, "type": "PRES_AUD", "word": "flag", "wordID": 572, "conditions": [18, 1200, "a", 18000], "trial": 0, "serialpos": 8, "trial_type": "single-audio", "trial_index": 29, "time_elapsed": 134572, "internal_node_id": "0.0-20.0"}}, {"uniqueid": "MTK1246:3UXUOQ9OKF4EZSJEMZH60G65J5BA7M", "current_trial": 30, "dateTime": 1513468063107, "trialdata": {"rt": -1000, "stimulus": "/static/audio/wordpool/BRANDY.wav", "key_press": -1, "type": "PRES_AUD", "word": "brandy", "wordID": 168, "conditions": [18, 1200, "a", 18000], "trial": 0, "serialpos": 9, "trial_type": "single-audio", "trial_index": 30, "time_elapsed": 136960, "internal_node_id": "0.0-21.0"}}, {"uniqueid": "MTK1246:3UXUOQ9OKF4EZSJEMZH60G65J5BA7M", "current_trial": 31, "dateTime": 1513468065310, "trialdata": {"rt": -1000, "stimulus": "/static/audio/wordpool/SUPPER.wav", "key_press": -1, "type": "PRES_AUD", "word": "supper", "wordID": 1410, "conditions": [18, 1200, "a", 18000], "trial": 0, "serialpos": 10, "trial_type": "single-audio", "trial_index": 31, "time_elapsed": 139163, "internal_node_id": "0.0-22.0"}}, {"uniqueid": "MTK1246:3UXUOQ9OKF4EZSJEMZH60G65J5BA7M", "current_trial": 32, "dateTime": 1513468067340, "trialdata": {"rt": -1000, "stimulus": "/static/audio/wordpool/TRENCH.wav", "key_press": -1, "type": "PRES_AUD", "word": "trench", "wordID": 1502, "conditions": [18, 1200, "a", 18000], "trial": 0, "serialpos": 11, "trial_type": "single-audio", "trial_index": 32, "time_elapsed": 141192, "internal_node_id": "0.0-23.0"}}, {"uniqueid": "MTK1246:3UXUOQ9OKF4EZSJEMZH60G65J5BA7M", "current_trial": 33, "dateTime": 1513468069466, "trialdata": {"rt": -1000, "stimulus": "/static/audio/wordpool/ACTOR.wav", "key_press": -1, "type": "PRES_AUD", "word": "actor", "wordID": 4, "conditions": [18, 1200, "a", 18000], "trial": 0, "serialpos": 12, "trial_type": "single-audio", "trial_index": 33, "time_elapsed": 143319, "internal_node_id": "0.0-24.0"}}, {"uniqueid": "MTK1246:3UXUOQ9OKF4EZSJEMZH60G65J5BA7M", "current_trial": 34, "dateTime": 1513468071557, "trialdata": {"rt": -1000, "stimulus": "/static/audio/wordpool/SNAKE.wav", "key_press": -1, "type": "PRES_AUD", "word": "snake", "wordID": 1332, "conditions": [18, 1200, "a", 18000], "trial": 0, "serialpos": 13, "trial_type": "single-audio", "trial_index": 34, "time_elapsed": 145410, "internal_node_id": "0.0-25.0"}}, {"uniqueid": "MTK1246:3UXUOQ9OKF4EZSJEMZH60G65J5BA7M", "current_trial": 35, "dateTime": 1513468073844, "trialdata": {"rt": -1000, "stimulus": "/static/audio/wordpool/CABBAGE.wav", "key_press": -1, "type": "PRES_AUD", "word": "cabbage", "wordID": 209, "conditions": [18, 1200, "a", 18000], "trial": 0, "serialpos": 14, "trial_type": "single-audio", "trial_index": 35, "time_elapsed": 147697, "internal_node_id": "0.0-26.0"}}, {"uniqueid": "MTK1246:3UXUOQ9OKF4EZSJEMZH60G65J5BA7M", "current_trial": 36, "dateTime": 1513468076233, "trialdata": {"rt": -1000, "stimulus": "/static/audio/wordpool/RIVER.wav", "key_press": -1, "type": "PRES_AUD", "word": "river", "wordID": 1193, "conditions": [18, 1200, "a", 18000], "trial": 0, "serialpos": 15, "trial_type": "single-audio", "trial_index": 36, "time_elapsed": 150085, "internal_node_id": "0.0-27.0"}}, {"uniqueid": "MTK1246:3UXUOQ9OKF4EZSJEMZH60G65J5BA7M", "current_trial": 37, "dateTime": 1513468078595, "trialdata": {"rt": -1000, "stimulus": "/static/audio/wordpool/PROTON.wav", "key_press": -1, "type": "PRES_AUD", "word": "proton", "wordID": 1131, "conditions": [18, 1200, "a", 18000], "trial": 0, "serialpos": 16, "trial_type": "single-audio", "trial_index": 37, "time_elapsed": 152448, "internal_node_id": "0.0-28.0"}}, {"uniqueid": "MTK1246:3UXUOQ9OKF4EZSJEMZH60G65J5BA7M", "current_trial": 38, "dateTime": 1513468080676, "trialdata": {"rt": -1000, "stimulus": "/static/audio/wordpool/AUTHOR.wav", "key_press": -1, "type": "PRES_AUD", "word": "author", "wordID": 60, "conditions": [18, 1200, "a", 18000], "trial": 0, "serialpos": 17, "trial_type": "single-audio", "trial_index": 38, "time_elapsed": 154529, "internal_node_id": "0.0-29.0"}}, {"uniqueid": "MTK1246:3UXUOQ9OKF4EZSJEMZH60G65J5BA7M", "current_trial": 39, "dateTime": 1513468082060, "trialdata": {"rt": -1, "stimulus": "", "key_press": -1, "type": "PRE_RECALL_DELAY", "trial_type": "single-stim", "trial_index": 39, "time_elapsed": 155913, "internal_node_id": "0.0-30.0-0.0"}}, {"uniqueid": "MTK1246:3UXUOQ9OKF4EZSJEMZH60G65J5BA7M", "current_trial": 40, "dateTime": 1513468082563, "trialdata": {"rt": -1000, "stimulus": "/static/audio/400Hz.wav", "key_press": -1, "type": "PRE_RECALL_ALERT", "trial_type": "single-audio", "trial_index": 40, "time_elapsed": 156416, "internal_node_id": "0.0-31.0"}}, {"uniqueid": "MTK1246:3UXUOQ9OKF4EZSJEMZH60G65J5BA7M", "current_trial": 41, "dateTime": 1513468142579, "trialdata": {"rt": [2576, 3984, 5152, 6835, 9056, 10657, 12161, 16690, 20465, 23779, 24722, 27537, 30692], "recwords": ["lodge", "lover", "actor", "proton", "trench", "beacjh", "ocean", "trencjh", "marry", "friend", "", "sky", "proton"], "type": "FREE_RECALL", "conditions": [18, 1200, "a", 18000], "trial": 0, "trial_type": "free-recall", "trial_index": 41, "time_elapsed": 216427, "internal_node_id": "0.0-32.0-0.0"}}, {"uniqueid": "MTK1246:3UXUOQ9OKF4EZSJEMZH60G65J5BA7M", "current_trial": 42, "dateTime": 1513468146258, "trialdata": {"rt": 1677, "key_press": 13, "type": "INSTRUCTIONS", "trial_type": "text", "trial_index": 42, "time_elapsed": 220110, "internal_node_id": "0.0-33.0"}}, {"uniqueid": "MTK1246:3UXUOQ9OKF4EZSJEMZH60G65J5BA7M", "current_trial": 43, "dateTime": 1513468166263, "trialdata": {"rt": [2154, 5067, 6859, 10554, 12267, 13931, 17452], "responses": ["11", "16", "18", "20", "15", "12", "12"], "num1": [6, 7, 3, 7, 2, 4, 1, 8], "num2": [1, 5, 6, 9, 8, 4, 2, 5], "num3": [4, 4, 9, 4, 5, 4, 9, 6], "type": "DISTRACTOR", "conditions": [18, 1200, "v", 18000], "trial": 1, "trial_type": "math-distractor", "trial_index": 43, "time_elapsed": 240116, "internal_node_id": "0.0-34.0"}}, {"uniqueid": "MTK1246:3UXUOQ9OKF4EZSJEMZH60G65J5BA7M", "current_trial": 44, "dateTime": 1513468169265, "trialdata": {"rt": -1, "stimulus": "<p id=\"stim\">10</p>", "key_press": -1, "trial_type": "single-stim", "trial_index": 44, "time_elapsed": 243118, "internal_node_id": "0.0-35.0-0.0"}}, {"uniqueid": "MTK1246:3UXUOQ9OKF4EZSJEMZH60G65J5BA7M", "current_trial": 45, "dateTime": 1513468170267, "trialdata": {"rt": -1, "stimulus": "<p id=\"stim\">9</p>", "key_press": -1, "trial_type": "single-stim", "trial_index": 45, "time_elapsed": 244120, "internal_node_id": "0.0-35.0-1.0"}}, {"uniqueid": "MTK1246:3UXUOQ9OKF4EZSJEMZH60G65J5BA7M", "current_trial": 46, "dateTime": 1513468171269, "trialdata": {"rt": -1, "stimulus": "<p id=\"stim\">8</p>", "key_press": -1, "trial_type": "single-stim", "trial_index": 46, "time_elapsed": 245121, "internal_node_id": "0.0-35.0-2.0"}}, {"uniqueid": "MTK1246:3UXUOQ9OKF4EZSJEMZH60G65J5BA7M", "current_trial": 47, "dateTime": 1513468172271, "trialdata": {"rt": -1, "stimulus": "<p id=\"stim\">7</p>", "key_press": -1, "trial_type": "single-stim", "trial_index": 47, "time_elapsed": 246123, "internal_node_id": "0.0-35.0-3.0"}}, {"uniqueid": "MTK1246:3UXUOQ9OKF4EZSJEMZH60G65J5BA7M", "current_trial": 48, "dateTime": 1513468173273, "trialdata": {"rt": -1, "stimulus": "<p id=\"stim\">6</p>", "key_press": -1, "trial_type": "single-stim", "trial_index": 48, "time_elapsed": 247126, "internal_node_id": "0.0-35.0-4.0"}}, {"uniqueid": "MTK1246:3UXUOQ9OKF4EZSJEMZH60G65J5BA7M", "current_trial": 49, "dateTime": 1513468174275, "trialdata": {"rt": -1, "stimulus": "<p id=\"stim\">5</p>", "key_press": -1, "trial_type": "single-stim", "trial_index": 49, "time_elapsed": 248127, "internal_node_id": "0.0-35.0-5.0"}}, {"uniqueid": "MTK1246:3UXUOQ9OKF4EZSJEMZH60G65J5BA7M", "current_trial": 50, "dateTime": 1513468175276, "trialdata": {"rt": -1, "stimulus": "<p id=\"stim\">4</p>", "key_press": -1, "trial_type": "single-stim", "trial_index": 50, "time_elapsed": 249129, "internal_node_id": "0.0-35.0-6.0"}}, {"uniqueid": "MTK1246:3UXUOQ9OKF4EZSJEMZH60G65J5BA7M", "current_trial": 51, "dateTime": 1513468176278, "trialdata": {"rt": -1, "stimulus": "<p id=\"stim\">3</p>", "key_press": -1, "trial_type": "single-stim", "trial_index": 51, "time_elapsed": 250131, "internal_node_id": "0.0-35.0-7.0"}}, {"uniqueid": "MTK1246:3UXUOQ9OKF4EZSJEMZH60G65J5BA7M", "current_trial": 52, "dateTime": 1513468177280, "trialdata": {"rt": -1, "stimulus": "<p id=\"stim\">2</p>", "key_press": -1, "trial_type": "single-stim", "trial_index": 52, "time_elapsed": 251133, "internal_node_id": "0.0-35.0-8.0"}}, {"uniqueid": "MTK1246:3UXUOQ9OKF4EZSJEMZH60G65J5BA7M", "current_trial": 53, "dateTime": 1513468178282, "trialdata": {"rt": -1, "stimulus": "<p id=\"stim\">1</p>", "key_press": -1, "trial_type": "single-stim", "trial_index": 53, "time_elapsed": 252135, "internal_node_id": "0.0-35.0-9.0"}}, {"uniqueid": "MTK1246:3UXUOQ9OKF4EZSJEMZH60G65J5BA7M", "current_trial": 54, "dateTime": 1513468179785, "trialdata": {"rt": -1, "stimulus": "<p id=\"stim\">+</p>", "key_press": -1, "type": "FIXATION", "trial_type": "single-stim", "trial_index": 54, "time_elapsed": 253637, "internal_node_id": "0.0-36.0-0.0"}}, {"uniqueid": "MTK1246:3UXUOQ9OKF4EZSJEMZH60G65J5BA7M", "current_trial": 55, "dateTime": 1513468180987, "trialdata": {"rt": -1, "stimulus": "<p id=\"stim\">SADDLE</p>", "key_press": -1, "type": "PRES_VIS", "word": "saddle", "wordID": 1220, "conditions": [18, 1200, "v", 18000], "trial": 1, "serialpos": 0, "trial_type": "single-stim", "trial_index": 55, "time_elapsed": 254839, "internal_node_id": "0.0-37.0"}}, {"uniqueid": "MTK1246:3UXUOQ9OKF4EZSJEMZH60G65J5BA7M", "current_trial": 56, "dateTime": 1513468183192, "trialdata": {"rt": -1, "stimulus": "<p id=\"stim\">CANAL</p>", "key_press": -1, "type": "PRES_VIS", "word": "canal", "wordID": 225, "conditions": [18, 1200, "v", 18000], "trial": 1, "serialpos": 1, "trial_type": "single-stim", "trial_index": 56, "time_elapsed": 257045, "internal_node_id": "0.0-38.0"}}, {"uniqueid": "MTK1246:3UXUOQ9OKF4EZSJEMZH60G65J5BA7M", "current_trial": 57, "dateTime": 1513468185572, "trialdata": {"rt": -1, "stimulus": "<p id=\"stim\">VIKING</p>", "key_press": -1, "type": "PRES_VIS", "word": "viking", "wordID": 1564, "conditions": [18, 1200, "v", 18000], "trial": 1, "serialpos": 2, "trial_type": "single-stim", "trial_index": 57, "time_elapsed": 259425, "internal_node_id": "0.0-39.0"}}, {"uniqueid": "MTK1246:3UXUOQ9OKF4EZSJEMZH60G65J5BA7M", "current_trial": 58, "dateTime": 1513468187906, "trialdata": {"rt": -1, "stimulus": "<p id=\"stim\">HUSBAND</p>", "key_press": -1, "type": "PRES_VIS", "word": "husband", "wordID": 727, "conditions": [18, 1200, "v", 18000], "trial": 1, "serialpos": 3, "trial_type": "single-stim", "trial_index": 58, "time_elapsed": 261759, "internal_node_id": "0.0-40.0"}}, {"uniqueid": "MTK1246:3UXUOQ9OKF4EZSJEMZH60G65J5BA7M", "current_trial": 59, "dateTime": 1513468190078, "trialdata": {"rt": -1, "stimulus": "<p id=\"stim\">DANDRUFF</p>", "key_press": -1, "type": "PRES_VIS", "word": "dandruff", "wordID": 438, "conditions": [18, 1200, "v", 18000], "trial": 1, "serialpos": 4, "trial_type": "single-stim", "trial_index": 59, "time_elapsed": 263931, "internal_node_id": "0.0-41.0"}}, {"uniqueid": "MTK1246:3UXUOQ9OKF4EZSJEMZH60G65J5BA7M", "current_trial": 60, "dateTime": 1513468192471, "trialdata": {"rt": -1, "stimulus": "<p id=\"stim\">GRILL</p>", "key_press": -1, "type": "PRES_VIS", "word": "grill", "wordID": 660, "conditions": [18, 1200, "v", 18000], "trial": 1, "serialpos": 5, "trial_type": "single-stim", "trial_index": 60, "time_elapsed": 266323, "internal_node_id": "0.0-42.0"}}, {"uniqueid": "MTK1246:3UXUOQ9OKF4EZSJEMZH60G65J5BA7M", "current_trial": 61, "dateTime": 1513468194487, "trialdata": {"rt": -1, "stimulus": "<p id=\"stim\">SMOG</p>", "key_press": -1, "type": "PRES_VIS", "word": "smog", "wordID": 1329, "conditions": [18, 1200, "v", 18000], "trial": 1, "serialpos": 6, "trial_type": "single-stim", "trial_index": 61, "time_elapsed": 268340, "internal_node_id": "0.0-43.0"}}, {"uniqueid": "MTK1246:3UXUOQ9OKF4EZSJEMZH60G65J5BA7M", "current_trial": 62, "dateTime": 1513468196612, "trialdata": {"rt": -1, "stimulus": "<p id=\"stim\">PADDLE</p>", "key_press": -1, "type": "PRES_VIS", "word": "paddle", "wordID": 999, "conditions": [18, 1200, "v", 18000], "trial": 1, "serialpos": 7, "trial_type": "single-stim", "trial_index": 62, "time_elapsed": 270465, "internal_node_id": "0.0-44.0"}}, {"uniqueid": "MTK1246:3UXUOQ9OKF4EZSJEMZH60G65J5BA7M", "current_trial": 63, "dateTime": 1513468198663, "trialdata": {"rt": -1, "stimulus": "<p id=\"stim\">LIPSTICK</p>", "key_press": -1, "type": "PRES_VIS", "word": "lipstick", "wordID": 828, "conditions": [18, 1200, "v", 18000], "trial": 1, "serialpos": 8, "trial_type": "single-stim", "trial_index": 63, "time_elapsed": 272516, "internal_node_id": "0.0-45.0"}}, {"uniqueid": "MTK1246:3UXUOQ9OKF4EZSJEMZH60G65J5BA7M", "current_trial": 64, "dateTime": 1513468201061, "trialdata": {"rt": -1, "stimulus": "<p id=\"stim\">BARREL</p>", "key_press": -1, "type": "PRES_VIS", "word": "barrel", "wordID": 90, "conditions": [18, 1200, "v", 18000], "trial": 1, "serialpos": 9, "trial_type": "single-stim", "trial_index": 64, "time_elapsed": 274914, "internal_node_id": "0.0-46.0"}}, {"uniqueid": "MTK1246:3UXUOQ9OKF4EZSJEMZH60G65J5BA7M", "current_trial": 65, "dateTime": 1513468203405, "trialdata": {"rt": -1, "stimulus": "<p id=\"stim\">CURTAIN</p>", "key_press": -1, "type": "PRES_VIS", "word": "curtain", "wordID": 426, "conditions": [18, 1200, "v", 18000], "trial": 1, "serialpos": 10, "trial_type": "single-stim", "trial_index": 65, "time_elapsed": 277257, "internal_node_id": "0.0-47.0"}}, {"uniqueid": "MTK1246:3UXUOQ9OKF4EZSJEMZH60G65J5BA7M", "current_trial": 66, "dateTime": 1513468205497, "trialdata": {"rt": -1, "stimulus": "<p id=\"stim\">WHISKERS</p>", "key_press": -1, "type": "PRES_VIS", "word": "whiskers", "wordID": 1604, "conditions": [18, 1200, "v", 18000], "trial": 1, "serialpos": 11, "trial_type": "single-stim", "trial_index": 66, "time_elapsed": 279350, "internal_node_id": "0.0-48.0"}}, {"uniqueid": "MTK1246:3UXUOQ9OKF4EZSJEMZH60G65J5BA7M", "current_trial": 67, "dateTime": 1513468207505, "trialdata": {"rt": -1, "stimulus": "<p id=\"stim\">BRICK</p>", "key_press": -1, "type": "PRES_VIS", "word": "brick", "wordID": 171, "conditions": [18, 1200, "v", 18000], "trial": 1, "serialpos": 12, "trial_type": "single-stim", "trial_index": 67, "time_elapsed": 281357, "internal_node_id": "0.0-49.0"}}, {"uniqueid": "MTK1246:3UXUOQ9OKF4EZSJEMZH60G65J5BA7M", "current_trial": 68, "dateTime": 1513468209570, "trialdata": {"rt": -1, "stimulus": "<p id=\"stim\">MONSTER</p>", "key_press": -1, "type": "PRES_VIS", "word": "monster", "wordID": 911, "conditions": [18, 1200, "v", 18000], "trial": 1, "serialpos": 13, "trial_type": "single-stim", "trial_index": 68, "time_elapsed": 283419, "internal_node_id": "0.0-50.0"}}, {"uniqueid": "MTK1246:3UXUOQ9OKF4EZSJEMZH60G65J5BA7M", "current_trial": 69, "dateTime": 1513468211869, "trialdata": {"rt": -1, "stimulus": "<p id=\"stim\">BEAKER</p>", "key_press": -1, "type": "PRES_VIS", "word": "beaker", "wordID": 103, "conditions": [18, 1200, "v", 18000], "trial": 1, "serialpos": 14, "trial_type": "single-stim", "trial_index": 69, "time_elapsed": 285722, "internal_node_id": "0.0-51.0"}}, {"uniqueid": "MTK1246:3UXUOQ9OKF4EZSJEMZH60G65J5BA7M", "current_trial": 70, "dateTime": 1513468214040, "trialdata": {"rt": -1, "stimulus": "<p id=\"stim\">FOX</p>", "key_press": -1, "type": "PRES_VIS", "word": "fox", "wordID": 597, "conditions": [18, 1200, "v", 18000], "trial": 1, "serialpos": 15, "trial_type": "single-stim", "trial_index": 70, "time_elapsed": 287893, "internal_node_id": "0.0-52.0"}}, {"uniqueid": "MTK1246:3UXUOQ9OKF4EZSJEMZH60G65J5BA7M", "current_trial": 71, "dateTime": 1513468216292, "trialdata": {"rt": -1, "stimulus": "<p id=\"stim\">BACON</p>", "key_press": -1, "type": "PRES_VIS", "word": "bacon", "wordID": 66, "conditions": [18, 1200, "v", 18000], "trial": 1, "serialpos": 16, "trial_type": "single-stim", "trial_index": 71, "time_elapsed": 290145, "internal_node_id": "0.0-53.0"}}, {"uniqueid": "MTK1246:3UXUOQ9OKF4EZSJEMZH60G65J5BA7M", "current_trial": 72, "dateTime": 1513468218566, "trialdata": {"rt": -1, "stimulus": "<p id=\"stim\">CYCLONE</p>", "key_press": -1, "type": "PRES_VIS", "word": "cyclone", "wordID": 430, "conditions": [18, 1200, "v", 18000], "trial": 1, "serialpos": 17, "trial_type": "single-stim", "trial_index": 72, "time_elapsed": 292419, "internal_node_id": "0.0-54.0"}}, {"uniqueid": "MTK1246:3UXUOQ9OKF4EZSJEMZH60G65J5BA7M", "current_trial": 73, "dateTime": 1513468220864, "trialdata": {"rt": -1, "stimulus": "", "key_press": -1, "type": "PRE_RECALL_DELAY", "trial_type": "single-stim", "trial_index": 73, "time_elapsed": 294716, "internal_node_id": "0.0-55.0-0.0"}}, {"uniqueid": "MTK1246:3UXUOQ9OKF4EZSJEMZH60G65J5BA7M", "current_trial": 74, "dateTime": 1513468221370, "trialdata": {"rt": -1000, "stimulus": "/static/audio/400Hz.wav", "key_press": -1, "type": "PRE_RECALL_ALERT", "trial_type": "single-audio", "trial_index": 74, "time_elapsed": 295222, "internal_node_id": "0.0-56.0"}}, {"uniqueid": "MTK1246:3UXUOQ9OKF4EZSJEMZH60G65J5BA7M", "current_trial": 75, "dateTime": 1513468281379, "trialdata": {"rt": [3430, 4740, 7124, 10628, 15109, 25476], "recwords": ["cyclone", "beaker", "door", "open", "opening", "cyclone"], "type": "FREE_RECALL", "conditions": [18, 1200, "v", 18000], "trial": 1, "trial_type": "free-recall", "trial_index": 75, "time_elapsed": 355228, "internal_node_id": "0.0-57.0-0.0"}}, {"uniqueid": "MTK1246:3UXUOQ9OKF4EZSJEMZH60G65J5BA7M", "current_trial": 76, "dateTime": 1513468289406, "trialdata": {"rt": 6017, "key_press": 13, "type": "INSTRUCTIONS", "trial_type": "text", "trial_index": 76, "time_elapsed": 363251, "internal_node_id": "0.0-58.0"}}, {"uniqueid": "MTK1246:3UXUOQ9OKF4EZSJEMZH60G65J5BA7M", "current_trial": 77, "dateTime": 1513468302411, "trialdata": {"rt": [2714, 4603, 10153], "responses": ["12", "8", "22"], "num1": [8, 2, 5, 6], "num2": [3, 3, 9, 9], "num3": [1, 3, 8, 8], "type": "DISTRACTOR", "conditions": [24, 1600, "a", 12000], "trial": 2, "trial_type": "math-distractor", "trial_index": 77, "time_elapsed": 376264, "internal_node_id": "0.0-59.0"}}, {"uniqueid": "MTK1246:3UXUOQ9OKF4EZSJEMZH60G65J5BA7M", "current_trial": 78, "dateTime": 1513468305415, "trialdata": {"rt": -1, "stimulus": "<p id=\"stim\">10</p>", "key_press": -1, "trial_type": "single-stim", "trial_index": 78, "time_elapsed": 379268, "internal_node_id": "0.0-60.0-0.0"}}, {"uniqueid": "MTK1246:3UXUOQ9OKF4EZSJEMZH60G65J5BA7M", "current_trial": 79, "dateTime": 1513468306416, "trialdata": {"rt": -1, "stimulus": "<p id=\"stim\">9</p>", "key_press": -1, "trial_type": "single-stim", "trial_index": 79, "time_elapsed": 380269, "internal_node_id": "0.0-60.0-1.0"}}, {"uniqueid": "MTK1246:3UXUOQ9OKF4EZSJEMZH60G65J5BA7M", "current_trial": 80, "dateTime": 1513468307418, "trialdata": {"rt": -1, "stimulus": "<p id=\"stim\">8</p>", "key_press": -1, "trial_type": "single-stim", "trial_index": 80, "time_elapsed": 381271, "internal_node_id": "0.0-60.0-2.0"}}, {"uniqueid": "MTK1246:3UXUOQ9OKF4EZSJEMZH60G65J5BA7M", "current_trial": 81, "dateTime": 1513468308420, "trialdata": {"rt": -1, "stimulus": "<p id=\"stim\">7</p>", "key_press": -1, "trial_type": "single-stim", "trial_index": 81, "time_elapsed": 382272, "internal_node_id": "0.0-60.0-3.0"}}, {"uniqueid": "MTK1246:3UXUOQ9OKF4EZSJEMZH60G65J5BA7M", "current_trial": 82, "dateTime": 1513468309422, "trialdata": {"rt": -1, "stimulus": "<p id=\"stim\">6</p>", "key_press": -1, "trial_type": "single-stim", "trial_index": 82, "time_elapsed": 383275, "internal_node_id": "0.0-60.0-4.0"}}, {"uniqueid": "MTK1246:3UXUOQ9OKF4EZSJEMZH60G65J5BA7M", "current_trial": 83, "dateTime": 1513468310423, "trialdata": {"rt": -1, "stimulus": "<p id=\"stim\">5</p>", "key_press": -1, "trial_type": "single-stim", "trial_index": 83, "time_elapsed": 384276, "internal_node_id": "0.0-60.0-5.0"}}, {"uniqueid": "MTK1246:3UXUOQ9OKF4EZSJEMZH60G65J5BA7M", "current_trial": 84, "dateTime": 1513468311425, "trialdata": {"rt": -1, "stimulus": "<p id=\"stim\">4</p>", "key_press": -1, "trial_type": "single-stim", "trial_index": 84, "time_elapsed": 385278, "internal_node_id": "0.0-60.0-6.0"}}, {"uniqueid": "MTK1246:3UXUOQ9OKF4EZSJEMZH60G65J5BA7M", "current_trial": 85, "dateTime": 1513468312427, "trialdata": {"rt": -1, "stimulus": "<p id=\"stim\">3</p>", "key_press": -1, "trial_type": "single-stim", "trial_index": 85, "time_elapsed": 386280, "internal_node_id": "0.0-60.0-7.0"}}, {"uniqueid": "MTK1246:3UXUOQ9OKF4EZSJEMZH60G65J5BA7M", "current_trial": 86, "dateTime": 1513468313429, "trialdata": {"rt": -1, "stimulus": "<p id=\"stim\">2</p>", "key_press": -1, "trial_type": "single-stim", "trial_index": 86, "time_elapsed": 387282, "internal_node_id": "0.0-60.0-8.0"}}, {"uniqueid": "MTK1246:3UXUOQ9OKF4EZSJEMZH60G65J5BA7M", "current_trial": 87, "dateTime": 1513468314431, "trialdata": {"rt": -1, "stimulus": "<p id=\"stim\">1</p>", "key_press": -1, "trial_type": "single-stim", "trial_index": 87, "time_elapsed": 388284, "internal_node_id": "0.0-60.0-9.0"}}, {"uniqueid": "MTK1246:3UXUOQ9OKF4EZSJEMZH60G65J5BA7M", "current_trial": 88, "dateTime": 1513468315933, "trialdata": {"rt": -1, "stimulus": "<p id=\"stim\">+</p>", "key_press": -1, "type": "FIXATION", "trial_type": "single-stim", "trial_index": 88, "time_elapsed": 389786, "internal_node_id": "0.0-61.0-0.0"}}, {"uniqueid": "MTK1246:3UXUOQ9OKF4EZSJEMZH60G65J5BA7M", "current_trial": 89, "dateTime": 1513468318555, "trialdata": {"rt": -1000, "stimulus": "/static/audio/wordpool/PICTURE.wav", "key_press": -1, "type": "PRES_AUD", "word": "picture", "wordID": 1060, "conditions": [24, 1600, "a", 12000], "trial": 2, "serialpos": 0, "trial_type": "single-audio", "trial_index": 89, "time_elapsed": 392408, "internal_node_id": "0.0-62.0"}}, {"uniqueid": "MTK1246:3UXUOQ9OKF4EZSJEMZH60G65J5BA7M", "current_trial": 90, "dateTime": 1513468321162, "trialdata": {"rt": -1000, "stimulus": "/static/audio/wordpool/MUSTARD.wav", "key_press": -1, "type": "PRES_AUD", "word": "mustard", "wordID": 934, "conditions": [24, 1600, "a", 12000], "trial": 2, "serialpos": 1, "trial_type": "single-audio", "trial_index": 90, "time_elapsed": 395015, "internal_node_id": "0.0-63.0"}}, {"uniqueid": "MTK1246:3UXUOQ9OKF4EZSJEMZH60G65J5BA7M", "current_trial": 91, "dateTime": 1513468323741, "trialdata": {"rt": -1000, "stimulus": "/static/audio/wordpool/SLOPE.wav", "key_press": -1, "type": "PRES_AUD", "word": "slope", "wordID": 1327, "conditions": [24, 1600, "a", 12000], "trial": 2, "serialpos": 2, "trial_type": "single-audio", "trial_index": 91, "time_elapsed": 397594, "internal_node_id": "0.0-64.0"}}, {"uniqueid": "MTK1246:3UXUOQ9OKF4EZSJEMZH60G65J5BA7M", "current_trial": 92, "dateTime": 1513468326394, "trialdata": {"rt": -1000, "stimulus": "/static/audio/wordpool/PECAN.wav", "key_press": -1, "type": "PRES_AUD", "word": "pecan", "wordID": 1035, "conditions": [24, 1600, "a", 12000], "trial": 2, "serialpos": 3, "trial_type": "single-audio", "trial_index": 92, "time_elapsed": 400247, "internal_node_id": "0.0-65.0"}}, {"uniqueid": "MTK1246:3UXUOQ9OKF4EZSJEMZH60G65J5BA7M", "current_trial": 93, "dateTime": 1513468329021, "trialdata": {"rt": -1000, "stimulus": "/static/audio/wordpool/SUBWAY.wav", "key_press": -1, "type": "PRES_AUD", "word": "subway", "wordID": 1399, "conditions": [24, 1600, "a", 12000], "trial": 2, "serialpos": 4, "trial_type": "single-audio", "trial_index": 93, "time_elapsed": 402874, "internal_node_id": "0.0-66.0"}}, {"uniqueid": "MTK1246:3UXUOQ9OKF4EZSJEMZH60G65J5BA7M", "current_trial": 94, "dateTime": 1513468331634, "trialdata": {"rt": -1000, "stimulus": "/static/audio/wordpool/DORM.wav", "key_press": -1, "type": "PRES_AUD", "word": "dorm", "wordID": 487, "conditions": [24, 1600, "a", 12000], "trial": 2, "serialpos": 5, "trial_type": "single-audio", "trial_index": 94, "time_elapsed": 405487, "internal_node_id": "0.0-67.0"}}, {"uniqueid": "MTK1246:3UXUOQ9OKF4EZSJEMZH60G65J5BA7M", "current_trial": 95, "dateTime": 1513468334145, "trialdata": {"rt": -1000, "stimulus": "/static/audio/wordpool/BUCKET.wav", "key_press": -1, "type": "PRES_AUD", "word": "bucket", "wordID": 183, "conditions": [24, 1600, "a", 12000], "trial": 2, "serialpos": 6, "trial_type": "single-audio", "trial_index": 95, "time_elapsed": 407998, "internal_node_id": "0.0-68.0"}}, {"uniqueid": "MTK1246:3UXUOQ9OKF4EZSJEMZH60G65J5BA7M", "current_trial": 96, "dateTime": 1513468336944, "trialdata": {"rt": -1000, "stimulus": "/static/audio/wordpool/COTTAGE.wav", "key_press": -1, "type": "PRES_AUD", "word": "cottage", "wordID": 383, "conditions": [24, 1600, "a", 12000], "trial": 2, "serialpos": 7, "trial_type": "single-audio", "trial_index": 96, "time_elapsed": 410797, "internal_node_id": "0.0-69.0"}}, {"uniqueid": "MTK1246:3UXUOQ9OKF4EZSJEMZH60G65J5BA7M", "current_trial": 97, "dateTime": 1513468339463, "trialdata": {"rt": -1000, "stimulus": "/static/audio/wordpool/DANCER.wav", "key_press": -1, "type": "PRES_AUD", "word": "dancer", "wordID": 436, "conditions": [24, 1600, "a", 12000], "trial": 2, "serialpos": 8, "trial_type": "single-audio", "trial_index": 97, "time_elapsed": 413316, "internal_node_id": "0.0-70.0"}}, {"uniqueid": "MTK1246:3UXUOQ9OKF4EZSJEMZH60G65J5BA7M", "current_trial": 98, "dateTime": 1513468342178, "trialdata": {"rt": -1000, "stimulus": "/static/audio/wordpool/GYMNAST.wav", "key_press": -1, "type": "PRES_AUD", "word": "gymnast", "wordID": 674, "conditions": [24, 1600, "a", 12000], "trial": 2, "serialpos": 9, "trial_type": "single-audio", "trial_index": 98, "time_elapsed": 416031, "internal_node_id": "0.0-71.0"}}, {"uniqueid": "MTK1246:3UXUOQ9OKF4EZSJEMZH60G65J5BA7M", "current_trial": 99, "dateTime": 1513468344758, "trialdata": {"rt": -1000, "stimulus": "/static/audio/wordpool/PORTRAIT.wav", "key_press": -1, "type": "PRES_AUD", "word": "portrait", "wordID": 1110, "conditions": [24, 1600, "a", 12000], "trial": 2, "serialpos": 10, "trial_type": "single-audio", "trial_index": 99, "time_elapsed": 418611, "internal_node_id": "0.0-72.0"}}, {"uniqueid": "MTK1246:3UXUOQ9OKF4EZSJEMZH60G65J5BA7M", "current_trial": 100, "dateTime": 1513468347364, "trialdata": {"rt": -1000, "stimulus": "/static/audio/wordpool/DINER.wav", "key_press": -1, "type": "PRES_AUD", "word": "diner", "wordID": 466, "conditions": [24, 1600, "a", 12000], "trial": 2, "serialpos": 11, "trial_type": "single-audio", "trial_index": 100, "time_elapsed": 421217, "internal_node_id": "0.0-73.0"}}, {"uniqueid": "MTK1246:3UXUOQ9OKF4EZSJEMZH60G65J5BA7M", "current_trial": 101, "dateTime": 1513468349961, "trialdata": {"rt": -1000, "stimulus": "/static/audio/wordpool/GOBLIN.wav", "key_press": -1, "type": "PRES_AUD", "word": "goblin", "wordID": 644, "conditions": [24, 1600, "a", 12000], "trial": 2, "serialpos": 12, "trial_type": "single-audio", "trial_index": 101, "time_elapsed": 423814, "internal_node_id": "0.0-74.0"}}, {"uniqueid": "MTK1246:3UXUOQ9OKF4EZSJEMZH60G65J5BA7M", "current_trial": 102, "dateTime": 1513468352650, "trialdata": {"rt": -1000, "stimulus": "/static/audio/wordpool/BUNNY.wav", "key_press": -1, "type": "PRES_AUD", "word": "bunny", "wordID": 197, "conditions": [24, 1600, "a", 12000], "trial": 2, "serialpos": 13, "trial_type": "single-audio", "trial_index": 102, "time_elapsed": 426503, "internal_node_id": "0.0-75.0"}}, {"uniqueid": "MTK1246:3UXUOQ9OKF4EZSJEMZH60G65J5BA7M", "current_trial": 103, "dateTime": 1513468355240, "trialdata": {"rt": -1000, "stimulus": "/static/audio/wordpool/POPCORN.wav", "key_press": -1, "type": "PRES_AUD", "word": "popcorn", "wordID": 1103, "conditions": [24, 1600, "a", 12000], "trial": 2, "serialpos": 14, "trial_type": "single-audio", "trial_index": 103, "time_elapsed": 429093, "internal_node_id": "0.0-76.0"}}, {"uniqueid": "MTK1246:3UXUOQ9OKF4EZSJEMZH60G65J5BA7M", "current_trial": 104, "dateTime": 1513468357865, "trialdata": {"rt": -1000, "stimulus": "/static/audio/wordpool/BISON.wav", "key_press": -1, "type": "PRES_AUD", "word": "bison", "wordID": 130, "conditions": [24, 1600, "a", 12000], "trial": 2, "serialpos": 15, "trial_type": "single-audio", "trial_index": 104, "time_elapsed": 431717, "internal_node_id": "0.0-77.0"}}, {"uniqueid": "MTK1246:3UXUOQ9OKF4EZSJEMZH60G65J5BA7M", "current_trial": 105, "dateTime": 1513468360562, "trialdata": {"rt": -1000, "stimulus": "/static/audio/wordpool/CATTLE.wav", "key_press": -1, "type": "PRES_AUD", "word": "cattle", "wordID": 260, "conditions": [24, 1600, "a", 12000], "trial": 2, "serialpos": 16, "trial_type": "single-audio", "trial_index": 105, "time_elapsed": 434415, "internal_node_id": "0.0-78.0"}}, {"uniqueid": "MTK1246:3UXUOQ9OKF4EZSJEMZH60G65J5BA7M", "current_trial": 106, "dateTime": 1513468363194, "trialdata": {"rt": -1000, "stimulus": "/static/audio/wordpool/TRUCK.wav", "key_press": -1, "type": "PRES_AUD", "word": "truck", "wordID": 1511, "conditions": [24, 1600, "a", 12000], "trial": 2, "serialpos": 17, "trial_type": "single-audio", "trial_index": 106, "time_elapsed": 437047, "internal_node_id": "0.0-79.0"}}, {"uniqueid": "MTK1246:3UXUOQ9OKF4EZSJEMZH60G65J5BA7M", "current_trial": 107, "dateTime": 1513468365864, "trialdata": {"rt": -1000, "stimulus": "/static/audio/wordpool/INFANT.wav", "key_press": -1, "type": "PRES_AUD", "word": "infant", "wordID": 736, "conditions": [24, 1600, "a", 12000], "trial": 2, "serialpos": 18, "trial_type": "single-audio", "trial_index": 107, "time_elapsed": 439717, "internal_node_id": "0.0-80.0"}}, {"uniqueid": "MTK1246:3UXUOQ9OKF4EZSJEMZH60G65J5BA7M", "current_trial": 108, "dateTime": 1513468368550, "trialdata": {"rt": -1000, "stimulus": "/static/audio/wordpool/ONION.wav", "key_press": -1, "type": "PRES_AUD", "word": "onion", "wordID": 976, "conditions": [24, 1600, "a", 12000], "trial": 2, "serialpos": 19, "trial_type": "single-audio", "trial_index": 108, "time_elapsed": 442403, "internal_node_id": "0.0-81.0"}}, {"uniqueid": "MTK1246:3UXUOQ9OKF4EZSJEMZH60G65J5BA7M", "current_trial": 109, "dateTime": 1513468371272, "trialdata": {"rt": -1000, "stimulus": "/static/audio/wordpool/PUPPY.wav", "key_press": -1, "type": "PRES_AUD", "word": "puppy", "wordID": 1143, "conditions": [24, 1600, "a", 12000], "trial": 2, "serialpos": 20, "trial_type": "single-audio", "trial_index": 109, "time_elapsed": 445125, "internal_node_id": "0.0-82.0"}}, {"uniqueid": "MTK1246:3UXUOQ9OKF4EZSJEMZH60G65J5BA7M", "current_trial": 110, "dateTime": 1513468374010, "trialdata": {"rt": -1000, "stimulus": "/static/audio/wordpool/FIREPLACE.wav", "key_press": -1, "type": "PRES_AUD", "word": "fireplace", "wordID": 569, "conditions": [24, 1600, "a", 12000], "trial": 2, "serialpos": 21, "trial_type": "single-audio", "trial_index": 110, "time_elapsed": 447863, "internal_node_id": "0.0-83.0"}}, {"uniqueid": "MTK1246:3UXUOQ9OKF4EZSJEMZH60G65J5BA7M", "current_trial": 111, "dateTime": 1513468376653, "trialdata": {"rt": -1000, "stimulus": "/static/audio/wordpool/GIRL.wav", "key_press": -1, "type": "PRES_AUD", "word": "girl", "wordID": 636, "conditions": [24, 1600, "a", 12000], "trial": 2, "serialpos": 22, "trial_type": "single-audio", "trial_index": 111, "time_elapsed": 450506, "internal_node_id": "0.0-84.0"}}, {"uniqueid": "MTK1246:3UXUOQ9OKF4EZSJEMZH60G65J5BA7M", "current_trial": 112, "dateTime": 1513468379288, "trialdata": {"rt": -1000, "stimulus": "/static/audio/wordpool/DRAGON.wav", "key_press": -1, "type": "PRES_AUD", "word": "dragon", "wordID": 491, "conditions": [24, 1600, "a", 12000], "trial": 2, "serialpos": 23, "trial_type": "single-audio", "trial_index": 112, "time_elapsed": 453141, "internal_node_id": "0.0-85.0"}}, {"uniqueid": "MTK1246:3UXUOQ9OKF4EZSJEMZH60G65J5BA7M", "current_trial": 113, "dateTime": 1513468380553, "trialdata": {"rt": -1, "stimulus": "", "key_press": -1, "type": "PRE_RECALL_DELAY", "trial_type": "single-stim", "trial_index": 113, "time_elapsed": 454406, "internal_node_id": "0.0-86.0-0.0"}}, {"uniqueid": "MTK1246:3UXUOQ9OKF4EZSJEMZH60G65J5BA7M", "current_trial": 114, "dateTime": 1513468381064, "trialdata": {"rt": -1000, "stimulus": "/static/audio/400Hz.wav", "key_press": -1, "type": "PRE_RECALL_ALERT", "trial_type": "single-audio", "trial_index": 114, "time_elapsed": 454917, "internal_node_id": "0.0-87.0"}}, {"uniqueid": "MTK1246:3UXUOQ9OKF4EZSJEMZH60G65J5BA7M", "current_trial": 115, "dateTime": 1513468441074, "trialdata": {"rt": [2460, 4667, 7451, 9627, 11515, 12651, 15996, 35245], "recwords": ["picture", "oninon", "mustard", "firplace", "fireplace", "girl", "mustard", "onion"], "type": "FREE_RECALL", "conditions": [24, 1600, "a", 12000], "trial": 2, "trial_type": "free-recall", "trial_index": 115, "time_elapsed": 514921, "internal_node_id": "0.0-88.0-0.0"}}, {"uniqueid": "MTK1246:3UXUOQ9OKF4EZSJEMZH60G65J5BA7M", "current_trial": 116, "dateTime": 1513468445544, "trialdata": {"rt": 2468, "key_press": 13, "type": "INSTRUCTIONS", "trial_type": "text", "trial_index": 116, "time_elapsed": 519397, "internal_node_id": "0.0-89.0"}}, {"uniqueid": "MTK1246:3UXUOQ9OKF4EZSJEMZH60G65J5BA7M", "current_trial": 117, "dateTime": 1513468471550, "trialdata": {"rt": [2460, 6476, 8365, 9981, 12476, 14508, 17357, 21277, 23455], "responses": ["11", "22", "14", "10", "15", "15", "17", "14", "14"], "num1": [2, 5, 2, 6, 6, 5, 5, 5, 6, 8], "num2": [7, 8, 5, 3, 8, 4, 3, 1, 5, 4], "num3": [2, 9, 7, 1, 1, 6, 9, 8, 3, 1], "type": "DISTRACTOR", "conditions": [24, 1600, "a", 24000], "trial": 3, "trial_type": "math-distractor", "trial_index": 117, "time_elapsed": 545403, "internal_node_id": "0.0-90.0"}}, {"uniqueid": "MTK1246:3UXUOQ9OKF4EZSJEMZH60G65J5BA7M", "current_trial": 118, "dateTime": 1513468474553, "trialdata": {"rt": -1, "stimulus": "<p id=\"stim\">10</p>", "key_press": -1, "trial_type": "single-stim", "trial_index": 118, "time_elapsed": 548406, "internal_node_id": "0.0-91.0-0.0"}}, {"uniqueid": "MTK1246:3UXUOQ9OKF4EZSJEMZH60G65J5BA7M", "current_trial": 119, "dateTime": 1513468475554, "trialdata": {"rt": -1, "stimulus": "<p id=\"stim\">9</p>", "key_press": -1, "trial_type": "single-stim", "trial_index": 119, "time_elapsed": 549407, "internal_node_id": "0.0-91.0-1.0"}}, {"uniqueid": "MTK1246:3UXUOQ9OKF4EZSJEMZH60G65J5BA7M", "current_trial": 120, "dateTime": 1513468476557, "trialdata": {"rt": -1, "stimulus": "<p id=\"stim\">8</p>", "key_press": -1, "trial_type": "single-stim", "trial_index": 120, "time_elapsed": 550409, "internal_node_id": "0.0-91.0-2.0"}}, {"uniqueid": "MTK1246:3UXUOQ9OKF4EZSJEMZH60G65J5BA7M", "current_trial": 121, "dateTime": 1513468477559, "trialdata": {"rt": -1, "stimulus": "<p id=\"stim\">7</p>", "key_press": -1, "trial_type": "single-stim", "trial_index": 121, "time_elapsed": 551411, "internal_node_id": "0.0-91.0-3.0"}}, {"uniqueid": "MTK1246:3UXUOQ9OKF4EZSJEMZH60G65J5BA7M", "current_trial": 122, "dateTime": 1513468478561, "trialdata": {"rt": -1, "stimulus": "<p id=\"stim\">6</p>", "key_press": -1, "trial_type": "single-stim", "trial_index": 122, "time_elapsed": 552414, "internal_node_id": "0.0-91.0-4.0"}}, {"uniqueid": "MTK1246:3UXUOQ9OKF4EZSJEMZH60G65J5BA7M", "current_trial": 123, "dateTime": 1513468479564, "trialdata": {"rt": -1, "stimulus": "<p id=\"stim\">5</p>", "key_press": -1, "trial_type": "single-stim", "trial_index": 123, "time_elapsed": 553416, "internal_node_id": "0.0-91.0-5.0"}}, {"uniqueid": "MTK1246:3UXUOQ9OKF4EZSJEMZH60G65J5BA7M", "current_trial": 124, "dateTime": 1513468480566, "trialdata": {"rt": -1, "stimulus": "<p id=\"stim\">4</p>", "key_press": -1, "trial_type": "single-stim", "trial_index": 124, "time_elapsed": 554419, "internal_node_id": "0.0-91.0-6.0"}}, {"uniqueid": "MTK1246:3UXUOQ9OKF4EZSJEMZH60G65J5BA7M", "current_trial": 125, "dateTime": 1513468481570, "trialdata": {"rt": -1, "stimulus": "<p id=\"stim\">3</p>", "key_press": -1, "trial_type": "single-stim", "trial_index": 125, "time_elapsed": 555422, "internal_node_id": "0.0-91.0-7.0"}}, {"uniqueid": "MTK1246:3UXUOQ9OKF4EZSJEMZH60G65J5BA7M", "current_trial": 126, "dateTime": 1513468482571, "trialdata": {"rt": -1, "stimulus": "<p id=\"stim\">2</p>", "key_press": -1, "trial_type": "single-stim", "trial_index": 126, "time_elapsed": 556424, "internal_node_id": "0.0-91.0-8.0"}}, {"uniqueid": "MTK1246:3UXUOQ9OKF4EZSJEMZH60G65J5BA7M", "current_trial": 127, "dateTime": 1513468483574, "trialdata": {"rt": -1, "stimulus": "<p id=\"stim\">1</p>", "key_press": -1, "trial_type": "single-stim", "trial_index": 127, "time_elapsed": 557427, "internal_node_id": "0.0-91.0-9.0"}}, {"uniqueid": "MTK1246:3UXUOQ9OKF4EZSJEMZH60G65J5BA7M", "current_trial": 128, "dateTime": 1513468485076, "trialdata": {"rt": -1, "stimulus": "<p id=\"stim\">+</p>", "key_press": -1, "type": "FIXATION", "trial_type": "single-stim", "trial_index": 128, "time_elapsed": 558929, "internal_node_id": "0.0-92.0-0.0"}}, {"uniqueid": "MTK1246:3UXUOQ9OKF4EZSJEMZH60G65J5BA7M", "current_trial": 129, "dateTime": 1513468487653, "trialdata": {"rt": -1000, "stimulus": "/static/audio/wordpool/TORTOISE.wav", "key_press": -1, "type": "PRES_AUD", "word": "tortoise", "wordID": 1485, "conditions": [24, 1600, "a", 24000], "trial": 3, "serialpos": 0, "trial_type": "single-audio", "trial_index": 129, "time_elapsed": 561506, "internal_node_id": "0.0-93.0"}}, {"uniqueid": "MTK1246:3UXUOQ9OKF4EZSJEMZH60G65J5BA7M", "current_trial": 130, "dateTime": 1513468490261, "trialdata": {"rt": -1000, "stimulus": "/static/audio/wordpool/OFFICE.wav", "key_press": -1, "type": "PRES_AUD", "word": "office", "wordID": 971, "conditions": [24, 1600, "a", 24000], "trial": 3, "serialpos": 1, "trial_type": "single-audio", "trial_index": 130, "time_elapsed": 564114, "internal_node_id": "0.0-94.0"}}, {"uniqueid": "MTK1246:3UXUOQ9OKF4EZSJEMZH60G65J5BA7M", "current_trial": 131, "dateTime": 1513468492910, "trialdata": {"rt": -1000, "stimulus": "/static/audio/wordpool/CHURCH.wav", "key_press": -1, "type": "PRES_AUD", "word": "church", "wordID": 306, "conditions": [24, 1600, "a", 24000], "trial": 3, "serialpos": 2, "trial_type": "single-audio", "trial_index": 131, "time_elapsed": 566763, "internal_node_id": "0.0-95.0"}}, {"uniqueid": "MTK1246:3UXUOQ9OKF4EZSJEMZH60G65J5BA7M", "current_trial": 132, "dateTime": 1513468495692, "trialdata": {"rt": -1000, "stimulus": "/static/audio/wordpool/LAGOON.wav", "key_press": -1, "type": "PRES_AUD", "word": "lagoon", "wordID": 794, "conditions": [24, 1600, "a", 24000], "trial": 3, "serialpos": 3, "trial_type": "single-audio", "trial_index": 132, "time_elapsed": 569545, "internal_node_id": "0.0-96.0"}}, {"uniqueid": "MTK1246:3UXUOQ9OKF4EZSJEMZH60G65J5BA7M", "current_trial": 133, "dateTime": 1513468498377, "trialdata": {"rt": -1000, "stimulus": "/static/audio/wordpool/MAILMAN.wav", "key_press": -1, "type": "PRES_AUD", "word": "mailman", "wordID": 857, "conditions": [24, 1600, "a", 24000], "trial": 3, "serialpos": 4, "trial_type": "single-audio", "trial_index": 133, "time_elapsed": 572230, "internal_node_id": "0.0-97.0"}}, {"uniqueid": "MTK1246:3UXUOQ9OKF4EZSJEMZH60G65J5BA7M", "current_trial": 134, "dateTime": 1513468500848, "trialdata": {"rt": -1000, "stimulus": "/static/audio/wordpool/KNIFE.wav", "key_press": -1, "type": "PRES_AUD", "word": "knife", "wordID": 784, "conditions": [24, 1600, "a", 24000], "trial": 3, "serialpos": 5, "trial_type": "single-audio", "trial_index": 134, "time_elapsed": 574701, "internal_node_id": "0.0-98.0"}}, {"uniqueid": "MTK1246:3UXUOQ9OKF4EZSJEMZH60G65J5BA7M", "current_trial": 135, "dateTime": 1513468503345, "trialdata": {"rt": -1000, "stimulus": "/static/audio/wordpool/MATTRESS.wav", "key_press": -1, "type": "PRES_AUD", "word": "mattress", "wordID": 878, "conditions": [24, 1600, "a", 24000], "trial": 3, "serialpos": 6, "trial_type": "single-audio", "trial_index": 135, "time_elapsed": 577198, "internal_node_id": "0.0-99.0"}}, {"uniqueid": "MTK1246:3UXUOQ9OKF4EZSJEMZH60G65J5BA7M", "current_trial": 136, "dateTime": 1513468506080, "trialdata": {"rt": -1000, "stimulus": "/static/audio/wordpool/HELMET.wav", "key_press": -1, "type": "PRES_AUD", "word": "helmet", "wordID": 701, "conditions": [24, 1600, "a", 24000], "trial": 3, "serialpos": 7, "trial_type": "single-audio", "trial_index": 136, "time_elapsed": 579933, "internal_node_id": "0.0-100.0"}}, {"uniqueid": "MTK1246:3UXUOQ9OKF4EZSJEMZH60G65J5BA7M", "current_trial": 137, "dateTime": 1513468508537, "trialdata": {"rt": -1000, "stimulus": "/static/audio/wordpool/ANKLE.wav", "key_press": -1, "type": "PRES_AUD", "word": "ankle", "wordID": 23, "conditions": [24, 1600, "a", 24000], "trial": 3, "serialpos": 8, "trial_type": "single-audio", "trial_index": 137, "time_elapsed": 582389, "internal_node_id": "0.0-101.0"}}, {"uniqueid": "MTK1246:3UXUOQ9OKF4EZSJEMZH60G65J5BA7M", "current_trial": 138, "dateTime": 1513468510993, "trialdata": {"rt": -1000, "stimulus": "/static/audio/wordpool/ELBOW.wav", "key_press": -1, "type": "PRES_AUD", "word": "elbow", "wordID": 519, "conditions": [24, 1600, "a", 24000], "trial": 3, "serialpos": 9, "trial_type": "single-audio", "trial_index": 138, "time_elapsed": 584843, "internal_node_id": "0.0-102.0"}}, {"uniqueid": "MTK1246:3UXUOQ9OKF4EZSJEMZH60G65J5BA7M", "current_trial": 139, "dateTime": 1513468513571, "trialdata": {"rt": -1000, "stimulus": "/static/audio/wordpool/CHAPEL.wav", "key_press": -1, "type": "PRES_AUD", "word": "chapel", "wordID": 279, "conditions": [24, 1600, "a", 24000], "trial": 3, "serialpos": 10, "trial_type": "single-audio", "trial_index": 139, "time_elapsed": 587424, "internal_node_id": "0.0-103.0"}}, {"uniqueid": "MTK1246:3UXUOQ9OKF4EZSJEMZH60G65J5BA7M", "current_trial": 140, "dateTime": 1513468516092, "trialdata": {"rt": -1000, "stimulus": "/static/audio/wordpool/WIFE.wav", "key_press": -1, "type": "PRES_AUD", "word": "wife", "wordID": 1608, "conditions": [24, 1600, "a", 24000], "trial": 3, "serialpos": 11, "trial_type": "single-audio", "trial_index": 140, "time_elapsed": 589945, "internal_node_id": "0.0-104.0"}}, {"uniqueid": "MTK1246:3UXUOQ9OKF4EZSJEMZH60G65J5BA7M", "current_trial": 141, "dateTime": 1513468518880, "trialdata": {"rt": -1000, "stimulus": "/static/audio/wordpool/THREAD.wav", "key_press": -1, "type": "PRES_AUD", "word": "thread", "wordID": 1459, "conditions": [24, 1600, "a", 24000], "trial": 3, "serialpos": 12, "trial_type": "single-audio", "trial_index": 141, "time_elapsed": 592733, "internal_node_id": "0.0-105.0"}}, {"uniqueid": "MTK1246:3UXUOQ9OKF4EZSJEMZH60G65J5BA7M", "current_trial": 142, "dateTime": 1513468521617, "trialdata": {"rt": -1000, "stimulus": "/static/audio/wordpool/SHERIFF.wav", "key_press": -1, "type": "PRES_AUD", "word": "sheriff", "wordID": 1283, "conditions": [24, 1600, "a", 24000], "trial": 3, "serialpos": 13, "trial_type": "single-audio", "trial_index": 142, "time_elapsed": 595469, "internal_node_id": "0.0-106.0"}}, {"uniqueid": "MTK1246:3UXUOQ9OKF4EZSJEMZH60G65J5BA7M", "current_trial": 143, "dateTime": 1513468524037, "trialdata": {"rt": -1000, "stimulus": "/static/audio/wordpool/CHILD.wav", "key_press": -1, "type": "PRES_AUD", "word": "child", "wordID": 298, "conditions": [24, 1600, "a", 24000], "trial": 3, "serialpos": 14, "trial_type": "single-audio", "trial_index": 143, "time_elapsed": 597890, "internal_node_id": "0.0-107.0"}}, {"uniqueid": "MTK1246:3UXUOQ9OKF4EZSJEMZH60G65J5BA7M", "current_trial": 144, "dateTime": 1513468526835, "trialdata": {"rt": -1000, "stimulus": "/static/audio/wordpool/LIZARD.wav", "key_press": -1, "type": "PRES_AUD", "word": "lizard", "wordID": 833, "conditions": [24, 1600, "a", 24000], "trial": 3, "serialpos": 15, "trial_type": "single-audio", "trial_index": 144, "time_elapsed": 600688, "internal_node_id": "0.0-108.0"}}, {"uniqueid": "MTK1246:3UXUOQ9OKF4EZSJEMZH60G65J5BA7M", "current_trial": 145, "dateTime": 1513468529608, "trialdata": {"rt": -1000, "stimulus": "/static/audio/wordpool/PLAID.wav", "key_press": -1, "type": "PRES_AUD", "word": "plaid", "wordID": 1079, "conditions": [24, 1600, "a", 24000], "trial": 3, "serialpos": 16, "trial_type": "single-audio", "trial_index": 145, "time_elapsed": 603461, "internal_node_id": "0.0-109.0"}}, {"uniqueid": "MTK1246:3UXUOQ9OKF4EZSJEMZH60G65J5BA7M", "current_trial": 146, "dateTime": 1513468532333, "trialdata": {"rt": -1000, "stimulus": "/static/audio/wordpool/RACKET.wav", "key_press": -1, "type": "PRES_AUD", "word": "racket", "wordID": 1154, "conditions": [24, 1600, "a", 24000], "trial": 3, "serialpos": 17, "trial_type": "single-audio", "trial_index": 146, "time_elapsed": 606186, "internal_node_id": "0.0-110.0"}}, {"uniqueid": "MTK1246:3UXUOQ9OKF4EZSJEMZH60G65J5BA7M", "current_trial": 147, "dateTime": 1513468535038, "trialdata": {"rt": -1000, "stimulus": "/static/audio/wordpool/COUNTY.wav", "key_press": -1, "type": "PRES_AUD", "word": "county", "wordID": 388, "conditions": [24, 1600, "a", 24000], "trial": 3, "serialpos": 18, "trial_type": "single-audio", "trial_index": 147, "time_elapsed": 608891, "internal_node_id": "0.0-111.0"}}, {"uniqueid": "MTK1246:3UXUOQ9OKF4EZSJEMZH60G65J5BA7M", "current_trial": 148, "dateTime": 1513468537473, "trialdata": {"rt": -1000, "stimulus": "/static/audio/wordpool/WITNESS.wav", "key_press": -1, "type": "PRES_AUD", "word": "witness", "wordID": 1617, "conditions": [24, 1600, "a", 24000], "trial": 3, "serialpos": 19, "trial_type": "single-audio", "trial_index": 148, "time_elapsed": 611326, "internal_node_id": "0.0-112.0"}}, {"uniqueid": "MTK1246:3UXUOQ9OKF4EZSJEMZH60G65J5BA7M", "current_trial": 149, "dateTime": 1513468539992, "trialdata": {"rt": -1000, "stimulus": "/static/audio/wordpool/REPORT.wav", "key_press": -1, "type": "PRES_AUD", "word": "report", "wordID": 1183, "conditions": [24, 1600, "a", 24000], "trial": 3, "serialpos": 20, "trial_type": "single-audio", "trial_index": 149, "time_elapsed": 613845, "internal_node_id": "0.0-113.0"}}, {"uniqueid": "MTK1246:3UXUOQ9OKF4EZSJEMZH60G65J5BA7M", "current_trial": 150, "dateTime": 1513468542619, "trialdata": {"rt": -1000, "stimulus": "/static/audio/wordpool/PIMPLE.wav", "key_press": -1, "type": "PRES_AUD", "word": "pimple", "wordID": 1070, "conditions": [24, 1600, "a", 24000], "trial": 3, "serialpos": 21, "trial_type": "single-audio", "trial_index": 150, "time_elapsed": 616472, "internal_node_id": "0.0-114.0"}}, {"uniqueid": "MTK1246:3UXUOQ9OKF4EZSJEMZH60G65J5BA7M", "current_trial": 151, "dateTime": 1513468545258, "trialdata": {"rt": -1000, "stimulus": "/static/audio/wordpool/FRECKLE.wav", "key_press": -1, "type": "PRES_AUD", "word": "freckle", "wordID": 601, "conditions": [24, 1600, "a", 24000], "trial": 3, "serialpos": 22, "trial_type": "single-audio", "trial_index": 151, "time_elapsed": 619110, "internal_node_id": "0.0-115.0"}}, {"uniqueid": "MTK1246:3UXUOQ9OKF4EZSJEMZH60G65J5BA7M", "current_trial": 152, "dateTime": 1513468548003, "trialdata": {"rt": -1000, "stimulus": "/static/audio/wordpool/BANQUET.wav", "key_press": -1, "type": "PRES_AUD", "word": "banquet", "wordID": 85, "conditions": [24, 1600, "a", 24000], "trial": 3, "serialpos": 23, "trial_type": "single-audio", "trial_index": 152, "time_elapsed": 621856, "internal_node_id": "0.0-116.0"}}, {"uniqueid": "MTK1246:3UXUOQ9OKF4EZSJEMZH60G65J5BA7M", "current_trial": 153, "dateTime": 1513468549257, "trialdata": {"rt": -1, "stimulus": "", "key_press": -1, "type": "PRE_RECALL_DELAY", "trial_type": "single-stim", "trial_index": 153, "time_elapsed": 623109, "internal_node_id": "0.0-117.0-0.0"}}, {"uniqueid": "MTK1246:3UXUOQ9OKF4EZSJEMZH60G65J5BA7M", "current_trial": 154, "dateTime": 1513468549759, "trialdata": {"rt": -1000, "stimulus": "/static/audio/400Hz.wav", "key_press": -1, "type": "PRE_RECALL_ALERT", "trial_type": "single-audio", "trial_index": 154, "time_elapsed": 623612, "internal_node_id": "0.0-118.0"}}, {"uniqueid": "MTK1246:3UXUOQ9OKF4EZSJEMZH60G65J5BA7M", "current_trial": 155, "dateTime": 1513468609769, "trialdata": {"rt": [3420, 5034, 7402, 10748, 13292, 17978], "recwords": ["banquet", "racket", "fountain", "waterfall", "waiting", "hotdog"], "type": "FREE_RECALL", "conditions": [24, 1600, "a", 24000], "trial": 3, "trial_type": "free-recall", "trial_index": 155, "time_elapsed": 683617, "internal_node_id": "0.0-119.0-0.0"}}, {"uniqueid": "MTK1246:3UXUOQ9OKF4EZSJEMZH60G65J5BA7M", "current_trial": 156, "dateTime": 1513468613376, "trialdata": {"rt": 1605, "key_press": 13, "type": "INSTRUCTIONS", "trial_type": "text", "trial_index": 156, "time_elapsed": 687229, "internal_node_id": "0.0-120.0"}}, {"uniqueid": "MTK1246:3UXUOQ9OKF4EZSJEMZH60G65J5BA7M", "current_trial": 157, "dateTime": 1513468627383, "trialdata": {"rt": [1867, 3913, 6505, 8314], "responses": ["6", "22", "16", "15"], "num1": [1, 4, 4, 4, 4], "num2": [3, 9, 5, 6, 3], "num3": [2, 9, 7, 5, 9], "type": "DISTRACTOR", "conditions": [12, 1600, "v", 12000], "trial": 4, "trial_type": "math-distractor", "trial_index": 157, "time_elapsed": 701236, "internal_node_id": "0.0-121.0"}}, {"uniqueid": "MTK1246:3UXUOQ9OKF4EZSJEMZH60G65J5BA7M", "current_trial": 158, "dateTime": 1513468630386, "trialdata": {"rt": -1, "stimulus": "<p id=\"stim\">10</p>", "key_press": -1, "trial_type": "single-stim", "trial_index": 158, "time_elapsed": 704239, "internal_node_id": "0.0-122.0-0.0"}}, {"uniqueid": "MTK1246:3UXUOQ9OKF4EZSJEMZH60G65J5BA7M", "current_trial": 159, "dateTime": 1513468631388, "trialdata": {"rt": -1, "stimulus": "<p id=\"stim\">9</p>", "key_press": -1, "trial_type": "single-stim", "trial_index": 159, "time_elapsed": 705241, "internal_node_id": "0.0-122.0-1.0"}}, {"uniqueid": "MTK1246:3UXUOQ9OKF4EZSJEMZH60G65J5BA7M", "current_trial": 160, "dateTime": 1513468632390, "trialdata": {"rt": -1, "stimulus": "<p id=\"stim\">8</p>", "key_press": -1, "trial_type": "single-stim", "trial_index": 160, "time_elapsed": 706243, "internal_node_id": "0.0-122.0-2.0"}}, {"uniqueid": "MTK1246:3UXUOQ9OKF4EZSJEMZH60G65J5BA7M", "current_trial": 161, "dateTime": 1513468633391, "trialdata": {"rt": -1, "stimulus": "<p id=\"stim\">7</p>", "key_press": -1, "trial_type": "single-stim", "trial_index": 161, "time_elapsed": 707244, "internal_node_id": "0.0-122.0-3.0"}}, {"uniqueid": "MTK1246:3UXUOQ9OKF4EZSJEMZH60G65J5BA7M", "current_trial": 162, "dateTime": 1513468634393, "trialdata": {"rt": -1, "stimulus": "<p id=\"stim\">6</p>", "key_press": -1, "trial_type": "single-stim", "trial_index": 162, "time_elapsed": 708246, "internal_node_id": "0.0-122.0-4.0"}}, {"uniqueid": "MTK1246:3UXUOQ9OKF4EZSJEMZH60G65J5BA7M", "current_trial": 163, "dateTime": 1513468635396, "trialdata": {"rt": -1, "stimulus": "<p id=\"stim\">5</p>", "key_press": -1, "trial_type": "single-stim", "trial_index": 163, "time_elapsed": 709249, "internal_node_id": "0.0-122.0-5.0"}}, {"uniqueid": "MTK1246:3UXUOQ9OKF4EZSJEMZH60G65J5BA7M", "current_trial": 164, "dateTime": 1513468636398, "trialdata": {"rt": -1, "stimulus": "<p id=\"stim\">4</p>", "key_press": -1, "trial_type": "single-stim", "trial_index": 164, "time_elapsed": 710251, "internal_node_id": "0.0-122.0-6.0"}}, {"uniqueid": "MTK1246:3UXUOQ9OKF4EZSJEMZH60G65J5BA7M", "current_trial": 165, "dateTime": 1513468637401, "trialdata": {"rt": -1, "stimulus": "<p id=\"stim\">3</p>", "key_press": -1, "trial_type": "single-stim", "trial_index": 165, "time_elapsed": 711254, "internal_node_id": "0.0-122.0-7.0"}}, {"uniqueid": "MTK1246:3UXUOQ9OKF4EZSJEMZH60G65J5BA7M", "current_trial": 166, "dateTime": 1513468638403, "trialdata": {"rt": -1, "stimulus": "<p id=\"stim\">2</p>", "key_press": -1, "trial_type": "single-stim", "trial_index": 166, "time_elapsed": 712256, "internal_node_id": "0.0-122.0-8.0"}}, {"uniqueid": "MTK1246:3UXUOQ9OKF4EZSJEMZH60G65J5BA7M", "current_trial": 167, "dateTime": 1513468639405, "trialdata": {"rt": -1, "stimulus": "<p id=\"stim\">1</p>", "key_press": -1, "trial_type": "single-stim", "trial_index": 167, "time_elapsed": 713258, "internal_node_id": "0.0-122.0-9.0"}}, {"uniqueid": "MTK1246:3UXUOQ9OKF4EZSJEMZH60G65J5BA7M", "current_trial": 168, "dateTime": 1513468640907, "trialdata": {"rt": -1, "stimulus": "<p id=\"stim\">+</p>", "key_press": -1, "type": "FIXATION", "trial_type": "single-stim", "trial_index": 168, "time_elapsed": 714759, "internal_node_id": "0.0-123.0-0.0"}}, {"uniqueid": "MTK1246:3UXUOQ9OKF4EZSJEMZH60G65J5BA7M", "current_trial": 169, "dateTime": 1513468642508, "trialdata": {"rt": -1, "stimulus": "<p id=\"stim\">FUNGUS</p>", "key_press": -1, "type": "PRES_VIS", "word": "fungus", "wordID": 613, "conditions": [12, 1600, "v", 12000], "trial": 4, "serialpos": 0, "trial_type": "single-stim", "trial_index": 169, "time_elapsed": 716361, "internal_node_id": "0.0-124.0"}}, {"uniqueid": "MTK1246:3UXUOQ9OKF4EZSJEMZH60G65J5BA7M", "current_trial": 170, "dateTime": 1513468644983, "trialdata": {"rt": -1, "stimulus": "<p id=\"stim\">ROCKET</p>", "key_press": -1, "type": "PRES_VIS", "word": "rocket", "wordID": 1201, "conditions": [12, 1600, "v", 12000], "trial": 4, "serialpos": 1, "trial_type": "single-stim", "trial_index": 170, "time_elapsed": 718836, "internal_node_id": "0.0-125.0"}}, {"uniqueid": "MTK1246:3UXUOQ9OKF4EZSJEMZH60G65J5BA7M", "current_trial": 171, "dateTime": 1513468647538, "trialdata": {"rt": -1, "stimulus": "<p id=\"stim\">DRIVER</p>", "key_press": -1, "type": "PRES_VIS", "word": "driver", "wordID": 498, "conditions": [12, 1600, "v", 12000], "trial": 4, "serialpos": 2, "trial_type": "single-stim", "trial_index": 171, "time_elapsed": 721390, "internal_node_id": "0.0-126.0"}}, {"uniqueid": "MTK1246:3UXUOQ9OKF4EZSJEMZH60G65J5BA7M", "current_trial": 172, "dateTime": 1513468650335, "trialdata": {"rt": -1, "stimulus": "<p id=\"stim\">SILK</p>", "key_press": -1, "type": "PRES_VIS", "word": "silk", "wordID": 1306, "conditions": [12, 1600, "v", 12000], "trial": 4, "serialpos": 3, "trial_type": "single-stim", "trial_index": 172, "time_elapsed": 724187, "internal_node_id": "0.0-127.0"}}, {"uniqueid": "MTK1246:3UXUOQ9OKF4EZSJEMZH60G65J5BA7M", "current_trial": 173, "dateTime": 1513468653051, "trialdata": {"rt": -1, "stimulus": "<p id=\"stim\">HONEY</p>", "key_press": -1, "type": "PRES_VIS", "word": "honey", "wordID": 712, "conditions": [12, 1600, "v", 12000], "trial": 4, "serialpos": 4, "trial_type": "single-stim", "trial_index": 173, "time_elapsed": 726904, "internal_node_id": "0.0-128.0"}}, {"uniqueid": "MTK1246:3UXUOQ9OKF4EZSJEMZH60G65J5BA7M", "current_trial": 174, "dateTime": 1513468655822, "trialdata": {"rt": -1, "stimulus": "<p id=\"stim\">LETTUCE</p>", "key_press": -1, "type": "PRES_VIS", "word": "lettuce", "wordID": 813, "conditions": [12, 1600, "v", 12000], "trial": 4, "serialpos": 5, "trial_type": "single-stim", "trial_index": 174, "time_elapsed": 729675, "internal_node_id": "0.0-129.0"}}, {"uniqueid": "MTK1246:3UXUOQ9OKF4EZSJEMZH60G65J5BA7M", "current_trial": 175, "dateTime": 1513468658501, "trialdata": {"rt": -1, "stimulus": "<p id=\"stim\">BUG</p>", "key_press": -1, "type": "PRES_VIS", "word": "bug", "wordID": 186, "conditions": [12, 1600, "v", 12000], "trial": 4, "serialpos": 6, "trial_type": "single-stim", "trial_index": 175, "time_elapsed": 732353, "internal_node_id": "0.0-130.0"}}, {"uniqueid": "MTK1246:3UXUOQ9OKF4EZSJEMZH60G65J5BA7M", "current_trial": 176, "dateTime": 1513468661248, "trialdata": {"rt": -1, "stimulus": "<p id=\"stim\">BUGGY</p>", "key_press": -1, "type": "PRES_VIS", "word": "buggy", "wordID": 187, "conditions": [12, 1600, "v", 12000], "trial": 4, "serialpos": 7, "trial_type": "single-stim", "trial_index": 176, "time_elapsed": 735101, "internal_node_id": "0.0-131.0"}}, {"uniqueid": "MTK1246:3UXUOQ9OKF4EZSJEMZH60G65J5BA7M", "current_trial": 177, "dateTime": 1513468663990, "trialdata": {"rt": -1, "stimulus": "<p id=\"stim\">DONKEY</p>", "key_press": -1, "type": "PRES_VIS", "word": "donkey", "wordID": 483, "conditions": [12, 1600, "v", 12000], "trial": 4, "serialpos": 8, "trial_type": "single-stim", "trial_index": 177, "time_elapsed": 737843, "internal_node_id": "0.0-132.0"}}, {"uniqueid": "MTK1246:3UXUOQ9OKF4EZSJEMZH60G65J5BA7M", "current_trial": 178, "dateTime": 1513468666398, "trialdata": {"rt": -1, "stimulus": "<p id=\"stim\">MISSILE</p>", "key_press": -1, "type": "PRES_VIS", "word": "missile", "wordID": 899, "conditions": [12, 1600, "v", 12000], "trial": 4, "serialpos": 9, "trial_type": "single-stim", "trial_index": 178, "time_elapsed": 740251, "internal_node_id": "0.0-133.0"}}, {"uniqueid": "MTK1246:3UXUOQ9OKF4EZSJEMZH60G65J5BA7M", "current_trial": 179, "dateTime": 1513468668960, "trialdata": {"rt": -1, "stimulus": "<p id=\"stim\">QUEEN</p>", "key_press": -1, "type": "PRES_VIS", "word": "queen", "wordID": 1148, "conditions": [12, 1600, "v", 12000], "trial": 4, "serialpos": 10, "trial_type": "single-stim", "trial_index": 179, "time_elapsed": 742813, "internal_node_id": "0.0-134.0"}}, {"uniqueid": "MTK1246:3UXUOQ9OKF4EZSJEMZH60G65J5BA7M", "current_trial": 180, "dateTime": 1513468671683, "trialdata": {"rt": -1, "stimulus": "<p id=\"stim\">PRINCESS</p>", "key_press": -1, "type": "PRES_VIS", "word": "princess", "wordID": 1124, "conditions": [12, 1600, "v", 12000], "trial": 4, "serialpos": 11, "trial_type": "single-stim", "trial_index": 180, "time_elapsed": 745536, "internal_node_id": "0.0-135.0"}}, {"uniqueid": "MTK1246:3UXUOQ9OKF4EZSJEMZH60G65J5BA7M", "current_trial": 181, "dateTime": 1513468673993, "trialdata": {"rt": -1, "stimulus": "", "key_press": -1, "type": "PRE_RECALL_DELAY", "trial_type": "single-stim", "trial_index": 181, "time_elapsed": 747845, "internal_node_id": "0.0-136.0-0.0"}}, {"uniqueid": "MTK1246:3UXUOQ9OKF4EZSJEMZH60G65J5BA7M", "current_trial": 182, "dateTime": 1513468674495, "trialdata": {"rt": -1000, "stimulus": "/static/audio/400Hz.wav", "key_press": -1, "type": "PRE_RECALL_ALERT", "trial_type": "single-audio", "trial_index": 182, "time_elapsed": 748347, "internal_node_id": "0.0-137.0"}}, {"uniqueid": "MTK1246:3UXUOQ9OKF4EZSJEMZH60G65J5BA7M", "current_trial": 183, "dateTime": 1513468734504, "trialdata": {"rt": [2334, 3567, 5262, 6945, 11583], "recwords": ["fungus", "rocket", "waterfall", "bungee", "driver"], "type": "FREE_RECALL", "conditions": [12, 1600, "v", 12000], "trial": 4, "trial_type": "free-recall", "trial_index": 183, "time_elapsed": 808352, "internal_node_id": "0.0-138.0-0.0"}}, {"uniqueid": "MTK1246:3UXUOQ9OKF4EZSJEMZH60G65J5BA7M", "current_trial": 184, "dateTime": 1513468738005, "trialdata": {"rt": 1499, "key_press": 32, "type": "INSTRUCTIONS", "trial_type": "text", "trial_index": 184, "time_elapsed": 811858, "internal_node_id": "0.0-139.0"}}, {"uniqueid": "MTK1246:3UXUOQ9OKF4EZSJEMZH60G65J5BA7M", "current_trial": 185, "dateTime": 1513468752011, "trialdata": {"rt": [2763, 7147, 10124, 11707], "responses": ["9", "18", "17", "19"], "num1": [4, 6, 5, 8, 3], "num2": [3, 9, 9, 2, 1], "num3": [2, 3, 3, 9, 6], "type": "DISTRACTOR", "conditions": [12, 800, "v", 12000], "trial": 5, "trial_type": "math-distractor", "trial_index": 185, "time_elapsed": 825863, "internal_node_id": "0.0-140.0"}}, {"uniqueid": "MTK1246:3UXUOQ9OKF4EZSJEMZH60G65J5BA7M", "current_trial": 186, "dateTime": 1513468755013, "trialdata": {"rt": -1, "stimulus": "<p id=\"stim\">10</p>", "key_press": -1, "trial_type": "single-stim", "trial_index": 186, "time_elapsed": 828866, "internal_node_id": "0.0-141.0-0.0"}}, {"uniqueid": "MTK1246:3UXUOQ9OKF4EZSJEMZH60G65J5BA7M", "current_trial": 187, "dateTime": 1513468756016, "trialdata": {"rt": -1, "stimulus": "<p id=\"stim\">9</p>", "key_press": -1, "trial_type": "single-stim", "trial_index": 187, "time_elapsed": 829869, "internal_node_id": "0.0-141.0-1.0"}}, {"uniqueid": "MTK1246:3UXUOQ9OKF4EZSJEMZH60G65J5BA7M", "current_trial": 188, "dateTime": 1513468757018, "trialdata": {"rt": -1, "stimulus": "<p id=\"stim\">8</p>", "key_press": -1, "trial_type": "single-stim", "trial_index": 188, "time_elapsed": 830871, "internal_node_id": "0.0-141.0-2.0"}}, {"uniqueid": "MTK1246:3UXUOQ9OKF4EZSJEMZH60G65J5BA7M", "current_trial": 189, "dateTime": 1513468758020, "trialdata": {"rt": -1, "stimulus": "<p id=\"stim\">7</p>", "key_press": -1, "trial_type": "single-stim", "trial_index": 189, "time_elapsed": 831873, "internal_node_id": "0.0-141.0-3.0"}}, {"uniqueid": "MTK1246:3UXUOQ9OKF4EZSJEMZH60G65J5BA7M", "current_trial": 190, "dateTime": 1513468759023, "trialdata": {"rt": -1, "stimulus": "<p id=\"stim\">6</p>", "key_press": -1, "trial_type": "single-stim", "trial_index": 190, "time_elapsed": 832875, "internal_node_id": "0.0-141.0-4.0"}}, {"uniqueid": "MTK1246:3UXUOQ9OKF4EZSJEMZH60G65J5BA7M", "current_trial": 191, "dateTime": 1513468760025, "trialdata": {"rt": -1, "stimulus": "<p id=\"stim\">5</p>", "key_press": -1, "trial_type": "single-stim", "trial_index": 191, "time_elapsed": 833877, "internal_node_id": "0.0-141.0-5.0"}}, {"uniqueid": "MTK1246:3UXUOQ9OKF4EZSJEMZH60G65J5BA7M", "current_trial": 192, "dateTime": 1513468761027, "trialdata": {"rt": -1, "stimulus": "<p id=\"stim\">4</p>", "key_press": -1, "trial_type": "single-stim", "trial_index": 192, "time_elapsed": 834880, "internal_node_id": "0.0-141.0-6.0"}}, {"uniqueid": "MTK1246:3UXUOQ9OKF4EZSJEMZH60G65J5BA7M", "current_trial": 193, "dateTime": 1513468762029, "trialdata": {"rt": -1, "stimulus": "<p id=\"stim\">3</p>", "key_press": -1, "trial_type": "single-stim", "trial_index": 193, "time_elapsed": 835882, "internal_node_id": "0.0-141.0-7.0"}}, {"uniqueid": "MTK1246:3UXUOQ9OKF4EZSJEMZH60G65J5BA7M", "current_trial": 194, "dateTime": 1513468763032, "trialdata": {"rt": -1, "stimulus": "<p id=\"stim\">2</p>", "key_press": -1, "trial_type": "single-stim", "trial_index": 194, "time_elapsed": 836885, "internal_node_id": "0.0-141.0-8.0"}}, {"uniqueid": "MTK1246:3UXUOQ9OKF4EZSJEMZH60G65J5BA7M", "current_trial": 195, "dateTime": 1513468764034, "trialdata": {"rt": -1, "stimulus": "<p id=\"stim\">1</p>", "key_press": -1, "trial_type": "single-stim", "trial_index": 195, "time_elapsed": 837887, "internal_node_id": "0.0-141.0-9.0"}}, {"uniqueid": "MTK1246:3UXUOQ9OKF4EZSJEMZH60G65J5BA7M", "current_trial": 196, "dateTime": 1513468765537, "trialdata": {"rt": -1, "stimulus": "<p id=\"stim\">+</p>", "key_press": -1, "type": "FIXATION", "trial_type": "single-stim", "trial_index": 196, "time_elapsed": 839389, "internal_node_id": "0.0-142.0-0.0"}}, {"uniqueid": "MTK1246:3UXUOQ9OKF4EZSJEMZH60G65J5BA7M", "current_trial": 197, "dateTime": 1513468766338, "trialdata": {"rt": -1, "stimulus": "<p id=\"stim\">FREEZER</p>", "key_press": -1, "type": "PRES_VIS", "word": "freezer", "wordID": 603, "conditions": [12, 800, "v", 12000], "trial": 5, "serialpos": 0, "trial_type": "single-stim", "trial_index": 197, "time_elapsed": 840191, "internal_node_id": "0.0-143.0"}}, {"uniqueid": "MTK1246:3UXUOQ9OKF4EZSJEMZH60G65J5BA7M", "current_trial": 198, "dateTime": 1513468768253, "trialdata": {"rt": -1, "stimulus": "<p id=\"stim\">TOMBSTONE</p>", "key_press": -1, "type": "PRES_VIS", "word": "tombstone", "wordID": 1477, "conditions": [12, 800, "v", 12000], "trial": 5, "serialpos": 1, "trial_type": "single-stim", "trial_index": 198, "time_elapsed": 842106, "internal_node_id": "0.0-144.0"}}, {"uniqueid": "MTK1246:3UXUOQ9OKF4EZSJEMZH60G65J5BA7M", "current_trial": 199, "dateTime": 1513468770141, "trialdata": {"rt": -1, "stimulus": "<p id=\"stim\">UNCLE</p>", "key_press": -1, "type": "PRES_VIS", "word": "uncle", "wordID": 1535, "conditions": [12, 800, "v", 12000], "trial": 5, "serialpos": 2, "trial_type": "single-stim", "trial_index": 199, "time_elapsed": 843994, "internal_node_id": "0.0-145.0"}}, {"uniqueid": "MTK1246:3UXUOQ9OKF4EZSJEMZH60G65J5BA7M", "current_trial": 200, "dateTime": 1513468771752, "trialdata": {"rt": -1, "stimulus": "<p id=\"stim\">QUAIL</p>", "key_press": -1, "type": "PRES_VIS", "word": "quail", "wordID": 1146, "conditions": [12, 800, "v", 12000], "trial": 5, "serialpos": 3, "trial_type": "single-stim", "trial_index": 200, "time_elapsed": 845604, "internal_node_id": "0.0-146.0"}}, {"uniqueid": "MTK1246:3UXUOQ9OKF4EZSJEMZH60G65J5BA7M", "current_trial": 201, "dateTime": 1513468773414, "trialdata": {"rt": -1, "stimulus": "<p id=\"stim\">OYSTER</p>", "key_press": -1, "type": "PRES_VIS", "word": "oyster", "wordID": 994, "conditions": [12, 800, "v", 12000], "trial": 5, "serialpos": 4, "trial_type": "single-stim", "trial_index": 201, "time_elapsed": 847267, "internal_node_id": "0.0-147.0"}}, {"uniqueid": "MTK1246:3UXUOQ9OKF4EZSJEMZH60G65J5BA7M", "current_trial": 202, "dateTime": 1513468775184, "trialdata": {"rt": -1, "stimulus": "<p id=\"stim\">ARMY</p>", "key_press": -1, "type": "PRES_VIS", "word": "army", "wordID": 38, "conditions": [12, 800, "v", 12000], "trial": 5, "serialpos": 5, "trial_type": "single-stim", "trial_index": 202, "time_elapsed": 849037, "internal_node_id": "0.0-148.0"}}, {"uniqueid": "MTK1246:3UXUOQ9OKF4EZSJEMZH60G65J5BA7M", "current_trial": 203, "dateTime": 1513468777186, "trialdata": {"rt": -1, "stimulus": "<p id=\"stim\">PLIERS</p>", "key_press": -1, "type": "PRES_VIS", "word": "pliers", "wordID": 1088, "conditions": [12, 800, "v", 12000], "trial": 5, "serialpos": 6, "trial_type": "single-stim", "trial_index": 203, "time_elapsed": 851039, "internal_node_id": "0.0-149.0"}}, {"uniqueid": "MTK1246:3UXUOQ9OKF4EZSJEMZH60G65J5BA7M", "current_trial": 204, "dateTime": 1513468779060, "trialdata": {"rt": -1, "stimulus": "<p id=\"stim\">DRESS</p>", "key_press": -1, "type": "PRES_VIS", "word": "dress", "wordID": 494, "conditions": [12, 800, "v", 12000], "trial": 5, "serialpos": 7, "trial_type": "single-stim", "trial_index": 204, "time_elapsed": 852913, "internal_node_id": "0.0-150.0"}}, {"uniqueid": "MTK1246:3UXUOQ9OKF4EZSJEMZH60G65J5BA7M", "current_trial": 205, "dateTime": 1513468780887, "trialdata": {"rt": -1, "stimulus": "<p id=\"stim\">SKIRT</p>", "key_press": -1, "type": "PRES_VIS", "word": "skirt", "wordID": 1318, "conditions": [12, 800, "v", 12000], "trial": 5, "serialpos": 8, "trial_type": "single-stim", "trial_index": 205, "time_elapsed": 854740, "internal_node_id": "0.0-151.0"}}, {"uniqueid": "MTK1246:3UXUOQ9OKF4EZSJEMZH60G65J5BA7M", "current_trial": 206, "dateTime": 1513468782835, "trialdata": {"rt": -1, "stimulus": "<p id=\"stim\">PLASTER</p>", "key_press": -1, "type": "PRES_VIS", "word": "plaster", "wordID": 1084, "conditions": [12, 800, "v", 12000], "trial": 5, "serialpos": 9, "trial_type": "single-stim", "trial_index": 206, "time_elapsed": 856688, "internal_node_id": "0.0-152.0"}}, {"uniqueid": "MTK1246:3UXUOQ9OKF4EZSJEMZH60G65J5BA7M", "current_trial": 207, "dateTime": 1513468784532, "trialdata": {"rt": -1, "stimulus": "<p id=\"stim\">SPOOL</p>", "key_press": -1, "type": "PRES_VIS", "word": "spool", "wordID": 1355, "conditions": [12, 800, "v", 12000], "trial": 5, "serialpos": 10, "trial_type": "single-stim", "trial_index": 207, "time_elapsed": 858385, "internal_node_id": "0.0-153.0"}}, {"uniqueid": "MTK1246:3UXUOQ9OKF4EZSJEMZH60G65J5BA7M", "current_trial": 208, "dateTime": 1513468786407, "trialdata": {"rt": -1, "stimulus": "<p id=\"stim\">CASKET</p>", "key_press": -1, "type": "PRES_VIS", "word": "casket", "wordID": 254, "conditions": [12, 800, "v", 12000], "trial": 5, "serialpos": 11, "trial_type": "single-stim", "trial_index": 208, "time_elapsed": 860260, "internal_node_id": "0.0-154.0"}}, {"uniqueid": "MTK1246:3UXUOQ9OKF4EZSJEMZH60G65J5BA7M", "current_trial": 209, "dateTime": 1513468788608, "trialdata": {"rt": -1, "stimulus": "", "key_press": -1, "type": "PRE_RECALL_DELAY", "trial_type": "single-stim", "trial_index": 209, "time_elapsed": 862461, "internal_node_id": "0.0-155.0-0.0"}}, {"uniqueid": "MTK1246:3UXUOQ9OKF4EZSJEMZH60G65J5BA7M", "current_trial": 210, "dateTime": 1513468789114, "trialdata": {"rt": -1000, "stimulus": "/static/audio/400Hz.wav", "key_press": -1, "type": "PRE_RECALL_ALERT", "trial_type": "single-audio", "trial_index": 210, "time_elapsed": 862967, "internal_node_id": "0.0-156.0"}}, {"uniqueid": "MTK1246:3UXUOQ9OKF4EZSJEMZH60G65J5BA7M", "current_trial": 211, "dateTime": 1513468849124, "trialdata": {"rt": [2295, 4007, 5302, 8022, 10918, 15959, 16295], "recwords": ["plaster", "pool", "casket", "wrong", "drive", "out", "of"], "type": "FREE_RECALL", "conditions": [12, 800, "v", 12000], "trial": 5, "trial_type": "free-recall", "trial_index": 211, "time_elapsed": 922972, "internal_node_id": "0.0-157.0-0.0"}}, {"uniqueid": "MTK1246:3UXUOQ9OKF4EZSJEMZH60G65J5BA7M", "current_trial": 212, "dateTime": 1513468853048, "trialdata": {"rt": 1922, "key_press": 13, "type": "INSTRUCTIONS", "trial_type": "text", "trial_index": 212, "time_elapsed": 926901, "internal_node_id": "0.0-158.0"}}, {"uniqueid": "MTK1246:3UXUOQ9OKF4EZSJEMZH60G65J5BA7M", "current_trial": 213, "dateTime": 1513468879053, "trialdata": {"rt": [2764, 5034, 8940, 11290, 13148, 14554, 16172, 17819, 19292], "responses": ["17", "15", "13", "17", "9", "11", "17", "12", "6"], "num1": [1, 3, 4, 2, 1, 1, 2, 1, 1, 6], "num2": [9, 3, 2, 7, 2, 8, 8, 9, 2, 9], "num3": [7, 9, 7, 8, 6, 2, 7, 2, 3, 1], "type": "DISTRACTOR", "conditions": [12, 1600, "v", 24000], "trial": 6, "trial_type": "math-distractor", "trial_index": 213, "time_elapsed": 952906, "internal_node_id": "0.0-159.0"}}, {"uniqueid": "MTK1246:3UXUOQ9OKF4EZSJEMZH60G65J5BA7M", "current_trial": 214, "dateTime": 1513468882056, "trialdata": {"rt": -1, "stimulus": "<p id=\"stim\">10</p>", "key_press": -1, "trial_type": "single-stim", "trial_index": 214, "time_elapsed": 955909, "internal_node_id": "0.0-160.0-0.0"}}, {"uniqueid": "MTK1246:3UXUOQ9OKF4EZSJEMZH60G65J5BA7M", "current_trial": 215, "dateTime": 1513468883058, "trialdata": {"rt": -1, "stimulus": "<p id=\"stim\">9</p>", "key_press": -1, "trial_type": "single-stim", "trial_index": 215, "time_elapsed": 956911, "internal_node_id": "0.0-160.0-1.0"}}, {"uniqueid": "MTK1246:3UXUOQ9OKF4EZSJEMZH60G65J5BA7M", "current_trial": 216, "dateTime": 1513468884060, "trialdata": {"rt": -1, "stimulus": "<p id=\"stim\">8</p>", "key_press": -1, "trial_type": "single-stim", "trial_index": 216, "time_elapsed": 957913, "internal_node_id": "0.0-160.0-2.0"}}, {"uniqueid": "MTK1246:3UXUOQ9OKF4EZSJEMZH60G65J5BA7M", "current_trial": 217, "dateTime": 1513468885062, "trialdata": {"rt": -1, "stimulus": "<p id=\"stim\">7</p>", "key_press": -1, "trial_type": "single-stim", "trial_index": 217, "time_elapsed": 958915, "internal_node_id": "0.0-160.0-3.0"}}, {"uniqueid": "MTK1246:3UXUOQ9OKF4EZSJEMZH60G65J5BA7M", "current_trial": 218, "dateTime": 1513468886065, "trialdata": {"rt": -1, "stimulus": "<p id=\"stim\">6</p>", "key_press": -1, "trial_type": "single-stim", "trial_index": 218, "time_elapsed": 959917, "internal_node_id": "0.0-160.0-4.0"}}, {"uniqueid": "MTK1246:3UXUOQ9OKF4EZSJEMZH60G65J5BA7M", "current_trial": 219, "dateTime": 1513468887066, "trialdata": {"rt": -1, "stimulus": "<p id=\"stim\">5</p>", "key_press": -1, "trial_type": "single-stim", "trial_index": 219, "time_elapsed": 960919, "internal_node_id": "0.0-160.0-5.0"}}, {"uniqueid": "MTK1246:3UXUOQ9OKF4EZSJEMZH60G65J5BA7M", "current_trial": 220, "dateTime": 1513468888068, "trialdata": {"rt": -1, "stimulus": "<p id=\"stim\">4</p>", "key_press": -1, "trial_type": "single-stim", "trial_index": 220, "time_elapsed": 961921, "internal_node_id": "0.0-160.0-6.0"}}, {"uniqueid": "MTK1246:3UXUOQ9OKF4EZSJEMZH60G65J5BA7M", "current_trial": 221, "dateTime": 1513468889070, "trialdata": {"rt": -1, "stimulus": "<p id=\"stim\">3</p>", "key_press": -1, "trial_type": "single-stim", "trial_index": 221, "time_elapsed": 962923, "internal_node_id": "0.0-160.0-7.0"}}, {"uniqueid": "MTK1246:3UXUOQ9OKF4EZSJEMZH60G65J5BA7M", "current_trial": 222, "dateTime": 1513468890073, "trialdata": {"rt": -1, "stimulus": "<p id=\"stim\">2</p>", "key_press": -1, "trial_type": "single-stim", "trial_index": 222, "time_elapsed": 963925, "internal_node_id": "0.0-160.0-8.0"}}, {"uniqueid": "MTK1246:3UXUOQ9OKF4EZSJEMZH60G65J5BA7M", "current_trial": 223, "dateTime": 1513468891075, "trialdata": {"rt": -1, "stimulus": "<p id=\"stim\">1</p>", "key_press": -1, "trial_type": "single-stim", "trial_index": 223, "time_elapsed": 964928, "internal_node_id": "0.0-160.0-9.0"}}, {"uniqueid": "MTK1246:3UXUOQ9OKF4EZSJEMZH60G65J5BA7M", "current_trial": 224, "dateTime": 1513468892577, "trialdata": {"rt": -1, "stimulus": "<p id=\"stim\">+</p>", "key_press": -1, "type": "FIXATION", "trial_type": "single-stim", "trial_index": 224, "time_elapsed": 966430, "internal_node_id": "0.0-161.0-0.0"}}, {"uniqueid": "MTK1246:3UXUOQ9OKF4EZSJEMZH60G65J5BA7M", "current_trial": 225, "dateTime": 1513468894179, "trialdata": {"rt": -1, "stimulus": "<p id=\"stim\">MOTEL</p>", "key_press": -1, "type": "PRES_VIS", "word": "motel", "wordID": 918, "conditions": [12, 1600, "v", 24000], "trial": 6, "serialpos": 0, "trial_type": "single-stim", "trial_index": 225, "time_elapsed": 968031, "internal_node_id": "0.0-162.0"}}, {"uniqueid": "MTK1246:3UXUOQ9OKF4EZSJEMZH60G65J5BA7M", "current_trial": 226, "dateTime": 1513468896915, "trialdata": {"rt": -1, "stimulus": "<p id=\"stim\">DOLPHIN</p>", "key_press": -1, "type": "PRES_VIS", "word": "dolphin", "wordID": 482, "conditions": [12, 1600, "v", 24000], "trial": 6, "serialpos": 1, "trial_type": "single-stim", "trial_index": 226, "time_elapsed": 970768, "internal_node_id": "0.0-163.0"}}, {"uniqueid": "MTK1246:3UXUOQ9OKF4EZSJEMZH60G65J5BA7M", "current_trial": 227, "dateTime": 1513468899496, "trialdata": {"rt": -1, "stimulus": "<p id=\"stim\">SNAIL</p>", "key_press": -1, "type": "PRES_VIS", "word": "snail", "wordID": 1331, "conditions": [12, 1600, "v", 24000], "trial": 6, "serialpos": 2, "trial_type": "single-stim", "trial_index": 227, "time_elapsed": 973349, "internal_node_id": "0.0-164.0"}}, {"uniqueid": "MTK1246:3UXUOQ9OKF4EZSJEMZH60G65J5BA7M", "current_trial": 228, "dateTime": 1513468902276, "trialdata": {"rt": -1, "stimulus": "<p id=\"stim\">GRAVEL</p>", "key_press": -1, "type": "PRES_VIS", "word": "gravel", "wordID": 658, "conditions": [12, 1600, "v", 24000], "trial": 6, "serialpos": 3, "trial_type": "single-stim", "trial_index": 228, "time_elapsed": 976129, "internal_node_id": "0.0-165.0"}}, {"uniqueid": "MTK1246:3UXUOQ9OKF4EZSJEMZH60G65J5BA7M", "current_trial": 229, "dateTime": 1513468904911, "trialdata": {"rt": -1, "stimulus": "<p id=\"stim\">HIKER</p>", "key_press": -1, "type": "PRES_VIS", "word": "hiker", "wordID": 707, "conditions": [12, 1600, "v", 24000], "trial": 6, "serialpos": 4, "trial_type": "single-stim", "trial_index": 229, "time_elapsed": 978764, "internal_node_id": "0.0-166.0"}}, {"uniqueid": "MTK1246:3UXUOQ9OKF4EZSJEMZH60G65J5BA7M", "current_trial": 230, "dateTime": 1513468907333, "trialdata": {"rt": -1, "stimulus": "<p id=\"stim\">DIVER</p>", "key_press": -1, "type": "PRES_VIS", "word": "diver", "wordID": 475, "conditions": [12, 1600, "v", 24000], "trial": 6, "serialpos": 5, "trial_type": "single-stim", "trial_index": 230, "time_elapsed": 981185, "internal_node_id": "0.0-167.0"}}, {"uniqueid": "MTK1246:3UXUOQ9OKF4EZSJEMZH60G65J5BA7M", "current_trial": 231, "dateTime": 1513468910054, "trialdata": {"rt": -1, "stimulus": "<p id=\"stim\">SWIMMER</p>", "key_press": -1, "type": "PRES_VIS", "word": "swimmer", "wordID": 1419, "conditions": [12, 1600, "v", 24000], "trial": 6, "serialpos": 6, "trial_type": "single-stim", "trial_index": 231, "time_elapsed": 983906, "internal_node_id": "0.0-168.0"}}, {"uniqueid": "MTK1246:3UXUOQ9OKF4EZSJEMZH60G65J5BA7M", "current_trial": 232, "dateTime": 1513468912538, "trialdata": {"rt": -1, "stimulus": "<p id=\"stim\">CLIMBER</p>", "key_press": -1, "type": "PRES_VIS", "word": "climber", "wordID": 322, "conditions": [12, 1600, "v", 24000], "trial": 6, "serialpos": 7, "trial_type": "single-stim", "trial_index": 232, "time_elapsed": 986391, "internal_node_id": "0.0-169.0"}}, {"uniqueid": "MTK1246:3UXUOQ9OKF4EZSJEMZH60G65J5BA7M", "current_trial": 233, "dateTime": 1513468915338, "trialdata": {"rt": -1, "stimulus": "<p id=\"stim\">HIGHWAY</p>", "key_press": -1, "type": "PRES_VIS", "word": "highway", "wordID": 706, "conditions": [12, 1600, "v", 24000], "trial": 6, "serialpos": 8, "trial_type": "single-stim", "trial_index": 233, "time_elapsed": 989191, "internal_node_id": "0.0-170.0"}}, {"uniqueid": "MTK1246:3UXUOQ9OKF4EZSJEMZH60G65J5BA7M", "current_trial": 234, "dateTime": 1513468918023, "trialdata": {"rt": -1, "stimulus": "<p id=\"stim\">JAPAN</p>", "key_press": -1, "type": "PRES_VIS", "word": "japan", "wordID": 748, "conditions": [12, 1600, "v", 24000], "trial": 6, "serialpos": 9, "trial_type": "single-stim", "trial_index": 234, "time_elapsed": 991876, "internal_node_id": "0.0-171.0"}}, {"uniqueid": "MTK1246:3UXUOQ9OKF4EZSJEMZH60G65J5BA7M", "current_trial": 235, "dateTime": 1513468920730, "trialdata": {"rt": -1, "stimulus": "<p id=\"stim\">STOVE</p>", "key_press": -1, "type": "PRES_VIS", "word": "stove", "wordID": 1387, "conditions": [12, 1600, "v", 24000], "trial": 6, "serialpos": 10, "trial_type": "single-stim", "trial_index": 235, "time_elapsed": 994582, "internal_node_id": "0.0-172.0"}}, {"uniqueid": "MTK1246:3UXUOQ9OKF4EZSJEMZH60G65J5BA7M", "current_trial": 236, "dateTime": 1513468923336, "trialdata": {"rt": -1, "stimulus": "<p id=\"stim\">TURNIP</p>", "key_press": -1, "type": "PRES_VIS", "word": "turnip", "wordID": 1520, "conditions": [12, 1600, "v", 24000], "trial": 6, "serialpos": 11, "trial_type": "single-stim", "trial_index": 236, "time_elapsed": 997189, "internal_node_id": "0.0-173.0"}}, {"uniqueid": "MTK1246:3UXUOQ9OKF4EZSJEMZH60G65J5BA7M", "current_trial": 237, "dateTime": 1513468925694, "trialdata": {"rt": -1, "stimulus": "", "key_press": -1, "type": "PRE_RECALL_DELAY", "trial_type": "single-stim", "trial_index": 237, "time_elapsed": 999547, "internal_node_id": "0.0-174.0-0.0"}}, {"uniqueid": "MTK1246:3UXUOQ9OKF4EZSJEMZH60G65J5BA7M", "current_trial": 238, "dateTime": 1513468926196, "trialdata": {"rt": -1000, "stimulus": "/static/audio/400Hz.wav", "key_press": -1, "type": "PRE_RECALL_ALERT", "trial_type": "single-audio", "trial_index": 238, "time_elapsed": 1000049, "internal_node_id": "0.0-175.0"}}, {"uniqueid": "MTK1246:3UXUOQ9OKF4EZSJEMZH60G65J5BA7M", "current_trial": 239, "dateTime": 1513468986205, "trialdata": {"rt": [2482, 4754, 6818], "recwords": ["driver", "hence", "jumper"], "type": "FREE_RECALL", "conditions": [12, 1600, "v", 24000], "trial": 6, "trial_type": "free-recall", "trial_index": 239, "time_elapsed": 1060053, "internal_node_id": "0.0-176.0-0.0"}}, {"uniqueid": "MTK1246:3UXUOQ9OKF4EZSJEMZH60G65J5BA7M", "current_trial": 240, "dateTime": 1513468988910, "trialdata": {"rt": 703, "key_press": 32, "type": "INSTRUCTIONS", "trial_type": "text", "trial_index": 240, "time_elapsed": 1062762, "internal_node_id": "0.0-177.0"}}, {"uniqueid": "MTK1246:3UXUOQ9OKF4EZSJEMZH60G65J5BA7M", "current_trial": 241, "dateTime": 1513469002915, "trialdata": {"rt": [3256, 6458, 8282, 9963, 11977], "responses": ["13", "18", "17", "4", "9"], "num1": [5, 6, 3, 1, 4, 1], "num2": [6, 5, 7, 1, 1, 6], "num3": [2, 7, 7, 2, 4, 9], "type": "DISTRACTOR", "conditions": [12, 800, "a", 12000], "trial": 7, "trial_type": "math-distractor", "trial_index": 241, "time_elapsed": 1076768, "internal_node_id": "0.0-178.0"}}, {"uniqueid": "MTK1246:3UXUOQ9OKF4EZSJEMZH60G65J5BA7M", "current_trial": 242, "dateTime": 1513469005917, "trialdata": {"rt": -1, "stimulus": "<p id=\"stim\">10</p>", "key_press": -1, "trial_type": "single-stim", "trial_index": 242, "time_elapsed": 1079770, "internal_node_id": "0.0-179.0-0.0"}}, {"uniqueid": "MTK1246:3UXUOQ9OKF4EZSJEMZH60G65J5BA7M", "current_trial": 243, "dateTime": 1513469006920, "trialdata": {"rt": -1, "stimulus": "<p id=\"stim\">9</p>", "key_press": -1, "trial_type": "single-stim", "trial_index": 243, "time_elapsed": 1080772, "internal_node_id": "0.0-179.0-1.0"}}, {"uniqueid": "MTK1246:3UXUOQ9OKF4EZSJEMZH60G65J5BA7M", "current_trial": 244, "dateTime": 1513469007922, "trialdata": {"rt": -1, "stimulus": "<p id=\"stim\">8</p>", "key_press": -1, "trial_type": "single-stim", "trial_index": 244, "time_elapsed": 1081775, "internal_node_id": "0.0-179.0-2.0"}}, {"uniqueid": "MTK1246:3UXUOQ9OKF4EZSJEMZH60G65J5BA7M", "current_trial": 245, "dateTime": 1513469008924, "trialdata": {"rt": -1, "stimulus": "<p id=\"stim\">7</p>", "key_press": -1, "trial_type": "single-stim", "trial_index": 245, "time_elapsed": 1082777, "internal_node_id": "0.0-179.0-3.0"}}, {"uniqueid": "MTK1246:3UXUOQ9OKF4EZSJEMZH60G65J5BA7M", "current_trial": 246, "dateTime": 1513469009926, "trialdata": {"rt": -1, "stimulus": "<p id=\"stim\">6</p>", "key_press": -1, "trial_type": "single-stim", "trial_index": 246, "time_elapsed": 1083779, "internal_node_id": "0.0-179.0-4.0"}}, {"uniqueid": "MTK1246:3UXUOQ9OKF4EZSJEMZH60G65J5BA7M", "current_trial": 247, "dateTime": 1513469010928, "trialdata": {"rt": -1, "stimulus": "<p id=\"stim\">5</p>", "key_press": -1, "trial_type": "single-stim", "trial_index": 247, "time_elapsed": 1084781, "internal_node_id": "0.0-179.0-5.0"}}, {"uniqueid": "MTK1246:3UXUOQ9OKF4EZSJEMZH60G65J5BA7M", "current_trial": 248, "dateTime": 1513469011930, "trialdata": {"rt": -1, "stimulus": "<p id=\"stim\">4</p>", "key_press": -1, "trial_type": "single-stim", "trial_index": 248, "time_elapsed": 1085783, "internal_node_id": "0.0-179.0-6.0"}}, {"uniqueid": "MTK1246:3UXUOQ9OKF4EZSJEMZH60G65J5BA7M", "current_trial": 249, "dateTime": 1513469012932, "trialdata": {"rt": -1, "stimulus": "<p id=\"stim\">3</p>", "key_press": -1, "trial_type": "single-stim", "trial_index": 249, "time_elapsed": 1086785, "internal_node_id": "0.0-179.0-7.0"}}, {"uniqueid": "MTK1246:3UXUOQ9OKF4EZSJEMZH60G65J5BA7M", "current_trial": 250, "dateTime": 1513469013934, "trialdata": {"rt": -1, "stimulus": "<p id=\"stim\">2</p>", "key_press": -1, "trial_type": "single-stim", "trial_index": 250, "time_elapsed": 1087787, "internal_node_id": "0.0-179.0-8.0"}}, {"uniqueid": "MTK1246:3UXUOQ9OKF4EZSJEMZH60G65J5BA7M", "current_trial": 251, "dateTime": 1513469014937, "trialdata": {"rt": -1, "stimulus": "<p id=\"stim\">1</p>", "key_press": -1, "trial_type": "single-stim", "trial_index": 251, "time_elapsed": 1088789, "internal_node_id": "0.0-179.0-9.0"}}, {"uniqueid": "MTK1246:3UXUOQ9OKF4EZSJEMZH60G65J5BA7M", "current_trial": 252, "dateTime": 1513469016439, "trialdata": {"rt": -1, "stimulus": "<p id=\"stim\">+</p>", "key_press": -1, "type": "FIXATION", "trial_type": "single-stim", "trial_index": 252, "time_elapsed": 1090292, "internal_node_id": "0.0-180.0-0.0"}}, {"uniqueid": "MTK1246:3UXUOQ9OKF4EZSJEMZH60G65J5BA7M", "current_trial": 253, "dateTime": 1513469018435, "trialdata": {"rt": -1000, "stimulus": "/static/audio/wordpool/VALVE.wav", "key_press": -1, "type": "PRES_AUD", "word": "valve", "wordID": 1545, "conditions": [12, 800, "a", 12000], "trial": 7, "serialpos": 0, "trial_type": "single-audio", "trial_index": 253, "time_elapsed": 1092288, "internal_node_id": "0.0-181.0"}}, {"uniqueid": "MTK1246:3UXUOQ9OKF4EZSJEMZH60G65J5BA7M", "current_trial": 254, "dateTime": 1513469020201, "trialdata": {"rt": -1000, "stimulus": "/static/audio/wordpool/BLADE.wav", "key_press": -1, "type": "PRES_AUD", "word": "blade", "wordID": 133, "conditions": [12, 800, "a", 12000], "trial": 7, "serialpos": 1, "trial_type": "single-audio", "trial_index": 254, "time_elapsed": 1094054, "internal_node_id": "0.0-182.0"}}, {"uniqueid": "MTK1246:3UXUOQ9OKF4EZSJEMZH60G65J5BA7M", "current_trial": 255, "dateTime": 1513469021909, "trialdata": {"rt": -1000, "stimulus": "/static/audio/wordpool/CANYON.wav", "key_press": -1, "type": "PRES_AUD", "word": "canyon", "wordID": 234, "conditions": [12, 800, "a", 12000], "trial": 7, "serialpos": 2, "trial_type": "single-audio", "trial_index": 255, "time_elapsed": 1095759, "internal_node_id": "0.0-183.0"}}, {"uniqueid": "MTK1246:3UXUOQ9OKF4EZSJEMZH60G65J5BA7M", "current_trial": 256, "dateTime": 1513469023612, "trialdata": {"rt": -1000, "stimulus": "/static/audio/wordpool/VALLEY.wav", "key_press": -1, "type": "PRES_AUD", "word": "valley", "wordID": 1544, "conditions": [12, 800, "a", 12000], "trial": 7, "serialpos": 3, "trial_type": "single-audio", "trial_index": 256, "time_elapsed": 1097464, "internal_node_id": "0.0-184.0"}}, {"uniqueid": "MTK1246:3UXUOQ9OKF4EZSJEMZH60G65J5BA7M", "current_trial": 257, "dateTime": 1513469025279, "trialdata": {"rt": -1000, "stimulus": "/static/audio/wordpool/POWDER.wav", "key_press": -1, "type": "PRES_AUD", "word": "powder", "wordID": 1116, "conditions": [12, 800, "a", 12000], "trial": 7, "serialpos": 4, "trial_type": "single-audio", "trial_index": 257, "time_elapsed": 1099131, "internal_node_id": "0.0-185.0"}}, {"uniqueid": "MTK1246:3UXUOQ9OKF4EZSJEMZH60G65J5BA7M", "current_trial": 258, "dateTime": 1513469026906, "trialdata": {"rt": -1000, "stimulus": "/static/audio/wordpool/PISTON.wav", "key_press": -1, "type": "PRES_AUD", "word": "piston", "wordID": 1075, "conditions": [12, 800, "a", 12000], "trial": 7, "serialpos": 5, "trial_type": "single-audio", "trial_index": 258, "time_elapsed": 1100759, "internal_node_id": "0.0-186.0"}}, {"uniqueid": "MTK1246:3UXUOQ9OKF4EZSJEMZH60G65J5BA7M", "current_trial": 259, "dateTime": 1513469028659, "trialdata": {"rt": -1000, "stimulus": "/static/audio/wordpool/ASIA.wav", "key_press": -1, "type": "PRES_AUD", "word": "asia", "wordID": 45, "conditions": [12, 800, "a", 12000], "trial": 7, "serialpos": 6, "trial_type": "single-audio", "trial_index": 259, "time_elapsed": 1102511, "internal_node_id": "0.0-187.0"}}, {"uniqueid": "MTK1246:3UXUOQ9OKF4EZSJEMZH60G65J5BA7M", "current_trial": 260, "dateTime": 1513469030496, "trialdata": {"rt": -1000, "stimulus": "/static/audio/wordpool/MARKER.wav", "key_press": -1, "type": "PRES_AUD", "word": "marker", "wordID": 869, "conditions": [12, 800, "a", 12000], "trial": 7, "serialpos": 7, "trial_type": "single-audio", "trial_index": 260, "time_elapsed": 1104348, "internal_node_id": "0.0-188.0"}}, {"uniqueid": "MTK1246:3UXUOQ9OKF4EZSJEMZH60G65J5BA7M", "current_trial": 261, "dateTime": 1513469032202, "trialdata": {"rt": -1000, "stimulus": "/static/audio/wordpool/DRAWING.wav", "key_press": -1, "type": "PRES_AUD", "word": "drawing", "wordID": 493, "conditions": [12, 800, "a", 12000], "trial": 7, "serialpos": 8, "trial_type": "single-audio", "trial_index": 261, "time_elapsed": 1106055, "internal_node_id": "0.0-189.0"}}, {"uniqueid": "MTK1246:3UXUOQ9OKF4EZSJEMZH60G65J5BA7M", "current_trial": 262, "dateTime": 1513469033881, "trialdata": {"rt": -1000, "stimulus": "/static/audio/wordpool/MONEY.wav", "key_press": -1, "type": "PRES_AUD", "word": "money", "wordID": 907, "conditions": [12, 800, "a", 12000], "trial": 7, "serialpos": 9, "trial_type": "single-audio", "trial_index": 262, "time_elapsed": 1107734, "internal_node_id": "0.0-190.0"}}, {"uniqueid": "MTK1246:3UXUOQ9OKF4EZSJEMZH60G65J5BA7M", "current_trial": 263, "dateTime": 1513469035707, "trialdata": {"rt": -1000, "stimulus": "/static/audio/wordpool/POCKET.wav", "key_press": -1, "type": "PRES_AUD", "word": "pocket", "wordID": 1092, "conditions": [12, 800, "a", 12000], "trial": 7, "serialpos": 10, "trial_type": "single-audio", "trial_index": 263, "time_elapsed": 1109559, "internal_node_id": "0.0-191.0"}}, {"uniqueid": "MTK1246:3UXUOQ9OKF4EZSJEMZH60G65J5BA7M", "current_trial": 264, "dateTime": 1513469037528, "trialdata": {"rt": -1000, "stimulus": "/static/audio/wordpool/XEROX.wav", "key_press": -1, "type": "PRES_AUD", "word": "xerox", "wordID": 1627, "conditions": [12, 800, "a", 12000], "trial": 7, "serialpos": 11, "trial_type": "single-audio", "trial_index": 264, "time_elapsed": 1111381, "internal_node_id": "0.0-192.0"}}, {"uniqueid": "MTK1246:3UXUOQ9OKF4EZSJEMZH60G65J5BA7M", "current_trial": 265, "dateTime": 1513469038893, "trialdata": {"rt": -1, "stimulus": "", "key_press": -1, "type": "PRE_RECALL_DELAY", "trial_type": "single-stim", "trial_index": 265, "time_elapsed": 1112746, "internal_node_id": "0.0-193.0-0.0"}}, {"uniqueid": "MTK1246:3UXUOQ9OKF4EZSJEMZH60G65J5BA7M", "current_trial": 266, "dateTime": 1513469039395, "trialdata": {"rt": -1000, "stimulus": "/static/audio/400Hz.wav", "key_press": -1, "type": "PRE_RECALL_ALERT", "trial_type": "single-audio", "trial_index": 266, "time_elapsed": 1113248, "internal_node_id": "0.0-194.0"}}, {"uniqueid": "MTK1246:3UXUOQ9OKF4EZSJEMZH60G65J5BA7M", "current_trial": 267, "dateTime": 1513469099408, "trialdata": {"rt": [3413, 5126, 7125, 8438], "recwords": ["xerox", "valve", "money", "pocket"], "type": "FREE_RECALL", "conditions": [12, 800, "a", 12000], "trial": 7, "trial_type": "free-recall", "trial_index": 267, "time_elapsed": 1173253, "internal_node_id": "0.0-195.0-0.0"}}, {"uniqueid": "MTK1246:3UXUOQ9OKF4EZSJEMZH60G65J5BA7M", "current_trial": 268, "dateTime": 1513469102752, "trialdata": {"rt": 1342, "key_press": 13, "type": "INSTRUCTIONS", "trial_type": "text", "trial_index": 268, "time_elapsed": 1176605, "internal_node_id": "0.0-196.0"}}, {"uniqueid": "MTK1246:3UXUOQ9OKF4EZSJEMZH60G65J5BA7M", "current_trial": 269, "dateTime": 1513469116757, "trialdata": {"rt": [3562, 5453, 6954, 8603], "responses": ["21", "15", "8", "14"], "num1": [6, 8, 3, 7, 4], "num2": [7, 6, 4, 5, 9], "num3": [8, 1, 1, 2, 8], "type": "DISTRACTOR", "conditions": [24, 800, "v", 12000], "trial": 8, "trial_type": "math-distractor", "trial_index": 269, "time_elapsed": 1190610, "internal_node_id": "0.0-197.0"}}, {"uniqueid": "MTK1246:3UXUOQ9OKF4EZSJEMZH60G65J5BA7M", "current_trial": 270, "dateTime": 1513469119760, "trialdata": {"rt": -1, "stimulus": "<p id=\"stim\">10</p>", "key_press": -1, "trial_type": "single-stim", "trial_index": 270, "time_elapsed": 1193612, "internal_node_id": "0.0-198.0-0.0"}}, {"uniqueid": "MTK1246:3UXUOQ9OKF4EZSJEMZH60G65J5BA7M", "current_trial": 271, "dateTime": 1513469120762, "trialdata": {"rt": -1, "stimulus": "<p id=\"stim\">9</p>", "key_press": -1, "trial_type": "single-stim", "trial_index": 271, "time_elapsed": 1194615, "internal_node_id": "0.0-198.0-1.0"}}, {"uniqueid": "MTK1246:3UXUOQ9OKF4EZSJEMZH60G65J5BA7M", "current_trial": 272, "dateTime": 1513469121764, "trialdata": {"rt": -1, "stimulus": "<p id=\"stim\">8</p>", "key_press": -1, "trial_type": "single-stim", "trial_index": 272, "time_elapsed": 1195617, "internal_node_id": "0.0-198.0-2.0"}}, {"uniqueid": "MTK1246:3UXUOQ9OKF4EZSJEMZH60G65J5BA7M", "current_trial": 273, "dateTime": 1513469122766, "trialdata": {"rt": -1, "stimulus": "<p id=\"stim\">7</p>", "key_press": -1, "trial_type": "single-stim", "trial_index": 273, "time_elapsed": 1196619, "internal_node_id": "0.0-198.0-3.0"}}, {"uniqueid": "MTK1246:3UXUOQ9O