{"assignmentId": "39ZSFO5CA93RYWYETDNU37N8JFOUJ0", "workerId": "MTK1545", "questiondata": {"origin": "United States", "strat-rehearsal": "66", "marital": "Married/Domestic Partnership", "education": "Bachelor's degree", "ethnicity": "Not Hispanic", "color_depth": 24, "distracted": "No", "wrote-notes": "No", "strat-other": "", "screen_width": 1366, "avail_screen_width": 1366, "avail_screen_height": 728, "strat-image": "12", "language": "english", "gender": "Female", "age": "36", "gender_other": "", "race": ["White"], "strat-categorize": "48", "pixel_depth": 24, "strat-spatial": "1", "strat-story": "1", "race_other": "", "screen_height": 768}, "bonus": 0, "hitId": "3U18MJKL1UTP88A5WIPKDOMZ4UUCNI", "counterbalance": 2658, "useragent": "Mozilla/5.0 (Windows NT 6.3; WOW64) AppleWebKit/537.36 (KHTML, like Gecko) Chrome/63.0.3239.132 Safari/537.36", "eventdata": [{"eventtype": "initialized", "interval": 0, "value": null, "timestamp": 1515960531957}, {"eventtype": "window_resize", "interval": 4, "value": [1366, 662], "timestamp": 1515960531961}, {"eventtype": "focus", "interval": 3746, "value": "on", "timestamp": 1515960535707}, {"eventtype": "focus", "interval": 1097, "value": "off", "timestamp": 1515960536804}, {"eventtype": "focus", "interval": 2848, "value": "on", "timestamp": 1515960539652}, {"eventtype": "focus", "interval": 438588, "value": "off", "timestamp": 1515960978240}, {"eventtype": "focus", "interval": 7493, "value": "on", "timestamp": 1515960985733}, {"eventtype": "focus", "interval": 189980, "value": "off", "timestamp": 1515961175713}, {"eventtype": "focus", "interval": 36818, "value": "on", "timestamp": 1515961212531}, {"eventtype": "focus", "interval": 2941, "value": "off", "timestamp": 1515961215472}, {"eventtype": "focus", "interval": 424, "value": "on", "timestamp": 1515961215896}, {"eventtype": "focus", "interval": 107243, "value": "off", "timestamp": 1515961323139}, {"eventtype": "focus", "interval": 31661, "value": "on", "timestamp": 1515961354800}, {"eventtype": "focus", "interval": 173772, "value": "off", "timestamp": 1515961528572}, {"eventtype": "focus", "interval": 7044, "value": "on", "timestamp": 1515961535616}, {"eventtype": "focus", "interval": 127469, "value": "off", "timestamp": 1515961663085}, {"eventtype": "focus", "interval": 13305, "value": "on", "timestamp": 1515961676390}, {"eventtype": "focus", "interval": 6573, "value": "off", "timestamp": 1515961682963}, {"eventtype": "focus", "interval": 35581, "value": "on", "timestamp": 1515961718544}, {"eventtype": "focus", "interval": 87102, "value": "off", "timestamp": 1515961805646}, {"eventtype": "focus", "interval": 17077, "value": "on", "timestamp": 1515961822723}, {"eventtype": "focus", "interval": 270328, "value": "off", "timestamp": 1515962093051}, {"eventtype": "focus", "interval": 32352, "value": "on", "timestamp": 1515962125403}, {"eventtype": "focus", "interval": 100092, "value": "off", "timestamp": 1515962225495}, {"eventtype": "focus", "interval": 4852, "value": "on", "timestamp": 1515962230347}, {"eventtype": "focus", "interval": 216552, "value": "off", "timestamp": 1515962446899}, {"eventtype": "focus", "interval": 9545, "value": "on", "timestamp": 1515962456444}, {"eventtype": "focus", "interval": 111554, "value": "off", "timestamp": 1515962567998}, {"eventtype": "focus", "interval": 18294, "value": "on", "timestamp": 1515962586292}], "data": [{"current_trial": 0, "trialdata": {"rt": 8643, "trial_type": "text", "internal_node_id": "0.0-0.0", "time_elapsed": 8663, "key_press": 32, "type": "INSTRUCTIONS", "trial_index": 0}, "uniqueid": "MTK1545:39ZSFO5CA93RYWYETDNU37N8JFOUJ0", "dateTime": 1515960541789}, {"current_trial": 1, "trialdata": {"rt": 20825, "trial_type": "text", "internal_node_id": "0.0-1.0", "time_elapsed": 29496, "key_press": 174, "type": "INSTRUCTIONS", "trial_index": 1}, "uniqueid": "MTK1545:39ZSFO5CA93RYWYETDNU37N8JFOUJ0", "dateTime": 1515960562618}, {"current_trial": 2, "trialdata": {"rt": [13599], "trial_type": "audio-test", "responses": ["ocean"], "internal_node_id": "0.0-2.0", "time_elapsed": 43159, "type": "AUDIO_TEST", "trial_index": 2}, "uniqueid": "MTK1545:39ZSFO5CA93RYWYETDNU37N8JFOUJ0", "dateTime": 1515960576281}, {"current_trial": 3, "trialdata": {"rt": [10785], "trial_type": "audio-test", "responses": ["crystal"], "internal_node_id": "0.0-3.0", "time_elapsed": 53964, "type": "AUDIO_TEST", "trial_index": 3}, "uniqueid": "MTK1545:39ZSFO5CA93RYWYETDNU37N8JFOUJ0", "dateTime": 1515960587086}, {"current_trial": 4, "trialdata": {"rt": [5240], "trial_type": "audio-test", "responses": ["spice"], "internal_node_id": "0.0-4.0", "time_elapsed": 59224, "type": "AUDIO_TEST", "trial_index": 4}, "uniqueid": "MTK1545:39ZSFO5CA93RYWYETDNU37N8JFOUJ0", "dateTime": 1515960592346}, {"current_trial": 5, "trialdata": {"rt": 45957, "trial_type": "survey-text", "responses": "{\"Q0\":\"10:45\",\"Q1\":\"7:15\",\"Q2\":\"5\"}", "internal_node_id": "0.0-5.0", "time_elapsed": 105949, "type": "SLEEP_SURVEY", "trial_index": 5}, "uniqueid": "MTK1545:39ZSFO5CA93RYWYETDNU37N8JFOUJ0", "dateTime": 1515960639071}, {"current_trial": 6, "trialdata": {"rt": 21772, "trial_type": "text", "internal_node_id": "0.0-6.0", "time_elapsed": 128725, "key_press": 32, "type": "INSTRUCTIONS", "trial_index": 6}, "uniqueid": "MTK1545:39ZSFO5CA93RYWYETDNU37N8JFOUJ0", "dateTime": 1515960661847}, {"current_trial": 7, "trialdata": {"rt": 8795, "trial_type": "text", "internal_node_id": "0.0-7.0", "time_elapsed": 138020, "key_press": 32, "type": "INSTRUCTIONS", "trial_index": 7}, "uniqueid": "MTK1545:39ZSFO5CA93RYWYETDNU37N8JFOUJ0", "dateTime": 1515960671142}, {"current_trial": 8, "trialdata": {"rt": 7196, "trial_type": "text", "internal_node_id": "0.0-8.0", "time_elapsed": 145720, "key_press": 32, "type": "INSTRUCTIONS", "trial_index": 8}, "uniqueid": "MTK1545:39ZSFO5CA93RYWYETDNU37N8JFOUJ0", "dateTime": 1515960678842}, {"current_trial": 9, "trialdata": {"rt": [2236, 3868, 5624, 7096, 8988, 11196, 14636, 16164], "trial_type": "math-distractor", "key_times": [1284, 1464, 2236, 3428, 3692, 3868, 5488, 5624, 6752, 6928, 7096, 8588, 8856, 8988, 10788, 10984, 11196, 13324, 14452, 14636, 15852, 16004, 16164, 17408, 17980], "responses": ["11", "15", "6", "11", "15", "15", "17", "14"], "num2": [5, 5, 2, 6, 4, 2, 6, 5, 6], "num3": [1, 1, 3, 1, 9, 9, 7, 7, 5], "conditions": [18, 1200, "v", 18000], "internal_node_id": "0.0-9.0", "key_presses": [49, 49, 13, 49, 53, 13, 54, 13, 49, 49, 13, 49, 53, 13, 49, 53, 13, 49, 55, 13, 49, 52, 13, 49, 56], "trial": 0, "time_elapsed": 164740, "type": "DISTRACTOR", "trial_index": 9, "num1": [5, 9, 1, 4, 2, 4, 3, 2, 7]}, "uniqueid": "MTK1545:39ZSFO5CA93RYWYETDNU37N8JFOUJ0", "dateTime": 1515960697862}, {"current_trial": 10, "trialdata": {"rt": -1, "trial_type": "single-stim", "stimulus": "<p id=\"stim\">10</p>", "internal_node_id": "0.0-10.0-0.0", "time_elapsed": 167744, "key_press": -1, "trial_index": 10}, "uniqueid": "MTK1545:39ZSFO5CA93RYWYETDNU37N8JFOUJ0", "dateTime": 1515960700866}, {"current_trial": 11, "trialdata": {"rt": -1, "trial_type": "single-stim", "stimulus": "<p id=\"stim\">9</p>", "internal_node_id": "0.0-10.0-1.0", "time_elapsed": 168748, "key_press": -1, "trial_index": 11}, "uniqueid": "MTK1545:39ZSFO5CA93RYWYETDNU37N8JFOUJ0", "dateTime": 1515960701870}, {"current_trial": 12, "trialdata": {"rt": -1, "trial_type": "single-stim", "stimulus": "<p id=\"stim\">8</p>", "internal_node_id": "0.0-10.0-2.0", "time_elapsed": 169752, "key_press": -1, "trial_index": 12}, "uniqueid": "MTK1545:39ZSFO5CA93RYWYETDNU37N8JFOUJ0", "dateTime": 1515960702874}, {"current_trial": 13, "trialdata": {"rt": -1, "trial_type": "single-stim", "stimulus": "<p id=\"stim\">7</p>", "internal_node_id": "0.0-10.0-3.0", "time_elapsed": 170752, "key_press": -1, "trial_index": 13}, "uniqueid": "MTK1545:39ZSFO5CA93RYWYETDNU37N8JFOUJ0", "dateTime": 1515960703874}, {"current_trial": 14, "trialdata": {"rt": -1, "trial_type": "single-stim", "stimulus": "<p id=\"stim\">6</p>", "internal_node_id": "0.0-10.0-4.0", "time_elapsed": 171757, "key_press": -1, "trial_index": 14}, "uniqueid": "MTK1545:39ZSFO5CA93RYWYETDNU37N8JFOUJ0", "dateTime": 1515960704879}, {"current_trial": 15, "trialdata": {"rt": -1, "trial_type": "single-stim", "stimulus": "<p id=\"stim\">5</p>", "internal_node_id": "0.0-10.0-5.0", "time_elapsed": 172760, "key_press": -1, "trial_index": 15}, "uniqueid": "MTK1545:39ZSFO5CA93RYWYETDNU37N8JFOUJ0", "dateTime": 1515960705882}, {"current_trial": 16, "trialdata": {"rt": -1, "trial_type": "single-stim", "stimulus": "<p id=\"stim\">4</p>", "internal_node_id": "0.0-10.0-6.0", "time_elapsed": 173760, "key_press": -1, "trial_index": 16}, "uniqueid": "MTK1545:39ZSFO5CA93RYWYETDNU37N8JFOUJ0", "dateTime": 1515960706882}, {"current_trial": 17, "trialdata": {"rt": -1, "trial_type": "single-stim", "stimulus": "<p id=\"stim\">3</p>", "internal_node_id": "0.0-10.0-7.0", "time_elapsed": 174760, "key_press": -1, "trial_index": 17}, "uniqueid": "MTK1545:39ZSFO5CA93RYWYETDNU37N8JFOUJ0", "dateTime": 1515960707882}, {"current_trial": 18, "trialdata": {"rt": -1, "trial_type": "single-stim", "stimulus": "<p id=\"stim\">2</p>", "internal_node_id": "0.0-10.0-8.0", "time_elapsed": 175761, "key_press": -1, "trial_index": 18}, "uniqueid": "MTK1545:39ZSFO5CA93RYWYETDNU37N8JFOUJ0", "dateTime": 1515960708883}, {"current_trial": 19, "trialdata": {"rt": -1, "trial_type": "single-stim", "stimulus": "<p id=\"stim\">1</p>", "internal_node_id": "0.0-10.0-9.0", "time_elapsed": 176764, "key_press": -1, "trial_index": 19}, "uniqueid": "MTK1545:39ZSFO5CA93RYWYETDNU37N8JFOUJ0", "dateTime": 1515960709886}, {"current_trial": 20, "trialdata": {"rt": -1, "trial_type": "single-stim", "stimulus": "<p id=\"stim\">+</p>", "internal_node_id": "0.0-11.0-0.0", "time_elapsed": 178265, "key_press": -1, "type": "FIXATION", "trial_index": 20}, "uniqueid": "MTK1545:39ZSFO5CA93RYWYETDNU37N8JFOUJ0", "dateTime": 1515960711387}, {"current_trial": 21, "trialdata": {"rt": -1, "trial_type": "single-stim", "word": "cashew", "stimulus": "<p id=\"stim\">CASHEW</p>", "conditions": [18, 1200, "v", 18000], "internal_node_id": "0.0-12.0", "trial": 0, "time_elapsed": 179468, "serialpos": 0, "key_press": -1, "wordID": 252, "type": "PRES_VIS", "trial_index": 21}, "uniqueid": "MTK1545:39ZSFO5CA93RYWYETDNU37N8JFOUJ0", "dateTime": 1515960712590}, {"current_trial": 22, "trialdata": {"rt": -1, "trial_type": "single-stim", "word": "binder", "stimulus": "<p id=\"stim\">BINDER</p>", "conditions": [18, 1200, "v", 18000], "internal_node_id": "0.0-13.0", "trial": 0, "time_elapsed": 181588, "serialpos": 1, "key_press": -1, "wordID": 126, "type": "PRES_VIS", "trial_index": 22}, "uniqueid": "MTK1545:39ZSFO5CA93RYWYETDNU37N8JFOUJ0", "dateTime": 1515960714710}, {"current_trial": 23, "trialdata": {"rt": -1, "trial_type": "single-stim", "word": "money", "stimulus": "<p id=\"stim\">MONEY</p>", "conditions": [18, 1200, "v", 18000], "internal_node_id": "0.0-14.0", "trial": 0, "time_elapsed": 183892, "serialpos": 2, "key_press": -1, "wordID": 907, "type": "PRES_VIS", "trial_index": 23}, "uniqueid": "MTK1545:39ZSFO5CA93RYWYETDNU37N8JFOUJ0", "dateTime": 1515960717014}, {"current_trial": 24, "trialdata": {"rt": -1, "trial_type": "single-stim", "word": "dancer", "stimulus": "<p id=\"stim\">DANCER</p>", "conditions": [18, 1200, "v", 18000], "internal_node_id": "0.0-15.0", "trial": 0, "time_elapsed": 186248, "serialpos": 3, "key_press": -1, "wordID": 436, "type": "PRES_VIS", "trial_index": 24}, "uniqueid": "MTK1545:39ZSFO5CA93RYWYETDNU37N8JFOUJ0", "dateTime": 1515960719370}, {"current_trial": 25, "trialdata": {"rt": -1, "trial_type": "single-stim", "word": "rattle", "stimulus": "<p id=\"stim\">RATTLE</p>", "conditions": [18, 1200, "v", 18000], "internal_node_id": "0.0-16.0", "trial": 0, "time_elapsed": 188400, "serialpos": 4, "key_press": -1, "wordID": 1169, "type": "PRES_VIS", "trial_index": 25}, "uniqueid": "MTK1545:39ZSFO5CA93RYWYETDNU37N8JFOUJ0", "dateTime": 1515960721522}, {"current_trial": 26, "trialdata": {"rt": -1, "trial_type": "single-stim", "word": "crayon", "stimulus": "<p id=\"stim\">CRAYON</p>", "conditions": [18, 1200, "v", 18000], "internal_node_id": "0.0-17.0", "trial": 0, "time_elapsed": 190638, "serialpos": 5, "key_press": -1, "wordID": 400, "type": "PRES_VIS", "trial_index": 26}, "uniqueid": "MTK1545:39ZSFO5CA93RYWYETDNU37N8JFOUJ0", "dateTime": 1515960723760}, {"current_trial": 27, "trialdata": {"rt": -1, "trial_type": "single-stim", "word": "quarter", "stimulus": "<p id=\"stim\">QUARTER</p>", "conditions": [18, 1200, "v", 18000], "internal_node_id": "0.0-18.0", "trial": 0, "time_elapsed": 192658, "serialpos": 6, "key_press": -1, "wordID": 1147, "type": "PRES_VIS", "trial_index": 27}, "uniqueid": "MTK1545:39ZSFO5CA93RYWYETDNU37N8JFOUJ0", "dateTime": 1515960725780}, {"current_trial": 28, "trialdata": {"rt": -1, "trial_type": "single-stim", "word": "blueprint", "stimulus": "<p id=\"stim\">BLUEPRINT</p>", "conditions": [18, 1200, "v", 18000], "internal_node_id": "0.0-19.0", "trial": 0, "time_elapsed": 194837, "serialpos": 7, "key_press": -1, "wordID": 141, "type": "PRES_VIS", "trial_index": 28}, "uniqueid": "MTK1545:39ZSFO5CA93RYWYETDNU37N8JFOUJ0", "dateTime": 1515960727959}, {"current_trial": 29, "trialdata": {"rt": -1, "trial_type": "single-stim", "word": "shrub", "stimulus": "<p id=\"stim\">SHRUB</p>", "conditions": [18, 1200, "v", 18000], "internal_node_id": "0.0-20.0", "trial": 0, "time_elapsed": 197146, "serialpos": 8, "key_press": -1, "wordID": 1298, "type": "PRES_VIS", "trial_index": 29}, "uniqueid": "MTK1545:39ZSFO5CA93RYWYETDNU37N8JFOUJ0", "dateTime": 1515960730268}, {"current_trial": 30, "trialdata": {"rt": -1, "trial_type": "single-stim", "word": "bouquet", "stimulus": "<p id=\"stim\">BOUQUET</p>", "conditions": [18, 1200, "v", 18000], "internal_node_id": "0.0-21.0", "trial": 0, "time_elapsed": 199238, "serialpos": 9, "key_press": -1, "wordID": 156, "type": "PRES_VIS", "trial_index": 30}, "uniqueid": "MTK1545:39ZSFO5CA93RYWYETDNU37N8JFOUJ0", "dateTime": 1515960732360}, {"current_trial": 31, "trialdata": {"rt": -1, "trial_type": "single-stim", "word": "sticker", "stimulus": "<p id=\"stim\">STICKER</p>", "conditions": [18, 1200, "v", 18000], "internal_node_id": "0.0-22.0", "trial": 0, "time_elapsed": 201338, "serialpos": 10, "key_press": -1, "wordID": 1381, "type": "PRES_VIS", "trial_index": 31}, "uniqueid": "MTK1545:39ZSFO5CA93RYWYETDNU37N8JFOUJ0", "dateTime": 1515960734460}, {"current_trial": 32, "trialdata": {"rt": -1, "trial_type": "single-stim", "word": "stone", "stimulus": "<p id=\"stim\">STONE</p>", "conditions": [18, 1200, "v", 18000], "internal_node_id": "0.0-23.0", "trial": 0, "time_elapsed": 203738, "serialpos": 11, "key_press": -1, "wordID": 1384, "type": "PRES_VIS", "trial_index": 32}, "uniqueid": "MTK1545:39ZSFO5CA93RYWYETDNU37N8JFOUJ0", "dateTime": 1515960736860}, {"current_trial": 33, "trialdata": {"rt": -1, "trial_type": "single-stim", "word": "bug", "stimulus": "<p id=\"stim\">BUG</p>", "conditions": [18, 1200, "v", 18000], "internal_node_id": "0.0-24.0", "trial": 0, "time_elapsed": 205783, "serialpos": 12, "key_press": -1, "wordID": 186, "type": "PRES_VIS", "trial_index": 33}, "uniqueid": "MTK1545:39ZSFO5CA93RYWYETDNU37N8JFOUJ0", "dateTime": 1515960738905}, {"current_trial": 34, "trialdata": {"rt": -1, "trial_type": "single-stim", "word": "airport", "stimulus": "<p id=\"stim\">AIRPORT</p>", "conditions": [18, 1200, "v", 18000], "internal_node_id": "0.0-25.0", "trial": 0, "time_elapsed": 208135, "serialpos": 13, "key_press": -1, "wordID": 12, "type": "PRES_VIS", "trial_index": 34}, "uniqueid": "MTK1545:39ZSFO5CA93RYWYETDNU37N8JFOUJ0", "dateTime": 1515960741257}, {"current_trial": 35, "trialdata": {"rt": -1, "trial_type": "single-stim", "word": "pudding", "stimulus": "<p id=\"stim\">PUDDING</p>", "conditions": [18, 1200, "v", 18000], "internal_node_id": "0.0-26.0", "trial": 0, "time_elapsed": 210419, "serialpos": 14, "key_press": -1, "wordID": 1138, "type": "PRES_VIS", "trial_index": 35}, "uniqueid": "MTK1545:39ZSFO5CA93RYWYETDNU37N8JFOUJ0", "dateTime": 1515960743541}, {"current_trial": 36, "trialdata": {"rt": -1, "trial_type": "single-stim", "word": "cyclone", "stimulus": "<p id=\"stim\">CYCLONE</p>", "conditions": [18, 1200, "v", 18000], "internal_node_id": "0.0-27.0", "trial": 0, "time_elapsed": 212507, "serialpos": 15, "key_press": -1, "wordID": 430, "type": "PRES_VIS", "trial_index": 36}, "uniqueid": "MTK1545:39ZSFO5CA93RYWYETDNU37N8JFOUJ0", "dateTime": 1515960745629}, {"current_trial": 37, "trialdata": {"rt": -1, "trial_type": "single-stim", "word": "stomach", "stimulus": "<p id=\"stim\">STOMACH</p>", "conditions": [18, 1200, "v", 18000], "internal_node_id": "0.0-28.0", "trial": 0, "time_elapsed": 214748, "serialpos": 16, "key_press": -1, "wordID": 1383, "type": "PRES_VIS", "trial_index": 37}, "uniqueid": "MTK1545:39ZSFO5CA93RYWYETDNU37N8JFOUJ0", "dateTime": 1515960747870}, {"current_trial": 38, "trialdata": {"rt": -1, "trial_type": "single-stim", "word": "catcher", "stimulus": "<p id=\"stim\">CATCHER</p>", "conditions": [18, 1200, "v", 18000], "internal_node_id": "0.0-29.0", "trial": 0, "time_elapsed": 217079, "serialpos": 17, "key_press": -1, "wordID": 257, "type": "PRES_VIS", "trial_index": 38}, "uniqueid": "MTK1545:39ZSFO5CA93RYWYETDNU37N8JFOUJ0", "dateTime": 1515960750201}, {"current_trial": 39, "trialdata": {"rt": -1, "trial_type": "single-stim", "stimulus": "", "internal_node_id": "0.0-30.0-0.0", "time_elapsed": 219408, "key_press": -1, "type": "PRE_RECALL_DELAY", "trial_index": 39}, "uniqueid": "MTK1545:39ZSFO5CA93RYWYETDNU37N8JFOUJ0", "dateTime": 1515960752530}, {"current_trial": 40, "trialdata": {"rt": -1000, "trial_type": "single-audio", "stimulus": "/static/audio/400Hz.wav", "internal_node_id": "0.0-31.0", "time_elapsed": 219915, "key_press": -1, "type": "PRE_RECALL_ALERT", "trial_index": 40}, "uniqueid": "MTK1545:39ZSFO5CA93RYWYETDNU37N8JFOUJ0", "dateTime": 1515960753037}, {"current_trial": 41, "trialdata": {"rt": [3254, 5301, 8914, 11459, 13221, 14818, 25758, 44664], "recwords": ["crayon", "binder", "shrub", "dancer", "sticker", "cashew", "", ""], "key_times": [1610, 1783, 1950, 2240, 2398, 2581, 3254, 4514, 4669, 4818, 4930, 5083, 5147, 5301, 7569, 7688, 7819, 7967, 8164, 8914, 9665, 9738, 10014, 10138, 10329, 10420, 11459, 11854, 12064, 12220, 12384, 12537, 12777, 12904, 13221, 13539, 13608, 13753, 13964, 14272, 14355, 14818, 25758, 44664], "trial_type": "free-recall", "conditions": [18, 1200, "v", 18000], "internal_node_id": "0.0-32.0-0.0", "key_presses": [67, 82, 65, 89, 79, 78, 13, 66, 73, 78, 68, 69, 82, 13, 83, 72, 82, 85, 66, 13, 68, 65, 78, 67, 69, 82, 13, 83, 84, 73, 67, 75, 69, 82, 13, 67, 65, 83, 72, 69, 87, 13, 13, 32], "trial": 0, "time_elapsed": 279927, "type": "FREE_RECALL", "trial_index": 41}, "uniqueid": "MTK1545:39ZSFO5CA93RYWYETDNU37N8JFOUJ0", "dateTime": 1515960813061}, {"current_trial": 42, "trialdata": {"rt": 1528, "trial_type": "text", "internal_node_id": "0.0-33.0", "time_elapsed": 283468, "key_press": 32, "type": "INSTRUCTIONS", "trial_index": 42}, "uniqueid": "MTK1545:39ZSFO5CA93RYWYETDNU37N8JFOUJ0", "dateTime": 1515960816590}, {"current_trial": 43, "trialdata": {"rt": [2120, 3532, 5188, 7633, 10601, 12437, 14174, 15638, 17234], "trial_type": "math-distractor", "key_times": [1632, 1944, 2120, 3124, 3364, 3532, 4756, 5020, 5188, 7305, 7409, 7633, 10089, 10333, 10601, 11877, 12265, 12437, 13826, 14070, 14174, 15242, 15518, 15638, 16686, 16994, 17234], "responses": ["15", "15", "16", "12", "20", "17", "15", "16", "10"], "num2": [9, 6, 2, 7, 9, 7, 3, 6, 2, 6], "num3": [2, 1, 9, 3, 7, 9, 3, 3, 6, 6], "conditions": [18, 1200, "v", 18000], "internal_node_id": "0.0-34.0", "key_presses": [49, 53, 13, 49, 53, 13, 49, 54, 13, 49, 50, 13, 50, 48, 13, 49, 55, 13, 49, 53, 13, 49, 54, 13, 49, 48, 13], "trial": 1, "time_elapsed": 303479, "type": "DISTRACTOR", "trial_index": 43, "num1": [4, 8, 5, 2, 4, 1, 9, 7, 2, 9]}, "uniqueid": "MTK1545:39ZSFO5CA93RYWYETDNU37N8JFOUJ0", "dateTime": 1515960836601}, {"current_trial": 44, "trialdata": {"rt": -1, "trial_type": "single-stim", "stimulus": "<p id=\"stim\">10</p>", "internal_node_id": "0.0-35.0-0.0", "time_elapsed": 306484, "key_press": -1, "trial_index": 44}, "uniqueid": "MTK1545:39ZSFO5CA93RYWYETDNU37N8JFOUJ0", "dateTime": 1515960839606}, {"current_trial": 45, "trialdata": {"rt": -1, "trial_type": "single-stim", "stimulus": "<p id=\"stim\">9</p>", "internal_node_id": "0.0-35.0-1.0", "time_elapsed": 307488, "key_press": -1, "trial_index": 45}, "uniqueid": "MTK1545:39ZSFO5CA93RYWYETDNU37N8JFOUJ0", "dateTime": 1515960840610}, {"current_trial": 46, "trialdata": {"rt": 800, "trial_type": "single-stim", "stimulus": "<p id=\"stim\">8</p>", "internal_node_id": "0.0-35.0-2.0", "time_elapsed": 308488, "key_press": 174, "trial_index": 46}, "uniqueid": "MTK1545:39ZSFO5CA93RYWYETDNU37N8JFOUJ0", "dateTime": 1515960841610}, {"current_trial": 47, "trialdata": {"rt": 128, "trial_type": "single-stim", "stimulus": "<p id=\"stim\">7</p>", "internal_node_id": "0.0-35.0-3.0", "time_elapsed": 309492, "key_press": 174, "trial_index": 47}, "uniqueid": "MTK1545:39ZSFO5CA93RYWYETDNU37N8JFOUJ0", "dateTime": 1515960842614}, {"current_trial": 48, "trialdata": {"rt": -1, "trial_type": "single-stim", "stimulus": "<p id=\"stim\">6</p>", "internal_node_id": "0.0-35.0-4.0", "time_elapsed": 310492, "key_press": -1, "trial_index": 48}, "uniqueid": "MTK1545:39ZSFO5CA93RYWYETDNU37N8JFOUJ0", "dateTime": 1515960843614}, {"current_trial": 49, "trialdata": {"rt": -1, "trial_type": "single-stim", "stimulus": "<p id=\"stim\">5</p>", "internal_node_id": "0.0-35.0-5.0", "time_elapsed": 311492, "key_press": -1, "trial_index": 49}, "uniqueid": "MTK1545:39ZSFO5CA93RYWYETDNU37N8JFOUJ0", "dateTime": 1515960844614}, {"current_trial": 50, "trialdata": {"rt": -1, "trial_type": "single-stim", "stimulus": "<p id=\"stim\">4</p>", "internal_node_id": "0.0-35.0-6.0", "time_elapsed": 312493, "key_press": -1, "trial_index": 50}, "uniqueid": "MTK1545:39ZSFO5CA93RYWYETDNU37N8JFOUJ0", "dateTime": 1515960845615}, {"current_trial": 51, "trialdata": {"rt": -1, "trial_type": "single-stim", "stimulus": "<p id=\"stim\">3</p>", "internal_node_id": "0.0-35.0-7.0", "time_elapsed": 313496, "key_press": -1, "trial_index": 51}, "uniqueid": "MTK1545:39ZSFO5CA93RYWYETDNU37N8JFOUJ0", "dateTime": 1515960846618}, {"current_trial": 52, "trialdata": {"rt": -1, "trial_type": "single-stim", "stimulus": "<p id=\"stim\">2</p>", "internal_node_id": "0.0-35.0-8.0", "time_elapsed": 314496, "key_press": -1, "trial_index": 52}, "uniqueid": "MTK1545:39ZSFO5CA93RYWYETDNU37N8JFOUJ0", "dateTime": 1515960847618}, {"current_trial": 53, "trialdata": {"rt": -1, "trial_type": "single-stim", "stimulus": "<p id=\"stim\">1</p>", "internal_node_id": "0.0-35.0-9.0", "time_elapsed": 315496, "key_press": -1, "trial_index": 53}, "uniqueid": "MTK1545:39ZSFO5CA93RYWYETDNU37N8JFOUJ0", "dateTime": 1515960848618}, {"current_trial": 54, "trialdata": {"rt": -1, "trial_type": "single-stim", "stimulus": "<p id=\"stim\">+</p>", "internal_node_id": "0.0-36.0-0.0", "time_elapsed": 316996, "key_press": -1, "type": "FIXATION", "trial_index": 54}, "uniqueid": "MTK1545:39ZSFO5CA93RYWYETDNU37N8JFOUJ0", "dateTime": 1515960850118}, {"current_trial": 55, "trialdata": {"rt": -1, "trial_type": "single-stim", "word": "shirt", "stimulus": "<p id=\"stim\">SHIRT</p>", "conditions": [18, 1200, "v", 18000], "internal_node_id": "0.0-37.0", "trial": 1, "time_elapsed": 318196, "serialpos": 0, "key_press": -1, "wordID": 1286, "type": "PRES_VIS", "trial_index": 55}, "uniqueid": "MTK1545:39ZSFO5CA93RYWYETDNU37N8JFOUJ0", "dateTime": 1515960851318}, {"current_trial": 56, "trialdata": {"rt": -1, "trial_type": "single-stim", "word": "sheriff", "stimulus": "<p id=\"stim\">SHERIFF</p>", "conditions": [18, 1200, "v", 18000], "internal_node_id": "0.0-38.0", "trial": 1, "time_elapsed": 320268, "serialpos": 1, "key_press": -1, "wordID": 1283, "type": "PRES_VIS", "trial_index": 56}, "uniqueid": "MTK1545:39ZSFO5CA93RYWYETDNU37N8JFOUJ0", "dateTime": 1515960853390}, {"current_trial": 57, "trialdata": {"rt": -1, "trial_type": "single-stim", "word": "airplane", "stimulus": "<p id=\"stim\">AIRPLANE</p>", "conditions": [18, 1200, "v", 18000], "internal_node_id": "0.0-39.0", "trial": 1, "time_elapsed": 322441, "serialpos": 2, "key_press": -1, "wordID": 11, "type": "PRES_VIS", "trial_index": 57}, "uniqueid": "MTK1545:39ZSFO5CA93RYWYETDNU37N8JFOUJ0", "dateTime": 1515960855563}, {"current_trial": 58, "trialdata": {"rt": -1, "trial_type": "single-stim", "word": "bureau", "stimulus": "<p id=\"stim\">BUREAU</p>", "conditions": [18, 1200, "v", 18000], "internal_node_id": "0.0-40.0", "trial": 1, "time_elapsed": 324625, "serialpos": 3, "key_press": -1, "wordID": 198, "type": "PRES_VIS", "trial_index": 58}, "uniqueid": "MTK1545:39ZSFO5CA93RYWYETDNU37N8JFOUJ0", "dateTime": 1515960857747}, {"current_trial": 59, "trialdata": {"rt": -1, "trial_type": "single-stim", "word": "vagrant", "stimulus": "<p id=\"stim\">VAGRANT</p>", "conditions": [18, 1200, "v", 18000], "internal_node_id": "0.0-41.0", "trial": 1, "time_elapsed": 326853, "serialpos": 4, "key_press": -1, "wordID": 1543, "type": "PRES_VIS", "trial_index": 59}, "uniqueid": "MTK1545:39ZSFO5CA93RYWYETDNU37N8JFOUJ0", "dateTime": 1515960859975}, {"current_trial": 60, "trialdata": {"rt": -1, "trial_type": "single-stim", "word": "thread", "stimulus": "<p id=\"stim\">THREAD</p>", "conditions": [18, 1200, "v", 18000], "internal_node_id": "0.0-42.0", "trial": 1, "time_elapsed": 328949, "serialpos": 5, "key_press": -1, "wordID": 1459, "type": "PRES_VIS", "trial_index": 60}, "uniqueid": "MTK1545:39ZSFO5CA93RYWYETDNU37N8JFOUJ0", "dateTime": 1515960862071}, {"current_trial": 61, "trialdata": {"rt": -1, "trial_type": "single-stim", "word": "robin", "stimulus": "<p id=\"stim\">ROBIN</p>", "conditions": [18, 1200, "v", 18000], "internal_node_id": "0.0-43.0", "trial": 1, "time_elapsed": 331268, "serialpos": 6, "key_press": -1, "wordID": 1198, "type": "PRES_VIS", "trial_index": 61}, "uniqueid": "MTK1545:39ZSFO5CA93RYWYETDNU37N8JFOUJ0", "dateTime": 1515960864390}, {"current_trial": 62, "trialdata": {"rt": -1, "trial_type": "single-stim", "word": "costume", "stimulus": "<p id=\"stim\">COSTUME</p>", "conditions": [18, 1200, "v", 18000], "internal_node_id": "0.0-44.0", "trial": 1, "time_elapsed": 333286, "serialpos": 7, "key_press": -1, "wordID": 382, "type": "PRES_VIS", "trial_index": 62}, "uniqueid": "MTK1545:39ZSFO5CA93RYWYETDNU37N8JFOUJ0", "dateTime": 1515960866408}, {"current_trial": 63, "trialdata": {"rt": -1, "trial_type": "single-stim", "word": "drug", "stimulus": "<p id=\"stim\">DRUG</p>", "conditions": [18, 1200, "v", 18000], "internal_node_id": "0.0-45.0", "trial": 1, "time_elapsed": 335578, "serialpos": 8, "key_press": -1, "wordID": 500, "type": "PRES_VIS", "trial_index": 63}, "uniqueid": "MTK1545:39ZSFO5CA93RYWYETDNU37N8JFOUJ0", "dateTime": 1515960868700}, {"current_trial": 64, "trialdata": {"rt": -1, "trial_type": "single-stim", "word": "church", "stimulus": "<p id=\"stim\">CHURCH</p>", "conditions": [18, 1200, "v", 18000], "internal_node_id": "0.0-46.0", "trial": 1, "time_elapsed": 337726, "serialpos": 9, "key_press": -1, "wordID": 306, "type": "PRES_VIS", "trial_index": 64}, "uniqueid": "MTK1545:39ZSFO5CA93RYWYETDNU37N8JFOUJ0", "dateTime": 1515960870848}, {"current_trial": 65, "trialdata": {"rt": -1, "trial_type": "single-stim", "word": "garden", "stimulus": "<p id=\"stim\">GARDEN</p>", "conditions": [18, 1200, "v", 18000], "internal_node_id": "0.0-47.0", "trial": 1, "time_elapsed": 339834, "serialpos": 10, "key_press": -1, "wordID": 622, "type": "PRES_VIS", "trial_index": 65}, "uniqueid": "MTK1545:39ZSFO5CA93RYWYETDNU37N8JFOUJ0", "dateTime": 1515960872956}, {"current_trial": 66, "trialdata": {"rt": -1, "trial_type": "single-stim", "word": "staple", "stimulus": "<p id=\"stim\">STAPLE</p>", "conditions": [18, 1200, "v", 18000], "internal_node_id": "0.0-48.0", "trial": 1, "time_elapsed": 341966, "serialpos": 11, "key_press": -1, "wordID": 1370, "type": "PRES_VIS", "trial_index": 66}, "uniqueid": "MTK1545:39ZSFO5CA93RYWYETDNU37N8JFOUJ0", "dateTime": 1515960875088}, {"current_trial": 67, "trialdata": {"rt": -1, "trial_type": "single-stim", "word": "perfume", "stimulus": "<p id=\"stim\">PERFUME</p>", "conditions": [18, 1200, "v", 18000], "internal_node_id": "0.0-49.0", "trial": 1, "time_elapsed": 344110, "serialpos": 12, "key_press": -1, "wordID": 1048, "type": "PRES_VIS", "trial_index": 67}, "uniqueid": "MTK1545:39ZSFO5CA93RYWYETDNU37N8JFOUJ0", "dateTime": 1515960877232}, {"current_trial": 68, "trialdata": {"rt": -1, "trial_type": "single-stim", "word": "palace", "stimulus": "<p id=\"stim\">PALACE</p>", "conditions": [18, 1200, "v", 18000], "internal_node_id": "0.0-50.0", "trial": 1, "time_elapsed": 346414, "serialpos": 13, "key_press": -1, "wordID": 1005, "type": "PRES_VIS", "trial_index": 68}, "uniqueid": "MTK1545:39ZSFO5CA93RYWYETDNU37N8JFOUJ0", "dateTime": 1515960879544}, {"current_trial": 69, "trialdata": {"rt": -1, "trial_type": "single-stim", "word": "lover", "stimulus": "<p id=\"stim\">LOVER</p>", "conditions": [18, 1200, "v", 18000], "internal_node_id": "0.0-51.0", "trial": 1, "time_elapsed": 348554, "serialpos": 14, "key_press": -1, "wordID": 845, "type": "PRES_VIS", "trial_index": 69}, "uniqueid": "MTK1545:39ZSFO5CA93RYWYETDNU37N8JFOUJ0", "dateTime": 1515960881676}, {"current_trial": 70, "trialdata": {"rt": -1, "trial_type": "single-stim", "word": "salmon", "stimulus": "<p id=\"stim\">SALMON</p>", "conditions": [18, 1200, "v", 18000], "internal_node_id": "0.0-52.0", "trial": 1, "time_elapsed": 350814, "serialpos": 15, "key_press": -1, "wordID": 1226, "type": "PRES_VIS", "trial_index": 70}, "uniqueid": "MTK1545:39ZSFO5CA93RYWYETDNU37N8JFOUJ0", "dateTime": 1515960883936}, {"current_trial": 71, "trialdata": {"rt": -1, "trial_type": "single-stim", "word": "lumber", "stimulus": "<p id=\"stim\">LUMBER</p>", "conditions": [18, 1200, "v", 18000], "internal_node_id": "0.0-53.0", "trial": 1, "time_elapsed": 353158, "serialpos": 16, "key_press": -1, "wordID": 847, "type": "PRES_VIS", "trial_index": 71}, "uniqueid": "MTK1545:39ZSFO5CA93RYWYETDNU37N8JFOUJ0", "dateTime": 1515960886280}, {"current_trial": 72, "trialdata": {"rt": -1, "trial_type": "single-stim", "word": "ozone", "stimulus": "<p id=\"stim\">OZONE</p>", "conditions": [18, 1200, "v", 18000], "internal_node_id": "0.0-54.0", "trial": 1, "time_elapsed": 355387, "serialpos": 17, "key_press": -1, "wordID": 995, "type": "PRES_VIS", "trial_index": 72}, "uniqueid": "MTK1545:39ZSFO5CA93RYWYETDNU37N8JFOUJ0", "dateTime": 1515960888509}, {"current_trial": 73, "trialdata": {"rt": -1, "trial_type": "single-stim", "stimulus": "", "internal_node_id": "0.0-55.0-0.0", "time_elapsed": 357743, "key_press": -1, "type": "PRE_RECALL_DELAY", "trial_index": 73}, "uniqueid": "MTK1545:39ZSFO5CA93RYWYETDNU37N8JFOUJ0", "dateTime": 1515960890865}, {"current_trial": 74, "trialdata": {"rt": -1000, "trial_type": "single-audio", "stimulus": "/static/audio/400Hz.wav", "internal_node_id": "0.0-56.0", "time_elapsed": 358245, "key_press": -1, "type": "PRE_RECALL_ALERT", "trial_index": 74}, "uniqueid": "MTK1545:39ZSFO5CA93RYWYETDNU37N8JFOUJ0", "dateTime": 1515960891367}, {"current_trial": 75, "trialdata": {"rt": [3766, 6757, 11012, 12950, 17758], "recwords": ["salmon", "lumber", "ozone", "sheriff", "bureau"], "key_times": [1058, 1143, 1347, 1487, 1948, 3076, 3344, 3551, 3766, 4420, 4942, 5210, 5384, 5537, 6077, 6329, 6438, 6757, 7232, 7758, 8546, 8673, 8786, 8950, 9150, 9975, 11012, 11567, 11764, 11885, 11955, 12226, 12574, 12734, 12950, 13637, 14035, 14279, 14340, 14644, 14866, 15362, 16635, 16833, 17299, 17758], "trial_type": "free-recall", "conditions": [18, 1200, "v", 18000], "internal_node_id": "0.0-57.0-0.0", "key_presses": [83, 65, 76, 77, 78, 8, 79, 78, 13, 75, 8, 76, 85, 77, 66, 69, 82, 13, 90, 8, 79, 90, 79, 78, 69, 16, 13, 83, 72, 69, 82, 73, 70, 70, 13, 66, 85, 82, 69, 85, 65, 8, 8, 65, 85, 13], "trial": 1, "time_elapsed": 418252, "type": "FREE_RECALL", "trial_index": 75}, "uniqueid": "MTK1545:39ZSFO5CA93RYWYETDNU37N8JFOUJ0", "dateTime": 1515960951382}, {"current_trial": 76, "trialdata": {"rt": 8806, "trial_type": "text", "internal_node_id": "0.0-58.0", "time_elapsed": 429067, "key_press": 32, "type": "INSTRUCTIONS", "trial_index": 76}, "uniqueid": "MTK1545:39ZSFO5CA93RYWYETDNU37N8JFOUJ0", "dateTime": 1515960962189}, {"current_trial": 77, "trialdata": {"rt": [2309, 4765, 7398, 10170], "trial_type": "math-distractor", "key_times": [1644, 2037, 2309, 4029, 4561, 4765, 7014, 7254, 7398, 9634, 9794, 10170, 11786], "responses": ["17", "13", "15", "18"], "num2": [9, 7, 2, 9, 4], "num3": [3, 5, 9, 1, 9], "conditions": [12, 800, "v", 12000], "internal_node_id": "0.0-59.0", "key_presses": [49, 55, 13, 49, 51, 13, 49, 53, 13, 49, 56, 13, 49], "trial": 2, "time_elapsed": 442073, "type": "DISTRACTOR", "trial_index": 77, "num1": [5, 1, 4, 8, 2]}, "uniqueid": "MTK1545:39ZSFO5CA93RYWYETDNU37N8JFOUJ0", "dateTime": 1515960975195}, {"current_trial": 78, "trialdata": {"rt": -1, "trial_type": "single-stim", "stimulus": "<p id=\"stim\">10</p>", "internal_node_id": "0.0-60.0-0.0", "time_elapsed": 445077, "key_press": -1, "trial_index": 78}, "uniqueid": "MTK1545:39ZSFO5CA93RYWYETDNU37N8JFOUJ0", "dateTime": 1515960978199}, {"current_trial": 79, "trialdata": {"rt": -1, "trial_type": "single-stim", "stimulus": "<p id=\"stim\">9</p>", "internal_node_id": "0.0-60.0-1.0", "time_elapsed": 446078, "key_press": -1, "trial_index": 79}, "uniqueid": "MTK1545:39ZSFO5CA93RYWYETDNU37N8JFOUJ0", "dateTime": 1515960979200}, {"current_trial": 80, "trialdata": {"rt": -1, "trial_type": "single-stim", "stimulus": "<p id=\"stim\">8</p>", "internal_node_id": "0.0-60.0-2.0", "time_elapsed": 447078, "key_press": -1, "trial_index": 80}, "uniqueid": "MTK1545:39ZSFO5CA93RYWYETDNU37N8JFOUJ0", "dateTime": 1515960980200}, {"current_trial": 81, "trialdata": {"rt": -1, "trial_type": "single-stim", "stimulus": "<p id=\"stim\">7</p>", "internal_node_id": "0.0-60.0-3.0", "time_elapsed": 448082, "key_press": -1, "trial_index": 81}, "uniqueid": "MTK1545:39ZSFO5CA93RYWYETDNU37N8JFOUJ0", "dateTime": 1515960981204}, {"current_trial": 82, "trialdata": {"rt": -1, "trial_type": "single-stim", "stimulus": "<p id=\"stim\">6</p>", "internal_node_id": "0.0-60.0-4.0", "time_elapsed": 449082, "key_press": -1, "trial_index": 82}, "uniqueid": "MTK1545:39ZSFO5CA93RYWYETDNU37N8JFOUJ0", "dateTime": 1515960982204}, {"current_trial": 83, "trialdata": {"rt": -1, "trial_type": "single-stim", "stimulus": "<p id=\"stim\">5</p>", "internal_node_id": "0.0-60.0-5.0", "time_elapsed": 450090, "key_press": -1, "trial_index": 83}, "uniqueid": "MTK1545:39ZSFO5CA93RYWYETDNU37N8JFOUJ0", "dateTime": 1515960983212}, {"current_trial": 84, "trialdata": {"rt": -1, "trial_type": "single-stim", "stimulus": "<p id=\"stim\">4</p>", "internal_node_id": "0.0-60.0-6.0", "time_elapsed": 451094, "key_press": -1, "trial_index": 84}, "uniqueid": "MTK1545:39ZSFO5CA93RYWYETDNU37N8JFOUJ0", "dateTime": 1515960984216}, {"current_trial": 85, "trialdata": {"rt": -1, "trial_type": "single-stim", "stimulus": "<p id=\"stim\">3</p>", "internal_node_id": "0.0-60.0-7.0", "time_elapsed": 452095, "key_press": -1, "trial_index": 85}, "uniqueid": "MTK1545:39ZSFO5CA93RYWYETDNU37N8JFOUJ0", "dateTime": 1515960985217}, {"current_trial": 86, "trialdata": {"rt": -1, "trial_type": "single-stim", "stimulus": "<p id=\"stim\">2</p>", "internal_node_id": "0.0-60.0-8.0", "time_elapsed": 453095, "key_press": -1, "trial_index": 86}, "uniqueid": "MTK1545:39ZSFO5CA93RYWYETDNU37N8JFOUJ0", "dateTime": 1515960986217}, {"current_trial": 87, "trialdata": {"rt": -1, "trial_type": "single-stim", "stimulus": "<p id=\"stim\">1</p>", "internal_node_id": "0.0-60.0-9.0", "time_elapsed": 454095, "key_press": -1, "trial_index": 87}, "uniqueid": "MTK1545:39ZSFO5CA93RYWYETDNU37N8JFOUJ0", "dateTime": 1515960987217}, {"current_trial": 88, "trialdata": {"rt": -1, "trial_type": "single-stim", "stimulus": "<p id=\"stim\">+</p>", "internal_node_id": "0.0-61.0-0.0", "time_elapsed": 455595, "key_press": -1, "type": "FIXATION", "trial_index": 88}, "uniqueid": "MTK1545:39ZSFO5CA93RYWYETDNU37N8JFOUJ0", "dateTime": 1515960988717}, {"current_trial": 89, "trialdata": {"rt": -1, "trial_type": "single-stim", "word": "handbag", "stimulus": "<p id=\"stim\">HANDBAG</p>", "conditions": [12, 800, "v", 12000], "internal_node_id": "0.0-62.0", "trial": 2, "time_elapsed": 456395, "serialpos": 0, "key_press": -1, "wordID": 683, "type": "PRES_VIS", "trial_index": 89}, "uniqueid": "MTK1545:39ZSFO5CA93RYWYETDNU37N8JFOUJ0", "dateTime": 1515960989517}, {"current_trial": 90, "trialdata": {"rt": -1, "trial_type": "single-stim", "word": "robber", "stimulus": "<p id=\"stim\">ROBBER</p>", "conditions": [12, 800, "v", 12000], "internal_node_id": "0.0-63.0", "trial": 2, "time_elapsed": 458043, "serialpos": 1, "key_press": -1, "wordID": 1196, "type": "PRES_VIS", "trial_index": 90}, "uniqueid": "MTK1545:39ZSFO5CA93RYWYETDNU37N8JFOUJ0", "dateTime": 1515960991165}, {"current_trial": 91, "trialdata": {"rt": -1, "trial_type": "single-stim", "word": "burglar", "stimulus": "<p id=\"stim\">BURGLAR</p>", "conditions": [12, 800, "v", 12000], "internal_node_id": "0.0-64.0", "trial": 2, "time_elapsed": 459783, "serialpos": 2, "key_press": -1, "wordID": 199, "type": "PRES_VIS", "trial_index": 91}, "uniqueid": "MTK1545:39ZSFO5CA93RYWYETDNU37N8JFOUJ0", "dateTime": 1515960992905}, {"current_trial": 92, "trialdata": {"rt": -1, "trial_type": "single-stim", "word": "spouse", "stimulus": "<p id=\"stim\">SPOUSE</p>", "conditions": [12, 800, "v", 12000], "internal_node_id": "0.0-65.0", "trial": 2, "time_elapsed": 461640, "serialpos": 3, "key_press": -1, "wordID": 1357, "type": "PRES_VIS", "trial_index": 92}, "uniqueid": "MTK1545:39ZSFO5CA93RYWYETDNU37N8JFOUJ0", "dateTime": 1515960994762}, {"current_trial": 93, "trialdata": {"rt": -1, "trial_type": "single-stim", "word": "bike", "stimulus": "<p id=\"stim\">BIKE</p>", "conditions": [12, 800, "v", 12000], "internal_node_id": "0.0-66.0", "trial": 2, "time_elapsed": 463592, "serialpos": 4, "key_press": -1, "wordID": 124, "type": "PRES_VIS", "trial_index": 93}, "uniqueid": "MTK1545:39ZSFO5CA93RYWYETDNU37N8JFOUJ0", "dateTime": 1515960996714}, {"current_trial": 94, "trialdata": {"rt": -1, "trial_type": "single-stim", "word": "sphinx", "stimulus": "<p id=\"stim\">SPHINX</p>", "conditions": [12, 800, "v", 12000], "internal_node_id": "0.0-67.0", "trial": 2, "time_elapsed": 465552, "serialpos": 5, "key_press": -1, "wordID": 1348, "type": "PRES_VIS", "trial_index": 94}, "uniqueid": "MTK1545:39ZSFO5CA93RYWYETDNU37N8JFOUJ0", "dateTime": 1515960998674}, {"current_trial": 95, "trialdata": {"rt": -1, "trial_type": "single-stim", "word": "empire", "stimulus": "<p id=\"stim\">EMPIRE</p>", "conditions": [12, 800, "v", 12000], "internal_node_id": "0.0-68.0", "trial": 2, "time_elapsed": 467420, "serialpos": 6, "key_press": -1, "wordID": 529, "type": "PRES_VIS", "trial_index": 95}, "uniqueid": "MTK1545:39ZSFO5CA93RYWYETDNU37N8JFOUJ0", "dateTime": 1515961000542}, {"current_trial": 96, "trialdata": {"rt": -1, "trial_type": "single-stim", "word": "scarecrow", "stimulus": "<p id=\"stim\">SCARECROW</p>", "conditions": [12, 800, "v", 12000], "internal_node_id": "0.0-69.0", "trial": 2, "time_elapsed": 469251, "serialpos": 7, "key_press": -1, "wordID": 1244, "type": "PRES_VIS", "trial_index": 96}, "uniqueid": "MTK1545:39ZSFO5CA93RYWYETDNU37N8JFOUJ0", "dateTime": 1515961002373}, {"current_trial": 97, "trialdata": {"rt": -1, "trial_type": "single-stim", "word": "swimmer", "stimulus": "<p id=\"stim\">SWIMMER</p>", "conditions": [12, 800, "v", 12000], "internal_node_id": "0.0-70.0", "trial": 2, "time_elapsed": 471159, "serialpos": 8, "key_press": -1, "wordID": 1419, "type": "PRES_VIS", "trial_index": 97}, "uniqueid": "MTK1545:39ZSFO5CA93RYWYETDNU37N8JFOUJ0", "dateTime": 1515961004281}, {"current_trial": 98, "trialdata": {"rt": -1, "trial_type": "single-stim", "word": "worker", "stimulus": "<p id=\"stim\">WORKER</p>", "conditions": [12, 800, "v", 12000], "internal_node_id": "0.0-71.0", "trial": 2, "time_elapsed": 472799, "serialpos": 9, "key_press": -1, "wordID": 1620, "type": "PRES_VIS", "trial_index": 98}, "uniqueid": "MTK1545:39ZSFO5CA93RYWYETDNU37N8JFOUJ0", "dateTime": 1515961005921}, {"current_trial": 99, "trialdata": {"rt": -1, "trial_type": "single-stim", "word": "mop", "stimulus": "<p id=\"stim\">MOP</p>", "conditions": [12, 800, "v", 12000], "internal_node_id": "0.0-72.0", "trial": 2, "time_elapsed": 474511, "serialpos": 10, "key_press": -1, "wordID": 915, "type": "PRES_VIS", "trial_index": 99}, "uniqueid": "MTK1545:39ZSFO5CA93RYWYETDNU37N8JFOUJ0", "dateTime": 1515961007633}, {"current_trial": 100, "trialdata": {"rt": -1, "trial_type": "single-stim", "word": "briefcase", "stimulus": "<p id=\"stim\">BRIEFCASE</p>", "conditions": [12, 800, "v", 12000], "internal_node_id": "0.0-73.0", "trial": 2, "time_elapsed": 476431, "serialpos": 11, "key_press": -1, "wordID": 174, "type": "PRES_VIS", "trial_index": 100}, "uniqueid": "MTK1545:39ZSFO5CA93RYWYETDNU37N8JFOUJ0", "dateTime": 1515961009553}, {"current_trial": 101, "trialdata": {"rt": -1, "trial_type": "single-stim", "stimulus": "", "internal_node_id": "0.0-74.0-0.0", "time_elapsed": 478926, "key_press": -1, "type": "PRE_RECALL_DELAY", "trial_index": 101}, "uniqueid": "MTK1545:39ZSFO5CA93RYWYETDNU37N8JFOUJ0", "dateTime": 1515961012048}, {"current_trial": 102, "trialdata": {"rt": -1000, "trial_type": "single-audio", "stimulus": "/static/audio/400Hz.wav", "internal_node_id": "0.0-75.0", "time_elapsed": 479429, "key_press": -1, "type": "PRE_RECALL_ALERT", "trial_index": 102}, "uniqueid": "MTK1545:39ZSFO5CA93RYWYETDNU37N8JFOUJ0", "dateTime": 1515961012551}, {"current_trial": 103, "trialdata": {"rt": [4728, 7674, 26800], "recwords": ["scarecrow", "handbag", "ozone"], "key_times": [1136, 1296, 1402, 1608, 1716, 1926, 2062, 2177, 2345, 3335, 3531, 3665, 4299, 4462, 4553, 4728, 5291, 5367, 5521, 5647, 5937, 6066, 6342, 7674, 25816, 25898, 26016, 26176, 26387, 26800], "trial_type": "free-recall", "conditions": [12, 800, "v", 12000], "internal_node_id": "0.0-76.0-0.0", "key_presses": [83, 67, 65, 82, 69, 67, 82, 79, 87, 8, 8, 8, 82, 79, 87, 13, 72, 65, 78, 68, 66, 65, 71, 13, 79, 90, 79, 78, 69, 13], "trial": 2, "time_elapsed": 539435, "type": "FREE_RECALL", "trial_index": 103}, "uniqueid": "MTK1545:39ZSFO5CA93RYWYETDNU37N8JFOUJ0", "dateTime": 1515961072565}, {"current_trial": 104, "trialdata": {"rt": 1753, "trial_type": "text", "internal_node_id": "0.0-77.0", "time_elapsed": 543196, "key_press": 32, "type": "INSTRUCTIONS", "trial_index": 104}, "uniqueid": "MTK1545:39ZSFO5CA93RYWYETDNU37N8JFOUJ0", "dateTime": 1515961076318}, {"current_trial": 105, "trialdata": {"rt": [1492, 3064, 6024, 8261, 9705, 11621], "trial_type": "math-distractor", "key_times": [1036, 1340, 1492, 2548, 2920, 3064, 5440, 5824, 6024, 7109, 7369, 7817, 8021, 8261, 9441, 9601, 9705, 11237, 11485, 11621], "responses": ["14", "16", "14", "13", "11", "15"], "num2": [2, 7, 7, 1, 1, 9, 3], "num3": [8, 8, 2, 4, 2, 8, 3], "conditions": [24, 800, "v", 12000], "internal_node_id": "0.0-78.0", "key_presses": [49, 52, 13, 49, 54, 13, 49, 52, 13, 49, 52, 8, 51, 13, 49, 49, 13, 49, 53, 13], "trial": 3, "time_elapsed": 557201, "type": "DISTRACTOR", "trial_index": 105, "num1": [4, 1, 5, 8, 8, 6, 2]}, "uniqueid": "MTK1545:39ZSFO5CA93RYWYETDNU37N8JFOUJ0", "dateTime": 1515961090323}, {"current_trial": 106, "trialdata": {"rt": -1, "trial_type": "single-stim", "stimulus": "<p id=\"stim\">10</p>", "internal_node_id": "0.0-79.0-0.0", "time_elapsed": 560209, "key_press": -1, "trial_index": 106}, "uniqueid": "MTK1545:39ZSFO5CA93RYWYETDNU37N8JFOUJ0", "dateTime": 1515961093331}, {"current_trial": 107, "trialdata": {"rt": -1, "trial_type": "single-stim", "stimulus": "<p id=\"stim\">9</p>", "internal_node_id": "0.0-79.0-1.0", "time_elapsed": 561209, "key_press": -1, "trial_index": 107}, "uniqueid": "MTK1545:39ZSFO5CA93RYWYETDNU37N8JFOUJ0", "dateTime": 1515961094331}, {"current_trial": 108, "trialdata": {"rt": -1, "trial_type": "single-stim", "stimulus": "<p id=\"stim\">8</p>", "internal_node_id": "0.0-79.0-2.0", "time_elapsed": 562209, "key_press": -1, "trial_index": 108}, "uniqueid": "MTK1545:39ZSFO5CA93RYWYETDNU37N8JFOUJ0", "dateTime": 1515961095331}, {"current_trial": 109, "trialdata": {"rt": -1, "trial_type": "single-stim", "stimulus": "<p id=\"stim\">7</p>", "internal_node_id": "0.0-79.0-3.0", "time_elapsed": 563209, "key_press": -1, "trial_index": 109}, "uniqueid": "MTK1545:39ZSFO5CA93RYWYETDNU37N8JFOUJ0", "dateTime": 1515961096331}, {"current_trial": 110, "trialdata": {"rt": -1, "trial_type": "single-stim", "stimulus": "<p id=\"stim\">6</p>", "internal_node_id": "0.0-79.0-4.0", "time_elapsed": 564209, "key_press": -1, "trial_index": 110}, "uniqueid": "MTK1545:39ZSFO5CA93RYWYETDNU37N8JFOUJ0", "dateTime": 1515961097331}, {"current_trial": 111, "trialdata": {"rt": -1, "trial_type": "single-stim", "stimulus": "<p id=\"stim\">5</p>", "internal_node_id": "0.0-79.0-5.0", "time_elapsed": 565209, "key_press": -1, "trial_index": 111}, "uniqueid": "MTK1545:39ZSFO5CA93RYWYETDNU37N8JFOUJ0", "dateTime": 1515961098331}, {"current_trial": 112, "trialdata": {"rt": -1, "trial_type": "single-stim", "stimulus": "<p id=\"stim\">4</p>", "internal_node_id": "0.0-79.0-6.0", "time_elapsed": 566209, "key_press": -1, "trial_index": 112}, "uniqueid": "MTK1545:39ZSFO5CA93RYWYETDNU37N8JFOUJ0", "dateTime": 1515961099331}, {"current_trial": 113, "trialdata": {"rt": -1, "trial_type": "single-stim", "stimulus": "<p id=\"stim\">3</p>", "internal_node_id": "0.0-79.0-7.0", "time_elapsed": 567209, "key_press": -1, "trial_index": 113}, "uniqueid": "MTK1545:39ZSFO5CA93RYWYETDNU37N8JFOUJ0", "dateTime": 1515961100331}, {"current_trial": 114, "trialdata": {"rt": -1, "trial_type": "single-stim", "stimulus": "<p id=\"stim\">2</p>", "internal_node_id": "0.0-79.0-8.0", "time_elapsed": 568213, "key_press": -1, "trial_index": 114}, "uniqueid": "MTK1545:39ZSFO5CA93RYWYETDNU37N8JFOUJ0", "dateTime": 1515961101335}, {"current_trial": 115, "trialdata": {"rt": -1, "trial_type": "single-stim", "stimulus": "<p id=\"stim\">1</p>", "internal_node_id": "0.0-79.0-9.0", "time_elapsed": 569214, "key_press": -1, "trial_index": 115}, "uniqueid": "MTK1545:39ZSFO5CA93RYWYETDNU37N8JFOUJ0", "dateTime": 1515961102336}, {"current_trial": 116, "trialdata": {"rt": -1, "trial_type": "single-stim", "stimulus": "<p id=\"stim\">+</p>", "internal_node_id": "0.0-80.0-0.0", "time_elapsed": 570714, "key_press": -1, "type": "FIXATION", "trial_index": 116}, "uniqueid": "MTK1545:39ZSFO5CA93RYWYETDNU37N8JFOUJ0", "dateTime": 1515961103836}, {"current_trial": 117, "trialdata": {"rt": -1, "trial_type": "single-stim", "word": "knife", "stimulus": "<p id=\"stim\">KNIFE</p>", "conditions": [24, 800, "v", 12000], "internal_node_id": "0.0-81.0", "trial": 3, "time_elapsed": 571514, "serialpos": 0, "key_press": -1, "wordID": 784, "type": "PRES_VIS", "trial_index": 117}, "uniqueid": "MTK1545:39ZSFO5CA93RYWYETDNU37N8JFOUJ0", "dateTime": 1515961104636}, {"current_trial": 118, "trialdata": {"rt": -1, "trial_type": "single-stim", "word": "sword", "stimulus": "<p id=\"stim\">SWORD</p>", "conditions": [24, 800, "v", 12000], "internal_node_id": "0.0-82.0", "trial": 3, "time_elapsed": 573166, "serialpos": 1, "key_press": -1, "wordID": 1422, "type": "PRES_VIS", "trial_index": 118}, "uniqueid": "MTK1545:39ZSFO5CA93RYWYETDNU37N8JFOUJ0", "dateTime": 1515961106288}, {"current_trial": 119, "trialdata": {"rt": -1, "trial_type": "single-stim", "word": "trout", "stimulus": "<p id=\"stim\">TROUT</p>", "conditions": [24, 800, "v", 12000], "internal_node_id": "0.0-83.0", "trial": 3, "time_elapsed": 574798, "serialpos": 2, "key_press": -1, "wordID": 1510, "type": "PRES_VIS", "trial_index": 119}, "uniqueid": "MTK1545:39ZSFO5CA93RYWYETDNU37N8JFOUJ0", "dateTime": 1515961107920}, {"current_trial": 120, "trialdata": {"rt": -1, "trial_type": "single-stim", "word": "contract", "stimulus": "<p id=\"stim\">CONTRACT</p>", "conditions": [24, 800, "v", 12000], "internal_node_id": "0.0-84.0", "trial": 3, "time_elapsed": 576766, "serialpos": 3, "key_press": -1, "wordID": 367, "type": "PRES_VIS", "trial_index": 120}, "uniqueid": "MTK1545:39ZSFO5CA93RYWYETDNU37N8JFOUJ0", "dateTime": 1515961109888}, {"current_trial": 121, "trialdata": {"rt": -1, "trial_type": "single-stim", "word": "convict", "stimulus": "<p id=\"stim\">CONVICT</p>", "conditions": [24, 800, "v", 12000], "internal_node_id": "0.0-85.0", "trial": 3, "time_elapsed": 578494, "serialpos": 4, "key_press": -1, "wordID": 370, "type": "PRES_VIS", "trial_index": 121}, "uniqueid": "MTK1545:39ZSFO5CA93RYWYETDNU37N8JFOUJ0", "dateTime": 1515961111616}, {"current_trial": 122, "trialdata": {"rt": -1, "trial_type": "single-stim", "word": "parsley", "stimulus": "<p id=\"stim\">PARSLEY</p>", "conditions": [24, 800, "v", 12000], "internal_node_id": "0.0-86.0", "trial": 3, "time_elapsed": 580494, "serialpos": 5, "key_press": -1, "wordID": 1015, "type": "PRES_VIS", "trial_index": 122}, "uniqueid": "MTK1545:39ZSFO5CA93RYWYETDNU37N8JFOUJ0", "dateTime": 1515961113616}, {"current_trial": 123, "trialdata": {"rt": -1, "trial_type": "single-stim", "word": "mustard", "stimulus": "<p id=\"stim\">MUSTARD</p>", "conditions": [24, 800, "v", 12000], "internal_node_id": "0.0-87.0", "trial": 3, "time_elapsed": 582395, "serialpos": 6, "key_press": -1, "wordID": 934, "type": "PRES_VIS", "trial_index": 123}, "uniqueid": "MTK1545:39ZSFO5CA93RYWYETDNU37N8JFOUJ0", "dateTime": 1515961115517}, {"current_trial": 124, "trialdata": {"rt": -1, "trial_type": "single-stim", "word": "leopard", "stimulus": "<p id=\"stim\">LEOPARD</p>", "conditions": [24, 800, "v", 12000], "internal_node_id": "0.0-88.0", "trial": 3, "time_elapsed": 584335, "serialpos": 7, "key_press": -1, "wordID": 811, "type": "PRES_VIS", "trial_index": 124}, "uniqueid": "MTK1545:39ZSFO5CA93RYWYETDNU37N8JFOUJ0", "dateTime": 1515961117457}, {"current_trial": 125, "trialdata": {"rt": -1, "trial_type": "single-stim", "word": "antler", "stimulus": "<p id=\"stim\">ANTLER</p>", "conditions": [24, 800, "v", 12000], "internal_node_id": "0.0-89.0", "trial": 3, "time_elapsed": 586063, "serialpos": 8, "key_press": -1, "wordID": 28, "type": "PRES_VIS", "trial_index": 125}, "uniqueid": "MTK1545:39ZSFO5CA93RYWYETDNU37N8JFOUJ0", "dateTime": 1515961119185}, {"current_trial": 126, "trialdata": {"rt": -1, "trial_type": "single-stim", "word": "diver", "stimulus": "<p id=\"stim\">DIVER</p>", "conditions": [24, 800, "v", 12000], "internal_node_id": "0.0-90.0", "trial": 3, "time_elapsed": 587779, "serialpos": 9, "key_press": -1, "wordID": 475, "type": "PRES_VIS", "trial_index": 126}, "uniqueid": "MTK1545:39ZSFO5CA93RYWYETDNU37N8JFOUJ0", "dateTime": 1515961120901}, {"current_trial": 127, "trialdata": {"rt": -1, "trial_type": "single-stim", "word": "cabbage", "stimulus": "<p id=\"stim\">CABBAGE</p>", "conditions": [24, 800, "v", 12000], "internal_node_id": "0.0-91.0", "trial": 3, "time_elapsed": 589727, "serialpos": 10, "key_press": -1, "wordID": 209, "type": "PRES_VIS", "trial_index": 127}, "uniqueid": "MTK1545:39ZSFO5CA93RYWYETDNU37N8JFOUJ0", "dateTime": 1515961122849}, {"current_trial": 128, "trialdata": {"rt": -1, "trial_type": "single-stim", "word": "pork", "stimulus": "<p id=\"stim\">PORK</p>", "conditions": [24, 800, "v", 12000], "internal_node_id": "0.0-92.0", "trial": 3, "time_elapsed": 591663, "serialpos": 11, "key_press": -1, "wordID": 1107, "type": "PRES_VIS", "trial_index": 128}, "uniqueid": "MTK1545:39ZSFO5CA93RYWYETDNU37N8JFOUJ0", "dateTime": 1515961124785}, {"current_trial": 129, "trialdata": {"rt": -1, "trial_type": "single-stim", "word": "baby", "stimulus": "<p id=\"stim\">BABY</p>", "conditions": [24, 800, "v", 12000], "internal_node_id": "0.0-93.0", "trial": 3, "time_elapsed": 593663, "serialpos": 12, "key_press": -1, "wordID": 63, "type": "PRES_VIS", "trial_index": 129}, "uniqueid": "MTK1545:39ZSFO5CA93RYWYETDNU37N8JFOUJ0", "dateTime": 1515961126785}, {"current_trial": 130, "trialdata": {"rt": -1, "trial_type": "single-stim", "word": "dolphin", "stimulus": "<p id=\"stim\">DOLPHIN</p>", "conditions": [24, 800, "v", 12000], "internal_node_id": "0.0-94.0", "trial": 3, "time_elapsed": 595360, "serialpos": 13, "key_press": -1, "wordID": 482, "type": "PRES_VIS", "trial_index": 130}, "uniqueid": "MTK1545:39ZSFO5CA93RYWYETDNU37N8JFOUJ0", "dateTime": 1515961128482}, {"current_trial": 131, "trialdata": {"rt": -1, "trial_type": "single-stim", "word": "shorts", "stimulus": "<p id=\"stim\">SHORTS</p>", "conditions": [24, 800, "v", 12000], "internal_node_id": "0.0-95.0", "trial": 3, "time_elapsed": 597144, "serialpos": 14, "key_press": -1, "wordID": 1292, "type": "PRES_VIS", "trial_index": 131}, "uniqueid": "MTK1545:39ZSFO5CA93RYWYETDNU37N8JFOUJ0", "dateTime": 1515961130266}, {"current_trial": 132, "trialdata": {"rt": -1, "trial_type": "single-stim", "word": "cocktail", "stimulus": "<p id=\"stim\">COCKTAIL</p>", "conditions": [24, 800, "v", 12000], "internal_node_id": "0.0-96.0", "trial": 3, "time_elapsed": 599064, "serialpos": 15, "key_press": -1, "wordID": 337, "type": "PRES_VIS", "trial_index": 132}, "uniqueid": "MTK1545:39ZSFO5CA93RYWYETDNU37N8JFOUJ0", "dateTime": 1515961132186}, {"current_trial": 133, "trialdata": {"rt": -1, "trial_type": "single-stim", "word": "cashier", "stimulus": "<p id=\"stim\">CASHIER</p>", "conditions": [24, 800, "v", 12000], "internal_node_id": "0.0-97.0", "trial": 3, "time_elapsed": 600856, "serialpos": 16, "key_press": -1, "wordID": 253, "type": "PRES_VIS", "trial_index": 133}, "uniqueid": "MTK1545:39ZSFO5CA93RYWYETDNU37N8JFOUJ0", "dateTime": 1515961133978}, {"current_trial": 134, "trialdata": {"rt": -1, "trial_type": "single-stim", "word": "tile", "stimulus": "<p id=\"stim\">TILE</p>", "conditions": [24, 800, "v", 12000], "internal_node_id": "0.0-98.0", "trial": 3, "time_elapsed": 602748, "serialpos": 17, "key_press": -1, "wordID": 1467, "type": "PRES_VIS", "trial_index": 134}, "uniqueid": "MTK1545:39ZSFO5CA93RYWYETDNU37N8JFOUJ0", "dateTime": 1515961135870}, {"current_trial": 135, "trialdata": {"rt": -1, "trial_type": "single-stim", "word": "brick", "stimulus": "<p id=\"stim\">BRICK</p>", "conditions": [24, 800, "v", 12000], "internal_node_id": "0.0-99.0", "trial": 3, "time_elapsed": 604580, "serialpos": 18, "key_press": -1, "wordID": 171, "type": "PRES_VIS", "trial_index": 135}, "uniqueid": "MTK1545:39ZSFO5CA93RYWYETDNU37N8JFOUJ0", "dateTime": 1515961137702}, {"current_trial": 136, "trialdata": {"rt": -1, "trial_type": "single-stim", "word": "husband", "stimulus": "<p id=\"stim\">HUSBAND</p>", "conditions": [24, 800, "v", 12000], "internal_node_id": "0.0-100.0", "trial": 3, "time_elapsed": 606309, "serialpos": 19, "key_press": -1, "wordID": 727, "type": "PRES_VIS", "trial_index": 136}, "uniqueid": "MTK1545:39ZSFO5CA93RYWYETDNU37N8JFOUJ0", "dateTime": 1515961139431}, {"current_trial": 137, "trialdata": {"rt": -1, "trial_type": "single-stim", "word": "box", "stimulus": "<p id=\"stim\">BOX</p>", "conditions": [24, 800, "v", 12000], "internal_node_id": "0.0-101.0", "trial": 3, "time_elapsed": 608085, "serialpos": 20, "key_press": -1, "wordID": 158, "type": "PRES_VIS", "trial_index": 137}, "uniqueid": "MTK1545:39ZSFO5CA93RYWYETDNU37N8JFOUJ0", "dateTime": 1515961141207}, {"current_trial": 138, "trialdata": {"rt": -1, "trial_type": "single-stim", "word": "shelf", "stimulus": "<p id=\"stim\">SHELF</p>", "conditions": [24, 800, "v", 12000], "internal_node_id": "0.0-102.0", "trial": 3, "time_elapsed": 609813, "serialpos": 21, "key_press": -1, "wordID": 1279, "type": "PRES_VIS", "trial_index": 138}, "uniqueid": "MTK1545:39ZSFO5CA93RYWYETDNU37N8JFOUJ0", "dateTime": 1515961142935}, {"current_trial": 139, "trialdata": {"rt": -1, "trial_type": "single-stim", "word": "grape", "stimulus": "<p id=\"stim\">GRAPE</p>", "conditions": [24, 800, "v", 12000], "internal_node_id": "0.0-103.0", "trial": 3, "time_elapsed": 611757, "serialpos": 22, "key_press": -1, "wordID": 653, "type": "PRES_VIS", "trial_index": 139}, "uniqueid": "MTK1545:39ZSFO5CA93RYWYETDNU37N8JFOUJ0", "dateTime": 1515961144879}, {"current_trial": 140, "trialdata": {"rt": -1, "trial_type": "single-stim", "word": "mammal", "stimulus": "<p id=\"stim\">MAMMAL</p>", "conditions": [24, 800, "v", 12000], "internal_node_id": "0.0-104.0", "trial": 3, "time_elapsed": 613461, "serialpos": 23, "key_press": -1, "wordID": 860, "type": "PRES_VIS", "trial_index": 140}, "uniqueid": "MTK1545:39ZSFO5CA93RYWYETDNU37N8JFOUJ0", "dateTime": 1515961146583}, {"current_trial": 141, "trialdata": {"rt": -1, "trial_type": "single-stim", "stimulus": "", "internal_node_id": "0.0-105.0-0.0", "time_elapsed": 615482, "key_press": -1, "type": "PRE_RECALL_DELAY", "trial_index": 141}, "uniqueid": "MTK1545:39ZSFO5CA93RYWYETDNU37N8JFOUJ0", "dateTime": 1515961148604}, {"current_trial": 142, "trialdata": {"rt": -1000, "trial_type": "single-audio", "stimulus": "/static/audio/400Hz.wav", "internal_node_id": "0.0-106.0", "time_elapsed": 615986, "key_press": -1, "type": "PRE_RECALL_ALERT", "trial_index": 142}, "uniqueid": "MTK1545:39ZSFO5CA93RYWYETDNU37N8JFOUJ0", "dateTime": 1515961149108}, {"current_trial": 143, "trialdata": {"rt": [5735, 8869, 11100, 12996, 16090, 21031], "recwords": ["baby", "husband", "dolphin", "trout", "convict", "knife"], "key_times": [4554, 4871, 5110, 5313, 5735, 6680, 6914, 7285, 7698, 8294, 8416, 8548, 8869, 9374, 9668, 9909, 10126, 10326, 10489, 10736, 11100, 11349, 11452, 11630, 11733, 11975, 12550, 12806, 12996, 13208, 13442, 13643, 14062, 14768, 14931, 15299, 16090, 19949, 20128, 20374, 20595, 20667, 21031], "trial_type": "free-recall", "conditions": [24, 800, "v", 12000], "internal_node_id": "0.0-107.0-0.0", "key_presses": [66, 65, 66, 89, 13, 72, 85, 83, 66, 65, 78, 68, 13, 68, 79, 76, 80, 72, 73, 78, 13, 84, 82, 79, 85, 89, 8, 84, 13, 67, 79, 78, 86, 73, 67, 84, 13, 75, 78, 73, 70, 69, 13], "trial": 3, "time_elapsed": 676000, "type": "FREE_RECALL", "trial_index": 143}, "uniqueid": "MTK1545:39ZSFO5CA93RYWYETDNU37N8JFOUJ0", "dateTime": 1515961209134}, {"current_trial": 144, "trialdata": {"rt": 2016, "trial_type": "text", "internal_node_id": "0.0-108.0", "time_elapsed": 680033, "key_press": 32, "type": "INSTRUCTIONS", "trial_index": 144}, "uniqueid": "MTK1545:39ZSFO5CA93RYWYETDNU37N8JFOUJ0", "dateTime": 1515961213155}, {"current_trial": 145, "trialdata": {"rt": [3965, 6002, 7896, 11442], "trial_type": "math-distractor", "key_times": [3001, 3753, 3965, 5457, 5653, 6002, 7155, 7688, 7896, 10779, 11257, 11442], "responses": ["16", "20", "18", "17"], "num2": [9, 8, 9, 6, 1], "num3": [7, 5, 8, 6, 1], "conditions": [24, 1600, "v", 12000], "internal_node_id": "0.0-109.0", "key_presses": [49, 54, 13, 50, 48, 13, 49, 56, 13, 49, 55, 13], "trial": 4, "time_elapsed": 694039, "type": "DISTRACTOR", "trial_index": 145, "num1": [9, 7, 1, 5, 4]}, "uniqueid": "MTK1545:39ZSFO5CA93RYWYETDNU37N8JFOUJ0", "dateTime": 1515961227161}, {"current_trial": 146, "trialdata": {"rt": -1, "trial_type": "single-stim", "stimulus": "<p id=\"stim\">10</p>", "internal_node_id": "0.0-110.0-0.0", "time_elapsed": 697046, "key_press": -1, "trial_index": 146}, "uniqueid": "MTK1545:39ZSFO5CA93RYWYETDNU37N8JFOUJ0", "dateTime": 1515961230168}, {"current_trial": 147, "trialdata": {"rt": -1, "trial_type": "single-stim", "stimulus": "<p id=\"stim\">9</p>", "internal_node_id": "0.0-110.0-1.0", "time_elapsed": 698047, "key_press": -1, "trial_index": 147}, "uniqueid": "MTK1545:39ZSFO5CA93RYWYETDNU37N8JFOUJ0", "dateTime": 1515961231169}, {"current_trial": 148, "trialdata": {"rt": -1, "trial_type": "single-stim", "stimulus": "<p id=\"stim\">8</p>", "internal_node_id": "0.0-110.0-2.0", "time_elapsed": 699048, "key_press": -1, "trial_index": 148}, "uniqueid": "MTK1545:39ZSFO5CA93RYWYETDNU37N8JFOUJ0", "dateTime": 1515961232170}, {"current_trial": 149, "trialdata": {"rt": -1, "trial_type": "single-stim", "stimulus": "<p id=\"stim\">7</p>", "internal_node_id": "0.0-110.0-3.0", "time_elapsed": 700052, "key_press": -1, "trial_index": 149}, "uniqueid": "MTK1545:39ZSFO5CA93RYWYETDNU37N8JFOUJ0", "dateTime": 1515961233174}, {"current_trial": 150, "trialdata": {"rt": -1, "trial_type": "single-stim", "stimulus": "<p id=\"stim\">6</p>", "internal_node_id": "0.0-110.0-4.0", "time_elapsed": 701052, "key_press": -1, "trial_index": 150}, "uniqueid": "MTK1545:39ZSFO5CA93RYWYETDNU37N8JFOUJ0", "dateTime": 1515961234178}, {"current_trial": 151, "trialdata": {"rt": -1, "trial_type": "single-stim", "stimulus": "<p id=\"stim\">5</p>", "internal_node_id": "0.0-110.0-5.0", "time_elapsed": 702058, "key_press": -1, "trial_index": 151}, "uniqueid": "MTK1545:39ZSFO5CA93RYWYETDNU37N8JFOUJ0", "dateTime": 1515961235184}, {"current_trial": 152, "trialdata": {"rt": -1, "trial_type": "single-stim", "stimulus": "<p id=\"stim\">4</p>", "internal_node_id": "0.0-110.0-6.0", "time_elapsed": 703063, "key_press": -1, "trial_index": 152}, "uniqueid": "MTK1545:39ZSFO5CA93RYWYETDNU37N8JFOUJ0", "dateTime": 1515961236185}, {"current_trial": 153, "trialdata": {"rt": -1, "trial_type": "single-stim", "stimulus": "<p id=\"stim\">3</p>", "internal_node_id": "0.0-110.0-7.0", "time_elapsed": 704068, "key_press": -1, "trial_index": 153}, "uniqueid": "MTK1545:39ZSFO5CA93RYWYETDNU37N8JFOUJ0", "dateTime": 1515961237190}, {"current_trial": 154, "trialdata": {"rt": -1, "trial_type": "single-stim", "stimulus": "<p id=\"stim\">2</p>", "internal_node_id": "0.0-110.0-8.0", "time_elapsed": 705071, "key_press": -1, "trial_index": 154}, "uniqueid": "MTK1545:39ZSFO5CA93RYWYETDNU37N8JFOUJ0", "dateTime": 1515961238193}, {"current_trial": 155, "trialdata": {"rt": -1, "trial_type": "single-stim", "stimulus": "<p id=\"stim\">1</p>", "internal_node_id": "0.0-110.0-9.0", "time_elapsed": 706071, "key_press": -1, "trial_index": 155}, "uniqueid": "MTK1545:39ZSFO5CA93RYWYETDNU37N8JFOUJ0", "dateTime": 1515961239193}, {"current_trial": 156, "trialdata": {"rt": -1, "trial_type": "single-stim", "stimulus": "<p id=\"stim\">+</p>", "internal_node_id": "0.0-111.0-0.0", "time_elapsed": 707576, "key_press": -1, "type": "FIXATION", "trial_index": 156}, "uniqueid": "MTK1545:39ZSFO5CA93RYWYETDNU37N8JFOUJ0", "dateTime": 1515961240702}, {"current_trial": 157, "trialdata": {"rt": -1, "trial_type": "single-stim", "word": "hand", "stimulus": "<p id=\"stim\">HAND</p>", "conditions": [24, 1600, "v", 12000], "internal_node_id": "0.0-112.0", "trial": 4, "time_elapsed": 709181, "serialpos": 0, "key_press": -1, "wordID": 682, "type": "PRES_VIS", "trial_index": 157}, "uniqueid": "MTK1545:39ZSFO5CA93RYWYETDNU37N8JFOUJ0", "dateTime": 1515961242303}, {"current_trial": 158, "trialdata": {"rt": -1, "trial_type": "single-stim", "word": "robot", "stimulus": "<p id=\"stim\">ROBOT</p>", "conditions": [24, 1600, "v", 12000], "internal_node_id": "0.0-113.0", "trial": 4, "time_elapsed": 711714, "serialpos": 1, "key_press": -1, "wordID": 1199, "type": "PRES_VIS", "trial_index": 158}, "uniqueid": "MTK1545:39ZSFO5CA93RYWYETDNU37N8JFOUJ0", "dateTime": 1515961244840}, {"current_trial": 159, "trialdata": {"rt": -1, "trial_type": "single-stim", "word": "proton", "stimulus": "<p id=\"stim\">PROTON</p>", "conditions": [24, 1600, "v", 12000], "internal_node_id": "0.0-114.0", "trial": 4, "time_elapsed": 714159, "serialpos": 2, "key_press": -1, "wordID": 1131, "type": "PRES_VIS", "trial_index": 159}, "uniqueid": "MTK1545:39ZSFO5CA93RYWYETDNU37N8JFOUJ0", "dateTime": 1515961247281}, {"current_trial": 160, "trialdata": {"rt": -1, "trial_type": "single-stim", "word": "judge", "stimulus": "<p id=\"stim\">JUDGE</p>", "conditions": [24, 1600, "v", 12000], "internal_node_id": "0.0-115.0", "trial": 4, "time_elapsed": 716643, "serialpos": 3, "key_press": -1, "wordID": 760, "type": "PRES_VIS", "trial_index": 160}, "uniqueid": "MTK1545:39ZSFO5CA93RYWYETDNU37N8JFOUJ0", "dateTime": 1515961249765}, {"current_trial": 161, "trialdata": {"rt": -1, "trial_type": "single-stim", "word": "mailbox", "stimulus": "<p id=\"stim\">MAILBOX</p>", "conditions": [24, 1600, "v", 12000], "internal_node_id": "0.0-116.0", "trial": 4, "time_elapsed": 719248, "serialpos": 4, "key_press": -1, "wordID": 856, "type": "PRES_VIS", "trial_index": 161}, "uniqueid": "MTK1545:39ZSFO5CA93RYWYETDNU37N8JFOUJ0", "dateTime": 1515961252370}, {"current_trial": 162, "trialdata": {"rt": -1, "trial_type": "single-stim", "word": "heart", "stimulus": "<p id=\"stim\">HEART</p>", "conditions": [24, 1600, "v", 12000], "internal_node_id": "0.0-117.0", "trial": 4, "time_elapsed": 721669, "serialpos": 5, "key_press": -1, "wordID": 696, "type": "PRES_VIS", "trial_index": 162}, "uniqueid": "MTK1545:39ZSFO5CA93RYWYETDNU37N8JFOUJ0", "dateTime": 1515961254795}, {"current_trial": 163, "trialdata": {"rt": -1, "trial_type": "single-stim", "word": "ankle", "stimulus": "<p id=\"stim\">ANKLE</p>", "conditions": [24, 1600, "v", 12000], "internal_node_id": "0.0-118.0", "trial": 4, "time_elapsed": 724456, "serialpos": 6, "key_press": -1, "wordID": 23, "type": "PRES_VIS", "trial_index": 163}, "uniqueid": "MTK1545:39ZSFO5CA93RYWYETDNU37N8JFOUJ0", "dateTime": 1515961257578}, {"current_trial": 164, "trialdata": {"rt": -1, "trial_type": "single-stim", "word": "twig", "stimulus": "<p id=\"stim\">TWIG</p>", "conditions": [24, 1600, "v", 12000], "internal_node_id": "0.0-119.0", "trial": 4, "time_elapsed": 726912, "serialpos": 7, "key_press": -1, "wordID": 1526, "type": "PRES_VIS", "trial_index": 164}, "uniqueid": "MTK1545:39ZSFO5CA93RYWYETDNU37N8JFOUJ0", "dateTime": 1515961260034}, {"current_trial": 165, "trialdata": {"rt": -1, "trial_type": "single-stim", "word": "bank", "stimulus": "<p id=\"stim\">BANK</p>", "conditions": [24, 1600, "v", 12000], "internal_node_id": "0.0-120.0", "trial": 4, "time_elapsed": 729322, "serialpos": 8, "key_press": -1, "wordID": 82, "type": "PRES_VIS", "trial_index": 165}, "uniqueid": "MTK1545:39ZSFO5CA93RYWYETDNU37N8JFOUJ0", "dateTime": 1515961262452}, {"current_trial": 166, "trialdata": {"rt": -1, "trial_type": "single-stim", "word": "banker", "stimulus": "<p id=\"stim\">BANKER</p>", "conditions": [24, 1600, "v", 12000], "internal_node_id": "0.0-121.0", "trial": 4, "time_elapsed": 731949, "serialpos": 9, "key_press": -1, "wordID": 83, "type": "PRES_VIS", "trial_index": 166}, "uniqueid": "MTK1545:39ZSFO5CA93RYWYETDNU37N8JFOUJ0", "dateTime": 1515961265071}, {"current_trial": 167, "trialdata": {"rt": -1, "trial_type": "single-stim", "word": "mailman", "stimulus": "<p id=\"stim\">MAILMAN</p>", "conditions": [24, 1600, "v", 12000], "internal_node_id": "0.0-122.0", "trial": 4, "time_elapsed": 734532, "serialpos": 10, "key_press": -1, "wordID": 857, "type": "PRES_VIS", "trial_index": 167}, "uniqueid": "MTK1545:39ZSFO5CA93RYWYETDNU37N8JFOUJ0", "dateTime": 1515961267658}, {"current_trial": 168, "trialdata": {"rt": -1, "trial_type": "single-stim", "word": "portrait", "stimulus": "<p id=\"stim\">PORTRAIT</p>", "conditions": [24, 1600, "v", 12000], "internal_node_id": "0.0-123.0", "trial": 4, "time_elapsed": 737095, "serialpos": 11, "key_press": -1, "wordID": 1110, "type": "PRES_VIS", "trial_index": 168}, "uniqueid": "MTK1545:39ZSFO5CA93RYWYETDNU37N8JFOUJ0", "dateTime": 1515961270217}, {"current_trial": 169, "trialdata": {"rt": -1, "trial_type": "single-stim", "word": "report", "stimulus": "<p id=\"stim\">REPORT</p>", "conditions": [24, 1600, "v", 12000], "internal_node_id": "0.0-124.0", "trial": 4, "time_elapsed": 739803, "serialpos": 12, "key_press": -1, "wordID": 1183, "type": "PRES_VIS", "trial_index": 169}, "uniqueid": "MTK1545:39ZSFO5CA93RYWYETDNU37N8JFOUJ0", "dateTime": 1515961272925}, {"current_trial": 170, "trialdata": {"rt": -1, "trial_type": "single-stim", "word": "survey", "stimulus": "<p id=\"stim\">SURVEY</p>", "conditions": [24, 1600, "v", 12000], "internal_node_id": "0.0-125.0", "trial": 4, "time_elapsed": 742280, "serialpos": 13, "key_press": -1, "wordID": 1413, "type": "PRES_VIS", "trial_index": 170}, "uniqueid": "MTK1545:39ZSFO5CA93RYWYETDNU37N8JFOUJ0", "dateTime": 1515961275402}, {"current_trial": 171, "trialdata": {"rt": -1, "trial_type": "single-stim", "word": "hiker", "stimulus": "<p id=\"stim\">HIKER</p>", "conditions": [24, 1600, "v", 12000], "internal_node_id": "0.0-126.0", "trial": 4, "time_elapsed": 744798, "serialpos": 14, "key_press": -1, "wordID": 707, "type": "PRES_VIS", "trial_index": 171}, "uniqueid": "MTK1545:39ZSFO5CA93RYWYETDNU37N8JFOUJ0", "dateTime": 1515961277920}, {"current_trial": 172, "trialdata": {"rt": -1, "trial_type": "single-stim", "word": "ketchup", "stimulus": "<p id=\"stim\">KETCHUP</p>", "conditions": [24, 1600, "v", 12000], "internal_node_id": "0.0-127.0", "trial": 4, "time_elapsed": 747349, "serialpos": 15, "key_press": -1, "wordID": 770, "type": "PRES_VIS", "trial_index": 172}, "uniqueid": "MTK1545:39ZSFO5CA93RYWYETDNU37N8JFOUJ0", "dateTime": 1515961280471}, {"current_trial": 173, "trialdata": {"rt": -1, "trial_type": "single-stim", "word": "grill", "stimulus": "<p id=\"stim\">GRILL</p>", "conditions": [24, 1600, "v", 12000], "internal_node_id": "0.0-128.0", "trial": 4, "time_elapsed": 749951, "serialpos": 16, "key_press": -1, "wordID": 660, "type": "PRES_VIS", "trial_index": 173}, "uniqueid": "MTK1545:39ZSFO5CA93RYWYETDNU37N8JFOUJ0", "dateTime": 1515961283073}, {"current_trial": 174, "trialdata": {"rt": -1, "trial_type": "single-stim", "word": "scarf", "stimulus": "<p id=\"stim\">SCARF</p>", "conditions": [24, 1600, "v", 12000], "internal_node_id": "0.0-129.0", "trial": 4, "time_elapsed": 752730, "serialpos": 17, "key_press": -1, "wordID": 1245, "type": "PRES_VIS", "trial_index": 174}, "uniqueid": "MTK1545:39ZSFO5CA93RYWYETDNU37N8JFOUJ0", "dateTime": 1515961285852}, {"current_trial": 175, "trialdata": {"rt": -1, "trial_type": "single-stim", "word": "razor", "stimulus": "<p id=\"stim\">RAZOR</p>", "conditions": [24, 1600, "v", 12000], "internal_node_id": "0.0-130.0", "trial": 4, "time_elapsed": 755299, "serialpos": 18, "key_press": -1, "wordID": 1170, "type": "PRES_VIS", "trial_index": 175}, "uniqueid": "MTK1545:39ZSFO5CA93RYWYETDNU37N8JFOUJ0", "dateTime": 1515961288421}, {"current_trial": 176, "trialdata": {"rt": -1, "trial_type": "single-stim", "word": "raft", "stimulus": "<p id=\"stim\">RAFT</p>", "conditions": [24, 1600, "v", 12000], "internal_node_id": "0.0-131.0", "trial": 4, "time_elapsed": 757877, "serialpos": 19, "key_press": -1, "wordID": 1158, "type": "PRES_VIS", "trial_index": 176}, "uniqueid": "MTK1545:39ZSFO5CA93RYWYETDNU37N8JFOUJ0", "dateTime": 1515961291003}, {"current_trial": 177, "trialdata": {"rt": -1, "trial_type": "single-stim", "word": "leg", "stimulus": "<p id=\"stim\">LEG</p>", "conditions": [24, 1600, "v", 12000], "internal_node_id": "0.0-132.0", "trial": 4, "time_elapsed": 760430, "serialpos": 20, "key_press": -1, "wordID": 808, "type": "PRES_VIS", "trial_index": 177}, "uniqueid": "MTK1545:39ZSFO5CA93RYWYETDNU37N8JFOUJ0", "dateTime": 1515961293552}, {"current_trial": 178, "trialdata": {"rt": -1, "trial_type": "single-stim", "word": "plaid", "stimulus": "<p id=\"stim\">PLAID</p>", "conditions": [24, 1600, "v", 12000], "internal_node_id": "0.0-133.0", "trial": 4, "time_elapsed": 762921, "serialpos": 21, "key_press": -1, "wordID": 1079, "type": "PRES_VIS", "trial_index": 178}, "uniqueid": "MTK1545:39ZSFO5CA93RYWYETDNU37N8JFOUJ0", "dateTime": 1515961296043}, {"current_trial": 179, "trialdata": {"rt": -1, "trial_type": "single-stim", "word": "climber", "stimulus": "<p id=\"stim\">CLIMBER</p>", "conditions": [24, 1600, "v", 12000], "internal_node_id": "0.0-134.0", "trial": 4, "time_elapsed": 765641, "serialpos": 22, "key_press": -1, "wordID": 322, "type": "PRES_VIS", "trial_index": 179}, "uniqueid": "MTK1545:39ZSFO5CA93RYWYETDNU37N8JFOUJ0", "dateTime": 1515961298763}, {"current_trial": 180, "trialdata": {"rt": -1, "trial_type": "single-stim", "word": "wardrobe", "stimulus": "<p id=\"stim\">WARDROBE</p>", "conditions": [24, 1600, "v", 12000], "internal_node_id": "0.0-135.0", "trial": 4, "time_elapsed": 768322, "serialpos": 23, "key_press": -1, "wordID": 1586, "type": "PRES_VIS", "trial_index": 180}, "uniqueid": "MTK1545:39ZSFO5CA93RYWYETDNU37N8JFOUJ0", "dateTime": 1515961301444}, {"current_trial": 181, "trialdata": {"rt": -1, "trial_type": "single-stim", "stimulus": "", "internal_node_id": "0.0-136.0-0.0", "time_elapsed": 770591, "key_press": -1, "type": "PRE_RECALL_DELAY", "trial_index": 181}, "uniqueid": "MTK1545:39ZSFO5CA93RYWYETDNU37N8JFOUJ0", "dateTime": 1515961303713}, {"current_trial": 182, "trialdata": {"rt": -1000, "trial_type": "single-audio", "stimulus": "/static/audio/400Hz.wav", "internal_node_id": "0.0-137.0", "time_elapsed": 771091, "key_press": -1, "type": "PRE_RECALL_ALERT", "trial_index": 182}, "uniqueid": "MTK1545:39ZSFO5CA93RYWYETDNU37N8JFOUJ0", "dateTime": 1515961304213}, {"current_trial": 183, "trialdata": {"rt": [3119, 5005, 6848, 10473], "recwords": ["bank", "banker", "robot", "kitchen"], "key_times": [2252, 2392, 2570, 2716, 3119, 3944, 4073, 4267, 4451, 4650, 4755, 5005, 5510, 5781, 5982, 6137, 6349, 6848, 8695, 8851, 8960, 9260, 9402, 9693, 9855, 10473], "trial_type": "free-recall", "conditions": [24, 1600, "v", 12000], "internal_node_id": "0.0-138.0-0.0", "key_presses": [66, 65, 78, 75, 13, 66, 65, 78, 75, 69, 82, 13, 82, 79, 66, 79, 84, 13, 75, 73, 84, 67, 72, 69, 78, 13], "trial": 4, "time_elapsed": 831107, "type": "FREE_RECALL", "trial_index": 183}, "uniqueid": "MTK1545:39ZSFO5CA93RYWYETDNU37N8JFOUJ0", "dateTime": 1515961364245}, {"current_trial": 184, "trialdata": {"rt": 4099, "trial_type": "text", "internal_node_id": "0.0-139.0", "time_elapsed": 837229, "key_press": 32, "type": "INSTRUCTIONS", "trial_index": 184}, "uniqueid": "MTK1545:39ZSFO5CA93RYWYETDNU37N8JFOUJ0", "dateTime": 1515961370351}, {"current_trial": 185, "trialdata": {"rt": [2017, 3722, 7550, 11040, 12486, 15291, 16885, 19962, 21823, 23871], "trial_type": "math-distractor", "key_times": [1752, 2017, 3297, 3573, 3722, 6997, 7321, 7550, 10290, 10812, 11040, 12061, 12262, 12486, 14863, 15119, 15291, 16741, 16885, 18782, 19497, 19962, 21427, 21635, 21823, 23189, 23871], "responses": ["6", "14", "15", "18", "11", "25", "5", "19", "13", "9"], "num2": [1, 2, 8, 2, 4, 6, 1, 6, 4, 4, 4], "num3": [3, 7, 3, 9, 1, 9, 1, 8, 5, 2, 3], "conditions": [24, 1600, "v", 24000], "internal_node_id": "0.0-140.0", "key_presses": [54, 13, 49, 52, 13, 49, 53, 13, 49, 56, 13, 49, 49, 13, 50, 53, 13, 53, 13, 49, 57, 13, 49, 51, 13, 57, 13], "trial": 5, "time_elapsed": 863242, "type": "DISTRACTOR", "trial_index": 185, "num1": [2, 5, 4, 7, 6, 8, 3, 5, 4, 3, 2]}, "uniqueid": "MTK1545:39ZSFO5CA93RYWYETDNU37N8JFOUJ0", "dateTime": 1515961396364}, {"current_trial": 186, "trialdata": {"rt": -1, "trial_type": "single-stim", "stimulus": "<p id=\"stim\">10</p>", "internal_node_id": "0.0-141.0-0.0", "time_elapsed": 866248, "key_press": -1, "trial_index": 186}, "uniqueid": "MTK1545:39ZSFO5CA93RYWYETDNU37N8JFOUJ0", "dateTime": 1515961399370}, {"current_trial": 187, "trialdata": {"rt": -1, "trial_type": "single-stim", "stimulus": "<p id=\"stim\">9</p>", "internal_node_id": "0.0-141.0-1.0", "time_elapsed": 867253, "key_press": -1, "trial_index": 187}, "uniqueid": "MTK1545:39ZSFO5CA93RYWYETDNU37N8JFOUJ0", "dateTime": 1515961400375}, {"current_trial": 188, "trialdata": {"rt": -1, "trial_type": "single-stim", "stimulus": "<p id=\"stim\">8</p>", "internal_node_id": "0.0-141.0-2.0", "time_elapsed": 868254, "key_press": -1, "trial_index": 188}, "uniqueid": "MTK1545:39ZSFO5CA93RYWYETDNU37N8JFOUJ0", "dateTime": 1515961401376}, {"current_trial": 189, "trialdata": {"rt": -1, "trial_type": "single-stim", "stimulus": "<p id=\"stim\">7</p>", "internal_node_id": "0.0-141.0-3.0", "time_elapsed": 869255, "key_press": -1, "trial_index": 189}, "uniqueid": "MTK1545:39ZSFO5CA93RYWYETDNU37N8JFOUJ0", "dateTime": 1515961402377}, {"current_trial": 190, "trialdata": {"rt": -1, "trial_type": "single-stim", "stimulus": "<p id=\"stim\">6</p>", "internal_node_id": "0.0-141.0-4.0", "time_elapsed": 870260, "key_press": -1, "trial_index": 190}, "uniqueid": "MTK1545:39ZSFO5CA93RYWYETDNU37N8JFOUJ0", "dateTime": 1515961403382}, {"current_trial": 191, "trialdata": {"rt": -1, "trial_type": "single-stim", "stimulus": "<p id=\"stim\">5</p>", "internal_node_id": "0.0-141.0-5.0", "time_elapsed": 871261, "key_press": -1, "trial_index": 191}, "uniqueid": "MTK1545:39ZSFO5CA93RYWYETDNU37N8JFOUJ0", "dateTime": 1515961404383}, {"current_trial": 192, "trialdata": {"rt": -1, "trial_type": "single-stim", "stimulus": "<p id=\"stim\">4</p>", "internal_node_id": "0.0-141.0-6.0", "time_elapsed": 872261, "key_press": -1, "trial_index": 192}, "uniqueid": "MTK1545:39ZSFO5CA93RYWYETDNU37N8JFOUJ0", "dateTime": 1515961405383}, {"current_trial": 193, "trialdata": {"rt": -1, "trial_type": "single-stim", "stimulus": "<p id=\"stim\">3</p>", "internal_node_id": "0.0-141.0-7.0", "time_elapsed": 873262, "key_press": -1, "trial_index": 193}, "uniqueid": "MTK1545:39ZSFO5CA93RYWYETDNU37N8JFOUJ0", "dateTime": 1515961406384}, {"current_trial": 194, "trialdata": {"rt": -1, "trial_type": "single-stim", "stimulus": "<p id=\"stim\">2</p>", "internal_node_id": "0.0-141.0-8.0", "time_elapsed": 874263, "key_press": -1, "trial_index": 194}, "uniqueid": "MTK1545:39ZSFO5CA93RYWYETDNU37N8JFOUJ0", "dateTime": 1515961407385}, {"current_trial": 195, "trialdata": {"rt": -1, "trial_type": "single-stim", "stimulus": "<p id=\"stim\">1</p>", "internal_node_id": "0.0-141.0-9.0", "time_elapsed": 875264, "key_press": -1, "trial_index": 195}, "uniqueid": "MTK1545:39ZSFO5CA93RYWYETDNU37N8JFOUJ0", "dateTime": 1515961408386}, {"current_trial": 196, "trialdata": {"rt": -1, "trial_type": "single-stim", "stimulus": "<p id=\"stim\">+</p>", "internal_node_id": "0.0-142.0-0.0", "time_elapsed": 876764, "key_press": -1, "type": "FIXATION", "trial_index": 196}, "uniqueid": "MTK1545:39ZSFO5CA93RYWYETDNU37N8JFOUJ0", "dateTime": 1515961409886}, {"current_trial": 197, "trialdata": {"rt": -1, "trial_type": "single-stim", "word": "popcorn", "stimulus": "<p id=\"stim\">POPCORN</p>", "conditions": [24, 1600, "v", 24000], "internal_node_id": "0.0-143.0", "trial": 5, "time_elapsed": 878369, "serialpos": 0, "key_press": -1, "wordID": 1103, "type": "PRES_VIS", "trial_index": 197}, "uniqueid": "MTK1545:39ZSFO5CA93RYWYETDNU37N8JFOUJ0", "dateTime": 1515961411491}, {"current_trial": 198, "trialdata": {"rt": -1, "trial_type": "single-stim", "word": "tart", "stimulus": "<p id=\"stim\">TART</p>", "conditions": [24, 1600, "v", 24000], "internal_node_id": "0.0-144.0", "trial": 5, "time_elapsed": 881123, "serialpos": 1, "key_press": -1, "wordID": 1435, "type": "PRES_VIS", "trial_index": 198}, "uniqueid": "MTK1545:39ZSFO5CA93RYWYETDNU37N8JFOUJ0", "dateTime": 1515961414245}, {"current_trial": 199, "trialdata": {"rt": -1, "trial_type": "single-stim", "word": "waiter", "stimulus": "<p id=\"stim\">WAITER</p>", "conditions": [24, 1600, "v", 24000], "internal_node_id": "0.0-145.0", "trial": 5, "time_elapsed": 883690, "serialpos": 2, "key_press": -1, "wordID": 1579, "type": "PRES_VIS", "trial_index": 199}, "uniqueid": "MTK1545:39ZSFO5CA93RYWYETDNU37N8JFOUJ0", "dateTime": 1515961416816}, {"current_trial": 200, "trialdata": {"rt": -1, "trial_type": "single-stim", "word": "waitress", "stimulus": "<p id=\"stim\">WAITRESS</p>", "conditions": [24, 1600, "v", 24000], "internal_node_id": "0.0-146.0", "trial": 5, "time_elapsed": 886482, "serialpos": 3, "key_press": -1, "wordID": 1580, "type": "PRES_VIS", "trial_index": 200}, "uniqueid": "MTK1545:39ZSFO5CA93RYWYETDNU37N8JFOUJ0", "dateTime": 1515961419604}, {"current_trial": 201, "trialdata": {"rt": -1, "trial_type": "single-stim", "word": "dorm", "stimulus": "<p id=\"stim\">DORM</p>", "conditions": [24, 1600, "v", 24000], "internal_node_id": "0.0-147.0", "trial": 5, "time_elapsed": 888975, "serialpos": 4, "key_press": -1, "wordID": 487, "type": "PRES_VIS", "trial_index": 201}, "uniqueid": "MTK1545:39ZSFO5CA93RYWYETDNU37N8JFOUJ0", "dateTime": 1515961422097}, {"current_trial": 202, "trialdata": {"rt": -1, "trial_type": "single-stim", "word": "stallion", "stimulus": "<p id=\"stim\">STALLION</p>", "conditions": [24, 1600, "v", 24000], "internal_node_id": "0.0-148.0", "trial": 5, "time_elapsed": 891638, "serialpos": 5, "key_press": -1, "wordID": 1368, "type": "PRES_VIS", "trial_index": 202}, "uniqueid": "MTK1545:39ZSFO5CA93RYWYETDNU37N8JFOUJ0", "dateTime": 1515961424760}, {"current_trial": 203, "trialdata": {"rt": -1, "trial_type": "single-stim", "word": "wagon", "stimulus": "<p id=\"stim\">WAGON</p>", "conditions": [24, 1600, "v", 24000], "internal_node_id": "0.0-149.0", "trial": 5, "time_elapsed": 894085, "serialpos": 6, "key_press": -1, "wordID": 1577, "type": "PRES_VIS", "trial_index": 203}, "uniqueid": "MTK1545:39ZSFO5CA93RYWYETDNU37N8JFOUJ0", "dateTime": 1515961427211}, {"current_trial": 204, "trialdata": {"rt": -1, "trial_type": "single-stim", "word": "blender", "stimulus": "<p id=\"stim\">BLENDER</p>", "conditions": [24, 1600, "v", 24000], "internal_node_id": "0.0-150.0", "trial": 5, "time_elapsed": 896565, "serialpos": 7, "key_press": -1, "wordID": 135, "type": "PRES_VIS", "trial_index": 204}, "uniqueid": "MTK1545:39ZSFO5CA93RYWYETDNU37N8JFOUJ0", "dateTime": 1515961429687}, {"current_trial": 205, "trialdata": {"rt": -1, "trial_type": "single-stim", "word": "woman", "stimulus": "<p id=\"stim\">WOMAN</p>", "conditions": [24, 1600, "v", 24000], "internal_node_id": "0.0-151.0", "trial": 5, "time_elapsed": 899297, "serialpos": 8, "key_press": -1, "wordID": 1619, "type": "PRES_VIS", "trial_index": 205}, "uniqueid": "MTK1545:39ZSFO5CA93RYWYETDNU37N8JFOUJ0", "dateTime": 1515961432419}, {"current_trial": 206, "trialdata": {"rt": -1, "trial_type": "single-stim", "word": "panther", "stimulus": "<p id=\"stim\">PANTHER</p>", "conditions": [24, 1600, "v", 24000], "internal_node_id": "0.0-152.0", "trial": 5, "time_elapsed": 901727, "serialpos": 9, "key_press": -1, "wordID": 1008, "type": "PRES_VIS", "trial_index": 206}, "uniqueid": "MTK1545:39ZSFO5CA93RYWYETDNU37N8JFOUJ0", "dateTime": 1515961434849}, {"current_trial": 207, "trialdata": {"rt": -1, "trial_type": "single-stim", "word": "trombone", "stimulus": "<p id=\"stim\">TROMBONE</p>", "conditions": [24, 1600, "v", 24000], "internal_node_id": "0.0-153.0", "trial": 5, "time_elapsed": 904128, "serialpos": 10, "key_press": -1, "wordID": 1507, "type": "PRES_VIS", "trial_index": 207}, "uniqueid": "MTK1545:39ZSFO5CA93RYWYETDNU37N8JFOUJ0", "dateTime": 1515961437250}, {"current_trial": 208, "trialdata": {"rt": -1, "trial_type": "single-stim", "word": "tractor", "stimulus": "<p id=\"stim\">TRACTOR</p>", "conditions": [24, 1600, "v", 24000], "internal_node_id": "0.0-154.0", "trial": 5, "time_elapsed": 906870, "serialpos": 11, "key_press": -1, "wordID": 1492, "type": "PRES_VIS", "trial_index": 208}, "uniqueid": "MTK1545:39ZSFO5CA93RYWYETDNU37N8JFOUJ0", "dateTime": 1515961439992}, {"current_trial": 209, "trialdata": {"rt": -1, "trial_type": "single-stim", "word": "suitcase", "stimulus": "<p id=\"stim\">SUITCASE</p>", "conditions": [24, 1600, "v", 24000], "internal_node_id": "0.0-155.0", "trial": 5, "time_elapsed": 909613, "serialpos": 12, "key_press": -1, "wordID": 1402, "type": "PRES_VIS", "trial_index": 209}, "uniqueid": "MTK1545:39ZSFO5CA93RYWYETDNU37N8JFOUJ0", "dateTime": 1515961442739}, {"current_trial": 210, "trialdata": {"rt": -1, "trial_type": "single-stim", "word": "apron", "stimulus": "<p id=\"stim\">APRON</p>", "conditions": [24, 1600, "v", 24000], "internal_node_id": "0.0-156.0", "trial": 5, "time_elapsed": 912167, "serialpos": 13, "key_press": -1, "wordID": 34, "type": "PRES_VIS", "trial_index": 210}, "uniqueid": "MTK1545:39ZSFO5CA93RYWYETDNU37N8JFOUJ0", "dateTime": 1515961445289}, {"current_trial": 211, "trialdata": {"rt": -1, "trial_type": "single-stim", "word": "mildew", "stimulus": "<p id=\"stim\">MILDEW</p>", "conditions": [24, 1600, "v", 24000], "internal_node_id": "0.0-157.0", "trial": 5, "time_elapsed": 914709, "serialpos": 14, "key_press": -1, "wordID": 892, "type": "PRES_VIS", "trial_index": 211}, "uniqueid": "MTK1545:39ZSFO5CA93RYWYETDNU37N8JFOUJ0", "dateTime": 1515961447831}, {"current_trial": 212, "trialdata": {"rt": -1, "trial_type": "single-stim", "word": "fungus", "stimulus": "<p id=\"stim\">FUNGUS</p>", "conditions": [24, 1600, "v", 24000], "internal_node_id": "0.0-158.0", "trial": 5, "time_elapsed": 917337, "serialpos": 15, "key_press": -1, "wordID": 613, "type": "PRES_VIS", "trial_index": 212}, "uniqueid": "MTK1545:39ZSFO5CA93RYWYETDNU37N8JFOUJ0", "dateTime": 1515961450459}, {"current_trial": 213, "trialdata": {"rt": -1, "trial_type": "single-stim", "word": "carriage", "stimulus": "<p id=\"stim\">CARRIAGE</p>", "conditions": [24, 1600, "v", 24000], "internal_node_id": "0.0-159.0", "trial": 5, "time_elapsed": 919903, "serialpos": 16, "key_press": -1, "wordID": 247, "type": "PRES_VIS", "trial_index": 213}, "uniqueid": "MTK1545:39ZSFO5CA93RYWYETDNU37N8JFOUJ0", "dateTime": 1515961453025}, {"current_trial": 214, "trialdata": {"rt": -1, "trial_type": "single-stim", "word": "cross", "stimulus": "<p id=\"stim\">CROSS</p>", "conditions": [24, 1600, "v", 24000], "internal_node_id": "0.0-160.0", "trial": 5, "time_elapsed": 922618, "serialpos": 17, "key_press": -1, "wordID": 412, "type": "PRES_VIS", "trial_index": 214}, "uniqueid": "MTK1545:39ZSFO5CA93RYWYETDNU37N8JFOUJ0", "dateTime": 1515961455744}, {"current_trial": 215, "trialdata": {"rt": -1, "trial_type": "single-stim", "word": "fragrance", "stimulus": "<p id=\"stim\">FRAGRANCE</p>", "conditions": [24, 1600, "v", 24000], "internal_node_id": "0.0-161.0", "trial": 5, "time_elapsed": 925219, "serialpos": 18, "key_press": -1, "wordID": 598, "type": "PRES_VIS", "trial_index": 215}, "uniqueid": "MTK1545:39ZSFO5CA93RYWYETDNU37N8JFOUJ0", "dateTime": 1515961458341}, {"current_trial": 216, "trialdata": {"rt": -1, "trial_type": "single-stim", "word": "fleet", "stimulus": "<p id=\"stim\">FLEET</p>", "conditions": [24, 1600, "v", 24000], "internal_node_id": "0.0-162.0", "trial": 5, "time_elapsed": 927873, "serialpos": 19, "key_press": -1, "wordID": 577, "type": "PRES_VIS", "trial_index": 216}, "uniqueid": "MTK1545:39ZSFO5CA93RYWYETDNU37N8JFOUJ0", "dateTime": 1515961460995}, {"current_trial": 217, "trialdata": {"rt": -1, "trial_type": "single-stim", "word": "slug", "stimulus": "<p id=\"stim\">SLUG</p>", "conditions": [24, 1600, "v", 24000], "internal_node_id": "0.0-163.0", "trial": 5, "time_elapsed": 930287, "serialpos": 20, "key_press": -1, "wordID": 1328, "type": "PRES_VIS", "trial_index": 217}, "uniqueid": "MTK1545:39ZSFO5CA93RYWYETDNU37N8JFOUJ0", "dateTime": 1515961463409}, {"current_trial": 218, "trialdata": {"rt": -1, "trial_type": "single-stim", "word": "luggage", "stimulus": "<p id=\"stim\">LUGGAGE</p>", "conditions": [24, 1600, "v", 24000], "internal_node_id": "0.0-164.0", "trial": 5, "time_elapsed": 933028, "serialpos": 21, "key_press": -1, "wordID": 846, "type": "PRES_VIS", "trial_index": 218}, "uniqueid": "MTK1545:39ZSFO5CA93RYWYETDNU37N8JFOUJ0", "dateTime": 1515961466150}, {"current_trial": 219, "trialdata": {"rt": -1, "trial_type": "single-stim", "word": "viking", "stimulus": "<p id=\"stim\">VIKING</p>", "conditions": [24, 1600, "v", 24000], "internal_node_id": "0.0-165.0", "trial": 5, "time_elapsed": 935697, "serialpos": 22, "key_press": -1, "wordID": 1564, "type": "PRES_VIS", "trial_index": 219}, "uniqueid": "MTK1545:39ZSFO5CA93RYWYETDNU37N8JFOUJ0", "dateTime": 1515961468819}, {"current_trial": 220, "trialdata": {"rt": -1, "trial_type": "single-stim", "word": "europe", "stimulus": "<p id=\"stim\">EUROPE</p>", "conditions": [24, 1600, "v", 24000], "internal_node_id": "0.0-166.0", "trial": 5, "time_elapsed": 938381, "serialpos": 23, "key_press": -1, "wordID": 540, "type": "PRES_VIS", "trial_index": 220}, "uniqueid": "MTK1545:39ZSFO5CA93RYWYETDNU37N8JFOUJ0", "dateTime": 1515961471507}, {"current_trial": 221, "trialdata": {"rt": -1, "trial_type": "single-stim", "stimulus": "", "internal_node_id": "0.0-167.0-0.0", "time_elapsed": 940714, "key_press": -1, "type": "PRE_RECALL_DELAY", "trial_index": 221}, "uniqueid": "MTK1545:39ZSFO5CA93RYWYETDNU37N8JFOUJ0", "dateTime": 1515961473836}, {"current_trial": 222, "trialdata": {"rt": -1000, "trial_type": "single-audio", "stimulus": "/static/audio/400Hz.wav", "internal_node_id": "0.0-168.0", "time_elapsed": 941215, "key_press": -1, "type": "PRE_RECALL_ALERT", "trial_index": 222}, "uniqueid": "MTK1545:39ZSFO5CA93RYWYETDNU37N8JFOUJ0", "dateTime": 1515961474337}, {"current_trial": 223, "trialdata": {"rt": [3777, 8020, 14629], "recwords": ["trombone", "orchestra", "carriage"], "key_times": [1564, 1645, 1974, 2204, 2421, 2529, 2655, 2896, 3777, 5898, 6117, 6366, 6556, 6722, 7000, 7263, 7341, 7695, 8020, 12546, 12672, 12946, 13152, 13257, 13907, 14226, 14311, 14629], "trial_type": "free-recall", "conditions": [24, 1600, "v", 24000], "internal_node_id": "0.0-169.0-0.0", "key_presses": [84, 82, 79, 77, 66, 79, 78, 69, 13, 79, 82, 67, 72, 69, 83, 84, 82, 65, 13, 67, 65, 82, 82, 73, 65, 71, 69, 13], "trial": 5, "time_elapsed": 1001224, "type": "FREE_RECALL", "trial_index": 223}, "uniqueid": "MTK1545:39ZSFO5CA93RYWYETDNU37N8JFOUJ0", "dateTime": 1515961534362}, {"current_trial": 224, "trialdata": {"rt": 2482, "trial_type": "text", "internal_node_id": "0.0-170.0", "time_elapsed": 1005729, "key_press": 32, "type": "INSTRUCTIONS", "trial_index": 224}, "uniqueid": "MTK1545:39ZSFO5CA93RYWYETDNU37N8JFOUJ0", "dateTime": 1515961538851}, {"current_trial": 225, "trialdata": {"rt": [2902, 5161, 7014, 8766, 10207, 11882, 15582, 18086, 20964], "trial_type": "math-distractor", "key_times": [2330, 2526, 2902, 4295, 4724, 5161, 6493, 6678, 7014, 8244, 8549, 8766, 10035, 10207, 11414, 11738, 11882, 15090, 15286, 15582, 17338, 17742, 18086, 20776, 20964, 23806, 23866], "responses": ["13", "17", "10", "17", "6", "16", "19", "13", "6"], "num2": [5, 9, 1, 9, 1, 9, 8, 3, 1, 8], "num3": [1, 7, 2, 6, 4, 1, 8, 9, 4, 6], "conditions": [24, 1600, "v", 24000], "internal_node_id": "0.0-171.0", "key_presses": [49, 51, 13, 49, 55, 13, 49, 48, 13, 49, 55, 13, 54, 13, 49, 54, 13, 49, 57, 13, 49, 51, 13, 54, 13, 50, 51], "trial": 6, "time_elapsed": 1031738, "type": "DISTRACTOR", "trial_index": 225, "num1": [7, 1, 7, 2, 1, 6, 3, 1, 1, 9]}, "uniqueid": "MTK1545:39ZSFO5CA93RYWYETDNU37N8JFOUJ0", "dateTime": 1515961564860}, {"current_trial": 226, "trialdata": {"rt": -1, "trial_type": "single-stim", "stimulus": "<p id=\"stim\">10</p>", "internal_node_id": "0.0-172.0-0.0", "time_elapsed": 1034741, "key_press": -1, "trial_index": 226}, "uniqueid": "MTK1545:39ZSFO5CA93RYWYETDNU37N8JFOUJ0", "dateTime": 1515961567863}, {"current_trial": 227, "trialdata": {"rt": -1, "trial_type": "single-stim", "stimulus": "<p id=\"stim\">9</p>", "internal_node_id": "0.0-172.0-1.0", "time_elapsed": 1035743, "key_press": -1, "trial_index": 227}, "uniqueid": "MTK1545:39ZSFO5CA93RYWYETDNU37N8JFOUJ0", "dateTime": 1515961568865}, {"current_trial": 228, "trialdata": {"rt": -1, "trial_type": "single-stim", "stimulus": "<p id=\"stim\">8</p>", "internal_node_id": "0.0-172.0-2.0", "time_elapsed": 1036748, "key_press": -1, "trial_index": 228}, "uniqueid": "MTK1545:39ZSFO5CA93RYWYETDNU37N8JFOUJ0", "dateTime": 1515961569870}, {"current_trial": 229, "trialdata": {"rt": -1, "trial_type": "single-stim", "stimulus": "<p id=\"stim\">7</p>", "internal_node_id": "0.0-172.0-3.0", "time_elapsed": 1037753, "key_press": -1, "trial_index": 229}, "uniqueid": "MTK1545:39ZSFO5CA93RYWYETDNU37N8JFOUJ0", "dateTime": 1515961570875}, {"current_trial": 230, "trialdata": {"rt": -1, "trial_type": "single-stim", "stimulus": "<p id=\"stim\">6</p>", "internal_node_id": "0.0-172.0-4.0", "time_elapsed": 1038757, "key_press": -1, "trial_index": 230}, "uniqueid": "MTK1545:39ZSFO5CA93RYWYETDNU37N8JFOUJ0", "dateTime": 1515961571883}, {"current_trial": 231, "trialdata": {"rt": -1, "trial_type": "single-stim", "stimulus": "<p id=\"stim\">5</p>", "internal_node_id": "0.0-172.0-5.0", "time_elapsed": 1039763, "key_press": -1, "trial_index": 231}, "uniqueid": "MTK1545:39ZSFO5CA93RYWYETDNU37N8JFOUJ0", "dateTime": 1515961572885}, {"current_trial": 232, "trialdata": {"rt": -1, "trial_type": "single-stim", "stimulus": "<p id=\"stim\">4</p>", "internal_node_id": "0.0-172.0-6.0", "time_elapsed": 1040764, "key_press": -1, "trial_index": 232}, "uniqueid": "MTK1545:39ZSFO5CA93RYWYETDNU37N8JFOUJ0", "dateTime": 1515961573886}, {"current_trial": 233, "trialdata": {"rt": -1, "trial_type": "single-stim", "stimulus": "<p id=\"stim\">3</p>", "internal_node_id": "0.0-172.0-7.0", "time_elapsed": 1041767, "key_press": -1, "trial_index": 233}, "uniqueid": "MTK1545:39ZSFO5CA93RYWYETDNU37N8JFOUJ0", "dateTime": 1515961574889}, {"current_trial": 234, "trialdata": {"rt": -1, "trial_type": "single-stim", "stimulus": "<p id=\"stim\">2</p>", "internal_node_id": "0.0-172.0-8.0", "time_elapsed": 1042768, "key_press": -1, "trial_index": 234}, "uniqueid": "MTK1545:39ZSFO5CA93RYWYETDNU37N8JFOUJ0", "dateTime": 1515961575890}, {"current_trial": 235, "trialdata": {"rt": -1, "trial_type": "single-stim", "stimulus": "<p id=\"stim\">1</p>", "internal_node_id": "0.0-172.0-9.0", "time_elapsed": 1043773, "key_press": -1, "trial_index": 235}, "uniqueid": "MTK1545:39ZSFO5CA93RYWYETDNU37N8JFOUJ0", "dateTime": 1515961576895}, {"current_trial": 236, "trialdata": {"rt": -1, "trial_type": "single-stim", "stimulus": "<p id=\"stim\">+</p>", "internal_node_id": "0.0-173.0-0.0", "time_elapsed": 1045276, "key_press": -1, "type": "FIXATION", "trial_index": 236}, "uniqueid": "MTK1545:39ZSFO5CA93RYWYETDNU37N8JFOUJ0", "dateTime": 1515961578402}, {"current_trial": 237, "trialdata": {"rt": -1, "trial_type": "single-stim", "word": "postage", "stimulus": "<p id=\"stim\">POSTAGE</p>", "conditions": [24, 1600, "v", 24000], "internal_node_id": "0.0-174.0", "trial": 6, "time_elapsed": 1046881, "serialpos": 0, "key_press": -1, "wordID": 1112, "type": "PRES_VIS", "trial_index": 237}, "uniqueid": "MTK1545:39ZSFO5CA93RYWYETDNU37N8JFOUJ0", "dateTime": 1515961580003}, {"current_trial": 238, "trialdata": {"rt": -1, "trial_type": "single-stim", "word": "child", "stimulus": "<p id=\"stim\">CHILD</p>", "conditions": [24, 1600, "v", 24000], "internal_node_id": "0.0-175.0", "trial": 6, "time_elapsed": 1049416, "serialpos": 1, "key_press": -1, "wordID": 298, "type": "PRES_VIS", "trial_index": 238}, "uniqueid": "MTK1545:39ZSFO5CA93RYWYETDNU37N8JFOUJ0", "dateTime": 1515961582538}, {"current_trial": 239, "trialdata": {"rt": -1, "trial_type": "single-stim", "word": "branch", "stimulus": "<p id=\"stim\">BRANCH</p>", "conditions": [24, 1600, "v", 24000], "internal_node_id": "0.0-176.0", "trial": 6, "time_elapsed": 1052179, "serialpos": 2, "key_press": -1, "wordID": 167, "type": "PRES_VIS", "trial_index": 239}, "uniqueid": "MTK1545:39ZSFO5CA93RYWYETDNU37N8JFOUJ0", "dateTime": 1515961585301}, {"current_trial": 240, "trialdata": {"rt": -1, "trial_type": "single-stim", "word": "suspect", "stimulus": "<p id=\"stim\">SUSPECT</p>", "conditions": [24, 1600, "v", 24000], "internal_node_id": "0.0-177.0", "trial": 6, "time_elapsed": 1054828, "serialpos": 3, "key_press": -1, "wordID": 1414, "type": "PRES_VIS", "trial_index": 240}, "uniqueid": "MTK1545:39ZSFO5CA93RYWYETDNU37N8JFOUJ0", "dateTime": 1515961587950}, {"current_trial": 241, "trialdata": {"rt": -1, "trial_type": "single-stim", "word": "garbage", "stimulus": "<p id=\"stim\">GARBAGE</p>", "conditions": [24, 1600, "v", 24000], "internal_node_id": "0.0-178.0", "trial": 6, "time_elapsed": 1057393, "serialpos": 4, "key_press": -1, "wordID": 621, "type": "PRES_VIS", "trial_index": 241}, "uniqueid": "MTK1545:39ZSFO5CA93RYWYETDNU37N8JFOUJ0", "dateTime": 1515961590515}, {"current_trial": 242, "trialdata": {"rt": -1, "trial_type": "single-stim", "word": "girl", "stimulus": "<p id=\"stim\">GIRL</p>", "conditions": [24, 1600, "v", 24000], "internal_node_id": "0.0-179.0", "trial": 6, "time_elapsed": 1060177, "serialpos": 5, "key_press": -1, "wordID": 636, "type": "PRES_VIS", "trial_index": 242}, "uniqueid": "MTK1545:39ZSFO5CA93RYWYETDNU37N8JFOUJ0", "dateTime": 1515961593299}, {"current_trial": 243, "trialdata": {"rt": -1, "trial_type": "single-stim", "word": "racket", "stimulus": "<p id=\"stim\">RACKET</p>", "conditions": [24, 1600, "v", 24000], "internal_node_id": "0.0-180.0", "trial": 6, "time_elapsed": 1062870, "serialpos": 6, "key_press": -1, "wordID": 1154, "type": "PRES_VIS", "trial_index": 243}, "uniqueid": "MTK1545:39ZSFO5CA93RYWYETDNU37N8JFOUJ0", "dateTime": 1515961595992}, {"current_trial": 244, "trialdata": {"rt": -1, "trial_type": "single-stim", "word": "dress", "stimulus": "<p id=\"stim\">DRESS</p>", "conditions": [24, 1600, "v", 24000], "internal_node_id": "0.0-181.0", "trial": 6, "time_elapsed": 1065347, "serialpos": 7, "key_press": -1, "wordID": 494, "type": "PRES_VIS", "trial_index": 244}, "uniqueid": "MTK1545:39ZSFO5CA93RYWYETDNU37N8JFOUJ0", "dateTime": 1515961598469}, {"current_trial": 245, "trialdata": {"rt": -1, "trial_type": "single-stim", "word": "plaza", "stimulus": "<p id=\"stim\">PLAZA</p>", "conditions": [24, 1600, "v", 24000], "internal_node_id": "0.0-182.0", "trial": 6, "time_elapsed": 1068013, "serialpos": 8, "key_press": -1, "wordID": 1087, "type": "PRES_VIS", "trial_index": 245}, "uniqueid": "MTK1545:39ZSFO5CA93RYWYETDNU37N8JFOUJ0", "dateTime": 1515961601135}, {"current_trial": 246, "trialdata": {"rt": -1, "trial_type": "single-stim", "word": "fox", "stimulus": "<p id=\"stim\">FOX</p>", "conditions": [24, 1600, "v", 24000], "internal_node_id": "0.0-183.0", "trial": 6, "time_elapsed": 1070430, "serialpos": 9, "key_press": -1, "wordID": 597, "type": "PRES_VIS", "trial_index": 246}, "uniqueid": "MTK1545:39ZSFO5CA93RYWYETDNU37N8JFOUJ0", "dateTime": 1515961603552}, {"current_trial": 247, "trialdata": {"rt": -1, "trial_type": "single-stim", "word": "rooster", "stimulus": "<p id=\"stim\">ROOSTER</p>", "conditions": [24, 1600, "v", 24000], "internal_node_id": "0.0-184.0", "trial": 6, "time_elapsed": 1073216, "serialpos": 10, "key_press": -1, "wordID": 1208, "type": "PRES_VIS", "trial_index": 247}, "uniqueid": "MTK1545:39ZSFO5CA93RYWYETDNU37N8JFOUJ0", "dateTime": 1515961606342}, {"current_trial": 248, "trialdata": {"rt": -1, "trial_type": "single-stim", "word": "female", "stimulus": "<p id=\"stim\">FEMALE</p>", "conditions": [24, 1600, "v", 24000], "internal_node_id": "0.0-185.0", "trial": 6, "time_elapsed": 1075749, "serialpos": 11, "key_press": -1, "wordID": 558, "type": "PRES_VIS", "trial_index": 248}, "uniqueid": "MTK1545:39ZSFO5CA93RYWYETDNU37N8JFOUJ0", "dateTime": 1515961608871}, {"current_trial": 249, "trialdata": {"rt": -1, "trial_type": "single-stim", "word": "belly", "stimulus": "<p id=\"stim\">BELLY</p>", "conditions": [24, 1600, "v", 24000], "internal_node_id": "0.0-186.0", "trial": 6, "time_elapsed": 1078285, "serialpos": 12, "key_press": -1, "wordID": 118, "type": "PRES_VIS", "trial_index": 249}, "uniqueid": "MTK1545:39ZSFO5CA93RYWYETDNU37N8JFOUJ0", "dateTime": 1515961611407}, {"current_trial": 250, "trialdata": {"rt": -1, "trial_type": "single-stim", "word": "forehead", "stimulus": "<p id=\"stim\">FOREHEAD</p>", "conditions": [24, 1600, "v", 24000], "internal_node_id": "0.0-187.0", "trial": 6, "time_elapsed": 1080884, "serialpos": 13, "key_press": -1, "wordID": 591, "type": "PRES_VIS", "trial_index": 250}, "uniqueid": "MTK1545:39ZSFO5CA93RYWYETDNU37N8JFOUJ0", "dateTime": 1515961614006}, {"current_trial": 251, "trialdata": {"rt": -1, "trial_type": "single-stim", "word": "chest", "stimulus": "<p id=\"stim\">CHEST</p>", "conditions": [24, 1600, "v", 24000], "internal_node_id": "0.0-188.0", "trial": 6, "time_elapsed": 1083486, "serialpos": 14, "key_press": -1, "wordID": 294, "type": "PRES_VIS", "trial_index": 251}, "uniqueid": "MTK1545:39ZSFO5CA93RYWYETDNU37N8JFOUJ0", "dateTime": 1515961616608}, {"current_trial": 252, "trialdata": {"rt": -1, "trial_type": "single-stim", "word": "peach", "stimulus": "<p id=\"stim\">PEACH</p>", "conditions": [24, 1600, "v", 24000], "internal_node_id": "0.0-189.0",