{"assignmentId": "31UV0MXWNRJEI6OTAUUMJUGS8IOI5B", "workerId": "MTK1777", "questiondata": {"origin": "United States", "strat-rehearsal": "48", "marital": "Single", "education": "Some college", "ethnicity": "Not Hispanic", "color_depth": 24, "distracted": "No", "wrote-notes": "No", "strat-other": "", "screen_width": 1920, "avail_screen_width": 1920, "avail_screen_height": 1080, "strat-image": "31", "language": "English", "gender": "Male", "age": "48", "gender_other": "", "race": ["White"], "strat-categorize": "45", "pixel_depth": 24, "strat-spatial": "2", "strat-story": "2", "race_other": "", "screen_height": 1080}, "bonus": 0, "hitId": "30Y6N4AHYP3KSY8BPL1C6E9RQ0ZRD7", "counterbalance": 30, "useragent": "Mozilla/5.0 (X11; CrOS x86_64 10032.86.0) AppleWebKit/537.36 (KHTML, like Gecko) Chrome/63.0.3239.140 Safari/537.36", "eventdata": [{"eventtype": "initialized", "interval": 0, "value": null, "timestamp": 1516299003690}, {"eventtype": "window_resize", "interval": 0, "value": [1920, 1016], "timestamp": 1516299003690}, {"eventtype": "focus", "interval": 35548, "value": "off", "timestamp": 1516299039238}, {"eventtype": "focus", "interval": 5049, "value": "on", "timestamp": 1516299044287}, {"eventtype": "focus", "interval": 14848, "value": "off", "timestamp": 1516299059135}, {"eventtype": "focus", "interval": 1, "value": "on", "timestamp": 1516299059136}, {"eventtype": "focus", "interval": 154934, "value": "off", "timestamp": 1516299214070}, {"eventtype": "focus", "interval": 2696, "value": "on", "timestamp": 1516299216766}, {"eventtype": "window_resize", "interval": 7536, "value": [1494, 1016], "timestamp": 1516299224302}, {"eventtype": "focus", "interval": 598, "value": "off", "timestamp": 1516299224900}, {"eventtype": "focus", "interval": 6425, "value": "on", "timestamp": 1516299231325}, {"eventtype": "focus", "interval": 758383, "value": "off", "timestamp": 1516299989708}, {"eventtype": "focus", "interval": 9326, "value": "on", "timestamp": 1516299999034}, {"eventtype": "focus", "interval": 161832, "value": "off", "timestamp": 1516300160866}, {"eventtype": "focus", "interval": 6732, "value": "on", "timestamp": 1516300167598}, {"eventtype": "focus", "interval": 275479, "value": "off", "timestamp": 1516300443077}, {"eventtype": "focus", "interval": 4674, "value": "on", "timestamp": 1516300447751}, {"eventtype": "focus", "interval": 971205, "value": "off", "timestamp": 1516301418956}, {"eventtype": "focus", "interval": 7943, "value": "on", "timestamp": 1516301426899}, {"eventtype": "focus", "interval": 100547, "value": "off", "timestamp": 1516301527446}, {"eventtype": "focus", "interval": 1489, "value": "on", "timestamp": 1516301528935}, {"eventtype": "focus", "interval": 43934, "value": "off", "timestamp": 1516301572869}, {"eventtype": "focus", "interval": 1317, "value": "on", "timestamp": 1516301574186}, {"eventtype": "focus", "interval": 332056, "value": "off", "timestamp": 1516301906242}, {"eventtype": "focus", "interval": 33916, "value": "on", "timestamp": 1516301940158}], "data": [{"current_trial": 0, "trialdata": {"rt": 2269, "trial_type": "text", "internal_node_id": "0.0-0.0", "time_elapsed": 2272, "key_press": 18, "type": "INSTRUCTIONS", "trial_index": 0}, "uniqueid": "MTK1777:31UV0MXWNRJEI6OTAUUMJUGS8IOI5B", "dateTime": 1516299006604}, {"current_trial": 1, "trialdata": {"rt": 17182, "trial_type": "text", "internal_node_id": "0.0-1.0", "time_elapsed": 19458, "key_press": 32, "type": "INSTRUCTIONS", "trial_index": 1}, "uniqueid": "MTK1777:31UV0MXWNRJEI6OTAUUMJUGS8IOI5B", "dateTime": 1516299023788}, {"current_trial": 2, "trialdata": {"rt": [30375], "trial_type": "audio-test", "responses": ["ocean"], "internal_node_id": "0.0-2.0", "time_elapsed": 49892, "type": "AUDIO_TEST", "trial_index": 2}, "uniqueid": "MTK1777:31UV0MXWNRJEI6OTAUUMJUGS8IOI5B", "dateTime": 1516299054222}, {"current_trial": 3, "trialdata": {"rt": [1316, 11725], "trial_type": "audio-test", "responses": ["", "crystal"], "internal_node_id": "0.0-3.0", "time_elapsed": 61628, "type": "AUDIO_TEST", "trial_index": 3}, "uniqueid": "MTK1777:31UV0MXWNRJEI6OTAUUMJUGS8IOI5B", "dateTime": 1516299065958}, {"current_trial": 4, "trialdata": {"rt": [8655], "trial_type": "audio-test", "responses": ["spice"], "internal_node_id": "0.0-4.0", "time_elapsed": 70292, "type": "AUDIO_TEST", "trial_index": 4}, "uniqueid": "MTK1777:31UV0MXWNRJEI6OTAUUMJUGS8IOI5B", "dateTime": 1516299074623}, {"current_trial": 5, "trialdata": {"rt": 22076, "trial_type": "survey-text", "responses": "{\"Q0\":\"12:30am\",\"Q1\":\"9:00am\",\"Q2\":\"5\"}", "internal_node_id": "0.0-5.0", "time_elapsed": 93124, "type": "SLEEP_SURVEY", "trial_index": 5}, "uniqueid": "MTK1777:31UV0MXWNRJEI6OTAUUMJUGS8IOI5B", "dateTime": 1516299097454}, {"current_trial": 6, "trialdata": {"rt": 40903, "trial_type": "text", "internal_node_id": "0.0-6.0", "time_elapsed": 135028, "key_press": 32, "type": "INSTRUCTIONS", "trial_index": 6}, "uniqueid": "MTK1777:31UV0MXWNRJEI6OTAUUMJUGS8IOI5B", "dateTime": 1516299139358}, {"current_trial": 7, "trialdata": {"rt": 16140, "trial_type": "text", "internal_node_id": "0.0-7.0", "time_elapsed": 151670, "key_press": 32, "type": "INSTRUCTIONS", "trial_index": 7}, "uniqueid": "MTK1777:31UV0MXWNRJEI6OTAUUMJUGS8IOI5B", "dateTime": 1516299156000}, {"current_trial": 8, "trialdata": {"rt": 9400, "trial_type": "text", "internal_node_id": "0.0-8.0", "time_elapsed": 161571, "key_press": 32, "type": "INSTRUCTIONS", "trial_index": 8}, "uniqueid": "MTK1777:31UV0MXWNRJEI6OTAUUMJUGS8IOI5B", "dateTime": 1516299165901}, {"current_trial": 9, "trialdata": {"rt": [6827, 8467, 10595, 14595, 16595], "trial_type": "math-distractor", "key_times": [6175, 6419, 6827, 7955, 8155, 8467, 9939, 10264, 10595, 13819, 14067, 14595, 16052, 16309, 16595, 17859], "responses": ["12", "14", "20", "23", "20"], "num2": [9, 6, 6, 8, 7, 3], "num3": [2, 1, 6, 9, 4, 4], "conditions": [18, 1200, "v", 18000], "internal_node_id": "0.0-9.0", "key_presses": [97, 98, 13, 97, 100, 13, 98, 96, 13, 98, 99, 13, 98, 96, 13, 97], "trial": 0, "time_elapsed": 180601, "type": "DISTRACTOR", "trial_index": 9, "num1": [1, 7, 8, 6, 9, 6]}, "uniqueid": "MTK1777:31UV0MXWNRJEI6OTAUUMJUGS8IOI5B", "dateTime": 1516299184931}, {"current_trial": 10, "trialdata": {"rt": -1, "trial_type": "single-stim", "stimulus": "<p id=\"stim\">10</p>", "internal_node_id": "0.0-10.0-0.0", "time_elapsed": 183605, "key_press": -1, "trial_index": 10}, "uniqueid": "MTK1777:31UV0MXWNRJEI6OTAUUMJUGS8IOI5B", "dateTime": 1516299187935}, {"current_trial": 11, "trialdata": {"rt": -1, "trial_type": "single-stim", "stimulus": "<p id=\"stim\">9</p>", "internal_node_id": "0.0-10.0-1.0", "time_elapsed": 184607, "key_press": -1, "trial_index": 11}, "uniqueid": "MTK1777:31UV0MXWNRJEI6OTAUUMJUGS8IOI5B", "dateTime": 1516299188937}, {"current_trial": 12, "trialdata": {"rt": -1, "trial_type": "single-stim", "stimulus": "<p id=\"stim\">8</p>", "internal_node_id": "0.0-10.0-2.0", "time_elapsed": 185609, "key_press": -1, "trial_index": 12}, "uniqueid": "MTK1777:31UV0MXWNRJEI6OTAUUMJUGS8IOI5B", "dateTime": 1516299189939}, {"current_trial": 13, "trialdata": {"rt": -1, "trial_type": "single-stim", "stimulus": "<p id=\"stim\">7</p>", "internal_node_id": "0.0-10.0-3.0", "time_elapsed": 186612, "key_press": -1, "trial_index": 13}, "uniqueid": "MTK1777:31UV0MXWNRJEI6OTAUUMJUGS8IOI5B", "dateTime": 1516299190942}, {"current_trial": 14, "trialdata": {"rt": -1, "trial_type": "single-stim", "stimulus": "<p id=\"stim\">6</p>", "internal_node_id": "0.0-10.0-4.0", "time_elapsed": 187614, "key_press": -1, "trial_index": 14}, "uniqueid": "MTK1777:31UV0MXWNRJEI6OTAUUMJUGS8IOI5B", "dateTime": 1516299191944}, {"current_trial": 15, "trialdata": {"rt": -1, "trial_type": "single-stim", "stimulus": "<p id=\"stim\">5</p>", "internal_node_id": "0.0-10.0-5.0", "time_elapsed": 188615, "key_press": -1, "trial_index": 15}, "uniqueid": "MTK1777:31UV0MXWNRJEI6OTAUUMJUGS8IOI5B", "dateTime": 1516299192945}, {"current_trial": 16, "trialdata": {"rt": -1, "trial_type": "single-stim", "stimulus": "<p id=\"stim\">4</p>", "internal_node_id": "0.0-10.0-6.0", "time_elapsed": 189616, "key_press": -1, "trial_index": 16}, "uniqueid": "MTK1777:31UV0MXWNRJEI6OTAUUMJUGS8IOI5B", "dateTime": 1516299193947}, {"current_trial": 17, "trialdata": {"rt": -1, "trial_type": "single-stim", "stimulus": "<p id=\"stim\">3</p>", "internal_node_id": "0.0-10.0-7.0", "time_elapsed": 190618, "key_press": -1, "trial_index": 17}, "uniqueid": "MTK1777:31UV0MXWNRJEI6OTAUUMJUGS8IOI5B", "dateTime": 1516299194948}, {"current_trial": 18, "trialdata": {"rt": -1, "trial_type": "single-stim", "stimulus": "<p id=\"stim\">2</p>", "internal_node_id": "0.0-10.0-8.0", "time_elapsed": 191619, "key_press": -1, "trial_index": 18}, "uniqueid": "MTK1777:31UV0MXWNRJEI6OTAUUMJUGS8IOI5B", "dateTime": 1516299195949}, {"current_trial": 19, "trialdata": {"rt": -1, "trial_type": "single-stim", "stimulus": "<p id=\"stim\">1</p>", "internal_node_id": "0.0-10.0-9.0", "time_elapsed": 192621, "key_press": -1, "trial_index": 19}, "uniqueid": "MTK1777:31UV0MXWNRJEI6OTAUUMJUGS8IOI5B", "dateTime": 1516299196951}, {"current_trial": 20, "trialdata": {"rt": -1, "trial_type": "single-stim", "stimulus": "<p id=\"stim\">+</p>", "internal_node_id": "0.0-11.0-0.0", "time_elapsed": 194122, "key_press": -1, "type": "FIXATION", "trial_index": 20}, "uniqueid": "MTK1777:31UV0MXWNRJEI6OTAUUMJUGS8IOI5B", "dateTime": 1516299198452}, {"current_trial": 21, "trialdata": {"rt": -1, "trial_type": "single-stim", "word": "canal", "stimulus": "<p id=\"stim\">CANAL</p>", "conditions": [18, 1200, "v", 18000], "internal_node_id": "0.0-12.0", "trial": 0, "time_elapsed": 195324, "serialpos": 0, "key_press": -1, "wordID": 225, "type": "PRES_VIS", "trial_index": 21}, "uniqueid": "MTK1777:31UV0MXWNRJEI6OTAUUMJUGS8IOI5B", "dateTime": 1516299199655}, {"current_trial": 22, "trialdata": {"rt": -1, "trial_type": "single-stim", "word": "chauffeur", "stimulus": "<p id=\"stim\">CHAUFFEUR</p>", "conditions": [18, 1200, "v", 18000], "internal_node_id": "0.0-13.0", "trial": 0, "time_elapsed": 197367, "serialpos": 1, "key_press": -1, "wordID": 282, "type": "PRES_VIS", "trial_index": 22}, "uniqueid": "MTK1777:31UV0MXWNRJEI6OTAUUMJUGS8IOI5B", "dateTime": 1516299201697}, {"current_trial": 23, "trialdata": {"rt": -1, "trial_type": "single-stim", "word": "frame", "stimulus": "<p id=\"stim\">FRAME</p>", "conditions": [18, 1200, "v", 18000], "internal_node_id": "0.0-14.0", "trial": 0, "time_elapsed": 199586, "serialpos": 2, "key_press": -1, "wordID": 599, "type": "PRES_VIS", "trial_index": 23}, "uniqueid": "MTK1777:31UV0MXWNRJEI6OTAUUMJUGS8IOI5B", "dateTime": 1516299203916}, {"current_trial": 24, "trialdata": {"rt": -1, "trial_type": "single-stim", "word": "flipper", "stimulus": "<p id=\"stim\">FLIPPER</p>", "conditions": [18, 1200, "v", 18000], "internal_node_id": "0.0-15.0", "trial": 0, "time_elapsed": 201747, "serialpos": 3, "key_press": -1, "wordID": 579, "type": "PRES_VIS", "trial_index": 24}, "uniqueid": "MTK1777:31UV0MXWNRJEI6OTAUUMJUGS8IOI5B", "dateTime": 1516299206078}, {"current_trial": 25, "trialdata": {"rt": -1, "trial_type": "single-stim", "word": "champagne", "stimulus": "<p id=\"stim\">CHAMPAGNE</p>", "conditions": [18, 1200, "v", 18000], "internal_node_id": "0.0-16.0", "trial": 0, "time_elapsed": 203887, "serialpos": 4, "key_press": -1, "wordID": 277, "type": "PRES_VIS", "trial_index": 25}, "uniqueid": "MTK1777:31UV0MXWNRJEI6OTAUUMJUGS8IOI5B", "dateTime": 1516299208217}, {"current_trial": 26, "trialdata": {"rt": -1, "trial_type": "single-stim", "word": "sticker", "stimulus": "<p id=\"stim\">STICKER</p>", "conditions": [18, 1200, "v", 18000], "internal_node_id": "0.0-17.0", "trial": 0, "time_elapsed": 206081, "serialpos": 5, "key_press": -1, "wordID": 1381, "type": "PRES_VIS", "trial_index": 26}, "uniqueid": "MTK1777:31UV0MXWNRJEI6OTAUUMJUGS8IOI5B", "dateTime": 1516299210411}, {"current_trial": 27, "trialdata": {"rt": -1, "trial_type": "single-stim", "word": "monster", "stimulus": "<p id=\"stim\">MONSTER</p>", "conditions": [18, 1200, "v", 18000], "internal_node_id": "0.0-18.0", "trial": 0, "time_elapsed": 208473, "serialpos": 6, "key_press": -1, "wordID": 911, "type": "PRES_VIS", "trial_index": 27}, "uniqueid": "MTK1777:31UV0MXWNRJEI6OTAUUMJUGS8IOI5B", "dateTime": 1516299212803}, {"current_trial": 28, "trialdata": {"rt": -1, "trial_type": "single-stim", "word": "plaster", "stimulus": "<p id=\"stim\">PLASTER</p>", "conditions": [18, 1200, "v", 18000], "internal_node_id": "0.0-19.0", "trial": 0, "time_elapsed": 210602, "serialpos": 7, "key_press": -1, "wordID": 1084, "type": "PRES_VIS", "trial_index": 28}, "uniqueid": "MTK1777:31UV0MXWNRJEI6OTAUUMJUGS8IOI5B", "dateTime": 1516299214932}, {"current_trial": 29, "trialdata": {"rt": -1, "trial_type": "single-stim", "word": "cyclone", "stimulus": "<p id=\"stim\">CYCLONE</p>", "conditions": [18, 1200, "v", 18000], "internal_node_id": "0.0-20.0", "trial": 0, "time_elapsed": 212936, "serialpos": 8, "key_press": -1, "wordID": 430, "type": "PRES_VIS", "trial_index": 29}, "uniqueid": "MTK1777:31UV0MXWNRJEI6OTAUUMJUGS8IOI5B", "dateTime": 1516299217266}, {"current_trial": 30, "trialdata": {"rt": -1, "trial_type": "single-stim", "word": "ketchup", "stimulus": "<p id=\"stim\">KETCHUP</p>", "conditions": [18, 1200, "v", 18000], "internal_node_id": "0.0-21.0", "trial": 0, "time_elapsed": 215131, "serialpos": 9, "key_press": -1, "wordID": 770, "type": "PRES_VIS", "trial_index": 30}, "uniqueid": "MTK1777:31UV0MXWNRJEI6OTAUUMJUGS8IOI5B", "dateTime": 1516299219461}, {"current_trial": 31, "trialdata": {"rt": -1, "trial_type": "single-stim", "word": "cousin", "stimulus": "<p id=\"stim\">COUSIN</p>", "conditions": [18, 1200, "v", 18000], "internal_node_id": "0.0-22.0", "trial": 0, "time_elapsed": 217144, "serialpos": 10, "key_press": -1, "wordID": 391, "type": "PRES_VIS", "trial_index": 31}, "uniqueid": "MTK1777:31UV0MXWNRJEI6OTAUUMJUGS8IOI5B", "dateTime": 1516299221474}, {"current_trial": 32, "trialdata": {"rt": -1, "trial_type": "single-stim", "word": "peach", "stimulus": "<p id=\"stim\">PEACH</p>", "conditions": [18, 1200, "v", 18000], "internal_node_id": "0.0-23.0", "trial": 0, "time_elapsed": 219324, "serialpos": 11, "key_press": -1, "wordID": 1030, "type": "PRES_VIS", "trial_index": 32}, "uniqueid": "MTK1777:31UV0MXWNRJEI6OTAUUMJUGS8IOI5B", "dateTime": 1516299223655}, {"current_trial": 33, "trialdata": {"rt": -1, "trial_type": "single-stim", "word": "flask", "stimulus": "<p id=\"stim\">FLASK</p>", "conditions": [18, 1200, "v", 18000], "internal_node_id": "0.0-24.0", "trial": 0, "time_elapsed": 221488, "serialpos": 12, "key_press": -1, "wordID": 575, "type": "PRES_VIS", "trial_index": 33}, "uniqueid": "MTK1777:31UV0MXWNRJEI6OTAUUMJUGS8IOI5B", "dateTime": 1516299225818}, {"current_trial": 34, "trialdata": {"rt": -1, "trial_type": "single-stim", "word": "mammal", "stimulus": "<p id=\"stim\">MAMMAL</p>", "conditions": [18, 1200, "v", 18000], "internal_node_id": "0.0-25.0", "trial": 0, "time_elapsed": 223744, "serialpos": 13, "key_press": -1, "wordID": 860, "type": "PRES_VIS", "trial_index": 34}, "uniqueid": "MTK1777:31UV0MXWNRJEI6OTAUUMJUGS8IOI5B", "dateTime": 1516299228075}, {"current_trial": 35, "trialdata": {"rt": -1, "trial_type": "single-stim", "word": "summit", "stimulus": "<p id=\"stim\">SUMMIT</p>", "conditions": [18, 1200, "v", 18000], "internal_node_id": "0.0-26.0", "trial": 0, "time_elapsed": 225776, "serialpos": 14, "key_press": -1, "wordID": 1404, "type": "PRES_VIS", "trial_index": 35}, "uniqueid": "MTK1777:31UV0MXWNRJEI6OTAUUMJUGS8IOI5B", "dateTime": 1516299230106}, {"current_trial": 36, "trialdata": {"rt": -1, "trial_type": "single-stim", "word": "wardrobe", "stimulus": "<p id=\"stim\">WARDROBE</p>", "conditions": [18, 1200, "v", 18000], "internal_node_id": "0.0-27.0", "trial": 0, "time_elapsed": 227847, "serialpos": 15, "key_press": -1, "wordID": 1586, "type": "PRES_VIS", "trial_index": 36}, "uniqueid": "MTK1777:31UV0MXWNRJEI6OTAUUMJUGS8IOI5B", "dateTime": 1516299232177}, {"current_trial": 37, "trialdata": {"rt": -1, "trial_type": "single-stim", "word": "breast", "stimulus": "<p id=\"stim\">BREAST</p>", "conditions": [18, 1200, "v", 18000], "internal_node_id": "0.0-28.0", "trial": 0, "time_elapsed": 229854, "serialpos": 16, "key_press": -1, "wordID": 170, "type": "PRES_VIS", "trial_index": 37}, "uniqueid": "MTK1777:31UV0MXWNRJEI6OTAUUMJUGS8IOI5B", "dateTime": 1516299234185}, {"current_trial": 38, "trialdata": {"rt": -1, "trial_type": "single-stim", "word": "body", "stimulus": "<p id=\"stim\">BODY</p>", "conditions": [18, 1200, "v", 18000], "internal_node_id": "0.0-29.0", "trial": 0, "time_elapsed": 231913, "serialpos": 17, "key_press": -1, "wordID": 144, "type": "PRES_VIS", "trial_index": 38}, "uniqueid": "MTK1777:31UV0MXWNRJEI6OTAUUMJUGS8IOI5B", "dateTime": 1516299236243}, {"current_trial": 39, "trialdata": {"rt": -1, "trial_type": "single-stim", "stimulus": "", "internal_node_id": "0.0-30.0-0.0", "time_elapsed": 234180, "key_press": -1, "type": "PRE_RECALL_DELAY", "trial_index": 39}, "uniqueid": "MTK1777:31UV0MXWNRJEI6OTAUUMJUGS8IOI5B", "dateTime": 1516299238511}, {"current_trial": 40, "trialdata": {"rt": -1000, "trial_type": "single-audio", "stimulus": "/static/audio/400Hz.wav", "internal_node_id": "0.0-31.0", "time_elapsed": 234694, "key_press": -1, "type": "PRE_RECALL_ALERT", "trial_index": 40}, "uniqueid": "MTK1777:31UV0MXWNRJEI6OTAUUMJUGS8IOI5B", "dateTime": 1516299239024}, {"current_trial": 41, "trialdata": {"rt": [4498, 9463, 10735, 13455, 46527], "recwords": ["", "chauffer", "flame", "monster", "campaign"], "key_times": [4498, 7651, 7703, 7903, 8424, 8647, 8823, 8999, 9111, 9463, 9960, 10055, 10191, 10314, 10455, 10735, 11466, 11591, 11686, 12031, 12527, 12759, 12815, 13455, 19243, 19447, 19543, 19759, 20639, 20863, 21073, 21279, 26271, 27431, 44677, 44871, 44959, 45111, 45311, 45463, 45727, 46119, 46527], "trial_type": "free-recall", "conditions": [18, 1200, "v", 18000], "internal_node_id": "0.0-32.0-0.0", "key_presses": [32, 67, 72, 65, 85, 70, 70, 69, 82, 13, 70, 76, 65, 77, 69, 13, 77, 79, 78, 83, 84, 69, 82, 13, 67, 65, 77, 80, 8, 8, 8, 8, 67, 8, 67, 65, 77, 80, 65, 73, 71, 78, 13], "trial": 0, "time_elapsed": 294701, "type": "FREE_RECALL", "trial_index": 41}, "uniqueid": "MTK1777:31UV0MXWNRJEI6OTAUUMJUGS8IOI5B", "dateTime": 1516299299035}, {"current_trial": 42, "trialdata": {"rt": 1764, "trial_type": "text", "internal_node_id": "0.0-33.0", "time_elapsed": 298470, "key_press": 32, "type": "INSTRUCTIONS", "trial_index": 42}, "uniqueid": "MTK1777:31UV0MXWNRJEI6OTAUUMJUGS8IOI5B", "dateTime": 1516299302801}, {"current_trial": 43, "trialdata": {"rt": [1728, 3480, 5600, 7048, 8784, 10554, 13480, 16648], "trial_type": "math-distractor", "key_times": [1120, 1360, 1728, 2880, 3136, 3480, 5072, 5248, 5600, 6720, 7048, 8256, 8505, 8784, 9952, 10168, 10554, 13028, 13176, 13480, 16312, 16648], "responses": ["16", "18", "16", "8", "14", "16", "15", "8"], "num2": [7, 7, 4, 1, 4, 5, 4, 3, 7], "num3": [8, 2, 4, 6, 6, 2, 8, 4, 8], "conditions": [18, 1200, "v", 18000], "internal_node_id": "0.0-34.0", "key_presses": [97, 102, 13, 97, 104, 13, 97, 102, 13, 104, 13, 97, 100, 13, 97, 102, 13, 97, 101, 13, 104, 13], "trial": 1, "time_elapsed": 318475, "type": "DISTRACTOR", "trial_index": 43, "num1": [1, 9, 8, 1, 4, 9, 3, 1, 6]}, "uniqueid": "MTK1777:31UV0MXWNRJEI6OTAUUMJUGS8IOI5B", "dateTime": 1516299322805}, {"current_trial": 44, "trialdata": {"rt": -1, "trial_type": "single-stim", "stimulus": "<p id=\"stim\">10</p>", "internal_node_id": "0.0-35.0-0.0", "time_elapsed": 321477, "key_press": -1, "trial_index": 44}, "uniqueid": "MTK1777:31UV0MXWNRJEI6OTAUUMJUGS8IOI5B", "dateTime": 1516299325807}, {"current_trial": 45, "trialdata": {"rt": -1, "trial_type": "single-stim", "stimulus": "<p id=\"stim\">9</p>", "internal_node_id": "0.0-35.0-1.0", "time_elapsed": 322479, "key_press": -1, "trial_index": 45}, "uniqueid": "MTK1777:31UV0MXWNRJEI6OTAUUMJUGS8IOI5B", "dateTime": 1516299326809}, {"current_trial": 46, "trialdata": {"rt": -1, "trial_type": "single-stim", "stimulus": "<p id=\"stim\">8</p>", "internal_node_id": "0.0-35.0-2.0", "time_elapsed": 323480, "key_press": -1, "trial_index": 46}, "uniqueid": "MTK1777:31UV0MXWNRJEI6OTAUUMJUGS8IOI5B", "dateTime": 1516299327811}, {"current_trial": 47, "trialdata": {"rt": -1, "trial_type": "single-stim", "stimulus": "<p id=\"stim\">7</p>", "internal_node_id": "0.0-35.0-3.0", "time_elapsed": 324484, "key_press": -1, "trial_index": 47}, "uniqueid": "MTK1777:31UV0MXWNRJEI6OTAUUMJUGS8IOI5B", "dateTime": 1516299328815}, {"current_trial": 48, "trialdata": {"rt": -1, "trial_type": "single-stim", "stimulus": "<p id=\"stim\">6</p>", "internal_node_id": "0.0-35.0-4.0", "time_elapsed": 325486, "key_press": -1, "trial_index": 48}, "uniqueid": "MTK1777:31UV0MXWNRJEI6OTAUUMJUGS8IOI5B", "dateTime": 1516299329816}, {"current_trial": 49, "trialdata": {"rt": -1, "trial_type": "single-stim", "stimulus": "<p id=\"stim\">5</p>", "internal_node_id": "0.0-35.0-5.0", "time_elapsed": 326488, "key_press": -1, "trial_index": 49}, "uniqueid": "MTK1777:31UV0MXWNRJEI6OTAUUMJUGS8IOI5B", "dateTime": 1516299330818}, {"current_trial": 50, "trialdata": {"rt": -1, "trial_type": "single-stim", "stimulus": "<p id=\"stim\">4</p>", "internal_node_id": "0.0-35.0-6.0", "time_elapsed": 327492, "key_press": -1, "trial_index": 50}, "uniqueid": "MTK1777:31UV0MXWNRJEI6OTAUUMJUGS8IOI5B", "dateTime": 1516299331822}, {"current_trial": 51, "trialdata": {"rt": -1, "trial_type": "single-stim", "stimulus": "<p id=\"stim\">3</p>", "internal_node_id": "0.0-35.0-7.0", "time_elapsed": 328494, "key_press": -1, "trial_index": 51}, "uniqueid": "MTK1777:31UV0MXWNRJEI6OTAUUMJUGS8IOI5B", "dateTime": 1516299332824}, {"current_trial": 52, "trialdata": {"rt": -1, "trial_type": "single-stim", "stimulus": "<p id=\"stim\">2</p>", "internal_node_id": "0.0-35.0-8.0", "time_elapsed": 329495, "key_press": -1, "trial_index": 52}, "uniqueid": "MTK1777:31UV0MXWNRJEI6OTAUUMJUGS8IOI5B", "dateTime": 1516299333825}, {"current_trial": 53, "trialdata": {"rt": -1, "trial_type": "single-stim", "stimulus": "<p id=\"stim\">1</p>", "internal_node_id": "0.0-35.0-9.0", "time_elapsed": 330497, "key_press": -1, "trial_index": 53}, "uniqueid": "MTK1777:31UV0MXWNRJEI6OTAUUMJUGS8IOI5B", "dateTime": 1516299334827}, {"current_trial": 54, "trialdata": {"rt": -1, "trial_type": "single-stim", "stimulus": "<p id=\"stim\">+</p>", "internal_node_id": "0.0-36.0-0.0", "time_elapsed": 331998, "key_press": -1, "type": "FIXATION", "trial_index": 54}, "uniqueid": "MTK1777:31UV0MXWNRJEI6OTAUUMJUGS8IOI5B", "dateTime": 1516299336329}, {"current_trial": 55, "trialdata": {"rt": -1, "trial_type": "single-stim", "word": "transplant", "stimulus": "<p id=\"stim\">TRANSPLANT</p>", "conditions": [18, 1200, "v", 18000], "internal_node_id": "0.0-37.0", "trial": 1, "time_elapsed": 333202, "serialpos": 0, "key_press": -1, "wordID": 1495, "type": "PRES_VIS", "trial_index": 55}, "uniqueid": "MTK1777:31UV0MXWNRJEI6OTAUUMJUGS8IOI5B", "dateTime": 1516299337532}, {"current_trial": 56, "trialdata": {"rt": -1, "trial_type": "single-stim", "word": "novel", "stimulus": "<p id=\"stim\">NOVEL</p>", "conditions": [18, 1200, "v", 18000], "internal_node_id": "0.0-38.0", "trial": 1, "time_elapsed": 335263, "serialpos": 1, "key_press": -1, "wordID": 959, "type": "PRES_VIS", "trial_index": 56}, "uniqueid": "MTK1777:31UV0MXWNRJEI6OTAUUMJUGS8IOI5B", "dateTime": 1516299339593}, {"current_trial": 57, "trialdata": {"rt": -1, "trial_type": "single-stim", "word": "rod", "stimulus": "<p id=\"stim\">ROD</p>", "conditions": [18, 1200, "v", 18000], "internal_node_id": "0.0-39.0", "trial": 1, "time_elapsed": 337310, "serialpos": 2, "key_press": -1, "wordID": 1202, "type": "PRES_VIS", "trial_index": 57}, "uniqueid": "MTK1777:31UV0MXWNRJEI6OTAUUMJUGS8IOI5B", "dateTime": 1516299341640}, {"current_trial": 58, "trialdata": {"rt": -1, "trial_type": "single-stim", "word": "nomad", "stimulus": "<p id=\"stim\">NOMAD</p>", "conditions": [18, 1200, "v", 18000], "internal_node_id": "0.0-40.0", "trial": 1, "time_elapsed": 339502, "serialpos": 3, "key_press": -1, "wordID": 954, "type": "PRES_VIS", "trial_index": 58}, "uniqueid": "MTK1777:31UV0MXWNRJEI6OTAUUMJUGS8IOI5B", "dateTime": 1516299343832}, {"current_trial": 59, "trialdata": {"rt": -1, "trial_type": "single-stim", "word": "bacon", "stimulus": "<p id=\"stim\">BACON</p>", "conditions": [18, 1200, "v", 18000], "internal_node_id": "0.0-41.0", "trial": 1, "time_elapsed": 341582, "serialpos": 4, "key_press": -1, "wordID": 66, "type": "PRES_VIS", "trial_index": 59}, "uniqueid": "MTK1777:31UV0MXWNRJEI6OTAUUMJUGS8IOI5B", "dateTime": 1516299345912}, {"current_trial": 60, "trialdata": {"rt": -1, "trial_type": "single-stim", "word": "razor", "stimulus": "<p id=\"stim\">RAZOR</p>", "conditions": [18, 1200, "v", 18000], "internal_node_id": "0.0-42.0", "trial": 1, "time_elapsed": 343779, "serialpos": 5, "key_press": -1, "wordID": 1170, "type": "PRES_VIS", "trial_index": 60}, "uniqueid": "MTK1777:31UV0MXWNRJEI6OTAUUMJUGS8IOI5B", "dateTime": 1516299348110}, {"current_trial": 61, "trialdata": {"rt": -1, "trial_type": "single-stim", "word": "cookbook", "stimulus": "<p id=\"stim\">COOKBOOK</p>", "conditions": [18, 1200, "v", 18000], "internal_node_id": "0.0-43.0", "trial": 1, "time_elapsed": 346170, "serialpos": 6, "key_press": -1, "wordID": 372, "type": "PRES_VIS", "trial_index": 61}, "uniqueid": "MTK1777:31UV0MXWNRJEI6OTAUUMJUGS8IOI5B", "dateTime": 1516299350500}, {"current_trial": 62, "trialdata": {"rt": -1, "trial_type": "single-stim", "word": "contract", "stimulus": "<p id=\"stim\">CONTRACT</p>", "conditions": [18, 1200, "v", 18000], "internal_node_id": "0.0-44.0", "trial": 1, "time_elapsed": 348358, "serialpos": 7, "key_press": -1, "wordID": 367, "type": "PRES_VIS", "trial_index": 62}, "uniqueid": "MTK1777:31UV0MXWNRJEI6OTAUUMJUGS8IOI5B", "dateTime": 1516299352689}, {"current_trial": 63, "trialdata": {"rt": -1, "trial_type": "single-stim", "word": "knife", "stimulus": "<p id=\"stim\">KNIFE</p>", "conditions": [18, 1200, "v", 18000], "internal_node_id": "0.0-45.0", "trial": 1, "time_elapsed": 350756, "serialpos": 8, "key_press": -1, "wordID": 784, "type": "PRES_VIS", "trial_index": 63}, "uniqueid": "MTK1777:31UV0MXWNRJEI6OTAUUMJUGS8IOI5B", "dateTime": 1516299355087}, {"current_trial": 64, "trialdata": {"rt": -1, "trial_type": "single-stim", "word": "mailman", "stimulus": "<p id=\"stim\">MAILMAN</p>", "conditions": [18, 1200, "v", 18000], "internal_node_id": "0.0-46.0", "trial": 1, "time_elapsed": 352933, "serialpos": 9, "key_press": -1, "wordID": 857, "type": "PRES_VIS", "trial_index": 64}, "uniqueid": "MTK1777:31UV0MXWNRJEI6OTAUUMJUGS8IOI5B", "dateTime": 1516299357264}, {"current_trial": 65, "trialdata": {"rt": -1, "trial_type": "single-stim", "word": "crab", "stimulus": "<p id=\"stim\">CRAB</p>", "conditions": [18, 1200, "v", 18000], "internal_node_id": "0.0-47.0", "trial": 1, "time_elapsed": 355330, "serialpos": 10, "key_press": -1, "wordID": 396, "type": "PRES_VIS", "trial_index": 65}, "uniqueid": "MTK1777:31UV0MXWNRJEI6OTAUUMJUGS8IOI5B", "dateTime": 1516299359660}, {"current_trial": 66, "trialdata": {"rt": -1, "trial_type": "single-stim", "word": "atom", "stimulus": "<p id=\"stim\">ATOM</p>", "conditions": [18, 1200, "v", 18000], "internal_node_id": "0.0-48.0", "trial": 1, "time_elapsed": 357534, "serialpos": 11, "key_press": -1, "wordID": 54, "type": "PRES_VIS", "trial_index": 66}, "uniqueid": "MTK1777:31UV0MXWNRJEI6OTAUUMJUGS8IOI5B", "dateTime": 1516299361864}, {"current_trial": 67, "trialdata": {"rt": -1, "trial_type": "single-stim", "word": "brick", "stimulus": "<p id=\"stim\">BRICK</p>", "conditions": [18, 1200, "v", 18000], "internal_node_id": "0.0-49.0", "trial": 1, "time_elapsed": 359847, "serialpos": 12, "key_press": -1, "wordID": 171, "type": "PRES_VIS", "trial_index": 67}, "uniqueid": "MTK1777:31UV0MXWNRJEI6OTAUUMJUGS8IOI5B", "dateTime": 1516299364178}, {"current_trial": 68, "trialdata": {"rt": -1, "trial_type": "single-stim", "word": "friend", "stimulus": "<p id=\"stim\">FRIEND</p>", "conditions": [18, 1200, "v", 18000], "internal_node_id": "0.0-50.0", "trial": 1, "time_elapsed": 362054, "serialpos": 13, "key_press": -1, "wordID": 605, "type": "PRES_VIS", "trial_index": 68}, "uniqueid": "MTK1777:31UV0MXWNRJEI6OTAUUMJUGS8IOI5B", "dateTime": 1516299366393}, {"current_trial": 69, "trialdata": {"rt": -1, "trial_type": "single-stim", "word": "sunrise", "stimulus": "<p id=\"stim\">SUNRISE</p>", "conditions": [18, 1200, "v", 18000], "internal_node_id": "0.0-51.0", "trial": 1, "time_elapsed": 364156, "serialpos": 14, "key_press": -1, "wordID": 1406, "type": "PRES_VIS", "trial_index": 69}, "uniqueid": "MTK1777:31UV0MXWNRJEI6OTAUUMJUGS8IOI5B", "dateTime": 1516299368486}, {"current_trial": 70, "trialdata": {"rt": -1, "trial_type": "single-stim", "word": "leader", "stimulus": "<p id=\"stim\">LEADER</p>", "conditions": [18, 1200, "v", 18000], "internal_node_id": "0.0-52.0", "trial": 1, "time_elapsed": 366444, "serialpos": 15, "key_press": -1, "wordID": 806, "type": "PRES_VIS", "trial_index": 70}, "uniqueid": "MTK1777:31UV0MXWNRJEI6OTAUUMJUGS8IOI5B", "dateTime": 1516299370775}, {"current_trial": 71, "trialdata": {"rt": -1, "trial_type": "single-stim", "word": "napkin", "stimulus": "<p id=\"stim\">NAPKIN</p>", "conditions": [18, 1200, "v", 18000], "internal_node_id": "0.0-53.0", "trial": 1, "time_elapsed": 368836, "serialpos": 16, "key_press": -1, "wordID": 936, "type": "PRES_VIS", "trial_index": 71}, "uniqueid": "MTK1777:31UV0MXWNRJEI6OTAUUMJUGS8IOI5B", "dateTime": 1516299373167}, {"current_trial": 72, "trialdata": {"rt": -1, "trial_type": "single-stim", "word": "statue", "stimulus": "<p id=\"stim\">STATUE</p>", "conditions": [18, 1200, "v", 18000], "internal_node_id": "0.0-54.0", "trial": 1, "time_elapsed": 371019, "serialpos": 17, "key_press": -1, "wordID": 1373, "type": "PRES_VIS", "trial_index": 72}, "uniqueid": "MTK1777:31UV0MXWNRJEI6OTAUUMJUGS8IOI5B", "dateTime": 1516299375350}, {"current_trial": 73, "trialdata": {"rt": -1, "trial_type": "single-stim", "stimulus": "", "internal_node_id": "0.0-55.0-0.0", "time_elapsed": 373581, "key_press": -1, "type": "PRE_RECALL_DELAY", "trial_index": 73}, "uniqueid": "MTK1777:31UV0MXWNRJEI6OTAUUMJUGS8IOI5B", "dateTime": 1516299377911}, {"current_trial": 74, "trialdata": {"rt": -1000, "trial_type": "single-audio", "stimulus": "/static/audio/400Hz.wav", "internal_node_id": "0.0-56.0", "time_elapsed": 374083, "key_press": -1, "type": "PRE_RECALL_ALERT", "trial_index": 74}, "uniqueid": "MTK1777:31UV0MXWNRJEI6OTAUUMJUGS8IOI5B", "dateTime": 1516299378413}, {"current_trial": 75, "trialdata": {"rt": [5962, 7219, 8562, 9714, 11034], "recwords": ["transplant", "novel", "bacon", "rod", "crab"], "key_times": [3838, 4002, 4138, 4442, 4634, 4938, 5158, 5251, 5419, 5594, 5962, 6330, 6498, 6658, 6858, 6963, 7219, 7474, 7650, 8010, 8154, 8290, 8562, 8834, 9146, 9298, 9714, 10186, 10354, 10498, 10738, 11034], "trial_type": "free-recall", "conditions": [18, 1200, "v", 18000], "internal_node_id": "0.0-57.0-0.0", "key_presses": [84, 82, 65, 78, 83, 80, 76, 65, 78, 84, 13, 78, 79, 86, 69, 76, 13, 66, 65, 67, 79, 78, 13, 82, 79, 68, 13, 67, 82, 65, 66, 13], "trial": 1, "time_elapsed": 434088, "type": "FREE_RECALL", "trial_index": 75}, "uniqueid": "MTK1777:31UV0MXWNRJEI6OTAUUMJUGS8IOI5B", "dateTime": 1516299438421}, {"current_trial": 76, "trialdata": {"rt": 3137, "trial_type": "text", "internal_node_id": "0.0-58.0", "time_elapsed": 439230, "key_press": 32, "type": "INSTRUCTIONS", "trial_index": 76}, "uniqueid": "MTK1777:31UV0MXWNRJEI6OTAUUMJUGS8IOI5B", "dateTime": 1516299443560}, {"current_trial": 77, "trialdata": {"rt": [4881, 6801, 8867, 10689, 12105, 14171, 15722, 17549, 19289, 21225, 22945], "trial_type": "math-distractor", "key_times": [4274, 4553, 4881, 6385, 6561, 6801, 8361, 8539, 8867, 10197, 10435, 10689, 11826, 12105, 13610, 13874, 14171, 15273, 15457, 15722, 17065, 17249, 17549, 18713, 19001, 19289, 20886, 21225, 22473, 22649, 22945], "responses": ["17", "12", "23", "14", "8", "17", "15", "16", "10", "9", "16"], "num2": [7, 2, 9, 2, 5, 6, 5, 7, 1, 6, 6, 1], "num3": [2, 7, 7, 8, 1, 7, 5, 6, 5, 2, 1, 7], "conditions": [24, 1600, "v", 24000], "internal_node_id": "0.0-59.0", "key_presses": [97, 103, 13, 97, 98, 13, 98, 99, 13, 97, 100, 13, 104, 13, 97, 103, 13, 97, 101, 13, 97, 102, 13, 97, 96, 13, 105, 13, 97, 102, 13], "trial": 2, "time_elapsed": 464234, "type": "DISTRACTOR", "trial_index": 77, "num1": [8, 3, 9, 4, 2, 4, 5, 3, 4, 1, 9, 8]}, "uniqueid": "MTK1777:31UV0MXWNRJEI6OTAUUMJUGS8IOI5B", "dateTime": 1516299468564}, {"current_trial": 78, "trialdata": {"rt": -1, "trial_type": "single-stim", "stimulus": "<p id=\"stim\">10</p>", "internal_node_id": "0.0-60.0-0.0", "time_elapsed": 467235, "key_press": -1, "trial_index": 78}, "uniqueid": "MTK1777:31UV0MXWNRJEI6OTAUUMJUGS8IOI5B", "dateTime": 1516299471566}, {"current_trial": 79, "trialdata": {"rt": -1, "trial_type": "single-stim", "stimulus": "<p id=\"stim\">9</p>", "internal_node_id": "0.0-60.0-1.0", "time_elapsed": 468237, "key_press": -1, "trial_index": 79}, "uniqueid": "MTK1777:31UV0MXWNRJEI6OTAUUMJUGS8IOI5B", "dateTime": 1516299472567}, {"current_trial": 80, "trialdata": {"rt": -1, "trial_type": "single-stim", "stimulus": "<p id=\"stim\">8</p>", "internal_node_id": "0.0-60.0-2.0", "time_elapsed": 469238, "key_press": -1, "trial_index": 80}, "uniqueid": "MTK1777:31UV0MXWNRJEI6OTAUUMJUGS8IOI5B", "dateTime": 1516299473568}, {"current_trial": 81, "trialdata": {"rt": -1, "trial_type": "single-stim", "stimulus": "<p id=\"stim\">7</p>", "internal_node_id": "0.0-60.0-3.0", "time_elapsed": 470239, "key_press": -1, "trial_index": 81}, "uniqueid": "MTK1777:31UV0MXWNRJEI6OTAUUMJUGS8IOI5B", "dateTime": 1516299474569}, {"current_trial": 82, "trialdata": {"rt": -1, "trial_type": "single-stim", "stimulus": "<p id=\"stim\">6</p>", "internal_node_id": "0.0-60.0-4.0", "time_elapsed": 471241, "key_press": -1, "trial_index": 82}, "uniqueid": "MTK1777:31UV0MXWNRJEI6OTAUUMJUGS8IOI5B", "dateTime": 1516299475571}, {"current_trial": 83, "trialdata": {"rt": -1, "trial_type": "single-stim", "stimulus": "<p id=\"stim\">5</p>", "internal_node_id": "0.0-60.0-5.0", "time_elapsed": 472242, "key_press": -1, "trial_index": 83}, "uniqueid": "MTK1777:31UV0MXWNRJEI6OTAUUMJUGS8IOI5B", "dateTime": 1516299476572}, {"current_trial": 84, "trialdata": {"rt": -1, "trial_type": "single-stim", "stimulus": "<p id=\"stim\">4</p>", "internal_node_id": "0.0-60.0-6.0", "time_elapsed": 473243, "key_press": -1, "trial_index": 84}, "uniqueid": "MTK1777:31UV0MXWNRJEI6OTAUUMJUGS8IOI5B", "dateTime": 1516299477573}, {"current_trial": 85, "trialdata": {"rt": -1, "trial_type": "single-stim", "stimulus": "<p id=\"stim\">3</p>", "internal_node_id": "0.0-60.0-7.0", "time_elapsed": 474245, "key_press": -1, "trial_index": 85}, "uniqueid": "MTK1777:31UV0MXWNRJEI6OTAUUMJUGS8IOI5B", "dateTime": 1516299478575}, {"current_trial": 86, "trialdata": {"rt": -1, "trial_type": "single-stim", "stimulus": "<p id=\"stim\">2</p>", "internal_node_id": "0.0-60.0-8.0", "time_elapsed": 475246, "key_press": -1, "trial_index": 86}, "uniqueid": "MTK1777:31UV0MXWNRJEI6OTAUUMJUGS8IOI5B", "dateTime": 1516299479577}, {"current_trial": 87, "trialdata": {"rt": -1, "trial_type": "single-stim", "stimulus": "<p id=\"stim\">1</p>", "internal_node_id": "0.0-60.0-9.0", "time_elapsed": 476248, "key_press": -1, "trial_index": 87}, "uniqueid": "MTK1777:31UV0MXWNRJEI6OTAUUMJUGS8IOI5B", "dateTime": 1516299480579}, {"current_trial": 88, "trialdata": {"rt": -1, "trial_type": "single-stim", "stimulus": "<p id=\"stim\">+</p>", "internal_node_id": "0.0-61.0-0.0", "time_elapsed": 477750, "key_press": -1, "type": "FIXATION", "trial_index": 88}, "uniqueid": "MTK1777:31UV0MXWNRJEI6OTAUUMJUGS8IOI5B", "dateTime": 1516299482081}, {"current_trial": 89, "trialdata": {"rt": -1, "trial_type": "single-stim", "word": "jelly", "stimulus": "<p id=\"stim\">JELLY</p>", "conditions": [24, 1600, "v", 24000], "internal_node_id": "0.0-62.0", "trial": 2, "time_elapsed": 479352, "serialpos": 0, "key_press": -1, "wordID": 754, "type": "PRES_VIS", "trial_index": 89}, "uniqueid": "MTK1777:31UV0MXWNRJEI6OTAUUMJUGS8IOI5B", "dateTime": 1516299483682}, {"current_trial": 90, "trialdata": {"rt": -1, "trial_type": "single-stim", "word": "jello", "stimulus": "<p id=\"stim\">JELLO</p>", "conditions": [24, 1600, "v", 24000], "internal_node_id": "0.0-63.0", "trial": 2, "time_elapsed": 481989, "serialpos": 1, "key_press": -1, "wordID": 753, "type": "PRES_VIS", "trial_index": 90}, "uniqueid": "MTK1777:31UV0MXWNRJEI6OTAUUMJUGS8IOI5B", "dateTime": 1516299486319}, {"current_trial": 91, "trialdata": {"rt": -1, "trial_type": "single-stim", "word": "piston", "stimulus": "<p id=\"stim\">PISTON</p>", "conditions": [24, 1600, "v", 24000], "internal_node_id": "0.0-64.0", "trial": 2, "time_elapsed": 484444, "serialpos": 2, "key_press": -1, "wordID": 1075, "type": "PRES_VIS", "trial_index": 91}, "uniqueid": "MTK1777:31UV0MXWNRJEI6OTAUUMJUGS8IOI5B", "dateTime": 1516299488774}, {"current_trial": 92, "trialdata": {"rt": -1, "trial_type": "single-stim", "word": "nightgown", "stimulus": "<p id=\"stim\">NIGHTGOWN</p>", "conditions": [24, 1600, "v", 24000], "internal_node_id": "0.0-65.0", "trial": 2, "time_elapsed": 487122, "serialpos": 3, "key_press": -1, "wordID": 952, "type": "PRES_VIS", "trial_index": 92}, "uniqueid": "MTK1777:31UV0MXWNRJEI6OTAUUMJUGS8IOI5B", "dateTime": 1516299491452}, {"current_trial": 93, "trialdata": {"rt": -1, "trial_type": "single-stim", "word": "lion", "stimulus": "<p id=\"stim\">LION</p>", "conditions": [24, 1600, "v", 24000], "internal_node_id": "0.0-66.0", "trial": 2, "time_elapsed": 489923, "serialpos": 4, "key_press": -1, "wordID": 826, "type": "PRES_VIS", "trial_index": 93}, "uniqueid": "MTK1777:31UV0MXWNRJEI6OTAUUMJUGS8IOI5B", "dateTime": 1516299494253}, {"current_trial": 94, "trialdata": {"rt": -1, "trial_type": "single-stim", "word": "ghetto", "stimulus": "<p id=\"stim\">GHETTO</p>", "conditions": [24, 1600, "v", 24000], "internal_node_id": "0.0-67.0", "trial": 2, "time_elapsed": 492544, "serialpos": 5, "key_press": -1, "wordID": 632, "type": "PRES_VIS", "trial_index": 94}, "uniqueid": "MTK1777:31UV0MXWNRJEI6OTAUUMJUGS8IOI5B", "dateTime": 1516299496875}, {"current_trial": 95, "trialdata": {"rt": -1, "trial_type": "single-stim", "word": "lizard", "stimulus": "<p id=\"stim\">LIZARD</p>", "conditions": [24, 1600, "v", 24000], "internal_node_id": "0.0-68.0", "trial": 2, "time_elapsed": 495308, "serialpos": 6, "key_press": -1, "wordID": 833, "type": "PRES_VIS", "trial_index": 95}, "uniqueid": "MTK1777:31UV0MXWNRJEI6OTAUUMJUGS8IOI5B", "dateTime": 1516299499638}, {"current_trial": 96, "trialdata": {"rt": -1, "trial_type": "single-stim", "word": "hatchet", "stimulus": "<p id=\"stim\">HATCHET</p>", "conditions": [24, 1600, "v", 24000], "internal_node_id": "0.0-69.0", "trial": 2, "time_elapsed": 497980, "serialpos": 7, "key_press": -1, "wordID": 690, "type": "PRES_VIS", "trial_index": 96}, "uniqueid": "MTK1777:31UV0MXWNRJEI6OTAUUMJUGS8IOI5B", "dateTime": 1516299502310}, {"current_trial": 97, "trialdata": {"rt": -1, "trial_type": "single-stim", "word": "playground", "stimulus": "<p id=\"stim\">PLAYGROUND</p>", "conditions": [24, 1600, "v", 24000], "internal_node_id": "0.0-70.0", "trial": 2, "time_elapsed": 500680, "serialpos": 8, "key_press": -1, "wordID": 1086, "type": "PRES_VIS", "trial_index": 97}, "uniqueid": "MTK1777:31UV0MXWNRJEI6OTAUUMJUGS8IOI5B", "dateTime": 1516299505010}, {"current_trial": 98, "trialdata": {"rt": -1, "trial_type": "single-stim", "word": "girl", "stimulus": "<p id=\"stim\">GIRL</p>", "conditions": [24, 1600, "v", 24000], "internal_node_id": "0.0-71.0", "trial": 2, "time_elapsed": 503308, "serialpos": 9, "key_press": -1, "wordID": 636, "type": "PRES_VIS", "trial_index": 98}, "uniqueid": "MTK1777:31UV0MXWNRJEI6OTAUUMJUGS8IOI5B", "dateTime": 1516299507638}, {"current_trial": 99, "trialdata": {"rt": -1, "trial_type": "single-stim", "word": "husband", "stimulus": "<p id=\"stim\">HUSBAND</p>", "conditions": [24, 1600, "v", 24000], "internal_node_id": "0.0-72.0", "trial": 2, "time_elapsed": 505829, "serialpos": 10, "key_press": -1, "wordID": 727, "type": "PRES_VIS", "trial_index": 99}, "uniqueid": "MTK1777:31UV0MXWNRJEI6OTAUUMJUGS8IOI5B", "dateTime": 1516299510160}, {"current_trial": 100, "trialdata": {"rt": -1, "trial_type": "single-stim", "word": "spider", "stimulus": "<p id=\"stim\">SPIDER</p>", "conditions": [24, 1600, "v", 24000], "internal_node_id": "0.0-73.0", "trial": 2, "time_elapsed": 508568, "serialpos": 11, "key_press": -1, "wordID": 1350, "type": "PRES_VIS", "trial_index": 100}, "uniqueid": "MTK1777:31UV0MXWNRJEI6OTAUUMJUGS8IOI5B", "dateTime": 1516299512899}, {"current_trial": 101, "trialdata": {"rt": -1, "trial_type": "single-stim", "word": "quail", "stimulus": "<p id=\"stim\">QUAIL</p>", "conditions": [24, 1600, "v", 24000], "internal_node_id": "0.0-74.0", "trial": 2, "time_elapsed": 510988, "serialpos": 12, "key_press": -1, "wordID": 1146, "type": "PRES_VIS", "trial_index": 101}, "uniqueid": "MTK1777:31UV0MXWNRJEI6OTAUUMJUGS8IOI5B", "dateTime": 1516299515318}, {"current_trial": 102, "trialdata": {"rt": -1, "trial_type": "single-stim", "word": "mister", "stimulus": "<p id=\"stim\">MISTER</p>", "conditions": [24, 1600, "v", 24000], "internal_node_id": "0.0-75.0", "trial": 2, "time_elapsed": 513691, "serialpos": 13, "key_press": -1, "wordID": 900, "type": "PRES_VIS", "trial_index": 102}, "uniqueid": "MTK1777:31UV0MXWNRJEI6OTAUUMJUGS8IOI5B", "dateTime": 1516299518021}, {"current_trial": 103, "trialdata": {"rt": -1, "trial_type": "single-stim", "word": "harp", "stimulus": "<p id=\"stim\">HARP</p>", "conditions": [24, 1600, "v", 24000], "internal_node_id": "0.0-76.0", "trial": 2, "time_elapsed": 516453, "serialpos": 14, "key_press": -1, "wordID": 688, "type": "PRES_VIS", "trial_index": 103}, "uniqueid": "MTK1777:31UV0MXWNRJEI6OTAUUMJUGS8IOI5B", "dateTime": 1516299520783}, {"current_trial": 104, "trialdata": {"rt": -1, "trial_type": "single-stim", "word": "daisy", "stimulus": "<p id=\"stim\">DAISY</p>", "conditions": [24, 1600, "v", 24000], "internal_node_id": "0.0-77.0", "trial": 2, "time_elapsed": 519181, "serialpos": 15, "key_press": -1, "wordID": 434, "type": "PRES_VIS", "trial_index": 104}, "uniqueid": "MTK1777:31UV0MXWNRJEI6OTAUUMJUGS8IOI5B", "dateTime": 1516299523511}, {"current_trial": 105, "trialdata": {"rt": -1, "trial_type": "single-stim", "word": "parsley", "stimulus": "<p id=\"stim\">PARSLEY</p>", "conditions": [24, 1600, "v", 24000], "internal_node_id": "0.0-78.0", "trial": 2, "time_elapsed": 521679, "serialpos": 16, "key_press": -1, "wordID": 1015, "type": "PRES_VIS", "trial_index": 105}, "uniqueid": "MTK1777:31UV0MXWNRJEI6OTAUUMJUGS8IOI5B", "dateTime": 1516299526009}, {"current_trial": 106, "trialdata": {"rt": -1, "trial_type": "single-stim", "word": "forest", "stimulus": "<p id=\"stim\">FOREST</p>", "conditions": [24, 1600, "v", 24000], "internal_node_id": "0.0-79.0", "trial": 2, "time_elapsed": 524209, "serialpos": 17, "key_press": -1, "wordID": 592, "type": "PRES_VIS", "trial_index": 106}, "uniqueid": "MTK1777:31UV0MXWNRJEI6OTAUUMJUGS8IOI5B", "dateTime": 1516299528539}, {"current_trial": 107, "trialdata": {"rt": -1, "trial_type": "single-stim", "word": "rocket", "stimulus": "<p id=\"stim\">ROCKET</p>", "conditions": [24, 1600, "v", 24000], "internal_node_id": "0.0-80.0", "trial": 2, "time_elapsed": 526646, "serialpos": 18, "key_press": -1, "wordID": 1201, "type": "PRES_VIS", "trial_index": 107}, "uniqueid": "MTK1777:31UV0MXWNRJEI6OTAUUMJUGS8IOI5B", "dateTime": 1516299530976}, {"current_trial": 108, "trialdata": {"rt": -1, "trial_type": "single-stim", "word": "missile", "stimulus": "<p id=\"stim\">MISSILE</p>", "conditions": [24, 1600, "v", 24000], "internal_node_id": "0.0-81.0", "trial": 2, "time_elapsed": 529114, "serialpos": 19, "key_press": -1, "wordID": 899, "type": "PRES_VIS", "trial_index": 108}, "uniqueid": "MTK1777:31UV0MXWNRJEI6OTAUUMJUGS8IOI5B", "dateTime": 1516299533444}, {"current_trial": 109, "trialdata": {"rt": -1, "trial_type": "single-stim", "word": "sister", "stimulus": "<p id=\"stim\">SISTER</p>", "conditions": [24, 1600, "v", 24000], "internal_node_id": "0.0-82.0", "trial": 2, "time_elapsed": 531560, "serialpos": 20, "key_press": -1, "wordID": 1311, "type": "PRES_VIS", "trial_index": 109}, "uniqueid": "MTK1777:31UV0MXWNRJEI6OTAUUMJUGS8IOI5B", "dateTime": 1516299535890}, {"current_trial": 110, "trialdata": {"rt": -1, "trial_type": "single-stim", "word": "heart", "stimulus": "<p id=\"stim\">HEART</p>", "conditions": [24, 1600, "v", 24000], "internal_node_id": "0.0-83.0", "trial": 2, "time_elapsed": 534205, "serialpos": 21, "key_press": -1, "wordID": 696, "type": "PRES_VIS", "trial_index": 110}, "uniqueid": "MTK1777:31UV0MXWNRJEI6OTAUUMJUGS8IOI5B", "dateTime": 1516299538536}, {"current_trial": 111, "trialdata": {"rt": -1, "trial_type": "single-stim", "word": "award", "stimulus": "<p id=\"stim\">AWARD</p>", "conditions": [24, 1600, "v", 24000], "internal_node_id": "0.0-84.0", "trial": 2, "time_elapsed": 536749, "serialpos": 22, "key_press": -1, "wordID": 62, "type": "PRES_VIS", "trial_index": 111}, "uniqueid": "MTK1777:31UV0MXWNRJEI6OTAUUMJUGS8IOI5B", "dateTime": 1516299541079}, {"current_trial": 112, "trialdata": {"rt": -1, "trial_type": "single-stim", "word": "lettuce", "stimulus": "<p id=\"stim\">LETTUCE</p>", "conditions": [24, 1600, "v", 24000], "internal_node_id": "0.0-85.0", "trial": 2, "time_elapsed": 539464, "serialpos": 23, "key_press": -1, "wordID": 813, "type": "PRES_VIS", "trial_index": 112}, "uniqueid": "MTK1777:31UV0MXWNRJEI6OTAUUMJUGS8IOI5B", "dateTime": 1516299543794}, {"current_trial": 113, "trialdata": {"rt": -1, "trial_type": "single-stim", "stimulus": "", "internal_node_id": "0.0-86.0-0.0", "time_elapsed": 541957, "key_press": -1, "type": "PRE_RECALL_DELAY", "trial_index": 113}, "uniqueid": "MTK1777:31UV0MXWNRJEI6OTAUUMJUGS8IOI5B", "dateTime": 1516299546287}, {"current_trial": 114, "trialdata": {"rt": -1000, "trial_type": "single-audio", "stimulus": "/static/audio/400Hz.wav", "internal_node_id": "0.0-87.0", "time_elapsed": 542459, "key_press": -1, "type": "PRE_RECALL_ALERT", "trial_index": 114}, "uniqueid": "MTK1777:31UV0MXWNRJEI6OTAUUMJUGS8IOI5B", "dateTime": 1516299546789}, {"current_trial": 115, "trialdata": {"rt": [2890, 4315, 5523, 8026, 9906, 11071], "recwords": ["jelly", "jello", "lion", "ghetto", "lizard", "girl"], "key_times": [1742, 1906, 2074, 2250, 2514, 2890, 3258, 3450, 3618, 3810, 3994, 4315, 4626, 4827, 5010, 5194, 5523, 5923, 6234, 6506, 6891, 7066, 7170, 8026, 8338, 8530, 8714, 9299, 9458, 9730, 9906, 10411, 10531, 10698, 10770, 11071], "trial_type": "free-recall", "conditions": [24, 1600, "v", 24000], "internal_node_id": "0.0-88.0-0.0", "key_presses": [74, 69, 76, 76, 89, 13, 74, 69, 76, 76, 79, 13, 76, 73, 79, 78, 13, 71, 72, 69, 84, 84, 79, 13, 76, 73, 90, 65, 82, 68, 13, 71, 73, 82, 76, 13], "trial": 2, "time_elapsed": 602464, "type": "FREE_RECALL", "trial_index": 115}, "uniqueid": "MTK1777:31UV0MXWNRJEI6OTAUUMJUGS8IOI5B", "dateTime": 1516299606798}, {"current_trial": 116, "trialdata": {"rt": 1322, "trial_type": "text", "internal_node_id": "0.0-89.0", "time_elapsed": 605790, "key_press": 32, "type": "INSTRUCTIONS", "trial_index": 116}, "uniqueid": "MTK1777:31UV0MXWNRJEI6OTAUUMJUGS8IOI5B", "dateTime": 1516299610120}, {"current_trial": 117, "trialdata": {"rt": [3462, 5014, 7399, 10478], "trial_type": "math-distractor", "key_times": [2310, 2742, 3462, 4455, 4655, 5014, 6492, 7016, 7399, 9954, 10166, 10478], "responses": ["19", "11", "17", "24"], "num2": [5, 2, 9, 7, 4], "num3": [7, 8, 5, 8, 6], "conditions": [24, 1600, "v", 12000], "internal_node_id": "0.0-90.0", "key_presses": [97, 105, 13, 97, 97, 13, 97, 103, 13, 98, 100, 13], "trial": 3, "time_elapsed": 619796, "type": "DISTRACTOR", "trial_index": 117, "num1": [7, 1, 3, 9, 5]}, "uniqueid": "MTK1777:31UV0MXWNRJEI6OTAUUMJUGS8IOI5B", "dateTime": 1516299624126}, {"current_trial": 118, "trialdata": {"rt": -1, "trial_type": "single-stim", "stimulus": "<p id=\"stim\">10</p>", "internal_node_id": "0.0-91.0-0.0", "time_elapsed": 622798, "key_press": -1, "trial_index": 118}, "uniqueid": "MTK1777:31UV0MXWNRJEI6OTAUUMJUGS8IOI5B", "dateTime": 1516299627128}, {"current_trial": 119, "trialdata": {"rt": -1, "trial_type": "single-stim", "stimulus": "<p id=\"stim\">9</p>", "internal_node_id": "0.0-91.0-1.0", "time_elapsed": 623800, "key_press": -1, "trial_index": 119}, "uniqueid": "MTK1777:31UV0MXWNRJEI6OTAUUMJUGS8IOI5B", "dateTime": 1516299628130}, {"current_trial": 120, "trialdata": {"rt": -1, "trial_type": "single-stim", "stimulus": "<p id=\"stim\">8</p>", "internal_node_id": "0.0-91.0-2.0", "time_elapsed": 624801, "key_press": -1, "trial_index": 120}, "uniqueid": "MTK1777:31UV0MXWNRJEI6OTAUUMJUGS8IOI5B", "dateTime": 1516299629131}, {"current_trial": 121, "trialdata": {"rt": -1, "trial_type": "single-stim", "stimulus": "<p id=\"stim\">7</p>", "internal_node_id": "0.0-91.0-3.0", "time_elapsed": 625803, "key_press": -1, "trial_index": 121}, "uniqueid": "MTK1777:31UV0MXWNRJEI6OTAUUMJUGS8IOI5B", "dateTime": 1516299630133}, {"current_trial": 122, "trialdata": {"rt": -1, "trial_type": "single-stim", "stimulus": "<p id=\"stim\">6</p>", "internal_node_id": "0.0-91.0-4.0", "time_elapsed": 626805, "key_press": -1, "trial_index": 122}, "uniqueid": "MTK1777:31UV0MXWNRJEI6OTAUUMJUGS8IOI5B", "dateTime": 1516299631135}, {"current_trial": 123, "trialdata": {"rt": -1, "trial_type": "single-stim", "stimulus": "<p id=\"stim\">5</p>", "internal_node_id": "0.0-91.0-5.0", "time_elapsed": 627806, "key_press": -1, "trial_index": 123}, "uniqueid": "MTK1777:31UV0MXWNRJEI6OTAUUMJUGS8IOI5B", "dateTime": 1516299632136}, {"current_trial": 124, "trialdata": {"rt": -1, "trial_type": "single-stim", "stimulus": "<p id=\"stim\">4</p>", "internal_node_id": "0.0-91.0-6.0", "time_elapsed": 628808, "key_press": -1, "trial_index": 124}, "uniqueid": "MTK1777:31UV0MXWNRJEI6OTAUUMJUGS8IOI5B", "dateTime": 1516299633138}, {"current_trial": 125, "trialdata": {"rt": -1, "trial_type": "single-stim", "stimulus": "<p id=\"stim\">3</p>", "internal_node_id": "0.0-91.0-7.0", "time_elapsed": 629815, "key_press": -1, "trial_index": 125}, "uniqueid": "MTK1777:31UV0MXWNRJEI6OTAUUMJUGS8IOI5B", "dateTime": 1516299634146}, {"current_trial": 126, "trialdata": {"rt": -1, "trial_type": "single-stim", "stimulus": "<p id=\"stim\">2</p>", "internal_node_id": "0.0-91.0-8.0", "time_elapsed": 630817, "key_press": -1, "trial_index": 126}, "uniqueid": "MTK1777:31UV0MXWNRJEI6OTAUUMJUGS8IOI5B", "dateTime": 1516299635148}, {"current_trial": 127, "trialdata": {"rt": -1, "trial_type": "single-stim", "stimulus": "<p id=\"stim\">1</p>", "internal_node_id": "0.0-91.0-9.0", "time_elapsed": 631819, "key_press": -1, "trial_index": 127}, "uniqueid": "MTK1777:31UV0MXWNRJEI6OTAUUMJUGS8IOI5B", "dateTime": 1516299636150}, {"current_trial": 128, "trialdata": {"rt": -1, "trial_type": "single-stim", "stimulus": "<p id=\"stim\">+</p>", "internal_node_id": "0.0-92.0-0.0", "time_elapsed": 633320, "key_press": -1, "type": "FIXATION", "trial_index": 128}, "uniqueid": "MTK1777:31UV0MXWNRJEI6OTAUUMJUGS8IOI5B", "dateTime": 1516299637651}, {"current_trial": 129, "trialdata": {"rt": -1, "trial_type": "single-stim", "word": "scribble", "stimulus": "<p id=\"stim\">SCRIBBLE</p>", "conditions": [24, 1600, "v", 12000], "internal_node_id": "0.0-93.0", "trial": 3, "time_elapsed": 634922, "serialpos": 0, "key_press": -1, "wordID": 1255, "type": "PRES_VIS", "trial_index": 129}, "uniqueid": "MTK1777:31UV0MXWNRJEI6OTAUUMJUGS8IOI5B", "dateTime": 1516299639252}, {"current_trial": 130, "trialdata": {"rt": -1, "trial_type": "single-stim", "word": "wife", "stimulus": "<p id=\"stim\">WIFE</p>", "conditions": [24, 1600, "v", 12000], "internal_node_id": "0.0-94.0", "trial": 3, "time_elapsed": 637436, "serialpos": 1, "key_press": -1, "wordID": 1608, "type": "PRES_VIS", "trial_index": 130}, "uniqueid": "MTK1777:31UV0MXWNRJEI6OTAUUMJUGS8IOI5B", "dateTime": 1516299641766}, {"current_trial": 131, "trialdata": {"rt": -1, "trial_type": "single-stim", "word": "ox", "stimulus": "<p id=\"stim\">OX</p>", "conditions": [24, 1600, "v", 12000], "internal_node_id": "0.0-95.0", "trial": 3, "time_elapsed": 639920, "serialpos": 2, "key_press": -1, "wordID": 993, "type": "PRES_VIS", "trial_index": 131}, "uniqueid": "MTK1777:31UV0MXWNRJEI6OTAUUMJUGS8IOI5B", "dateTime": 1516299644250}, {"current_trial": 132, "trialdata": {"rt": -1, "trial_type": "single-stim", "word": "widow", "stimulus": "<p id=\"stim\">WIDOW</p>", "conditions": [24, 1600, "v", 12000], "internal_node_id": "0.0-96.0", "trial": 3, "time_elapsed": 642597, "serialpos": 3, "key_press": -1, "wordID": 1607, "type": "PRES_VIS", "trial_index": 132}, "uniqueid": "MTK1777:31UV0MXWNRJEI6OTAUUMJUGS8IOI5B", "dateTime": 1516299646927}, {"current_trial": 133, "trialdata": {"rt": -1, "trial_type": "single-stim", "word": "velvet", "stimulus": "<p id=\"stim\">VELVET</p>", "conditions": [24, 1600, "v", 12000], "internal_node_id": "0.0-97.0", "trial": 3, "time_elapsed": 645338, "serialpos": 4, "key_press": -1, "wordID": 1554, "type": "PRES_VIS", "trial_index": 133}, "uniqueid": "MTK1777:31UV0MXWNRJEI6OTAUUMJUGS8IOI5B", "dateTime": 1516299649668}, {"current_trial": 134, "trialdata": {"rt": -1, "trial_type": "single-stim", "word": "plaid", "stimulus": "<p id=\"stim\">PLAID</p>", "conditions": [24, 1600, "v", 12000], "internal_node_id": "0.0-98.0", "trial": 3, "time_elapsed": 647745, "serialpos": 5, "key_press": -1, "wordID": 1079, "type": "PRES_VIS", "trial_index": 134}, "uniqueid": "MTK1777:31UV0MXWNRJEI6OTAUUMJUGS8IOI5B", "dateTime": 1516299652075}, {"current_trial": 135, "trialdata": {"rt": -1, "trial_type": "single-stim", "word": "camel", "stimulus": "<p id=\"stim\">CAMEL</p>", "conditions": [24, 1600, "v", 12000], "internal_node_id": "0.0-99.0", "trial": 3, "time_elapsed": 650169, "serialpos": 6, "key_press": -1, "wordID": 222, "type": "PRES_VIS", "trial_index": 135}, "uniqueid": "MTK1777:31UV0MXWNRJEI6OTAUUMJUGS8IOI5B", "dateTime": 1516299654499}, {"current_trial": 136, "trialdata": {"rt": -1, "trial_type": "single-stim", "word": "shrub", "stimulus": "<p id=\"stim\">SHRUB</p>", "conditions": [24, 1600, "v", 12000], "internal_node_id": "0.0-100.0", "trial": 3, "time_elapsed": 652726, "serialpos": 7, "key_press": -1, "wordID": 1298, "type": "PRES_VIS", "trial_index": 136}, "uniqueid": "MTK1777:31UV0MXWNRJEI6OTAUUMJUGS8IOI5B", "dateTime": 1516299657057}, {"current_trial": 137, "trialdata": {"rt": -1, "trial_type": "single-stim", "word": "flower", "stimulus": "<p id=\"stim\">FLOWER</p>", "conditions": [24, 1600, "v", 12000], "internal_node_id": "0.0-101.0", "trial": 3, "time_elapsed": 655243, "serialpos": 8, "key_press": -1, "wordID": 583, "type": "PRES_VIS", "trial_index": 137}, "uniqueid": "MTK1777:31UV0MXWNRJEI6OTAUUMJUGS8IOI5B", "dateTime": 1516299659573}, {"current_trial": 138, "trialdata": {"rt": -1, "trial_type": "single-stim", "word": "branch", "stimulus": "<p id=\"stim\">BRANCH</p>", "conditions": [24, 1600, "v", 12000], "internal_node_id": "0.0-102.0", "trial": 3, "time_elapsed": 657749, "serialpos": 9, "key_press": -1, "wordID": 167, "type": "PRES_VIS", "trial_index": 138}, "uniqueid": "MTK1777:31UV0MXWNRJEI6OTAUUMJUGS8IOI5B", "dateTime": 1516299662079}, {"current_trial": 139, "trialdata": {"rt": -1, "trial_type": "single-stim", "word": "donkey", "stimulus": "<p id=\"stim\">DONKEY</p>", "conditions": [24, 1600, "v", 12000], "internal_node_id": "0.0-103.0", "trial": 3, "time_elapsed": 660371, "serialpos": 10, "key_press": -1, "wordID": 483, "type": "PRES_VIS", "trial_index": 139}, "uniqueid": "MTK1777:31UV0MXWNRJEI6OTAUUMJUGS8IOI5B", "dateTime": 1516299664701}, {"current_trial": 140, "trialdata": {"rt": -1, "trial_type": "single-stim", "word": "mattress", "stimulus": "<p id=\"stim\">MATTRESS</p>", "conditions": [24, 1600, "v", 12000], "internal_node_id": "0.0-104.0", "trial": 3, "time_elapsed": 663054, "serialpos": 11, "key_press": -1, "wordID": 878, "type": "PRES_VIS", "trial_index": 140}, "uniqueid": "MTK1777:31UV0MXWNRJEI6OTAUUMJUGS8IOI5B", "dateTime": 1516299667384}, {"current_trial": 141, "trialdata": {"rt": -1, "trial_type": "single-stim", "word": "uncle", "stimulus": "<p id=\"stim\">UNCLE</p>", "conditions": [24, 1600, "v", 12000], "internal_node_id": "0.0-105.0", "trial": 3, "time_elapsed": 665524, "serialpos": 12, "key_press": -1, "wordID": 1535, "type": "PRES_VIS", "trial_index": 141}, "uniqueid": "MTK1777:31UV0MXWNRJEI6OTAUUMJUGS8IOI5B", "dateTime": 1516299669855}, {"current_trial": 142, "trialdata": {"rt": -1, "trial_type": "single-stim", "word": "necklace", "stimulus": "<p id=\"stim\">NECKLACE</p>", "conditions": [24, 1600, "v", 12000], "internal_node_id": "0.0-106.0", "trial": 3, "time_elapsed": 668305, "serialpos": 13, "key_press": -1, "wordID": 939, "type": "PRES_VIS", "trial_index": 142}, "uniqueid": "MTK1777:31UV0MXWNRJEI6OTAUUMJUGS8IOI5B", "dateTime": 1516299672635}, {"current_trial": 143, "trialdata": {"rt": -1, "trial_type": "single-stim", "word": "tribe", "stimulus": "<p id=\"stim\">TRIBE</p>", "conditions": [24, 1600, "v", 12000], "internal_node_id": "0.0-107.0", "trial": 3, "time_elapsed": 670932, "serialpos": 14, "key_press": -1, "wordID": 1504, "type": "PRES_VIS", "trial_index": 143}, "uniqueid": "MTK1777:31UV0MXWNRJEI6OTAUUMJUGS8IOI5B", "dateTime": 1516299675262}, {"current_trial": 144, "trialdata": {"rt": -1, "trial_type": "single-stim", "word": "sword", "stimulus": "<p id=\"stim\">SWORD</p>", "conditions": [24, 1600, "v", 12000], "internal_node_id": "0.0-108.0", "trial": 3, "time_elapsed": 673573, "serialpos": 15, "key_press": -1, "wordID": 1422, "type": "PRES_VIS", "trial_index": 144}, "uniqueid": "MTK1777:31UV0MXWNRJEI6OTAUUMJUGS8IOI5B", "dateTime": 1516299677903}, {"current_trial": 145, "trialdata": {"rt": -1, "trial_type": "single-stim", "word": "poison", "stimulus": "<p id=\"stim\">POISON</p>", "conditions": [24, 1600, "v", 12000], "internal_node_id": "0.0-109.0", "trial": 3, "time_elapsed": 676307, "serialpos": 16, "key_press": -1, "wordID": 1095, "type": "PRES_VIS", "trial_index": 145}, "uniqueid": "MTK1777:31UV0MXWNRJEI6OTAUUMJUGS8IOI5B", "dateTime": 1516299680637}, {"current_trial": 146, "trialdata": {"rt": -1, "trial_type": "single-stim", "word": "kidney", "stimulus": "<p id=\"stim\">KIDNEY</p>", "conditions": [24, 1600, "v", 12000], "internal_node_id": "0.0-110.0", "trial": 3, "time_elapsed": 678845, "serialpos": 17, "key_press": -1, "wordID": 775, "type": "PRES_VIS", "trial_index": 146}, "uniqueid": "MTK1777:31UV0MXWNRJEI6OTAUUMJUGS8IOI5B", "dateTime": 1516299683175}, {"current_trial": 147, "trialdata": {"rt": -1, "trial_type": "single-stim", "word": "sidewalk", "stimulus": "<p id=\"stim\">SIDEWALK</p>", "conditions": [24, 1600, "v", 12000], "internal_node_id": "0.0-111.0", "trial": 3, "time_elapsed": 681534, "serialpos": 18, "key_press": -1, "wordID": 1302, "type": "PRES_VIS", "trial_index": 147}, "uniqueid": "MTK1777:31UV0MXWNRJEI6OTAUUMJUGS8IOI5B", "dateTime": 1516299685864}, {"current_trial": 148, "trialdata": {"rt": -1, "trial_type": "single-stim", "word": "suspect", "stimulus": "<p id=\"stim\">SUSPECT</p>", "conditions": [24, 1600, "v", 12000], "internal_node_id": "0.0-112.0", "trial": 3, "time_elapsed": 684077, "serialpos": 19, "key_press": -1, "wordID": 1414, "type": "PRES_VIS", "trial_index": 148}, "uniqueid": "MTK1777:31UV0MXWNRJEI6OTAUUMJUGS8IOI5B", "dateTime": 1516299688407}, {"current_trial": 149, "trialdata": {"rt": -1, "trial_type": "single-stim", "word": "pastry", "stimulus": "<p id=\"stim\">PASTRY</p>", "conditions": [24, 1600, "v", 12000], "internal_node_id": "0.0-113.0", "trial": 3, "time_elapsed": 686489, "serialpos": 20, "key_press": -1, "wordID": 1021, "type": "PRES_VIS", "trial_index": 149}, "uniqueid": "MTK1777:31UV0MXWNRJEI6OTAUUMJUGS8IOI5B", "dateTime": 1516299690819}, {"current_trial": 150, "trialdata": {"rt": -1, "trial_type": "single-stim", "word": "custard", "stimulus": "<p id=\"stim\">CUSTARD</p>", "conditions": [24, 1600, "v", 12000], "internal_node_id": "0.0-114.0", "trial": 3, "time_elapsed": 688971, "serialpos": 21, "key_press": -1, "wordID": 428, "type": "PRES_VIS", "trial_index": 150}, "uniqueid": "MTK1777:31UV0MXWNRJEI6OTAUUMJUGS8IOI5B", "dateTime": 1516299693301}, {"current_trial": 151, "trialdata": {"rt": -1, "trial_type": "single-stim", "word": "cashier", "stimulus": "<p id=\"stim\">CASHIER</p>", "conditions": [24, 1600, "v", 12000], "internal_node_id": "0.0-115.0", "trial": 3, "time_elapsed": 691643, "serialpos": 22, "key_press": -1, "wordID": 253, "type": "PRES_VIS", "trial_index": 151}, "uniqueid": "MTK1777:31UV0MXWNRJEI6OTAUUMJUGS8IOI5B", "dateTime": 1516299695973}, {"current_trial": 152, "trialdata": {"rt": -1, "trial_type": "single-stim", "word": "brother", "stimulus": "<p id=\"stim\">BROTHER</p>", "conditions": [24, 1600, "v", 12000], "internal_node_id": "0.0-116.0", "trial": 3, "time_elapsed": 694066, "serialpos": 23, "key_press": -1, "wordID": 178, "type": "PRES_VIS", "trial_index": 152}, "uniqueid": "MTK1777:31UV0MXWNRJEI6OTAUUMJUGS8IOI5B", "dateTime": 1516299698396}, {"current_trial": 153, "trialdata": {"rt": -1, "trial_type": "single-stim", "stimulus": "", "internal_node_id": "0.0-117.0-0.0", "time_elapsed": 696229, "key_press": -1, "type": "PRE_RECALL_DELAY", "trial_index": 153}, "uniqueid": "MTK1777:31UV0MXWNRJEI6OTAUUMJUGS8IOI5B", "dateTime": 1516299700559}, {"current_trial": 154, "trialdata": {"rt": -1000, "trial_type": "single-audio", "stimulus": "/static/audio/400Hz.wav", "internal_node_id": "0.0-118.0", "time_elapsed": 696731, "key_press": -1, "type": "PRE_RECALL_ALERT", "trial_index": 154}, "uniqueid": "MTK1777:31UV0MXWNRJEI6OTAUUMJUGS8IOI5B", "dateTime": 1516299701061}, {"current_trial": 155, "trialdata": {"rt": [4243, 5108, 6563, 8437, 9621], "recwords": ["wife", "ox", "shrub", "branch", "tribe"], "key_times": [3361, 3499, 3669, 3900, 4243, 4579, 4812, 5108, 5396, 5619, 5876, 6067, 6325, 6563, 6884, 7116, 7293, 7372, 7723, 7819, 8437, 8747, 8931, 9035, 9211, 9412, 9621], "trial_type": "free-recall", "conditions": [24, 1600, "v", 12000], "internal_node_id": "0.0-119.0-0.0", "key_presses": [87, 73, 70, 69, 13, 79, 88, 13, 83, 72, 82, 85, 66, 13, 66, 82, 65, 78, 67, 72, 13, 84, 82, 73, 66, 69, 13], "trial": 3, "time_elapsed": 756736, "type": "FREE_RECALL", "trial_index": 155}, "uniqueid": "MTK1777:31UV0MXWNRJEI6OTAUUMJUGS8IOI5B", "dateTime": 1516299761072}, {"current_trial": 156, "trialdata": {"rt": 5056, "trial_type": "text", "internal_node_id": "0.0-120.0", "time_elapsed": 763798, "key_press": 32, "type": "INSTRUCTIONS", "trial_index": 156}, "uniqueid": "MTK1777:31UV0MXWNRJEI6OTAUUMJUGS8IOI5B", "dateTime": 1516299768128}, {"current_trial": 157, "trialdata": {"rt": [3528, 5048, 6768, 9176, 12077, 13784, 16648, 18280, 21256], "trial_type": "math-distractor", "key_times": [2904, 3152, 3528, 4680, 5048, 5976, 6320, 6768, 8614, 8801, 9176, 11425, 11672, 12077, 13337, 13784, 15809, 16162, 16648, 17648, 17888, 18280, 20521, 20728, 21256, 23408, 23736], "responses": ["16", "9", "10", "15", "13", "9", "19", "11", "15"], "num2": [9, 4, 5, 3, 2, 4, 6, 5, 2, 9], "num3": [1, 1, 4, 6, 3, 2, 9, 5, 9, 8], "conditions": [12, 800, "v", 24000], "internal_node_id": "0.0-121.0", "key_presses": [97, 102, 13, 105, 13, 97, 96, 13, 97, 101, 13, 97, 99, 13, 105, 13, 97, 105, 13, 97, 97, 13, 97, 101, 13, 97, 105], "trial": 4, "time_elapsed": 789804, "type": "DISTRACTOR", "trial_index": 157, "num1": [6, 4, 1, 6, 8, 3, 4, 1, 4, 2]}, "uniqueid": "MTK1777:31UV0MXWNRJEI6OTAUUMJUGS8IOI5B", "dateTime": 1516299794134}, {"current_trial": 158, "trialdata": {"rt": -1, "trial_type": "single-stim", "stimulus": "<p id=\"stim\">10</p>", "internal_node_id": "0.0-122.0-0.0", "time_elapsed": 792807, "key_press": -1, "trial_index": 158}, "uniqueid": "MTK1777:31UV0MXWNRJEI6OTAUUMJUGS8IOI5B", "dateTime": 1516299797138}, {"current_trial": 159, "trialdata": {"rt": -1, "trial_type": "single-stim", "stimulus": "<p id=\"stim\">9</p>", "internal_node_id": "0.0-122.0-1.0", "time_elapsed": 793810, "key_press": -1, "trial_index": 159}, "uniqueid": "MTK1777:31UV0MXWNRJEI6OTAUUMJUGS8IOI5B", "dateTime": 1516299798140}, {"current_trial": 160, "trialdata": {"rt": -1, "trial_type": "single-stim", "stimulus": "<p id=\"stim\">8</p>", "internal_node_id": "0.0-122.0-2.0", "time_elapsed": 794811, "key_press": -1, "trial_index": 160}, "uniqueid": "MTK1777:31UV0MXWNRJEI6OTAUUMJUGS8IOI5B", "dateTime": 1516299799141}, {"current_trial": 161, "trialdata": {"rt": -1, "trial_type": "single-stim", "stimulus": "<p id=\"stim\">7</p>", "internal_node_id": "0.0-122.0-3.0", "time_elapsed": 795813, "key_press": -1, "trial_index": 161}, "uniqueid": "MTK1777:31UV0MXWNRJEI6OTAUUMJUGS8IOI5B", "dateTime": 1516299800143}, {"current_trial": 162, "trialdata": {"rt": -1, "trial_type": "single-stim", "stimulus": "<p id=\"stim\">6</p>", "internal_node_id": "0.0-122.0-4.0", "time_elapsed": 796814, "key_press": -1, "trial_index": 162}, "uniqueid": "MTK1777:31UV0MXWNRJEI6OTAUUMJUGS8IOI5B", "dateTime": 1516299801145}, {"current_trial": 163, "trialdata": {"rt": -1, "trial_type": "single-stim", "stimulus": "<p id=\"stim\">5</p>", "internal_node_id": "0.0-122.0-5.0", "time_elapsed": 797816, "key_press": -1, "trial_index": 163}, "uniqueid": "MTK1777:31UV0MXWNRJEI6OTAUUMJUGS8IOI5B", "dateTime": 1516299802146}, {"current_trial": 164, "trialdata": {"rt": -1, "trial_type": "single-stim", "stimulus": "<p id=\"stim\">4</p>", "internal_node_id": "0.0-122.0-6.0", "time_elapsed": 798817, "key_press": -1, "trial_index": 164}, "uniqueid": "MTK1777:31UV0MXWNRJEI6OTAUUMJUGS8IOI5B", "dateTime": 1516299803148}, {"current_trial": 165, "trialdata": {"rt": -1, "trial_type": "single-stim", "stimulus": "<p id=\"stim\">3</p>", "internal_node_id": "0.0-122.0-7.0", "time_elapsed": 799819, "key_press": -1, "trial_index": 165}, "uniqueid": "MTK1777:31UV0MXWNRJEI6OTAUUMJUGS8IOI5B", "dateTime": 1516299804149}, {"current_trial": 166, "trialdata": {"rt": -1, "trial_type": "single-stim", "stimulus": "<p id=\"stim\">2</p>", "internal_node_id": "0.0-122.0-8.0", "time_elapsed": 800821, "key_press": -1, "trial_index": 166}, "uniqueid": "MTK1777:31UV0MXWNRJEI6OTAUUMJUGS8IOI5B", "dateTime": 1516299805151}, {"current_trial": 167, "trialdata": {"rt": -1, "trial_type": "single-stim", "stimulus": "<p id=\"stim\">1</p>", "internal_node_id": "0.0-122.0-9.0", "time_elapsed": 801822, "key_press": -1, "trial_index": 167}, "uniqueid": "MTK1777:31UV0MXWNRJEI6OTAUUMJUGS8IOI5B", "dateTime": 1516299806153}, {"current_trial": 168, "trialdata": {"rt": -1, "trial_type": "single-stim", "stimulus": "<p id=\"stim\">+</p>", "internal_node_id": "0.0-123.0-0.0", "time_elapsed": 803324, "key_press": -1, "type": "FIXATION", "trial_index": 168}, "uniqueid": "MTK1777:31UV0MXWNRJEI6OTAUUMJUGS8IOI5B", "dateTime": 1516299807654}, {"current_trial": 169, "trialdata": {"rt": -1, "trial_type": "single-stim", "word": "coffee", "stimulus": "<p id=\"stim\">COFFEE</p>", "conditions": [12, 800, "v", 24000], "internal_node_id": "0.0-124.0", "trial": 4, "time_elapsed": 804125, "serialpos": 0, "key_press": -1, "wordID": 340, "type": "PRES_VIS", "trial_index": 169}, "uniqueid": "MTK1777:31UV0MXWNRJEI6OTAUUMJUGS8IOI5B", "dateTime": 1516299808456}, {"current_trial": 170, "trialdata": {"rt": -1, "trial_type": "single-stim", "word": "soda", "stimulus": "<p id=\"stim\">SODA</p>", "conditions": [12, 800, "v", 24000], "internal_node_id": "0.0-125.0", "trial": 4, "time_elapsed": 805972, "serialpos": 1, "key_press": -1, "wordID": 1340, "type": "PRES_VIS", "trial_index": 170}, "uniqueid": "MTK1777:31UV0MXWNRJEI6OTAUUMJUGS8IOI5B", "dateTime": 1516299810303}, {"current_trial": 171, "trialdata": {"rt": -1, "trial_type": "single-stim", "word": "banjo", "stimulus": "<p id=\"stim\">BANJO</p>", "conditions": [12, 800, "v", 24000], "internal_node_id": "0.0-126.0", "trial": 4, "time_elapsed": 807783, "serialpos": 2, "key_press": -1, "wordID": 81, "type": "PRES_VIS", "trial_index": 171}, "uniqueid": "MTK1777:31UV0MXWNRJEI6OTAUUMJUGS8IOI5B", "dateTime": 1516299812114}, {"current_trial": 172, "trialdata": {"rt": -1, "trial_type": "single-stim", "word": "salad", "stimulus": "<p id=\"stim\">SALAD</p>", "conditions": [12, 800, "v", 24000], "internal_node_id": "0.0-127.0", "trial": 4, "time_elapsed": 809726, "serialpos": 3, "key_press": -1, "wordID": 1223, "type": "PRES_VIS", "trial_index": 172}, "uniqueid": "MTK1777:31UV0MXWNRJEI6OTAUUMJUGS8IOI5B", "dateTime": 1516299814056}, {"current_trial": 173, "trialdata": {"rt": -1, "trial_type": "single-stim", "word": "scarecrow", "stimulus": "<p id=\"stim\">SCARECROW</p>", "conditions": [12, 800, "v", 24000], "internal_node_id": "0.0-128.0", "trial": 4, "time_elapsed": 811473, "serialpos": 4, "key_press": -1, "wordID": 1244, "type": "PRES_VIS", "trial_index": 173}, "uniqueid": "MTK1777:31UV0MXWNRJEI6OTAUUMJUGS8IOI5B", "dateTime": 1516299815803}, {"current_trial": 174, "trialdata": {"rt": -1, "trial_type": "single-stim", "word": "football", "stimulus": "<p id=\"stim\">FOOTBALL</p>", "conditions": [12, 800, "v", 24000], "internal_node_id": "0.0-129.0", "trial": 4, "time_elapsed": 813224, "serialpos": 5, "key_press": -1, "wordID": 590, "type": "PRES_VIS", "trial_index": 174}, "uniqueid": "MTK1777:31UV0MXWNRJEI6OTAUUMJUGS8IOI5B", "dateTime": 1516299817555}, {"current_trial": 175, "trialdata": {"rt": -1, "trial_type": "single-stim", "word": "pepper", "stimulus": "<p id=\"stim\">PEPPER</p>", "conditions": [12, 800, "v", 24000], "internal_node_id": "0.0-130.0", "trial": 4, "time_elapsed": 815053, "serialpos": 6, "key_press": -1, "wordID": 1046, "type": "PRES_VIS", "trial_index": 175}, "uniqueid": "MTK1777:31UV0MXWNRJEI6OTAUUMJUGS8IOI5B", "dateTime": 1516299819383}, {"current_trial": 176, "trialdata": {"rt": -1, "trial_type": "single-stim", "word": "boyfriend", "stimulus": "<p id=\"stim\">BOYFRIEND</p>", "conditions": [12, 800, "v", 24000], "internal_node_id": "0.0-131.0", "trial": 4, "time_elapsed": 817041, "serialpos": 7, "key_press": -1, "wordID": 161, "type": "PRES_VIS", "trial_index": 176}, "uniqueid": "MTK1777:31UV0MXWNRJEI6OTAUUMJUGS8IOI5B", "dateTime": 1516299821371}, {"current_trial": 177, "trialdata": {"rt": -1, "trial_type": "single-stim", "word": "diver", "stimulus": "<p id=\"stim\">DIVER</p>", "conditions": [12, 800, "v", 24000], "internal_node_id": "0.0-132.0", "trial": 4, "time_elapsed": 818656, "serialpos": 8, "key_press": -1, "wordID": 475, "type": "PRES_VIS", "trial_index": 177}, "uniqueid": "MTK1777:31UV0MXWNRJEI6OTAUUMJUGS8IOI5B", "dateTime": 1516299822986}, {"current_trial": 178, "trialdata": {"rt": -1, "trial_type": "single-stim", "word": "costume", "stimulus": "<p id=\"stim\">COSTUME</p>", "conditions": [12, 800, "v", 24000], "internal_node_id": "0.0-133.0", "trial": 4, "time_elapsed": 820364, "serialpos": 9, "key_press": -1, "wordID": 382, "type": "PRES_VIS", "trial_index": 178}, "uniqueid": "MTK1777:31UV0MXWNRJEI6OTAUUMJUGS8IOI5B", "dateTime": 1516299824694}, {"current_trial": 179, "trialdata": {"rt": -1, "trial_type": "single-stim", "word": "basement", "stimulus": "<p id=\"stim\">BASEMENT</p>", "conditions": [12, 800, "v", 24000], "internal_node_id": "0.0-134.0", "trial": 4, "time_elapsed": 822239, "serialpos": 10, "key_press": -1, "wordID": 93, "type": "PRES_VIS", "trial_index": 179}, "uniqueid": "MTK1777:31UV0MXWNRJEI6OTAUUMJUGS8IOI5B", "dateTime": 1516299826569}, {"current_trial": 180, "trialdata": {"rt": -1, "trial_type": "single-stim", "word": "cashew", "stimulus": "<p id=\"stim\">CASHEW</p>", "conditions": [12, 800, "v", 24000], "internal_node_id": "0.0-135.0", "trial": 4, "time_elapsed": 823953, "serialpos": 11, "key_press": -1, "wordID": 252, "type": "PRES_VIS", "trial_index": 180}, "uniqueid": "MTK1777:31UV0MXWNRJEI6OTAUUMJUGS8IOI5B", "dateTime": 1516299828284}, {"current_trial": 181, "trialdata": {"rt": -1, "trial_type": "single-stim", "stimulus": "", "internal_node_id": "0.0-136.0-0.0", "time_elapsed": 826263, "key_press": -1, "type": "PRE_RECALL_DELAY", "trial_index": 181}, "uniqueid": "MTK1777:31UV0MXWNRJEI6OTAUUMJUGS8IOI5B", "dateTime": 1516299830593}, {"current_trial": 182, "trialdata": {"rt": -1000, "trial_type": "single-audio", "stimulus": "/static/audio/400Hz.wav", "internal_node_id": "0.0-137.0", "time_elapsed": 826765, "key_press": -1, "type": "PRE_RECALL_ALERT", "trial_index": 182}, "uniqueid": "MTK1777:31UV0MXWNRJEI6OTAUUMJUGS8IOI5B", "dateTime": 1516299831095}, {"current_trial": 183, "trialdata": {"rt": [4898, 6042, 8226, 9882], "recwords": ["coffee", "soda", "salad", "cashew"], "key_times": [3784, 3842, 4049, 4187, 4346, 4539, 4898, 5250, 5322, 5499, 5755, 6042, 6779, 6939, 7042, 7171, 7788, 7906, 8066, 8226, 8734, 8874, 9082, 9195, 9474, 9690, 9882], "trial_type": "free-recall", "conditions": [12, 800, "v", 24000], "internal_node_id": "0.0-138.0-0.0", "key_presses": [67, 79, 70, 70, 69, 69, 13, 83, 79, 68, 65, 13, 83, 65, 76, 68, 8, 65, 68, 13, 67, 65, 83, 72, 69, 87, 13], "trial": 4, "time_elapsed": 886773, "type": "FREE_RECALL", "trial_index": 183}, "uniqueid": "MTK1777:31UV0MXWNRJEI6OTAUUMJUGS8IOI5B", "dateTime": 1516299891109}, {"current_trial": 184, "trialdata": {"rt": 4098, "trial_type": "text", "internal_node_id": "0.0-139.0", "time_elapsed": 892878, "key_press": 18, "type": "INSTRUCTIONS", "trial_index": 184}, "uniqueid": "MTK1777:31UV0MXWNRJEI6OTAUUMJUGS8IOI5B", "dateTime": 1516299897208}, {"current_trial": 185, "trialdata": {"rt": [1616, 4314, 5768, 7695, 10503], "trial_type": "math-distractor", "key_times": [1048, 1304, 1616, 3648, 3975, 4314, 5272, 5480, 5768, 7039, 7344, 7695, 10044, 10248, 10503, 11497, 11760], "responses": ["15", "13", "15", "17", "11"], "num2": [3, 4, 3, 9, 2, 4], "num3": [2, 8, 6, 3, 7, 8], "conditions": [24, 800, "v", 12000], "internal_node_id": "0.0-140.0", "key_presses": [97, 101, 13, 97, 99, 13, 97, 101, 13, 97, 103, 13, 97, 97, 13, 97, 99], "trial": 5, "time_elapsed": 906884, "type": "DISTRACTOR", "trial_index": 185, "num1": [9, 1, 6, 5, 2, 1]}, "uniqueid": "MTK1777:31UV0MXWNRJEI6OTAUUMJUGS8IOI5B", "dateTime": 1516299911214}, {"current_trial": 186, "trialdata": {"rt": -1, "trial_type": "single-stim", "stimulus": "<p id=\"stim\">10</p>", "internal_node_id": "0.0-141.0-0.0", "time_elapsed": 909886, "key_press": -1, "trial_index": 186}, "uniqueid": "MTK1777:31UV0MXWNRJEI6OTAUUMJUGS8IOI5B", "dateTime": 1516299914216}, {"current_trial": 187, "trialdata": {"rt": -1, "trial_type": "single-stim", "stimulus": "<p id=\"stim\">9</p>", "internal_node_id": "0.0-141.0-1.0", "time_elapsed": 910887, "key_press": -1, "trial_index": 187}, "uniqueid": "MTK1777:31UV0MXWNRJEI6OTAUUMJUGS8IOI5B", "dateTime": 1516299915217}, {"current_trial": 188, "trialdata": {"rt": -1, "trial_type": "single-stim", "stimulus": "<p id=\"stim\">8</p>", "internal_node_id": "0.0-141.0-2.0", "time_elapsed": 911889, "key_press": -1, "trial_index": 188}, "uniqueid": "MTK1777:31UV0MXWNRJEI6OTAUUMJUGS8IOI5B", "dateTime": 1516299916219}, {"current_trial": 189, "trialdata": {"rt": -1, "trial_type": "single-stim", "stimulus": "<p id=\"stim\">7</p>", "internal_node_id": "0.0-141.0-3.0", "time_elapsed": 912890, "key_press": -1, "trial_index": 189}, "uniqueid": "MTK1777:31UV0MXWNRJEI6OTAUUMJUGS8IOI5B", "dateTime": 1516299917220}, {"current_trial": 190, "trialdata": {"rt": -1, "trial_type": "single-stim", "stimulus": "<p id=\"stim\">6</p>", "internal_node_id": "0.0-141.0-4.0", "time_elapsed": 913891, "key_press": -1, "trial_index": 190}, "uniqueid": "MTK1777:31UV0MXWNRJEI6OTAUUMJUGS8IOI5B", "dateTime": 1516299918222}, {"current_trial": 191, "trialdata": {"rt": -1, "trial_type": "single-stim", "stimulus": "<p id=\"stim\">5</p>", "internal_node_id": "0.0-141.0-5.0", "time_elapsed": 914893, "key_press": -1, "trial_index": 191}, "uniqueid": "MTK1777:31UV0MXWNRJEI6OTAUUMJUGS8IOI5B", "dateTime": 1516299919223}, {"current_trial": 192, "trialdata": {"rt": -1, "trial_type": "single-stim", "stimulus": "<p id=\"stim\">4</p>", "internal_node_id": "0.0-141.0-6.0", "time_elapsed": 915895, "key_press": -1, "trial_index": 192}, "uniqueid": "MTK1777:31UV0MXWNRJEI6OTAUUMJUGS8IOI5B", "dateTime": 1516299920225}, {"current_trial": 193, "trialdata": {"rt": -1, "trial_type": "single-stim", "stimulus": "<p id=\"stim\">3</p>", "internal_node_id": "0.0-141.0-7.0", "time_elapsed": 916897, "key_press": -1, "trial_index": 193}, "uniqueid": "MTK1777:31UV0MXWNRJEI6OTAUUMJUGS8IOI5B", "dateTime": 1516299921227}, {"current_trial": 194, "trialdata": {"rt": -1, "trial_type": "single-stim", "stimulus": "<p id=\"stim\">2</p>", "internal_node_id": "0.0-141.0-8.0", "time_elapsed": 917898, "key_press": -1, "trial_index": 194}, "uniqueid": "MTK1777:31UV0MXWNRJEI6OTAUUMJUGS8IOI5B", "dateTime": 1516299922228}, {"current_trial": 195, "trialdata": {"rt": -1, "trial_type": "single-stim", "stimulus": "<p id=\"stim\">1</p>", "internal_node_id": "0.0-141.0-9.0", "time_elapsed": 918900, "key_press": -1, "trial_index": 195}, "uniqueid": "MTK1777:31UV0MXWNRJEI6OTAUUMJUGS8IOI5B", "dateTime": 1516299923230}, {"current_trial": 196, "trialdata": {"rt": -1, "trial_type": "single-stim", "stimulus": "<p id=\"stim\">+</p>", "internal_node_id": "0.0-142.0-0.0", "time_elapsed": 920402, "key_press": -1, "type": "FIXATION", "trial_index": 196}, "uniqueid": "MTK1777:31UV0MXWNRJEI6OTAUUMJUGS8IOI5B", "dateTime": 1516299924732}, {"current_trial": 197, "trialdata": {"rt": -1, "trial_type": "single-stim", "word": "seal", "stimulus": "<p id=\"stim\">SEAL</p>", "conditions": [24, 800, "v", 12000], "internal_node_id": "0.0-143.0", "trial": 5, "time_elapsed": 921204, "serialpos": 0, "key_press": -1, "wordID": 1261, "type": "PRES_VIS", "trial_index": 197}, "uniqueid": "MTK1777:31UV0MXWNRJEI6OTAUUMJUGS8IOI5B", "dateTime": 1516299925534}, {"current_trial": 198, "trialdata": {"rt": -1, "trial_type": "single-stim", "word": "beef", "stimulus": "<p id=\"stim\">BEEF</p>", "conditions": [24, 800, "v", 12000], "internal_node_id": "0.0-144.0", "trial": 5, "time_elapsed": 923000, "serialpos": 1, "key_press": -1, "wordID": 112, "type": "PRES_VIS", "trial_index": 198}, "uniqueid": "MTK1777:31UV0MXWNRJEI6OTAUUMJUGS8IOI5B", "dateTime": 1516299927331}, {"current_trial": 199, "trialdata": {"rt": -1, "trial_type": "single-stim", "word": "pasta", "stimulus": "<p id=\"stim\">PASTA</p>", "conditions": [24, 800, "v", 12000], "internal_node_id": "0.0-145.0", "trial": 5, "time_elapsed": 924794, "serialpos": 2, "key_press": -1, "wordID": 1020, "type": "PRES_VIS", "trial_index": 199}, "uniqueid": "MTK1777:31UV0MXWNRJEI6OTAUUMJUGS8IOI5B", "dateTime": 1516299929124}, {"current_trial": 200, "trialdata": {"rt": -1, "trial_type": "single-stim", "word": "county", "stimulus": "<p id=\"stim\">COUNTY</p>", "conditions": [24, 800, "v", 12000], "internal_node_id": "0.0-146.0", "trial": 5, "time_elapsed": 926646, "serialpos": 3, "key_press": -1, "wordID": 388, "type": "PRES_VIS", "trial_index": 200}, "uniqueid": "MTK1777:31UV0MXWNRJEI6OTAUUMJUGS8IOI5B", "dateTime": 1516299930977}, {"current_trial": 201, "trialdata": {"rt": -1, "trial_type": "single-stim", "word": "sheriff", "stimulus": "<p id=\"stim\">SHERIFF</p>", "conditions": [24, 800, "v", 12000], "internal_node_id": "0.0-147.0", "trial": 5, "time_elapsed": 928499, "serialpos": 4, "key_press": -1, "wordID": 1283, "type": "PRES_VIS", "trial_index": 201}, "uniqueid": "MTK1777:31UV0MXWNRJEI6OTAUUMJUGS8IOI5B", "dateTime": 1516299932830}, {"current_trial": 202, "trialdata": {"rt": -1, "trial_type": "single-stim", "word": "waiter", "stimulus": "<p id=\"stim\">WAITER</p>", "conditions": [24, 800, "v", 12000], "internal_node_id": "0.0-148.0", "trial": 5, "time_elapsed": 930261, "serialpos": 5, "key_press": -1, "wordID": 1579, "type": "PRES_VIS", "trial_index": 202}, "uniqueid": "MTK1777:31UV0MXWNRJEI6OTAUUMJUGS8IOI5B", "dateTime": 1516299934591}, {"current_trial": 203, "trialdata": {"rt": -1, "trial_type": "single-stim", "word": "milk", "stimulus": "<p id=\"stim\">MILK</p>", "conditions": [24, 800, "v", 12000], "internal_node_id": "0.0-149.0", "trial": 5, "time_elapsed": 931866, "serialpos": 6, "key_press": -1, "wordID": 894, "type": "PRES_VIS", "trial_index": 203}, "uniqueid": "MTK1777:31UV0MXWNRJEI6OTAUUMJUGS8IOI5B", "dateTime": 1516299936196}, {"current_trial": 204, "trialdata": {"rt": -1, "trial_type": "single-stim", "word": "blueprint", "stimulus": "<p id=\"stim\">BLUEPRINT</p>", "conditions": [24, 800, "v", 12000], "internal_node_id": "0.0-150.0", "trial": 5, "time_elapsed": 933684, "serialpos": 7, "key_press": -1, "wordID": 141, "type": "PRES_VIS", "trial_index": 204}, "uniqueid": "MTK1777:31UV0MXWNRJEI6OTAUUMJUGS8IOI5B", "dateTime": 1516299938014}, {"current_trial": 205, "trialdata": {"rt": -1, "trial_type": "single-stim", "word": "gangster", "stimulus": "<p id=\"stim\">GANGSTER</p>", "conditions": [24, 800, "v", 12000], "internal_node_id": "0.0-151.0", "trial": 5, "time_elapsed": 935613, "serialpos": 8, "key_press": -1, "wordID": 619, "type": "PRES_VIS", "trial_index": 205}, "uniqueid": "MTK1777:31UV0MXWNRJEI6OTAUUMJUGS8IOI5B", "dateTime": 1516299939944}, {"current_trial": 206, "trialdata": {"rt": -1, "trial_type": "single-stim", "word": "sponge", "stimulus": "<p id=\"stim\">SPONGE</p>", "conditions": [24, 800, "v", 12000], "internal_node_id": "0.0-152.0", "trial": 5, "time_elapsed": 937292, "serialpos": 9, "key_press": -1, "wordID": 1354, "type": "PRES_VIS", "trial_index": 206}, "uniqueid": "MTK1777:31UV0MXWNRJEI6OTAUUMJUGS8IOI5B", "dateTime": 1516299941623}, {"current_trial": 207, "trialdata": {"rt": -1, "trial_type": "single-stim", "word": "honey", "stimulus": "<p id=\"stim\">HONEY</p>", "conditions": [24, 800, "v", 12000], "internal_node_id": "0.0-153.0", "trial": 5, "time_elapsed": 939215, "serialpos": 10, "key_press": -1, "wordID": 712, "type": "PRES_VIS", "trial_index": 207}, "uniqueid": "MTK1777:31UV0MXWNRJEI6OTAUUMJUGS8IOI5B", "dateTime": 1516299943546}, {"current_trial": 208, "trialdata": {"rt": -1, "trial_type": "single-stim", "word": "ankle", "stimulus": "<p id=\"stim\">ANKLE</p>", "conditions": [24, 800, "v", 12000], "internal_node_id": "0.0-154.0", "trial": 5, "time_elapsed": 940831, "serialpos": 11, "key_press": -1, "wordID": 23, "type": "PRES_VIS", "trial_index": 208}, "uniqueid": "MTK1777:31UV0MXWNRJEI6OTAUUMJUGS8IOI5B", "dateTime": 1516299945162}, {"current_trial": 209, "trialdata": {"rt": -1, "trial_type": "single-stim", "word": "rabbit", "stimulus": "<p id=\"stim\">RABBIT</p>", "conditions": [24, 800, "v", 12000], "internal_node_id": "0.0-155.0", "trial": 5, "time_elapsed": 942763, "serialpos": 12, "key_press": -1, "wordID": 1151, "type": "PRES_VIS", "trial_index": 209}, "uniqueid": "MTK1777:31UV0MXWNRJEI6OTAUUMJUGS8IOI5B", "dateTime": 1516299947093}, {"current_trial": 210, "trialdata": {"rt": -1, "trial_type": "single-stim", "word": "climber", "stimulus": "<p id=\"stim\">CLIMBER</p>", "conditions": [24, 800, "v", 12000], "internal_node_id": "0.0-156.0", "trial": 5, "time_elapsed": 944659, "serialpos": 13, "key_press": -1, "wordID": 322, "type": "PRES_VIS", "trial_index": 210}, "uniqueid": "MTK1777:31UV0MXWNRJEI6OTAUUMJUGS8IOI5B", "dateTime": 1516299948989}, {"current_trial": 211, "trialdata": {"rt": -1, "trial_type": "single-stim", "word": "hiker", "stimulus": "<p id=\"stim\">HIKER</p>", "conditions": [24, 800, "v", 12000], "internal_node_id": "0.0-157.0", "trial": 5, "time_elapsed": 946316, "serialpos": 14, "key_press": -1, "wordID": 707, "type": "PRES_VIS", "trial_index": 211}, "uniqueid": "MTK1777:31UV0MXWNRJEI6OTAUUMJUGS8IOI5B", "dateTime": 1516299950646}, {"current_trial": 212, "trialdata": {"rt": -1, "trial_type": "single-stim", "word": "perch", "stimulus": "<p id=\"stim\">PERCH</p>", "conditions": [24, 800, "v", 12000], "internal_node_id": "0.0-158.0", "trial": 5, "time_elapsed": 948166, "serialpos": 15, "key_press": -1, "wordID": 1047, "type": "PRES_VIS", "trial_index": 212}, "uniqueid": "MTK1777:31UV0MXWNRJEI6OTAUUMJUGS8IOI5B", "dateTime": 1516299952496}, {"current_trial": 213, "trialdata": {"rt": -1, "trial_type": "single-stim", "word": "smog", "stimulus": "<p id=\"stim\">SMOG</p>", "conditions": [24, 800, "v", 12000], "internal_node_id": "0.0-159.0", "trial": 5, "time_elapsed": 949779, "serialpos": 16, "key_press": -1, "wordID": 1329, "type": "PRES_VIS", "trial_index": 213}, "uniqueid": "MTK1777:31UV0MXWNRJEI6OTAUUMJUGS8IOI5B", "dateTime": 1516299954109}, {"current_trial": 214, "trialdata": {"rt": -1, "trial_type": "single-stim", "word": "brandy", "stimulus": "<p id=\"stim\">BRANDY</p>", "conditions": [24, 800, "v", 12000], "internal_node_id": "0.0-160.0", "trial": 5, "time_elapsed": 951546, "serialpos": 17, "key_press": -1, "wordID": 168, "type": "PRES_VIS", "trial_index": 214}, "uniqueid": "MTK1777:31UV0MXWNRJEI6OTAUUMJUGS8IOI5B", "dateTime": 1516299955876}, {"current_trial": 215, "trialdata": {"rt": -1, "trial_type": "single-stim", "word": "radish", "stimulus": "<p id=\"stim\">RADISH</p>", "conditions": [24, 800, "v", 12000], "internal_node_id": "0.0-161.0", "trial": 5, "time_elapsed": 953389, "serialpos": 18, "key_press": -1, "wordID": 1157, "type": "PRES_VIS", "trial_index": 215}, "uniqueid": "MTK1777:31UV0MXWNRJEI6OTAUUMJUGS8IOI5B", "dateTime": 1516299957720}, {"current_trial": 216, "trialdata": {"rt": -1, "trial_type": "single-stim", "word": "iceberg", "stimulus": "<p id=\"stim\">ICEBERG</p>", "conditions": [24, 800, "v", 12000], "internal_node_id": "0.0-162.0", "trial": 5, "time_elapsed": 955145, "serialpos": 19, "key_press": -1, "wordID": 730, "type": "PRES_VIS", "trial_index": 216}, "uniqueid": "MTK1777:31UV0MXWNRJEI6OTAUUMJUGS8IOI5B", "dateTime": 1516299959476}, {"current_trial": 217, "trialdata": {"rt": -1, "trial_type": "single-stim", "word": "shark", "stimulus": "<p id=\"stim\">SHARK</p>", "conditions": [24, 800, "v", 12000], "internal_node_id": "0.0-163.0", "trial": 5, "time_elapsed": 956976, "serialpos": 20, "key_press": -1, "wordID": 1274, "type": "PRES_VIS", "trial_index": 217}, "uniqueid": "MTK1777:31UV0MXWNRJEI6OTAUUMJUGS8IOI5B", "dateTime": 1516299961306}, {"current_trial": 218, "trialdata": {"rt": -1, "trial_type": "single-stim", "word": "rooster", "stimulus": "<p id=\"stim\">ROOSTER</p>", "conditions": [24, 800, "v", 12000], "internal_node_id": "0.0-164.0", "trial": 5, "time_elapsed": 958926, "serialpos": 21, "key_press": -1, "wordID": 1208, "type": "PRES_VIS", "trial_index": 218}, "uniqueid": "MTK1777:31UV0MXWNRJEI6OTAUUMJUGS8IOI5B", "dateTime": 1516299963256}, {"current_trial": 219, "trialdata": {"rt": -1, "trial_type": "single-stim", "word": "mars", "stimulus": "<p id=\"stim\">MARS</p>", "conditions": [24, 800, "v", 12000], "internal_node_id": "0.0-165.0", "trial": 5, "time_elapsed": 960560, "serialpos": 22, "key_press": -1, "wordID": 872, "type": "PRES_VIS", "trial_index": 219}, "uniqueid": "MTK1777:31UV0MXWNRJEI6OTAUUMJUGS8IOI5B", "dateTime": 1516299964890}, {"current_trial": 220, "trialdata": {"rt": -1, "trial_type": "single-stim", "word": "crib", "stimulus": "<p id=\"stim\">CRIB</p>", "conditions": [24, 800, "v", 12000], "internal_node_id": "0.0-166.0", "trial": 5, "time_elapsed": 962235, "serialpos": 23, "key_press": -1, "wordID": 406, "type": "PRES_VIS", "trial_index": 220}, "uniqueid": "MTK1777:31UV0MXWNRJEI6OTAUUMJUGS8IOI5B", "dateTime": 1516299966565}, {"current_trial": 221, "trialdata": {"rt": -1, "trial_type": "single-stim", "stimulus": "", "internal_node_id": "0.0-167.0-0.0", "time_elapsed": 964612, "key_press": -1, "type": "PRE_RECALL_DELAY", "trial_index": 221}, "uniqueid": "MTK1777:31UV0MXWNRJEI6OTAUUMJUGS8IOI5B", "dateTime": 1516299968942}, {"current_trial": 222, "trialdata": {"rt": -1000, "trial_type": "single-audio", "stimulus": "/static/audio/400Hz.wav", "internal_node_id": "0.0-168.0", "time_elapsed": 965114, "key_press": -1, "type": "PRE_RECALL_ALERT", "trial_index": 222}, "uniqueid": "MTK1777:31UV0MXWNRJEI6OTAUUMJUGS8IOI5B", "dateTime": 1516299969444}, {"current_trial": 223, "trialdata": {"rt": [6518, 7725, 9060, 10388, 11909], "recwords": ["seal", "beef", "pasta", "milk", "sponge"], "key_times": [4977, 5141, 5300, 6181, 6518, 6878, 7092, 7221, 7468, 7725, 8116, 8293, 8493, 8637, 8845, 9060, 9356, 9556, 9741, 9910, 10388, 10636, 10788, 10980, 11068, 11477, 11684, 11909], "trial_type": "free-recall", "conditions": [24, 800, "v", 12000], "internal_node_id": "0.0-169.0-0.0", "key_presses": [83, 69, 65, 76, 13, 66, 69, 69, 70, 13, 80, 65, 83, 84, 65, 13, 77, 73, 76, 75, 13, 83, 80, 79, 78, 71, 69, 13], "trial": 5, "time_elapsed": 1025119, "type": "FREE_RECALL", "trial_index": 223}, "uniqueid": "MTK1777:31UV0MXWNRJEI6OTAUUMJUGS8IOI5B", "dateTime": 1516300029454}, {"current_trial": 224, "trialdata": {"rt": 3320, "trial_type": "text", "internal_node_id": "0.0-170.0", "time_elapsed": 1030448, "key_press": 32, "type": "INSTRUCTIONS", "trial_index": 224}, "uniqueid": "MTK1777:31UV0MXWNRJEI6OTAUUMJUGS8IOI5B", "dateTime": 1516300034778}, {"current_trial": 225, "trialdata": {"rt": [2294, 4775, 6487, 8195, 11823, 14641, 16438, 18449, 21214, 23000], "trial_type": "math-distractor", "key_times": [1680, 1983, 2294, 4098, 4375, 4775, 6096, 6487, 7534, 7798, 8195, 10862, 11359, 11823, 13806, 14142, 14641, 15766, 16070, 16438, 17903, 18102, 18449, 20463, 20678, 21214, 22494, 22711, 23000], "responses": ["20", "19", "9", "16", "17", "19", "14", "15", "21", "12"], "num2": [4, 5, 1, 7, 7, 6, 5, 6, 6, 7, 5], "num3": [9, 8, 7, 2, 4, 4, 1, 7, 8, 4, 5], "conditions": [12, 800, "v", 24000], "internal_node_id": "0.0-171.0", "key_presses": [98, 96, 13, 97, 105, 13, 105, 13, 97, 102, 13, 97, 103, 13, 97, 105, 13, 97, 100, 13, 97, 101, 13, 98, 97, 13, 97, 98, 13], "trial": 6, "time_elapsed": 1056453, "type": "DISTRACTOR", "trial_index": 225, "num1": [7, 6, 1, 7, 6, 9, 8, 2, 7, 1, 4]}, "uniqueid": "MTK1777:31UV0MXWNRJEI6OTAUUMJUGS8IOI5B", "dateTime": 1516300060784}, {"current_trial": 226, "trialdata": {"rt": -1, "trial_type": "single-stim", "stimulus": "<p id=\"stim\">10</p>", "internal_node_id": "0.0-172.0-0.0", "time_elapsed": 1059456, "key_press": -1, "trial_index": 226}, "uniqueid": "MTK1777:31UV0MXWNRJEI6OTAUUMJUGS8IOI5B", "dateTime": 1516300063786}, {"current_trial": 227, "trialdata": {"rt": -1, "trial_type": "single-stim", "stimulus": "<p id=\"stim\">9</p>", "internal_node_id": "0.0-172.0-1.0", "time_elapsed": 1060457, "key_press": -1, "trial_index": 227}, "uniqueid": "MTK1777:31UV0MXWNRJEI6OTAUUMJUGS8IOI5B", "dateTime": 1516300064787}, {"current_trial": 228, "trialdata": {"rt": -1, "trial_type": "single-stim", "stimulus": "<p id=\"stim\">8</p>", "internal_node_id": "0.0-172.0-2.0", "time_elapsed": 1061459, "key_press": -1, "trial_index": 228}, "uniqueid": "MTK1777:31UV0MXWNRJEI6OTAUUMJUGS8IOI5B", "dateTime": 1516300065789}, {"current_trial": 229, "trialdata": {"rt": -1, "trial_type": "single-stim", "stimulus": "<p id=\"stim\">7</p>", "internal_node_id": "0.0-172.0-3.0", "time_elapsed": 1062461, "key_press": -1, "trial_index": 229}, "uniqueid": "MTK1777:31UV0MXWNRJEI6OTAUUMJUGS8IOI5B", "dateTime": 1516300066791}, {"current_trial": 230, "trialdata": {"rt": -1, "trial_type": "single-stim", "stimulus": "<p id=\"stim\">6</p>", "internal_node_id": "0.0-172.0-4.0", "time_elapsed": 1063462, "key_press": -1, "trial_index": 230}, "uniqueid": "MTK1777:31UV0MXWNRJEI6OTAUUMJUGS8IOI5B", "dateTime": 1516300067793}, {"current_trial": 231, "trialdata": {"rt": -1, "trial_type": "single-stim", "stimulus": "<p id=\"stim\">5</p>", "internal_node_id": "0.0-172.0-5.0", "time_elapsed": 1064464, "key_press": -1, "trial_index": 231}, "uniqueid": "MTK1777:31UV0MXWNRJEI6OTAUUMJUGS8IOI5B", "dateTime": 1516300068794}, {"current_trial": 232, "trialdata": {"rt": -1, "trial_type": "single-stim", "stimulus": "<p id=\"stim\">4</p>", "internal_node_id": "0.0-172.0-6.0", "time_elapsed": 1065466, "key_press": -1, "trial_index": 232}, "uniqueid": "MTK1777:31UV0MXWNRJEI6OTAUUMJUGS8IOI5B", "dateTime": 1516300069796}, {"current_trial": 233, "trialdata": {"rt": -1, "trial_type": "single-stim", "stimulus": "<p id=\"stim\">3</p>", "internal_node_id": "0.0-172.0-7.0", "time_elapsed": 1066467, "key_press": -1, "trial_index": 233}, "uniqueid": "MTK1777:31UV0MXWNRJEI6OTAUUMJUGS8IOI5B", "dateTime": 1516300070797}, {"current_trial": 234, "trialdata": {"rt": -1, "trial_type": "single-stim", "stimulus": "<p id=\"stim\">2</p>", "internal_node_id": "0.0-172.0-8.0", "time_elapsed": 1067468, "key_press": -1, "trial_index": 234}, "uniqueid": "MTK1777:31UV0MXWNRJEI6OTAUUMJUGS8IOI5B", "dateTime": 1516300071798}, {"current_trial": 235, "trialdata": {"rt": -1, "trial_type": "single-stim", "stimulus": "<p id=\"stim\">1</p>", "internal_node_id": "0.0-172.0-9.0", "time_elapsed": 1068470, "key_press": -1, "trial_index": 235}, "uniqueid": "MTK1777:31UV0MXWNRJEI6OTAUUMJUGS8IOI5B", "dateTime": 1516300072801}, {"current_trial": 236, "trialdata": {"rt": -1, "trial_type": "single-stim", "stimulus": "<p id=\"stim\">+</p>", "internal_node_id": "0.0-173.0-0.0", "time_elapsed": 1069972, "key_press": -1, "type": "FIXATION", "trial_index": 236}, "uniqueid": "MTK1777:31UV0MXWNRJEI6OTAUUMJUGS8IOI5B", "dateTime": 1516300074302}, {"current_trial": 237, "trialdata": {"rt": -1, "trial_type": "single-stim", "word": "portrait", "stimulus": "<p id=\"stim\">PORTRAIT</p>", "conditions": [12, 800, "v", 24000], "internal_node_id": "0.0-174.0", "trial": 6, "time_elapsed": 1070774, "serialpos": 0, "key_press": -1, "wordID": 1110, "type": "PRES_VIS", "trial_index": 237}, "uniqueid": "MTK1777:31UV0MXWNRJEI6OTAUUMJUGS8IOI5B", "dateTime": 1516300075104}, {"current_trial": 238, "trialdata": {"rt": -1, "trial_type": "single-stim", "word": "turtle", "stimulus": "<p id=\"stim\">TURTLE</p>", "conditions": [12, 800, "v", 24000], "internal_node_id": "0.0-175.0", "trial": 6, "time_elapsed": 1072416, "serialpos": 1, "key_press": -1, "wordID": 1521, "type": "PRES_VIS", "trial_index": 238}, "uniqueid": "MTK1777:31UV0MXWNRJEI6OTAUUMJUGS8IOI5B", "dateTime": 1516300076746}, {"current_trial": 239, "trialdata": {"rt": -1, "trial_type": "single-stim", "word": "cupboard", "stimulus": "<p id=\"stim\">CUPBOARD</p>", "conditions": [12, 800, "v", 24000], "internal_node_id": "0.0-176.0", "trial": 6, "time_elapsed": 1074229, "serialpos": 2, "key_press": -1, "wordID": 424, "type": "PRES_VIS", "trial_index": 239}, "uniqueid": "MTK1777:31UV0MXWNRJEI6OTAUUMJUGS8IOI5B", "dateTime": 1516300078560}, {"current_trial": 240, "trialdata": {"rt": -1, "trial_type": "single-stim", "word": "puddle", "stimulus": "<p id=\"stim\">PUDDLE</p>", "conditions": [12, 800, "v", 24000], "internal_node_id": "0.0-177.0", "trial": 6, "time_elapsed": 1075922, "serialpos": 3, "key_press": -1, "wordID": 1139, "type": "PRES_VIS", "trial_index": 240}, "uniqueid": "MTK1777:31UV0MXWNRJEI6OTAUUMJUGS8IOI5B", "dateTime": 1516300080253}, {"current_trial": 241, "trialdata": {"rt": -1, "trial_type": "single-stim", "word": "hostess", "stimulus": "<p id=\"stim\">HOSTESS</p>", "conditions": [12, 800, "v", 24000], "internal_node_id": "0.0-178.0", "trial": 6, "time_elapsed": 1077613, "serialpos": 4, "key_press": -1, "wordID": 722, "type": "PRES_VIS", "trial_index": 241}, "uniqueid": "MTK1777:31UV0MXWNRJEI6OTAUUMJUGS8IOI5B", "dateTime": 1516300081943}, {"current_trial": 242, "trialdata": {"rt": -1, "trial_type": "single-stim", "word": "outlaw", "stimulus": "<p id=\"stim\">OUTLAW</p>", "conditions": [12, 800, "v", 24000], "internal_node_id": "0.0-179.0", "trial": 6, "time_elapsed": 1079247, "serialpos": 5, "key_press": -1, "wordID": 988, "type": "PRES_VIS", "trial_index": 242}, "uniqueid": "MTK1777:31UV0MXWNRJEI6OTAUUMJUGS8IOI5B", "dateTime": 1516300083577}, {"current_trial": 243, "trialdata": {"rt": -1, "trial_type": "single-stim", "word": "rattle", "stimulus": "<p id=\"stim\">RATTLE</p>", "conditions": [12, 800, "v", 24000], "internal_node_id": "0.0-180.0", "trial": 6, "time_elapsed": 1081146, "serialpos": 6, "key_press": -1, "wordID": 1169, "type": "PRES_VIS", "trial_index": 243}, "uniqueid": "MTK1777:31UV0MXWNRJEI6OTAUUMJUGS8IOI5B", "dateTime": 1516300085476}, {"current_trial": 244, "trialdata": {"rt": -1, "trial_type": "single-stim", "word": "daughter", "stimulus": "<p id=\"stim\">DAUGHTER</p>", "conditions": [12, 800, "v", 24000], "internal_node_id": "0.0-181.0", "trial": 6, "time_elapsed": 1082826, "serialpos": 7, "key_press": -1, "wordID": 441, "type": "PRES_VIS", "trial_index": 244}, "uniqueid": "MTK1777:31UV0MXWNRJEI6OTAUUMJUGS8IOI5B", "dateTime": 1516300087157}, {"current_trial": 245, "trialdata": {"rt": -1, "trial_type": "single-stim", "word": "dress", "stimulus": "<p id=\"stim\">DRESS</p>", "conditions": [12, 800, "v", 24000], "internal_node_id": "0.0-182.0", "trial": 6, "time_elapsed": 1084722, "serialpos": 8, "key_press": -1, "wordID": 494, "type": "PRES_VIS", "trial_index": 245}, "uniqueid": "MTK1777:31UV0MXWNRJEI6OTAUUMJUGS8IOI5B", "dateTime": 1516300089052}, {"current_trial": 246, "trialdata": {"rt": -1, "trial_type": "single-stim", "word": "scarf", "stimulus": "<p id=\"stim\">SCARF</p>", "conditions": [12, 800, "v", 24000], "internal_node_id": "0.0-183.0", "trial": 6, "time_elapsed": 1086419, "serialpos": 9, "key_press": -1, "wordID": 1245, "type": "PRES_VIS", "trial_index": 246}, "uniqueid": "MTK1777:31UV0MXWNRJEI6OTAUUMJUGS8IOI5B", "dateTime": 1516300090750}, {"current_trial": 247, "trialdata": {"rt": -1, "trial_type": "single-stim", "word": "penguin", "stimulus": "<p id=\"stim\">PENGUIN</p>", "conditions": [12, 800, "v", 24000], "internal_node_id": "0.0-184.0", "trial": 6, "time_elapsed": 1088105, "serialpos": 10, "key_press": -1, "wordID": 1043, "type": "PRES_VIS", "trial_index": 247}, "uniqueid": "MTK1777:31UV0MXWNRJEI6OTAUUMJUGS8IOI5B", "dateTime": 1516300092435}, {"current_trial": 248, "trialdata": {"rt": -1, "trial_type": "single-stim", "word": "sunset", "stimulus": "<p id=\"stim\">SUNSET</p>", "conditions": [12, 800, "v", 24000], "internal_node_id": "0.0-185.0", "trial": 6, "time_elapsed": 1089754, "serialpos": 11, "key_press": -1, "wordID": 1407, "type": "PRES_VIS", "trial_index": 248}, "uniqueid": "MTK1777:31UV0MXWNRJEI6OTAUUMJUGS8IOI5B", "dateTime": 1516300094084}, {"current_trial": 249, "trialdata": {"rt": -1, "trial_type": "single-stim", "stimulus": "", "internal_node_id": "0.0-186.0-0.0", "time_elapsed": 1091943, "key_press": -1, "type": "PRE_RECALL_DELAY", "trial_index": 249}, "uniqueid": "MTK1777:31UV0MXWNRJEI6OTAUUMJUGS8IOI5B", "dateTime": 1516300096273}, {"current_trial": 250, "trialdata": {"rt": -1000, "trial_type": "single-audio", "stimulus": "/static/audio/400Hz.wav", "internal_node_id": "0.0-187.0", "time_elapsed": 1092448, "key_press": -1, "type": "PRE_RECALL_ALERT", "trial_index": 250}, "uniqueid": "MTK1777:31UV0MXWNRJEI6OTAUUMJUGS8IOI5B", "dateTime": 1516300096778}, {"current_trial": 251, "trialdata": {"rt": [4648, 7103, 9039, 13781], "recwords": ["turtle", "puddle", "dress", "scarf"], "key_times": [3293, 3447, 3919, 4320, 4455, 4544, 4648, 5759, 6064, 6232, 6367, 6471, 6687, 7103, 8199, 8360, 8528, 8711, 8848, 9039, 9513, 9720, 9912, 10065, 10456, 13781], "trial_type": "free-recall", "conditions": [12, 800, "v", 24000], "internal_node_id": "0.0-188.0-0.0", "key_presses": [84, 85, 82, 84, 76, 69, 32, 80, 85, 68, 68, 76, 69, 13, 68, 82, 69, 83, 83, 13, 83, 67, 65, 82, 70, 13], "trial": 6, "time_elapsed": 1152451, "type": "FREE_RECALL", "trial_index": 251}, "uniqueid": "MTK1777:31UV0MXWNRJEI6OTAUUMJUGS8IOI5B", "dateTime": 1516300156786}, {"current_trial": 252, "trialdata": {"rt": 11355, "trial_type": "text", "internal_node_id": "0.0-189.0", "time_elapsed": 1165812, "key_press": 32, "type": "INSTRUCTIONS", "trial_index": 252}, "uniqueid": "MTK1777:31UV0MXWNRJEI6OTAUUMJUGS8IOI5B", "dateTime": 1516300170142}, {"current_trial": 253, "trialdata": {"rt": [4019, 5395, 7668, 9891, 11434], "trial_type": "math-distractor", "key_times": [1052, 2092, 3403, 3723, 4019, 4875, 5123, 5395, 6968, 7323, 7668, 9235, 9586, 9891, 11115, 11434], "responses": ["20", "11", "17", "17", "9"], "num2": [9, 3, 8, 8, 3, 1], "num3": [9, 1, 6, 6, 1, 4], "conditions": [24, 1600, "v", 12000], "internal_nod