{"condition": 0, "counterbalance": 694, "assignmentId": "36H9ULYP6312FE1OYOSVH7M574EFJD", "workerId": "MTK1024", "hitId": "36D1BWBEHN86S8X3NOLEOWODML5M2W", "currenttrial": 626, "bonus": 0, "data": [{"uniqueid": "MTK1024:36H9ULYP6312FE1OYOSVH7M574EFJD", "current_trial": 0, "dateTime": 1513008125236, "trialdata": {"rt": 2248, "key_press": 32, "type": "INSTRUCTIONS", "trial_type": "text", "trial_index": 0, "time_elapsed": 2254, "internal_node_id": "0.0-0.0"}}, {"uniqueid": "MTK1024:36H9ULYP6312FE1OYOSVH7M574EFJD", "current_trial": 1, "dateTime": 1513008134571, "trialdata": {"rt": 9332, "key_press": 175, "type": "INSTRUCTIONS", "trial_type": "text", "trial_index": 1, "time_elapsed": 11591, "internal_node_id": "0.0-1.0"}}, {"uniqueid": "MTK1024:36H9ULYP6312FE1OYOSVH7M574EFJD", "current_trial": 2, "dateTime": 1513008144973, "trialdata": {"rt": [10337], "responses": ["ocean"], "type": "AUDIO_TEST", "trial_type": "audio-test", "trial_index": 2, "time_elapsed": 21993, "internal_node_id": "0.0-2.0"}}, {"uniqueid": "MTK1024:36H9ULYP6312FE1OYOSVH7M574EFJD", "current_trial": 3, "dateTime": 1513008152824, "trialdata": {"rt": [7836], "responses": ["crystal"], "type": "AUDIO_TEST", "trial_type": "audio-test", "trial_index": 3, "time_elapsed": 29844, "internal_node_id": "0.0-3.0"}}, {"uniqueid": "MTK1024:36H9ULYP6312FE1OYOSVH7M574EFJD", "current_trial": 4, "dateTime": 1513008160636, "trialdata": {"rt": [7793], "responses": ["spice"], "type": "AUDIO_TEST", "trial_type": "audio-test", "trial_index": 4, "time_elapsed": 37655, "internal_node_id": "0.0-4.0"}}, {"uniqueid": "MTK1024:36H9ULYP6312FE1OYOSVH7M574EFJD", "current_trial": 5, "dateTime": 1513008182645, "trialdata": {"rt": 21237, "responses": "{\"Q0\":\"3am\",\"Q1\":\"8am\",\"Q2\":\"4\\n4\"}", "type": "SLEEP_SURVEY", "trial_type": "survey-text", "trial_index": 5, "time_elapsed": 59665, "internal_node_id": "0.0-5.0"}}, {"uniqueid": "MTK1024:36H9ULYP6312FE1OYOSVH7M574EFJD", "current_trial": 6, "dateTime": 1513008202906, "trialdata": {"rt": 19248, "key_press": 32, "type": "INSTRUCTIONS", "trial_type": "text", "trial_index": 6, "time_elapsed": 79926, "internal_node_id": "0.0-6.0"}}, {"uniqueid": "MTK1024:36H9ULYP6312FE1OYOSVH7M574EFJD", "current_trial": 7, "dateTime": 1513008212178, "trialdata": {"rt": 8768, "key_press": 32, "type": "INSTRUCTIONS", "trial_type": "text", "trial_index": 7, "time_elapsed": 89198, "internal_node_id": "0.0-7.0"}}, {"uniqueid": "MTK1024:36H9ULYP6312FE1OYOSVH7M574EFJD", "current_trial": 8, "dateTime": 1513008221104, "trialdata": {"rt": 8417, "key_press": 32, "type": "INSTRUCTIONS", "trial_type": "text", "trial_index": 8, "time_elapsed": 98124, "internal_node_id": "0.0-8.0"}}, {"uniqueid": "MTK1024:36H9ULYP6312FE1OYOSVH7M574EFJD", "current_trial": 9, "dateTime": 1513008240146, "trialdata": {"rt": [3471, 5449, 8327, 11602, 13436, 16557], "responses": ["17", "9", "17", "10", "7", "18"], "num1": [1, 3, 5, 4, 4, 9, 1], "num2": [8, 4, 4, 1, 2, 7, 5], "num3": [8, 2, 8, 5, 1, 2, 6], "type": "DISTRACTOR", "conditions": [18, 1200, "a", 18000], "trial": 0, "trial_type": "math-distractor", "trial_index": 9, "time_elapsed": 117166, "internal_node_id": "0.0-9.0"}}, {"uniqueid": "MTK1024:36H9ULYP6312FE1OYOSVH7M574EFJD", "current_trial": 10, "dateTime": 1513008243204, "trialdata": {"rt": -1, "stimulus": "<p id=\"stim\">10</p>", "key_press": -1, "trial_type": "single-stim", "trial_index": 10, "time_elapsed": 120218, "internal_node_id": "0.0-10.0-0.0"}}, {"uniqueid": "MTK1024:36H9ULYP6312FE1OYOSVH7M574EFJD", "current_trial": 11, "dateTime": 1513008244207, "trialdata": {"rt": -1, "stimulus": "<p id=\"stim\">9</p>", "key_press": -1, "trial_type": "single-stim", "trial_index": 11, "time_elapsed": 121227, "internal_node_id": "0.0-10.0-1.0"}}, {"uniqueid": "MTK1024:36H9ULYP6312FE1OYOSVH7M574EFJD", "current_trial": 12, "dateTime": 1513008245210, "trialdata": {"rt": -1, "stimulus": "<p id=\"stim\">8</p>", "key_press": -1, "trial_type": "single-stim", "trial_index": 12, "time_elapsed": 122230, "internal_node_id": "0.0-10.0-2.0"}}, {"uniqueid": "MTK1024:36H9ULYP6312FE1OYOSVH7M574EFJD", "current_trial": 13, "dateTime": 1513008246212, "trialdata": {"rt": -1, "stimulus": "<p id=\"stim\">7</p>", "key_press": -1, "trial_type": "single-stim", "trial_index": 13, "time_elapsed": 123232, "internal_node_id": "0.0-10.0-3.0"}}, {"uniqueid": "MTK1024:36H9ULYP6312FE1OYOSVH7M574EFJD", "current_trial": 14, "dateTime": 1513008247215, "trialdata": {"rt": -1, "stimulus": "<p id=\"stim\">6</p>", "key_press": -1, "trial_type": "single-stim", "trial_index": 14, "time_elapsed": 124235, "internal_node_id": "0.0-10.0-4.0"}}, {"uniqueid": "MTK1024:36H9ULYP6312FE1OYOSVH7M574EFJD", "current_trial": 15, "dateTime": 1513008248221, "trialdata": {"rt": -1, "stimulus": "<p id=\"stim\">5</p>", "key_press": -1, "trial_type": "single-stim", "trial_index": 15, "time_elapsed": 125241, "internal_node_id": "0.0-10.0-5.0"}}, {"uniqueid": "MTK1024:36H9ULYP6312FE1OYOSVH7M574EFJD", "current_trial": 16, "dateTime": 1513008249224, "trialdata": {"rt": -1, "stimulus": "<p id=\"stim\">4</p>", "key_press": -1, "trial_type": "single-stim", "trial_index": 16, "time_elapsed": 126244, "internal_node_id": "0.0-10.0-6.0"}}, {"uniqueid": "MTK1024:36H9ULYP6312FE1OYOSVH7M574EFJD", "current_trial": 17, "dateTime": 1513008250243, "trialdata": {"rt": -1, "stimulus": "<p id=\"stim\">3</p>", "key_press": -1, "trial_type": "single-stim", "trial_index": 17, "time_elapsed": 127262, "internal_node_id": "0.0-10.0-7.0"}}, {"uniqueid": "MTK1024:36H9ULYP6312FE1OYOSVH7M574EFJD", "current_trial": 18, "dateTime": 1513008251252, "trialdata": {"rt": -1, "stimulus": "<p id=\"stim\">2</p>", "key_press": -1, "trial_type": "single-stim", "trial_index": 18, "time_elapsed": 128272, "internal_node_id": "0.0-10.0-8.0"}}, {"uniqueid": "MTK1024:36H9ULYP6312FE1OYOSVH7M574EFJD", "current_trial": 19, "dateTime": 1513008252255, "trialdata": {"rt": -1, "stimulus": "<p id=\"stim\">1</p>", "key_press": -1, "trial_type": "single-stim", "trial_index": 19, "time_elapsed": 129275, "internal_node_id": "0.0-10.0-9.0"}}, {"uniqueid": "MTK1024:36H9ULYP6312FE1OYOSVH7M574EFJD", "current_trial": 20, "dateTime": 1513008253760, "trialdata": {"rt": -1, "stimulus": "<p id=\"stim\">+</p>", "key_press": -1, "type": "FIXATION", "trial_type": "single-stim", "trial_index": 20, "time_elapsed": 130780, "internal_node_id": "0.0-11.0-0.0"}}, {"uniqueid": "MTK1024:36H9ULYP6312FE1OYOSVH7M574EFJD", "current_trial": 21, "dateTime": 1513008255856, "trialdata": {"rt": -1000, "stimulus": "/static/audio/wordpool/LIGHTNING.wav", "key_press": -1, "type": "PRES_AUD", "word": "lightning", "wordID": 819, "conditions": [18, 1200, "a", 18000], "trial": 0, "serialpos": 0, "trial_type": "single-audio", "trial_index": 21, "time_elapsed": 132876, "internal_node_id": "0.0-12.0"}}, {"uniqueid": "MTK1024:36H9ULYP6312FE1OYOSVH7M574EFJD", "current_trial": 22, "dateTime": 1513008257956, "trialdata": {"rt": -1000, "stimulus": "/static/audio/wordpool/HAND.wav", "key_press": -1, "type": "PRES_AUD", "word": "hand", "wordID": 682, "conditions": [18, 1200, "a", 18000], "trial": 0, "serialpos": 1, "trial_type": "single-audio", "trial_index": 22, "time_elapsed": 134976, "internal_node_id": "0.0-13.0"}}, {"uniqueid": "MTK1024:36H9ULYP6312FE1OYOSVH7M574EFJD", "current_trial": 23, "dateTime": 1513008260175, "trialdata": {"rt": -1000, "stimulus": "/static/audio/wordpool/STOMACH.wav", "key_press": -1, "type": "PRES_AUD", "word": "stomach", "wordID": 1383, "conditions": [18, 1200, "a", 18000], "trial": 0, "serialpos": 2, "trial_type": "single-audio", "trial_index": 23, "time_elapsed": 137194, "internal_node_id": "0.0-14.0"}}, {"uniqueid": "MTK1024:36H9ULYP6312FE1OYOSVH7M574EFJD", "current_trial": 24, "dateTime": 1513008262491, "trialdata": {"rt": -1000, "stimulus": "/static/audio/wordpool/FLUTE.wav", "key_press": -1, "type": "PRES_AUD", "word": "flute", "wordID": 584, "conditions": [18, 1200, "a", 18000], "trial": 0, "serialpos": 3, "trial_type": "single-audio", "trial_index": 24, "time_elapsed": 139511, "internal_node_id": "0.0-15.0"}}, {"uniqueid": "MTK1024:36H9ULYP6312FE1OYOSVH7M574EFJD", "current_trial": 25, "dateTime": 1513008264556, "trialdata": {"rt": -1000, "stimulus": "/static/audio/wordpool/HANDBAG.wav", "key_press": -1, "type": "PRES_AUD", "word": "handbag", "wordID": 683, "conditions": [18, 1200, "a", 18000], "trial": 0, "serialpos": 4, "trial_type": "single-audio", "trial_index": 25, "time_elapsed": 141576, "internal_node_id": "0.0-16.0"}}, {"uniqueid": "MTK1024:36H9ULYP6312FE1OYOSVH7M574EFJD", "current_trial": 26, "dateTime": 1513008266928, "trialdata": {"rt": -1000, "stimulus": "/static/audio/wordpool/BEAVER.wav", "key_press": -1, "type": "PRES_AUD", "word": "beaver", "wordID": 108, "conditions": [18, 1200, "a", 18000], "trial": 0, "serialpos": 5, "trial_type": "single-audio", "trial_index": 26, "time_elapsed": 143948, "internal_node_id": "0.0-17.0"}}, {"uniqueid": "MTK1024:36H9ULYP6312FE1OYOSVH7M574EFJD", "current_trial": 27, "dateTime": 1513008269219, "trialdata": {"rt": -1000, "stimulus": "/static/audio/wordpool/ZEBRA.wav", "key_press": -1, "type": "PRES_AUD", "word": "zebra", "wordID": 1634, "conditions": [18, 1200, "a", 18000], "trial": 0, "serialpos": 6, "trial_type": "single-audio", "trial_index": 27, "time_elapsed": 146239, "internal_node_id": "0.0-18.0"}}, {"uniqueid": "MTK1024:36H9ULYP6312FE1OYOSVH7M574EFJD", "current_trial": 28, "dateTime": 1513008271274, "trialdata": {"rt": -1000, "stimulus": "/static/audio/wordpool/RECEIPT.wav", "key_press": -1, "type": "PRES_AUD", "word": "receipt", "wordID": 1172, "conditions": [18, 1200, "a", 18000], "trial": 0, "serialpos": 7, "trial_type": "single-audio", "trial_index": 28, "time_elapsed": 148294, "internal_node_id": "0.0-19.0"}}, {"uniqueid": "MTK1024:36H9ULYP6312FE1OYOSVH7M574EFJD", "current_trial": 29, "dateTime": 1513008273325, "trialdata": {"rt": -1000, "stimulus": "/static/audio/wordpool/POISON.wav", "key_press": -1, "type": "PRES_AUD", "word": "poison", "wordID": 1095, "conditions": [18, 1200, "a", 18000], "trial": 0, "serialpos": 8, "trial_type": "single-audio", "trial_index": 29, "time_elapsed": 150345, "internal_node_id": "0.0-20.0"}}, {"uniqueid": "MTK1024:36H9ULYP6312FE1OYOSVH7M574EFJD", "current_trial": 30, "dateTime": 1513008275363, "trialdata": {"rt": -1000, "stimulus": "/static/audio/wordpool/PARTNER.wav", "key_press": -1, "type": "PRES_AUD", "word": "partner", "wordID": 1016, "conditions": [18, 1200, "a", 18000], "trial": 0, "serialpos": 9, "trial_type": "single-audio", "trial_index": 30, "time_elapsed": 152383, "internal_node_id": "0.0-21.0"}}, {"uniqueid": "MTK1024:36H9ULYP6312FE1OYOSVH7M574EFJD", "current_trial": 31, "dateTime": 1513008277625, "trialdata": {"rt": -1000, "stimulus": "/static/audio/wordpool/PEPPER.wav", "key_press": -1, "type": "PRES_AUD", "word": "pepper", "wordID": 1046, "conditions": [18, 1200, "a", 18000], "trial": 0, "serialpos": 10, "trial_type": "single-audio", "trial_index": 31, "time_elapsed": 154645, "internal_node_id": "0.0-22.0"}}, {"uniqueid": "MTK1024:36H9ULYP6312FE1OYOSVH7M574EFJD", "current_trial": 32, "dateTime": 1513008279936, "trialdata": {"rt": -1000, "stimulus": "/static/audio/wordpool/CONCERT.wav", "key_press": -1, "type": "PRES_AUD", "word": "concert", "wordID": 359, "conditions": [18, 1200, "a", 18000], "trial": 0, "serialpos": 11, "trial_type": "single-audio", "trial_index": 32, "time_elapsed": 156955, "internal_node_id": "0.0-23.0"}}, {"uniqueid": "MTK1024:36H9ULYP6312FE1OYOSVH7M574EFJD", "current_trial": 33, "dateTime": 1513008282136, "trialdata": {"rt": -1000, "stimulus": "/static/audio/wordpool/DRESS.wav", "key_press": -1, "type": "PRES_AUD", "word": "dress", "wordID": 494, "conditions": [18, 1200, "a", 18000], "trial": 0, "serialpos": 12, "trial_type": "single-audio", "trial_index": 33, "time_elapsed": 159156, "internal_node_id": "0.0-24.0"}}, {"uniqueid": "MTK1024:36H9ULYP6312FE1OYOSVH7M574EFJD", "current_trial": 34, "dateTime": 1513008284167, "trialdata": {"rt": -1000, "stimulus": "/static/audio/wordpool/COSTUME.wav", "key_press": -1, "type": "PRES_AUD", "word": "costume", "wordID": 382, "conditions": [18, 1200, "a", 18000], "trial": 0, "serialpos": 13, "trial_type": "single-audio", "trial_index": 34, "time_elapsed": 161187, "internal_node_id": "0.0-25.0"}}, {"uniqueid": "MTK1024:36H9ULYP6312FE1OYOSVH7M574EFJD", "current_trial": 35, "dateTime": 1513008286382, "trialdata": {"rt": -1000, "stimulus": "/static/audio/wordpool/RAFT.wav", "key_press": -1, "type": "PRES_AUD", "word": "raft", "wordID": 1158, "conditions": [18, 1200, "a", 18000], "trial": 0, "serialpos": 14, "trial_type": "single-audio", "trial_index": 35, "time_elapsed": 163402, "internal_node_id": "0.0-26.0"}}, {"uniqueid": "MTK1024:36H9ULYP6312FE1OYOSVH7M574EFJD", "current_trial": 36, "dateTime": 1513008288467, "trialdata": {"rt": -1000, "stimulus": "/static/audio/wordpool/FIREMAN.wav", "key_press": -1, "type": "PRES_AUD", "word": "fireman", "wordID": 568, "conditions": [18, 1200, "a", 18000], "trial": 0, "serialpos": 15, "trial_type": "single-audio", "trial_index": 36, "time_elapsed": 165487, "internal_node_id": "0.0-27.0"}}, {"uniqueid": "MTK1024:36H9ULYP6312FE1OYOSVH7M574EFJD", "current_trial": 37, "dateTime": 1513008290498, "trialdata": {"rt": -1000, "stimulus": "/static/audio/wordpool/POPCORN.wav", "key_press": -1, "type": "PRES_AUD", "word": "popcorn", "wordID": 1103, "conditions": [18, 1200, "a", 18000], "trial": 0, "serialpos": 16, "trial_type": "single-audio", "trial_index": 37, "time_elapsed": 167518, "internal_node_id": "0.0-28.0"}}, {"uniqueid": "MTK1024:36H9ULYP6312FE1OYOSVH7M574EFJD", "current_trial": 38, "dateTime": 1513008292802, "trialdata": {"rt": -1000, "stimulus": "/static/audio/wordpool/FLIPPER.wav", "key_press": -1, "type": "PRES_AUD", "word": "flipper", "wordID": 579, "conditions": [18, 1200, "a", 18000], "trial": 0, "serialpos": 17, "trial_type": "single-audio", "trial_index": 38, "time_elapsed": 169822, "internal_node_id": "0.0-29.0"}}, {"uniqueid": "MTK1024:36H9ULYP6312FE1OYOSVH7M574EFJD", "current_trial": 39, "dateTime": 1513008294075, "trialdata": {"rt": -1, "stimulus": "", "key_press": -1, "type": "PRE_RECALL_DELAY", "trial_type": "single-stim", "trial_index": 39, "time_elapsed": 171095, "internal_node_id": "0.0-30.0-0.0"}}, {"uniqueid": "MTK1024:36H9ULYP6312FE1OYOSVH7M574EFJD", "current_trial": 40, "dateTime": 1513008294577, "trialdata": {"rt": -1000, "stimulus": "/static/audio/400Hz.wav", "key_press": -1, "type": "PRE_RECALL_ALERT", "trial_type": "single-audio", "trial_index": 40, "time_elapsed": 171597, "internal_node_id": "0.0-31.0"}}, {"uniqueid": "MTK1024:36H9ULYP6312FE1OYOSVH7M574EFJD", "current_trial": 41, "dateTime": 1513008354591, "trialdata": {"rt": [7742, 12487, 15155, 17959, 20727, 24771, 27429, 32481], "recwords": ["lighning", "fireman", "flipper", "zebra", "beaver", "raft", "zipper", "fast"], "type": "FREE_RECALL", "conditions": [18, 1200, "a", 18000], "trial": 0, "trial_type": "free-recall", "trial_index": 41, "time_elapsed": 231604, "internal_node_id": "0.0-32.0-0.0"}}, {"uniqueid": "MTK1024:36H9ULYP6312FE1OYOSVH7M574EFJD", "current_trial": 42, "dateTime": 1513008363994, "trialdata": {"rt": 7399, "key_press": 32, "type": "INSTRUCTIONS", "trial_type": "text", "trial_index": 42, "time_elapsed": 241013, "internal_node_id": "0.0-33.0"}}, {"uniqueid": "MTK1024:36H9ULYP6312FE1OYOSVH7M574EFJD", "current_trial": 43, "dateTime": 1513008384004, "trialdata": {"rt": [6872, 9858, 11944, 14719, 16488], "responses": ["12", "20", "19", "7", "12"], "num1": [2, 9, 8, 2, 4, 6], "num2": [2, 3, 4, 3, 6, 9], "num3": [8, 8, 7, 2, 2, 3], "type": "DISTRACTOR", "conditions": [18, 1200, "v", 18000], "trial": 1, "trial_type": "math-distractor", "trial_index": 43, "time_elapsed": 261023, "internal_node_id": "0.0-34.0"}}, {"uniqueid": "MTK1024:36H9ULYP6312FE1OYOSVH7M574EFJD", "current_trial": 44, "dateTime": 1513008387009, "trialdata": {"rt": -1, "stimulus": "<p id=\"stim\">10</p>", "key_press": -1, "trial_type": "single-stim", "trial_index": 44, "time_elapsed": 264029, "internal_node_id": "0.0-35.0-0.0"}}, {"uniqueid": "MTK1024:36H9ULYP6312FE1OYOSVH7M574EFJD", "current_trial": 45, "dateTime": 1513008388013, "trialdata": {"rt": -1, "stimulus": "<p id=\"stim\">9</p>", "key_press": -1, "trial_type": "single-stim", "trial_index": 45, "time_elapsed": 265033, "internal_node_id": "0.0-35.0-1.0"}}, {"uniqueid": "MTK1024:36H9ULYP6312FE1OYOSVH7M574EFJD", "current_trial": 46, "dateTime": 1513008389020, "trialdata": {"rt": -1, "stimulus": "<p id=\"stim\">8</p>", "key_press": -1, "trial_type": "single-stim", "trial_index": 46, "time_elapsed": 266040, "internal_node_id": "0.0-35.0-2.0"}}, {"uniqueid": "MTK1024:36H9ULYP6312FE1OYOSVH7M574EFJD", "current_trial": 47, "dateTime": 1513008390026, "trialdata": {"rt": -1, "stimulus": "<p id=\"stim\">7</p>", "key_press": -1, "trial_type": "single-stim", "trial_index": 47, "time_elapsed": 267046, "internal_node_id": "0.0-35.0-3.0"}}, {"uniqueid": "MTK1024:36H9ULYP6312FE1OYOSVH7M574EFJD", "current_trial": 48, "dateTime": 1513008391037, "trialdata": {"rt": -1, "stimulus": "<p id=\"stim\">6</p>", "key_press": -1, "trial_type": "single-stim", "trial_index": 48, "time_elapsed": 268057, "internal_node_id": "0.0-35.0-4.0"}}, {"uniqueid": "MTK1024:36H9ULYP6312FE1OYOSVH7M574EFJD", "current_trial": 49, "dateTime": 1513008392041, "trialdata": {"rt": -1, "stimulus": "<p id=\"stim\">5</p>", "key_press": -1, "trial_type": "single-stim", "trial_index": 49, "time_elapsed": 269060, "internal_node_id": "0.0-35.0-5.0"}}, {"uniqueid": "MTK1024:36H9ULYP6312FE1OYOSVH7M574EFJD", "current_trial": 50, "dateTime": 1513008393045, "trialdata": {"rt": -1, "stimulus": "<p id=\"stim\">4</p>", "key_press": -1, "trial_type": "single-stim", "trial_index": 50, "time_elapsed": 270064, "internal_node_id": "0.0-35.0-6.0"}}, {"uniqueid": "MTK1024:36H9ULYP6312FE1OYOSVH7M574EFJD", "current_trial": 51, "dateTime": 1513008394052, "trialdata": {"rt": -1, "stimulus": "<p id=\"stim\">3</p>", "key_press": -1, "trial_type": "single-stim", "trial_index": 51, "time_elapsed": 271071, "internal_node_id": "0.0-35.0-7.0"}}, {"uniqueid": "MTK1024:36H9ULYP6312FE1OYOSVH7M574EFJD", "current_trial": 52, "dateTime": 1513008395054, "trialdata": {"rt": -1, "stimulus": "<p id=\"stim\">2</p>", "key_press": -1, "trial_type": "single-stim", "trial_index": 52, "time_elapsed": 272074, "internal_node_id": "0.0-35.0-8.0"}}, {"uniqueid": "MTK1024:36H9ULYP6312FE1OYOSVH7M574EFJD", "current_trial": 53, "dateTime": 1513008396059, "trialdata": {"rt": -1, "stimulus": "<p id=\"stim\">1</p>", "key_press": -1, "trial_type": "single-stim", "trial_index": 53, "time_elapsed": 273079, "internal_node_id": "0.0-35.0-9.0"}}, {"uniqueid": "MTK1024:36H9ULYP6312FE1OYOSVH7M574EFJD", "current_trial": 54, "dateTime": 1513008397560, "trialdata": {"rt": -1, "stimulus": "<p id=\"stim\">+</p>", "key_press": -1, "type": "FIXATION", "trial_type": "single-stim", "trial_index": 54, "time_elapsed": 274580, "internal_node_id": "0.0-36.0-0.0"}}, {"uniqueid": "MTK1024:36H9ULYP6312FE1OYOSVH7M574EFJD", "current_trial": 55, "dateTime": 1513008398805, "trialdata": {"rt": -1, "stimulus": "<p id=\"stim\">RATTLE</p>", "key_press": -1, "type": "PRES_VIS", "word": "rattle", "wordID": 1169, "conditions": [18, 1200, "v", 18000], "trial": 1, "serialpos": 0, "trial_type": "single-stim", "trial_index": 55, "time_elapsed": 275825, "internal_node_id": "0.0-37.0"}}, {"uniqueid": "MTK1024:36H9ULYP6312FE1OYOSVH7M574EFJD", "current_trial": 56, "dateTime": 1513008400845, "trialdata": {"rt": -1, "stimulus": "<p id=\"stim\">PECAN</p>", "key_press": -1, "type": "PRES_VIS", "word": "pecan", "wordID": 1035, "conditions": [18, 1200, "v", 18000], "trial": 1, "serialpos": 1, "trial_type": "single-stim", "trial_index": 56, "time_elapsed": 277865, "internal_node_id": "0.0-38.0"}}, {"uniqueid": "MTK1024:36H9ULYP6312FE1OYOSVH7M574EFJD", "current_trial": 57, "dateTime": 1513008402928, "trialdata": {"rt": -1, "stimulus": "<p id=\"stim\">SMOG</p>", "key_press": -1, "type": "PRES_VIS", "word": "smog", "wordID": 1329, "conditions": [18, 1200, "v", 18000], "trial": 1, "serialpos": 2, "trial_type": "single-stim", "trial_index": 57, "time_elapsed": 279948, "internal_node_id": "0.0-39.0"}}, {"uniqueid": "MTK1024:36H9ULYP6312FE1OYOSVH7M574EFJD", "current_trial": 58, "dateTime": 1513008405307, "trialdata": {"rt": -1, "stimulus": "<p id=\"stim\">ROBOT</p>", "key_press": -1, "type": "PRES_VIS", "word": "robot", "wordID": 1199, "conditions": [18, 1200, "v", 18000], "trial": 1, "serialpos": 3, "trial_type": "single-stim", "trial_index": 58, "time_elapsed": 282326, "internal_node_id": "0.0-40.0"}}, {"uniqueid": "MTK1024:36H9ULYP6312FE1OYOSVH7M574EFJD", "current_trial": 59, "dateTime": 1513008407389, "trialdata": {"rt": -1, "stimulus": "<p id=\"stim\">WRIST</p>", "key_press": -1, "type": "PRES_VIS", "word": "wrist", "wordID": 1625, "conditions": [18, 1200, "v", 18000], "trial": 1, "serialpos": 4, "trial_type": "single-stim", "trial_index": 59, "time_elapsed": 284409, "internal_node_id": "0.0-41.0"}}, {"uniqueid": "MTK1024:36H9ULYP6312FE1OYOSVH7M574EFJD", "current_trial": 60, "dateTime": 1513008409586, "trialdata": {"rt": -1, "stimulus": "<p id=\"stim\">HATCHET</p>", "key_press": -1, "type": "PRES_VIS", "word": "hatchet", "wordID": 690, "conditions": [18, 1200, "v", 18000], "trial": 1, "serialpos": 5, "trial_type": "single-stim", "trial_index": 60, "time_elapsed": 286595, "internal_node_id": "0.0-42.0"}}, {"uniqueid": "MTK1024:36H9ULYP6312FE1OYOSVH7M574EFJD", "current_trial": 61, "dateTime": 1513008411733, "trialdata": {"rt": -1, "stimulus": "<p id=\"stim\">BANJO</p>", "key_press": -1, "type": "PRES_VIS", "word": "banjo", "wordID": 81, "conditions": [18, 1200, "v", 18000], "trial": 1, "serialpos": 6, "trial_type": "single-stim", "trial_index": 61, "time_elapsed": 288752, "internal_node_id": "0.0-43.0"}}, {"uniqueid": "MTK1024:36H9ULYP6312FE1OYOSVH7M574EFJD", "current_trial": 62, "dateTime": 1513008413889, "trialdata": {"rt": -1, "stimulus": "<p id=\"stim\">FLASK</p>", "key_press": -1, "type": "PRES_VIS", "word": "flask", "wordID": 575, "conditions": [18, 1200, "v", 18000], "trial": 1, "serialpos": 7, "trial_type": "single-stim", "trial_index": 62, "time_elapsed": 290909, "internal_node_id": "0.0-44.0"}}, {"uniqueid": "MTK1024:36H9ULYP6312FE1OYOSVH7M574EFJD", "current_trial": 63, "dateTime": 1513008416164, "trialdata": {"rt": -1, "stimulus": "<p id=\"stim\">MARROW</p>", "key_press": -1, "type": "PRES_VIS", "word": "marrow", "wordID": 871, "conditions": [18, 1200, "v", 18000], "trial": 1, "serialpos": 8, "trial_type": "single-stim", "trial_index": 63, "time_elapsed": 293179, "internal_node_id": "0.0-45.0"}}, {"uniqueid": "MTK1024:36H9ULYP6312FE1OYOSVH7M574EFJD", "current_trial": 64, "dateTime": 1513008418481, "trialdata": {"rt": -1, "stimulus": "<p id=\"stim\">UMPIRE</p>", "key_press": -1, "type": "PRES_VIS", "word": "umpire", "wordID": 1534, "conditions": [18, 1200, "v", 18000], "trial": 1, "serialpos": 9, "trial_type": "single-stim", "trial_index": 64, "time_elapsed": 295500, "internal_node_id": "0.0-46.0"}}, {"uniqueid": "MTK1024:36H9ULYP6312FE1OYOSVH7M574EFJD", "current_trial": 65, "dateTime": 1513008420657, "trialdata": {"rt": -1, "stimulus": "<p id=\"stim\">LEADER</p>", "key_press": -1, "type": "PRES_VIS", "word": "leader", "wordID": 806, "conditions": [18, 1200, "v", 18000], "trial": 1, "serialpos": 10, "trial_type": "single-stim", "trial_index": 65, "time_elapsed": 297676, "internal_node_id": "0.0-47.0"}}, {"uniqueid": "MTK1024:36H9ULYP6312FE1OYOSVH7M574EFJD", "current_trial": 66, "dateTime": 1513008422718, "trialdata": {"rt": -1, "stimulus": "<p id=\"stim\">INMATE</p>", "key_press": -1, "type": "PRES_VIS", "word": "inmate", "wordID": 737, "conditions": [18, 1200, "v", 18000], "trial": 1, "serialpos": 11, "trial_type": "single-stim", "trial_index": 66, "time_elapsed": 299738, "internal_node_id": "0.0-48.0"}}, {"uniqueid": "MTK1024:36H9ULYP6312FE1OYOSVH7M574EFJD", "current_trial": 67, "dateTime": 1513008424789, "trialdata": {"rt": -1, "stimulus": "<p id=\"stim\">PLAZA</p>", "key_press": -1, "type": "PRES_VIS", "word": "plaza", "wordID": 1087, "conditions": [18, 1200, "v", 18000], "trial": 1, "serialpos": 12, "trial_type": "single-stim", "trial_index": 67, "time_elapsed": 301809, "internal_node_id": "0.0-49.0"}}, {"uniqueid": "MTK1024:36H9ULYP6312FE1OYOSVH7M574EFJD", "current_trial": 68, "dateTime": 1513008427141, "trialdata": {"rt": -1, "stimulus": "<p id=\"stim\">SERVER</p>", "key_press": -1, "type": "PRES_VIS", "word": "server", "wordID": 1271, "conditions": [18, 1200, "v", 18000], "trial": 1, "serialpos": 13, "trial_type": "single-stim", "trial_index": 68, "time_elapsed": 304151, "internal_node_id": "0.0-50.0"}}, {"uniqueid": "MTK1024:36H9ULYP6312FE1OYOSVH7M574EFJD", "current_trial": 69, "dateTime": 1513008429211, "trialdata": {"rt": -1, "stimulus": "<p id=\"stim\">BLUEPRINT</p>", "key_press": -1, "type": "PRES_VIS", "word": "blueprint", "wordID": 141, "conditions": [18, 1200, "v", 18000], "trial": 1, "serialpos": 14, "trial_type": "single-stim", "trial_index": 69, "time_elapsed": 306230, "internal_node_id": "0.0-51.0"}}, {"uniqueid": "MTK1024:36H9ULYP6312FE1OYOSVH7M574EFJD", "current_trial": 70, "dateTime": 1513008431513, "trialdata": {"rt": -1, "stimulus": "<p id=\"stim\">HONEY</p>", "key_press": -1, "type": "PRES_VIS", "word": "honey", "wordID": 712, "conditions": [18, 1200, "v", 18000], "trial": 1, "serialpos": 15, "trial_type": "single-stim", "trial_index": 70, "time_elapsed": 308532, "internal_node_id": "0.0-52.0"}}, {"uniqueid": "MTK1024:36H9ULYP6312FE1OYOSVH7M574EFJD", "current_trial": 71, "dateTime": 1513008433614, "trialdata": {"rt": -1, "stimulus": "<p id=\"stim\">KITCHEN</p>", "key_press": -1, "type": "PRES_VIS", "word": "kitchen", "wordID": 777, "conditions": [18, 1200, "v", 18000], "trial": 1, "serialpos": 16, "trial_type": "single-stim", "trial_index": 71, "time_elapsed": 310634, "internal_node_id": "0.0-53.0"}}, {"uniqueid": "MTK1024:36H9ULYP6312FE1OYOSVH7M574EFJD", "current_trial": 72, "dateTime": 1513008435686, "trialdata": {"rt": -1, "stimulus": "<p id=\"stim\">MARKER</p>", "key_press": -1, "type": "PRES_VIS", "word": "marker", "wordID": 869, "conditions": [18, 1200, "v", 18000], "trial": 1, "serialpos": 17, "trial_type": "single-stim", "trial_index": 72, "time_elapsed": 312706, "internal_node_id": "0.0-54.0"}}, {"uniqueid": "MTK1024:36H9ULYP6312FE1OYOSVH7M574EFJD", "current_trial": 73, "dateTime": 1513008438152, "trialdata": {"rt": -1, "stimulus": "", "key_press": -1, "type": "PRE_RECALL_DELAY", "trial_type": "single-stim", "trial_index": 73, "time_elapsed": 315172, "internal_node_id": "0.0-55.0-0.0"}}, {"uniqueid": "MTK1024:36H9ULYP6312FE1OYOSVH7M574EFJD", "current_trial": 74, "dateTime": 1513008438655, "trialdata": {"rt": -1000, "stimulus": "/static/audio/400Hz.wav", "key_press": -1, "type": "PRE_RECALL_ALERT", "trial_type": "single-audio", "trial_index": 74, "time_elapsed": 315675, "internal_node_id": "0.0-56.0"}}, {"uniqueid": "MTK1024:36H9ULYP6312FE1OYOSVH7M574EFJD", "current_trial": 75, "dateTime": 1513008498668, "trialdata": {"rt": [3544, 8029, 10119, 13891, 17140, 25253], "recwords": ["marker", "blueprint", "list", "pepper", "zipper", ""], "type": "FREE_RECALL", "conditions": [18, 1200, "v", 18000], "trial": 1, "trial_type": "free-recall", "trial_index": 75, "time_elapsed": 375684, "internal_node_id": "0.0-57.0-0.0"}}, {"uniqueid": "MTK1024:36H9ULYP6312FE1OYOSVH7M574EFJD", "current_trial": 76, "dateTime": 1513010536447, "trialdata": {"rt": 2035753, "key_press": 32, "type": "INSTRUCTIONS", "trial_type": "text", "trial_index": 76, "time_elapsed": 2413450, "internal_node_id": "0.0-58.0"}}, {"uniqueid": "MTK1024:36H9ULYP6312FE1OYOSVH7M574EFJD", "current_trial": 77, "dateTime": 1513010549468, "trialdata": {"rt": [2437, 4826, 6757, 8473, 10212], "responses": ["9", "13", "15", "8", "11"], "num1": [1, 7, 2, 1, 4, 6], "num2": [2, 4, 9, 3, 4, 8], "num3": [6, 2, 4, 4, 3, 9], "type": "DISTRACTOR", "conditions": [24, 1600, "a", 12000], "trial": 2, "trial_type": "math-distractor", "trial_index": 77, "time_elapsed": 2426488, "internal_node_id": "0.0-59.0"}}, {"uniqueid": "MTK1024:36H9ULYP6312FE1OYOSVH7M574EFJD", "current_trial": 78, "dateTime": 1513010552500, "trialdata": {"rt": -1, "stimulus": "<p id=\"stim\">10</p>", "key_press": -1, "trial_type": "single-stim", "trial_index": 78, "time_elapsed": 2429519, "internal_node_id": "0.0-60.0-0.0"}}, {"uniqueid": "MTK1024:36H9ULYP6312FE1OYOSVH7M574EFJD", "current_trial": 79, "dateTime": 1513010553504, "trialdata": {"rt": -1, "stimulus": "<p id=\"stim\">9</p>", "key_press": -1, "trial_type": "single-stim", "trial_index": 79, "time_elapsed": 2430523, "internal_node_id": "0.0-60.0-1.0"}}, {"uniqueid": "MTK1024:36H9ULYP6312FE1OYOSVH7M574EFJD", "current_trial": 80, "dateTime": 1513010554509, "trialdata": {"rt": -1, "stimulus": "<p id=\"stim\">8</p>", "key_press": -1, "trial_type": "single-stim", "trial_index": 80, "time_elapsed": 2431528, "internal_node_id": "0.0-60.0-2.0"}}, {"uniqueid": "MTK1024:36H9ULYP6312FE1OYOSVH7M574EFJD", "current_trial": 81, "dateTime": 1513010555512, "trialdata": {"rt": -1, "stimulus": "<p id=\"stim\">7</p>", "key_press": -1, "trial_type": "single-stim", "trial_index": 81, "time_elapsed": 2432531, "internal_node_id": "0.0-60.0-3.0"}}, {"uniqueid": "MTK1024:36H9ULYP6312FE1OYOSVH7M574EFJD", "current_trial": 82, "dateTime": 1513010556516, "trialdata": {"rt": -1, "stimulus": "<p id=\"stim\">6</p>", "key_press": -1, "trial_type": "single-stim", "trial_index": 82, "time_elapsed": 2433536, "internal_node_id": "0.0-60.0-4.0"}}, {"uniqueid": "MTK1024:36H9ULYP6312FE1OYOSVH7M574EFJD", "current_trial": 83, "dateTime": 1513010557519, "trialdata": {"rt": -1, "stimulus": "<p id=\"stim\">5</p>", "key_press": -1, "trial_type": "single-stim", "trial_index": 83, "time_elapsed": 2434539, "internal_node_id": "0.0-60.0-5.0"}}, {"uniqueid": "MTK1024:36H9ULYP6312FE1OYOSVH7M574EFJD", "current_trial": 84, "dateTime": 1513010558526, "trialdata": {"rt": -1, "stimulus": "<p id=\"stim\">4</p>", "key_press": -1, "trial_type": "single-stim", "trial_index": 84, "time_elapsed": 2435546, "internal_node_id": "0.0-60.0-6.0"}}, {"uniqueid": "MTK1024:36H9ULYP6312FE1OYOSVH7M574EFJD", "current_trial": 85, "dateTime": 1513010559530, "trialdata": {"rt": -1, "stimulus": "<p id=\"stim\">3</p>", "key_press": -1, "trial_type": "single-stim", "trial_index": 85, "time_elapsed": 2436549, "internal_node_id": "0.0-60.0-7.0"}}, {"uniqueid": "MTK1024:36H9ULYP6312FE1OYOSVH7M574EFJD", "current_trial": 86, "dateTime": 1513010560533, "trialdata": {"rt": -1, "stimulus": "<p id=\"stim\">2</p>", "key_press": -1, "trial_type": "single-stim", "trial_index": 86, "time_elapsed": 2437552, "internal_node_id": "0.0-60.0-8.0"}}, {"uniqueid": "MTK1024:36H9ULYP6312FE1OYOSVH7M574EFJD", "current_trial": 87, "dateTime": 1513010561536, "trialdata": {"rt": -1, "stimulus": "<p id=\"stim\">1</p>", "key_press": -1, "trial_type": "single-stim", "trial_index": 87, "time_elapsed": 2438556, "internal_node_id": "0.0-60.0-9.0"}}, {"uniqueid": "MTK1024:36H9ULYP6312FE1OYOSVH7M574EFJD", "current_trial": 88, "dateTime": 1513010563043, "trialdata": {"rt": -1, "stimulus": "<p id=\"stim\">+</p>", "key_press": -1, "type": "FIXATION", "trial_type": "single-stim", "trial_index": 88, "time_elapsed": 2440062, "internal_node_id": "0.0-61.0-0.0"}}, {"uniqueid": "MTK1024:36H9ULYP6312FE1OYOSVH7M574EFJD", "current_trial": 89, "dateTime": 1513010565753, "trialdata": {"rt": -1000, "stimulus": "/static/audio/wordpool/PATROL.wav", "key_press": -1, "type": "PRES_AUD", "word": "patrol", "wordID": 1026, "conditions": [24, 1600, "a", 12000], "trial": 2, "serialpos": 0, "trial_type": "single-audio", "trial_index": 89, "time_elapsed": 2442773, "internal_node_id": "0.0-62.0"}}, {"uniqueid": "MTK1024:36H9ULYP6312FE1OYOSVH7M574EFJD", "current_trial": 90, "dateTime": 1513010568358, "trialdata": {"rt": 2121.333333333496, "stimulus": "/static/audio/wordpool/HUMAN.wav", "key_press": 175, "type": "PRES_AUD", "word": "human", "wordID": 725, "conditions": [24, 1600, "a", 12000], "trial": 2, "serialpos": 1, "trial_type": "single-audio", "trial_index": 90, "time_elapsed": 2445378, "internal_node_id": "0.0-63.0"}}, {"uniqueid": "MTK1024:36H9ULYP6312FE1OYOSVH7M574EFJD", "current_trial": 91, "dateTime": 1513010570807, "trialdata": {"rt": 169.33333333372502, "stimulus": "/static/audio/wordpool/COOKBOOK.wav", "key_press": 175, "type": "PRES_AUD", "word": "cookbook", "wordID": 372, "conditions": [24, 1600, "a", 12000], "trial": 2, "serialpos": 2, "trial_type": "single-audio", "trial_index": 91, "time_elapsed": 2447827, "internal_node_id": "0.0-64.0"}}, {"uniqueid": "MTK1024:36H9ULYP6312FE1OYOSVH7M574EFJD", "current_trial": 92, "dateTime": 1513010573473, "trialdata": {"rt": -1000, "stimulus": "/static/audio/wordpool/PORTRAIT.wav", "key_press": -1, "type": "PRES_AUD", "word": "portrait", "wordID": 1110, "conditions": [24, 1600, "a", 12000], "trial": 2, "serialpos": 3, "trial_type": "single-audio", "trial_index": 92, "time_elapsed": 2450493, "internal_node_id": "0.0-65.0"}}, {"uniqueid": "MTK1024:36H9ULYP6312FE1OYOSVH7M574EFJD", "current_trial": 93, "dateTime": 1513010576010, "trialdata": {"rt": -1000, "stimulus": "/static/audio/wordpool/NECKLACE.wav", "key_press": -1, "type": "PRES_AUD", "word": "necklace", "wordID": 939, "conditions": [24, 1600, "a", 12000], "trial": 2, "serialpos": 4, "trial_type": "single-audio", "trial_index": 93, "time_elapsed": 2453029, "internal_node_id": "0.0-66.0"}}, {"uniqueid": "MTK1024:36H9ULYP6312FE1OYOSVH7M574EFJD", "current_trial": 94, "dateTime": 1513010578570, "trialdata": {"rt": -1000, "stimulus": "/static/audio/wordpool/SHIRT.wav", "key_press": -1, "type": "PRES_AUD", "word": "shirt", "wordID": 1286, "conditions": [24, 1600, "a", 12000], "trial": 2, "serialpos": 5, "trial_type": "single-audio", "trial_index": 94, "time_elapsed": 2455589, "internal_node_id": "0.0-67.0"}}, {"uniqueid": "MTK1024:36H9ULYP6312FE1OYOSVH7M574EFJD", "current_trial": 95, "dateTime": 1513010581124, "trialdata": {"rt": -1000, "stimulus": "/static/audio/wordpool/GAVEL.wav", "key_press": -1, "type": "PRES_AUD", "word": "gavel", "wordID": 626, "conditions": [24, 1600, "a", 12000], "trial": 2, "serialpos": 6, "trial_type": "single-audio", "trial_index": 95, "time_elapsed": 2458144, "internal_node_id": "0.0-68.0"}}, {"uniqueid": "MTK1024:36H9ULYP6312FE1OYOSVH7M574EFJD", "current_trial": 96, "dateTime": 1513010583766, "trialdata": {"rt": -1000, "stimulus": "/static/audio/wordpool/BADGE.wav", "key_press": -1, "type": "PRES_AUD", "word": "badge", "wordID": 67, "conditions": [24, 1600, "a", 12000], "trial": 2, "serialpos": 7, "trial_type": "single-audio", "trial_index": 96, "time_elapsed": 2460785, "internal_node_id": "0.0-69.0"}}, {"uniqueid": "MTK1024:36H9ULYP6312FE1OYOSVH7M574EFJD", "current_trial": 97, "dateTime": 1513010586354, "trialdata": {"rt": -1000, "stimulus": "/static/audio/wordpool/STICKER.wav", "key_press": -1, "type": "PRES_AUD", "word": "sticker", "wordID": 1381, "conditions": [24, 1600, "a", 12000], "trial": 2, "serialpos": 8, "trial_type": "single-audio", "trial_index": 97, "time_elapsed": 2463374, "internal_node_id": "0.0-70.0"}}, {"uniqueid": "MTK1024:36H9ULYP6312FE1OYOSVH7M574EFJD", "current_trial": 98, "dateTime": 1513010588807, "trialdata": {"rt": -1000, "stimulus": "/static/audio/wordpool/POLICE.wav", "key_press": -1, "type": "PRES_AUD", "word": "police", "wordID": 1097, "conditions": [24, 1600, "a", 12000], "trial": 2, "serialpos": 9, "trial_type": "single-audio", "trial_index": 98, "time_elapsed": 2465827, "internal_node_id": "0.0-71.0"}}, {"uniqueid": "MTK1024:36H9ULYP6312FE1OYOSVH7M574EFJD", "current_trial": 99, "dateTime": 1513010591577, "trialdata": {"rt": -1000, "stimulus": "/static/audio/wordpool/LIVER.wav", "key_press": -1, "type": "PRES_AUD", "word": "liver", "wordID": 832, "conditions": [24, 1600, "a", 12000], "trial": 2, "serialpos": 10, "trial_type": "single-audio", "trial_index": 99, "time_elapsed": 2468596, "internal_node_id": "0.0-72.0"}}, {"uniqueid": "MTK1024:36H9ULYP6312FE1OYOSVH7M574EFJD", "current_trial": 100, "dateTime": 1513010594321, "trialdata": {"rt": -1000, "stimulus": "/static/audio/wordpool/MATTRESS.wav", "key_press": -1, "type": "PRES_AUD", "word": "mattress", "wordID": 878, "conditions": [24, 1600, "a", 12000], "trial": 2, "serialpos": 11, "trial_type": "single-audio", "trial_index": 100, "time_elapsed": 2471341, "internal_node_id": "0.0-73.0"}}, {"uniqueid": "MTK1024:36H9ULYP6312FE1OYOSVH7M574EFJD", "current_trial": 101, "dateTime": 1513010596811, "trialdata": {"rt": -1000, "stimulus": "/static/audio/wordpool/GARLIC.wav", "key_press": -1, "type": "PRES_AUD", "word": "garlic", "wordID": 623, "conditions": [24, 1600, "a", 12000], "trial": 2, "serialpos": 12, "trial_type": "single-audio", "trial_index": 101, "time_elapsed": 2473827, "internal_node_id": "0.0-74.0"}}, {"uniqueid": "MTK1024:36H9ULYP6312FE1OYOSVH7M574EFJD", "current_trial": 102, "dateTime": 1513010599394, "trialdata": {"rt": -1000, "stimulus": "/static/audio/wordpool/RADISH.wav", "key_press": -1, "type": "PRES_AUD", "word": "radish", "wordID": 1157, "conditions": [24, 1600, "a", 12000], "trial": 2, "serialpos": 13, "trial_type": "single-audio", "trial_index": 102, "time_elapsed": 2476414, "internal_node_id": "0.0-75.0"}}, {"uniqueid": "MTK1024:36H9ULYP6312FE1OYOSVH7M574EFJD", "current_trial": 103, "dateTime": 1513010601982, "trialdata": {"rt": -1000, "stimulus": "/static/audio/wordpool/AUTHOR.wav", "key_press": -1, "type": "PRES_AUD", "word": "author", "wordID": 60, "conditions": [24, 1600, "a", 12000], "trial": 2, "serialpos": 14, "trial_type": "single-audio", "trial_index": 103, "time_elapsed": 2479002, "internal_node_id": "0.0-76.0"}}, {"uniqueid": "MTK1024:36H9ULYP6312FE1OYOSVH7M574EFJD", "current_trial": 104, "dateTime": 1513010604600, "trialdata": {"rt": -1000, "stimulus": "/static/audio/wordpool/CREATURE.wav", "key_press": -1, "type": "PRES_AUD", "word": "creature", "wordID": 402, "conditions": [24, 1600, "a", 12000], "trial": 2, "serialpos": 15, "trial_type": "single-audio", "trial_index": 104, "time_elapsed": 2481620, "internal_node_id": "0.0-77.0"}}, {"uniqueid": "MTK1024:36H9ULYP6312FE1OYOSVH7M574EFJD", "current_trial": 105, "dateTime": 1513010607081, "trialdata": {"rt": -1000, "stimulus": "/static/audio/wordpool/CATCHER.wav", "key_press": -1, "type": "PRES_AUD", "word": "catcher", "wordID": 257, "conditions": [24, 1600, "a", 12000], "trial": 2, "serialpos": 16, "trial_type": "single-audio", "trial_index": 105, "time_elapsed": 2484101, "internal_node_id": "0.0-78.0"}}, {"uniqueid": "MTK1024:36H9ULYP6312FE1OYOSVH7M574EFJD", "current_trial": 106, "dateTime": 1513010609717, "trialdata": {"rt": -1000, "stimulus": "/static/audio/wordpool/FLAG.wav", "key_press": -1, "type": "PRES_AUD", "word": "flag", "wordID": 572, "conditions": [24, 1600, "a", 12000], "trial": 2, "serialpos": 17, "trial_type": "single-audio", "trial_index": 106, "time_elapsed": 2486737, "internal_node_id": "0.0-79.0"}}, {"uniqueid": "MTK1024:36H9ULYP6312FE1OYOSVH7M574EFJD", "current_trial": 107, "dateTime": 1513010612324, "trialdata": {"rt": -1000, "stimulus": "/static/audio/wordpool/SANDWICH.wav", "key_press": -1, "type": "PRES_AUD", "word": "sandwich", "wordID": 1231, "conditions": [24, 1600, "a", 12000], "trial": 2, "serialpos": 18, "trial_type": "single-audio", "trial_index": 107, "time_elapsed": 2489344, "internal_node_id": "0.0-80.0"}}, {"uniqueid": "MTK1024:36H9ULYP6312FE1OYOSVH7M574EFJD", "current_trial": 108, "dateTime": 1513010614784, "trialdata": {"rt": -1000, "stimulus": "/static/audio/wordpool/PERCH.wav", "key_press": -1, "type": "PRES_AUD", "word": "perch", "wordID": 1047, "conditions": [24, 1600, "a", 12000], "trial": 2, "serialpos": 19, "trial_type": "single-audio", "trial_index": 108, "time_elapsed": 2491804, "internal_node_id": "0.0-81.0"}}, {"uniqueid": "MTK1024:36H9ULYP6312FE1OYOSVH7M574EFJD", "current_trial": 109, "dateTime": 1513010617266, "trialdata": {"rt": -1000, "stimulus": "/static/audio/wordpool/ROOSTER.wav", "key_press": -1, "type": "PRES_AUD", "word": "rooster", "wordID": 1208, "conditions": [24, 1600, "a", 12000], "trial": 2, "serialpos": 20, "trial_type": "single-audio", "trial_index": 109, "time_elapsed": 2494286, "internal_node_id": "0.0-82.0"}}, {"uniqueid": "MTK1024:36H9ULYP6312FE1OYOSVH7M574EFJD", "current_trial": 110, "dateTime": 1513010619698, "trialdata": {"rt": -1000, "stimulus": "/static/audio/wordpool/BELLY.wav", "key_press": -1, "type": "PRES_AUD", "word": "belly", "wordID": 118, "conditions": [24, 1600, "a", 12000], "trial": 2, "serialpos": 21, "trial_type": "single-audio", "trial_index": 110, "time_elapsed": 2496718, "internal_node_id": "0.0-83.0"}}, {"uniqueid": "MTK1024:36H9ULYP6312FE1OYOSVH7M574EFJD", "current_trial": 111, "dateTime": 1513010622217, "trialdata": {"rt": -1000, "stimulus": "/static/audio/wordpool/BOUQUET.wav", "key_press": -1, "type": "PRES_AUD", "word": "bouquet", "wordID": 156, "conditions": [24, 1600, "a", 12000], "trial": 2, "serialpos": 22, "trial_type": "single-audio", "trial_index": 111, "time_elapsed": 2499237, "internal_node_id": "0.0-84.0"}}, {"uniqueid": "MTK1024:36H9ULYP6312FE1OYOSVH7M574EFJD", "current_trial": 112, "dateTime": 1513010625005, "trialdata": {"rt": -1000, "stimulus": "/static/audio/wordpool/MUFFIN.wav", "key_press": -1, "type": "PRES_AUD", "word": "muffin", "wordID": 928, "conditions": [24, 1600, "a", 12000], "trial": 2, "serialpos": 23, "trial_type": "single-audio", "trial_index": 112, "time_elapsed": 2502025, "internal_node_id": "0.0-85.0"}}, {"uniqueid": "MTK1024:36H9ULYP6312FE1OYOSVH7M574EFJD", "current_trial": 113, "dateTime": 1513010626292, "trialdata": {"rt": -1, "stimulus": "", "key_press": -1, "type": "PRE_RECALL_DELAY", "trial_type": "single-stim", "trial_index": 113, "time_elapsed": 2503312, "internal_node_id": "0.0-86.0-0.0"}}, {"uniqueid": "MTK1024:36H9ULYP6312FE1OYOSVH7M574EFJD", "current_trial": 114, "dateTime": 1513010626794, "trialdata": {"rt": -1000, "stimulus": "/static/audio/400Hz.wav", "key_press": -1, "type": "PRE_RECALL_ALERT", "trial_type": "single-audio", "trial_index": 114, "time_elapsed": 2503814, "internal_node_id": "0.0-87.0"}}, {"uniqueid": "MTK1024:36H9ULYP6312FE1OYOSVH7M574EFJD", "current_trial": 115, "dateTime": 1513010686814, "trialdata": {"rt": [4888, 6857, 8837, 11175, 13014, 17336, 21182, 25528], "recwords": ["boquet", "muffin", "rooster", "badge", "perch", "police", "trim", "refridgerator"], "type": "FREE_RECALL", "conditions": [24, 1600, "a", 12000], "trial": 2, "trial_type": "free-recall", "trial_index": 115, "time_elapsed": 2563822, "internal_node_id": "0.0-88.0-0.0"}}, {"uniqueid": "MTK1024:36H9ULYP6312FE1OYOSVH7M574EFJD", "current_trial": 116, "dateTime": 1513010690986, "trialdata": {"rt": 2155, "key_press": 32, "type": "INSTRUCTIONS", "trial_type": "text", "trial_index": 116, "time_elapsed": 2568005, "internal_node_id": "0.0-89.0"}}, {"uniqueid": "MTK1024:36H9ULYP6312FE1OYOSVH7M574EFJD", "current_trial": 117, "dateTime": 1513010716994, "trialdata": {"rt": [4685, 6890, 8960, 10916, 12935, 15943, 18158, 19621, 21763, 23637], "responses": ["26", "9", "14", "11", "16", "16", "12", "12", "15", "9"], "num1": [9, 5, 8, 8, 5, 1, 3, 2, 8, 2, 6], "num2": [8, 1, 3, 1, 6, 6, 8, 5, 5, 3, 5], "num3": [8, 3, 3, 2, 5, 9, 1, 5, 2, 4, 8], "type": "DISTRACTOR", "conditions": [12, 800, "a", 24000], "trial": 3, "trial_type": "math-distractor", "trial_index": 117, "time_elapsed": 2594014, "internal_node_id": "0.0-90.0"}}, {"uniqueid": "MTK1024:36H9ULYP6312FE1OYOSVH7M574EFJD", "current_trial": 118, "dateTime": 1513010720001, "trialdata": {"rt": -1, "stimulus": "<p id=\"stim\">10</p>", "key_press": -1, "trial_type": "single-stim", "trial_index": 118, "time_elapsed": 2597021, "internal_node_id": "0.0-91.0-0.0"}}, {"uniqueid": "MTK1024:36H9ULYP6312FE1OYOSVH7M574EFJD", "current_trial": 119, "dateTime": 1513010721003, "trialdata": {"rt": -1, "stimulus": "<p id=\"stim\">9</p>", "key_press": -1, "trial_type": "single-stim", "trial_index": 119, "time_elapsed": 2598023, "internal_node_id": "0.0-91.0-1.0"}}, {"uniqueid": "MTK1024:36H9ULYP6312FE1OYOSVH7M574EFJD", "current_trial": 120, "dateTime": 1513010722011, "trialdata": {"rt": -1, "stimulus": "<p id=\"stim\">8</p>", "key_press": -1, "trial_type": "single-stim", "trial_index": 120, "time_elapsed": 2599030, "internal_node_id": "0.0-91.0-2.0"}}, {"uniqueid": "MTK1024:36H9ULYP6312FE1OYOSVH7M574EFJD", "current_trial": 121, "dateTime": 1513010723019, "trialdata": {"rt": -1, "stimulus": "<p id=\"stim\">7</p>", "key_press": -1, "trial_type": "single-stim", "trial_index": 121, "time_elapsed": 2600039, "internal_node_id": "0.0-91.0-3.0"}}, {"uniqueid": "MTK1024:36H9ULYP6312FE1OYOSVH7M574EFJD", "current_trial": 122, "dateTime": 1513010724023, "trialdata": {"rt": -1, "stimulus": "<p id=\"stim\">6</p>", "key_press": -1, "trial_type": "single-stim", "trial_index": 122, "time_elapsed": 2601043, "internal_node_id": "0.0-91.0-4.0"}}, {"uniqueid": "MTK1024:36H9ULYP6312FE1OYOSVH7M574EFJD", "current_trial": 123, "dateTime": 1513010725027, "trialdata": {"rt": -1, "stimulus": "<p id=\"stim\">5</p>", "key_press": -1, "trial_type": "single-stim", "trial_index": 123, "time_elapsed": 2602047, "internal_node_id": "0.0-91.0-5.0"}}, {"uniqueid": "MTK1024:36H9ULYP6312FE1OYOSVH7M574EFJD", "current_trial": 124, "dateTime": 1513010726037, "trialdata": {"rt": -1, "stimulus": "<p id=\"stim\">4</p>", "key_press": -1, "trial_type": "single-stim", "trial_index": 124, "time_elapsed": 2603057, "internal_node_id": "0.0-91.0-6.0"}}, {"uniqueid": "MTK1024:36H9ULYP6312FE1OYOSVH7M574EFJD", "current_trial": 125, "dateTime": 1513010727041, "trialdata": {"rt": -1, "stimulus": "<p id=\"stim\">3</p>", "key_press": -1, "trial_type": "single-stim", "trial_index": 125, "time_elapsed": 2604061, "internal_node_id": "0.0-91.0-7.0"}}, {"uniqueid": "MTK1024:36H9ULYP6312FE1OYOSVH7M574EFJD", "current_trial": 126, "dateTime": 1513010728044, "trialdata": {"rt": -1, "stimulus": "<p id=\"stim\">2</p>", "key_press": -1, "trial_type": "single-stim", "trial_index": 126, "time_elapsed": 2605063, "internal_node_id": "0.0-91.0-8.0"}}, {"uniqueid": "MTK1024:36H9ULYP6312FE1OYOSVH7M574EFJD", "current_trial": 127, "dateTime": 1513010729050, "trialdata": {"rt": -1, "stimulus": "<p id=\"stim\">1</p>", "key_press": -1, "trial_type": "single-stim", "trial_index": 127, "time_elapsed": 2606070, "internal_node_id": "0.0-91.0-9.0"}}, {"uniqueid": "MTK1024:36H9ULYP6312FE1OYOSVH7M574EFJD", "current_trial": 128, "dateTime": 1513010730562, "trialdata": {"rt": -1, "stimulus": "<p id=\"stim\">+</p>", "key_press": -1, "type": "FIXATION", "trial_type": "single-stim", "trial_index": 128, "time_elapsed": 2607582, "internal_node_id": "0.0-92.0-0.0"}}, {"uniqueid": "MTK1024:36H9ULYP6312FE1OYOSVH7M574EFJD", "current_trial": 129, "dateTime": 1513010732473, "trialdata": {"rt": -1000, "stimulus": "/static/audio/wordpool/GLOBE.wav", "key_press": -1, "type": "PRES_AUD", "word": "globe", "wordID": 640, "conditions": [12, 800, "a", 24000], "trial": 3, "serialpos": 0, "trial_type": "single-audio", "trial_index": 129, "time_elapsed": 2609493, "internal_node_id": "0.0-93.0"}}, {"uniqueid": "MTK1024:36H9ULYP6312FE1OYOSVH7M574EFJD", "current_trial": 130, "dateTime": 1513010734189, "trialdata": {"rt": -1000, "stimulus": "/static/audio/wordpool/STONE.wav", "key_press": -1, "type": "PRES_AUD", "word": "stone", "wordID": 1384, "conditions": [12, 800, "a", 24000], "trial": 3, "serialpos": 1, "trial_type": "single-audio", "trial_index": 130, "time_elapsed": 2611209, "internal_node_id": "0.0-94.0"}}, {"uniqueid": "MTK1024:36H9ULYP6312FE1OYOSVH7M574EFJD", "current_trial": 131, "dateTime": 1513010736003, "trialdata": {"rt": -1000, "stimulus": "/static/audio/wordpool/SCALLOP.wav", "key_press": -1, "type": "PRES_AUD", "word": "scallop", "wordID": 1241, "conditions": [12, 800, "a", 24000], "trial": 3, "serialpos": 2, "trial_type": "single-audio", "trial_index": 131, "time_elapsed": 2613023, "internal_node_id": "0.0-95.0"}}, {"uniqueid": "MTK1024:36H9ULYP6312FE1OYOSVH7M574EFJD", "current_trial": 132, "dateTime": 1513010737983, "trialdata": {"rt": -1000, "stimulus": "/static/audio/wordpool/TOMBSTONE.wav", "key_press": -1, "type": "PRES_AUD", "word": "tombstone", "wordID": 1477, "conditions": [12, 800, "a", 24000], "trial": 3, "serialpos": 3, "trial_type": "single-audio", "trial_index": 132, "time_elapsed": 2615003, "internal_node_id": "0.0-96.0"}}, {"uniqueid": "MTK1024:36H9ULYP6312FE1OYOSVH7M574EFJD", "current_trial": 133, "dateTime": 1513010739867, "trialdata": {"rt": -1000, "stimulus": "/static/audio/wordpool/PADDLE.wav", "key_press": -1, "type": "PRES_AUD", "word": "paddle", "wordID": 999, "conditions": [12, 800, "a", 24000], "trial": 3, "serialpos": 4, "trial_type": "single-audio", "trial_index": 133, "time_elapsed": 2616887, "internal_node_id": "0.0-97.0"}}, {"uniqueid": "MTK1024:36H9ULYP6312FE1OYOSVH7M574EFJD", "current_trial": 134, "dateTime": 1513010741770, "trialdata": {"rt": -1000, "stimulus": "/static/audio/wordpool/MARINE.wav", "key_press": -1, "type": "PRES_AUD", "word": "marine", "wordID": 868, "conditions": [12, 800, "a", 24000], "trial": 3, "serialpos": 5, "trial_type": "single-audio", "trial_index": 134, "time_elapsed": 2618790, "internal_node_id": "0.0-98.0"}}, {"uniqueid": "MTK1024:36H9ULYP6312FE1OYOSVH7M574EFJD", "current_trial": 135, "dateTime": 1513010743385, "trialdata": {"rt": -1000, "stimulus": "/static/audio/wordpool/LUMBER.wav", "key_press": -1, "type": "PRES_AUD", "word": "lumber", "wordID": 847, "conditions": [12, 800, "a", 24000], "trial": 3, "serialpos": 6, "trial_type": "single-audio", "trial_index": 135, "time_elapsed": 2620405, "internal_node_id": "0.0-99.0"}}, {"uniqueid": "MTK1024:36H9ULYP6312FE1OYOSVH7M574EFJD", "current_trial": 136, "dateTime": 1513010745285, "trialdata": {"rt": -1000, "stimulus": "/static/audio/wordpool/WORLD.wav", "key_press": -1, "type": "PRES_AUD", "word": "world", "wordID": 1621, "conditions": [12, 800, "a", 24000], "trial": 3, "serialpos": 7, "trial_type": "single-audio", "trial_index": 136, "time_elapsed": 2622304, "internal_node_id": "0.0-100.0"}}, {"uniqueid": "MTK1024:36H9ULYP6312FE1OYOSVH7M574EFJD", "current_trial": 137, "dateTime": 1513010746915, "trialdata": {"rt": -1000, "stimulus": "/static/audio/wordpool/DASHBOARD.wav", "key_press": -1, "type": "PRES_AUD", "word": "dashboard", "wordID": 440, "conditions": [12, 800, "a", 24000], "trial": 3, "serialpos": 8, "trial_type": "single-audio", "trial_index": 137, "time_elapsed": 2623935, "internal_node_id": "0.0-101.0"}}, {"uniqueid": "MTK1024:36H9ULYP6312FE1OYOSVH7M574EFJD", "current_trial": 138, "dateTime": 1513010748702, "trialdata": {"rt": -1000, "stimulus": "/static/audio/wordpool/SUPPER.wav", "key_press": -1, "type": "PRES_AUD", "word": "supper", "wordID": 1410, "conditions": [12, 800, "a", 24000], "trial": 3, "serialpos": 9, "trial_type": "single-audio", "trial_index": 138, "time_elapsed": 2625722, "internal_node_id": "0.0-102.0"}}, {"uniqueid": "MTK1024:36H9ULYP6312FE1OYOSVH7M574EFJD", "current_trial": 139, "dateTime": 1513010750636, "trialdata": {"rt": -1000, "stimulus": "/static/audio/wordpool/ONION.wav", "key_press": -1, "type": "PRES_AUD", "word": "onion", "wordID": 976, "conditions": [12, 800, "a", 24000], "trial": 3, "serialpos": 10, "trial_type": "single-audio", "trial_index": 139, "time_elapsed": 2627656, "internal_node_id": "0.0-103.0"}}, {"uniqueid": "MTK1024:36H9ULYP6312FE1OYOSVH7M574EFJD", "current_trial": 140, "dateTime": 1513010752561, "trialdata": {"rt": -1000, "stimulus": "/static/audio/wordpool/CABBAGE.wav", "key_press": -1, "type": "PRES_AUD", "word": "cabbage", "wordID": 209, "conditions": [12, 800, "a", 24000], "trial": 3, "serialpos": 11, "trial_type": "single-audio", "trial_index": 140, "time_elapsed": 2629581, "internal_node_id": "0.0-104.0"}}, {"uniqueid": "MTK1024:36H9ULYP6312FE1OYOSVH7M574EFJD", "current_trial": 141, "dateTime": 1513010753852, "trialdata": {"rt": -1, "stimulus": "", "key_press": -1, "type": "PRE_RECALL_DELAY", "trial_type": "single-stim", "trial_index": 141, "time_elapsed": 2630872, "internal_node_id": "0.0-105.0-0.0"}}, {"uniqueid": "MTK1024:36H9ULYP6312FE1OYOSVH7M574EFJD", "current_trial": 142, "dateTime": 1513010754355, "trialdata": {"rt": -1000, "stimulus": "/static/audio/400Hz.wav", "key_press": -1, "type": "PRE_RECALL_ALERT", "trial_type": "single-audio", "trial_index": 142, "time_elapsed": 2631375, "internal_node_id": "0.0-106.0"}}, {"uniqueid": "MTK1024:36H9ULYP6312FE1OYOSVH7M574EFJD", "current_trial": 143, "dateTime": 1513010814365, "trialdata": {"rt": [25666, 27193, 29621, 33176, 44542], "recwords": ["cabbage", "stone", "supper", "garbage", "patch"], "type": "FREE_RECALL", "conditions": [12, 800, "a", 24000], "trial": 3, "trial_type": "free-recall", "trial_index": 143, "time_elapsed": 2691380, "internal_node_id": "0.0-107.0-0.0"}}, {"uniqueid": "MTK1024:36H9ULYP6312FE1OYOSVH7M574EFJD", "current_trial": 144, "dateTime": 1513010831387, "trialdata": {"rt": 15020, "key_press": 32, "type": "INSTRUCTIONS", "trial_type": "text", "trial_index": 144, "time_elapsed": 2708407, "internal_node_id": "0.0-108.0"}}, {"uniqueid": "MTK1024:36H9ULYP6312FE1OYOSVH7M574EFJD", "current_trial": 145, "dateTime": 1513010857396, "trialdata": {"rt": [1921, 3709, 5540, 7286, 9799, 11537, 13278, 15108, 17179, 20012, 21870, 23713], "responses": ["4", "12", "5", "13", "17", "12", "9", "18", "15", "21", "20", "12"], "num1": [1, 2, 6, 2, 6, 4, 3, 4, 9, 5, 9, 2, 8], "num2": [2, 1, 4, 7, 9, 6, 5, 8, 3, 9, 3, 1, 6], "num3": [1, 9, 5, 4, 2, 2, 1, 6, 3, 7, 8, 9, 7], "type": "DISTRACTOR", "conditions": [24, 800, "v", 24000], "trial": 4, "trial_type": "math-distractor", "trial_index": 145, "time_elapsed": 2734416, "internal_node_id": "0.0-109.0"}}, {"uniqueid": "MTK1024:36H9ULYP6312FE1OYOSVH7M574EFJD", "current_trial": 146, "dateTime": 1513010860421, "trialdata": {"rt": -1, "stimulus": "<p id=\"stim\">10</p>", "key_press": -1, "trial_type": "single-stim", "trial_index": 146, "time_elapsed": 2737441, "internal_node_id": "0.0-110.0-0.0"}}, {"uniqueid": "MTK1024:36H9ULYP6312FE1OYOSVH7M574EFJD", "current_trial": 147, "dateTime": 1513010861425, "trialdata": {"rt": -1, "stimulus": "<p id=\"stim\">9</p>", "key_press": -1, "trial_type": "single-stim", "trial_index": 147, "time_elapsed": 2738445, "internal_node_id": "0.0-110.0-1.0"}}, {"uniqueid": "MTK1024:36H9ULYP6312FE1OYOSVH7M574EFJD", "current_trial": 148, "dateTime": 1513010862433, "trialdata": {"rt": -1, "stimulus": "<p id=\"stim\">8</p>", "key_press": -1, "trial_type": "single-stim", "trial_index": 148, "time_elapsed": 2739453, "internal_node_id": "0.0-110.0-2.0"}}, {"uniqueid": "MTK1024:36H9ULYP6312FE1OYOSVH7M574EFJD", "current_trial": 149, "dateTime": 1513010863439, "trialdata": {"rt": -1, "stimulus": "<p id=\"stim\">7</p>", "key_press": -1, "trial_type": "single-stim", "trial_index": 149, "time_elapsed": 2740458, "internal_node_id": "0.0-110.0-3.0"}}, {"uniqueid": "MTK1024:36H9ULYP6312FE1OYOSVH7M574EFJD", "current_trial": 150, "dateTime": 1513010864443, "trialdata": {"rt": -1, "stimulus": "<p id=\"stim\">6</p>", "key_press": -1, "trial_type": "single-stim", "trial_index": 150, "time_elapsed": 2741463, "internal_node_id": "0.0-110.0-4.0"}}, {"uniqueid": "MTK1024:36H9ULYP6312FE1OYOSVH7M574EFJD", "current_trial": 151, "dateTime": 1513010865448, "trialdata": {"rt": -1, "stimulus": "<p id=\"stim\">5</p>", "key_press": -1, "trial_type": "single-stim", "trial_index": 151, "time_elapsed": 2742466, "internal_node_id": "0.0-110.0-5.0"}}, {"uniqueid": "MTK1024:36H9ULYP6312FE1OYOSVH7M574EFJD", "current_trial": 152, "dateTime": 1513010866459, "trialdata": {"rt": -1, "stimulus": "<p id=\"stim\">4</p>", "key_press": -1, "trial_type": "single-stim", "trial_index": 152, "time_elapsed": 2743479, "internal_node_id": "0.0-110.0-6.0"}}, {"uniqueid": "MTK1024:36H9ULYP6312FE1OYOSVH7M574EFJD", "current_trial": 153, "dateTime": 1513010867464, "trialdata": {"rt": -1, "stimulus": "<p id=\"stim\">3</p>", "key_press": -1, "trial_type": "single-stim", "trial_index": 153, "time_elapsed": 2744484, "internal_node_id": "0.0-110.0-7.0"}}, {"uniqueid": "MTK1024:36H9ULYP6312FE1OYOSVH7M574EFJD", "current_trial": 154, "dateTime": 1513010868470, "trialdata": {"rt": -1, "stimulus": "<p id=\"stim\">2</p>", "key_press": -1, "trial_type": "single-stim", "trial_index": 154, "time_elapsed": 2745489, "internal_node_id": "0.0-110.0-8.0"}}, {"uniqueid": "MTK1024:36H9ULYP6312FE1OYOSVH7M574EFJD", "current_trial": 155, "dateTime": 1513010869473, "trialdata": {"rt": -1, "stimulus": "<p id=\"stim\">1</p>", "key_press": -1, "trial_type": "single-stim", "trial_index": 155, "time_elapsed": 2746492, "internal_node_id": "0.0-110.0-9.0"}}, {"uniqueid": "MTK1024:36H9ULYP6312FE1OYOSVH7M574EFJD", "current_trial": 156, "dateTime": 1513010870993, "trialdata": {"rt": -1, "stimulus": "<p id=\"stim\">+</p>", "key_press": -1, "type": "FIXATION", "trial_type": "single-stim", "trial_index": 156, "time_elapsed": 2748013, "internal_node_id": "0.0-111.0-0.0"}}, {"uniqueid": "MTK1024:36H9ULYP6312FE1OYOSVH7M574EFJD", "current_trial": 157, "dateTime": 1513010871796, "trialdata": {"rt": -1, "stimulus": "<p id=\"stim\">NURSE</p>", "key_press": -1, "type": "PRES_VIS", "word": "nurse", "wordID": 962, "conditions": [24, 800, "v", 24000], "trial": 4, "serialpos": 0, "trial_type": "single-stim", "trial_index": 157, "time_elapsed": 2748815, "internal_node_id": "0.0-112.0"}}, {"uniqueid": "MTK1024:36H9ULYP6312FE1OYOSVH7M574EFJD", "current_trial": 158, "dateTime": 1513010873708, "trialdata": {"rt": -1, "stimulus": "<p id=\"stim\">RIVER</p>", "key_press": -1, "type": "PRES_VIS", "word": "river", "wordID": 1193, "conditions": [24, 800, "v", 24000], "trial": 4, "serialpos": 1, "trial_type": "single-stim", "trial_index": 158, "time_elapsed": 2750728, "internal_node_id": "0.0-113.0"}}, {"uniqueid": "MTK1024:36H9ULYP6312FE1OYOSVH7M574EFJD", "current_trial": 159, "dateTime": 1513010875338, "trialdata": {"rt": -1, "stimulus": "<p id=\"stim\">LAKE</p>", "key_press": -1, "type": "PRES_VIS", "word": "lake", "wordID": 795, "conditions": [24, 800, "v", 24000], "trial": 4, "serialpos": 2, "trial_type": "single-stim", "trial_index": 159, "time_elapsed": 2752358, "internal_node_id": "0.0-114.0"}}, {"uniqueid": "MTK1024:36H9ULYP6312FE1OYOSVH7M574EFJD", "current_trial": 160, "dateTime": 1513010877217, "trialdata": {"rt": -1, "stimulus": "<p id=\"stim\">XEROX</p>", "key_press": -1, "type": "PRES_VIS", "word": "xerox", "wordID": 1627, "conditions": [24, 800, "v", 24000], "trial": 4, "serialpos": 3, "trial_type": "single-stim", "trial_index": 160, "time_elapsed": 2754236, "internal_node_id": "0.0-115.0"}}, {"uniqueid": "MTK1024:36H9ULYP6312FE1OYOSVH7M574EFJD", "current_trial": 161, "dateTime": 1513010879009, "trialdata": {"rt": -1, "stimulus": "<p id=\"stim\">NEUTRON</p>", "key_press": -1, "type": "PRES_VIS", "word": "neutron", "wordID": 946, "conditions": [24, 800, "v", 24000], "trial": 4, "serialpos": 4, "trial_type": "single-stim", "trial_index": 161, "time_elapsed": 2756029, "internal_node_id": "0.0-116.0"}}, {"uniqueid": "MTK1024:36H9ULYP6312FE1OYOSVH7M574EFJD", "current_trial": 162, "dateTime": 1513010880887, "trialdata": {"rt": -1, "stimulus": "<p id=\"stim\">MUSTARD</p>", "key_press": -1, "type": "PRES_VIS", "word": "mustard", "wordID": 934, "conditions": [24, 800, "v", 24000], "trial": 4, "serialpos": 5, "trial_type": "single-stim", "trial_index": 162, "time_elapsed": 2757907, "internal_node_id": "0.0-117.0"}}, {"uniqueid": "MTK1024:36H9ULYP6312FE1OYOSVH7M574EFJD", "current_trial": 163, "dateTime": 1513010882635, "trialdata": {"rt": -1, "stimulus": "<p id=\"stim\">RABBIT</p>", "key_press": -1, "type": "PRES_VIS", "word": "rabbit", "wordID": 1151, "conditions": [24, 800, "v", 24000], "trial": 4, "serialpos": 6, "trial_type": "single-stim", "trial_index": 163, "time_elapsed": 2759655, "internal_node_id": "0.0-118.0"}}, {"uniqueid": "MTK1024:36H9ULYP6312FE1OYOSVH7M574EFJD", "current_trial": 164, "dateTime": 1513010884604, "trialdata": {"rt": -1, "stimulus": "<p id=\"stim\">SUITCASE</p>", "key_press": -1, "type": "PRES_VIS", "word": "suitcase", "wordID": 1402, "conditions": [24, 800, "v", 24000], "trial": 4, "serialpos": 7, "trial_type": "single-stim", "trial_index": 164, "time_elapsed": 2761624, "internal_node_id": "0.0-119.0"}}, {"uniqueid": "MTK1024:36H9ULYP6312FE1OYOSVH7M574EFJD", "current_trial": 165, "dateTime": 1513010886485, "trialdata": {"rt": -1, "stimulus": "<p id=\"stim\">JURY</p>", "key_press": -1, "type": "PRES_VIS", "word": "jury", "wordID": 765, "conditions": [24, 800, "v", 24000], "trial": 4, "serialpos": 8, "trial_type": "single-stim", "trial_index": 165, "time_elapsed": 2763505, "internal_node_id": "0.0-120.0"}}, {"uniqueid": "MTK1024:36H9ULYP6312FE1OYOSVH7M574EFJD", "current_trial": 166, "dateTime": 1513010888196, "trialdata": {"rt": -1, "stimulus": "<p id=\"stim\">ARM</p>", "key_press": -1, "type": "PRES_VIS", "word": "arm", "wordID": 37, "conditions": [24, 800, "v", 24000], "trial": 4, "serialpos": 9, "trial_type": "single-stim", "trial_index": 166, "time_elapsed": 2765216, "internal_node_id": "0.0-121.0"}}, {"uniqueid": "MTK1024:36H9ULYP6312FE1OYOSVH7M574EFJD", "current_trial": 167, "dateTime": 1513010890021, "trialdata": {"rt": -1, "stimulus": "<p id=\"stim\">LION</p>", "key_press": -1, "type": "PRES_VIS", "word": "lion", "wordID": 826, "conditions": [24, 800, "v", 24000], "trial": 4, "serialpos": 10, "trial_type": "single-stim", "trial_index": 167, "time_elapsed": 2767040, "internal_node_id": "0.0-122.0"}}, {"uniqueid": "MTK1024:36H9ULYP6312FE1OYOSVH7M574EFJD", "current_trial": 168, "dateTime": 1513010891951, "trialdata": {"rt": -1, "stimulus": "<p id=\"stim\">PATIENT</p>", "key_press": -1, "type": "PRES_VIS", "word": "patient", "wordID": 1023, "conditions": [24, 800, "v", 24000], "trial": 4, "serialpos": 11, "trial_type": "single-stim", "trial_index": 168, "time_elapsed": 2768971, "internal_node_id": "0.0-123.0"}}, {"uniqueid": "MTK1024:36H9ULYP6312FE1OYOSVH7M574EFJD", "current_trial": 169, "dateTime": 1513010893788, "trialdata": {"rt": -1, "stimulus": "<p id=\"stim\">TILE</p>", "key_press": -1, "type": "PRES_VIS", "word": "tile", "wordID": 1467, "conditions": [24, 800, "v", 24000], "trial": 4, "serialpos": 12, "trial_type": "single-stim", "trial_index": 169, "time_elapsed": 2770807, "internal_node_id": "0.0-124.0"}}, {"uniqueid": "MTK1024:36H9ULYP6312FE1OYOSVH7M574EFJD", "current_trial": 170, "dateTime": 1513010895471, "trialdata": {"rt": -1, "stimulus": "<p id=\"stim\">HELMET</p>", "key_press": -1, "type": "PRES_VIS", "word": "helmet", "wordID": 701, "conditions": [24, 800, "v", 24000], "trial": 4, "serialpos": 13, "trial_type": "single-stim", "trial_index": 170, "time_elapsed": 2772491, "internal_node_id": "0.0-125.0"}}, {"uniqueid": "MTK1024:36H9ULYP6312FE1OYOSVH7M574EFJD", "current_trial": 171, "dateTime": 1513010897334, "trialdata": {"rt": -1, "stimulus": "<p id=\"stim\">PANTHER</p>", "key_press": -1, "type": "PRES_VIS", "word": "panther", "wordID": 1008, "conditions": [24, 800, "v", 24000], "trial": 4, "serialpos": 14, "trial_type": "single-stim", "trial_index": 171, "time_elapsed": 2774354, "internal_node_id": "0.0-126.0"}}, {"uniqueid": "MTK1024:36H9ULYP6312FE1OYOSVH7M574EFJD", "current_trial": 172, "dateTime": 1513010899063, "trialdata": {"rt": -1, "stimulus": "<p id=\"stim\">POSSUM</p>", "key_press": -1, "type": "PRES_VIS", "word": "possum", "wordID": 1111, "conditions": [24, 800, "v", 24000], "trial": 4, "serialpos": 15, "trial_type": "single-stim", "trial_index": 172, "time_elapsed": 2776083, "internal_node_id": "0.0-127.0"}}, {"uniqueid": "MTK1024:36H9ULYP6312FE1OYOSVH7M574EFJD", "current_trial": 173, "dateTime": 1513010901016, "trialdata": {"rt": -1, "stimulus": "<p id=\"stim\">BRICK</p>", "key_press": -1, "type": "PRES_VIS", "word": "brick", "wordID": 171, "conditions": [24, 800, "v", 24000], "trial": 4, "serialpos": 16, "trial_type": "single-stim", "trial_index": 173, "time_elapsed": 2778036, "internal_node_id": "0.0-128.0"}}, {"uniqueid": "MTK1024:36H9ULYP6312FE1OYOSVH7M574EFJD", "current_trial": 174, "dateTime": 1513010902976, "trialdata": {"rt": -1, "stimulus": "<p id=\"stim\">SHERIFF</p>", "key_press": -1, "type": "PRES_VIS", "word": "sheriff", "wordID": 1283, "conditions": [24, 800, "v", 24000], "trial": 4, "serialpos": 17, "trial_type": "single-stim", "trial_index": 174, "time_elapsed": 2779996, "internal_node_id": "0.0-129.0"}}, {"uniqueid": "MTK1024:36H9ULYP6312FE1OYOSVH7M574EFJD", "current_trial": 175, "dateTime": 1513010904706, "trialdata": {"rt": -1, "stimulus": "<p id=\"stim\">LAGOON</p>", "key_press": -1, "type": "PRES_VIS", "word": "lagoon", "wordID": 794, "conditions": [24, 800, "v", 24000], "trial": 4, "serialpos": 18, "trial_type": "single-stim", "trial_index": 175, "time_elapsed": 2781726, "internal_node_id": "0.0-130.0"}}, {"uniqueid": "MTK1024:36H9ULYP6312FE1OYOSVH7M574EFJD", "current_trial": 176, "dateTime": 1513010906436, "trialdata": {"rt": -1, "stimulus": "<p id=\"stim\">HAMPER</p>", "key_press": -1, "type": "PRES_VIS", "word": "hamper", "wordID": 681, "conditions": [24, 800, "v", 24000], "trial": 4, "serialpos": 19, "trial_type": "single-stim", "trial_index": 176, "time_elapsed": 2783456, "internal_node_id": "0.0-131.0"}}, {"uniqueid": "MTK1024:36H9ULYP6312FE1OYOSVH7M574EFJD", "current_trial": 177, "dateTime": 1513010908047, "trialdata": {"rt": -1, "stimulus": "<p id=\"stim\">DRIVER</p>", "key_press": -1, "type": "PRES_VIS", "word": "driver", "wordID": 498, "conditions": [24, 800, "v", 24000], "trial": 4, "serialpos": 20, "trial_type": "single-stim", "trial_index": 177, "time_elapsed": 2785067, "internal_node_id": "0.0-132.0"}}, {"uniqueid": "MTK1024:36H9ULYP6312FE1OYOSVH7M574EFJD", "current_trial": 178, "dateTime": 1513010909929, "trialdata": {"rt": -1, "stimulus": "<p id=\"stim\">ANKLE</p>", "key_press": -1, "type": "PRES_VIS", "word": "ankle", "wordID": 23, "conditions": [24, 800, "v", 24000], "trial": 4, "serialpos": 21, "trial_type": "single-stim", "trial_index": 178, "time_elapsed": 2786949, "internal_node_id": "0.0-133.0"}}, {"uniqueid": "MTK1024:36H9ULYP6312FE1OYOSVH7M574EFJD", "current_trial": 179, "dateTime": 1513010911572, "trialdata": {"rt": -1, "stimulus": "<p id=\"stim\">WASHER</p>", "key_press": -1, "type": "PRES_VIS", "word": "washer", "wordID": 1591, "conditions": [24, 800, "v", 24000], "trial": 4, "serialpos": 22, "trial_type": "single-stim", "trial_index": 179, "time_elapsed": 2788592, "internal_node_id": "0.0-134.0"}}, {"uniqueid": "MTK1024:36H9ULYP6312FE1OYOSVH7M574EFJD", "current_trial": 180, "dateTime": 1513010913574, "trialdata": {"rt": -1, "stimulus": "<p id=\"stim\">KIDNEY</p>", "key_press": -1, "type": "PRES_VIS", "word": "kidney", "wordID": 775, "conditions": [24, 800, "v", 24000], "trial": 4, "serialpos": 23, "trial_type": "single-stim", "trial_index": 180, "time_elapsed": 2790593, "internal_node_id": "0.0-135.0"}}, {"uniqueid": "MTK1024:36H9ULYP6312FE1OYOSVH7M574EFJD", "current_trial": 181, "dateTime": 1513010915806, "trialdata": {"rt": -1, "stimulus": "", "key_press": -1, "type": "PRE_RECALL_DELAY", "trial_type": "single-stim", "trial_index": 181, "time_elapsed": 2792825, "internal_node_id": "0.0-136.0-0.0"}}, {"uniqueid": "MTK1024:36H9ULYP6312FE1OYOSVH7M574EFJD", "current_trial": 182, "dateTime": 1513010916315, "trialdata": {"rt": -1000, "stimulus": "/static/audio/400Hz.wav", "key_press": -1, "type": "PRE_RECALL_ALERT", "trial_type": "single-audio", "trial_index": 182, "time_elapsed": 2793335, "internal_node_id": "0.0-137.0"}}, {"uniqueid": "MTK1024:36H9ULYP6312FE1OYOSVH7M574EFJD", "current_trial": 183, "dateTime": 1513010976362, "trialdata": {"rt": [3664, 5059, 7925, 11967, 16683], "recwords": ["nurse", "washer", "sherrif", "rabbit", "purse"], "type": "FREE_RECALL", "conditions": [24, 800, "v", 24000], "trial": 4, "trial_type": "free-recall", "trial_index": 183, "time_elapsed": 2853372, "internal_node_id": "0.0-138.0-0.0"}}, {"uniqueid": "MTK1024:36H9ULYP6312FE1OYOSVH7M574EFJD", "current_trial": 184, "dateTime": 1513011007531, "trialdata": {"rt": 29138, "key_press": 32, "type": "INSTRUCTIONS", "trial_type": "text", "trial_index": 184, "time_elapsed": 2884551, "internal_node_id": "0.0-139.0"}}, {"uniqueid": "MTK1024:36H9ULYP6312FE1OYOSVH7M574EFJD", "current_trial": 185, "dateTime": 1513011021538, "trialdata": {"rt": [2948, 5014, 6727, 8578, 10573], "responses": ["12", "17", "12", "10", "12"], "num1": [1, 8, 3, 1, 4, 4], "num2": [7, 2, 7, 6, 3, 4], "num3": [4, 7, 2, 3, 5, 4], "type": "DISTRACTOR", "conditions": [12, 800, "v", 12000], "trial": 5, "trial_type": "math-distractor", "trial_index": 185, "time_elapsed": 2898558, "internal_node_id": "0.0-140.0"}}, {"uniqueid": "MTK1024:36H9ULYP6312FE1OYOSVH7M574EFJD", "current_trial": 186, "dateTime": 1513011024541, "trialdata": {"rt": -1, "stimulus": "<p id=\"stim\">10</p>", "key_press": -1, "trial_type": "single-stim", "trial_index": 186, "time_elapsed": 2901561, "internal_node_id": "0.0-141.0-0.0"}}, {"uniqueid": "MTK1024:36H9ULYP6312FE1OYOSVH7M574EFJD", "current_trial": 187, "dateTime": 1513011025544, "trialdata": {"rt": -1, "stimulus": "<p id=\"stim\">9</p>", "key_press": -1, "trial_type": "single-stim", "trial_index": 187, "time_elapsed": 2902564, "internal_node_id": "0.0-141.0-1.0"}}, {"uniqueid": "MTK1024:36H9ULYP6312FE1OYOSVH7M574EFJD", "current_trial": 188, "dateTime": 1513011026548, "trialdata": {"rt": -1, "stimulus": "<p id=\"stim\">8</p>", "key_press": -1, "trial_type": "single-stim", "trial_index": 188, "time_elapsed": 2903568, "internal_node_id": "0.0-141.0-2.0"}}, {"uniqueid": "MTK1024:36H9ULYP6312FE1OYOSVH7M574EFJD", "current_trial": 189, "dateTime": 1513011027552, "trialdata": {"rt": -1, "stimulus": "<p id=\"stim\">7</p>", "key_press": -1, "trial_type": "single-stim", "trial_index": 189, "time_elapsed": 2904572, "internal_node_id": "0.0-141.0-3.0"}}, {"uniqueid": "MTK1024:36H9ULYP6312FE1OYOSVH7M574EFJD", "current_trial": 190, "dateTime": 1513011028556, "trialdata": {"rt": -1, "stimulus": "<p id=\"stim\">6</p>", "key_press": -1, "trial_type": "single-stim", "trial_index": 190, "time_elapsed": 2905576, "internal_node_id": "0.0-141.0-4.0"}}, {"uniqueid": "MTK1024:36H9ULYP6312FE1OYOSVH7M574EFJD", "current_trial": 191, "dateTime": 1513011029560, "trialdata": {"rt": -1, "stimulus": "<p id=\"stim\">5</p>", "key_press": -1, "trial_type": "single-stim", "trial_index": 191, "time_elapsed": 2906580, "internal_node_id": "0.0-141.0-5.0"}}, {"uniqueid": "MTK1024:36H9ULYP6312FE1OYOSVH7M574EFJD", "current_trial": 192, "dateTime": 1513011030563, "trialdata": {"rt": -1, "stimulus": "<p id=\"stim\">4</p>", "key_press": -1, "trial_type": "single-stim", "trial_index": 192, "time_elapsed": 2907583, "internal_node_id": "0.0-141.0-6.0"}}, {"uniqueid": "MTK1024:36H9ULYP6312FE1OYOSVH7M574EFJD", "current_trial": 193, "dateTime": 1513011031565, "trialdata": {"rt": -1, "stimulus": "<p id=\"stim\">3</p>", "key_press": -1, "trial_type": "single-stim", "trial_index": 193, "time_elapsed": 2908585, "internal_node_id": "0.0-141.0-7.0"}}, {"uniqueid": "MTK1024:36H9ULYP6312FE1OYOSVH7M574EFJD", "current_trial": 194, "dateTime": 1513011032569, "trialdata": {"rt": -1, "stimulus": "<p id=\"stim\">2</p>", "key_press": -1, "trial_type": "single-stim", "trial_index": 194, "time_elapsed": 2909589, "internal_node_id": "0.0-141.0-8.0"}}, {"uniqueid": "MTK1024:36H9ULYP6312FE1OYOSVH7M574EFJD", "current_trial": 195, "dateTime": 1513011033572, "trialdata": {"rt": -1, "stimulus": "<p id=\"stim\">1</p>", "key_press": -1, "trial_type": "single-stim", "trial_index": 195, "time_elapsed": 2910592, "internal_node_id": "0.0-141.0-9.0"}}, {"uniqueid": "MTK1024:36H9ULYP6312FE1OYOSVH7M574EFJD", "current_trial": 196, "dateTime": 1513011035077, "trialdata": {"rt": -1, "stimulus": "<p id=\"stim\">+</p>", "key_press": -1, "type": "FIXATION", "trial_type": "single-stim", "trial_index": 196, "time_elapsed": 2912097, "internal_node_id": "0.0-142.0-0.0"}}, {"uniqueid": "MTK1024:36H9ULYP6312FE1OYOSVH7M574EFJD", "current_trial": 197, "dateTime": 1513011035884, "trialdata": {"rt": -1, "stimulus": "<p id=\"stim\">IGLOO</p>", "key_press": -1, "type": "PRES_VIS", "word": "igloo", "wordID": 733, "conditions": [12, 800, "v", 12000], "trial": 5, "serialpos": 0, "trial_type": "single-stim", "trial_index": 197, "time_elapsed": 2912903, "internal_node_id": "0.0-143.0"}}, {"uniqueid": "MTK1024:36H9ULYP6312FE1OYOSVH7M574EFJD", "current_trial": 198, "dateTime": 1513011037627, "trialdata": {"rt": -1, "stimulus": "<p id=\"stim\">MAPLE</p>", "key_press": -1, "type": "PRES_VIS", "word": "maple", "wordID": 865, "conditions": [12, 800, "v", 12000], "trial": 5, "serialpos": 1, "trial_type": "single-stim", "trial_index": 198, "time_elapsed": 2914647, "internal_node_id": "0.0-144.0"}}, {"uniqueid": "MTK1024:36H9ULYP6312FE1OYOSVH7M574EFJD", "current_trial": 199, "dateTime": 1513011039459, "trialdata": {"rt": -1, "stimulus": "<p id=\"stim\">STOVE</p>", "key_press": -1, "type": "PRES_VIS", "word": "stove", "wordID": 1387, "conditions": [12, 800, "v", 12000], "trial": 5, "serialpos": 2, "trial_type": "single-stim", "trial_index": 199, "time_elapsed": 2916479, "internal_node_id": "0.0-145.0"}}, {"uniqueid": "MTK1024:36H9ULYP6312FE1OYOSVH7M574EFJD", "current_trial": 200, "dateTime": 1513011041183, "trialdata": {"rt": -1, "stimulus": "<p id=\"stim\">HOOK</p>", "key_press": -1, "type": "PRES_VIS", "word": "hook", "wordID": 714, "conditions": [12, 800, "v", 12000], "trial": 5, "serialpos": 3, "trial_type": "single-stim", "trial_index": 200, "time_elapsed": 2918203, "internal_node_id": "0.0-146.0"}}, {"uniqueid": "MTK1024:36H9ULYP6312FE1OYOSVH7M574EFJD", "current_trial": 201, "dateTime": 1513011043017, "trialdata": {"rt": -1, "stimulus": "<p id=\"stim\">MAMMAL</p>", "key_press": -1, "type": "PRES_VIS", "word": "mammal", "wordID": 860, "conditions": [12, 800, "v", 12000], "trial": 5, "serialpos": 4, "trial_type": "single-stim", "trial_index": 201, "time_elapsed": 2920037, "internal_node_id": "0.0-147.0"}}, {"uniqueid": "MTK1024:36H9ULYP6312FE1OYOSVH7M574EFJD", "current_trial": 202, "dateTime": 1513011045003, "trialdata": {"rt": -1, "stimulus": "<p id=\"stim\">DUSTPAN</p>", "key_press": -1, "type": "PRES_VIS", "word": "dustpan", "wordID": 508, "conditions": [12, 800, "v", 12000], "trial": 5, "serialpos": 5, "trial_type": "single-stim", "trial_index": 202, "time_elapsed": 2922023, "internal_node_id": "0.0-148.0"}}, {"uniqueid": "MTK1024:36H9ULYP6312FE1OYOSVH7M574EFJD", "current_trial": 203, "dateTime": 1513011046786, "trialdata": {"rt": -1, "stimulus": "<p id=\"stim\">FIREPLACE</p>", "key_press": -1, "type": "PRES_VIS", "word": "fireplace", "wordID": 569, "conditions": [12, 800, "v", 12000], "trial": 5, "serialpos": 6, "trial_type": "single-stim", "trial_index": 203, "time_elapsed": 2923806, "internal_node_id": "0.0-149.0"}}, {"uniqueid": "MTK1024:36H9ULYP6312FE1OYOSVH7M574EFJD", "current_trial": 204, "dateTime": 1513011048695, "trialdata": {"rt": -1, "stimulus": "<p id=\"stim\">TAXI</p>", "key_press": -1, "type": "PRES_VIS", "word": "taxi", "wordID": 1437, "conditions": [12, 800, "v", 12000], "trial": 5, "serialpos": 7, "trial_type": "single-stim", "trial_index": 204, "time_elapsed": 2925715, "internal_node_id": "0.0-150.0"}}, {"uniqueid": "MTK1024:36H9ULYP6312FE1OYOSVH7M574EFJD", "current_trial": 205, "dateTime": 1513011050453, "trialdata": {"rt": -1, "stimulus": "<p id=\"stim\">FUNGUS</p>", "key_press": -1, "type": "PRES_VIS", "word": "fungus", "wordID": 613, "conditions": [12, 800, "v", 12000], "trial": 5, "serialpos": 8, "trial_type": "single-stim", "trial_index": 205, "time_elapsed": 2927473, "internal_node_id": "0.0-151.0"}}, {"uniqueid": "MTK1024:36H9ULYP6312FE1OYOSVH7M574EFJD", "current_trial": 206, "dateTime": 1513011052402, "trialdata": {"rt": -1, "stimulus": "<p id=\"stim\">MILDEW</p>", "key_press": -1, "type": "PRES_VIS", "word": "mildew", "wordID": 892, "conditions": [12, 800, "v", 12000], "trial": 5, "serialpos": 9, "trial_type": "single-stim", "trial_index": 206, "time_elapsed": 2929422, "internal_node_id": "0.0-152.0"}}, {"uniqueid": "MTK1024:36H9ULYP6312FE1OYOSVH7M574EFJD", "current_trial": 207, "dateTime": 1513011054338, "trialdata": {"rt": -1, "stimulus": "<p id=\"stim\">SHARK</p>", "key_press": -1, "type": "PRES_VIS", "word": "shark", "wordID": 1274, "conditions": [12, 800, "v", 12000], "trial": 5, "serialpos": 10, "trial_type": "single-stim", "trial_index": 207, "time_elapsed": 2931358, "internal_node_id": "0.0-153.0"}}, {"uniqueid": "MTK1024:36H9ULYP6312FE1OYOSVH7M574EFJD", "current_trial": 208, "dateTime": 1513011056207, "trialdata": {"rt": -1, "stimulus": "<p id=\"stim\">TWISTER</p>", "key_press": -1, "type": "PRES_VIS", "word": "twister", "wordID": 1529, "conditions": [12, 800, "v", 12000], "trial": 5, "serialpos": 11, "trial_type": "single-stim", "trial_index": 208, "time_elapsed": 2933227, "internal_node_id": "0.0-154.0"}}, {"uniqueid": "MTK1024:36H9ULYP6312FE1OYOSVH7M574EFJD", "current_trial": 209, "dateTime": 1513011058580, "trialdata": {"rt": -1, "stimulus": "", "key_press": -1, "type": "PRE_RECALL_DELAY", "trial_type": "single-stim", "trial_index": 209, "time_elapsed": 2935599, "internal_node_id": "0.0-155.0-0.0"}}, {"uniqueid": "MTK1024:36H9ULYP6312FE1OYOSVH7M574EFJD", "current_trial": 210, "dateTime": 1513011059083, "trialdata": {"rt": -1000, "stimulus": "/static/audio/400Hz.wav", "key_press": -1, "type": "PRE_RECALL_ALERT", "trial_type": "single-audio", "trial_index": 210, "time_elapsed": 2936103, "internal_node_id": "0.0-156.0"}}, {"uniqueid": "MTK1024:36H9ULYP6312FE1OYOSVH7M574EFJD", "current_trial": 211, "dateTime": 1513011119099, "trialdata": {"rt": [6785, 10743, 12875, 14840, 18586, 21004, 30856, 35830], "recwords": ["igloo", "maple", "mildew", "hook", "farm", "washer", "window", "teller"], "type": "FREE_RECALL", "conditions": [12, 800, "v", 12000], "trial": 5, "trial_type": "free-recall", "trial_index": 211, "time_elapsed": 2996108, "internal_node_id": "0.0-157.0-0.0"}}, {"uniqueid": "MTK1024:36H9ULYP6312FE1OYOSVH7M574EFJD", "current_trial": 212, "dateTime": 1513011164288, "trialdata": {"rt": 43181, "key_press": 32, "type": "INSTRUCTIONS", "trial_type": "text", "trial_index": 212, "time_elapsed": 3041307, "internal_node_id": "0.0-158.0"}}, {"uniqueid": "MTK1024:36H9ULYP6312FE1OYOSVH7M574EFJD", "current_trial": 213, "dateTime": 1513011178298, "trialdata": {"rt": [2041, 4275, 6939, 8837, 10597], "responses": ["16", "13", "20", "11", "16"], "num1": [8, 5, 5, 2, 3, 7], "num2": [4, 7, 7, 6, 4, 6], "num3": [4, 1, 8, 3, 9, 6], "type": "DISTRACTOR", "conditions": [24, 800, "v", 12000], "trial": 6, "trial_type": "math-distractor", "trial_index": 213, "time_elapsed": 3055318, "internal_node_id": "0.0-159.0"}}, {"uniqueid": "MTK1024:36H9ULYP6312FE1OYOSVH7M574EFJD", "current_trial": 214, "dateTime": 1513011181304, "trialdata": {"rt": -1, "stimulus": "<p id=\"stim\">10</p>", "key_press": -1, "trial_type": "single-stim", "trial_index": 214, "time_elapsed": 3058324, "internal_node_id": "0.0-160.0-0.0"}}, {"uniqueid": "MTK1024:36H9ULYP6312FE1OYOSVH7M574EFJD", "current_trial": 215, "dateTime": 1513011182309, "trialdata": {"rt": -1, "stimulus": "<p id=\"stim\">9</p>", "key_press": -1, "trial_type": "single-stim", "trial_index": 215, "time_elapsed": 3059329, "internal_node_id": "0.0-160.0-1.0"}}, {"uniqueid": "MTK1024:36H9ULYP6312FE1OYOSVH7M574EFJD", "current_trial": 216, "dateTime": 1513011183312, "trialdata": {"rt": -1, "stimulus": "<p id=\"stim\">8</p>", "key_press": -1, "trial_type": "single-stim", "trial_index": 216, "time_elapsed": 3060332, "internal_node_id": "0.0-160.0-2.0"}}, {"uniqueid": "MTK1024:36H9ULYP6312FE1OYOSVH7M574EFJD", "current_trial": 217, "dateTime": 1513011184334, "trialdata": {"rt": -1, "stimulus": "<p id=\"stim\">7</p>", "key_press": -1, "trial_type": "single-stim", "trial_index": 217, "time_elapsed": 3061354, "internal_node_id": "0.0-160.0-3.0"}}, {"uniqueid": "MTK1024:36H9ULYP6312FE1OYOSVH7M574EFJD", "current_trial": 218, "dateTime": 1513011185336, "trialdata": {"rt": -1, "stimulus": "<p id=\"stim\">6</p>", "key_press": -1, "trial_type": "single-stim", "trial_index": 218, "time_elapsed": 3062356, "internal_node_id": "0.0-160.0-4.0"}}, {"uniqueid": "MTK1024:36H9ULYP6312FE1OYOSVH7M574EFJD", "current_trial": 219, "dateTime": 1513011186338, "trialdata": {"rt": -1, "stimulus": "<p id=\"stim\">5</p>", "key_press": -1, "trial_type": "single-stim", "trial_index": 219, "time_elapsed": 3063358, "internal_node_id": "0.0-160.0-5.0"}}, {"uniqueid": "MTK1024:36H9ULYP6312FE1OYOSVH7M574EFJD", "current_trial": 220, "dateTime": 1513011187347, "trialdata": {"rt": -1, "stimulus": "<p id=\"stim\">4</p>", "key_press": -1, "trial_type": "single-stim", "trial_index": 220, "time_elapsed": 3064367, "internal_node_id": "0.0-160.0-6.0"}}, {"uniqueid": "MTK1024:36H9ULYP6312FE1OYOSVH7M574EFJD", "current_trial": 221, "dateTime": 1513011188350, "trialdata": {"rt": -1, "stimulus": "<p id=\"stim\">3</p>", "key_press": -1, "trial_type": "single-stim", "trial_index": 221, "time_elapsed": 3065370, "internal_node_id": "0.0-160.0-7.0"}}, {"uniqueid": "MTK1024:36H9ULYP6312FE1OYOSVH7M574EFJD", "current_trial": 222, "dateTime": 1513011189367, "trialdata": {"rt": -1, "stimulus": "<p id=\"stim\">2</p>", "key_press": -1, "trial_type": "single-stim", "trial_index": 222, "time_elapsed": 3066387, "internal_node_id": "0.0-160.0-8.0"}}, {"uniqueid": "MTK1024:36H9ULYP6312FE1OYOSVH7M574EFJD", "current_trial": 223, "dateTime": 1513011190390, "trialdata": {"rt": -1, "stimulus": "<p id=\"stim\">1</p>", "key_press": -1, "trial_type": "single-stim", "trial_index": 223, "time_elapsed": 3067410, "internal_node_id": "0.0-160.0-9.0"}}, {"uniqueid": "MTK1024:36H9ULYP6312FE1OYOSVH7M574EFJD", "current_trial": 224, "dateTime": 1513011191893, "trialdata": {"rt": -1, "stimulus": "<p id=\"stim\">+</p>", "key_press": -1, "type": "FIXATION", "trial_type": "single-stim", "trial_index": 224, "time_elapsed": 3068913, "internal_node_id": "0.0-161.0-0.0"}}, {"uniqueid": "MTK1024:36H9ULYP6312FE1OYOSVH7M574EFJD", "current_trial": 225, "dateTime": 1513011192696, "trialdata": {"rt": -1, "stimulus": "<p id=\"stim\">SCARF</p>", "key_press": -1, "type": "PRES_VIS", "word": "scarf", "wordID": 1245, "conditions": [24, 800, "v", 12000], "trial": 6, "serialpos": 0, "trial_type": "single-stim", "trial_index": 225, "time_elapsed": 3069716, "internal_node_id": "0.0-162.0"}}, {"uniqueid": "MTK1024:36H9ULYP6312FE1OYOSVH7M574EFJD", "current_trial": 226, "dateTime": 1513011194506, "trialdata": {"rt": -1, "stimulus": "<p id=\"stim\">TRANSPLANT</p>", "key_press": -1, "type": "PRES_VIS", "word": "transplant", "wordID": 1495, "conditions": [24, 800, "v", 12000], "trial": 6, "serialpos": 1, "trial_type": "single-stim", "trial_index": 226, "time_elapsed": 3071526, "internal_node_id": "0.0-163.0"}}, {"uniqueid": "MTK1024:36H9ULYP6312FE1OYOSVH7M574EFJD", "current_trial": 227, "dateTime": 1513011196327, "trialdata": {"rt": -1, "stimulus": "<p id=\"stim\">RUST</p>", "key_press": -1, "type": "PRES_VIS", "word": "rust", "wordID": 1218, "conditions": [24, 800, "v", 12000], "trial": 6, "serialpos": 2, "trial_type": "single-stim", "trial_index": 227, "time_elapsed": 3073347, "internal_node_id": "0.0-164.0"}}, {"uniqueid": "MTK1024:36H9ULYP6312FE1OYOSVH7M574EFJD", "current_trial": 228, "dateTime": 1513011198337, "trialdata": {"rt": -1, "stimulus": "<p id=\"stim\">PALACE</p>", "key_press": -1, "type": "PRES_VIS", "word": "palace", "wordID": 1005, "conditions": [24, 800, "v", 12000], "trial": 6, "serialpos": 3, "trial_type": "single-stim", "trial_index": 228, "time_elapsed": 3075357, "internal_node_id": "0.0-165.0"}}, {"uniqueid": "MTK1024:36H9ULYP6312FE1OYOSVH7M574EFJD", "current_trial": 229, "dateTime": 1513011199965, "trialdata": {"rt": -1, "stimulus": "<p id=\"stim\">GRAPE</p>", "key_press": -1, "type": "PRES_VIS", "word": "grape", "wordID": 653, "conditions": [24, 800, "v", 12000], "trial": 6, "serialpos": 4, "trial_type": "single-stim", "trial_index": 229, "time_elapsed": 3076985, "internal_node_id": "0.0-166.0"}}, {"uniqueid": "MTK1024:36H9ULYP6312FE1OYOSVH7M574EFJD", "current_trial": 230, "dateTime": 1513011201749, "trialdata": {"rt": -1, "stimulus": "<p id=\"stim\">BARLEY</p>", "key_press": -1, "type": "PRES_VIS", "word": "barley", "wordID": 87, "conditions": [24, 800, "v", 12000], "trial": 6, "serialpos": 5, "trial_type": "single-stim", "trial_index": 230, "time_elapsed": 3078769, "internal_node_id": "0.0-167.0"}}, {"uniqueid": "MTK1024:36H9ULYP6312FE1OYOSVH7M574EFJD", "current_trial": 231, "dateTime": 1513011203615, "trialdata": {"rt": -1, "stimulus": "<p id=\"stim\">LUNCH</p>", "key_press": -1, "type": "PRES_VIS", "word": "lunch", "wordID": 848, "conditions": [24, 800, "v", 12000], "trial": 6, "serialpos": 6, "trial_type": "single-stim", "trial_index": 231, "time_elapsed": 3080635, "internal_node_id": "0.0-168.0"}}, {"uniqueid": "MTK1024:36H9ULYP6312FE1OYOSVH7M574EFJD", "current_trial": 232, "dateTime": 1513011205323, "trialdata": {"rt": -1, "stimulus": "<p id=\"stim\">VELVET</p>", "key_press": -1, "type": "PRES_VIS", "word": "velvet", "wordID": 1554, "conditions": [24, 800, "v", 12000], "trial": 6, "serialpos": 7, "trial_type": "single-stim", "trial_index": 232, "time_elapsed": 3082343, "internal_node_id": "0.0-169.0"}}, {"uniqueid": "MTK1024:36H9ULYP6312FE1OYOSVH7M574EFJD", "current_trial": 233, "dateTime": 1513011207270, "trialdata": {"rt": -1, "stimulus": "<p id=\"stim\">PLATE</p>", "key_press": -1, "type": "PRES_VIS", "word": "plate", "wordID": 1085, "conditions": [24, 800, "v", 12000], "trial": 6, "serialpos": 8, "trial_type": "single-stim", "trial_index": 233, "time_elapsed": 3084290, "internal_node_id": "0.0-170.0"}}, {"uniqueid": "MTK1024:36H9ULYP6312FE1OYOSVH7M574EFJD", "current_trial": 234, "dateTime": 1513011209210, "trialdata": {"rt": -1, "stimulus": "<p id=\"stim\">BINDER</p>", "key_press": -1, "type": "PRES_VIS", "word": "binder", "wordID": 126, "conditions": [24, 800, "v", 12000], "trial": 6, "serialpos": 9, "trial_type": "single-stim", "trial_index": 234, "time_elapsed": 3086230, "internal_node_id": "0.0-171.0"}}, {"uniqueid": "MTK1024:36H9ULYP6312FE1OYOSVH7M574EFJD", "current_trial": 235, "dateTime": 1513011211060, "trialdata": {"rt": -1, "stimulus": "<p id=\"stim\">BLOUSE</p>", "key_press": -1, "type": "PRES_VIS", "word": "blouse", "wordID": 138, "conditions": [24, 800, "v", 12000], "trial": 6, "serialpos": 10, "trial_type": "single-stim", "trial_index": 235, "time_elapsed": 3088079, "internal_node_id": "0.0-172.0"}}, {"uniqueid": "MTK1024:36H9ULYP6312FE1OYOSVH7M574EFJD", "current_trial": 236, "dateTime": 1513011212947, "trialdata": {"rt": -1, "stimulus": "<p id=\"stim\">WIDOW</p>", "key_press": -1, "type": "PRES_VIS", "word": "widow", "wordID": 1607, "conditions": [24, 800, "v", 12000], "trial": 6, "serialpos": 11, "trial_type": "single-stim", "trial_index": 236, "time_elapsed": 3089967, "internal_node_id": "0.0-173.0"}}, {"uniqueid": "MTK1024:36H9ULYP6312FE1OYOSVH7M574EFJD", "current_trial": 237, "dateTime": 1513011214774, "trialdata": {"rt": -1, "stimulus": "<p id=\"stim\">CAMEL</p>", "key_press": -1, "type": "PRES_VIS", "word": "camel", "wordID": 222, "conditions": [24, 800, "v", 12000], "trial": 6, "serialpos": 12, "trial_type": "single-stim", "trial_index": 237, "time_elapsed": 3091793, "internal_node_id": "0.0-174.0"}}, {"uniqueid": "MTK1024:36H9ULYP6312FE1OYOSVH7M574EFJD", "current_trial": 238, "dateTime": 1513011216735, "trialdata": {"rt": -1, "stimulus": "<p id=\"stim\">CRIB</p>", "key_press": -1, "type": "PRES_VIS", "word": "crib", "wordID": 406, "conditions": [24, 800, "v", 12000], "trial": 6, "serialpos": 13, "trial_type": "single-stim", "trial_index": 238, "time_elapsed": 3093754, "internal_node_id": "0.0-175.0"}}, {"uniqueid": "MTK1024:36H9ULYP6312FE1OYOSVH7M574EFJD", "current_trial": 239, "dateTime": 1513011218562, "trialdata": {"rt": -1, "stimulus": "<p id=\"stim\">LIPSTICK</p>", "key_press": -1, "type": "PRES_VIS", "word": "lipstick", "wordID": 828, "conditions": [24, 800, "v", 12000], "trial": 6, "serialpos": 14, "trial_type": "single-stim", "trial_index": 239, "time_elapsed": 3095582, "internal_node_id": "0.0-176.0"}}, {"uniqueid": "MTK1024:36H9ULYP6312FE1OYOSVH7M574EFJD", "current_trial": 240, "dateTime": 1513011220542, "trialdata": {"rt": -1, "stimulus": "<p id=\"stim\">BACKBONE</p>", "key_press": -1, "type": "PRES_VIS", "word": "backbone", "wordID": 65, "conditions": [24, 800, "v", 12000], "trial": 6, "serialpos": 15, "trial_type": "single-stim", "trial_index": 240, "time_elapsed": 3097557, "internal_node_id": "0.0-177.0"}}, {"uniqueid": "MTK1024:36H9ULYP6312FE1OYOSVH7M574EFJD", "current_trial": 241, "dateTime": 1513011222469, "trialdata": {"rt": -1, "stimulus": "<p id=\"stim\">STAPLE</p>", "key_press": -1, "type": "PRES_VIS", "word": "staple", "wordID": 1370, "conditions": [24, 800, "v", 12000], "trial": 6, "serialpos": 16, "trial_type": "single-stim", "trial_index": 241, "time_elapsed": 3099488, "internal_node_id": "0.0-178.0"}}, {"uniqueid": "MTK1024:36H9ULYP6312FE1OYOSVH7M574EFJD", "current_trial": 242, "dateTime": 1513011224123, "trialdata": {"rt": -1, "stimulus": "<p id=\"stim\">BODY</p>", "key_press": -1, "type": "PRES_VIS", "word": "body", "wordID": 144, "conditions": [24, 800, "v", 12000], "trial": 6, "serialpos": 17, "trial_type": "single-stim", "trial_index": 242, "time_elapsed": 3101143, "internal_node_id": "0.0-179.0"}}, {"uniqueid": "MTK1024:36H9ULYP6312FE1OYOSVH7M574EFJD", "current_trial": 243, "dateTime": 1513011225789, "trialdata": {"rt": -1, "stimulus": "<p id=\"stim\">DONKEY</p>", "key_press": -1, "type": "PRES_VIS", "word": "donkey", "wordID": 483, "conditions": [24, 800, "v", 12000], "trial": 6, "serialpos": 18, "trial_type": "single-stim", "trial_index": 243, "time_elapsed": 3102808, "internal_node_id": "0.0-180.0"}}, {"uniqueid": "MTK1024:36H9ULYP6312FE1OYOSVH7M574EFJD", "current_trial": 244, "dateTime": 1513011227518, "trialdata": {"rt": -1, "stimulus": "<p id=\"stim\">SAUSAGE</p>", "key_press": -1, "type": "PRES_VIS", "word": "sausage", "wordID": 1237, "conditions": [24, 800, "v", 12000], "trial": 6, "serialpos": 19, "trial_type": "single-stim", "trial_index": 244, "time_elapsed": 3104537, "internal_node_id": "0.0-181.0"}}, {"uniqueid": "MTK1024:36H9ULYP6312FE1OYOSVH7M574EFJD", "current_trial": 245, "dateTime": 1513011229385, "trialdata": {"rt": -1, "stimulus": "<p id=\"stim\">PASTA</p>", "key_press": -1, "type": "PRES_VIS", "word": "pasta", "wordID": 1020, "conditions": [24, 800, "v", 12000], "trial": 6, "serialpos": 20, "trial_type": "single-stim", "trial_index": 245, "time_elapsed": 3106404, "internal_node_id": "0.0-182.0"}}, {"uniqueid": "MTK1024:36H9ULYP6312FE1OYOSVH7M574EFJD", "current_trial": 246, "dateTime": 1513011231043, "trialdata": {"rt": -1, "stimulus": "<p id=\"stim\">QUAIL</p>", "key_press": -1, "type": "PRES_VIS", "word": "quail", "wordID": 1146, "conditions": [24, 800, "v", 12000], "trial": 6, "serialpos": 21, "trial_type": "single-stim", "trial_index": 246, "time_elapsed": 3108062, "internal_node_id": "0.0-183.0"}}, {"uniqueid": "MTK1024:36H9ULYP6312FE1OYOSVH7M574EFJD", "current_trial": 247, "dateTime": 1513011232844, "trialdata": {"rt": -1, "stimulus": "<p id=\"stim\">FEMALE</p>", "key_press": -1, "type": "PRES_VIS", "word": "female", "wordID": 558, "conditions": [24, 800, "v", 12000], "trial": 6, "serialpos": 22, "trial_type": "single-stim", "trial_index": 247, "time_elapsed": 3109864, "internal_node_id": "0.0-184.0"}}, {"uniqueid": "MTK1024:36H9ULYP6312FE1OYOSVH7M574EFJD", "current_trial": 248, "dateTime": 1513011234673, "trialdata": {"rt": -1, "stimulus": "<p id=\"stim\">TABLET</p>", "key_press": -1, "type": "PRES_VIS", "word": "tablet", "wordID": 1426, "conditions": [24, 800, "v", 12000], "trial": 6, "serialpos": 23, "trial_type": "single-stim", "trial_index": 248, "time_elapsed": 3111692, "internal_node_id": "0.0-185.0"}}, {"uniqueid": "MTK1024:36H9ULYP6312FE1OYOSVH7M574EFJD", "current_trial": 249, "dateTime": 1513011236962, "trialdata": {"rt": -1, "stimulus": "", "key_press": -1, "type": "PRE_RECALL_DELAY", "trial_type": "single-stim", "trial_index": 249, "time_elapsed": 3113982, "internal_node_id": "0.0-186.0-0.0"}}, {"uniqueid": "MTK1024:36H9ULYP6312FE1OYOSVH7M574EFJD", "current_trial": 250, "dateTime": 1513011237466, "trialdata": {"rt": -1000, "stimulus": "/static/audio/400Hz.wav", "key_press": -1, "type": "PRE_RECALL_ALERT", "trial_type": "single-audio", "trial_index": 250, "time_elapsed": 3114486, "internal_node_id": "0.0-187.0"}}, {"uniqueid": "MTK1024:36H9ULYP6312FE1OYOSVH7M574EFJD", "current_trial": 251, "dateTime": 1513011297493, "trialdata": {"rt": [5220, 7096, 10800, 17460, 19383, 21196, 23423, 27357, 29490, 31585], "recwords": ["donkey", "sausage", "widow", "badger", "barley", "lunch", "plate", "widow", "crib", "tablet"], "type": "FREE_RECALL", "conditions": [24, 800, "v", 12000], "trial": 6, "trial_type": "free-recall", "trial_index": 251, "time_elapsed": 3174491, "internal_node_id": "0.0-188.0-0.0"}}, {"uniqueid": "MTK1024:36H9ULYP6312FE1OYOSVH7M574EFJD", "current_trial": 252, "dateTime": 1513011329302, "trialdata": {"rt": 29806, "key_press": 32, "type": "INSTRUCTIONS", "trial_type": "text", "trial_index": 252, "time_elapsed": 3206322, "internal_node_id": "0.0-189.0"}}, {"uniqueid": "MTK1024:36H9ULYP6312FE1OYOSVH7M574EFJD", "current_trial": 253, "dateTime": 1513011355325, "trialdata": {"rt": [2397, 4579, 6025, 8972, 10719, 12423, 14312, 16702, 19508, 21047, 23258], "responses": ["21", "15", "4", "19", "13", "16", "2", "23", "16", "9", "17"], "num1": [8, 6, 1, 5, 1, 2, 6, 9, 7, 1, 1, 9], "num2": [5, 8, 2, 6, 7, 6, 6, 9, 5, 2, 8, 6], "num3": [8, 1, 1, 8, 5, 8, 9, 4, 4, 6, 8, 6], "type": "DISTRACTOR", "conditions": [24, 1600, "a", 24000], "trial": 7, "trial_type": "math-distractor", "trial_index": 253, "time_elapsed": 3232344, "internal_node_id": "0.0-190.0"}}, {"uniqueid": "MTK1024:36H9ULYP6312FE1OYOSVH7M574EFJD", "current_trial": 254, "dateTime": 1513011358328, "trialdata": {"rt": -1, "stimulus": "<p id=\"stim\">10</p>", "key_press": -1, "trial_type": "single-stim", "trial_index": 254, "time_elapsed": 3235348, "internal_node_id": "0.0-191.0-0.0"}}, {"uniqueid": "MTK1024:36H9ULYP6312FE1OYOSVH7M574EFJD", "current_trial": 255, "dateTime": 1513011359331, "trialdata": {"rt": -1, "stimulus": "<p id=\"stim\">9</p>", "key_press": -1, "trial_type": "single-stim", "trial_index": 255, "time_elapsed": 3236351, "internal_node_id": "0.0-191.0-1.0"}}, {"uniqueid": "MTK1024:36H9ULYP6312FE1OYOSVH7M574EFJD", "current_trial": 256, "dateTime": 1513011360344, "trialdata": {"rt": -1, "stimulus": "<p id=\"stim\">8</p>", "key_press": -1, "trial_type": "single-stim", "trial_index": 256, "time_elapsed": 3237364, "internal_node_id": "0.0-191.0-2.0"}}, {"uniqueid": "MTK1024:36H9ULYP6312FE1OYOSVH7M574EFJD", "current_trial": 257, "dateTime": 1513011361357, "trialdata": {"rt": -1, "stimulus": "<p id=\"stim\">7</p>", "key_press": -1, "trial_type": "single-stim", "trial_index": 257, "time_elapsed": 3238377, "internal_node_id": "0.0-191.0-3.0"}}, {"uniqueid": "MTK1024:36H9ULYP6312FE1OYOSVH7M574EFJD", "current_trial": 258, "dateTime": 1513011362377, "trialdata": {"rt": -1, "stimulus": "<p id=\"stim\">6</p>", "key_press": -1, "trial_type": "single-stim", "trial_index": 258, "time_elapsed": 3239396, "internal_node_id": "0.0-191.0-4.0"}}, {"uniqueid": "MTK1024:36H9ULYP6312FE1OYOSVH7M574EFJD", "current_trial": 259, "dateTime": 1513011363390, "trialdata": {"rt": -1, "stimulus": "<p id=\"stim\">5</p>", "key_press": -1, "trial_type": "single-stim", "trial_index": 259, "time_elapsed": 3240401, "internal_node_id": "0.0-191.0-5.0"}}, {"uniqueid": "MTK1024:36H9ULYP6312FE1OYOSVH7M574EFJD", "current_trial": 260, "dateTime": 1513011364394, "trialdata": {"rt": -1, "stimulus": "<p id=\"stim\">4</p>", "key_press": -1, "trial_type": "single-stim", "trial_index": 260, "time_elapsed": 3241414, "internal_node_id": "0.0-191.0-6.0"}}, {"uniqueid": "MTK1024:36H9ULYP6312FE1OYOSVH7M574EFJD", "current_trial": 261, "dateTime": 1513011365440, "trialdata": {"rt": -1, "stimulus": "<p id=\"stim\">3</p>", "key_press": -1, "trial_type": "single-stim", "trial_index": 261, "time_elapsed": 3242460, "internal_node_id": "0.0-191.0-7.0"}}, {"uniqueid": "MTK1024:36H9ULYP6312FE1OYOSVH7M574EFJD", "current_trial": 262, "dateTime": 1513011366445, "trialdata": {"rt": -1, "stimulus": "<p id=\"stim\">2</p>", "key_press": -1, "trial_type": "single-stim", "trial_index": 262, "time_elapsed": 3243465, "internal_node_id": "0.0-191.0-8.0"}}, {"uniqueid": "MTK1024:36H9ULYP6312FE1OYOSVH7M574EFJD", "current_trial": 263, "dateTime": 1513011367448, "trialdata": {"rt": -1, "stimulus": "<p id=\"stim\">1</p>", "key_press": -1, "trial_type": "single-stim", "trial_index": 263, "time_elapsed": 3244467, "internal_node_id": "0.0-191.0-9.0"}}, {"uniqueid": "MTK1024:36H9ULYP6312FE1OYOSVH7M574EFJD", "current_trial": 264, "dateTime": 1513011368970, "trialdata": {"rt": -1, "stimulus": "<p id=\"stim\">+</p>", "key_press": -1, "type": "FIXATION", "trial_type": "single-stim", "trial_index": 264, "time_elapsed": 3245989, "internal_node_id": "0.0-192.0-0.0"}}, {"uniqueid": "MTK1024:36H9ULYP6312FE1OYOSVH7M574EFJD", "current_trial": 265, "dateTime": 1513011371766, "trialdata": {"rt": -1000, "stimulus": "/static/audio/wordpool/DIME.wav", "key_press": -1, "type": "PRES_AUD", "word": "dime", "wordID": 465, "conditions": [24, 1600, "a", 24000], "trial": 7, "serialpos": 0, "trial_type": "single-audio", "trial_index": 265, "time_elapsed": 3248785, "internal_node_id": "0.0-193.0"}}, {"uniqueid": "MTK1024:36H9ULYP6312FE1OYOSVH7M574EFJD", "current_trial": 266, "dateTime": 1513011374197, "trialdata": {"rt": -1000, "stimulus": "/static/audio/wordpool/BROTHER.wav", "key_press": -1, "type": "PRES_AUD", "word": "brother", "wordID": 178, "conditions": [24, 1600, "a", 24000], "trial": 7, "serialpos": 1, "trial_type": "single-audio", "trial_index": 266, "time_elapsed": 3251216, "internal_node_id": "0.0-194.0"}}, {"uniqueid": "MTK1024:36H9ULYP6312FE1OYOSVH7M574EFJD", "current_trial": 267, "dateTime": 1513011376700, "trialdata": {"rt": -1000, "stimulus": "/static/audio/wordpool/SEAFOOD.wav", "key_press": -1, "type": "PRES_AUD", "word": "seafood", "wordID": 1259, "conditions": [24, 1600, "a", 24000], "trial": 7, "serialpos": 2, "trial_type": "single-audio", "trial_index": 267, "time_elapsed": 3253719, "internal_node_id": "0.0-195.0"}}, {"uniqueid": "MTK1024:36H9ULYP6312FE1OYOSVH7M574EFJD", "current_trial": 268, "dateTime": 1513011379161, "trialdata": {"rt": -1000, "stimulus": "/static/audio/wordpool/WAGON.wav", "key_press": -1, "type": "PRES_AUD", "word": "wagon", "wordID": 1577, "conditions": [24, 1600, "a", 24000], "trial": 7, "serialpos": 3, "trial_type": "single-audio", "trial_index": 268, "time_elapsed": 3256180, "internal_node_id": "0.0-196.0"}}, {"uniqueid": "MTK1024:36H9ULYP6312FE1OYOSVH7M574EFJD", "current_trial": 269, "dateTime": 1513011381803, "trialdata": {"rt": -1000, "stimulus": "/static/audio/wordpool/SKETCH.wav", "key_press": -1, "type": "PRES_AUD", "word": "sketch", "wordID": 1314, "conditions": [24, 1600, "a", 24000], "trial": 7, "serialpos": 4, "trial_type": "single-audio", "trial_index": 269, "time_elapsed": 3258823, "internal_node_id": "0.0-197.0"}}, {"uniqueid": "MTK1024:36H9ULYP6312FE1OYOSVH7M574EFJD", "current_trial": 270, "dateTime": 1513011384222, "trialdata": {"rt": -1000, "stimulus": "/static/audio/wordpool/DRAWING.wav", "key_press": -1, "type": "PRES_AUD", "word": "drawing", "wordID": 493, "conditions": [24, 1600, "a", 24000], "trial": 7, "serialpos": 5, "trial_type": "single-audio", "trial_index": 270, "time_elapsed": 3261242, "internal_node_id": "0.0-198.0"}}, {"uniqueid": "MTK1024:36H9ULYP6312FE1OYOSVH7M574EFJD", "current_trial": 271, "dateTime": 1513011386911, "trialdata": {"rt": -1000, "stimulus": "/static/audio/wordpoo