{"assignmentId": "30ZX6P7VF92IEKPCATDOXOSG1NPJ2Q", "workerId": "MTK1758", "questiondata": {"origin": "United States", "strat-rehearsal": "38", "marital": "Single", "education": "Master's degree", "ethnicity": "Not Hispanic", "color_depth": 24, "distracted": "No", "wrote-notes": "Yes", "strat-other": "", "screen_width": 1366, "avail_screen_width": 1366, "avail_screen_height": 728, "strat-image": "80", "language": "english", "gender": "Female", "age": "33", "gender_other": "", "race": ["White"], "strat-categorize": "97", "pixel_depth": 24, "strat-spatial": "75", "strat-story": "86", "race_other": "", "screen_height": 768}, "bonus": 0, "hitId": "3UYRNV2KIT6NW5KSF69FB2QGECD8NU", "counterbalance": 2553, "useragent": "Mozilla/5.0 (Windows NT 10.0; Win64; x64) AppleWebKit/537.36 (KHTML, like Gecko) Chrome/63.0.3239.132 Safari/537.36", "eventdata": [{"eventtype": "initialized", "interval": 0, "value": null, "timestamp": 1516296355723}, {"eventtype": "window_resize", "interval": 0, "value": [1366, 721], "timestamp": 1516296355723}, {"eventtype": "window_resize", "interval": 11018, "value": [1366, 677], "timestamp": 1516296366741}, {"eventtype": "focus", "interval": 33107, "value": "off", "timestamp": 1516296399848}, {"eventtype": "focus", "interval": 2587, "value": "on", "timestamp": 1516296402435}, {"eventtype": "focus", "interval": 2937, "value": "off", "timestamp": 1516296405372}, {"eventtype": "focus", "interval": 1250, "value": "on", "timestamp": 1516296406622}, {"eventtype": "focus", "interval": 335203, "value": "off", "timestamp": 1516296741825}, {"eventtype": "focus", "interval": 2710, "value": "on", "timestamp": 1516296744535}, {"eventtype": "focus", "interval": 1432080, "value": "off", "timestamp": 1516298176615}, {"eventtype": "focus", "interval": 12263, "value": "on", "timestamp": 1516298188878}, {"eventtype": "focus", "interval": 169384, "value": "off", "timestamp": 1516298358262}, {"eventtype": "focus", "interval": 11567, "value": "on", "timestamp": 1516298369829}], "data": [{"current_trial": 0, "trialdata": {"rt": 1666, "trial_type": "text", "internal_node_id": "0.0-0.0", "time_elapsed": 1674, "key_press": 222, "type": "INSTRUCTIONS", "trial_index": 0}, "uniqueid": "MTK1758:30ZX6P7VF92IEKPCATDOXOSG1NPJ2Q", "dateTime": 1516296358024}, {"current_trial": 1, "trialdata": {"rt": 13899, "trial_type": "text", "internal_node_id": "0.0-1.0", "time_elapsed": 15579, "key_press": 13, "type": "INSTRUCTIONS", "trial_index": 1}, "uniqueid": "MTK1758:30ZX6P7VF92IEKPCATDOXOSG1NPJ2Q", "dateTime": 1516296371928}, {"current_trial": 2, "trialdata": {"rt": [7801], "trial_type": "audio-test", "responses": ["ocean"], "internal_node_id": "0.0-2.0", "time_elapsed": 23454, "type": "AUDIO_TEST", "trial_index": 2}, "uniqueid": "MTK1758:30ZX6P7VF92IEKPCATDOXOSG1NPJ2Q", "dateTime": 1516296379802}, {"current_trial": 3, "trialdata": {"rt": [8399], "trial_type": "audio-test", "responses": ["crystal"], "internal_node_id": "0.0-3.0", "time_elapsed": 31871, "type": "AUDIO_TEST", "trial_index": 3}, "uniqueid": "MTK1758:30ZX6P7VF92IEKPCATDOXOSG1NPJ2Q", "dateTime": 1516296388219}, {"current_trial": 4, "trialdata": {"rt": [5599], "trial_type": "audio-test", "responses": ["spice"], "internal_node_id": "0.0-4.0", "time_elapsed": 37485, "type": "AUDIO_TEST", "trial_index": 4}, "uniqueid": "MTK1758:30ZX6P7VF92IEKPCATDOXOSG1NPJ2Q", "dateTime": 1516296393833}, {"current_trial": 5, "trialdata": {"rt": 30574, "trial_type": "survey-text", "responses": "{\"Q0\":\"2:00\",\"Q1\":\"10:00\",\"Q2\":\"4\"}", "internal_node_id": "0.0-5.0", "time_elapsed": 68819, "type": "SLEEP_SURVEY", "trial_index": 5}, "uniqueid": "MTK1758:30ZX6P7VF92IEKPCATDOXOSG1NPJ2Q", "dateTime": 1516296425168}, {"current_trial": 6, "trialdata": {"rt": 20681, "trial_type": "text", "internal_node_id": "0.0-6.0", "time_elapsed": 90503, "key_press": 13, "type": "INSTRUCTIONS", "trial_index": 6}, "uniqueid": "MTK1758:30ZX6P7VF92IEKPCATDOXOSG1NPJ2Q", "dateTime": 1516296446851}, {"current_trial": 7, "trialdata": {"rt": 6701, "trial_type": "text", "internal_node_id": "0.0-7.0", "time_elapsed": 97708, "key_press": 13, "type": "INSTRUCTIONS", "trial_index": 7}, "uniqueid": "MTK1758:30ZX6P7VF92IEKPCATDOXOSG1NPJ2Q", "dateTime": 1516296454056}, {"current_trial": 8, "trialdata": {"rt": 9138, "trial_type": "text", "internal_node_id": "0.0-8.0", "time_elapsed": 107348, "key_press": 13, "type": "INSTRUCTIONS", "trial_index": 8}, "uniqueid": "MTK1758:30ZX6P7VF92IEKPCATDOXOSG1NPJ2Q", "dateTime": 1516296463696}, {"current_trial": 9, "trialdata": {"rt": [4010, 7282, 10282, 12322, 14403, 17177], "trial_type": "math-distractor", "key_times": [3525, 3614, 4010, 6927, 7062, 7282, 10027, 10096, 10282, 12089, 12153, 12322, 14078, 14242, 14403, 16833, 16998, 17177], "responses": ["14", "16", "14", "15", "11", "16"], "num2": [8, 7, 3, 9, 2, 2, 4], "num3": [3, 6, 6, 5, 4, 9, 5], "conditions": [18, 1200, "v", 18000], "internal_node_id": "0.0-9.0", "key_presses": [49, 52, 13, 49, 54, 13, 49, 52, 13, 49, 53, 13, 49, 49, 13, 49, 54, 13], "trial": 0, "time_elapsed": 126362, "type": "DISTRACTOR", "trial_index": 9, "num1": [3, 3, 5, 1, 5, 5, 3]}, "uniqueid": "MTK1758:30ZX6P7VF92IEKPCATDOXOSG1NPJ2Q", "dateTime": 1516296482711}, {"current_trial": 10, "trialdata": {"rt": -1, "trial_type": "single-stim", "stimulus": "<p id=\"stim\">10</p>", "internal_node_id": "0.0-10.0-0.0", "time_elapsed": 129369, "key_press": -1, "trial_index": 10}, "uniqueid": "MTK1758:30ZX6P7VF92IEKPCATDOXOSG1NPJ2Q", "dateTime": 1516296485718}, {"current_trial": 11, "trialdata": {"rt": -1, "trial_type": "single-stim", "stimulus": "<p id=\"stim\">9</p>", "internal_node_id": "0.0-10.0-1.0", "time_elapsed": 130372, "key_press": -1, "trial_index": 11}, "uniqueid": "MTK1758:30ZX6P7VF92IEKPCATDOXOSG1NPJ2Q", "dateTime": 1516296486721}, {"current_trial": 12, "trialdata": {"rt": -1, "trial_type": "single-stim", "stimulus": "<p id=\"stim\">8</p>", "internal_node_id": "0.0-10.0-2.0", "time_elapsed": 131374, "key_press": -1, "trial_index": 12}, "uniqueid": "MTK1758:30ZX6P7VF92IEKPCATDOXOSG1NPJ2Q", "dateTime": 1516296487723}, {"current_trial": 13, "trialdata": {"rt": -1, "trial_type": "single-stim", "stimulus": "<p id=\"stim\">7</p>", "internal_node_id": "0.0-10.0-3.0", "time_elapsed": 132379, "key_press": -1, "trial_index": 13}, "uniqueid": "MTK1758:30ZX6P7VF92IEKPCATDOXOSG1NPJ2Q", "dateTime": 1516296488727}, {"current_trial": 14, "trialdata": {"rt": -1, "trial_type": "single-stim", "stimulus": "<p id=\"stim\">6</p>", "internal_node_id": "0.0-10.0-4.0", "time_elapsed": 133381, "key_press": -1, "trial_index": 14}, "uniqueid": "MTK1758:30ZX6P7VF92IEKPCATDOXOSG1NPJ2Q", "dateTime": 1516296489730}, {"current_trial": 15, "trialdata": {"rt": -1, "trial_type": "single-stim", "stimulus": "<p id=\"stim\">5</p>", "internal_node_id": "0.0-10.0-5.0", "time_elapsed": 134383, "key_press": -1, "trial_index": 15}, "uniqueid": "MTK1758:30ZX6P7VF92IEKPCATDOXOSG1NPJ2Q", "dateTime": 1516296490732}, {"current_trial": 16, "trialdata": {"rt": -1, "trial_type": "single-stim", "stimulus": "<p id=\"stim\">4</p>", "internal_node_id": "0.0-10.0-6.0", "time_elapsed": 135386, "key_press": -1, "trial_index": 16}, "uniqueid": "MTK1758:30ZX6P7VF92IEKPCATDOXOSG1NPJ2Q", "dateTime": 1516296491734}, {"current_trial": 17, "trialdata": {"rt": -1, "trial_type": "single-stim", "stimulus": "<p id=\"stim\">3</p>", "internal_node_id": "0.0-10.0-7.0", "time_elapsed": 136389, "key_press": -1, "trial_index": 17}, "uniqueid": "MTK1758:30ZX6P7VF92IEKPCATDOXOSG1NPJ2Q", "dateTime": 1516296492738}, {"current_trial": 18, "trialdata": {"rt": -1, "trial_type": "single-stim", "stimulus": "<p id=\"stim\">2</p>", "internal_node_id": "0.0-10.0-8.0", "time_elapsed": 137393, "key_press": -1, "trial_index": 18}, "uniqueid": "MTK1758:30ZX6P7VF92IEKPCATDOXOSG1NPJ2Q", "dateTime": 1516296493741}, {"current_trial": 19, "trialdata": {"rt": -1, "trial_type": "single-stim", "stimulus": "<p id=\"stim\">1</p>", "internal_node_id": "0.0-10.0-9.0", "time_elapsed": 138396, "key_press": -1, "trial_index": 19}, "uniqueid": "MTK1758:30ZX6P7VF92IEKPCATDOXOSG1NPJ2Q", "dateTime": 1516296494744}, {"current_trial": 20, "trialdata": {"rt": -1, "trial_type": "single-stim", "stimulus": "<p id=\"stim\">+</p>", "internal_node_id": "0.0-11.0-0.0", "time_elapsed": 139898, "key_press": -1, "type": "FIXATION", "trial_index": 20}, "uniqueid": "MTK1758:30ZX6P7VF92IEKPCATDOXOSG1NPJ2Q", "dateTime": 1516296496247}, {"current_trial": 21, "trialdata": {"rt": -1, "trial_type": "single-stim", "word": "drill", "stimulus": "<p id=\"stim\">DRILL</p>", "conditions": [18, 1200, "v", 18000], "internal_node_id": "0.0-12.0", "trial": 0, "time_elapsed": 141102, "serialpos": 0, "key_press": -1, "wordID": 496, "type": "PRES_VIS", "trial_index": 21}, "uniqueid": "MTK1758:30ZX6P7VF92IEKPCATDOXOSG1NPJ2Q", "dateTime": 1516296497450}, {"current_trial": 22, "trialdata": {"rt": -1, "trial_type": "single-stim", "word": "tweezers", "stimulus": "<p id=\"stim\">TWEEZERS</p>", "conditions": [18, 1200, "v", 18000], "internal_node_id": "0.0-13.0", "trial": 0, "time_elapsed": 143170, "serialpos": 1, "key_press": -1, "wordID": 1525, "type": "PRES_VIS", "trial_index": 22}, "uniqueid": "MTK1758:30ZX6P7VF92IEKPCATDOXOSG1NPJ2Q", "dateTime": 1516296499518}, {"current_trial": 23, "trialdata": {"rt": -1, "trial_type": "single-stim", "word": "lamp", "stimulus": "<p id=\"stim\">LAMP</p>", "conditions": [18, 1200, "v", 18000], "internal_node_id": "0.0-14.0", "trial": 0, "time_elapsed": 145318, "serialpos": 2, "key_press": -1, "wordID": 797, "type": "PRES_VIS", "trial_index": 23}, "uniqueid": "MTK1758:30ZX6P7VF92IEKPCATDOXOSG1NPJ2Q", "dateTime": 1516296501667}, {"current_trial": 24, "trialdata": {"rt": -1, "trial_type": "single-stim", "word": "pizza", "stimulus": "<p id=\"stim\">PIZZA</p>", "conditions": [18, 1200, "v", 18000], "internal_node_id": "0.0-15.0", "trial": 0, "time_elapsed": 147627, "serialpos": 3, "key_press": -1, "wordID": 1078, "type": "PRES_VIS", "trial_index": 24}, "uniqueid": "MTK1758:30ZX6P7VF92IEKPCATDOXOSG1NPJ2Q", "dateTime": 1516296503975}, {"current_trial": 25, "trialdata": {"rt": -1, "trial_type": "single-stim", "word": "skillet", "stimulus": "<p id=\"stim\">SKILLET</p>", "conditions": [18, 1200, "v", 18000], "internal_node_id": "0.0-16.0", "trial": 0, "time_elapsed": 149968, "serialpos": 4, "key_press": -1, "wordID": 1316, "type": "PRES_VIS", "trial_index": 25}, "uniqueid": "MTK1758:30ZX6P7VF92IEKPCATDOXOSG1NPJ2Q", "dateTime": 1516296506316}, {"current_trial": 26, "trialdata": {"rt": -1, "trial_type": "single-stim", "word": "candy", "stimulus": "<p id=\"stim\">CANDY</p>", "conditions": [18, 1200, "v", 18000], "internal_node_id": "0.0-17.0", "trial": 0, "time_elapsed": 152056, "serialpos": 5, "key_press": -1, "wordID": 229, "type": "PRES_VIS", "trial_index": 26}, "uniqueid": "MTK1758:30ZX6P7VF92IEKPCATDOXOSG1NPJ2Q", "dateTime": 1516296508404}, {"current_trial": 27, "trialdata": {"rt": -1, "trial_type": "single-stim", "word": "shortcake", "stimulus": "<p id=\"stim\">SHORTCAKE</p>", "conditions": [18, 1200, "v", 18000], "internal_node_id": "0.0-18.0", "trial": 0, "time_elapsed": 154452, "serialpos": 6, "key_press": -1, "wordID": 1291, "type": "PRES_VIS", "trial_index": 27}, "uniqueid": "MTK1758:30ZX6P7VF92IEKPCATDOXOSG1NPJ2Q", "dateTime": 1516296510800}, {"current_trial": 28, "trialdata": {"rt": -1, "trial_type": "single-stim", "word": "waiter", "stimulus": "<p id=\"stim\">WAITER</p>", "conditions": [18, 1200, "v", 18000], "internal_node_id": "0.0-19.0", "trial": 0, "time_elapsed": 156575, "serialpos": 7, "key_press": -1, "wordID": 1579, "type": "PRES_VIS", "trial_index": 28}, "uniqueid": "MTK1758:30ZX6P7VF92IEKPCATDOXOSG1NPJ2Q", "dateTime": 1516296512923}, {"current_trial": 29, "trialdata": {"rt": -1, "trial_type": "single-stim", "word": "salad", "stimulus": "<p id=\"stim\">SALAD</p>", "conditions": [18, 1200, "v", 18000], "internal_node_id": "0.0-20.0", "trial": 0, "time_elapsed": 158927, "serialpos": 8, "key_press": -1, "wordID": 1223, "type": "PRES_VIS", "trial_index": 29}, "uniqueid": "MTK1758:30ZX6P7VF92IEKPCATDOXOSG1NPJ2Q", "dateTime": 1516296515275}, {"current_trial": 30, "trialdata": {"rt": -1, "trial_type": "single-stim", "word": "creature", "stimulus": "<p id=\"stim\">CREATURE</p>", "conditions": [18, 1200, "v", 18000], "internal_node_id": "0.0-21.0", "trial": 0, "time_elapsed": 160966, "serialpos": 9, "key_press": -1, "wordID": 402, "type": "PRES_VIS", "trial_index": 30}, "uniqueid": "MTK1758:30ZX6P7VF92IEKPCATDOXOSG1NPJ2Q", "dateTime": 1516296517314}, {"current_trial": 31, "trialdata": {"rt": -1, "trial_type": "single-stim", "word": "scallop", "stimulus": "<p id=\"stim\">SCALLOP</p>", "conditions": [18, 1200, "v", 18000], "internal_node_id": "0.0-22.0", "trial": 0, "time_elapsed": 163207, "serialpos": 10, "key_press": -1, "wordID": 1241, "type": "PRES_VIS", "trial_index": 31}, "uniqueid": "MTK1758:30ZX6P7VF92IEKPCATDOXOSG1NPJ2Q", "dateTime": 1516296519555}, {"current_trial": 32, "trialdata": {"rt": -1, "trial_type": "single-stim", "word": "paddle", "stimulus": "<p id=\"stim\">PADDLE</p>", "conditions": [18, 1200, "v", 18000], "internal_node_id": "0.0-23.0", "trial": 0, "time_elapsed": 165357, "serialpos": 11, "key_press": -1, "wordID": 999, "type": "PRES_VIS", "trial_index": 32}, "uniqueid": "MTK1758:30ZX6P7VF92IEKPCATDOXOSG1NPJ2Q", "dateTime": 1516296521705}, {"current_trial": 33, "trialdata": {"rt": -1, "trial_type": "single-stim", "word": "fragrance", "stimulus": "<p id=\"stim\">FRAGRANCE</p>", "conditions": [18, 1200, "v", 18000], "internal_node_id": "0.0-24.0", "trial": 0, "time_elapsed": 167423, "serialpos": 12, "key_press": -1, "wordID": 598, "type": "PRES_VIS", "trial_index": 33}, "uniqueid": "MTK1758:30ZX6P7VF92IEKPCATDOXOSG1NPJ2Q", "dateTime": 1516296523772}, {"current_trial": 34, "trialdata": {"rt": -1, "trial_type": "single-stim", "word": "bunny", "stimulus": "<p id=\"stim\">BUNNY</p>", "conditions": [18, 1200, "v", 18000], "internal_node_id": "0.0-25.0", "trial": 0, "time_elapsed": 169722, "serialpos": 13, "key_press": -1, "wordID": 197, "type": "PRES_VIS", "trial_index": 34}, "uniqueid": "MTK1758:30ZX6P7VF92IEKPCATDOXOSG1NPJ2Q", "dateTime": 1516296526070}, {"current_trial": 35, "trialdata": {"rt": -1, "trial_type": "single-stim", "word": "mask", "stimulus": "<p id=\"stim\">MASK</p>", "conditions": [18, 1200, "v", 18000], "internal_node_id": "0.0-26.0", "trial": 0, "time_elapsed": 172081, "serialpos": 14, "key_press": -1, "wordID": 875, "type": "PRES_VIS", "trial_index": 35}, "uniqueid": "MTK1758:30ZX6P7VF92IEKPCATDOXOSG1NPJ2Q", "dateTime": 1516296528430}, {"current_trial": 36, "trialdata": {"rt": -1, "trial_type": "single-stim", "word": "patrol", "stimulus": "<p id=\"stim\">PATROL</p>", "conditions": [18, 1200, "v", 18000], "internal_node_id": "0.0-27.0", "trial": 0, "time_elapsed": 174159, "serialpos": 15, "key_press": -1, "wordID": 1026, "type": "PRES_VIS", "trial_index": 36}, "uniqueid": "MTK1758:30ZX6P7VF92IEKPCATDOXOSG1NPJ2Q", "dateTime": 1516296530507}, {"current_trial": 37, "trialdata": {"rt": -1, "trial_type": "single-stim", "word": "flask", "stimulus": "<p id=\"stim\">FLASK</p>", "conditions": [18, 1200, "v", 18000], "internal_node_id": "0.0-28.0", "trial": 0, "time_elapsed": 176257, "serialpos": 16, "key_press": -1, "wordID": 575, "type": "PRES_VIS", "trial_index": 37}, "uniqueid": "MTK1758:30ZX6P7VF92IEKPCATDOXOSG1NPJ2Q", "dateTime": 1516296532605}, {"current_trial": 38, "trialdata": {"rt": -1, "trial_type": "single-stim", "word": "pasta", "stimulus": "<p id=\"stim\">PASTA</p>", "conditions": [18, 1200, "v", 18000], "internal_node_id": "0.0-29.0", "trial": 0, "time_elapsed": 178267, "serialpos": 17, "key_press": -1, "wordID": 1020, "type": "PRES_VIS", "trial_index": 38}, "uniqueid": "MTK1758:30ZX6P7VF92IEKPCATDOXOSG1NPJ2Q", "dateTime": 1516296534615}, {"current_trial": 39, "trialdata": {"rt": -1, "trial_type": "single-stim", "stimulus": "", "internal_node_id": "0.0-30.0-0.0", "time_elapsed": 180618, "key_press": -1, "type": "PRE_RECALL_DELAY", "trial_index": 39}, "uniqueid": "MTK1758:30ZX6P7VF92IEKPCATDOXOSG1NPJ2Q", "dateTime": 1516296536966}, {"current_trial": 40, "trialdata": {"rt": -1000, "trial_type": "single-audio", "stimulus": "/static/audio/400Hz.wav", "internal_node_id": "0.0-31.0", "time_elapsed": 181123, "key_press": -1, "type": "PRE_RECALL_ALERT", "trial_index": 40}, "uniqueid": "MTK1758:30ZX6P7VF92IEKPCATDOXOSG1NPJ2Q", "dateTime": 1516296537471}, {"current_trial": 41, "trialdata": {"rt": [2149, 3043, 4975, 6089, 6985, 21877, 31068, 39155], "recwords": ["pasta", "mask", "fragrance", "bunny", "drill", "lamp", "waiter", "skill"], "key_times": [1397, 1531, 1758, 1935, 1998, 2149, 2534, 2647, 2715, 2826, 3043, 3827, 3992, 4105, 4322, 4538, 4608, 4702, 4797, 4879, 4975, 5373, 5457, 5649, 5797, 5852, 6089, 6329, 6414, 6503, 6562, 6717, 6985, 21322, 21410, 21527, 21626, 21877, 30394, 30495, 30560, 30711, 30872, 30926, 31068, 38399, 38512, 38715, 38783, 38955, 39155], "trial_type": "free-recall", "conditions": [18, 1200, "v", 18000], "internal_node_id": "0.0-32.0-0.0", "key_presses": [80, 65, 83, 84, 65, 13, 77, 65, 83, 75, 13, 70, 82, 65, 71, 82, 65, 78, 67, 69, 13, 66, 85, 78, 78, 89, 13, 68, 82, 73, 76, 76, 13, 76, 65, 77, 80, 13, 87, 65, 73, 84, 69, 82, 13, 83, 75, 73, 76, 76, 13], "trial": 0, "time_elapsed": 241136, "type": "FREE_RECALL", "trial_index": 41}, "uniqueid": "MTK1758:30ZX6P7VF92IEKPCATDOXOSG1NPJ2Q", "dateTime": 1516296597489}, {"current_trial": 42, "trialdata": {"rt": 3675, "trial_type": "text", "internal_node_id": "0.0-33.0", "time_elapsed": 246818, "key_press": 13, "type": "INSTRUCTIONS", "trial_index": 42}, "uniqueid": "MTK1758:30ZX6P7VF92IEKPCATDOXOSG1NPJ2Q", "dateTime": 1516296603167}, {"current_trial": 43, "trialdata": {"rt": [5210, 8194, 10280, 14277, 16719], "trial_type": "math-distractor", "key_times": [4075, 4164, 5210, 7833, 8045, 8194, 10080, 10148, 10280, 13650, 14077, 14277, 16416, 16719], "responses": ["12", "26", "12", "18", "8"], "num2": [7, 9, 3, 7, 5, 7], "num3": [4, 7, 2, 3, 2, 9], "conditions": [18, 1200, "v", 18000], "internal_node_id": "0.0-34.0", "key_presses": [49, 50, 13, 50, 54, 13, 49, 50, 13, 49, 56, 13, 56, 13], "trial": 1, "time_elapsed": 266826, "type": "DISTRACTOR", "trial_index": 43, "num1": [1, 9, 7, 8, 1, 4]}, "uniqueid": "MTK1758:30ZX6P7VF92IEKPCATDOXOSG1NPJ2Q", "dateTime": 1516296623174}, {"current_trial": 44, "trialdata": {"rt": -1, "trial_type": "single-stim", "stimulus": "<p id=\"stim\">10</p>", "internal_node_id": "0.0-35.0-0.0", "time_elapsed": 269831, "key_press": -1, "trial_index": 44}, "uniqueid": "MTK1758:30ZX6P7VF92IEKPCATDOXOSG1NPJ2Q", "dateTime": 1516296626179}, {"current_trial": 45, "trialdata": {"rt": -1, "trial_type": "single-stim", "stimulus": "<p id=\"stim\">9</p>", "internal_node_id": "0.0-35.0-1.0", "time_elapsed": 270834, "key_press": -1, "trial_index": 45}, "uniqueid": "MTK1758:30ZX6P7VF92IEKPCATDOXOSG1NPJ2Q", "dateTime": 1516296627182}, {"current_trial": 46, "trialdata": {"rt": -1, "trial_type": "single-stim", "stimulus": "<p id=\"stim\">8</p>", "internal_node_id": "0.0-35.0-2.0", "time_elapsed": 271837, "key_press": -1, "trial_index": 46}, "uniqueid": "MTK1758:30ZX6P7VF92IEKPCATDOXOSG1NPJ2Q", "dateTime": 1516296628185}, {"current_trial": 47, "trialdata": {"rt": -1, "trial_type": "single-stim", "stimulus": "<p id=\"stim\">7</p>", "internal_node_id": "0.0-35.0-3.0", "time_elapsed": 272840, "key_press": -1, "trial_index": 47}, "uniqueid": "MTK1758:30ZX6P7VF92IEKPCATDOXOSG1NPJ2Q", "dateTime": 1516296629189}, {"current_trial": 48, "trialdata": {"rt": -1, "trial_type": "single-stim", "stimulus": "<p id=\"stim\">6</p>", "internal_node_id": "0.0-35.0-4.0", "time_elapsed": 273843, "key_press": -1, "trial_index": 48}, "uniqueid": "MTK1758:30ZX6P7VF92IEKPCATDOXOSG1NPJ2Q", "dateTime": 1516296630191}, {"current_trial": 49, "trialdata": {"rt": -1, "trial_type": "single-stim", "stimulus": "<p id=\"stim\">5</p>", "internal_node_id": "0.0-35.0-5.0", "time_elapsed": 274847, "key_press": -1, "trial_index": 49}, "uniqueid": "MTK1758:30ZX6P7VF92IEKPCATDOXOSG1NPJ2Q", "dateTime": 1516296631195}, {"current_trial": 50, "trialdata": {"rt": -1, "trial_type": "single-stim", "stimulus": "<p id=\"stim\">4</p>", "internal_node_id": "0.0-35.0-6.0", "time_elapsed": 275849, "key_press": -1, "trial_index": 50}, "uniqueid": "MTK1758:30ZX6P7VF92IEKPCATDOXOSG1NPJ2Q", "dateTime": 1516296632197}, {"current_trial": 51, "trialdata": {"rt": -1, "trial_type": "single-stim", "stimulus": "<p id=\"stim\">3</p>", "internal_node_id": "0.0-35.0-7.0", "time_elapsed": 276851, "key_press": -1, "trial_index": 51}, "uniqueid": "MTK1758:30ZX6P7VF92IEKPCATDOXOSG1NPJ2Q", "dateTime": 1516296633200}, {"current_trial": 52, "trialdata": {"rt": -1, "trial_type": "single-stim", "stimulus": "<p id=\"stim\">2</p>", "internal_node_id": "0.0-35.0-8.0", "time_elapsed": 277855, "key_press": -1, "trial_index": 52}, "uniqueid": "MTK1758:30ZX6P7VF92IEKPCATDOXOSG1NPJ2Q", "dateTime": 1516296634203}, {"current_trial": 53, "trialdata": {"rt": -1, "trial_type": "single-stim", "stimulus": "<p id=\"stim\">1</p>", "internal_node_id": "0.0-35.0-9.0", "time_elapsed": 278858, "key_press": -1, "trial_index": 53}, "uniqueid": "MTK1758:30ZX6P7VF92IEKPCATDOXOSG1NPJ2Q", "dateTime": 1516296635206}, {"current_trial": 54, "trialdata": {"rt": -1, "trial_type": "single-stim", "stimulus": "<p id=\"stim\">+</p>", "internal_node_id": "0.0-36.0-0.0", "time_elapsed": 280360, "key_press": -1, "type": "FIXATION", "trial_index": 54}, "uniqueid": "MTK1758:30ZX6P7VF92IEKPCATDOXOSG1NPJ2Q", "dateTime": 1516296636708}, {"current_trial": 55, "trialdata": {"rt": -1, "trial_type": "single-stim", "word": "concert", "stimulus": "<p id=\"stim\">CONCERT</p>", "conditions": [18, 1200, "v", 18000], "internal_node_id": "0.0-37.0", "trial": 1, "time_elapsed": 281563, "serialpos": 0, "key_press": -1, "wordID": 359, "type": "PRES_VIS", "trial_index": 55}, "uniqueid": "MTK1758:30ZX6P7VF92IEKPCATDOXOSG1NPJ2Q", "dateTime": 1516296637912}, {"current_trial": 56, "trialdata": {"rt": -1, "trial_type": "single-stim", "word": "parent", "stimulus": "<p id=\"stim\">PARENT</p>", "conditions": [18, 1200, "v", 18000], "internal_node_id": "0.0-38.0", "trial": 1, "time_elapsed": 283729, "serialpos": 1, "key_press": -1, "wordID": 1012, "type": "PRES_VIS", "trial_index": 56}, "uniqueid": "MTK1758:30ZX6P7VF92IEKPCATDOXOSG1NPJ2Q", "dateTime": 1516296640078}, {"current_trial": 57, "trialdata": {"rt": -1, "trial_type": "single-stim", "word": "typist", "stimulus": "<p id=\"stim\">TYPIST</p>", "conditions": [18, 1200, "v", 18000], "internal_node_id": "0.0-39.0", "trial": 1, "time_elapsed": 285762, "serialpos": 2, "key_press": -1, "wordID": 1531, "type": "PRES_VIS", "trial_index": 57}, "uniqueid": "MTK1758:30ZX6P7VF92IEKPCATDOXOSG1NPJ2Q", "dateTime": 1516296642110}, {"current_trial": 58, "trialdata": {"rt": -1, "trial_type": "single-stim", "word": "bug", "stimulus": "<p id=\"stim\">BUG</p>", "conditions": [18, 1200, "v", 18000], "internal_node_id": "0.0-40.0", "trial": 1, "time_elapsed": 287792, "serialpos": 3, "key_press": -1, "wordID": 186, "type": "PRES_VIS", "trial_index": 58}, "uniqueid": "MTK1758:30ZX6P7VF92IEKPCATDOXOSG1NPJ2Q", "dateTime": 1516296644140}, {"current_trial": 59, "trialdata": {"rt": -1, "trial_type": "single-stim", "word": "turnip", "stimulus": "<p id=\"stim\">TURNIP</p>", "conditions": [18, 1200, "v", 18000], "internal_node_id": "0.0-41.0", "trial": 1, "time_elapsed": 290063, "serialpos": 4, "key_press": -1, "wordID": 1520, "type": "PRES_VIS", "trial_index": 59}, "uniqueid": "MTK1758:30ZX6P7VF92IEKPCATDOXOSG1NPJ2Q", "dateTime": 1516296646411}, {"current_trial": 60, "trialdata": {"rt": -1, "trial_type": "single-stim", "word": "comet", "stimulus": "<p id=\"stim\">COMET</p>", "conditions": [18, 1200, "v", 18000], "internal_node_id": "0.0-42.0", "trial": 1, "time_elapsed": 292295, "serialpos": 5, "key_press": -1, "wordID": 352, "type": "PRES_VIS", "trial_index": 60}, "uniqueid": "MTK1758:30ZX6P7VF92IEKPCATDOXOSG1NPJ2Q", "dateTime": 1516296648643}, {"current_trial": 61, "trialdata": {"rt": -1, "trial_type": "single-stim", "word": "europe", "stimulus": "<p id=\"stim\">EUROPE</p>", "conditions": [18, 1200, "v", 18000], "internal_node_id": "0.0-43.0", "trial": 1, "time_elapsed": 294461, "serialpos": 6, "key_press": -1, "wordID": 540, "type": "PRES_VIS", "trial_index": 61}, "uniqueid": "MTK1758:30ZX6P7VF92IEKPCATDOXOSG1NPJ2Q", "dateTime": 1516296650810}, {"current_trial": 62, "trialdata": {"rt": -1, "trial_type": "single-stim", "word": "inmate", "stimulus": "<p id=\"stim\">INMATE</p>", "conditions": [18, 1200, "v", 18000], "internal_node_id": "0.0-44.0", "trial": 1, "time_elapsed": 296827, "serialpos": 7, "key_press": -1, "wordID": 737, "type": "PRES_VIS", "trial_index": 62}, "uniqueid": "MTK1758:30ZX6P7VF92IEKPCATDOXOSG1NPJ2Q", "dateTime": 1516296653175}, {"current_trial": 63, "trialdata": {"rt": -1, "trial_type": "single-stim", "word": "bouquet", "stimulus": "<p id=\"stim\">BOUQUET</p>", "conditions": [18, 1200, "v", 18000], "internal_node_id": "0.0-45.0", "trial": 1, "time_elapsed": 299098, "serialpos": 8, "key_press": -1, "wordID": 156, "type": "PRES_VIS", "trial_index": 63}, "uniqueid": "MTK1758:30ZX6P7VF92IEKPCATDOXOSG1NPJ2Q", "dateTime": 1516296655446}, {"current_trial": 64, "trialdata": {"rt": -1, "trial_type": "single-stim", "word": "backbone", "stimulus": "<p id=\"stim\">BACKBONE</p>", "conditions": [18, 1200, "v", 18000], "internal_node_id": "0.0-46.0", "trial": 1, "time_elapsed": 301226, "serialpos": 9, "key_press": -1, "wordID": 65, "type": "PRES_VIS", "trial_index": 64}, "uniqueid": "MTK1758:30ZX6P7VF92IEKPCATDOXOSG1NPJ2Q", "dateTime": 1516296657574}, {"current_trial": 65, "trialdata": {"rt": -1, "trial_type": "single-stim", "word": "globe", "stimulus": "<p id=\"stim\">GLOBE</p>", "conditions": [18, 1200, "v", 18000], "internal_node_id": "0.0-47.0", "trial": 1, "time_elapsed": 303333, "serialpos": 10, "key_press": -1, "wordID": 640, "type": "PRES_VIS", "trial_index": 65}, "uniqueid": "MTK1758:30ZX6P7VF92IEKPCATDOXOSG1NPJ2Q", "dateTime": 1516296659681}, {"current_trial": 66, "trialdata": {"rt": -1, "trial_type": "single-stim", "word": "actress", "stimulus": "<p id=\"stim\">ACTRESS</p>", "conditions": [18, 1200, "v", 18000], "internal_node_id": "0.0-48.0", "trial": 1, "time_elapsed": 305681, "serialpos": 11, "key_press": -1, "wordID": 5, "type": "PRES_VIS", "trial_index": 66}, "uniqueid": "MTK1758:30ZX6P7VF92IEKPCATDOXOSG1NPJ2Q", "dateTime": 1516296662030}, {"current_trial": 67, "trialdata": {"rt": -1, "trial_type": "single-stim", "word": "woman", "stimulus": "<p id=\"stim\">WOMAN</p>", "conditions": [18, 1200, "v", 18000], "internal_node_id": "0.0-49.0", "trial": 1, "time_elapsed": 308060, "serialpos": 12, "key_press": -1, "wordID": 1619, "type": "PRES_VIS", "trial_index": 67}, "uniqueid": "MTK1758:30ZX6P7VF92IEKPCATDOXOSG1NPJ2Q", "dateTime": 1516296664408}, {"current_trial": 68, "trialdata": {"rt": -1, "trial_type": "single-stim", "word": "sibling", "stimulus": "<p id=\"stim\">SIBLING</p>", "conditions": [18, 1200, "v", 18000], "internal_node_id": "0.0-50.0", "trial": 1, "time_elapsed": 310450, "serialpos": 13, "key_press": -1, "wordID": 1300, "type": "PRES_VIS", "trial_index": 68}, "uniqueid": "MTK1758:30ZX6P7VF92IEKPCATDOXOSG1NPJ2Q", "dateTime": 1516296666803}, {"current_trial": 69, "trialdata": {"rt": -1, "trial_type": "single-stim", "word": "bathtub", "stimulus": "<p id=\"stim\">BATHTUB</p>", "conditions": [18, 1200, "v", 18000], "internal_node_id": "0.0-51.0", "trial": 1, "time_elapsed": 312582, "serialpos": 14, "key_press": -1, "wordID": 99, "type": "PRES_VIS", "trial_index": 69}, "uniqueid": "MTK1758:30ZX6P7VF92IEKPCATDOXOSG1NPJ2Q", "dateTime": 1516296668930}, {"current_trial": 70, "trialdata": {"rt": -1, "trial_type": "single-stim", "word": "lizard", "stimulus": "<p id=\"stim\">LIZARD</p>", "conditions": [18, 1200, "v", 18000], "internal_node_id": "0.0-52.0", "trial": 1, "time_elapsed": 314659, "serialpos": 15, "key_press": -1, "wordID": 833, "type": "PRES_VIS", "trial_index": 70}, "uniqueid": "MTK1758:30ZX6P7VF92IEKPCATDOXOSG1NPJ2Q", "dateTime": 1516296671008}, {"current_trial": 71, "trialdata": {"rt": -1, "trial_type": "single-stim", "word": "pilot", "stimulus": "<p id=\"stim\">PILOT</p>", "conditions": [18, 1200, "v", 18000], "internal_node_id": "0.0-53.0", "trial": 1, "time_elapsed": 316684, "serialpos": 16, "key_press": -1, "wordID": 1069, "type": "PRES_VIS", "trial_index": 71}, "uniqueid": "MTK1758:30ZX6P7VF92IEKPCATDOXOSG1NPJ2Q", "dateTime": 1516296673032}, {"current_trial": 72, "trialdata": {"rt": -1, "trial_type": "single-stim", "word": "rust", "stimulus": "<p id=\"stim\">RUST</p>", "conditions": [18, 1200, "v", 18000], "internal_node_id": "0.0-54.0", "trial": 1, "time_elapsed": 319050, "serialpos": 17, "key_press": -1, "wordID": 1218, "type": "PRES_VIS", "trial_index": 72}, "uniqueid": "MTK1758:30ZX6P7VF92IEKPCATDOXOSG1NPJ2Q", "dateTime": 1516296675399}, {"current_trial": 73, "trialdata": {"rt": -1, "trial_type": "single-stim", "stimulus": "", "internal_node_id": "0.0-55.0-0.0", "time_elapsed": 321333, "key_press": -1, "type": "PRE_RECALL_DELAY", "trial_index": 73}, "uniqueid": "MTK1758:30ZX6P7VF92IEKPCATDOXOSG1NPJ2Q", "dateTime": 1516296677681}, {"current_trial": 74, "trialdata": {"rt": -1000, "trial_type": "single-audio", "stimulus": "/static/audio/400Hz.wav", "internal_node_id": "0.0-56.0", "time_elapsed": 321836, "key_press": -1, "type": "PRE_RECALL_ALERT", "trial_index": 74}, "uniqueid": "MTK1758:30ZX6P7VF92IEKPCATDOXOSG1NPJ2Q", "dateTime": 1516296678184}, {"current_trial": 75, "trialdata": {"rt": [2749, 3793, 5050, 5721, 6619, 16294, 26078], "recwords": ["bathtub", "pilot", "woman", "rust", "sibling", "pilot", "actress"], "key_times": [734, 876, 942, 1031, 1173, 1298, 1353, 1777, 1900, 2038, 2325, 2379, 2444, 2749, 3077, 3199, 3375, 3498, 3614, 3793, 4085, 4643, 4693, 4793, 4878, 5050, 5311, 5420, 5498, 5586, 5721, 5948, 6027, 6120, 6229, 6310, 6340, 6448, 6619, 15291, 15448, 15892, 16021, 16076, 16294, 24886, 25237, 25463, 25652, 25702, 25751, 25927, 26078], "trial_type": "free-recall", "conditions": [18, 1200, "v", 18000], "internal_node_id": "0.0-57.0-0.0", "key_presses": [66, 65, 84, 72, 82, 85, 66, 8, 8, 8, 84, 85, 66, 13, 80, 73, 76, 79, 84, 13, 87, 79, 77, 65, 78, 13, 82, 85, 83, 84, 13, 83, 73, 66, 76, 73, 78, 71, 13, 80, 73, 76, 79, 84, 13, 65, 67, 84, 82, 69, 83, 83, 13], "trial": 1, "time_elapsed": 381842, "type": "FREE_RECALL", "trial_index": 75}, "uniqueid": "MTK1758:30ZX6P7VF92IEKPCATDOXOSG1NPJ2Q", "dateTime": 1516296738196}, {"current_trial": 76, "trialdata": {"rt": 118815, "trial_type": "text", "internal_node_id": "0.0-58.0", "time_elapsed": 502665, "key_press": 13, "type": "INSTRUCTIONS", "trial_index": 76}, "uniqueid": "MTK1758:30ZX6P7VF92IEKPCATDOXOSG1NPJ2Q", "dateTime": 1516296859014}, {"current_trial": 77, "trialdata": {"rt": [1691, 3547, 5680, 7768, 9854], "trial_type": "math-distractor", "key_times": [1431, 1514, 1691, 3431, 3547, 5474, 5576, 5680, 7535, 7598, 7768, 9620, 9646, 9854], "responses": ["12", "8", "21", "13", "13"], "num2": [2, 3, 7, 5, 2, 9], "num3": [6, 2, 7, 7, 6, 4], "conditions": [24, 1600, "v", 12000], "internal_node_id": "0.0-59.0", "key_presses": [49, 50, 13, 56, 13, 50, 49, 13, 49, 51, 13, 49, 51, 13], "trial": 2, "time_elapsed": 515673, "type": "DISTRACTOR", "trial_index": 77, "num1": [4, 3, 7, 1, 5, 3]}, "uniqueid": "MTK1758:30ZX6P7VF92IEKPCATDOXOSG1NPJ2Q", "dateTime": 1516296872021}, {"current_trial": 78, "trialdata": {"rt": -1, "trial_type": "single-stim", "stimulus": "<p id=\"stim\">10</p>", "internal_node_id": "0.0-60.0-0.0", "time_elapsed": 518677, "key_press": -1, "trial_index": 78}, "uniqueid": "MTK1758:30ZX6P7VF92IEKPCATDOXOSG1NPJ2Q", "dateTime": 1516296875027}, {"current_trial": 79, "trialdata": {"rt": -1, "trial_type": "single-stim", "stimulus": "<p id=\"stim\">9</p>", "internal_node_id": "0.0-60.0-1.0", "time_elapsed": 519681, "key_press": -1, "trial_index": 79}, "uniqueid": "MTK1758:30ZX6P7VF92IEKPCATDOXOSG1NPJ2Q", "dateTime": 1516296876029}, {"current_trial": 80, "trialdata": {"rt": -1, "trial_type": "single-stim", "stimulus": "<p id=\"stim\">8</p>", "internal_node_id": "0.0-60.0-2.0", "time_elapsed": 520686, "key_press": -1, "trial_index": 80}, "uniqueid": "MTK1758:30ZX6P7VF92IEKPCATDOXOSG1NPJ2Q", "dateTime": 1516296877034}, {"current_trial": 81, "trialdata": {"rt": -1, "trial_type": "single-stim", "stimulus": "<p id=\"stim\">7</p>", "internal_node_id": "0.0-60.0-3.0", "time_elapsed": 521689, "key_press": -1, "trial_index": 81}, "uniqueid": "MTK1758:30ZX6P7VF92IEKPCATDOXOSG1NPJ2Q", "dateTime": 1516296878037}, {"current_trial": 82, "trialdata": {"rt": -1, "trial_type": "single-stim", "stimulus": "<p id=\"stim\">6</p>", "internal_node_id": "0.0-60.0-4.0", "time_elapsed": 522692, "key_press": -1, "trial_index": 82}, "uniqueid": "MTK1758:30ZX6P7VF92IEKPCATDOXOSG1NPJ2Q", "dateTime": 1516296879040}, {"current_trial": 83, "trialdata": {"rt": -1, "trial_type": "single-stim", "stimulus": "<p id=\"stim\">5</p>", "internal_node_id": "0.0-60.0-5.0", "time_elapsed": 523693, "key_press": -1, "trial_index": 83}, "uniqueid": "MTK1758:30ZX6P7VF92IEKPCATDOXOSG1NPJ2Q", "dateTime": 1516296880041}, {"current_trial": 84, "trialdata": {"rt": -1, "trial_type": "single-stim", "stimulus": "<p id=\"stim\">4</p>", "internal_node_id": "0.0-60.0-6.0", "time_elapsed": 524697, "key_press": -1, "trial_index": 84}, "uniqueid": "MTK1758:30ZX6P7VF92IEKPCATDOXOSG1NPJ2Q", "dateTime": 1516296881045}, {"current_trial": 85, "trialdata": {"rt": -1, "trial_type": "single-stim", "stimulus": "<p id=\"stim\">3</p>", "internal_node_id": "0.0-60.0-7.0", "time_elapsed": 525699, "key_press": -1, "trial_index": 85}, "uniqueid": "MTK1758:30ZX6P7VF92IEKPCATDOXOSG1NPJ2Q", "dateTime": 1516296882048}, {"current_trial": 86, "trialdata": {"rt": -1, "trial_type": "single-stim", "stimulus": "<p id=\"stim\">2</p>", "internal_node_id": "0.0-60.0-8.0", "time_elapsed": 526702, "key_press": -1, "trial_index": 86}, "uniqueid": "MTK1758:30ZX6P7VF92IEKPCATDOXOSG1NPJ2Q", "dateTime": 1516296883050}, {"current_trial": 87, "trialdata": {"rt": -1, "trial_type": "single-stim", "stimulus": "<p id=\"stim\">1</p>", "internal_node_id": "0.0-60.0-9.0", "time_elapsed": 527703, "key_press": -1, "trial_index": 87}, "uniqueid": "MTK1758:30ZX6P7VF92IEKPCATDOXOSG1NPJ2Q", "dateTime": 1516296884052}, {"current_trial": 88, "trialdata": {"rt": -1, "trial_type": "single-stim", "stimulus": "<p id=\"stim\">+</p>", "internal_node_id": "0.0-61.0-0.0", "time_elapsed": 529207, "key_press": -1, "type": "FIXATION", "trial_index": 88}, "uniqueid": "MTK1758:30ZX6P7VF92IEKPCATDOXOSG1NPJ2Q", "dateTime": 1516296885555}, {"current_trial": 89, "trialdata": {"rt": -1, "trial_type": "single-stim", "word": "snake", "stimulus": "<p id=\"stim\">SNAKE</p>", "conditions": [24, 1600, "v", 12000], "internal_node_id": "0.0-62.0", "trial": 2, "time_elapsed": 530810, "serialpos": 0, "key_press": -1, "wordID": 1332, "type": "PRES_VIS", "trial_index": 89}, "uniqueid": "MTK1758:30ZX6P7VF92IEKPCATDOXOSG1NPJ2Q", "dateTime": 1516296887158}, {"current_trial": 90, "trialdata": {"rt": -1, "trial_type": "single-stim", "word": "silk", "stimulus": "<p id=\"stim\">SILK</p>", "conditions": [24, 1600, "v", 12000], "internal_node_id": "0.0-63.0", "trial": 2, "time_elapsed": 533508, "serialpos": 1, "key_press": -1, "wordID": 1306, "type": "PRES_VIS", "trial_index": 90}, "uniqueid": "MTK1758:30ZX6P7VF92IEKPCATDOXOSG1NPJ2Q", "dateTime": 1516296889856}, {"current_trial": 91, "trialdata": {"rt": -1, "trial_type": "single-stim", "word": "foot", "stimulus": "<p id=\"stim\">FOOT</p>", "conditions": [24, 1600, "v", 12000], "internal_node_id": "0.0-64.0", "trial": 2, "time_elapsed": 535933, "serialpos": 2, "key_press": -1, "wordID": 589, "type": "PRES_VIS", "trial_index": 91}, "uniqueid": "MTK1758:30ZX6P7VF92IEKPCATDOXOSG1NPJ2Q", "dateTime": 1516296892281}, {"current_trial": 92, "trialdata": {"rt": -1, "trial_type": "single-stim", "word": "puppy", "stimulus": "<p id=\"stim\">PUPPY</p>", "conditions": [24, 1600, "v", 12000], "internal_node_id": "0.0-65.0", "trial": 2, "time_elapsed": 538529, "serialpos": 3, "key_press": -1, "wordID": 1143, "type": "PRES_VIS", "trial_index": 92}, "uniqueid": "MTK1758:30ZX6P7VF92IEKPCATDOXOSG1NPJ2Q", "dateTime": 1516296894877}, {"current_trial": 93, "trialdata": {"rt": -1, "trial_type": "single-stim", "word": "brook", "stimulus": "<p id=\"stim\">BROOK</p>", "conditions": [24, 1600, "v", 12000], "internal_node_id": "0.0-66.0", "trial": 2, "time_elapsed": 541262, "serialpos": 4, "key_press": -1, "wordID": 176, "type": "PRES_VIS", "trial_index": 93}, "uniqueid": "MTK1758:30ZX6P7VF92IEKPCATDOXOSG1NPJ2Q", "dateTime": 1516296897610}, {"current_trial": 94, "trialdata": {"rt": -1, "trial_type": "single-stim", "word": "crevice", "stimulus": "<p id=\"stim\">CREVICE</p>", "conditions": [24, 1600, "v", 12000], "internal_node_id": "0.0-67.0", "trial": 2, "time_elapsed": 543809, "serialpos": 5, "key_press": -1, "wordID": 404, "type": "PRES_VIS", "trial_index": 94}, "uniqueid": "MTK1758:30ZX6P7VF92IEKPCATDOXOSG1NPJ2Q", "dateTime": 1516296900157}, {"current_trial": 95, "trialdata": {"rt": -1, "trial_type": "single-stim", "word": "rabbit", "stimulus": "<p id=\"stim\">RABBIT</p>", "conditions": [24, 1600, "v", 12000], "internal_node_id": "0.0-68.0", "trial": 2, "time_elapsed": 546285, "serialpos": 6, "key_press": -1, "wordID": 1151, "type": "PRES_VIS", "trial_index": 95}, "uniqueid": "MTK1758:30ZX6P7VF92IEKPCATDOXOSG1NPJ2Q", "dateTime": 1516296902633}, {"current_trial": 96, "trialdata": {"rt": -1, "trial_type": "single-stim", "word": "knife", "stimulus": "<p id=\"stim\">KNIFE</p>", "conditions": [24, 1600, "v", 12000], "internal_node_id": "0.0-69.0", "trial": 2, "time_elapsed": 549045, "serialpos": 7, "key_press": -1, "wordID": 784, "type": "PRES_VIS", "trial_index": 96}, "uniqueid": "MTK1758:30ZX6P7VF92IEKPCATDOXOSG1NPJ2Q", "dateTime": 1516296905394}, {"current_trial": 97, "trialdata": {"rt": -1, "trial_type": "single-stim", "word": "sword", "stimulus": "<p id=\"stim\">SWORD</p>", "conditions": [24, 1600, "v", 12000], "internal_node_id": "0.0-70.0", "trial": 2, "time_elapsed": 551801, "serialpos": 8, "key_press": -1, "wordID": 1422, "type": "PRES_VIS", "trial_index": 97}, "uniqueid": "MTK1758:30ZX6P7VF92IEKPCATDOXOSG1NPJ2Q", "dateTime": 1516296908149}, {"current_trial": 98, "trialdata": {"rt": -1, "trial_type": "single-stim", "word": "turtle", "stimulus": "<p id=\"stim\">TURTLE</p>", "conditions": [24, 1600, "v", 12000], "internal_node_id": "0.0-71.0", "trial": 2, "time_elapsed": 554554, "serialpos": 9, "key_press": -1, "wordID": 1521, "type": "PRES_VIS", "trial_index": 98}, "uniqueid": "MTK1758:30ZX6P7VF92IEKPCATDOXOSG1NPJ2Q", "dateTime": 1516296910902}, {"current_trial": 99, "trialdata": {"rt": -1, "trial_type": "single-stim", "word": "gift", "stimulus": "<p id=\"stim\">GIFT</p>", "conditions": [24, 1600, "v", 12000], "internal_node_id": "0.0-72.0", "trial": 2, "time_elapsed": 557143, "serialpos": 10, "key_press": -1, "wordID": 634, "type": "PRES_VIS", "trial_index": 99}, "uniqueid": "MTK1758:30ZX6P7VF92IEKPCATDOXOSG1NPJ2Q", "dateTime": 1516296913492}, {"current_trial": 100, "trialdata": {"rt": -1, "trial_type": "single-stim", "word": "flower", "stimulus": "<p id=\"stim\">FLOWER</p>", "conditions": [24, 1600, "v", 12000], "internal_node_id": "0.0-73.0", "trial": 2, "time_elapsed": 559822, "serialpos": 11, "key_press": -1, "wordID": 583, "type": "PRES_VIS", "trial_index": 100}, "uniqueid": "MTK1758:30ZX6P7VF92IEKPCATDOXOSG1NPJ2Q", "dateTime": 1516296916171}, {"current_trial": 101, "trialdata": {"rt": -1, "trial_type": "single-stim", "word": "bank", "stimulus": "<p id=\"stim\">BANK</p>", "conditions": [24, 1600, "v", 12000], "internal_node_id": "0.0-74.0", "trial": 2, "time_elapsed": 562460, "serialpos": 12, "key_press": -1, "wordID": 82, "type": "PRES_VIS", "trial_index": 101}, "uniqueid": "MTK1758:30ZX6P7VF92IEKPCATDOXOSG1NPJ2Q", "dateTime": 1516296918808}, {"current_trial": 102, "trialdata": {"rt": -1, "trial_type": "single-stim", "word": "branch", "stimulus": "<p id=\"stim\">BRANCH</p>", "conditions": [24, 1600, "v", 12000], "internal_node_id": "0.0-75.0", "trial": 2, "time_elapsed": 565136, "serialpos": 13, "key_press": -1, "wordID": 167, "type": "PRES_VIS", "trial_index": 102}, "uniqueid": "MTK1758:30ZX6P7VF92IEKPCATDOXOSG1NPJ2Q", "dateTime": 1516296921485}, {"current_trial": 103, "trialdata": {"rt": -1, "trial_type": "single-stim", "word": "shark", "stimulus": "<p id=\"stim\">SHARK</p>", "conditions": [24, 1600, "v", 12000], "internal_node_id": "0.0-76.0", "trial": 2, "time_elapsed": 567871, "serialpos": 14, "key_press": -1, "wordID": 1274, "type": "PRES_VIS", "trial_index": 103}, "uniqueid": "MTK1758:30ZX6P7VF92IEKPCATDOXOSG1NPJ2Q", "dateTime": 1516296924219}, {"current_trial": 104, "trialdata": {"rt": -1, "trial_type": "single-stim", "word": "goblin", "stimulus": "<p id=\"stim\">GOBLIN</p>", "conditions": [24, 1600, "v", 12000], "internal_node_id": "0.0-77.0", "trial": 2, "time_elapsed": 570338, "serialpos": 15, "key_press": -1, "wordID": 644, "type": "PRES_VIS", "trial_index": 104}, "uniqueid": "MTK1758:30ZX6P7VF92IEKPCATDOXOSG1NPJ2Q", "dateTime": 1516296926686}, {"current_trial": 105, "trialdata": {"rt": -1, "trial_type": "single-stim", "word": "pebble", "stimulus": "<p id=\"stim\">PEBBLE</p>", "conditions": [24, 1600, "v", 12000], "internal_node_id": "0.0-78.0", "trial": 2, "time_elapsed": 573093, "serialpos": 16, "key_press": -1, "wordID": 1034, "type": "PRES_VIS", "trial_index": 105}, "uniqueid": "MTK1758:30ZX6P7VF92IEKPCATDOXOSG1NPJ2Q", "dateTime": 1516296929441}, {"current_trial": 106, "trialdata": {"rt": -1, "trial_type": "single-stim", "word": "sphinx", "stimulus": "<p id=\"stim\">SPHINX</p>", "conditions": [24, 1600, "v", 12000], "internal_node_id": "0.0-79.0", "trial": 2, "time_elapsed": 575586, "serialpos": 17, "key_press": -1, "wordID": 1348, "type": "PRES_VIS", "trial_index": 106}, "uniqueid": "MTK1758:30ZX6P7VF92IEKPCATDOXOSG1NPJ2Q", "dateTime": 1516296931934}, {"current_trial": 107, "trialdata": {"rt": -1, "trial_type": "single-stim", "word": "mop", "stimulus": "<p id=\"stim\">MOP</p>", "conditions": [24, 1600, "v", 12000], "internal_node_id": "0.0-80.0", "trial": 2, "time_elapsed": 578265, "serialpos": 18, "key_press": -1, "wordID": 915, "type": "PRES_VIS", "trial_index": 107}, "uniqueid": "MTK1758:30ZX6P7VF92IEKPCATDOXOSG1NPJ2Q", "dateTime": 1516296934613}, {"current_trial": 108, "trialdata": {"rt": -1, "trial_type": "single-stim", "word": "scissors", "stimulus": "<p id=\"stim\">SCISSORS</p>", "conditions": [24, 1600, "v", 12000], "internal_node_id": "0.0-81.0", "trial": 2, "time_elapsed": 580861, "serialpos": 19, "key_press": -1, "wordID": 1249, "type": "PRES_VIS", "trial_index": 108}, "uniqueid": "MTK1758:30ZX6P7VF92IEKPCATDOXOSG1NPJ2Q", "dateTime": 1516296937209}, {"current_trial": 109, "trialdata": {"rt": -1, "trial_type": "single-stim", "word": "mammal", "stimulus": "<p id=\"stim\">MAMMAL</p>", "conditions": [24, 1600, "v", 12000], "internal_node_id": "0.0-82.0", "trial": 2, "time_elapsed": 583642, "serialpos": 20, "key_press": -1, "wordID": 860, "type": "PRES_VIS", "trial_index": 109}, "uniqueid": "MTK1758:30ZX6P7VF92IEKPCATDOXOSG1NPJ2Q", "dateTime": 1516296939990}, {"current_trial": 110, "trialdata": {"rt": -1, "trial_type": "single-stim", "word": "dresser", "stimulus": "<p id=\"stim\">DRESSER</p>", "conditions": [24, 1600, "v", 12000], "internal_node_id": "0.0-83.0", "trial": 2, "time_elapsed": 586356, "serialpos": 21, "key_press": -1, "wordID": 495, "type": "PRES_VIS", "trial_index": 110}, "uniqueid": "MTK1758:30ZX6P7VF92IEKPCATDOXOSG1NPJ2Q", "dateTime": 1516296942704}, {"current_trial": 111, "trialdata": {"rt": -1, "trial_type": "single-stim", "word": "shoulder", "stimulus": "<p id=\"stim\">SHOULDER</p>", "conditions": [24, 1600, "v", 12000], "internal_node_id": "0.0-84.0", "trial": 2, "time_elapsed": 588847, "serialpos": 22, "key_press": -1, "wordID": 1293, "type": "PRES_VIS", "trial_index": 111}, "uniqueid": "MTK1758:30ZX6P7VF92IEKPCATDOXOSG1NPJ2Q", "dateTime": 1516296945195}, {"current_trial": 112, "trialdata": {"rt": 342, "trial_type": "single-stim", "word": "nurse", "stimulus": "<p id=\"stim\">NURSE</p>", "conditions": [24, 1600, "v", 12000], "internal_node_id": "0.0-85.0", "trial": 2, "time_elapsed": 591434, "serialpos": 23, "key_press": 17, "wordID": 962, "type": "PRES_VIS", "trial_index": 112}, "uniqueid": "MTK1758:30ZX6P7VF92IEKPCATDOXOSG1NPJ2Q", "dateTime": 1516296947782}, {"current_trial": 113, "trialdata": {"rt": -1, "trial_type": "single-stim", "stimulus": "", "internal_node_id": "0.0-86.0-0.0", "time_elapsed": 593660, "key_press": -1, "type": "PRE_RECALL_DELAY", "trial_index": 113}, "uniqueid": "MTK1758:30ZX6P7VF92IEKPCATDOXOSG1NPJ2Q", "dateTime": 1516296950008}, {"current_trial": 114, "trialdata": {"rt": -1000, "trial_type": "single-audio", "stimulus": "/static/audio/400Hz.wav", "internal_node_id": "0.0-87.0", "time_elapsed": 594161, "key_press": -1, "type": "PRE_RECALL_ALERT", "trial_index": 114}, "uniqueid": "MTK1758:30ZX6P7VF92IEKPCATDOXOSG1NPJ2Q", "dateTime": 1516296950510}, {"current_trial": 115, "trialdata": {"rt": [1736, 2413, 3964, 5444, 11614, 13063, 14580, 23332, 36189, 45578, 52548], "recwords": ["shoulder", "snake", "shark", "mammal", "knife", "sword", "rabbit", "goblin", "rabbit", "warm", "crevice"], "key_times": [137, 1038, 1098, 1300, 1349, 1386, 1469, 1613, 1674, 1736, 1960, 2030, 2117, 2190, 2280, 2413, 2567, 2709, 2820, 2882, 2957, 3964, 4528, 4640, 4841, 5009, 5108, 5195, 5444, 10964, 11198, 11246, 11367, 11429, 11614, 12357, 12544, 12616, 12755, 12813, 13063, 13934, 13960, 14082, 14253, 14300, 14378, 14580, 22460, 22547, 22762, 22900, 22951, 23004, 23332, 23979, 24111, 25971, 26068, 26238, 26380, 26510, 35489, 35549, 35680, 35863, 35908, 35985, 36189, 44242, 44306, 44388, 44527, 45578, 51564, 51826, 51897, 52089, 52201, 52310, 52393, 52548], "trial_type": "free-recall", "conditions": [24, 1600, "v", 12000], "internal_node_id": "0.0-88.0-0.0", "key_presses": [17, 83, 72, 79, 85, 76, 68, 69, 82, 13, 83, 78, 65, 75, 69, 13, 83, 72, 65, 82, 75, 13, 77, 65, 77, 77, 65, 76, 13, 75, 78, 73, 70, 69, 13, 83, 87, 79, 82, 68, 13, 82, 65, 66, 66, 73, 84, 13, 71, 79, 66, 76, 73, 78, 13, 17, 175, 17, 174, 174, 174, 174, 82, 65, 66, 66, 73, 84, 13, 87, 65, 82, 77, 13, 67, 82, 69, 86, 73, 67, 69, 13], "trial": 2, "time_elapsed": 654169, "type": "FREE_RECALL", "trial_index": 115}, "uniqueid": "MTK1758:30ZX6P7VF92IEKPCATDOXOSG1NPJ2Q", "dateTime": 1516297010522}, {"current_trial": 116, "trialdata": {"rt": 973, "trial_type": "text", "internal_node_id": "0.0-89.0", "time_elapsed": 657149, "key_press": 13, "type": "INSTRUCTIONS", "trial_index": 116}, "uniqueid": "MTK1758:30ZX6P7VF92IEKPCATDOXOSG1NPJ2Q", "dateTime": 1516297013497}, {"current_trial": 117, "trialdata": {"rt": [1957, 4807, 6719, 8649, 10371, 15429, 18263, 20622, 22885], "trial_type": "math-distractor", "key_times": [1698, 1793, 1957, 4584, 4647, 4807, 6372, 6634, 6719, 8448, 8509, 8649, 10133, 10245, 10371, 14840, 15112, 15429, 18039, 18120, 18263, 20269, 20433, 20622, 22695, 22745, 22885], "responses": ["14", "23", "15", "14", "15", "17", "12", "11", "14"], "num2": [4, 7, 9, 6, 1, 7, 4, 9, 5, 3], "num3": [5, 9, 1, 5, 5, 8, 4, 1, 7, 4], "conditions": [12, 800, "v", 24000], "internal_node_id": "0.0-90.0", "key_presses": [49, 52, 13, 50, 51, 13, 49, 53, 13, 49, 52, 13, 49, 53, 13, 49, 55, 13, 49, 50, 13, 49, 49, 13, 49, 52, 13], "trial": 3, "time_elapsed": 683158, "type": "DISTRACTOR", "trial_index": 117, "num1": [5, 7, 5, 3, 9, 4, 4, 1, 2, 4]}, "uniqueid": "MTK1758:30ZX6P7VF92IEKPCATDOXOSG1NPJ2Q", "dateTime": 1516297039506}, {"current_trial": 118, "trialdata": {"rt": -1, "trial_type": "single-stim", "stimulus": "<p id=\"stim\">10</p>", "internal_node_id": "0.0-91.0-0.0", "time_elapsed": 686162, "key_press": -1, "trial_index": 118}, "uniqueid": "MTK1758:30ZX6P7VF92IEKPCATDOXOSG1NPJ2Q", "dateTime": 1516297042511}, {"current_trial": 119, "trialdata": {"rt": -1, "trial_type": "single-stim", "stimulus": "<p id=\"stim\">9</p>", "internal_node_id": "0.0-91.0-1.0", "time_elapsed": 687165, "key_press": -1, "trial_index": 119}, "uniqueid": "MTK1758:30ZX6P7VF92IEKPCATDOXOSG1NPJ2Q", "dateTime": 1516297043513}, {"current_trial": 120, "trialdata": {"rt": -1, "trial_type": "single-stim", "stimulus": "<p id=\"stim\">8</p>", "internal_node_id": "0.0-91.0-2.0", "time_elapsed": 688167, "key_press": -1, "trial_index": 120}, "uniqueid": "MTK1758:30ZX6P7VF92IEKPCATDOXOSG1NPJ2Q", "dateTime": 1516297044516}, {"current_trial": 121, "trialdata": {"rt": -1, "trial_type": "single-stim", "stimulus": "<p id=\"stim\">7</p>", "internal_node_id": "0.0-91.0-3.0", "time_elapsed": 689170, "key_press": -1, "trial_index": 121}, "uniqueid": "MTK1758:30ZX6P7VF92IEKPCATDOXOSG1NPJ2Q", "dateTime": 1516297045521}, {"current_trial": 122, "trialdata": {"rt": -1, "trial_type": "single-stim", "stimulus": "<p id=\"stim\">6</p>", "internal_node_id": "0.0-91.0-4.0", "time_elapsed": 690176, "key_press": -1, "trial_index": 122}, "uniqueid": "MTK1758:30ZX6P7VF92IEKPCATDOXOSG1NPJ2Q", "dateTime": 1516297046525}, {"current_trial": 123, "trialdata": {"rt": -1, "trial_type": "single-stim", "stimulus": "<p id=\"stim\">5</p>", "internal_node_id": "0.0-91.0-5.0", "time_elapsed": 691180, "key_press": -1, "trial_index": 123}, "uniqueid": "MTK1758:30ZX6P7VF92IEKPCATDOXOSG1NPJ2Q", "dateTime": 1516297047528}, {"current_trial": 124, "trialdata": {"rt": -1, "trial_type": "single-stim", "stimulus": "<p id=\"stim\">4</p>", "internal_node_id": "0.0-91.0-6.0", "time_elapsed": 692182, "key_press": -1, "trial_index": 124}, "uniqueid": "MTK1758:30ZX6P7VF92IEKPCATDOXOSG1NPJ2Q", "dateTime": 1516297048530}, {"current_trial": 125, "trialdata": {"rt": -1, "trial_type": "single-stim", "stimulus": "<p id=\"stim\">3</p>", "internal_node_id": "0.0-91.0-7.0", "time_elapsed": 693185, "key_press": -1, "trial_index": 125}, "uniqueid": "MTK1758:30ZX6P7VF92IEKPCATDOXOSG1NPJ2Q", "dateTime": 1516297049533}, {"current_trial": 126, "trialdata": {"rt": -1, "trial_type": "single-stim", "stimulus": "<p id=\"stim\">2</p>", "internal_node_id": "0.0-91.0-8.0", "time_elapsed": 694188, "key_press": -1, "trial_index": 126}, "uniqueid": "MTK1758:30ZX6P7VF92IEKPCATDOXOSG1NPJ2Q", "dateTime": 1516297050536}, {"current_trial": 127, "trialdata": {"rt": -1, "trial_type": "single-stim", "stimulus": "<p id=\"stim\">1</p>", "internal_node_id": "0.0-91.0-9.0", "time_elapsed": 695190, "key_press": -1, "trial_index": 127}, "uniqueid": "MTK1758:30ZX6P7VF92IEKPCATDOXOSG1NPJ2Q", "dateTime": 1516297051538}, {"current_trial": 128, "trialdata": {"rt": -1, "trial_type": "single-stim", "stimulus": "<p id=\"stim\">+</p>", "internal_node_id": "0.0-92.0-0.0", "time_elapsed": 696692, "key_press": -1, "type": "FIXATION", "trial_index": 128}, "uniqueid": "MTK1758:30ZX6P7VF92IEKPCATDOXOSG1NPJ2Q", "dateTime": 1516297053040}, {"current_trial": 129, "trialdata": {"rt": -1, "trial_type": "single-stim", "word": "widow", "stimulus": "<p id=\"stim\">WIDOW</p>", "conditions": [12, 800, "v", 24000], "internal_node_id": "0.0-93.0", "trial": 3, "time_elapsed": 697495, "serialpos": 0, "key_press": -1, "wordID": 1607, "type": "PRES_VIS", "trial_index": 129}, "uniqueid": "MTK1758:30ZX6P7VF92IEKPCATDOXOSG1NPJ2Q", "dateTime": 1516297053843}, {"current_trial": 130, "trialdata": {"rt": -1, "trial_type": "single-stim", "word": "dandruff", "stimulus": "<p id=\"stim\">DANDRUFF</p>", "conditions": [12, 800, "v", 24000], "internal_node_id": "0.0-94.0", "trial": 3, "time_elapsed": 699163, "serialpos": 1, "key_press": -1, "wordID": 438, "type": "PRES_VIS", "trial_index": 130}, "uniqueid": "MTK1758:30ZX6P7VF92IEKPCATDOXOSG1NPJ2Q", "dateTime": 1516297055511}, {"current_trial": 131, "trialdata": {"rt": -1, "trial_type": "single-stim", "word": "couch", "stimulus": "<p id=\"stim\">COUCH</p>", "conditions": [12, 800, "v", 24000], "internal_node_id": "0.0-95.0", "trial": 3, "time_elapsed": 700946, "serialpos": 2, "key_press": -1, "wordID": 385, "type": "PRES_VIS", "trial_index": 131}, "uniqueid": "MTK1758:30ZX6P7VF92IEKPCATDOXOSG1NPJ2Q", "dateTime": 1516297057294}, {"current_trial": 132, "trialdata": {"rt": -1, "trial_type": "single-stim", "word": "rod", "stimulus": "<p id=\"stim\">ROD</p>", "conditions": [12, 800, "v", 24000], "internal_node_id": "0.0-96.0", "trial": 3, "time_elapsed": 702578, "serialpos": 3, "key_press": -1, "wordID": 1202, "type": "PRES_VIS", "trial_index": 132}, "uniqueid": "MTK1758:30ZX6P7VF92IEKPCATDOXOSG1NPJ2Q", "dateTime": 1516297058926}, {"current_trial": 133, "trialdata": {"rt": -1, "trial_type": "single-stim", "word": "banquet", "stimulus": "<p id=\"stim\">BANQUET</p>", "conditions": [12, 800, "v", 24000], "internal_node_id": "0.0-97.0", "trial": 3, "time_elapsed": 704274, "serialpos": 4, "key_press": -1, "wordID": 85, "type": "PRES_VIS", "trial_index": 133}, "uniqueid": "MTK1758:30ZX6P7VF92IEKPCATDOXOSG1NPJ2Q", "dateTime": 1516297060622}, {"current_trial": 134, "trialdata": {"rt": -1, "trial_type": "single-stim", "word": "dime", "stimulus": "<p id=\"stim\">DIME</p>", "conditions": [12, 800, "v", 24000], "internal_node_id": "0.0-98.0", "trial": 3, "time_elapsed": 705886, "serialpos": 5, "key_press": -1, "wordID": 465, "type": "PRES_VIS", "trial_index": 134}, "uniqueid": "MTK1758:30ZX6P7VF92IEKPCATDOXOSG1NPJ2Q", "dateTime": 1516297062234}, {"current_trial": 135, "trialdata": {"rt": -1, "trial_type": "single-stim", "word": "gymnast", "stimulus": "<p id=\"stim\">GYMNAST</p>", "conditions": [12, 800, "v", 24000], "internal_node_id": "0.0-99.0", "trial": 3, "time_elapsed": 707782, "serialpos": 6, "key_press": -1, "wordID": 674, "type": "PRES_VIS", "trial_index": 135}, "uniqueid": "MTK1758:30ZX6P7VF92IEKPCATDOXOSG1NPJ2Q", "dateTime": 1516297064131}, {"current_trial": 136, "trialdata": {"rt": -1, "trial_type": "single-stim", "word": "actor", "stimulus": "<p id=\"stim\">ACTOR</p>", "conditions": [12, 800, "v", 24000], "internal_node_id": "0.0-100.0", "trial": 3, "time_elapsed": 709724, "serialpos": 7, "key_press": -1, "wordID": 4, "type": "PRES_VIS", "trial_index": 136}, "uniqueid": "MTK1758:30ZX6P7VF92IEKPCATDOXOSG1NPJ2Q", "dateTime": 1516297066072}, {"current_trial": 137, "trialdata": {"rt": -1, "trial_type": "single-stim", "word": "garlic", "stimulus": "<p id=\"stim\">GARLIC</p>", "conditions": [12, 800, "v", 24000], "internal_node_id": "0.0-101.0", "trial": 3, "time_elapsed": 711647, "serialpos": 8, "key_press": -1, "wordID": 623, "type": "PRES_VIS", "trial_index": 137}, "uniqueid": "MTK1758:30ZX6P7VF92IEKPCATDOXOSG1NPJ2Q", "dateTime": 1516297067995}, {"current_trial": 138, "trialdata": {"rt": -1, "trial_type": "single-stim", "word": "mattress", "stimulus": "<p id=\"stim\">MATTRESS</p>", "conditions": [12, 800, "v", 24000], "internal_node_id": "0.0-102.0", "trial": 3, "time_elapsed": 713383, "serialpos": 9, "key_press": -1, "wordID": 878, "type": "PRES_VIS", "trial_index": 138}, "uniqueid": "MTK1758:30ZX6P7VF92IEKPCATDOXOSG1NPJ2Q", "dateTime": 1516297069731}, {"current_trial": 139, "trialdata": {"rt": -1, "trial_type": "single-stim", "word": "doughnut", "stimulus": "<p id=\"stim\">DOUGHNUT</p>", "conditions": [12, 800, "v", 24000], "internal_node_id": "0.0-103.0", "trial": 3, "time_elapsed": 715230, "serialpos": 10, "key_press": -1, "wordID": 489, "type": "PRES_VIS", "trial_index": 139}, "uniqueid": "MTK1758:30ZX6P7VF92IEKPCATDOXOSG1NPJ2Q", "dateTime": 1516297071579}, {"current_trial": 140, "trialdata": {"rt": -1, "trial_type": "single-stim", "word": "muffin", "stimulus": "<p id=\"stim\">MUFFIN</p>", "conditions": [12, 800, "v", 24000], "internal_node_id": "0.0-104.0", "trial": 3, "time_elapsed": 717202, "serialpos": 11, "key_press": -1, "wordID": 928, "type": "PRES_VIS", "trial_index": 140}, "uniqueid": "MTK1758:30ZX6P7VF92IEKPCATDOXOSG1NPJ2Q", "dateTime": 1516297073550}, {"current_trial": 141, "trialdata": {"rt": -1, "trial_type": "single-stim", "stimulus": "", "internal_node_id": "0.0-105.0-0.0", "time_elapsed": 719516, "key_press": -1, "type": "PRE_RECALL_DELAY", "trial_index": 141}, "uniqueid": "MTK1758:30ZX6P7VF92IEKPCATDOXOSG1NPJ2Q", "dateTime": 1516297075864}, {"current_trial": 142, "trialdata": {"rt": -1000, "trial_type": "single-audio", "stimulus": "/static/audio/400Hz.wav", "internal_node_id": "0.0-106.0", "time_elapsed": 720019, "key_press": -1, "type": "PRE_RECALL_ALERT", "trial_index": 142}, "uniqueid": "MTK1758:30ZX6P7VF92IEKPCATDOXOSG1NPJ2Q", "dateTime": 1516297076369}, {"current_trial": 143, "trialdata": {"rt": [2303, 3509, 4298, 5064, 6486, 9006, 41090, 55132], "recwords": ["doughnut", "muffin", "actor", "garlic", "mattress", "dandruff", "banquet", "muffin"], "key_times": [847, 1151, 1210, 1417, 1775, 1998, 2048, 2149, 2303, 2518, 2854, 2981, 3115, 3210, 3287, 3509, 3630, 3740, 3935, 4026, 4123, 4298, 4449, 4598, 4643, 4722, 4779, 4874, 5064, 5362, 5461, 5535, 5671, 5874, 5879, 5932, 6101, 6486, 8061, 8190, 8259, 8335, 8561, 8659, 8760, 8919, 9006, 40261, 40339, 40433, 40626, 40714, 40812, 40937, 41090, 54032, 54246, 54332, 54645, 54810, 54881, 55132], "trial_type": "free-recall", "conditions": [12, 800, "v", 24000], "internal_node_id": "0.0-107.0-0.0", "key_presses": [68, 79, 85, 71, 72, 78, 85, 84, 13, 77, 85, 70, 70, 73, 78, 13, 65, 67, 84, 79, 82, 13, 71, 65, 82, 76, 73, 67, 13, 77, 65, 84, 84, 82, 69, 83, 83, 13, 68, 65, 78, 68, 82, 85, 70, 70, 13, 66, 65, 78, 81, 85, 69, 84, 13, 77, 85, 70, 70, 73, 78, 13], "trial": 3, "time_elapsed": 780027, "type": "FREE_RECALL", "trial_index": 143}, "uniqueid": "MTK1758:30ZX6P7VF92IEKPCATDOXOSG1NPJ2Q", "dateTime": 1516297136382}, {"current_trial": 144, "trialdata": {"rt": 786, "trial_type": "text", "internal_node_id": "0.0-108.0", "time_elapsed": 782822, "key_press": 13, "type": "INSTRUCTIONS", "trial_index": 144}, "uniqueid": "MTK1758:30ZX6P7VF92IEKPCATDOXOSG1NPJ2Q", "dateTime": 1516297139170}, {"current_trial": 145, "trialdata": {"rt": [2320, 4057, 5803, 8384], "trial_type": "math-distractor", "key_times": [1781, 2081, 2320, 3896, 3969, 4057, 5321, 5612, 5803, 8111, 8166, 8384], "responses": ["17", "13", "16", "18"], "num2": [3, 1, 9, 6, 9], "num3": [6, 7, 6, 3, 8], "conditions": [24, 1600, "v", 12000], "internal_node_id": "0.0-109.0", "key_presses": [49, 55, 13, 49, 51, 13, 49, 54, 13, 49, 56, 13], "trial": 4, "time_elapsed": 796829, "type": "DISTRACTOR", "trial_index": 145, "num1": [8, 5, 1, 9, 4]}, "uniqueid": "MTK1758:30ZX6P7VF92IEKPCATDOXOSG1NPJ2Q", "dateTime": 1516297153177}, {"current_trial": 146, "trialdata": {"rt": -1, "trial_type": "single-stim", "stimulus": "<p id=\"stim\">10</p>", "internal_node_id": "0.0-110.0-0.0", "time_elapsed": 799832, "key_press": -1, "trial_index": 146}, "uniqueid": "MTK1758:30ZX6P7VF92IEKPCATDOXOSG1NPJ2Q", "dateTime": 1516297156181}, {"current_trial": 147, "trialdata": {"rt": -1, "trial_type": "single-stim", "stimulus": "<p id=\"stim\">9</p>", "internal_node_id": "0.0-110.0-1.0", "time_elapsed": 800835, "key_press": -1, "trial_index": 147}, "uniqueid": "MTK1758:30ZX6P7VF92IEKPCATDOXOSG1NPJ2Q", "dateTime": 1516297157183}, {"current_trial": 148, "trialdata": {"rt": -1, "trial_type": "single-stim", "stimulus": "<p id=\"stim\">8</p>", "internal_node_id": "0.0-110.0-2.0", "time_elapsed": 801837, "key_press": -1, "trial_index": 148}, "uniqueid": "MTK1758:30ZX6P7VF92IEKPCATDOXOSG1NPJ2Q", "dateTime": 1516297158186}, {"current_trial": 149, "trialdata": {"rt": -1, "trial_type": "single-stim", "stimulus": "<p id=\"stim\">7</p>", "internal_node_id": "0.0-110.0-3.0", "time_elapsed": 802840, "key_press": -1, "trial_index": 149}, "uniqueid": "MTK1758:30ZX6P7VF92IEKPCATDOXOSG1NPJ2Q", "dateTime": 1516297159188}, {"current_trial": 150, "trialdata": {"rt": -1, "trial_type": "single-stim", "stimulus": "<p id=\"stim\">6</p>", "internal_node_id": "0.0-110.0-4.0", "time_elapsed": 803843, "key_press": -1, "trial_index": 150}, "uniqueid": "MTK1758:30ZX6P7VF92IEKPCATDOXOSG1NPJ2Q", "dateTime": 1516297160191}, {"current_trial": 151, "trialdata": {"rt": -1, "trial_type": "single-stim", "stimulus": "<p id=\"stim\">5</p>", "internal_node_id": "0.0-110.0-5.0", "time_elapsed": 804846, "key_press": -1, "trial_index": 151}, "uniqueid": "MTK1758:30ZX6P7VF92IEKPCATDOXOSG1NPJ2Q", "dateTime": 1516297161194}, {"current_trial": 152, "trialdata": {"rt": -1, "trial_type": "single-stim", "stimulus": "<p id=\"stim\">4</p>", "internal_node_id": "0.0-110.0-6.0", "time_elapsed": 805849, "key_press": -1, "trial_index": 152}, "uniqueid": "MTK1758:30ZX6P7VF92IEKPCATDOXOSG1NPJ2Q", "dateTime": 1516297162198}, {"current_trial": 153, "trialdata": {"rt": -1, "trial_type": "single-stim", "stimulus": "<p id=\"stim\">3</p>", "internal_node_id": "0.0-110.0-7.0", "time_elapsed": 806852, "key_press": -1, "trial_index": 153}, "uniqueid": "MTK1758:30ZX6P7VF92IEKPCATDOXOSG1NPJ2Q", "dateTime": 1516297163201}, {"current_trial": 154, "trialdata": {"rt": -1, "trial_type": "single-stim", "stimulus": "<p id=\"stim\">2</p>", "internal_node_id": "0.0-110.0-8.0", "time_elapsed": 807860, "key_press": -1, "trial_index": 154}, "uniqueid": "MTK1758:30ZX6P7VF92IEKPCATDOXOSG1NPJ2Q", "dateTime": 1516297164208}, {"current_trial": 155, "trialdata": {"rt": -1, "trial_type": "single-stim", "stimulus": "<p id=\"stim\">1</p>", "internal_node_id": "0.0-110.0-9.0", "time_elapsed": 808863, "key_press": -1, "trial_index": 155}, "uniqueid": "MTK1758:30ZX6P7VF92IEKPCATDOXOSG1NPJ2Q", "dateTime": 1516297165212}, {"current_trial": 156, "trialdata": {"rt": -1, "trial_type": "single-stim", "stimulus": "<p id=\"stim\">+</p>", "internal_node_id": "0.0-111.0-0.0", "time_elapsed": 810367, "key_press": -1, "type": "FIXATION", "trial_index": 156}, "uniqueid": "MTK1758:30ZX6P7VF92IEKPCATDOXOSG1NPJ2Q", "dateTime": 1516297166715}, {"current_trial": 157, "trialdata": {"rt": -1, "trial_type": "single-stim", "word": "apron", "stimulus": "<p id=\"stim\">APRON</p>", "conditions": [24, 1600, "v", 12000], "internal_node_id": "0.0-112.0", "trial": 4, "time_elapsed": 811970, "serialpos": 0, "key_press": -1, "wordID": 34, "type": "PRES_VIS", "trial_index": 157}, "uniqueid": "MTK1758:30ZX6P7VF92IEKPCATDOXOSG1NPJ2Q", "dateTime": 1516297168318}, {"current_trial": 158, "trialdata": {"rt": -1, "trial_type": "single-stim", "word": "wardrobe", "stimulus": "<p id=\"stim\">WARDROBE</p>", "conditions": [24, 1600, "v", 12000], "internal_node_id": "0.0-113.0", "trial": 4, "time_elapsed": 814670, "serialpos": 1, "key_press": -1, "wordID": 1586, "type": "PRES_VIS", "trial_index": 158}, "uniqueid": "MTK1758:30ZX6P7VF92IEKPCATDOXOSG1NPJ2Q", "dateTime": 1516297171018}, {"current_trial": 159, "trialdata": {"rt": -1, "trial_type": "single-stim", "word": "scarf", "stimulus": "<p id=\"stim\">SCARF</p>", "conditions": [24, 1600, "v", 12000], "internal_node_id": "0.0-114.0", "trial": 4, "time_elapsed": 817321, "serialpos": 2, "key_press": -1, "wordID": 1245, "type": "PRES_VIS", "trial_index": 159}, "uniqueid": "MTK1758:30ZX6P7VF92IEKPCATDOXOSG1NPJ2Q", "dateTime": 1516297173669}, {"current_trial": 160, "trialdata": {"rt": -1, "trial_type": "single-stim", "word": "farmer", "stimulus": "<p id=\"stim\">FARMER</p>", "conditions": [24, 1600, "v", 12000], "internal_node_id": "0.0-115.0", "trial": 4, "time_elapsed": 820087, "serialpos": 3, "key_press": -1, "wordID": 552, "type": "PRES_VIS", "trial_index": 160}, "uniqueid": "MTK1758:30ZX6P7VF92IEKPCATDOXOSG1NPJ2Q", "dateTime": 1516297176435}, {"current_trial": 161, "trialdata": {"rt": -1, "trial_type": "single-stim", "word": "donor", "stimulus": "<p id=\"stim\">DONOR</p>", "conditions": [24, 1600, "v", 12000], "internal_node_id": "0.0-116.0", "trial": 4, "time_elapsed": 822703, "serialpos": 4, "key_press": -1, "wordID": 484, "type": "PRES_VIS", "trial_index": 161}, "uniqueid": "MTK1758:30ZX6P7VF92IEKPCATDOXOSG1NPJ2Q", "dateTime": 1516297179052}, {"current_trial": 162, "trialdata": {"rt": -1, "trial_type": "single-stim", "word": "carriage", "stimulus": "<p id=\"stim\">CARRIAGE</p>", "conditions": [24, 1600, "v", 12000], "internal_node_id": "0.0-117.0", "trial": 4, "time_elapsed": 825462, "serialpos": 5, "key_press": -1, "wordID": 247, "type": "PRES_VIS", "trial_index": 162}, "uniqueid": "MTK1758:30ZX6P7VF92IEKPCATDOXOSG1NPJ2Q", "dateTime": 1516297181810}, {"current_trial": 163, "trialdata": {"rt": -1, "trial_type": "single-stim", "word": "rocket", "stimulus": "<p id=\"stim\">ROCKET</p>", "conditions": [24, 1600, "v", 12000], "internal_node_id": "0.0-118.0", "trial": 4, "time_elapsed": 827868, "serialpos": 6, "key_press": -1, "wordID": 1201, "type": "PRES_VIS", "trial_index": 163}, "uniqueid": "MTK1758:30ZX6P7VF92IEKPCATDOXOSG1NPJ2Q", "dateTime": 1516297184216}, {"current_trial": 164, "trialdata": {"rt": -1, "trial_type": "single-stim", "word": "missile", "stimulus": "<p id=\"stim\">MISSILE</p>", "conditions": [24, 1600, "v", 12000], "internal_node_id": "0.0-119.0", "trial": 4, "time_elapsed": 830397, "serialpos": 7, "key_press": -1, "wordID": 899, "type": "PRES_VIS", "trial_index": 164}, "uniqueid": "MTK1758:30ZX6P7VF92IEKPCATDOXOSG1NPJ2Q", "dateTime": 1516297186746}, {"current_trial": 165, "trialdata": {"rt": -1, "trial_type": "single-stim", "word": "lunch", "stimulus": "<p id=\"stim\">LUNCH</p>", "conditions": [24, 1600, "v", 12000], "internal_node_id": "0.0-120.0", "trial": 4, "time_elapsed": 832931, "serialpos": 8, "key_press": -1, "wordID": 848, "type": "PRES_VIS", "trial_index": 165}, "uniqueid": "MTK1758:30ZX6P7VF92IEKPCATDOXOSG1NPJ2Q", "dateTime": 1516297189279}, {"current_trial": 166, "trialdata": {"rt": -1, "trial_type": "single-stim", "word": "dress", "stimulus": "<p id=\"stim\">DRESS</p>", "conditions": [24, 1600, "v", 12000], "internal_node_id": "0.0-121.0", "trial": 4, "time_elapsed": 835476, "serialpos": 9, "key_press": -1, "wordID": 494, "type": "PRES_VIS", "trial_index": 166}, "uniqueid": "MTK1758:30ZX6P7VF92IEKPCATDOXOSG1NPJ2Q", "dateTime": 1516297191824}, {"current_trial": 167, "trialdata": {"rt": -1, "trial_type": "single-stim", "word": "dorm", "stimulus": "<p id=\"stim\">DORM</p>", "conditions": [24, 1600, "v", 12000], "internal_node_id": "0.0-122.0", "trial": 4, "time_elapsed": 837997, "serialpos": 10, "key_press": -1, "wordID": 487, "type": "PRES_VIS", "trial_index": 167}, "uniqueid": "MTK1758:30ZX6P7VF92IEKPCATDOXOSG1NPJ2Q", "dateTime": 1516297194345}, {"current_trial": 168, "trialdata": {"rt": -1, "trial_type": "single-stim", "word": "omelet", "stimulus": "<p id=\"stim\">OMELET</p>", "conditions": [24, 1600, "v", 12000], "internal_node_id": "0.0-123.0", "trial": 4, "time_elapsed": 840543, "serialpos": 11, "key_press": -1, "wordID": 975, "type": "PRES_VIS", "trial_index": 168}, "uniqueid": "MTK1758:30ZX6P7VF92IEKPCATDOXOSG1NPJ2Q", "dateTime": 1516297196891}, {"current_trial": 169, "trialdata": {"rt": -1, "trial_type": "single-stim", "word": "cook", "stimulus": "<p id=\"stim\">COOK</p>", "conditions": [24, 1600, "v", 12000], "internal_node_id": "0.0-124.0", "trial": 4, "time_elapsed": 843104, "serialpos": 12, "key_press": -1, "wordID": 371, "type": "PRES_VIS", "trial_index": 169}, "uniqueid": "MTK1758:30ZX6P7VF92IEKPCATDOXOSG1NPJ2Q", "dateTime": 1516297199452}, {"current_trial": 170, "trialdata": {"rt": -1, "trial_type": "single-stim", "word": "queen", "stimulus": "<p id=\"stim\">QUEEN</p>", "conditions": [24, 1600, "v", 12000], "internal_node_id": "0.0-125.0", "trial": 4, "time_elapsed": 845638, "serialpos": 13, "key_press": -1, "wordID": 1148, "type": "PRES_VIS", "trial_index": 170}, "uniqueid": "MTK1758:30ZX6P7VF92IEKPCATDOXOSG1NPJ2Q", "dateTime": 1516297201986}, {"current_trial": 171, "trialdata": {"rt": -1, "trial_type": "single-stim", "word": "citrus", "stimulus": "<p id=\"stim\">CITRUS</p>", "conditions": [24, 1600, "v", 12000], "internal_node_id": "0.0-126.0", "trial": 4, "time_elapsed": 848149, "serialpos": 14, "key_press": -1, "wordID": 312, "type": "PRES_VIS", "trial_index": 171}, "uniqueid": "MTK1758:30ZX6P7VF92IEKPCATDOXOSG1NPJ2Q", "dateTime": 1516297204498}, {"current_trial": 172, "trialdata": {"rt": -1, "trial_type": "single-stim", "word": "atlas", "stimulus": "<p id=\"stim\">ATLAS</p>", "conditions": [24, 1600, "v", 12000], "internal_node_id": "0.0-127.0", "trial": 4, "time_elapsed": 850907, "serialpos": 15, "key_press": -1, "wordID": 52, "type": "PRES_VIS", "trial_index": 172}, "uniqueid": "MTK1758:30ZX6P7VF92IEKPCATDOXOSG1NPJ2Q", "dateTime": 1516297207256}, {"current_trial": 173, "trialdata": {"rt": -1, "trial_type": "single-stim", "word": "preacher", "stimulus": "<p id=\"stim\">PREACHER</p>", "conditions": [24, 1600, "v", 12000], "internal_node_id": "0.0-128.0", "trial": 4, "time_elapsed": 853380, "serialpos": 16, "key_press": -1, "wordID": 1118, "type": "PRES_VIS", "trial_index": 173}, "uniqueid": "MTK1758:30ZX6P7VF92IEKPCATDOXOSG1NPJ2Q", "dateTime": 1516297209729}, {"current_trial": 174, "trialdata": {"rt": -1, "trial_type": "single-stim", "word": "chest", "stimulus": "<p id=\"stim\">CHEST</p>", "conditions": [24, 1600, "v", 12000], "internal_node_id": "0.0-129.0", "trial": 4, "time_elapsed": 855827, "serialpos": 17, "key_press": -1, "wordID": 294, "type": "PRES_VIS", "trial_index": 174}, "uniqueid": "MTK1758:30ZX6P7VF92IEKPCATDOXOSG1NPJ2Q", "dateTime": 1516297212175}, {"current_trial": 175, "trialdata": {"rt": -1, "trial_type": "single-stim", "word": "stomach", "stimulus": "<p id=\"stim\">STOMACH</p>", "conditions": [24, 1600, "v", 12000], "internal_node_id": "0.0-130.0", "trial": 4, "time_elapsed": 858399, "serialpos": 18, "key_press": -1, "wordID": 1383, "type": "PRES_VIS", "trial_index": 175}, "uniqueid": "MTK1758:30ZX6P7VF92IEKPCATDOXOSG1NPJ2Q", "dateTime": 1516297214747}, {"current_trial": 176, "trialdata": {"rt": -1, "trial_type": "single-stim", "word": "princess", "stimulus": "<p id=\"stim\">PRINCESS</p>", "conditions": [24, 1600, "v", 12000], "internal_node_id": "0.0-131.0", "trial": 4, "time_elapsed": 860908, "serialpos": 19, "key_press": -1, "wordID": 1124, "type": "PRES_VIS", "trial_index": 176}, "uniqueid": "MTK1758:30ZX6P7VF92IEKPCATDOXOSG1NPJ2Q", "dateTime": 1516297217257}, {"current_trial": 177, "trialdata": {"rt": -1, "trial_type": "single-stim", "word": "swimmer", "stimulus": "<p id=\"stim\">SWIMMER</p>", "conditions": [24, 1600, "v", 12000], "internal_node_id": "0.0-132.0", "trial": 4, "time_elapsed": 863438, "serialpos": 20, "key_press": -1, "wordID": 1419, "type": "PRES_VIS", "trial_index": 177}, "uniqueid": "MTK1758:30ZX6P7VF92IEKPCATDOXOSG1NPJ2Q", "dateTime": 1516297219786}, {"current_trial": 178, "trialdata": {"rt": -1, "trial_type": "single-stim", "word": "wife", "stimulus": "<p id=\"stim\">WIFE</p>", "conditions": [24, 1600, "v", 12000], "internal_node_id": "0.0-133.0", "trial": 4, "time_elapsed": 866074, "serialpos": 21, "key_press": -1, "wordID": 1608, "type": "PRES_VIS", "trial_index": 178}, "uniqueid": "MTK1758:30ZX6P7VF92IEKPCATDOXOSG1NPJ2Q", "dateTime": 1516297222422}, {"current_trial": 179, "trialdata": {"rt": -1, "trial_type": "single-stim", "word": "forehead", "stimulus": "<p id=\"stim\">FOREHEAD</p>", "conditions": [24, 1600, "v", 12000], "internal_node_id": "0.0-134.0", "trial": 4, "time_elapsed": 868713, "serialpos": 22, "key_press": -1, "wordID": 591, "type": "PRES_VIS", "trial_index": 179}, "uniqueid": "MTK1758:30ZX6P7VF92IEKPCATDOXOSG1NPJ2Q", "dateTime": 1516297225061}, {"current_trial": 180, "trialdata": {"rt": -1, "trial_type": "single-stim", "word": "kleenex", "stimulus": "<p id=\"stim\">KLEENEX</p>", "conditions": [24, 1600, "v", 12000], "internal_node_id": "0.0-135.0", "trial": 4, "time_elapsed": 871453, "serialpos": 23, "key_press": -1, "wordID": 781, "type": "PRES_VIS", "trial_index": 180}, "uniqueid": "MTK1758:30ZX6P7VF92IEKPCATDOXOSG1NPJ2Q", "dateTime": 1516297227802}, {"current_trial": 181, "trialdata": {"rt": -1, "trial_type": "single-stim", "stimulus": "", "internal_node_id": "0.0-136.0-0.0", "time_elapsed": 873775, "key_press": -1, "type": "PRE_RECALL_DELAY", "trial_index": 181}, "uniqueid": "MTK1758:30ZX6P7VF92IEKPCATDOXOSG1NPJ2Q", "dateTime": 1516297230123}, {"current_trial": 182, "trialdata": {"rt": -1000, "trial_type": "single-audio", "stimulus": "/static/audio/400Hz.wav", "internal_node_id": "0.0-137.0", "time_elapsed": 874277, "key_press": -1, "type": "PRE_RECALL_ALERT", "trial_index": 182}, "uniqueid": "MTK1758:30ZX6P7VF92IEKPCATDOXOSG1NPJ2Q", "dateTime": 1516297230626}, {"current_trial": 183, "trialdata": {"rt": [1576, 3084, 3726, 6581, 8357, 9364, 10448, 11575, 14888, 16587, 20428, 28258, 37602, 38781], "recwords": ["kleenex", "forehead", "chest", "stomach", "princess", "queen", "lunch", "omelet", "donor", "apron", "wife", "cook", "rocket", "missile"], "key_times": [573, 729, 847, 998, 1108, 1232, 1435, 1576, 1811, 1864, 1997, 2055, 2165, 2289, 2712, 2779, 2878, 2957, 3084, 3266, 3388, 3458, 3529, 3621, 3726, 5558, 5661, 5918, 5976, 6163, 6231, 6301, 6581, 7433, 7515, 7613, 7687, 7758, 7856, 8038, 8260, 8357, 8655, 8762, 8844, 9042, 9100, 9364, 9788, 9998, 10039, 10154, 10229, 10448, 10700, 10751, 10908, 11014, 11058, 11200, 11575, 14321, 14395, 14564, 14608, 14722, 14888, 16007, 16127, 16232, 16321, 16378, 16587, 19992, 20053, 20213, 20236, 20428, 27765, 27838, 28007, 28042, 28258, 37063, 37137, 37298, 37346, 37463, 37573, 37602, 37884, 37937, 38045, 38207, 38269, 38354, 38627, 38781], "trial_type": "free-recall", "conditions": [24, 1600, "v", 12000], "internal_node_id": "0.0-138.0-0.0", "key_presses": [75, 76, 69, 69, 78, 69, 88, 13, 70, 79, 82, 69, 72, 65, 8, 69, 65, 68, 13, 67, 72, 69, 83, 84, 13, 83, 84, 79, 77, 65, 67, 72, 13, 80, 82, 73, 78, 67, 69, 83, 83, 13, 81, 85, 69, 69, 78, 13, 76, 85, 78, 67, 72, 13, 79, 77, 69, 76, 69, 84, 13, 68, 79, 78, 79, 82, 13, 65, 80, 82, 79, 78, 13, 87, 73, 70, 69, 13, 67, 79, 79, 75, 13, 82, 79, 67, 75, 69, 84, 13, 77, 73, 83, 83, 73, 76, 69, 13], "trial": 4, "time_elapsed": 934284, "type": "FREE_RECALL", "trial_index": 183}, "uniqueid": "MTK1758:30ZX6P7VF92IEKPCATDOXOSG1NPJ2Q", "dateTime": 1516297290641}, {"current_trial": 184, "trialdata": {"rt": 1563, "trial_type": "text", "internal_node_id": "0.0-139.0", "time_elapsed": 937860, "key_press": 13, "type": "INSTRUCTIONS", "trial_index": 184}, "uniqueid": "MTK1758:30ZX6P7VF92IEKPCATDOXOSG1NPJ2Q", "dateTime": 1516297294208}, {"current_trial": 185, "trialdata": {"rt": [3694, 5769, 9441, 13491, 15294, 17371, 20895], "trial_type": "math-distractor", "key_times": [3230, 3414, 3694, 5608, 5769, 9130, 9235, 9441, 12917, 13198, 13491, 14982, 15052, 15294, 16752, 16922, 17371, 20552, 20615, 20895], "responses": ["17", "8", "19", "20", "19", "18", "20"], "num2": [5, 5, 8, 9, 3, 3, 6, 7], "num3": [9, 1, 6, 8, 9, 8, 7, 6], "conditions": [24, 800, "v", 24000], "internal_node_id": "0.0-140.0", "key_presses": [49, 55, 13, 56, 13, 49, 57, 13, 50, 48, 13, 49, 57, 13, 49, 56, 13, 50, 48, 13], "trial": 5, "time_elapsed": 963867, "type": "DISTRACTOR", "trial_index": 185, "num1": [3, 2, 5, 3, 7, 7, 8, 8]}, "uniqueid": "MTK1758:30ZX6P7VF92IEKPCATDOXOSG1NPJ2Q", "dateTime": 1516297320215}, {"current_trial": 186, "trialdata": {"rt": -1, "trial_type": "single-stim", "stimulus": "<p id=\"stim\">10</p>", "internal_node_id": "0.0-141.0-0.0", "time_elapsed": 966871, "key_press": -1, "trial_index": 186}, "uniqueid": "MTK1758:30ZX6P7VF92IEKPCATDOXOSG1NPJ2Q", "dateTime": 1516297323219}, {"current_trial": 187, "trialdata": {"rt": -1, "trial_type": "single-stim", "stimulus": "<p id=\"stim\">9</p>", "internal_node_id": "0.0-141.0-1.0", "time_elapsed": 967873, "key_press": -1, "trial_index": 187}, "uniqueid": "MTK1758:30ZX6P7VF92IEKPCATDOXOSG1NPJ2Q", "dateTime": 1516297324221}, {"current_trial": 188, "trialdata": {"rt": -1, "trial_type": "single-stim", "stimulus": "<p id=\"stim\">8</p>", "internal_node_id": "0.0-141.0-2.0", "time_elapsed": 968875, "key_press": -1, "trial_index": 188}, "uniqueid": "MTK1758:30ZX6P7VF92IEKPCATDOXOSG1NPJ2Q", "dateTime": 1516297325223}, {"current_trial": 189, "trialdata": {"rt": -1, "trial_type": "single-stim", "stimulus": "<p id=\"stim\">7</p>", "internal_node_id": "0.0-141.0-3.0", "time_elapsed": 969877, "key_press": -1, "trial_index": 189}, "uniqueid": "MTK1758:30ZX6P7VF92IEKPCATDOXOSG1NPJ2Q", "dateTime": 1516297326225}, {"current_trial": 190, "trialdata": {"rt": -1, "trial_type": "single-stim", "stimulus": "<p id=\"stim\">6</p>", "internal_node_id": "0.0-141.0-4.0", "time_elapsed": 970881, "key_press": -1, "trial_index": 190}, "uniqueid": "MTK1758:30ZX6P7VF92IEKPCATDOXOSG1NPJ2Q", "dateTime": 1516297327229}, {"current_trial": 191, "trialdata": {"rt": -1, "trial_type": "single-stim", "stimulus": "<p id=\"stim\">5</p>", "internal_node_id": "0.0-141.0-5.0", "time_elapsed": 971885, "key_press": -1, "trial_index": 191}, "uniqueid": "MTK1758:30ZX6P7VF92IEKPCATDOXOSG1NPJ2Q", "dateTime": 1516297328233}, {"current_trial": 192, "trialdata": {"rt": -1, "trial_type": "single-stim", "stimulus": "<p id=\"stim\">4</p>", "internal_node_id": "0.0-141.0-6.0", "time_elapsed": 972887, "key_press": -1, "trial_index": 192}, "uniqueid": "MTK1758:30ZX6P7VF92IEKPCATDOXOSG1NPJ2Q", "dateTime": 1516297329235}, {"current_trial": 193, "trialdata": {"rt": -1, "trial_type": "single-stim", "stimulus": "<p id=\"stim\">3</p>", "internal_node_id": "0.0-141.0-7.0", "time_elapsed": 973889, "key_press": -1, "trial_index": 193}, "uniqueid": "MTK1758:30ZX6P7VF92IEKPCATDOXOSG1NPJ2Q", "dateTime": 1516297330237}, {"current_trial": 194, "trialdata": {"rt": -1, "trial_type": "single-stim", "stimulus": "<p id=\"stim\">2</p>", "internal_node_id": "0.0-141.0-8.0", "time_elapsed": 974893, "key_press": -1, "trial_index": 194}, "uniqueid": "MTK1758:30ZX6P7VF92IEKPCATDOXOSG1NPJ2Q", "dateTime": 1516297331241}, {"current_trial": 195, "trialdata": {"rt": -1, "trial_type": "single-stim", "stimulus": "<p id=\"stim\">1</p>", "internal_node_id": "0.0-141.0-9.0", "time_elapsed": 975897, "key_press": -1, "trial_index": 195}, "uniqueid": "MTK1758:30ZX6P7VF92IEKPCATDOXOSG1NPJ2Q", "dateTime": 1516297332245}, {"current_trial": 196, "trialdata": {"rt": -1, "trial_type": "single-stim", "stimulus": "<p id=\"stim\">+</p>", "internal_node_id": "0.0-142.0-0.0", "time_elapsed": 977400, "key_press": -1, "type": "FIXATION", "trial_index": 196}, "uniqueid": "MTK1758:30ZX6P7VF92IEKPCATDOXOSG1NPJ2Q", "dateTime": 1516297333748}, {"current_trial": 197, "trialdata": {"rt": -1, "trial_type": "single-stim", "word": "tutu", "stimulus": "<p id=\"stim\">TUTU</p>", "conditions": [24, 800, "v", 24000], "internal_node_id": "0.0-143.0", "trial": 5, "time_elapsed": 978202, "serialpos": 0, "key_press": -1, "wordID": 1523, "type": "PRES_VIS", "trial_index": 197}, "uniqueid": "MTK1758:30ZX6P7VF92IEKPCATDOXOSG1NPJ2Q", "dateTime": 1516297334550}, {"current_trial": 198, "trialdata": {"rt": -1, "trial_type": "single-stim", "word": "badge", "stimulus": "<p id=\"stim\">BADGE</p>", "conditions": [24, 800, "v", 24000], "internal_node_id": "0.0-144.0", "trial": 5, "time_elapsed": 980158, "serialpos": 1, "key_press": -1, "wordID": 67, "type": "PRES_VIS", "trial_index": 198}, "uniqueid": "MTK1758:30ZX6P7VF92IEKPCATDOXOSG1NPJ2Q", "dateTime": 1516297336506}, {"current_trial": 199, "trialdata": {"rt": -1, "trial_type": "single-stim", "word": "parsley", "stimulus": "<p id=\"stim\">PARSLEY</p>", "conditions": [24, 800, "v", 24000], "internal_node_id": "0.0-145.0", "trial": 5, "time_elapsed": 981989, "serialpos": 2, "key_press": -1, "wordID": 1015, "type": "PRES_VIS", "trial_index": 199}, "uniqueid": "MTK1758:30ZX6P7VF92IEKPCATDOXOSG1NPJ2Q", "dateTime": 1516297338337}, {"current_trial": 200, "trialdata": {"rt": -1, "trial_type": "single-stim", "word": "juggler", "stimulus": "<p id=\"stim\">JUGGLER</p>", "conditions": [24, 800, "v", 24000], "internal_node_id": "0.0-146.0", "trial": 5, "time_elapsed": 983713, "serialpos": 3, "key_press": -1, "wordID": 762, "type": "PRES_VIS", "trial_index": 200}, "uniqueid": "MTK1758:30ZX6P7VF92IEKPCATDOXOSG1NPJ2Q", "dateTime": 1516297340061}, {"current_trial": 201, "trialdata": {"rt": -1, "trial_type": "single-stim", "word": "church", "stimulus": "<p id=\"stim\">CHURCH</p>", "conditions": [24, 800, "v", 24000], "internal_node_id": "0.0-147.0", "trial": 5, "time_elapsed": 985361, "serialpos": 4, "key_press": -1, "wordID": 306, "type": "PRES_VIS", "trial_index": 201}, "uniqueid": "MTK1758:30ZX6P7VF92IEKPCATDOXOSG1NPJ2Q", "dateTime": 1516297341710}, {"current_trial": 202, "trialdata": {"rt": -1, "trial_type": "single-stim", "word": "sticker", "stimulus": "<p id=\"stim\">STICKER</p>", "conditions": [24, 800, "v", 24000], "internal_node_id": "0.0-148.0", "trial": 5, "time_elapsed": 987244, "serialpos": 5, "key_press": -1, "wordID": 1381, "type": "PRES_VIS", "trial_index": 202}, "uniqueid": "MTK1758:30ZX6P7VF92IEKPCATDOXOSG1NPJ2Q", "dateTime": 1516297343592}, {"current_trial": 203, "trialdata": {"rt": -1, "trial_type": "single-stim", "word": "termite", "stimulus": "<p id=\"stim\">TERMITE</p>", "conditions": [24, 800, "v", 24000], "internal_node_id": "0.0-149.0", "trial": 5, "time_elapsed": 988952, "serialpos": 6, "key_press": -1, "wordID": 1450, "type": "PRES_VIS", "trial_index": 203}, "uniqueid": "MTK1758:30ZX6P7VF92IEKPCATDOXOSG1NPJ2Q", "dateTime": 1516297345300}, {"current_trial": 204, "trialdata": {"rt": -1, "trial_type": "single-stim", "word": "quail", "stimulus": "<p id=\"stim\">QUAIL</p>", "conditions": [24, 800, "v", 24000], "internal_node_id": "0.0-150.0", "trial": 5, "time_elapsed": 990822, "serialpos": 7, "key_press": -1, "wordID": 1146, "type": "PRES_VIS", "trial_index": 204}, "uniqueid": "MTK1758:30ZX6P7VF92IEKPCATDOXOSG1NPJ2Q", "dateTime": 1516297347170}, {"current_trial": 205, "trialdata": {"rt": -1, "trial_type": "single-stim", "word": "crutch", "stimulus": "<p id=\"stim\">CRUTCH</p>", "conditions": [24, 800, "v", 24000], "internal_node_id": "0.0-151.0", "trial": 5, "time_elapsed": 992551, "serialpos": 8, "key_press": -1, "wordID": 416, "type": "PRES_VIS", "trial_index": 205}, "uniqueid": "MTK1758:30ZX6P7VF92IEKPCATDOXOSG1NPJ2Q", "dateTime": 1516297348899}, {"current_trial": 206, "trialdata": {"rt": -1, "trial_type": "single-stim", "word": "lettuce", "stimulus": "<p id=\"stim\">LETTUCE</p>", "conditions": [24, 800, "v", 24000], "internal_node_id": "0.0-152.0", "trial": 5, "time_elapsed": 994264, "serialpos": 9, "key_press": -1, "wordID": 813, "type": "PRES_VIS", "trial_index": 206}, "uniqueid": "MTK1758:30ZX6P7VF92IEKPCATDOXOSG1NPJ2Q", "dateTime": 1516297350613}, {"current_trial": 207, "trialdata": {"rt": -1, "trial_type": "single-stim", "word": "fruit", "stimulus": "<p id=\"stim\">FRUIT</p>", "conditions": [24, 800, "v", 24000], "internal_node_id": "0.0-153.0", "trial": 5, "time_elapsed": 996243, "serialpos": 10, "key_press": -1, "wordID": 609, "type": "PRES_VIS", "trial_index": 207}, "uniqueid": "MTK1758:30ZX6P7VF92IEKPCATDOXOSG1NPJ2Q", "dateTime": 1516297352592}, {"current_trial": 208, "trialdata": {"rt": -1, "trial_type": "single-stim", "word": "canal", "stimulus": "<p id=\"stim\">CANAL</p>", "conditions": [24, 800, "v", 24000], "internal_node_id": "0.0-154.0", "trial": 5, "time_elapsed": 997940, "serialpos": 11, "key_press": -1, "wordID": 225, "type": "PRES_VIS", "trial_index": 208}, "uniqueid": "MTK1758:30ZX6P7VF92IEKPCATDOXOSG1NPJ2Q", "dateTime": 1516297354288}, {"current_trial": 209, "trialdata": {"rt": -1, "trial_type": "single-stim", "word": "plaza", "stimulus": "<p id=\"stim\">PLAZA</p>", "conditions": [24, 800, "v", 24000], "internal_node_id": "0.0-155.0", "trial": 5, "time_elapsed": 999568, "serialpos": 12, "key_press": -1, "wordID": 1087, "type": "PRES_VIS", "trial_index": 209}, "uniqueid": "MTK1758:30ZX6P7VF92IEKPCATDOXOSG1NPJ2Q", "dateTime": 1516297355917}, {"current_trial": 210, "trialdata": {"rt": -1, "trial_type": "single-stim", "word": "glove", "stimulus": "<p id=\"stim\">GLOVE</p>", "conditions": [24, 800, "v", 24000], "internal_node_id": "0.0-156.0", "trial": 5, "time_elapsed": 1001521, "serialpos": 13, "key_press": -1, "wordID": 641, "type": "PRES_VIS", "trial_index": 210}, "uniqueid": "MTK1758:30ZX6P7VF92IEKPCATDOXOSG1NPJ2Q", "dateTime": 1516297357869}, {"current_trial": 211, "trialdata": {"rt": -1, "trial_type": "single-stim", "word": "bubble", "stimulus": "<p id=\"stim\">BUBBLE</p>", "conditions": [24, 800, "v", 24000], "internal_node_id": "0.0-157.0", "trial": 5, "time_elapsed": 1003348, "serialpos": 14, "key_press": -1, "wordID": 182, "type": "PRES_VIS", "trial_index": 211}, "uniqueid": "MTK1758:30ZX6P7VF92IEKPCATDOXOSG1NPJ2Q", "dateTime": 1516297359696}, {"current_trial": 212, "trialdata": {"rt": -1, "trial_type": "single-stim", "word": "sheriff", "stimulus": "<p id=\"stim\">SHERIFF</p>", "conditions": [24, 800, "v", 24000], "internal_node_id": "0.0-158.0", "trial": 5, "time_elapsed": 1005080, "serialpos": 15, "key_press": -1, "wordID": 1283, "type": "PRES_VIS", "trial_index": 212}, "uniqueid": "MTK1758:30ZX6P7VF92IEKPCATDOXOSG1NPJ2Q", "dateTime": 1516297361428}, {"current_trial": 213, "trialdata": {"rt": -1, "trial_type": "single-stim", "word": "county", "stimulus": "<p id=\"stim\">COUNTY</p>", "conditions": [24, 800, "v", 24000], "internal_node_id": "0.0-159.0", "trial": 5, "time_elapsed": 1007015, "serialpos": 16, "key_press": -1, "wordID": 388, "type": "PRES_VIS", "trial_index": 213}, "uniqueid": "MTK1758:30ZX6P7VF92IEKPCATDOXOSG1NPJ2Q", "dateTime": 1516297363364}, {"current_trial": 214, "trialdata": {"rt": -1, "trial_type": "single-stim", "word": "rifle", "stimulus": "<p id=\"stim\">RIFLE</p>", "conditions": [24, 800, "v", 24000], "internal_node_id": "0.0-160.0", "trial": 5, "time_elapsed": 1008886, "serialpos": 17, "key_press": -1, "wordID": 1191, "type": "PRES_VIS", "trial_index": 214}, "uniqueid": "MTK1758:30ZX6P7VF92IEKPCATDOXOSG1NPJ2Q", "dateTime": 1516297365235}, {"current_trial": 215, "trialdata": {"rt": -1, "trial_type": "single-stim", "word": "sidewalk", "stimulus": "<p id=\"stim\">SIDEWALK</p>", "conditions": [24, 800, "v", 24000], "internal_node_id": "0.0-161.0", "trial": 5, "time_elapsed": 1010720, "serialpos": 18, "key_press": -1, "wordID": 1302, "type": "PRES_VIS", "trial_index": 215}, "uniqueid": "MTK1758:30ZX6P7VF92IEKPCATDOXOSG1NPJ2Q", "dateTime": 1516297367068}, {"current_trial": 216, "trialdata": {"rt": -1, "trial_type": "single-stim", "word": "daisy", "stimulus": "<p id=\"stim\">DAISY</p>", "conditions": [24, 800, "v", 24000], "internal_node_id": "0.0-162.0", "trial": 5, "time_elapsed": 1012537, "serialpos": 19, "key_press": -1, "wordID": 434, "type": "PRES_VIS", "trial_index": 216}, "uniqueid": "MTK1758:30ZX6P7VF92IEKPCATDOXOSG1NPJ2Q", "dateTime": 1516297368885}, {"current_trial": 217, "trialdata": {"rt": -1, "trial_type": "single-stim", "word": "poison", "stimulus": "<p id=\"stim\">POISON</p>", "conditions": [24, 800, "v", 24000], "internal_node_id": "0.0-163.0", "trial": 5, "time_elapsed": 1014375, "serialpos": 20, "key_press": -1, "wordID": 1095, "type": "PRES_VIS", "trial_index": 217}, "uniqueid": "MTK1758:30ZX6P7VF92IEKPCATDOXOSG1NPJ2Q", "dateTime": 1516297370723}, {"current_trial": 218, "trialdata": {"rt": -1, "trial_type": "single-stim", "word": "highway", "stimulus": "<p id=\"stim\">HIGHWAY</p>", "conditions": [24, 800, "v", 24000], "internal_node_id": "0.0-164.0", "trial": 5, "time_elapsed": 1016181, "serialpos": 21, "key_press": -1, "wordID": 706, "type": "PRES_VIS", "trial_index": 218}, "uniqueid": "MTK1758:30ZX6P7VF92IEKPCATDOXOSG1NPJ2Q", "dateTime": 1516297372529}, {"current_trial": 219, "trialdata": {"rt": -1, "trial_type": "single-stim", "word": "bike", "stimulus": "<p id=\"stim\">BIKE</p>", "conditions": [24, 800, "v", 24000], "internal_node_id": "0.0-165.0", "trial": 5, "time_elapsed": 1018068, "serialpos": 22, "key_press": -1, "wordID": 124, "type": "PRES_VIS", "trial_index": 219}, "uniqueid": "MTK1758:30ZX6P7VF92IEKPCATDOXOSG1NPJ2Q", "dateTime": 1516297374416}, {"current_trial": 220, "trialdata": {"rt": -1, "trial_type": "single-stim", "word": "mummy", "stimulus": "<p id=\"stim\">MUMMY</p>", "conditions": [24, 800, "v", 24000], "internal_node_id": "0.0-166.0", "trial": 5, "time_elapsed": 1020011, "serialpos": 23, "key_press": -1, "wordID": 931, "type": "PRES_VIS", "trial_index": 220}, "uniqueid": "MTK1758:30ZX6P7VF92IEKPCATDOXOSG1NPJ2Q", "dateTime": 1516297376360}, {"current_trial": 221, "trialdata": {"rt": -1, "trial_type": "single-stim", "stimulus": "", "internal_node_id": "0.0-167.0-0.0", "time_elapsed": 1022094, "key_press": -1, "type": "PRE_RECALL_DELAY", "trial_index": 221}, "uniqueid": "MTK1758:30ZX6P7VF92IEKPCATDOXOSG1NPJ2Q", "dateTime": 1516297378442}, {"current_trial": 222, "trialdata": {"rt": -1000, "trial_type": "single-audio", "stimulus": "/static/audio/400Hz.wav", "internal_node_id": "0.0-168.0", "time_elapsed": 1022596, "key_press": -1, "type": "PRE_RECALL_ALERT", "trial_index": 222}, "uniqueid": "MTK1758:30ZX6P7VF92IEKPCATDOXOSG1NPJ2Q", "dateTime": 1516297378944}, {"current_trial": 223, "trialdata": {"rt": [1545, 3295, 4287, 5245, 6210, 7233, 8490, 11085, 14969, 19469, 29230, 41015], "recwords": ["mummy", "poison", "highway", "bike", "rifle", "sheriff", "county", "church", "daisy", "fruit", "termite", "badge"], "key_times": [480, 693, 895, 1257, 1375, 1545, 1839, 1964, 2438, 2746, 2826, 3016, 3067, 3121, 3295, 3573, 3598, 3712, 3773, 3941, 4033, 4052, 4287, 4584, 4656, 4845, 4994, 5245, 5674, 5749, 5885, 5973, 6057, 6210, 6379, 6489, 6584, 6649, 6707, 6838, 6980, 7233, 7429, 7511, 7577, 7745, 7812, 7993, 8490, 10485, 10565, 10603, 10657, 10831, 10899, 11085, 14156, 14230, 14305, 14460, 14516, 14969, 16994, 18549, 18735, 18774, 18943, 19469, 20095, 20657, 24617, 26763, 28340, 28508, 28575, 28709, 28894, 29013, 29031, 29230, 39757, 40429, 40479, 40731, 40853, 41015], "trial_type": "free-recall", "conditions": [24, 800, "v", 24000], "internal_node_id": "0.0-169.0-0.0", "key_presses": [77, 85, 77, 77, 89, 13, 80, 73, 8, 79, 73, 83, 79, 78, 13, 72, 73, 71, 72, 87, 65, 89, 13, 66, 73, 75, 69, 13, 82, 73, 70, 76, 69, 13, 83, 72, 69, 82, 73, 70, 70, 13, 67, 79, 85, 78, 84, 89, 13, 67, 72, 85, 82, 67, 72, 13, 68, 65, 73, 83, 89, 13, 70, 82, 85, 73, 84, 13, 76, 8, 84, 8, 84, 69, 82, 77, 73, 84, 69, 13, 66, 65, 68, 71, 69, 13], "trial": 5, "time_elapsed": 1082602, "type": "FREE_RECALL", "trial_index": 223}, "uniqueid": "MTK1758:30ZX6P7VF92IEKPCATDOXOSG1NPJ2Q", "dateTime": 1516297438959}, {"current_trial": 224, "trialdata": {"rt": 4206, "trial_type": "text", "internal_node_id": "0.0-170.0", "time_elapsed": 1088819, "key_press": 68, "type": "INSTRUCTIONS", "trial_index": 224}, "uniqueid": "MTK1758:30ZX6P7VF92IEKPCATDOXOSG1NPJ2Q", "dateTime": 1516297445168}, {"current_trial": 225, "trialdata": {"rt": [3570, 4948, 6804, 8646, 10921], "trial_type": "math-distractor", "key_times": [3295, 3382, 3570, 4816, 4948, 6575, 6740, 6804, 8530, 8646, 10713, 10765, 10921], "responses": ["21", "4", "11", "6", "14"], "num2": [9, 1, 3, 2, 8, 9], "num3": [8, 1, 5, 2, 3, 1], "conditions": [12, 1600, "v", 12000], "internal_node_id": "0.0-171.0", "key_presses": [50, 49, 13, 52, 13, 49, 49, 13, 54, 13, 49, 52, 13], "trial": 6, "time_elapsed": 1102826, "type": "DISTRACTOR", "trial_index": 225, "num1": [4, 2, 3, 2, 3, 3]}, "uniqueid": "MTK1758:30ZX6P7VF92IEKPCATDOXOSG1NPJ2Q", "dateTime": 1516297459175}, {"current_trial": 226, "trialdata": {"rt": -1, "trial_type": "single-stim", "stimulus": "<p id=\"stim\">10</p>", "internal_node_id": "0.0-172.0-0.0", "time_elapsed": 1105832, "key_press": -1, "trial_index": 226}, "uniqueid": "MTK1758:30ZX6P7VF92IEKPCATDOXOSG1NPJ2Q", "dateTime": 1516297462180}, {"current_trial": 227, "trialdata": {"rt": -1, "trial_type": "single-stim", "stimulus": "<p id=\"stim\">9</p>", "internal_node_id": "0.0-172.0-1.0", "time_elapsed": 1106835, "key_press": -1, "trial_index": 227}, "uniqueid": "MTK1758:30ZX6P7VF92IEKPCATDOXOSG1NPJ2Q", "dateTime": 1516297463183}, {"current_trial": 228, "trialdata": {"rt": -1, "trial_type": "single-stim", "stimulus": "<p id=\"stim\">8</p>", "internal_node_id": "0.0-172.0-2.0", "time_elapsed": 1107837, "key_press": -1, "trial_index": 228}, "uniqueid": "MTK1758:30ZX6P7VF92IEKPCATDOXOSG1NPJ2Q", "dateTime": 1516297464186}, {"current_trial": 229, "trialdata": {"rt": -1, "trial_type": "single-stim", "stimulus": "<p id=\"stim\">7</p>", "internal_node_id": "0.0-172.0-3.0", "time_elapsed": 1108841, "key_press": -1, "trial_index": 229}, "uniqueid": "MTK1758:30ZX6P7VF92IEKPCATDOXOSG1NPJ2Q", "dateTime": 1516297465189}, {"current_trial": 230, "trialdata": {"rt": -1, "trial_type": "single-stim", "stimulus": "<p id=\"stim\">6</p>", "internal_node_id": "0.0-172.0-4.0", "time_elapsed": 1109843, "key_press": -1, "trial_index": 230}, "uniqueid": "MTK1758:30ZX6P7VF92IEKPCATDOXOSG1NPJ2Q", "dateTime": 1516297466191}, {"current_trial": 231, "trialdata": {"rt": -1, "trial_type": "single-stim", "stimulus": "<p id=\"stim\">5</p>", "internal_node_id": "0.0-172.0-5.0", "time_elapsed": 1110846, "key_press": -1, "trial_index": 231}, "uniqueid": "MTK1758:30ZX6P7VF92IEKPCATDOXOSG1NPJ2Q", "dateTime": 1516297467197}, {"current_trial": 232, "trialdata": {"rt": -1, "trial_type": "single-stim", "stimulus": "<p id=\"stim\">4</p>", "internal_node_id": "0.0-172.0-6.0", "time_elapsed": 1111851, "key_press": -1, "trial_index": 232}, "uniqueid": "MTK1758:30ZX6P7VF92IEKPCATDOXOSG1NPJ2Q", "dateTime": 1516297468200}, {"current_trial": 233, "trialdata": {"rt": -1, "trial_type": "single-stim", "stimulus": "<p id=\"stim\">3</p>", "internal_node_id": "0.0-172.0-7.0", "time_elapsed": 1112854, "key_press": -1, "trial_index": 233}, "uniqueid": "MTK1758:30ZX6P7VF92IEKPCATDOXOSG1NPJ2Q", "dateTime": 1516297469202}, {"current_trial": 234, "trialdata": {"rt": -1, "trial_type": "single-stim", "stimulus": "<p id=\"stim\">2</p>", "internal_node_id": "0.0-172.0-8.0", "time_elapsed": 1113857, "key_press": -1, "trial_index": 234}, "uniqueid": "MTK1758:30ZX6P7VF92IEKPCATDOXOSG1NPJ2Q", "dateTime": 1516297470205}, {"current_trial": 235, "trialdata": {"rt": -1, "trial_type": "single-stim", "stimulus": "<p id=\"stim\">1</p>", "internal_node_id": "0.0-172.0-9.0", "time_elapsed": 1114861, "key_press": -1, "trial_index": 235}, "uniqueid": "MTK1758:30ZX6P7VF92IEKPCATDOXOSG1NPJ2Q", "dateTime": 1516297471209}, {"current_trial": 236, "trialdata": {"rt": -1, "trial_type": "single-stim", "stimulus": "<p id=\"stim\">+</p>", "internal_node_id": "0.0-173.0-0.0", "time_elapsed": 1116363, "key_press": -1, "type": "FIXATION", "trial_index": 236}, "uniqueid": "MTK1758:30ZX6P7VF92IEKPCATDOXOSG1NPJ2Q", "dateTime": 1516297472712}, {"current_trial": 237, "trialdata": {"rt": -1, "trial_type": "single-stim", "word": "lagoon", "stimulus": "<p id=\"stim\">LAGOON</p>", "conditions": [12, 1600, "v", 12000], "internal_node_id": "0.0-174.0", "trial": 6, "time_elapsed": 1117967, "serialpos": 0, "key_press": -1, "wordID": 794, "type": "PRES_VIS", "trial_index": 237}, "uniqueid": "MTK1758:30ZX6P7VF92IEKPCATDOXOSG1NPJ2Q", "dateTime": 1516297474315}, {"current_trial": 238, "trialdata": {"rt": -1, "trial_type": "single-stim", "word": "whiskers", "stimulus": "<p id=\"stim\">WHISKERS</p>", "conditions": [12, 1600, "v", 12000], "internal_node_id": "0.0-175.0", "trial": 6, "time_elapsed": 1120689, "serialpos": 1, "key_press": -1, "wordID": 1604, "type": "PRES_VIS", "trial_index": 238}, "uniqueid": "MTK1758:30ZX6P7VF92IEKPCATDOXOSG1NPJ2Q", "dateTime": 1516297477037}, {"current_trial": 239, "trialdata": {"rt": -1, "trial_type": "single-stim", "word": "valve", "stimulus": "<p id=\"stim\">VALVE</p>", "conditions": [12, 1600, "v", 12000], "internal_node_id": "0.0-176.0", "trial": 6, "time_elapsed": 1123368, "serialpos": 2, "key_press": -1, "wordID": 1545, "type": "PRES_VIS", "trial_index": 239}, "uniqueid": "MTK1758:30ZX6P7VF92IEKPCATDOXOSG1NPJ2Q", "dateTime": 1516297479716}, {"current_trial": 240, "trialdata": {"rt": -1, "trial_type": "single-stim", "word": "robot", "stimulus": "<p id=\"stim\">ROBOT</p>", "conditions": [12, 1600, "v", 12000], "internal_node_id": "0.0-177.0", "trial": 6, "time_elapsed": 1125853, "serialpos": 3, "key_press": -1, "wordID": 1199, "type": "PRES_VIS", "trial_index": 240}, "uniqueid": "MTK1758:30ZX6P7VF92IEKPCATDOXOSG1NPJ2Q", "dateTime": 1516297482202}, {"current_trial": 241, "trialdata": {"rt": -1, "trial_type": "single-stim", "word": "playground", "stimulus": "<p id=\"stim\">PLAYGROUND</p>", "conditions": [12, 1600, "v", 12000], "internal_node_id": "0.0-178.0", "trial": 6, "time_elapsed": 1128260, "serialpos": 4, "key_press": -1, "wordID": 1086, "type": "PRES_VIS", "trial_index": 241}, "uniqueid": "MTK1758:30ZX6P7VF92IEKPCATDOXOSG1NPJ2Q", "dateTime": 1516297484609}, {"current_trial": 242, "trialdata": {"rt": -1, "trial_type": "single-stim", "word": "tourist", "stimulus": "<p id=\"stim\">TOURIST</p>", "conditions": [12, 1600, "v", 12000], "internal_node_id": "0.0-179.0", "trial": 6, "time_elapsed": 1130755, "serialpos": 5, "key_press": -1, "wordID": 1487, "type": "PRES_VIS", "trial_index": 242}, "uniqueid": "MTK1758:30ZX6P7VF92IEKPCATDOXOSG1NPJ2Q", "dateTime": 1516297487103}, {"current_trial": 243, "trialdata": {"rt": -1, "trial_type": "single-stim", "word": "body", "stimulus": "<p id=\"stim\">BODY</p>", "conditions": [12, 1600, "v", 12000], "internal_node_id": "0.0-180.0", "trial": 6, "time_elapsed": 1133205, "serialpos": 6, "key_press": -1, "wordID": 144, "type": "PRES_VIS", "trial_index": 243}, "uniqueid": "MTK1758:30ZX6P7VF92IEKPCATDOXOSG1NPJ2Q", "dateTime": 1516297489554}, {"current_trial": 244, "trialdata": {"rt": -1, "trial_type": "single-stim", "word": "beef", "stimulus": "<p id=\"stim\">BEEF</p>", "conditions": [12, 1600, "v", 12000], "internal_node_id": "0.0-181.0", "trial": 6, "time_elapsed": 1135917, "serialpos": 7, "key_press": -1, "wordID": 112, "type": "PRES_VIS", "trial_index": 244}, "uniqueid": "MTK1758:30ZX6P7VF92IEKPCATDOXOSG1NPJ2Q", "dateTime": 1516297492265}, {"current_trial": 245, "trialdata": {"rt": -1, "trial_type": "single-stim", "word": "asia", "stimulus": "<p id=\"stim\">ASIA</p>", "conditions": [12, 1600, "v", 12000], "internal_node_id": "0.0-182.0", "trial": 6, "time_elapsed": 1138510, "serialpos": 8, "key_press": -1, "wordID": 45, "type": "PRES_VIS", "trial_index": 245}, "uniqueid": "MTK1758:30ZX6P7VF92IEKPCATDOXOSG1NPJ2Q", "dateTime": 1516297494858}, {"current_trial": 246, "trialdata": {"rt": -1, "trial_type": "single-stim", "word": "japan", "stimulus": "<p id=\"stim\">JAPAN</p>", "conditions": [12, 1600, "v", 12000], "internal_node_id": "0.0-183.0", "trial": 6, "time_elapsed": 1141160, "serialpos": 9, "key_press": -1, "wordID": 748, "type": "PRES_VIS", "trial_index": 246}, "uniqueid": "MTK1758:30ZX6P7VF92IEKPCATDOXOSG1NPJ2Q", "dateTime": 1516297497508}, {"current_trial": 247, "trialdata": {"rt": -1, "trial_type": "single-stim", "word": "lover", "stimulus": "<p id=\"stim\">LOVER</p>", "conditions": [12, 1600, "v", 12000], "internal_node_id": "0.0-184.0", "trial": 6, "time_elapsed": 1143694, "serialpos": 10, "key_press": -1, "wordID": 845, "type": "PRES_VIS", "trial_index": 247}, "uniqueid": "MTK1758:30ZX6P7VF92IEKPCATDOXOSG1NPJ2Q", "dateTime": 1516297500042}, {"current_trial": 248, "trialdata": {"rt": -1, "trial_type": "single-stim", "word": "piston", "stimulus": "<p id=\"stim\">PISTON</p>", "conditions": [12, 1600, "v", 12000], "internal_node_id": "0.0-185.0", "trial": 6, "time_elapsed": 1146413, "serialpos": 11, "key_press": -1, "wordID": 1075, "type": "PRES_VIS", "trial_index": 248}, "uniqueid": "MTK1758:30ZX6P7VF92IEKPCATDOXOSG1NPJ2Q", "dateTime": 1516297502761}, {"current_trial": 249, "trialdata": {"rt": -1, "trial_type": "single-stim", "stimulus": "", "internal_node_id": "0.0-186.0-0.0", "time_elapsed": 1148523, "key_press": -1, "type": "PRE_RECALL_DELAY", "trial_index": 249}, "uniqueid": "MTK1758:30ZX6P7VF92IEKPCATDOXOSG1NPJ2Q", "dateTime": 1516297504872}, {"current_trial": 250, "trialdata": {"rt": -1000, "trial_type": "single-audio", "stimulus": "/static/audio/400Hz.wav", "internal_node_id": "0.0-187.0", "time_elapsed": 1149026, "key_press": -1, "type": "PRE_RECALL_ALERT", "trial_index": 250}, "uniqueid": "MTK1758:30ZX6P7VF92IEKPCATDOXOSG1NPJ2Q", "dateTime": 1516297505374}, {"current_trial": 251, "trialda