{"condition": 0, "counterbalance": 1578, "assignmentId": "3NQL1CS15SFH60IDK3Y29G4F87XVY7", "workerId": "MTK1149", "hitId": "3EFNPKWBMSVYACMF2JCL99MSQY603H", "currenttrial": 626, "bonus": 0, "data": [{"uniqueid": "MTK1149:3NQL1CS15SFH60IDK3Y29G4F87XVY7", "current_trial": 0, "dateTime": 1513204648204, "trialdata": {"rt": 16371, "key_press": 75, "type": "INSTRUCTIONS", "trial_type": "text", "trial_index": 0, "time_elapsed": 16373, "internal_node_id": "0.0-0.0"}}, {"uniqueid": "MTK1149:3NQL1CS15SFH60IDK3Y29G4F87XVY7", "current_trial": 1, "dateTime": 1513204648206, "trialdata": {"rt": 2, "key_press": 74, "type": "INSTRUCTIONS", "trial_type": "text", "trial_index": 1, "time_elapsed": 16375, "internal_node_id": "0.0-1.0"}}, {"uniqueid": "MTK1149:3NQL1CS15SFH60IDK3Y29G4F87XVY7", "current_trial": 2, "dateTime": 1513204664987, "trialdata": {"rt": [16777], "responses": ["ocean"], "type": "AUDIO_TEST", "trial_type": "audio-test", "trial_index": 2, "time_elapsed": 33156, "internal_node_id": "0.0-2.0"}}, {"uniqueid": "MTK1149:3NQL1CS15SFH60IDK3Y29G4F87XVY7", "current_trial": 3, "dateTime": 1513204669167, "trialdata": {"rt": [4179], "responses": ["crystal"], "type": "AUDIO_TEST", "trial_type": "audio-test", "trial_index": 3, "time_elapsed": 37336, "internal_node_id": "0.0-3.0"}}, {"uniqueid": "MTK1149:3NQL1CS15SFH60IDK3Y29G4F87XVY7", "current_trial": 4, "dateTime": 1513204675662, "trialdata": {"rt": [6492], "responses": ["spice"], "type": "AUDIO_TEST", "trial_type": "audio-test", "trial_index": 4, "time_elapsed": 43831, "internal_node_id": "0.0-4.0"}}, {"uniqueid": "MTK1149:3NQL1CS15SFH60IDK3Y29G4F87XVY7", "current_trial": 5, "dateTime": 1513204689717, "trialdata": {"rt": 13303, "responses": "{\"Q0\":\"4 am\",\"Q1\":\"12 pm\",\"Q2\":\"4\"}", "type": "SLEEP_SURVEY", "trial_type": "survey-text", "trial_index": 5, "time_elapsed": 57886, "internal_node_id": "0.0-5.0"}}, {"uniqueid": "MTK1149:3NQL1CS15SFH60IDK3Y29G4F87XVY7", "current_trial": 6, "dateTime": 1513204717639, "trialdata": {"rt": 26921, "key_press": 68, "type": "INSTRUCTIONS", "trial_type": "text", "trial_index": 6, "time_elapsed": 85808, "internal_node_id": "0.0-6.0"}}, {"uniqueid": "MTK1149:3NQL1CS15SFH60IDK3Y29G4F87XVY7", "current_trial": 7, "dateTime": 1513204734029, "trialdata": {"rt": 15889, "key_press": 68, "type": "INSTRUCTIONS", "trial_type": "text", "trial_index": 7, "time_elapsed": 102198, "internal_node_id": "0.0-7.0"}}, {"uniqueid": "MTK1149:3NQL1CS15SFH60IDK3Y29G4F87XVY7", "current_trial": 8, "dateTime": 1513204739081, "trialdata": {"rt": 4550, "key_press": 68, "type": "INSTRUCTIONS", "trial_type": "text", "trial_index": 8, "time_elapsed": 107250, "internal_node_id": "0.0-8.0"}}, {"uniqueid": "MTK1149:3NQL1CS15SFH60IDK3Y29G4F87XVY7", "current_trial": 9, "dateTime": 1513204758085, "trialdata": {"rt": [7516, 10890, 14633, 16967], "responses": ["23", "14", "18", "23"], "num1": [6, 6, 3, 7, 7], "num2": [8, 1, 6, 7, 2], "num3": [9, 7, 9, 9, 1], "type": "DISTRACTOR", "conditions": [18, 1200, "a", 18000], "trial": 0, "trial_type": "math-distractor", "trial_index": 9, "time_elapsed": 126254, "internal_node_id": "0.0-9.0"}}, {"uniqueid": "MTK1149:3NQL1CS15SFH60IDK3Y29G4F87XVY7", "current_trial": 10, "dateTime": 1513204761087, "trialdata": {"rt": -1, "stimulus": "<p id=\"stim\">10</p>", "key_press": -1, "trial_type": "single-stim", "trial_index": 10, "time_elapsed": 129256, "internal_node_id": "0.0-10.0-0.0"}}, {"uniqueid": "MTK1149:3NQL1CS15SFH60IDK3Y29G4F87XVY7", "current_trial": 11, "dateTime": 1513204762088, "trialdata": {"rt": -1, "stimulus": "<p id=\"stim\">9</p>", "key_press": -1, "trial_type": "single-stim", "trial_index": 11, "time_elapsed": 130257, "internal_node_id": "0.0-10.0-1.0"}}, {"uniqueid": "MTK1149:3NQL1CS15SFH60IDK3Y29G4F87XVY7", "current_trial": 12, "dateTime": 1513204763089, "trialdata": {"rt": -1, "stimulus": "<p id=\"stim\">8</p>", "key_press": -1, "trial_type": "single-stim", "trial_index": 12, "time_elapsed": 131258, "internal_node_id": "0.0-10.0-2.0"}}, {"uniqueid": "MTK1149:3NQL1CS15SFH60IDK3Y29G4F87XVY7", "current_trial": 13, "dateTime": 1513204764090, "trialdata": {"rt": -1, "stimulus": "<p id=\"stim\">7</p>", "key_press": -1, "trial_type": "single-stim", "trial_index": 13, "time_elapsed": 132259, "internal_node_id": "0.0-10.0-3.0"}}, {"uniqueid": "MTK1149:3NQL1CS15SFH60IDK3Y29G4F87XVY7", "current_trial": 14, "dateTime": 1513204765091, "trialdata": {"rt": -1, "stimulus": "<p id=\"stim\">6</p>", "key_press": -1, "trial_type": "single-stim", "trial_index": 14, "time_elapsed": 133260, "internal_node_id": "0.0-10.0-4.0"}}, {"uniqueid": "MTK1149:3NQL1CS15SFH60IDK3Y29G4F87XVY7", "current_trial": 15, "dateTime": 1513204766091, "trialdata": {"rt": -1, "stimulus": "<p id=\"stim\">5</p>", "key_press": -1, "trial_type": "single-stim", "trial_index": 15, "time_elapsed": 134260, "internal_node_id": "0.0-10.0-5.0"}}, {"uniqueid": "MTK1149:3NQL1CS15SFH60IDK3Y29G4F87XVY7", "current_trial": 16, "dateTime": 1513204767092, "trialdata": {"rt": -1, "stimulus": "<p id=\"stim\">4</p>", "key_press": -1, "trial_type": "single-stim", "trial_index": 16, "time_elapsed": 135261, "internal_node_id": "0.0-10.0-6.0"}}, {"uniqueid": "MTK1149:3NQL1CS15SFH60IDK3Y29G4F87XVY7", "current_trial": 17, "dateTime": 1513204768093, "trialdata": {"rt": -1, "stimulus": "<p id=\"stim\">3</p>", "key_press": -1, "trial_type": "single-stim", "trial_index": 17, "time_elapsed": 136262, "internal_node_id": "0.0-10.0-7.0"}}, {"uniqueid": "MTK1149:3NQL1CS15SFH60IDK3Y29G4F87XVY7", "current_trial": 18, "dateTime": 1513204769094, "trialdata": {"rt": -1, "stimulus": "<p id=\"stim\">2</p>", "key_press": -1, "trial_type": "single-stim", "trial_index": 18, "time_elapsed": 137263, "internal_node_id": "0.0-10.0-8.0"}}, {"uniqueid": "MTK1149:3NQL1CS15SFH60IDK3Y29G4F87XVY7", "current_trial": 19, "dateTime": 1513204770095, "trialdata": {"rt": -1, "stimulus": "<p id=\"stim\">1</p>", "key_press": -1, "trial_type": "single-stim", "trial_index": 19, "time_elapsed": 138264, "internal_node_id": "0.0-10.0-9.0"}}, {"uniqueid": "MTK1149:3NQL1CS15SFH60IDK3Y29G4F87XVY7", "current_trial": 20, "dateTime": 1513204771595, "trialdata": {"rt": -1, "stimulus": "<p id=\"stim\">+</p>", "key_press": -1, "type": "FIXATION", "trial_type": "single-stim", "trial_index": 20, "time_elapsed": 139764, "internal_node_id": "0.0-11.0-0.0"}}, {"uniqueid": "MTK1149:3NQL1CS15SFH60IDK3Y29G4F87XVY7", "current_trial": 21, "dateTime": 1513204773618, "trialdata": {"rt": -1000, "stimulus": "/static/audio/wordpool/PARTNER.wav", "key_press": -1, "type": "PRES_AUD", "word": "partner", "wordID": 1016, "conditions": [18, 1200, "a", 18000], "trial": 0, "serialpos": 0, "trial_type": "single-audio", "trial_index": 21, "time_elapsed": 141787, "internal_node_id": "0.0-12.0"}}, {"uniqueid": "MTK1149:3NQL1CS15SFH60IDK3Y29G4F87XVY7", "current_trial": 22, "dateTime": 1513204775843, "trialdata": {"rt": -1000, "stimulus": "/static/audio/wordpool/CONVICT.wav", "key_press": -1, "type": "PRES_AUD", "word": "convict", "wordID": 370, "conditions": [18, 1200, "a", 18000], "trial": 0, "serialpos": 1, "trial_type": "single-audio", "trial_index": 22, "time_elapsed": 144012, "internal_node_id": "0.0-13.0"}}, {"uniqueid": "MTK1149:3NQL1CS15SFH60IDK3Y29G4F87XVY7", "current_trial": 23, "dateTime": 1513204777905, "trialdata": {"rt": -1000, "stimulus": "/static/audio/wordpool/SKETCH.wav", "key_press": -1, "type": "PRES_AUD", "word": "sketch", "wordID": 1314, "conditions": [18, 1200, "a", 18000], "trial": 0, "serialpos": 2, "trial_type": "single-audio", "trial_index": 23, "time_elapsed": 146073, "internal_node_id": "0.0-14.0"}}, {"uniqueid": "MTK1149:3NQL1CS15SFH60IDK3Y29G4F87XVY7", "current_trial": 24, "dateTime": 1513204780158, "trialdata": {"rt": -1000, "stimulus": "/static/audio/wordpool/PEANUT.wav", "key_press": -1, "type": "PRES_AUD", "word": "peanut", "wordID": 1031, "conditions": [18, 1200, "a", 18000], "trial": 0, "serialpos": 3, "trial_type": "single-audio", "trial_index": 24, "time_elapsed": 148327, "internal_node_id": "0.0-15.0"}}, {"uniqueid": "MTK1149:3NQL1CS15SFH60IDK3Y29G4F87XVY7", "current_trial": 25, "dateTime": 1513204782266, "trialdata": {"rt": -1000, "stimulus": "/static/audio/wordpool/POPCORN.wav", "key_press": -1, "type": "PRES_AUD", "word": "popcorn", "wordID": 1103, "conditions": [18, 1200, "a", 18000], "trial": 0, "serialpos": 4, "trial_type": "single-audio", "trial_index": 25, "time_elapsed": 150435, "internal_node_id": "0.0-16.0"}}, {"uniqueid": "MTK1149:3NQL1CS15SFH60IDK3Y29G4F87XVY7", "current_trial": 26, "dateTime": 1513204784304, "trialdata": {"rt": -1000, "stimulus": "/static/audio/wordpool/MARKER.wav", "key_press": -1, "type": "PRES_AUD", "word": "marker", "wordID": 869, "conditions": [18, 1200, "a", 18000], "trial": 0, "serialpos": 5, "trial_type": "single-audio", "trial_index": 26, "time_elapsed": 152473, "internal_node_id": "0.0-17.0"}}, {"uniqueid": "MTK1149:3NQL1CS15SFH60IDK3Y29G4F87XVY7", "current_trial": 27, "dateTime": 1513204786344, "trialdata": {"rt": -1000, "stimulus": "/static/audio/wordpool/QUAIL.wav", "key_press": -1, "type": "PRES_AUD", "word": "quail", "wordID": 1146, "conditions": [18, 1200, "a", 18000], "trial": 0, "serialpos": 6, "trial_type": "single-audio", "trial_index": 27, "time_elapsed": 154513, "internal_node_id": "0.0-18.0"}}, {"uniqueid": "MTK1149:3NQL1CS15SFH60IDK3Y29G4F87XVY7", "current_trial": 28, "dateTime": 1513204788493, "trialdata": {"rt": -1000, "stimulus": "/static/audio/wordpool/FLAG.wav", "key_press": -1, "type": "PRES_AUD", "word": "flag", "wordID": 572, "conditions": [18, 1200, "a", 18000], "trial": 0, "serialpos": 7, "trial_type": "single-audio", "trial_index": 28, "time_elapsed": 156662, "internal_node_id": "0.0-19.0"}}, {"uniqueid": "MTK1149:3NQL1CS15SFH60IDK3Y29G4F87XVY7", "current_trial": 29, "dateTime": 1513204790646, "trialdata": {"rt": -1000, "stimulus": "/static/audio/wordpool/BRANDY.wav", "key_press": -1, "type": "PRES_AUD", "word": "brandy", "wordID": 168, "conditions": [18, 1200, "a", 18000], "trial": 0, "serialpos": 8, "trial_type": "single-audio", "trial_index": 29, "time_elapsed": 158815, "internal_node_id": "0.0-20.0"}}, {"uniqueid": "MTK1149:3NQL1CS15SFH60IDK3Y29G4F87XVY7", "current_trial": 30, "dateTime": 1513204792855, "trialdata": {"rt": -1000, "stimulus": "/static/audio/wordpool/OUTDOORS.wav", "key_press": -1, "type": "PRES_AUD", "word": "outdoors", "wordID": 986, "conditions": [18, 1200, "a", 18000], "trial": 0, "serialpos": 9, "trial_type": "single-audio", "trial_index": 30, "time_elapsed": 161024, "internal_node_id": "0.0-21.0"}}, {"uniqueid": "MTK1149:3NQL1CS15SFH60IDK3Y29G4F87XVY7", "current_trial": 31, "dateTime": 1513204795047, "trialdata": {"rt": -1000, "stimulus": "/static/audio/wordpool/PISTON.wav", "key_press": -1, "type": "PRES_AUD", "word": "piston", "wordID": 1075, "conditions": [18, 1200, "a", 18000], "trial": 0, "serialpos": 10, "trial_type": "single-audio", "trial_index": 31, "time_elapsed": 163216, "internal_node_id": "0.0-22.0"}}, {"uniqueid": "MTK1149:3NQL1CS15SFH60IDK3Y29G4F87XVY7", "current_trial": 32, "dateTime": 1513204797404, "trialdata": {"rt": -1000, "stimulus": "/static/audio/wordpool/BEAST.wav", "key_press": -1, "type": "PRES_AUD", "word": "beast", "wordID": 107, "conditions": [18, 1200, "a", 18000], "trial": 0, "serialpos": 11, "trial_type": "single-audio", "trial_index": 32, "time_elapsed": 165573, "internal_node_id": "0.0-23.0"}}, {"uniqueid": "MTK1149:3NQL1CS15SFH60IDK3Y29G4F87XVY7", "current_trial": 33, "dateTime": 1513204799575, "trialdata": {"rt": -1000, "stimulus": "/static/audio/wordpool/HANDBAG.wav", "key_press": -1, "type": "PRES_AUD", "word": "handbag", "wordID": 683, "conditions": [18, 1200, "a", 18000], "trial": 0, "serialpos": 12, "trial_type": "single-audio", "trial_index": 33, "time_elapsed": 167744, "internal_node_id": "0.0-24.0"}}, {"uniqueid": "MTK1149:3NQL1CS15SFH60IDK3Y29G4F87XVY7", "current_trial": 34, "dateTime": 1513204801649, "trialdata": {"rt": -1000, "stimulus": "/static/audio/wordpool/CAMEL.wav", "key_press": -1, "type": "PRES_AUD", "word": "camel", "wordID": 222, "conditions": [18, 1200, "a", 18000], "trial": 0, "serialpos": 13, "trial_type": "single-audio", "trial_index": 34, "time_elapsed": 169818, "internal_node_id": "0.0-25.0"}}, {"uniqueid": "MTK1149:3NQL1CS15SFH60IDK3Y29G4F87XVY7", "current_trial": 35, "dateTime": 1513204803942, "trialdata": {"rt": -1000, "stimulus": "/static/audio/wordpool/STOMACH.wav", "key_press": -1, "type": "PRES_AUD", "word": "stomach", "wordID": 1383, "conditions": [18, 1200, "a", 18000], "trial": 0, "serialpos": 14, "trial_type": "single-audio", "trial_index": 35, "time_elapsed": 172111, "internal_node_id": "0.0-26.0"}}, {"uniqueid": "MTK1149:3NQL1CS15SFH60IDK3Y29G4F87XVY7", "current_trial": 36, "dateTime": 1513204806007, "trialdata": {"rt": -1000, "stimulus": "/static/audio/wordpool/TRUCK.wav", "key_press": -1, "type": "PRES_AUD", "word": "truck", "wordID": 1511, "conditions": [18, 1200, "a", 18000], "trial": 0, "serialpos": 15, "trial_type": "single-audio", "trial_index": 36, "time_elapsed": 174176, "internal_node_id": "0.0-27.0"}}, {"uniqueid": "MTK1149:3NQL1CS15SFH60IDK3Y29G4F87XVY7", "current_trial": 37, "dateTime": 1513204808096, "trialdata": {"rt": -1000, "stimulus": "/static/audio/wordpool/FRAME.wav", "key_press": -1, "type": "PRES_AUD", "word": "frame", "wordID": 599, "conditions": [18, 1200, "a", 18000], "trial": 0, "serialpos": 16, "trial_type": "single-audio", "trial_index": 37, "time_elapsed": 176265, "internal_node_id": "0.0-28.0"}}, {"uniqueid": "MTK1149:3NQL1CS15SFH60IDK3Y29G4F87XVY7", "current_trial": 38, "dateTime": 1513204810221, "trialdata": {"rt": -1000, "stimulus": "/static/audio/wordpool/PICTURE.wav", "key_press": -1, "type": "PRES_AUD", "word": "picture", "wordID": 1060, "conditions": [18, 1200, "a", 18000], "trial": 0, "serialpos": 17, "trial_type": "single-audio", "trial_index": 38, "time_elapsed": 178390, "internal_node_id": "0.0-29.0"}}, {"uniqueid": "MTK1149:3NQL1CS15SFH60IDK3Y29G4F87XVY7", "current_trial": 39, "dateTime": 1513204811474, "trialdata": {"rt": -1, "stimulus": "", "key_press": -1, "type": "PRE_RECALL_DELAY", "trial_type": "single-stim", "trial_index": 39, "time_elapsed": 179642, "internal_node_id": "0.0-30.0-0.0"}}, {"uniqueid": "MTK1149:3NQL1CS15SFH60IDK3Y29G4F87XVY7", "current_trial": 40, "dateTime": 1513204811974, "trialdata": {"rt": -1000, "stimulus": "/static/audio/400Hz.wav", "key_press": -1, "type": "PRE_RECALL_ALERT", "trial_type": "single-audio", "trial_index": 40, "time_elapsed": 180143, "internal_node_id": "0.0-31.0"}}, {"uniqueid": "MTK1149:3NQL1CS15SFH60IDK3Y29G4F87XVY7", "current_trial": 41, "dateTime": 1513204871978, "trialdata": {"rt": [2762, 5827, 7219, 9006, 9890, 11937, 14543, 18871, 24517], "recwords": ["partner", "sketch", "convict", "picture", "frame", "outdoors", "backpack", "door", "marker"], "type": "FREE_RECALL", "conditions": [18, 1200, "a", 18000], "trial": 0, "trial_type": "free-recall", "trial_index": 41, "time_elapsed": 240146, "internal_node_id": "0.0-32.0-0.0"}}, {"uniqueid": "MTK1149:3NQL1CS15SFH60IDK3Y29G4F87XVY7", "current_trial": 42, "dateTime": 1513204875636, "trialdata": {"rt": 1657, "key_press": 75, "type": "INSTRUCTIONS", "trial_type": "text", "trial_index": 42, "time_elapsed": 243805, "internal_node_id": "0.0-33.0"}}, {"uniqueid": "MTK1149:3NQL1CS15SFH60IDK3Y29G4F87XVY7", "current_trial": 43, "dateTime": 1513204895638, "trialdata": {"rt": [3191, 5916, 8408, 10929, 13093, 15202], "responses": ["15", "16", "8", "17", "11", "15"], "num1": [7, 4, 2, 7, 2, 5, 4], "num2": [6, 8, 2, 1, 7, 8, 7], "num3": [2, 4, 4, 9, 2, 2, 7], "type": "DISTRACTOR", "conditions": [18, 1200, "v", 18000], "trial": 1, "trial_type": "math-distractor", "trial_index": 43, "time_elapsed": 263807, "internal_node_id": "0.0-34.0"}}, {"uniqueid": "MTK1149:3NQL1CS15SFH60IDK3Y29G4F87XVY7", "current_trial": 44, "dateTime": 1513204898639, "trialdata": {"rt": -1, "stimulus": "<p id=\"stim\">10</p>", "key_press": -1, "trial_type": "single-stim", "trial_index": 44, "time_elapsed": 266808, "internal_node_id": "0.0-35.0-0.0"}}, {"uniqueid": "MTK1149:3NQL1CS15SFH60IDK3Y29G4F87XVY7", "current_trial": 45, "dateTime": 1513204899640, "trialdata": {"rt": -1, "stimulus": "<p id=\"stim\">9</p>", "key_press": -1, "trial_type": "single-stim", "trial_index": 45, "time_elapsed": 267809, "internal_node_id": "0.0-35.0-1.0"}}, {"uniqueid": "MTK1149:3NQL1CS15SFH60IDK3Y29G4F87XVY7", "current_trial": 46, "dateTime": 1513204900641, "trialdata": {"rt": -1, "stimulus": "<p id=\"stim\">8</p>", "key_press": -1, "trial_type": "single-stim", "trial_index": 46, "time_elapsed": 268810, "internal_node_id": "0.0-35.0-2.0"}}, {"uniqueid": "MTK1149:3NQL1CS15SFH60IDK3Y29G4F87XVY7", "current_trial": 47, "dateTime": 1513204901642, "trialdata": {"rt": -1, "stimulus": "<p id=\"stim\">7</p>", "key_press": -1, "trial_type": "single-stim", "trial_index": 47, "time_elapsed": 269811, "internal_node_id": "0.0-35.0-3.0"}}, {"uniqueid": "MTK1149:3NQL1CS15SFH60IDK3Y29G4F87XVY7", "current_trial": 48, "dateTime": 1513204902643, "trialdata": {"rt": -1, "stimulus": "<p id=\"stim\">6</p>", "key_press": -1, "trial_type": "single-stim", "trial_index": 48, "time_elapsed": 270812, "internal_node_id": "0.0-35.0-4.0"}}, {"uniqueid": "MTK1149:3NQL1CS15SFH60IDK3Y29G4F87XVY7", "current_trial": 49, "dateTime": 1513204903644, "trialdata": {"rt": -1, "stimulus": "<p id=\"stim\">5</p>", "key_press": -1, "trial_type": "single-stim", "trial_index": 49, "time_elapsed": 271813, "internal_node_id": "0.0-35.0-5.0"}}, {"uniqueid": "MTK1149:3NQL1CS15SFH60IDK3Y29G4F87XVY7", "current_trial": 50, "dateTime": 1513204904644, "trialdata": {"rt": -1, "stimulus": "<p id=\"stim\">4</p>", "key_press": -1, "trial_type": "single-stim", "trial_index": 50, "time_elapsed": 272813, "internal_node_id": "0.0-35.0-6.0"}}, {"uniqueid": "MTK1149:3NQL1CS15SFH60IDK3Y29G4F87XVY7", "current_trial": 51, "dateTime": 1513204905645, "trialdata": {"rt": -1, "stimulus": "<p id=\"stim\">3</p>", "key_press": -1, "trial_type": "single-stim", "trial_index": 51, "time_elapsed": 273814, "internal_node_id": "0.0-35.0-7.0"}}, {"uniqueid": "MTK1149:3NQL1CS15SFH60IDK3Y29G4F87XVY7", "current_trial": 52, "dateTime": 1513204906647, "trialdata": {"rt": -1, "stimulus": "<p id=\"stim\">2</p>", "key_press": -1, "trial_type": "single-stim", "trial_index": 52, "time_elapsed": 274816, "internal_node_id": "0.0-35.0-8.0"}}, {"uniqueid": "MTK1149:3NQL1CS15SFH60IDK3Y29G4F87XVY7", "current_trial": 53, "dateTime": 1513204907647, "trialdata": {"rt": -1, "stimulus": "<p id=\"stim\">1</p>", "key_press": -1, "trial_type": "single-stim", "trial_index": 53, "time_elapsed": 275816, "internal_node_id": "0.0-35.0-9.0"}}, {"uniqueid": "MTK1149:3NQL1CS15SFH60IDK3Y29G4F87XVY7", "current_trial": 54, "dateTime": 1513204909148, "trialdata": {"rt": -1, "stimulus": "<p id=\"stim\">+</p>", "key_press": -1, "type": "FIXATION", "trial_type": "single-stim", "trial_index": 54, "time_elapsed": 277317, "internal_node_id": "0.0-36.0-0.0"}}, {"uniqueid": "MTK1149:3NQL1CS15SFH60IDK3Y29G4F87XVY7", "current_trial": 55, "dateTime": 1513204910349, "trialdata": {"rt": -1, "stimulus": "<p id=\"stim\">HIKER</p>", "key_press": -1, "type": "PRES_VIS", "word": "hiker", "wordID": 707, "conditions": [18, 1200, "v", 18000], "trial": 1, "serialpos": 0, "trial_type": "single-stim", "trial_index": 55, "time_elapsed": 278518, "internal_node_id": "0.0-37.0"}}, {"uniqueid": "MTK1149:3NQL1CS15SFH60IDK3Y29G4F87XVY7", "current_trial": 56, "dateTime": 1513204912731, "trialdata": {"rt": -1, "stimulus": "<p id=\"stim\">OX</p>", "key_press": -1, "type": "PRES_VIS", "word": "ox", "wordID": 993, "conditions": [18, 1200, "v", 18000], "trial": 1, "serialpos": 1, "trial_type": "single-stim", "trial_index": 56, "time_elapsed": 280900, "internal_node_id": "0.0-38.0"}}, {"uniqueid": "MTK1149:3NQL1CS15SFH60IDK3Y29G4F87XVY7", "current_trial": 57, "dateTime": 1513204914919, "trialdata": {"rt": -1, "stimulus": "<p id=\"stim\">BURGLAR</p>", "key_press": -1, "type": "PRES_VIS", "word": "burglar", "wordID": 199, "conditions": [18, 1200, "v", 18000], "trial": 1, "serialpos": 2, "trial_type": "single-stim", "trial_index": 57, "time_elapsed": 283088, "internal_node_id": "0.0-39.0"}}, {"uniqueid": "MTK1149:3NQL1CS15SFH60IDK3Y29G4F87XVY7", "current_trial": 58, "dateTime": 1513204916967, "trialdata": {"rt": -1, "stimulus": "<p id=\"stim\">BISON</p>", "key_press": -1, "type": "PRES_VIS", "word": "bison", "wordID": 130, "conditions": [18, 1200, "v", 18000], "trial": 1, "serialpos": 3, "trial_type": "single-stim", "trial_index": 58, "time_elapsed": 285136, "internal_node_id": "0.0-40.0"}}, {"uniqueid": "MTK1149:3NQL1CS15SFH60IDK3Y29G4F87XVY7", "current_trial": 59, "dateTime": 1513204919231, "trialdata": {"rt": -1, "stimulus": "<p id=\"stim\">TWIG</p>", "key_press": -1, "type": "PRES_VIS", "word": "twig", "wordID": 1526, "conditions": [18, 1200, "v", 18000], "trial": 1, "serialpos": 4, "trial_type": "single-stim", "trial_index": 59, "time_elapsed": 287400, "internal_node_id": "0.0-41.0"}}, {"uniqueid": "MTK1149:3NQL1CS15SFH60IDK3Y29G4F87XVY7", "current_trial": 60, "dateTime": 1513204921382, "trialdata": {"rt": -1, "stimulus": "<p id=\"stim\">DONOR</p>", "key_press": -1, "type": "PRES_VIS", "word": "donor", "wordID": 484, "conditions": [18, 1200, "v", 18000], "trial": 1, "serialpos": 5, "trial_type": "single-stim", "trial_index": 60, "time_elapsed": 289551, "internal_node_id": "0.0-42.0"}}, {"uniqueid": "MTK1149:3NQL1CS15SFH60IDK3Y29G4F87XVY7", "current_trial": 61, "dateTime": 1513204923418, "trialdata": {"rt": -1, "stimulus": "<p id=\"stim\">CUPBOARD</p>", "key_press": -1, "type": "PRES_VIS", "word": "cupboard", "wordID": 424, "conditions": [18, 1200, "v", 18000], "trial": 1, "serialpos": 6, "trial_type": "single-stim", "trial_index": 61, "time_elapsed": 291587, "internal_node_id": "0.0-43.0"}}, {"uniqueid": "MTK1149:3NQL1CS15SFH60IDK3Y29G4F87XVY7", "current_trial": 62, "dateTime": 1513204925597, "trialdata": {"rt": -1, "stimulus": "<p id=\"stim\">GARDEN</p>", "key_press": -1, "type": "PRES_VIS", "word": "garden", "wordID": 622, "conditions": [18, 1200, "v", 18000], "trial": 1, "serialpos": 7, "trial_type": "single-stim", "trial_index": 62, "time_elapsed": 293766, "internal_node_id": "0.0-44.0"}}, {"uniqueid": "MTK1149:3NQL1CS15SFH60IDK3Y29G4F87XVY7", "current_trial": 63, "dateTime": 1513204927611, "trialdata": {"rt": -1, "stimulus": "<p id=\"stim\">ICEBERG</p>", "key_press": -1, "type": "PRES_VIS", "word": "iceberg", "wordID": 730, "conditions": [18, 1200, "v", 18000], "trial": 1, "serialpos": 8, "trial_type": "single-stim", "trial_index": 63, "time_elapsed": 295780, "internal_node_id": "0.0-45.0"}}, {"uniqueid": "MTK1149:3NQL1CS15SFH60IDK3Y29G4F87XVY7", "current_trial": 64, "dateTime": 1513204929772, "trialdata": {"rt": -1, "stimulus": "<p id=\"stim\">HUSBAND</p>", "key_press": -1, "type": "PRES_VIS", "word": "husband", "wordID": 727, "conditions": [18, 1200, "v", 18000], "trial": 1, "serialpos": 9, "trial_type": "single-stim", "trial_index": 64, "time_elapsed": 297941, "internal_node_id": "0.0-46.0"}}, {"uniqueid": "MTK1149:3NQL1CS15SFH60IDK3Y29G4F87XVY7", "current_trial": 65, "dateTime": 1513204932123, "trialdata": {"rt": -1, "stimulus": "<p id=\"stim\">SPIDER</p>", "key_press": -1, "type": "PRES_VIS", "word": "spider", "wordID": 1350, "conditions": [18, 1200, "v", 18000], "trial": 1, "serialpos": 10, "trial_type": "single-stim", "trial_index": 65, "time_elapsed": 300292, "internal_node_id": "0.0-47.0"}}, {"uniqueid": "MTK1149:3NQL1CS15SFH60IDK3Y29G4F87XVY7", "current_trial": 66, "dateTime": 1513204934382, "trialdata": {"rt": -1, "stimulus": "<p id=\"stim\">WASHER</p>", "key_press": -1, "type": "PRES_VIS", "word": "washer", "wordID": 1591, "conditions": [18, 1200, "v", 18000], "trial": 1, "serialpos": 11, "trial_type": "single-stim", "trial_index": 66, "time_elapsed": 302550, "internal_node_id": "0.0-48.0"}}, {"uniqueid": "MTK1149:3NQL1CS15SFH60IDK3Y29G4F87XVY7", "current_trial": 67, "dateTime": 1513204936606, "trialdata": {"rt": -1, "stimulus": "<p id=\"stim\">GIFT</p>", "key_press": -1, "type": "PRES_VIS", "word": "gift", "wordID": 634, "conditions": [18, 1200, "v", 18000], "trial": 1, "serialpos": 12, "trial_type": "single-stim", "trial_index": 67, "time_elapsed": 304775, "internal_node_id": "0.0-49.0"}}, {"uniqueid": "MTK1149:3NQL1CS15SFH60IDK3Y29G4F87XVY7", "current_trial": 68, "dateTime": 1513204938968, "trialdata": {"rt": -1, "stimulus": "<p id=\"stim\">SEAL</p>", "key_press": -1, "type": "PRES_VIS", "word": "seal", "wordID": 1261, "conditions": [18, 1200, "v", 18000], "trial": 1, "serialpos": 13, "trial_type": "single-stim", "trial_index": 68, "time_elapsed": 307136, "internal_node_id": "0.0-50.0"}}, {"uniqueid": "MTK1149:3NQL1CS15SFH60IDK3Y29G4F87XVY7", "current_trial": 69, "dateTime": 1513204941061, "trialdata": {"rt": -1, "stimulus": "<p id=\"stim\">ASIA</p>", "key_press": -1, "type": "PRES_VIS", "word": "asia", "wordID": 45, "conditions": [18, 1200, "v", 18000], "trial": 1, "serialpos": 14, "trial_type": "single-stim", "trial_index": 69, "time_elapsed": 309230, "internal_node_id": "0.0-51.0"}}, {"uniqueid": "MTK1149:3NQL1CS15SFH60IDK3Y29G4F87XVY7", "current_trial": 70, "dateTime": 1513204943430, "trialdata": {"rt": -1, "stimulus": "<p id=\"stim\">SUMMIT</p>", "key_press": -1, "type": "PRES_VIS", "word": "summit", "wordID": 1404, "conditions": [18, 1200, "v", 18000], "trial": 1, "serialpos": 15, "trial_type": "single-stim", "trial_index": 70, "time_elapsed": 311599, "internal_node_id": "0.0-52.0"}}, {"uniqueid": "MTK1149:3NQL1CS15SFH60IDK3Y29G4F87XVY7", "current_trial": 71, "dateTime": 1513204945514, "trialdata": {"rt": -1, "stimulus": "<p id=\"stim\">CLOUD</p>", "key_press": -1, "type": "PRES_VIS", "word": "cloud", "wordID": 327, "conditions": [18, 1200, "v", 18000], "trial": 1, "serialpos": 16, "trial_type": "single-stim", "trial_index": 71, "time_elapsed": 313683, "internal_node_id": "0.0-53.0"}}, {"uniqueid": "MTK1149:3NQL1CS15SFH60IDK3Y29G4F87XVY7", "current_trial": 72, "dateTime": 1513204947834, "trialdata": {"rt": -1, "stimulus": "<p id=\"stim\">CRAB</p>", "key_press": -1, "type": "PRES_VIS", "word": "crab", "wordID": 396, "conditions": [18, 1200, "v", 18000], "trial": 1, "serialpos": 17, "trial_type": "single-stim", "trial_index": 72, "time_elapsed": 316003, "internal_node_id": "0.0-54.0"}}, {"uniqueid": "MTK1149:3NQL1CS15SFH60IDK3Y29G4F87XVY7", "current_trial": 73, "dateTime": 1513204950097, "trialdata": {"rt": -1, "stimulus": "", "key_press": -1, "type": "PRE_RECALL_DELAY", "trial_type": "single-stim", "trial_index": 73, "time_elapsed": 318266, "internal_node_id": "0.0-55.0-0.0"}}, {"uniqueid": "MTK1149:3NQL1CS15SFH60IDK3Y29G4F87XVY7", "current_trial": 74, "dateTime": 1513204950598, "trialdata": {"rt": -1000, "stimulus": "/static/audio/400Hz.wav", "key_press": -1, "type": "PRE_RECALL_ALERT", "trial_type": "single-audio", "trial_index": 74, "time_elapsed": 318767, "internal_node_id": "0.0-56.0"}}, {"uniqueid": "MTK1149:3NQL1CS15SFH60IDK3Y29G4F87XVY7", "current_trial": 75, "dateTime": 1513205010603, "trialdata": {"rt": [3891, 4464, 7163, 9843], "recwords": ["bison", "ox", "burglar", "cupboard"], "type": "FREE_RECALL", "conditions": [18, 1200, "v", 18000], "trial": 1, "trial_type": "free-recall", "trial_index": 75, "time_elapsed": 378771, "internal_node_id": "0.0-57.0-0.0"}}, {"uniqueid": "MTK1149:3NQL1CS15SFH60IDK3Y29G4F87XVY7", "current_trial": 76, "dateTime": 1513205057615, "trialdata": {"rt": 45009, "key_press": 74, "type": "INSTRUCTIONS", "trial_type": "text", "trial_index": 76, "time_elapsed": 425781, "internal_node_id": "0.0-58.0"}}, {"uniqueid": "MTK1149:3NQL1CS15SFH60IDK3Y29G4F87XVY7", "current_trial": 77, "dateTime": 1513205082617, "trialdata": {"rt": [2668, 8324, 10754, 12659, 16231, 18253, 21970, 23868], "responses": ["18", "19", "17", "17", "14", "9", "23", "12"], "num1": [6, 9, 2, 6, 3, 1, 6, 7, 4], "num2": [6, 8, 8, 6, 3, 2, 9, 2, 2], "num3": [6, 2, 7, 5, 8, 6, 8, 5, 4], "type": "DISTRACTOR", "conditions": [24, 1600, "v", 24000], "trial": 2, "trial_type": "math-distractor", "trial_index": 77, "time_elapsed": 450786, "internal_node_id": "0.0-59.0"}}, {"uniqueid": "MTK1149:3NQL1CS15SFH60IDK3Y29G4F87XVY7", "current_trial": 78, "dateTime": 1513205085619, "trialdata": {"rt": -1, "stimulus": "<p id=\"stim\">10</p>", "key_press": -1, "trial_type": "single-stim", "trial_index": 78, "time_elapsed": 453788, "internal_node_id": "0.0-60.0-0.0"}}, {"uniqueid": "MTK1149:3NQL1CS15SFH60IDK3Y29G4F87XVY7", "current_trial": 79, "dateTime": 1513205086620, "trialdata": {"rt": -1, "stimulus": "<p id=\"stim\">9</p>", "key_press": -1, "trial_type": "single-stim", "trial_index": 79, "time_elapsed": 454789, "internal_node_id": "0.0-60.0-1.0"}}, {"uniqueid": "MTK1149:3NQL1CS15SFH60IDK3Y29G4F87XVY7", "current_trial": 80, "dateTime": 1513205087620, "trialdata": {"rt": -1, "stimulus": "<p id=\"stim\">8</p>", "key_press": -1, "trial_type": "single-stim", "trial_index": 80, "time_elapsed": 455789, "internal_node_id": "0.0-60.0-2.0"}}, {"uniqueid": "MTK1149:3NQL1CS15SFH60IDK3Y29G4F87XVY7", "current_trial": 81, "dateTime": 1513205088621, "trialdata": {"rt": -1, "stimulus": "<p id=\"stim\">7</p>", "key_press": -1, "trial_type": "single-stim", "trial_index": 81, "time_elapsed": 456790, "internal_node_id": "0.0-60.0-3.0"}}, {"uniqueid": "MTK1149:3NQL1CS15SFH60IDK3Y29G4F87XVY7", "current_trial": 82, "dateTime": 1513205089621, "trialdata": {"rt": -1, "stimulus": "<p id=\"stim\">6</p>", "key_press": -1, "trial_type": "single-stim", "trial_index": 82, "time_elapsed": 457790, "internal_node_id": "0.0-60.0-4.0"}}, {"uniqueid": "MTK1149:3NQL1CS15SFH60IDK3Y29G4F87XVY7", "current_trial": 83, "dateTime": 1513205090622, "trialdata": {"rt": -1, "stimulus": "<p id=\"stim\">5</p>", "key_press": -1, "trial_type": "single-stim", "trial_index": 83, "time_elapsed": 458791, "internal_node_id": "0.0-60.0-5.0"}}, {"uniqueid": "MTK1149:3NQL1CS15SFH60IDK3Y29G4F87XVY7", "current_trial": 84, "dateTime": 1513205091623, "trialdata": {"rt": -1, "stimulus": "<p id=\"stim\">4</p>", "key_press": -1, "trial_type": "single-stim", "trial_index": 84, "time_elapsed": 459792, "internal_node_id": "0.0-60.0-6.0"}}, {"uniqueid": "MTK1149:3NQL1CS15SFH60IDK3Y29G4F87XVY7", "current_trial": 85, "dateTime": 1513205092624, "trialdata": {"rt": -1, "stimulus": "<p id=\"stim\">3</p>", "key_press": -1, "trial_type": "single-stim", "trial_index": 85, "time_elapsed": 460793, "internal_node_id": "0.0-60.0-7.0"}}, {"uniqueid": "MTK1149:3NQL1CS15SFH60IDK3Y29G4F87XVY7", "current_trial": 86, "dateTime": 1513205093625, "trialdata": {"rt": -1, "stimulus": "<p id=\"stim\">2</p>", "key_press": -1, "trial_type": "single-stim", "trial_index": 86, "time_elapsed": 461794, "internal_node_id": "0.0-60.0-8.0"}}, {"uniqueid": "MTK1149:3NQL1CS15SFH60IDK3Y29G4F87XVY7", "current_trial": 87, "dateTime": 1513205094626, "trialdata": {"rt": -1, "stimulus": "<p id=\"stim\">1</p>", "key_press": -1, "trial_type": "single-stim", "trial_index": 87, "time_elapsed": 462795, "internal_node_id": "0.0-60.0-9.0"}}, {"uniqueid": "MTK1149:3NQL1CS15SFH60IDK3Y29G4F87XVY7", "current_trial": 88, "dateTime": 1513205096127, "trialdata": {"rt": -1, "stimulus": "<p id=\"stim\">+</p>", "key_press": -1, "type": "FIXATION", "trial_type": "single-stim", "trial_index": 88, "time_elapsed": 464296, "internal_node_id": "0.0-61.0-0.0"}}, {"uniqueid": "MTK1149:3NQL1CS15SFH60IDK3Y29G4F87XVY7", "current_trial": 89, "dateTime": 1513205097728, "trialdata": {"rt": -1, "stimulus": "<p id=\"stim\">CROWN</p>", "key_press": -1, "type": "PRES_VIS", "word": "crown", "wordID": 414, "conditions": [24, 1600, "v", 24000], "trial": 2, "serialpos": 0, "trial_type": "single-stim", "trial_index": 89, "time_elapsed": 465897, "internal_node_id": "0.0-62.0"}}, {"uniqueid": "MTK1149:3NQL1CS15SFH60IDK3Y29G4F87XVY7", "current_trial": 90, "dateTime": 1513205100190, "trialdata": {"rt": -1, "stimulus": "<p id=\"stim\">LIPSTICK</p>", "key_press": -1, "type": "PRES_VIS", "word": "lipstick", "wordID": 828, "conditions": [24, 1600, "v", 24000], "trial": 2, "serialpos": 1, "trial_type": "single-stim", "trial_index": 90, "time_elapsed": 468359, "internal_node_id": "0.0-63.0"}}, {"uniqueid": "MTK1149:3NQL1CS15SFH60IDK3Y29G4F87XVY7", "current_trial": 91, "dateTime": 1513205102799, "trialdata": {"rt": -1, "stimulus": "<p id=\"stim\">BUNNY</p>", "key_press": -1, "type": "PRES_VIS", "word": "bunny", "wordID": 197, "conditions": [24, 1600, "v", 24000], "trial": 2, "serialpos": 2, "trial_type": "single-stim", "trial_index": 91, "time_elapsed": 470967, "internal_node_id": "0.0-64.0"}}, {"uniqueid": "MTK1149:3NQL1CS15SFH60IDK3Y29G4F87XVY7", "current_trial": 92, "dateTime": 1513205105443, "trialdata": {"rt": -1, "stimulus": "<p id=\"stim\">PLASTER</p>", "key_press": -1, "type": "PRES_VIS", "word": "plaster", "wordID": 1084, "conditions": [24, 1600, "v", 24000], "trial": 2, "serialpos": 3, "trial_type": "single-stim", "trial_index": 92, "time_elapsed": 473612, "internal_node_id": "0.0-65.0"}}, {"uniqueid": "MTK1149:3NQL1CS15SFH60IDK3Y29G4F87XVY7", "current_trial": 93, "dateTime": 1513205108104, "trialdata": {"rt": -1, "stimulus": "<p id=\"stim\">ROBBER</p>", "key_press": -1, "type": "PRES_VIS", "word": "robber", "wordID": 1196, "conditions": [24, 1600, "v", 24000], "trial": 2, "serialpos": 4, "trial_type": "single-stim", "trial_index": 93, "time_elapsed": 476273, "internal_node_id": "0.0-66.0"}}, {"uniqueid": "MTK1149:3NQL1CS15SFH60IDK3Y29G4F87XVY7", "current_trial": 94, "dateTime": 1513205110707, "trialdata": {"rt": -1, "stimulus": "<p id=\"stim\">LUGGAGE</p>", "key_press": -1, "type": "PRES_VIS", "word": "luggage", "wordID": 846, "conditions": [24, 1600, "v", 24000], "trial": 2, "serialpos": 5, "trial_type": "single-stim", "trial_index": 94, "time_elapsed": 478876, "internal_node_id": "0.0-67.0"}}, {"uniqueid": "MTK1149:3NQL1CS15SFH60IDK3Y29G4F87XVY7", "current_trial": 95, "dateTime": 1513205113338, "trialdata": {"rt": -1, "stimulus": "<p id=\"stim\">RABBIT</p>", "key_press": -1, "type": "PRES_VIS", "word": "rabbit", "wordID": 1151, "conditions": [24, 1600, "v", 24000], "trial": 2, "serialpos": 6, "trial_type": "single-stim", "trial_index": 95, "time_elapsed": 481507, "internal_node_id": "0.0-68.0"}}, {"uniqueid": "MTK1149:3NQL1CS15SFH60IDK3Y29G4F87XVY7", "current_trial": 96, "dateTime": 1513205115814, "trialdata": {"rt": -1, "stimulus": "<p id=\"stim\">COLLEGE</p>", "key_press": -1, "type": "PRES_VIS", "word": "college", "wordID": 345, "conditions": [24, 1600, "v", 24000], "trial": 2, "serialpos": 7, "trial_type": "single-stim", "trial_index": 96, "time_elapsed": 483983, "internal_node_id": "0.0-69.0"}}, {"uniqueid": "MTK1149:3NQL1CS15SFH60IDK3Y29G4F87XVY7", "current_trial": 97, "dateTime": 1513205118454, "trialdata": {"rt": -1, "stimulus": "<p id=\"stim\">PRIMATE</p>", "key_press": -1, "type": "PRES_VIS", "word": "primate", "wordID": 1122, "conditions": [24, 1600, "v", 24000], "trial": 2, "serialpos": 8, "trial_type": "single-stim", "trial_index": 97, "time_elapsed": 486623, "internal_node_id": "0.0-70.0"}}, {"uniqueid": "MTK1149:3NQL1CS15SFH60IDK3Y29G4F87XVY7", "current_trial": 98, "dateTime": 1513205121195, "trialdata": {"rt": -1, "stimulus": "<p id=\"stim\">MAMMAL</p>", "key_press": -1, "type": "PRES_VIS", "word": "mammal", "wordID": 860, "conditions": [24, 1600, "v", 24000], "trial": 2, "serialpos": 9, "trial_type": "single-stim", "trial_index": 98, "time_elapsed": 489364, "internal_node_id": "0.0-71.0"}}, {"uniqueid": "MTK1149:3NQL1CS15SFH60IDK3Y29G4F87XVY7", "current_trial": 99, "dateTime": 1513205123916, "trialdata": {"rt": -1, "stimulus": "<p id=\"stim\">PLAID</p>", "key_press": -1, "type": "PRES_VIS", "word": "plaid", "wordID": 1079, "conditions": [24, 1600, "v", 24000], "trial": 2, "serialpos": 10, "trial_type": "single-stim", "trial_index": 99, "time_elapsed": 492085, "internal_node_id": "0.0-72.0"}}, {"uniqueid": "MTK1149:3NQL1CS15SFH60IDK3Y29G4F87XVY7", "current_trial": 100, "dateTime": 1513205126423, "trialdata": {"rt": -1, "stimulus": "<p id=\"stim\">THIEF</p>", "key_press": -1, "type": "PRES_VIS", "word": "thief", "wordID": 1455, "conditions": [24, 1600, "v", 24000], "trial": 2, "serialpos": 11, "trial_type": "single-stim", "trial_index": 100, "time_elapsed": 494592, "internal_node_id": "0.0-73.0"}}, {"uniqueid": "MTK1149:3NQL1CS15SFH60IDK3Y29G4F87XVY7", "current_trial": 101, "dateTime": 1513205129123, "trialdata": {"rt": -1, "stimulus": "<p id=\"stim\">TURNIP</p>", "key_press": -1, "type": "PRES_VIS", "word": "turnip", "wordID": 1520, "conditions": [24, 1600, "v", 24000], "trial": 2, "serialpos": 12, "trial_type": "single-stim", "trial_index": 101, "time_elapsed": 497292, "internal_node_id": "0.0-74.0"}}, {"uniqueid": "MTK1149:3NQL1CS15SFH60IDK3Y29G4F87XVY7", "current_trial": 102, "dateTime": 1513205131810, "trialdata": {"rt": -1, "stimulus": "<p id=\"stim\">BOX</p>", "key_press": -1, "type": "PRES_VIS", "word": "box", "wordID": 158, "conditions": [24, 1600, "v", 24000], "trial": 2, "serialpos": 13, "trial_type": "single-stim", "trial_index": 102, "time_elapsed": 499979, "internal_node_id": "0.0-75.0"}}, {"uniqueid": "MTK1149:3NQL1CS15SFH60IDK3Y29G4F87XVY7", "current_trial": 103, "dateTime": 1513205134487, "trialdata": {"rt": -1, "stimulus": "<p id=\"stim\">CREVICE</p>", "key_press": -1, "type": "PRES_VIS", "word": "crevice", "wordID": 404, "conditions": [24, 1600, "v", 24000], "trial": 2, "serialpos": 14, "trial_type": "single-stim", "trial_index": 103, "time_elapsed": 502656, "internal_node_id": "0.0-76.0"}}, {"uniqueid": "MTK1149:3NQL1CS15SFH60IDK3Y29G4F87XVY7", "current_trial": 104, "dateTime": 1513205137144, "trialdata": {"rt": -1, "stimulus": "<p id=\"stim\">MONEY</p>", "key_press": -1, "type": "PRES_VIS", "word": "money", "wordID": 907, "conditions": [24, 1600, "v", 24000], "trial": 2, "serialpos": 15, "trial_type": "single-stim", "trial_index": 104, "time_elapsed": 505313, "internal_node_id": "0.0-77.0"}}, {"uniqueid": "MTK1149:3NQL1CS15SFH60IDK3Y29G4F87XVY7", "current_trial": 105, "dateTime": 1513205139909, "trialdata": {"rt": -1, "stimulus": "<p id=\"stim\">FEMALE</p>", "key_press": -1, "type": "PRES_VIS", "word": "female", "wordID": 558, "conditions": [24, 1600, "v", 24000], "trial": 2, "serialpos": 16, "trial_type": "single-stim", "trial_index": 105, "time_elapsed": 508078, "internal_node_id": "0.0-78.0"}}, {"uniqueid": "MTK1149:3NQL1CS15SFH60IDK3Y29G4F87XVY7", "current_trial": 106, "dateTime": 1513205142392, "trialdata": {"rt": -1, "stimulus": "<p id=\"stim\">BLOCKADE</p>", "key_press": -1, "type": "PRES_VIS", "word": "blockade", "wordID": 136, "conditions": [24, 1600, "v", 24000], "trial": 2, "serialpos": 17, "trial_type": "single-stim", "trial_index": 106, "time_elapsed": 510561, "internal_node_id": "0.0-79.0"}}, {"uniqueid": "MTK1149:3NQL1CS15SFH60IDK3Y29G4F87XVY7", "current_trial": 107, "dateTime": 1513205145120, "trialdata": {"rt": -1, "stimulus": "<p id=\"stim\">FLOWER</p>", "key_press": -1, "type": "PRES_VIS", "word": "flower", "wordID": 583, "conditions": [24, 1600, "v", 24000], "trial": 2, "serialpos": 18, "trial_type": "single-stim", "trial_index": 107, "time_elapsed": 513289, "internal_node_id": "0.0-80.0"}}, {"uniqueid": "MTK1149:3NQL1CS15SFH60IDK3Y29G4F87XVY7", "current_trial": 108, "dateTime": 1513205147687, "trialdata": {"rt": -1, "stimulus": "<p id=\"stim\">VELVET</p>", "key_press": -1, "type": "PRES_VIS", "word": "velvet", "wordID": 1554, "conditions": [24, 1600, "v", 24000], "trial": 2, "serialpos": 19, "trial_type": "single-stim", "trial_index": 108, "time_elapsed": 515856, "internal_node_id": "0.0-81.0"}}, {"uniqueid": "MTK1149:3NQL1CS15SFH60IDK3Y29G4F87XVY7", "current_trial": 109, "dateTime": 1513205150095, "trialdata": {"rt": -1, "stimulus": "<p id=\"stim\">APPLE</p>", "key_press": -1, "type": "PRES_VIS", "word": "apple", "wordID": 32, "conditions": [24, 1600, "v", 24000], "trial": 2, "serialpos": 20, "trial_type": "single-stim", "trial_index": 109, "time_elapsed": 518264, "internal_node_id": "0.0-82.0"}}, {"uniqueid": "MTK1149:3NQL1CS15SFH60IDK3Y29G4F87XVY7", "current_trial": 110, "dateTime": 1513205152842, "trialdata": {"rt": -1, "stimulus": "<p id=\"stim\">PEACH</p>", "key_press": -1, "type": "PRES_VIS", "word": "peach", "wordID": 1030, "conditions": [24, 1600, "v", 24000], "trial": 2, "serialpos": 21, "trial_type": "single-stim", "trial_index": 110, "time_elapsed": 521011, "internal_node_id": "0.0-83.0"}}, {"uniqueid": "MTK1149:3NQL1CS15SFH60IDK3Y29G4F87XVY7", "current_trial": 111, "dateTime": 1513205155349, "trialdata": {"rt": -1, "stimulus": "<p id=\"stim\">SILK</p>", "key_press": -1, "type": "PRES_VIS", "word": "silk", "wordID": 1306, "conditions": [24, 1600, "v", 24000], "trial": 2, "serialpos": 22, "trial_type": "single-stim", "trial_index": 111, "time_elapsed": 523518, "internal_node_id": "0.0-84.0"}}, {"uniqueid": "MTK1149:3NQL1CS15SFH60IDK3Y29G4F87XVY7", "current_trial": 112, "dateTime": 1513205157795, "trialdata": {"rt": -1, "stimulus": "<p id=\"stim\">CROSS</p>", "key_press": -1, "type": "PRES_VIS", "word": "cross", "wordID": 412, "conditions": [24, 1600, "v", 24000], "trial": 2, "serialpos": 23, "trial_type": "single-stim", "trial_index": 112, "time_elapsed": 525964, "internal_node_id": "0.0-85.0"}}, {"uniqueid": "MTK1149:3NQL1CS15SFH60IDK3Y29G4F87XVY7", "current_trial": 113, "dateTime": 1513205160156, "trialdata": {"rt": -1, "stimulus": "", "key_press": -1, "type": "PRE_RECALL_DELAY", "trial_type": "single-stim", "trial_index": 113, "time_elapsed": 528325, "internal_node_id": "0.0-86.0-0.0"}}, {"uniqueid": "MTK1149:3NQL1CS15SFH60IDK3Y29G4F87XVY7", "current_trial": 114, "dateTime": 1513205160656, "trialdata": {"rt": -1000, "stimulus": "/static/audio/400Hz.wav", "key_press": -1, "type": "PRE_RECALL_ALERT", "trial_type": "single-audio", "trial_index": 114, "time_elapsed": 528825, "internal_node_id": "0.0-87.0"}}, {"uniqueid": "MTK1149:3NQL1CS15SFH60IDK3Y29G4F87XVY7", "current_trial": 115, "dateTime": 1513205220659, "trialdata": {"rt": [4139, 5000, 5824, 8249, 9692], "recwords": ["velvet", "apple", "peach", "plaster", "crown"], "type": "FREE_RECALL", "conditions": [24, 1600, "v", 24000], "trial": 2, "trial_type": "free-recall", "trial_index": 115, "time_elapsed": 588827, "internal_node_id": "0.0-88.0-0.0"}}, {"uniqueid": "MTK1149:3NQL1CS15SFH60IDK3Y29G4F87XVY7", "current_trial": 116, "dateTime": 1513205504600, "trialdata": {"rt": 281940, "key_press": 68, "type": "INSTRUCTIONS", "trial_type": "text", "trial_index": 116, "time_elapsed": 872769, "internal_node_id": "0.0-89.0"}}, {"uniqueid": "MTK1149:3NQL1CS15SFH60IDK3Y29G4F87XVY7", "current_trial": 117, "dateTime": 1513205530603, "trialdata": {"rt": [2651, 7164, 9537, 11439, 17821, 20266, 22612], "responses": ["8", "19", "23", "13", "19", "9", "20"], "num1": [1, 7, 7, 7, 7, 3, 8, 7], "num2": [4, 4, 8, 1, 9, 3, 8, 7], "num3": [3, 8, 8, 5, 3, 3, 4, 2], "type": "DISTRACTOR", "conditions": [12, 1600, "a", 24000], "trial": 3, "trial_type": "math-distractor", "trial_index": 117, "time_elapsed": 898772, "internal_node_id": "0.0-90.0"}}, {"uniqueid": "MTK1149:3NQL1CS15SFH60IDK3Y29G4F87XVY7", "current_trial": 118, "dateTime": 1513205533605, "trialdata": {"rt": -1, "stimulus": "<p id=\"stim\">10</p>", "key_press": -1, "trial_type": "single-stim", "trial_index": 118, "time_elapsed": 901774, "internal_node_id": "0.0-91.0-0.0"}}, {"uniqueid": "MTK1149:3NQL1CS15SFH60IDK3Y29G4F87XVY7", "current_trial": 119, "dateTime": 1513205534605, "trialdata": {"rt": -1, "stimulus": "<p id=\"stim\">9</p>", "key_press": -1, "trial_type": "single-stim", "trial_index": 119, "time_elapsed": 902774, "internal_node_id": "0.0-91.0-1.0"}}, {"uniqueid": "MTK1149:3NQL1CS15SFH60IDK3Y29G4F87XVY7", "current_trial": 120, "dateTime": 1513205535606, "trialdata": {"rt": -1, "stimulus": "<p id=\"stim\">8</p>", "key_press": -1, "trial_type": "single-stim", "trial_index": 120, "time_elapsed": 903775, "internal_node_id": "0.0-91.0-2.0"}}, {"uniqueid": "MTK1149:3NQL1CS15SFH60IDK3Y29G4F87XVY7", "current_trial": 121, "dateTime": 1513205536607, "trialdata": {"rt": -1, "stimulus": "<p id=\"stim\">7</p>", "key_press": -1, "trial_type": "single-stim", "trial_index": 121, "time_elapsed": 904776, "internal_node_id": "0.0-91.0-3.0"}}, {"uniqueid": "MTK1149:3NQL1CS15SFH60IDK3Y29G4F87XVY7", "current_trial": 122, "dateTime": 1513205537608, "trialdata": {"rt": -1, "stimulus": "<p id=\"stim\">6</p>", "key_press": -1, "trial_type": "single-stim", "trial_index": 122, "time_elapsed": 905777, "internal_node_id": "0.0-91.0-4.0"}}, {"uniqueid": "MTK1149:3NQL1CS15SFH60IDK3Y29G4F87XVY7", "current_trial": 123, "dateTime": 1513205538609, "trialdata": {"rt": -1, "stimulus": "<p id=\"stim\">5</p>", "key_press": -1, "trial_type": "single-stim", "trial_index": 123, "time_elapsed": 906777, "internal_node_id": "0.0-91.0-5.0"}}, {"uniqueid": "MTK1149:3NQL1CS15SFH60IDK3Y29G4F87XVY7", "current_trial": 124, "dateTime": 1513205539610, "trialdata": {"rt": -1, "stimulus": "<p id=\"stim\">4</p>", "key_press": -1, "trial_type": "single-stim", "trial_index": 124, "time_elapsed": 907778, "internal_node_id": "0.0-91.0-6.0"}}, {"uniqueid": "MTK1149:3NQL1CS15SFH60IDK3Y29G4F87XVY7", "current_trial": 125, "dateTime": 1513205540610, "trialdata": {"rt": -1, "stimulus": "<p id=\"stim\">3</p>", "key_press": -1, "trial_type": "single-stim", "trial_index": 125, "time_elapsed": 908779, "internal_node_id": "0.0-91.0-7.0"}}, {"uniqueid": "MTK1149:3NQL1CS15SFH60IDK3Y29G4F87XVY7", "current_trial": 126, "dateTime": 1513205541610, "trialdata": {"rt": -1, "stimulus": "<p id=\"stim\">2</p>", "key_press": -1, "trial_type": "single-stim", "trial_index": 126, "time_elapsed": 909779, "internal_node_id": "0.0-91.0-8.0"}}, {"uniqueid": "MTK1149:3NQL1CS15SFH60IDK3Y29G4F87XVY7", "current_trial": 127, "dateTime": 1513205542611, "trialdata": {"rt": -1, "stimulus": "<p id=\"stim\">1</p>", "key_press": -1, "trial_type": "single-stim", "trial_index": 127, "time_elapsed": 910780, "internal_node_id": "0.0-91.0-9.0"}}, {"uniqueid": "MTK1149:3NQL1CS15SFH60IDK3Y29G4F87XVY7", "current_trial": 128, "dateTime": 1513205544112, "trialdata": {"rt": -1, "stimulus": "<p id=\"stim\">+</p>", "key_press": -1, "type": "FIXATION", "trial_type": "single-stim", "trial_index": 128, "time_elapsed": 912281, "internal_node_id": "0.0-92.0-0.0"}}, {"uniqueid": "MTK1149:3NQL1CS15SFH60IDK3Y29G4F87XVY7", "current_trial": 129, "dateTime": 1513205546742, "trialdata": {"rt": -1000, "stimulus": "/static/audio/wordpool/FLUTE.wav", "key_press": -1, "type": "PRES_AUD", "word": "flute", "wordID": 584, "conditions": [12, 1600, "a", 24000], "trial": 3, "serialpos": 0, "trial_type": "single-audio", "trial_index": 129, "time_elapsed": 914911, "internal_node_id": "0.0-93.0"}}, {"uniqueid": "MTK1149:3NQL1CS15SFH60IDK3Y29G4F87XVY7", "current_trial": 130, "dateTime": 1513205549518, "trialdata": {"rt": -1000, "stimulus": "/static/audio/wordpool/DASHBOARD.wav", "key_press": -1, "type": "PRES_AUD", "word": "dashboard", "wordID": 440, "conditions": [12, 1600, "a", 24000], "trial": 3, "serialpos": 1, "trial_type": "single-audio", "trial_index": 130, "time_elapsed": 917687, "internal_node_id": "0.0-94.0"}}, {"uniqueid": "MTK1149:3NQL1CS15SFH60IDK3Y29G4F87XVY7", "current_trial": 131, "dateTime": 1513205552208, "trialdata": {"rt": -1000, "stimulus": "/static/audio/wordpool/BLADE.wav", "key_press": -1, "type": "PRES_AUD", "word": "blade", "wordID": 133, "conditions": [12, 1600, "a", 24000], "trial": 3, "serialpos": 2, "trial_type": "single-audio", "trial_index": 131, "time_elapsed": 920376, "internal_node_id": "0.0-95.0"}}, {"uniqueid": "MTK1149:3NQL1CS15SFH60IDK3Y29G4F87XVY7", "current_trial": 132, "dateTime": 1513205554853, "trialdata": {"rt": -1000, "stimulus": "/static/audio/wordpool/SIDEWALK.wav", "key_press": -1, "type": "PRES_AUD", "word": "sidewalk", "wordID": 1302, "conditions": [12, 1600, "a", 24000], "trial": 3, "serialpos": 3, "trial_type": "single-audio", "trial_index": 132, "time_elapsed": 923022, "internal_node_id": "0.0-96.0"}}, {"uniqueid": "MTK1149:3NQL1CS15SFH60IDK3Y29G4F87XVY7", "current_trial": 133, "dateTime": 1513205557297, "trialdata": {"rt": -1000, "stimulus": "/static/audio/wordpool/CHEMIST.wav", "key_press": -1, "type": "PRES_AUD", "word": "chemist", "wordID": 291, "conditions": [12, 1600, "a", 24000], "trial": 3, "serialpos": 4, "trial_type": "single-audio", "trial_index": 133, "time_elapsed": 925465, "internal_node_id": "0.0-97.0"}}, {"uniqueid": "MTK1149:3NQL1CS15SFH60IDK3Y29G4F87XVY7", "current_trial": 134, "dateTime": 1513205559983, "trialdata": {"rt": -1000, "stimulus": "/static/audio/wordpool/POLICE.wav", "key_press": -1, "type": "PRES_AUD", "word": "police", "wordID": 1097, "conditions": [12, 1600, "a", 24000], "trial": 3, "serialpos": 5, "trial_type": "single-audio", "trial_index": 134, "time_elapsed": 928152, "internal_node_id": "0.0-98.0"}}, {"uniqueid": "MTK1149:3NQL1CS15SFH60IDK3Y29G4F87XVY7", "current_trial": 135, "dateTime": 1513205562456, "trialdata": {"rt": -1000, "stimulus": "/static/audio/wordpool/DENIM.wav", "key_press": -1, "type": "PRES_AUD", "word": "denim", "wordID": 445, "conditions": [12, 1600, "a", 24000], "trial": 3, "serialpos": 6, "trial_type": "single-audio", "trial_index": 135, "time_elapsed": 930625, "internal_node_id": "0.0-99.0"}}, {"uniqueid": "MTK1149:3NQL1CS15SFH60IDK3Y29G4F87XVY7", "current_trial": 136, "dateTime": 1513205564990, "trialdata": {"rt": -1000, "stimulus": "/static/audio/wordpool/NURSE.wav", "key_press": -1, "type": "PRES_AUD", "word": "nurse", "wordID": 962, "conditions": [12, 1600, "a", 24000], "trial": 3, "serialpos": 7, "trial_type": "single-audio", "trial_index": 136, "time_elapsed": 933159, "internal_node_id": "0.0-100.0"}}, {"uniqueid": "MTK1149:3NQL1CS15SFH60IDK3Y29G4F87XVY7", "current_trial": 137, "dateTime": 1513205567427, "trialdata": {"rt": -1000, "stimulus": "/static/audio/wordpool/PATIENT.wav", "key_press": -1, "type": "PRES_AUD", "word": "patient", "wordID": 1023, "conditions": [12, 1600, "a", 24000], "trial": 3, "serialpos": 8, "trial_type": "single-audio", "trial_index": 137, "time_elapsed": 935596, "internal_node_id": "0.0-101.0"}}, {"uniqueid": "MTK1149:3NQL1CS15SFH60IDK3Y29G4F87XVY7", "current_trial": 138, "dateTime": 1513205570022, "trialdata": {"rt": -1000, "stimulus": "/static/audio/wordpool/POISON.wav", "key_press": -1, "type": "PRES_AUD", "word": "poison", "wordID": 1095, "conditions": [12, 1600, "a", 24000], "trial": 3, "serialpos": 9, "trial_type": "single-audio", "trial_index": 138, "time_elapsed": 938191, "internal_node_id": "0.0-102.0"}}, {"uniqueid": "MTK1149:3NQL1CS15SFH60IDK3Y29G4F87XVY7", "current_trial": 139, "dateTime": 1513205572471, "trialdata": {"rt": -1000, "stimulus": "/static/audio/wordpool/BANJO.wav", "key_press": -1, "type": "PRES_AUD", "word": "banjo", "wordID": 81, "conditions": [12, 1600, "a", 24000], "trial": 3, "serialpos": 10, "trial_type": "single-audio", "trial_index": 139, "time_elapsed": 940640, "internal_node_id": "0.0-103.0"}}, {"uniqueid": "MTK1149:3NQL1CS15SFH60IDK3Y29G4F87XVY7", "current_trial": 140, "dateTime": 1513205575074, "trialdata": {"rt": -1000, "stimulus": "/static/audio/wordpool/SPOON.wav", "key_press": -1, "type": "PRES_AUD", "word": "spoon", "wordID": 1356, "conditions": [12, 1600, "a", 24000], "trial": 3, "serialpos": 11, "trial_type": "single-audio", "trial_index": 140, "time_elapsed": 943243, "internal_node_id": "0.0-104.0"}}, {"uniqueid": "MTK1149:3NQL1CS15SFH60IDK3Y29G4F87XVY7", "current_trial": 141, "dateTime": 1513205576399, "trialdata": {"rt": -1, "stimulus": "", "key_press": -1, "type": "PRE_RECALL_DELAY", "trial_type": "single-stim", "trial_index": 141, "time_elapsed": 944568, "internal_node_id": "0.0-105.0-0.0"}}, {"uniqueid": "MTK1149:3NQL1CS15SFH60IDK3Y29G4F87XVY7", "current_trial": 142, "dateTime": 1513205576901, "trialdata": {"rt": -1000, "stimulus": "/static/audio/400Hz.wav", "key_press": -1, "type": "PRE_RECALL_ALERT", "trial_type": "single-audio", "trial_index": 142, "time_elapsed": 945070, "internal_node_id": "0.0-106.0"}}, {"uniqueid": "MTK1149:3NQL1CS15SFH60IDK3Y29G4F87XVY7", "current_trial": 143, "dateTime": 1513205636905, "trialdata": {"rt": [2355, 3483, 4283, 5714, 6497, 9105], "recwords": ["spoon", "banjo", "nurse", "police", "denim", "sidewalk"], "type": "FREE_RECALL", "conditions": [12, 1600, "a", 24000], "trial": 3, "trial_type": "free-recall", "trial_index": 143, "time_elapsed": 1005073, "internal_node_id": "0.0-107.0-0.0"}}, {"uniqueid": "MTK1149:3NQL1CS15SFH60IDK3Y29G4F87XVY7", "current_trial": 144, "dateTime": 1513205640836, "trialdata": {"rt": 1930, "key_press": 74, "type": "INSTRUCTIONS", "trial_type": "text", "trial_index": 144, "time_elapsed": 1009005, "internal_node_id": "0.0-108.0"}}, {"uniqueid": "MTK1149:3NQL1CS15SFH60IDK3Y29G4F87XVY7", "current_trial": 145, "dateTime": 1513205654838, "trialdata": {"rt": [2786, 4635, 6311, 7878, 10005, 11650], "responses": ["15", "19", "21", "5", "11", "19"], "num1": [5, 8, 8, 3, 1, 5, 4], "num2": [2, 7, 8, 1, 2, 5, 5], "num3": [8, 4, 5, 1, 8, 9, 9], "type": "DISTRACTOR", "conditions": [12, 1600, "v", 12000], "trial": 4, "trial_type": "math-distractor", "trial_index": 145, "time_elapsed": 1023007, "internal_node_id": "0.0-109.0"}}, {"uniqueid": "MTK1149:3NQL1CS15SFH60IDK3Y29G4F87XVY7", "current_trial": 146, "dateTime": 1513205657840, "trialdata": {"rt": -1, "stimulus": "<p id=\"stim\">10</p>", "key_press": -1, "trial_type": "single-stim", "trial_index": 146, "time_elapsed": 1026008, "internal_node_id": "0.0-110.0-0.0"}}, {"uniqueid": "MTK1149:3NQL1CS15SFH60IDK3Y29G4F87XVY7", "current_trial": 147, "dateTime": 1513205658840, "trialdata": {"rt": -1, "stimulus": "<p id=\"stim\">9</p>", "key_press": -1, "trial_type": "single-stim", "trial_index": 147, "time_elapsed": 1027009, "internal_node_id": "0.0-110.0-1.0"}}, {"uniqueid": "MTK1149:3NQL1CS15SFH60IDK3Y29G4F87XVY7", "current_trial": 148, "dateTime": 1513205659841, "trialdata": {"rt": -1, "stimulus": "<p id=\"stim\">8</p>", "key_press": -1, "trial_type": "single-stim", "trial_index": 148, "time_elapsed": 1028010, "internal_node_id": "0.0-110.0-2.0"}}, {"uniqueid": "MTK1149:3NQL1CS15SFH60IDK3Y29G4F87XVY7", "current_trial": 149, "dateTime": 1513205660842, "trialdata": {"rt": -1, "stimulus": "<p id=\"stim\">7</p>", "key_press": -1, "trial_type": "single-stim", "trial_index": 149, "time_elapsed": 1029011, "internal_node_id": "0.0-110.0-3.0"}}, {"uniqueid": "MTK1149:3NQL1CS15SFH60IDK3Y29G4F87XVY7", "current_trial": 150, "dateTime": 1513205661843, "trialdata": {"rt": -1, "stimulus": "<p id=\"stim\">6</p>", "key_press": -1, "trial_type": "single-stim", "trial_index": 150, "time_elapsed": 1030012, "internal_node_id": "0.0-110.0-4.0"}}, {"uniqueid": "MTK1149:3NQL1CS15SFH60IDK3Y29G4F87XVY7", "current_trial": 151, "dateTime": 1513205662843, "trialdata": {"rt": -1, "stimulus": "<p id=\"stim\">5</p>", "key_press": -1, "trial_type": "single-stim", "trial_index": 151, "time_elapsed": 1031012, "internal_node_id": "0.0-110.0-5.0"}}, {"uniqueid": "MTK1149:3NQL1CS15SFH60IDK3Y29G4F87XVY7", "current_trial": 152, "dateTime": 1513205663844, "trialdata": {"rt": -1, "stimulus": "<p id=\"stim\">4</p>", "key_press": -1, "trial_type": "single-stim", "trial_index": 152, "time_elapsed": 1032013, "internal_node_id": "0.0-110.0-6.0"}}, {"uniqueid": "MTK1149:3NQL1CS15SFH60IDK3Y29G4F87XVY7", "current_trial": 153, "dateTime": 1513205664845, "trialdata": {"rt": -1, "stimulus": "<p id=\"stim\">3</p>", "key_press": -1, "trial_type": "single-stim", "trial_index": 153, "time_elapsed": 1033014, "internal_node_id": "0.0-110.0-7.0"}}, {"uniqueid": "MTK1149:3NQL1CS15SFH60IDK3Y29G4F87XVY7", "current_trial": 154, "dateTime": 1513205665846, "trialdata": {"rt": -1, "stimulus": "<p id=\"stim\">2</p>", "key_press": -1, "trial_type": "single-stim", "trial_index": 154, "time_elapsed": 1034015, "internal_node_id": "0.0-110.0-8.0"}}, {"uniqueid": "MTK1149:3NQL1CS15SFH60IDK3Y29G4F87XVY7", "current_trial": 155, "dateTime": 1513205666847, "trialdata": {"rt": -1, "stimulus": "<p id=\"stim\">1</p>", "key_press": -1, "trial_type": "single-stim", "trial_index": 155, "time_elapsed": 1035016, "internal_node_id": "0.0-110.0-9.0"}}, {"uniqueid": "MTK1149:3NQL1CS15SFH60IDK3Y29G4F87XVY7", "current_trial": 156, "dateTime": 1513205668348, "trialdata": {"rt": -1, "stimulus": "<p id=\"stim\">+</p>", "key_press": -1, "type": "FIXATION", "trial_type": "single-stim", "trial_index": 156, "time_elapsed": 1036517, "internal_node_id": "0.0-111.0-0.0"}}, {"uniqueid": "MTK1149:3NQL1CS15SFH60IDK3Y29G4F87XVY7", "current_trial": 157, "dateTime": 1513205669949, "trialdata": {"rt": -1, "stimulus": "<p id=\"stim\">LEOPARD</p>", "key_press": -1, "type": "PRES_VIS", "word": "leopard", "wordID": 811, "conditions": [12, 1600, "v", 12000], "trial": 4, "serialpos": 0, "trial_type": "single-stim", "trial_index": 157, "time_elapsed": 1038118, "internal_node_id": "0.0-112.0"}}, {"uniqueid": "MTK1149:3NQL1CS15SFH60IDK3Y29G4F87XVY7", "current_trial": 158, "dateTime": 1513205672411, "trialdata": {"rt": -1, "stimulus": "<p id=\"stim\">TAXI</p>", "key_press": -1, "type": "PRES_VIS", "word": "taxi", "wordID": 1437, "conditions": [12, 1600, "v", 12000], "trial": 4, "serialpos": 1, "trial_type": "single-stim", "trial_index": 158, "time_elapsed": 1040580, "internal_node_id": "0.0-113.0"}}, {"uniqueid": "MTK1149:3NQL1CS15SFH60IDK3Y29G4F87XVY7", "current_trial": 159, "dateTime": 1513205675021, "trialdata": {"rt": -1, "stimulus": "<p id=\"stim\">SISTER</p>", "key_press": -1, "type": "PRES_VIS", "word": "sister", "wordID": 1311, "conditions": [12, 1600, "v", 12000], "trial": 4, "serialpos": 2, "trial_type": "single-stim", "trial_index": 159, "time_elapsed": 1043190, "internal_node_id": "0.0-114.0"}}, {"uniqueid": "MTK1149:3NQL1CS15SFH60IDK3Y29G4F87XVY7", "current_trial": 160, "dateTime": 1513205677478, "trialdata": {"rt": -1, "stimulus": "<p id=\"stim\">SIBLING</p>", "key_press": -1, "type": "PRES_VIS", "word": "sibling", "wordID": 1300, "conditions": [12, 1600, "v", 12000], "trial": 4, "serialpos": 3, "trial_type": "single-stim", "trial_index": 160, "time_elapsed": 1045647, "internal_node_id": "0.0-115.0"}}, {"uniqueid": "MTK1149:3NQL1CS15SFH60IDK3Y29G4F87XVY7", "current_trial": 161, "dateTime": 1513205680216, "trialdata": {"rt": -1, "stimulus": "<p id=\"stim\">PLIERS</p>", "key_press": -1, "type": "PRES_VIS", "word": "pliers", "wordID": 1088, "conditions": [12, 1600, "v", 12000], "trial": 4, "serialpos": 4, "trial_type": "single-stim", "trial_index": 161, "time_elapsed": 1048385, "internal_node_id": "0.0-116.0"}}, {"uniqueid": "MTK1149:3NQL1CS15SFH60IDK3Y29G4F87XVY7", "current_trial": 162, "dateTime": 1513205682994, "trialdata": {"rt": -1, "stimulus": "<p id=\"stim\">KIDNEY</p>", "key_press": -1, "type": "PRES_VIS", "word": "kidney", "wordID": 775, "conditions": [12, 1600, "v", 12000], "trial": 4, "serialpos": 5, "trial_type": "single-stim", "trial_index": 162, "time_elapsed": 1051163, "internal_node_id": "0.0-117.0"}}, {"uniqueid": "MTK1149:3NQL1CS15SFH60IDK3Y29G4F87XVY7", "current_trial": 163, "dateTime": 1513205685532, "trialdata": {"rt": -1, "stimulus": "<p id=\"stim\">PLAYGROUND</p>", "key_press": -1, "type": "PRES_VIS", "word": "playground", "wordID": 1086, "conditions": [12, 1600, "v", 12000], "trial": 4, "serialpos": 6, "trial_type": "single-stim", "trial_index": 163, "time_elapsed": 1053701, "internal_node_id": "0.0-118.0"}}, {"uniqueid": "MTK1149:3NQL1CS15SFH60IDK3Y29G4F87XVY7", "current_trial": 164, "dateTime": 1513205688110, "trialdata": {"rt": -1, "stimulus": "<p id=\"stim\">ZEBRA</p>", "key_press": -1, "type": "PRES_VIS", "word": "zebra", "wordID": 1634, "conditions": [12, 1600, "v", 12000], "trial": 4, "serialpos": 7, "trial_type": "single-stim", "trial_index": 164, "time_elapsed": 1056279, "internal_node_id": "0.0-119.0"}}, {"uniqueid": "MTK1149:3NQL1CS15SFH60IDK3Y29G4F87XVY7", "current_trial": 165, "dateTime": 1513205690726, "trialdata": {"rt": -1, "stimulus": "<p id=\"stim\">VIRUS</p>", "key_press": -1, "type": "PRES_VIS", "word": "virus", "wordID": 1571, "conditions": [12, 1600, "v", 12000], "trial": 4, "serialpos": 8, "trial_type": "single-stim", "trial_index": 165, "time_elapsed": 1058895, "internal_node_id": "0.0-120.0"}}, {"uniqueid": "MTK1149:3NQL1CS15SFH60IDK3Y29G4F87XVY7", "current_trial": 166, "dateTime": 1513205693143, "trialdata": {"rt": -1, "stimulus": "<p id=\"stim\">SUNSET</p>", "key_press": -1, "type": "PRES_VIS", "word": "sunset", "wordID": 1407, "conditions": [12, 1600, "v", 12000], "trial": 4, "serialpos": 9, "trial_type": "single-stim", "trial_index": 166, "time_elapsed": 1061312, "internal_node_id": "0.0-121.0"}}, {"uniqueid": "MTK1149:3NQL1CS15SFH60IDK3Y29G4F87XVY7", "current_trial": 167, "dateTime": 1513205695656, "trialdata": {"rt": -1, "stimulus": "<p id=\"stim\">CLOCK</p>", "key_press": -1, "type": "PRES_VIS", "word": "clock", "wordID": 324, "conditions": [12, 1600, "v", 12000], "trial": 4, "serialpos": 10, "trial_type": "single-stim", "trial_index": 167, "time_elapsed": 1063825, "internal_node_id": "0.0-122.0"}}, {"uniqueid": "MTK1149:3NQL1CS15SFH60IDK3Y29G4F87XVY7", "current_trial": 168, "dateTime": 1513205698261, "trialdata": {"rt": -1, "stimulus": "<p id=\"stim\">SERVER</p>", "key_press": -1, "type": "PRES_VIS", "word": "server", "wordID": 1271, "conditions": [12, 1600, "v", 12000], "trial": 4, "serialpos": 11, "trial_type": "single-stim", "trial_index": 168, "time_elapsed": 1066430, "internal_node_id": "0.0-123.0"}}, {"uniqueid": "MTK1149:3NQL1CS15SFH60IDK3Y29G4F87XVY7", "current_trial": 169, "dateTime": 1513205700656, "trialdata": {"rt": -1, "stimulus": "", "key_press": -1, "type": "PRE_RECALL_DELAY", "trial_type": "single-stim", "trial_index": 169, "time_elapsed": 1068825, "internal_node_id": "0.0-124.0-0.0"}}, {"uniqueid": "MTK1149:3NQL1CS15SFH60IDK3Y29G4F87XVY7", "current_trial": 170, "dateTime": 1513205701158, "trialdata": {"rt": -1000, "stimulus": "/static/audio/400Hz.wav", "key_press": -1, "type": "PRE_RECALL_ALERT", "trial_type": "single-audio", "trial_index": 170, "time_elapsed": 1069327, "internal_node_id": "0.0-125.0"}}, {"uniqueid": "MTK1149:3NQL1CS15SFH60IDK3Y29G4F87XVY7", "current_trial": 171, "dateTime": 1513205761161, "trialdata": {"rt": [5019, 6370, 22097], "recwords": ["sibling", "sister", "leopard"], "type": "FREE_RECALL", "conditions": [12, 1600, "v", 12000], "trial": 4, "trial_type": "free-recall", "trial_index": 171, "time_elapsed": 1129329, "internal_node_id": "0.0-126.0-0.0"}}, {"uniqueid": "MTK1149:3NQL1CS15SFH60IDK3Y29G4F87XVY7", "current_trial": 172, "dateTime": 1513205782740, "trialdata": {"rt": 19578, "key_press": 84, "type": "INSTRUCTIONS", "trial_type": "text", "trial_index": 172, "time_elapsed": 1150909, "internal_node_id": "0.0-127.0"}}, {"uniqueid": "MTK1149:3NQL1CS15SFH60IDK3Y29G4F87XVY7", "current_trial": 173, "dateTime": 1513205796743, "trialdata": {"rt": [3236, 5844, 7865, 9695, 11427], "responses": ["12", "16", "13", "17", "10"], "num1": [1, 6, 2, 8, 1, 3], "num2": [7, 9, 8, 2, 5, 4], "num3": [4, 1, 3, 7, 4, 1], "type": "DISTRACTOR", "conditions": [12, 800, "a", 12000], "trial": 5, "trial_type": "math-distractor", "trial_index": 173, "time_elapsed": 1164912, "internal_node_id": "0.0-128.0"}}, {"uniqueid": "MTK1149:3NQL1CS15SFH60IDK3Y29G4F87XVY7", "current_trial": 174, "dateTime": 1513205799743, "trialdata": {"rt": -1, "stimulus": "<p id=\"stim\">10</p>", "key_press": -1, "trial_type": "single-stim", "trial_index": 174, "time_elapsed": 1167912, "internal_node_id": "0.0-129.0-0.0"}}, {"uniqueid": "MTK1149:3NQL1CS15SFH60IDK3Y29G4F87XVY7", "current_trial": 175, "dateTime": 1513205800744, "trialdata": {"rt": -1, "stimulus": "<p id=\"stim\">9</p>", "key_press": -1, "trial_type": "single-stim", "trial_index": 175, "time_elapsed": 1168913, "internal_node_id": "0.0-129.0-1.0"}}, {"uniqueid": "MTK1149:3NQL1CS15SFH60IDK3Y29G4F87XVY7", "current_trial": 176, "dateTime": 1513205801746, "trialdata": {"rt": -1, "stimulus": "<p id=\"stim\">8</p>", "key_press": -1, "trial_type": "single-stim", "trial_index": 176, "time_elapsed": 1169915, "internal_node_id": "0.0-129.0-2.0"}}, {"uniqueid": "MTK1149:3NQL1CS15SFH60IDK3Y29G4F87XVY7", "current_trial": 177, "dateTime": 1513205802747, "trialdata": {"rt": -1, "stimulus": "<p id=\"stim\">7</p>", "key_press": -1, "trial_type": "single-stim", "trial_index": 177, "time_elapsed": 1170916, "internal_node_id": "0.0-129.0-3.0"}}, {"uniqueid": "MTK1149:3NQL1CS15SFH60IDK3Y29G4F87XVY7", "current_trial": 178, "dateTime": 1513205803748, "trialdata": {"rt": -1, "stimulus": "<p id=\"stim\">6</p>", "key_press": -1, "trial_type": "single-stim", "trial_index": 178, "time_elapsed": 1171917, "internal_node_id": "0.0-129.0-4.0"}}, {"uniqueid": "MTK1149:3NQL1CS15SFH60IDK3Y29G4F87XVY7", "current_trial": 179, "dateTime": 1513205804749, "trialdata": {"rt": -1, "stimulus": "<p id=\"stim\">5</p>", "key_press": -1, "trial_type": "single-stim", "trial_index": 179, "time_elapsed": 1172918, "internal_node_id": "0.0-129.0-5.0"}}, {"uniqueid": "MTK1149:3NQL1CS15SFH60IDK3Y29G4F87XVY7", "current_trial": 180, "dateTime": 1513205805750, "trialdata": {"rt": -1, "stimulus": "<p id=\"stim\">4</p>", "key_press": -1, "trial_type": "single-stim", "trial_index": 180, "time_elapsed": 1173919, "internal_node_id": "0.0-129.0-6.0"}}, {"uniqueid": "MTK1149:3NQL1CS15SFH60IDK3Y29G4F87XVY7", "current_trial": 181, "dateTime": 1513205806751, "trialdata": {"rt": -1, "stimulus": "<p id=\"stim\">3</p>", "key_press": -1, "trial_type": "single-stim", "trial_index": 181, "time_elapsed": 1174920, "internal_node_id": "0.0-129.0-7.0"}}, {"uniqueid": "MTK1149:3NQL1CS15SFH60IDK3Y29G4F87XVY7", "current_trial": 182, "dateTime": 1513205807752, "trialdata": {"rt": -1, "stimulus": "<p id=\"stim\">2</p>", "key_press": -1, "trial_type": "single-stim", "trial_index": 182, "time_elapsed": 1175921, "internal_node_id": "0.0-129.0-8.0"}}, {"uniqueid": "MTK1149:3NQL1CS15SFH60IDK3Y29G4F87XVY7", "current_trial": 183, "dateTime": 1513205808754, "trialdata": {"rt": -1, "stimulus": "<p id=\"stim\">1</p>", "key_press": -1, "trial_type": "single-stim", "trial_index": 183, "time_elapsed": 1176922, "internal_node_id": "0.0-129.0-9.0"}}, {"uniqueid": "MTK1149:3NQL1CS15SFH60IDK3Y29G4F87XVY7", "current_trial": 184, "dateTime": 1513205810254, "trialdata": {"rt": -1, "stimulus": "<p id=\"stim\">+</p>", "key_press": -1, "type": "FIXATION", "trial_type": "single-stim", "trial_index": 184, "time_elapsed": 1178423, "internal_node_id": "0.0-130.0-0.0"}}, {"uniqueid": "MTK1149:3NQL1CS15SFH60IDK3Y29G4F87XVY7", "current_trial": 185, "dateTime": 1513205812205, "trialdata": {"rt": -1000, "stimulus": "/static/audio/wordpool/JAPAN.wav", "key_press": -1, "type": "PRES_AUD", "word": "japan", "wordID": 748, "conditions": [12, 800, "a", 12000], "trial": 5, "serialpos": 0, "trial_type": "single-audio", "trial_index": 185, "time_elapsed": 1180374, "internal_node_id": "0.0-131.0"}}, {"uniqueid": "MTK1149:3NQL1CS15SFH60IDK3Y29G4F87XVY7", "current_trial": 186, "dateTime": 1513205814010, "trialdata": {"rt": -1000, "stimulus": "/static/audio/wordpool/CREATURE.wav", "key_press": -1, "type": "PRES_AUD", "word": "creature", "wordID": 402, "conditions": [12, 800, "a", 12000], "trial": 5, "serialpos": 1, "trial_type": "single-audio", "trial_index": 186, "time_elapsed": 1182179, "internal_node_id": "0.0-132.0"}}, {"uniqueid": "MTK1149:3NQL1CS15SFH60IDK3Y29G4F87XVY7", "current_trial": 187, "dateTime": 1513205815717, "trialdata": {"rt": -1000, "stimulus": "/static/audio/wordpool/WINDOW.wav", "key_press": -1, "type": "PRES_AUD", "word": "window", "wordID": 1610, "conditions": [12, 800, "a", 12000], "trial": 5, "serialpos": 2, "trial_type": "single-audio", "trial_index": 187, "time_elapsed": 1183886, "internal_node_id": "0.0-133.0"}}, {"uniqueid": "MTK1149:3NQL1CS15SFH60IDK3Y29G4F87XVY7", "current_trial": 188, "dateTime": 1513205817715, "trialdata": {"rt": -1000, "stimulus": "/static/audio/wordpool/BRIEFCASE.wav", "key_press": -1, "type": "PRES_AUD", "word": "briefcase", "wordID": 174, "conditions": [12, 800, "a", 12000], "trial": 5, "serialpos": 3, "trial_type": "single-audio", "trial_index": 188, "time_elapsed": 1185884, "internal_node_id": "0.0-134.0"}}, {"uniqueid": "MTK1149:3NQL1CS15SFH60IDK3Y29G4F87XVY7", "current_trial": 189, "dateTime": 1513205819356, "trialdata": {"rt": -1000, "stimulus": "/static/audio/wordpool/DRAGON.wav", "key_press": -1, "type": "PRES_AUD", "word": "dragon", "wordID": 491, "conditions": [12, 800, "a", 12000], "trial": 5, "serialpos": 4, "trial_type": "single-audio", "trial_index": 189, "time_elapsed": 1187525, "internal_node_id": "0.0-135.0"}}, {"uniqueid": "MTK1149:3NQL1CS15SFH60IDK3Y29G4F87XVY7", "current_trial": 190, "dateTime": 1513205821074, "trialdata": {"rt": -1000, "stimulus": "/static/audio/wordpool/ATOM.wav", "key_press": -1, "type": "PRES_AUD", "word": "atom", "wordID": 54, "conditions": [12, 800, "a", 12000], "trial": 5, "serialpos": 5, "trial_type": "single-audio", "trial_index": 190, "time_elapsed": 1189243, "internal_node_id": "0.0-136.0"}}, {"uniqueid": "MTK1149:3NQL1CS15SFH60IDK3Y29G4F87XVY7", "current_trial": 191, "dateTime": 1513205822997, "trialdata": {"rt": -1000, "stimulus": "/static/audio/wordpool/COOK.wav", "key_press": -1, "type": "PRES_AUD", "word": "cook", "wordID": 371, "conditions": [12, 800, "a", 12000], "trial": 5, "serialpos": 6, "trial_type": "single-audio", "trial_index": 191, "time_elapsed": 1191166, "internal_node_id": "0.0-137.0"}}, {"uniqueid": "MTK1149:3NQL1CS15SFH60IDK3Y29G4F87XVY7", "current_trial": 192, "dateTime": 1513205824847, "trialdata": {"rt": -1000, "stimulus": "/static/audio/wordpool/STOVE.wav", "key_press": -1, "type": "PRES_AUD", "word": "stove", "wordID": 1387, "conditions": [12, 800, "a", 12000], "trial": 5, "serialpos": 7, "trial_type": "single-audio", "trial_index": 192, "time_elapsed": 1193016, "internal_node_id": "0.0-138.0"}}, {"uniqueid": "MTK1149:3NQL1CS15SFH60IDK3Y29G4F87XVY7", "current_trial": 193, "dateTime": 1513205826463, "trialdata": {"rt": -1000, "stimulus": "/static/audio/wordpool/PIZZA.wav", "key_press": -1, "type": "PRES_AUD", "word": "pizza", "wordID": 1078, "conditions": [12, 800, "a", 12000], "trial": 5, "serialpos": 8, "trial_type": "single-audio", "trial_index": 193, "time_elapsed": 1194632, "internal_node_id": "0.0-139.0"}}, {"uniqueid": "MTK1149:3NQL1CS15SFH60IDK3Y29G4F87XVY7", "current_trial": 194, "dateTime": 1513205828349, "trialdata": {"rt": -1000, "stimulus": "/static/audio/wordpool/DRINK.wav", "key_press": -1, "type": "PRES_AUD", "word": "drink", "wordID": 497, "conditions": [12, 800, "a", 12000], "trial": 5, "serialpos": 9, "trial_type": "single-audio", "trial_index": 194, "time_elapsed": 1196518, "internal_node_id": "0.0-140.0"}}, {"uniqueid": "MTK1149:3NQL1CS15SFH60IDK3Y29G4F87XVY7", "current_trial": 195, "dateTime": 1513205830273, "trialdata": {"rt": -1000, "stimulus": "/static/audio/wordpool/ATLAS.wav", "key_press": -1, "type": "PRES_AUD", "word": "atlas", "wordID": 52, "conditions": [12, 800, "a", 12000], "trial": 5, "serialpos": 10, "trial_type": "single-audio", "trial_index": 195, "time_elapsed": 1198442, "internal_node_id": "0.0-141.0"}}, {"uniqueid": "MTK1149:3NQL1CS15SFH60IDK3Y29G4F87XVY7", "current_trial": 196, "dateTime": 1513205832099, "trialdata": {"rt": -1000, "stimulus": "/static/audio/wordpool/EGYPT.wav", "key_press": -1, "type": "PRES_AUD", "word": "egypt", "wordID": 518, "conditions": [12, 800, "a", 12000], "trial": 5, "serialpos": 11, "trial_type": "single-audio", "trial_index": 196, "time_elapsed": 1200268, "internal_node_id": "0.0-142.0"}}, {"uniqueid": "MTK1149:3NQL1CS15SFH60IDK3Y29G4F87XVY7", "current_trial": 197, "dateTime": 1513205833304, "trialdata": {"rt": -1, "stimulus": "", "key_press": -1, "type": "PRE_RECALL_DELAY", "trial_type": "single-stim", "trial_index": 197, "time_elapsed": 1201473, "internal_node_id": "0.0-143.0-0.0"}}, {"uniqueid": "MTK1149:3NQL1CS15SFH60IDK3Y29G4F87XVY7", "current_trial": 198, "dateTime": 1513205833805, "trialdata": {"rt": -1000, "stimulus": "/static/audio/400Hz.wav", "key_press": -1, "type": "PRE_RECALL_ALERT", "trial_type": "single-audio", "trial_index": 198, "time_elapsed": 1201974, "internal_node_id": "0.0-144.0"}}, {"uniqueid": "MTK1149:3NQL1CS15SFH60IDK3Y29G4F87XVY7", "current_trial": 199, "dateTime": 1513205893809, "trialdata": {"rt": [6340, 8364, 8970], "recwords": ["atlas", "egypt", "stone"], "type": "FREE_RECALL", "conditions": [12, 800, "a", 12000], "trial": 5, "trial_type": "free-recall", "trial_index": 199, "time_elapsed": 1261976, "internal_node_id": "0.0-145.0-0.0"}}, {"uniqueid": "MTK1149:3NQL1CS15SFH60IDK3Y29G4F87XVY7", "current_trial": 200, "dateTime": 1513206055974, "trialdata": {"rt": 160165, "key_press": 70, "type": "INSTRUCTIONS", "trial_type": "text", "trial_index": 200, "time_elapsed": 1424143, "internal_node_id": "0.0-146.0"}}, {"uniqueid": "MTK1149:3NQL1CS15SFH60IDK3Y29G4F87XVY7", "current_trial": 201, "dateTime": 1513206081976, "trialdata": {"rt": [3610, 5749, 7964, 9788, 11898, 14558, 18034, 20540, 22604], "responses": ["20", "15", "15", "5", "16", "19", "22", "15", "17"], "num1": [8, 6, 9, 1, 5, 7, 7, 3, 7, 5], "num2": [4, 1, 3, 2, 2, 4, 9, 9, 8, 9], "num3": [8, 8, 3, 2, 9, 8, 6, 2, 2, 6], "type": "DISTRACTOR", "conditions": [24, 800, "a", 24000], "trial": 6, "trial_type": "math-distractor", "trial_index": 201, "time_elapsed": 1450145, "internal_node_id": "0.0-147.0"}}, {"uniqueid": "MTK1149:3NQL1CS15SFH60IDK3Y29G4F87XVY7", "current_trial": 202, "dateTime": 1513206084978, "trialdata": {"rt": -1, "stimulus": "<p id=\"stim\">10</p>", "key_press": -1, "trial_type": "single-stim", "trial_index": 202, "time_elapsed": 1453146, "internal_node_id": "0.0-148.0-0.0"}}, {"uniqueid": "MTK1149:3NQL1CS15SFH60IDK3Y29G4F87XVY7", "current_trial": 203, "dateTime": 1513206085979, "trialdata": {"rt": -1, "stimulus": "<p id=\"stim\">9</p>", "key_press": -1, "trial_type": "single-stim", "trial_index": 203, "time_elapsed": 1454148, "internal_node_id": "0.0-148.0-1.0"}}, {"uniqueid": "MTK1149:3NQL1CS15SFH60IDK3Y29G4F87XVY7", "current_trial": 204, "dateTime": 1513206086979, "trialdata": {"rt": -1, "stimulus": "<p id=\"stim\">8</p>", "key_press": -1, "trial_type": "single-stim", "trial_index": 204, "time_elapsed": 1455148, "internal_node_id": "0.0-148.0-2.0"}}, {"uniqueid": "MTK1149:3NQL1CS15SFH60IDK3Y29G4F87XVY7", "current_trial": 205, "dateTime": 1513206087980, "trialdata": {"rt": -1, "stimulus": "<p id=\"stim\">7</p>", "key_press": -1, "trial_type": "single-stim", "trial_index": 205, "time_elapsed": 1456149, "internal_node_id": "0.0-148.0-3.0"}}, {"uniqueid": "MTK1149:3NQL1CS15SFH60IDK3Y29G4F87XVY7", "current_trial": 206, "dateTime": 1513206088981, "trialdata": {"rt": -1, "stimulus": "<p id=\"stim\">6</p>", "key_press": -1, "trial_type": "single-stim", "trial_index": 206, "time_elapsed": 1457150, "internal_node_id": "0.0-148.0-4.0"}}, {"uniqueid": "MTK1149:3NQL1CS15SFH60IDK3Y29G4F87XVY7", "current_trial": 207, "dateTime": 1513206089982, "trialdata": {"rt": -1, "stimulus": "<p id=\"stim\">5</p>", "key_press": -1, "trial_type": "single-stim", "trial_index": 207, "time_elapsed": 1458151, "internal_node_id": "0.0-148.0-5.0"}}, {"uniqueid": "MTK1149:3NQL1CS15SFH60IDK3Y29G4F87XVY7", "current_trial": 208, "dateTime": 1513206090983, "trialdata": {"rt": -1, "stimulus": "<p id=\"stim\">4</p>", "key_press": -1, "trial_type": "single-stim", "trial_index": 208, "time_elapsed": 1459152, "internal_node_id": "0.0-148.0-6.0"}}, {"uniqueid": "MTK1149:3NQL1CS15SFH60IDK3Y29G4F87XVY7", "current_trial": 209, "dateTime": 1513206091984, "trialdata": {"rt": -1, "stimulus": "<p id=\"stim\">3</p>", "key_press": -1, "trial_type": "single-stim", "trial_index": 209, "time_elapsed": 1460153, "internal_node_id": "0.0-148.0-7.0"}}, {"uniqueid": "MTK1149:3NQL1CS15SFH60IDK3Y29G4F87XVY7", "current_trial": 210, "dateTime": 1513206092985, "trialdata": {"rt": -1, "stimulus": "<p id=\"stim\">2</p>", "key_press": -1, "trial_type": "single-stim", "trial_index": 210, "time_elapsed": 1461154, "internal_node_id": "0.0-148.0-8.0"}}, {"uniqueid": "MTK1149:3NQL1CS15SFH60IDK3Y29G4F87XVY7", "current_trial": 211, "dateTime": 1513206093987, "trialdata": {"rt": -1, "stimulus": "<p id=\"stim\">1</p>", "key_press": -1, "trial_type": "single-stim", "trial_index": 211, "time_elapsed": 1462155, "internal_node_id": "0.0-148.0-9.0"}}, {"uniqueid": "MTK1149:3NQL1CS15SFH60IDK3Y29G4F87XVY7", "current_trial": 212, "dateTime": 1513206095488, "trialdata": {"rt": -1, "stimulus": "<p id=\"stim\">+</p>", "key_press": -1, "type": "FIXATION", "trial_type": "single-stim", "trial_index": 212, "time_elapsed": 1463657, "internal_node_id": "0.0-149.0-0.0"}}, {"uniqueid": "MTK1149:3NQL1CS15SFH60IDK3Y29G4F87XVY7", "current_trial": 213, "dateTime": 1513206097270, "trialdata": {"rt": -1000, "stimulus": "/static/audio/wordpool/PASTA.wav", "key_press": -1, "type": "PRES_AUD", "word": "pasta", "wordID": 1020, "conditions": [24, 800, "a", 24000], "trial": 6, "serialpos": 0, "trial_type": "single-audio", "trial_index": 213, "time_elapsed": 1465439, "internal_node_id": "0.0-150.0"}}, {"uniqueid": "MTK1149:3NQL1CS15SFH60IDK3Y29G4F87XVY7", "current_trial": 214, "dateTime": 1513206099059, "trialdata": {"rt": -1000, "stimulus": "/static/audio/wordpool/SWIMMER.wav", "key_press": -1, "type": "PRES_AUD", "word": "swimmer", "wordID": 1419, "conditions": [24, 800, "a", 24000], "trial": 6, "serialpos": 1, "trial_type": "single-audio", "trial_index": 214, "time_elapsed": 1467228, "internal_node_id": "0.0-151.0"}}, {"uniqueid": "MTK1149:3NQL1CS15SFH60IDK3Y29G4F87XVY7", "current_trial": 215, "dateTime": 1513206100810, "trialdata": {"rt": -1000, "stimulus": "/static/audio/wordpool/COWBOY.wav", "key_press": -1, "type": "PRES_AUD", "word": "cowboy", "wordID": 394, "conditions": [24, 800, "a", 24000], "trial": 6, "serialpos": 2, "trial_type": "single-audio", "trial_index": 215, "time_elapsed": 1468979, "internal_node_id": "0.0-152.0"}}, {"uniqueid": "MTK1149:3NQL1CS15SFH60IDK3Y29G4F87XVY7", "current_trial": 216, "dateTime": 1513206102708, "trialdata": {"rt": -1000, "stimulus": "/static/audio/wordpool/SEAGULL.wav", "key_press": -1, "type": "PRES_AUD", "word": "seagull", "wordID": 1260, "conditions": [24, 800, "a", 24000], "trial": 6, "serialpos": 3, "trial_type": "single-audio", "trial_index": 216, "time_elapsed": 1470877, "internal_node_id": "0.0-153.0"}}, {"uniqueid": "MTK1149:3NQL1CS15SFH60IDK3Y29G4F87XVY7", "current_trial": 217, "dateTime": 1513206104391, "trialdata": {"rt": -1000, "stimulus": "/static/audio/wordpool/SALT.wav", "key_press": -1, "type": "PRES_AUD", "word": "salt", "wordID": 1228, "conditions": [24, 800, "a", 24000], "trial": 6, "serialpos": 4, "trial_type": "single-audio", "trial_index": 217, "time_elapsed": 1472560, "internal_node_id": "0.0-154.0"}}, {"uniqueid": "MTK1149:3NQL1CS15SFH60IDK3Y29G4F87XVY7", "current_trial": 218, "dateTime": 1513206106185, "trialdata": {"rt": -1000, "stimulus": "/static/audio/wordpool/SALMON.wav", "key_press": -1, "type": "PRES_AUD", "word": "salmon", "wordID": 1226, "conditions": [24, 800, "a", 24000], "trial": 6, "serialpos": 5, "trial_type": "single-audio", "trial_index": 218, "time_elapsed": 1474354, "internal_node_id": "0.0-155.0"}}, {"uniqueid": "MTK1149:3NQL1CS15SFH60IDK3Y29G4F87XVY7", "current_trial": 219, "dateTime": 1513206107989, "trialdata": {"rt": -1000, "stimulus": "/static/audio/wordpool/SEAFOOD.wav", "key_press": -1, "type": "PRES_AUD", "word": "seafood", "wordID": 1259, "conditions": [24, 800, "a", 24000], "trial": 6, "serialpos": 6, "trial_type": "single-audio", "trial_index": 219, "time_elapsed": 1476158, "internal_node_id": "0.0-156.0"}}, {"uniqueid": "MTK1149:3NQL1CS15SFH60IDK3Y29G4F87XVY7", "current_trial": 220, "dateTime": 1513206109848, "trialdata": {"rt": -1000, "stimulus": "/static/audio/wordpool/GYMNAST.wav", "key_press": -1, "type": "PRES_AUD", "word": "gymnast", "wordID": 674, "conditions": [24, 800, "a", 24000], "trial": 6, "serialpos": 7, "trial_type": "single-audio", "trial_index": 220, "time_elapsed": 1478017, "internal_node_id": "0.0-157.0"}}, {"uniqueid": "MTK1149:3NQL1CS15SFH60IDK3Y29G4F87XVY7", "current_trial": 221, "dateTime": 1513206111747, "trialdata": {"rt": -1000, "stimulus": "/static/audio/wordpool/JELLY.wav", "key_press": -1, "type": "PRES_AUD", "word": "jelly", "wordID": 754, "conditions": [24, 800, "a", 24000], "trial": 6, "serialpos": 8, "trial_type": "single-audio", "trial_index": 221, "time_elapsed": 1479916, "internal_node_id": "0.0-158.0"}}, {"uniqueid": "MTK1149:3NQL1CS15SFH60IDK3Y29G4F87XVY7", "current_trial": 222, "dateTime": 1513206113481, "trialdata": {"rt": -1000, "stimulus": "/static/audio/wordpool/TWISTER.wav", "key_press": -1, "type": "PRES_AUD", "word": "twister", "wordID": 1529, "conditions": [24, 800, "a", 24000], "trial": 6, "serialpos": 9, "trial_type": "single-audio", "trial_index": 222, "time_elapsed": 1481650, "internal_node_id": "0.0-159.0"}}, {"uniqueid": "MTK1149:3NQL1CS15SFH60IDK3Y29G4F87XVY7", "current_trial": 223, "dateTime": 1513206115208, "trialdata": {"rt": -1000, "stimulus": "/static/audio/wordpool/PREACHER.wav", "key_press": -1, "type": "PRES_AUD", "word": "preacher", "wordID": 1118, "conditions": [24, 800, "a", 24000], "trial": 6, "serialpos": 10, "trial_type": "single-audio", "trial_index": 223, "time_elapsed": 1483377, "internal_node_id": "0.0-160.0"}}, {"uniqueid": "MTK1149:3NQL1CS15SFH60IDK3Y29G4F87XVY7", "current_trial": 224, "dateTime": 1513206117049, "trialdata": {"rt": -1000, "stimulus": "/static/audio/wordpool/HOUND.wav", "key_press": -1, "type": "PRES_AUD", "word": "hound", "wordID": 723, "conditions": [24, 800, "a", 24000], "trial": 6, "serialpos": 11, "trial_type": "single-audio", "trial_index": 224, "time_elapsed": 1485218, "internal_node_id": "0.0-161.0"}}, {"uniqueid": "MTK1149:3NQL1CS15SFH60IDK3Y29G4F87XVY7", "current_trial": 225, "dateTime": 1513206118900, "trialdata": {"rt": -1000, "stimulus": "/static/audio/wordpool/BARREL.wav", "key_press": -1, "type": "PRES_AUD", "word": "barrel", "wordID": 90, "conditions": [24, 800, "a", 24000], "trial": 6, "serialpos": 12, "trial_type": "single-audio", "trial_index": 225, "time_elapsed": 1487069, "internal_node_id": "0.0-162.0"}}, {"uniqueid": "MTK1149:3NQL1CS15SFH60IDK3Y29G4F87XVY7", "current_trial": 226, "dateTime": 1513206120639, "trialdata": {"rt": -1000, "stimulus": "/static/audio/wordpool/GALLON.wav", "key_press": -1, "type": "PRES_AUD", "word": "gallon", "wordID": 617, "conditions": [24, 800, "a", 24000], "trial": 6, "serialpos": 13, "trial_type": "single-audio", "trial_index": 226, "time_elapsed": 1488808, "internal_node_id": "0.0-163.0"}}, {"uniqueid": "MTK1149:3NQL1CS15SFH60IDK3Y29G4F87XVY7", "current_trial": 227, "dateTime": 1513206122322, "trialdata": {"rt": -1000, "stimulus": "/static/audio/wordpool/PECAN.wav", "key_press": -1, "type": "PRES_AUD", "word": "pecan", "wordID": 1035, "conditions": [24, 800, "a", 24000], "trial": 6, "serialpos": 14, "trial_type": "single-audio", "trial_index": 227, "time_elapsed": 1490491, "internal_node_id": "0.0-164.0"}}, {"uniqueid": "MTK1149:3NQL1CS15SFH60IDK3Y29G4F87XVY7", "current_trial": 228, "dateTime": 1513206123927, "trialdata": {"rt": -1000, "stimulus": "/static/audio/wordpool/RECORD.wav", "key_press": -1, "type": "PRES_AUD", "word": "record", "wordID": 1175, "conditions": [24, 800, "a", 24000], "trial": 6, "serialpos": 15, "trial_type": "single-audio", "trial_index": 228, "time_elapsed": 1492096, "internal_node_id": "0.0-165.0"}}, {"uniqueid": "MTK1149:3NQL1CS15SFH60IDK3Y29G4F87XVY7", "current_trial": 229, "dateTime": 1513206125612, "trialdata": {"rt": -1000, "stimulus": "/static/audio/wordpool/RECEIPT.wav", "key_press": -1, "type": "PRES_AUD", "word": "receipt", "wordID": 1172, "conditions": [24, 800, "a", 24000], "trial": 6, "serialpos": 16, "trial_type": "single-audio", "trial_index": 229, "time_elapsed": 1493781, "internal_node_id": "0.0-166.0"}}, {"uniqueid": "MTK1149:3NQL1CS15SFH60IDK3Y29G4F87XVY7", "current_trial": 230, "dateTime": 1513206127593, "trialdata": {"rt": -1000, "stimulus": "/static/audio/wordpool/CITRUS.wav", "key_press": -1, "type": "PRES_AUD", "word": "citrus", "wordID": 312, "conditions": [24, 800, "a", 24000], "trial": 6, "serialpos": 17, "trial_type": "single-audio", "trial_index": 230, "time_elapsed": 1495762, "internal_node_id": "0.0-167.0"}}, {"uniqueid": "MTK1149:3NQL1CS15SFH60IDK3Y29G4F87XVY7", "current_trial": 231, "dateTime": 1513206129330, "trialdata": {"rt": -1000, "stimulus": "/static/audio/wordpool/DRAWING.wav", "key_press": -1, "type": "PRES_AUD", "word": "drawing", "wordID": 493, "conditions": [24, 800, "a", 24000], "trial": 6, "serialpos": 18, "trial_type": "single-audio", "trial_index": 231, "time_elapsed": 1497498, "internal_node_id": "0.0-168.0"}}, {"uniqueid": "MTK1149:3NQL1CS15SFH60IDK3Y29G4F87XVY7", "current_trial": 232, "dateTime": 1513206131165, "trialdata": {"rt": -1000, "stimulus": "/static/audio/wordpool/SCULPTURE.wav", "key_press": -1, "type": "PRES_AUD", "word": "sculpture", "wordID": 1257, "conditions": [24, 800, "a", 24000], "trial": 6, "serialpos": 19, "trial_type": "single-audio", "trial_index": 232, "time_elapsed": 1499334, "internal_node_id": "0.0-169.0"}}, {"uniqueid": "MTK1149:3NQL1CS15SFH60IDK3Y29G4F87XVY7", "current_trial": 233, "dateTime": 1513206133121, "trialdata": {"rt": -1000, "stimulus": "/static/audio/wordpool/MILK.wav", "key_press": -1, "type": "PRES_AUD", "word": "milk", "wordID": 894, "conditions": [24, 800, "a", 24000], "trial": 6, "serialpos": 20, "trial_type": "single-audio", "trial_index": 233, "time_elapsed": 1501290, "internal_node_id": "0.0-170.0"}}, {"uniqueid": "MTK1149:3NQL1CS15SFH60IDK3Y29G4F87XVY7", "current_trial": 234, "dateTime": 1513206134922, "trialdata": {"rt": -1000, "stimulus": "/static/audio/wordpool/REPORT.wav", "key_press": -1, "type": "PRES_AUD", "word": "report", "wordID": 1183, "conditions": [24, 800, "a", 24000], "trial": 6, "serialpos": 21, "trial_type": "single-audio", "trial_index": 234, "time_elapsed": 1503091, "internal_node_id": "0.0-171.0"}}, {"uniqueid": "MTK1149:3NQL1CS15SFH60IDK3Y29G4F87XVY7", "current_trial": 235, "dateTime": 1513206136534, "trialdata": {"rt": -1000, "stimulus": "/static/audio/wordpool/DANDRUFF.wav", "key_press": -1, "type": "PRES_AUD", "word": "dandruff", "wordID": 438, "conditions": [24, 800, "a", 24000], "trial": 6, "serialpos": 22, "trial_type": "single-audio", "trial_index": 235, "time_elapsed": 1504703, "internal_node_id": "0.0-172.0"}}, {"uniqueid": "MTK1149:3NQL1CS15SFH60IDK3Y29G4F87XVY7", "current_trial": 236, "dateTime": 1513206138196, "trialdata": {"rt": -1000, "stimulus": "/static/audio/wordpool/DANCER.wav", "key_press": -1, "type": "PRES_AUD", "word": "dancer", "wordID": 436, "conditions": [24, 800, "a", 24000], "trial": 6, "serialpos": 23, "trial_type": "single-audio", "trial_index": 236, "time_elapsed": 1506365, "internal_node_id": "0.0-173.0"}}, {"uniqueid": "MTK1149:3NQL1CS15SFH60IDK3Y29G4F87XVY7", "current_trial": 237, "dateTime": 1513206139519, "trialdata": {"rt": -1, "stimulus": "", "key_press": -1, "type": "PRE_RECALL_DELAY", "trial_type": "single-stim", "trial_index": 237, "time_elapsed": 1507688, "internal_node_id": "0.0-174.0-0.0"}}, {"uniqueid": "MTK1149:3NQL1CS15SFH60IDK3Y29G4F87XVY7", "current_trial": 238, "dateTime": 1513206140019, "trialdata": {"rt": -1000, "stimulus": "/static/audio/400Hz.wav", "key_press": -1, "type": "PRE_RECALL_ALERT", "trial_type": "single-audio", "trial_index": 238, "time_elapsed": 1508188, "internal_node_id": "0.0-175.0"}}, {"uniqueid": "MTK1149:3NQL1CS15SFH60IDK3Y29G4F87XVY7", "current_trial": 239, "dateTime": 1513206200023, "trialdata": {"rt": [2597, 4227, 5872, 7382], "recwords": ["report", "drawing", "dandruff", "dancer"], "type": "FREE_RECALL", "conditions": [24, 800, "a", 24000], "trial": 6, "trial_type": "free-recall", "trial_index": 239, "time_elapsed": 1568191, "internal_node_id": "0.0-176.0-0.0"}}, {"uniqueid": "MTK1149:3NQL1CS15SFH60IDK3Y29G4F87XVY7", "current_trial": 240, "dateTime": 1513206203569, "trialdata": {"rt": 1545, "key_press": 74, "type": "INSTRUCTIONS", "trial_type": "text", "trial_index": 240, "time_elapsed": 1571738, "internal_node_id": "0.0-177.0"}}, {"uniqueid": "MTK1149:3NQL1CS15SFH60IDK3Y29G4F87XVY7", "current_trial": 241, "dateTime": 1513206217571, "trialdata": {"rt": [2022, 4968, 7091, 10321], "responses": ["13", "19", "14", "19"], "num1": [9, 7, 4, 9, 7], "num2": [3, 4, 7, 3, 3], "num3": [1, 8, 3, 7, 3], "type": "DISTRACTOR", "conditions": [24, 1600, "a", 12000], "trial": 7, "trial_type": "math-distractor", "trial_index": 241, "time_elapsed": 1585740, "internal_node_id": "0.0-178.0"}}, {"uniqueid": "MTK1149:3NQL1CS15SFH60IDK3Y29G4F87XVY7", "current_trial": 242, "dateTime": 1513206220572, "trialdata": {"rt": -1, "stimulus": "<p id=\"stim\">10</p>", "key_press": -1, "trial_type": "single-stim", "trial_index": 242, "time_elapsed": 1588741, "internal_node_id": "0.0-179.0-0.0"}}, {"uniqueid": "MTK1149:3NQL1CS15SFH60IDK3Y29G4F87XVY7", "current_trial": 243, "dateTime": 1513206221573, "trialdata": {"rt": -1, "stimulus": "<p id=\"stim\">9</p>", "key_press": -1, "trial_type": "single-stim", "trial_index": 243, "time_elapsed": 1589742, "internal_node_id": "0.0-179.0-1.0"}}, {"uniqueid": "MTK1149:3NQL1CS15SFH60IDK3Y29G4F87XVY7", "current_trial": 244, "dateTime": 1513206222573, "trialdata": {"rt": -1, "stimulus": "<p id=\"stim\">8</p>", "key_press": -1, "trial_type": "single-stim", "trial_index": 244, "time_elapsed": 1590742, "internal_node_id": "0.0-179.0-2.0"}}, {"uniqueid": "MTK1149:3NQL1CS15SFH60IDK3Y29G4F87XVY7", "current_trial": 245, "dateTime": 1513206223574, "trialdata": {"rt": -1, "stimulus": "<p id=\"stim\">7</p>", "key_press": -1, "trial_type": "single-stim", "trial_index": 245, "time_elapsed": 1591743, "internal_node_id": "0.0-179.0-3.0"}}, {"uniqueid": "MTK1149:3NQL1CS15SFH60IDK3Y29G4F87XVY7", "current_trial": 246, "dateTime": 1513206224575, "trialdata": {"rt": -1, "stimulus": "<p id=\"stim\">6</p>", "key_press": -1, "trial_type": "single-stim", "trial_index": 246, "time_elapsed": 1592744, "internal_node_id": "0.0-179.0-4.0"}}, {"uniqueid": "MTK1149:3NQL1CS15SFH60IDK3Y29G4F87XVY7", "current_trial": 247, "dateTime": 1513206225576, "trialdata": {"rt": -1, "stimulus": "<p id=\"stim\">5</p>", "key_press": -1, "trial_type": "single-stim", "trial_index": 247, "time_elapsed": 1593745, "internal_node_id": "0.0-179.0-5.0"}}, {"uniqueid": "MTK1149:3NQL1CS15SFH60IDK3Y29G4F87XVY7", "current_trial": 248, "dateTime": 1513206226577, "trialdata": {"rt": -1, "stimulus": "<p id=\"stim\">4</p>", "key_press": -1, "trial_type": "single-stim", "trial_index": 248, "time_elapsed": 1594746, "internal_node_id": "0.0-179.0-6.0"}}, {"uniqueid": "MTK1149:3NQL1CS15SFH60IDK3Y29G4F87XVY7", "current_trial": 249, "dateTime": 1513206227578, "trialdata": {"rt": -1, "stimulus": "<p id=\"stim\">3</p>", "key_press": -1, "trial_type": "single-stim", "trial_index": 249, "time_elapsed": 1595746, "internal_node_id": "0.0-179.0-7.0"}}, {"uniqueid": "MTK1149:3NQL1CS15SFH60IDK3Y29G4F87XVY7", "current_trial": 250, "dateTime": 1513206228578, "trialdata": {"rt": -1, "stimulus": "<p id=\"stim\">2</p>", "key_press": -1, "trial_type": "single-stim", "trial_index": 250, "time_elapsed": 1596747, "internal_node_id": "0.0-179.0-8.0"}}, {"uniqueid": "MTK1149:3NQL1CS15SFH60IDK3Y29G4F87XVY7", "current_trial": 251, "dateTime": 1513206229579, "trialdata": {"rt": -1, "stimulus": "<p id=\"stim\">1</p>", "key_press": -1, "trial_type": "single-stim", "trial_index": 251, "time_elapsed": 1597748, "internal_node_id": "0.0-179.0-9.0"}}, {"uniqueid": "MTK1149:3NQL1CS15SFH60IDK3Y29G4F87XVY7", "current_trial": 252, "dateTime": 1513206231080, "trialdata": {"rt": -1, "stimulus": "<p id=\"stim\">+</p>", "key_press": -1, "type": "FIXATION", "trial_type": "single-stim", "trial_index": 252, "time_elapsed": 1599249, "internal_node_id": "0.0-180.0-0.0"}}, {"uniqueid": "MTK1149:3NQL1CS15SFH60IDK3Y29G4F87XVY7", "current_trial": 253, "dateTime": 1513206233487, "trialdata": {"rt": -1000, "stimulus": "/static/audio/wordpool/GARBAGE.wav", "key_press": -1, "type": "PRES_AUD", "word": "garbage", "wordID": 621, "conditions": [24, 1600, "a", 12000], "trial": 7, "serialpos": 0, "trial_type": "single-audio", "trial_index": 253, "time_elapsed": 1601656, "internal_node_id": "0.0-181.0"}}, {"uniqueid": "MTK1149:3NQL1CS15SFH60IDK3Y29G4F87XVY7", "current_trial": 254, "dateTime": 1513206236169, "trialdata": {"rt": -1000, "stimulus": "/static/audio/wordpool/MILDEW.wav", "key_press": -1, "type": "PRES_AUD", "word": "mildew", "wordID": 892, "conditions": [24, 1600, "a", 12000], "trial": 7, "serialpos": 1, "trial_type": "single-audio", "trial_index": 254, "time_elapsed": 1604338, "internal_node_id": "0.0-182.0"}}, {"uniqueid": "MTK1149:3NQL1CS15SFH60IDK3Y29G4F87XVY7", "current_trial": 255, "dateTime": 1513206238658, "trialdata": {"rt": -1000, "stimulus": "/static/audio/wordpool/BRICK.wav", "key_press": -1, "type": "PRES_AUD", "word": "brick", "wordID": 171, "conditions": [24, 1600, "a", 12000], "trial": 7, "serialpos": 2, "trial_type": "single-audio", "trial_index": 255, "time_elapsed": 1606826, "internal_node_id": "0.0-183.0"}}, {"uniqueid": "MTK1149:3NQL1CS15SFH60IDK3Y29G4F87XVY7", "current_trial": 256, "dateTime": 1513206241113, "trialdata": {"rt": -1000, "stimulus": "/static/audio/wordpool/CASHEW.wav", "key_press": -1, "type": "PRES_AUD", "word": "cashew", "wordID": 252, "conditions": [24, 1600, "a", 12000], "trial": 7, "serialpos": 3, "trial_type": "single-audio", "trial_index": 256, "time_elapsed": 1609282, "internal_node_id": "0.0-184.0"}}, {"uniqueid": "MTK1149:3NQL1CS15SFH60IDK3Y29G4F87XVY7", "current_trial": 257, "dateTime": 1513206243729, "trialdata": {"rt": -1000, "stimulus": "/static/audio/wordpool/NOMAD.wav", "key_press": -1, "type": "PRES_AUD", "word": "nomad", "wordID": 954, "conditions": [24, 1600, "a", 12000], "trial": 7, "serialpos": 4, "trial_type": "single-audio", "trial_index": 257, "time_elapsed": 1611897, "internal_node_id": "0.0-185.0"}}, {"uniqueid": "MTK1149:3NQL1CS15SFH60IDK3Y29G4F87XVY7", "current_trial": 258, "dateTime": 1513206246133, "trialdata": {"rt": -1000, "stimulus": "/static/audio/wordpool/CARRIAGE.wav", "key_press": -1, "type": "PRES_AUD", "word": "carriage", "wordID": 247, "conditions": [24, 1600, "a", 12000], "trial": 7, "serialpos": 5, "trial_type": "single-audio", "trial_index": 258, "time_elapsed": 1614302, "internal_node_id": "0.0-186.0"}}, {"uniqueid": "MTK1149:3NQL1CS15SFH60IDK3Y29G4F87XVY7", "current_trial": 259, "dateTime": 1513206248537, "trialdata": {"rt": -1000, "stimulus": "/static/audio/wordpool/COSTUME.wav", "key_press": -1, "type": "PRES_AUD", "word": "costume", "wordID": 382, "conditions": [24, 1600, "a", 12000], "trial": 7, "serialpos": 6, "trial_type": "single-audio", "trial_index": 259, "time_elapsed": 1616706, "internal_node_id": "0.0-187.0"}}, {"uniqueid": "MTK1149:3NQL1CS15SFH60IDK3Y29G4F87XVY7", "current_trial": 260, "dateTime": 1513206251103, "trialdata": {"rt": -1000, "stimulus": "/static/audio/wordpool/DRESS.wav", "key_press": -1, "type": "PRES_AUD", "word": "dress", "wordID": 494, "conditions": [24, 1600, "a", 12000], "trial": 7, "serialpos": 7, "trial_type": "single-audio", "trial_index": 260, "time_elapsed": 1619272, "internal_node_id": "0.0-188.0"}}, {"uniqueid": "MTK1149:3NQL1CS15SFH60IDK3Y29G4F87XVY7", "current_trial": 261, "dateTime": 1513206253620, "trialdata": {"rt": -1000, "stimulus": "/static/audio/wordpool/APRON.wav", "key_press": -1, "type": "PRES_AUD", "word": "apron", "wordID": 34, "conditions": [24, 1600, "a", 12000], "trial": 7, "serialpos": 8, "trial_type": "single-audio", "trial_index": 261, "time_elapsed": 1621789, "internal_node_id": "0.0-189.0"}}, {"uniqueid": "MTK1149:3NQL1CS15SFH60IDK3Y29G4F87XVY7", "current_trial": 262, "dateTime": 1513206256206, "trialdata": {"rt": -1000, "stimulus": "/static/audio/wordpool/STONE.wav", "key_press": -1, "type": "PRES_AUD", "word": "stone", "wordID": 1384, "conditions": [24, 1600, "a", 12000], "trial": 7, "serialpos": 9, "trial_type": "single-audio", "trial_index": 262, "time_elapsed": 1624375, "internal_node_id": "0.0-190.0"}}, {"uniqueid": "MTK1149:3NQL1CS15SFH60IDK3Y29G4F87XVY7", "current_trial": 263, "dateTime": 1513206258689, "trialdata": {"rt": -1000, "stimulus": "/static/audio/wordpool/PORTRAIT.wav", "key_press": -1, "type": "PRES_AUD", "word": "portrait", "wordID": 1110, "conditions": [24, 1600, "a", 12000], "trial": 7, "serialpos": 10, "trial_type": "single-audio", "trial_index": 263, "time_elapsed": 1626858, "internal_node_id": "0.0-191.0"}}, {"uniqueid": "MTK1149:3NQL1CS15SFH60IDK3Y29G4F87XVY7", "current_trial": 264, "dateTime": 1513206261302, "trialdata": {"rt": -1000, "stimulus": "/static/audio/wordpool/ANTLER.wav", "key_press": -1, "type": "PRES_AUD", "word": "antler", "wordID": 28, "conditions": [24, 1600, "a", 12000], "trial": 7, "serialpos": 11, "trial_type": "single-audio", "trial_index": 264, "time_elapsed": 1629471, "internal_node_id": "0.0-192.0"}}, {"uniqueid": "MTK1149:3NQL1CS15SFH60IDK3Y29G4F87XVY7", "current_trial": 265, "dateTime": 1513206263796, "trialdata": {"rt": -1000, "stimulus": "/static/audio/wordpool/PIGEON.wav", "key_press": -1, "type": "PRES_AUD", "word": "pigeon", "wordID": 1064, "conditions": [24, 1600, "a", 12000], "trial": 7, "serialpos": 12, "trial_type": "single-audio", "trial_index": 265, "time_elapsed": 1631965, "internal_node_id": "0.0-193.0"}}, {"uniqueid": "MTK1149:3NQL1CS15SFH60IDK3Y29G4F87XVY7", "current_trial": 266, "dateTime": 1513206266364, "trialdata": {"rt": -1000, "stimulus": "/static/audio/wordpool/BUG.wav", "key_press": -1, "type": "PRES_AUD", "word": "bug", "wordID": 186, "conditions": [24, 1600, "a", 12000], "trial": 7, "serialpos": 13, "trial_type": "single-audio", "trial_index": 266, "time_elapsed": 1634533, "internal_node_id": "0.0-194.0"}}, {"uniqueid": "MTK1149:3NQL1CS15SFH60IDK3Y29G4F87XVY7", "current_trial": 267, "dateTime": 1513206269000, "trialdata": {"rt": -1000, "stimulus": "/static/audio/wordpool/VICTIM.wav", "key_press": -1, "type": "PRES_AUD", "word": "victim", "wordID": 1561, "conditions": [24, 1600, "a", 12000], "trial": 7, "serialpos": 14, "trial_type": "single-audio", "trial_index": 267, "time_elapsed": 1637169, "internal_node_id": "0.0-195.0"}}, {"uniqueid": "MTK1149:3NQL1CS15SFH60IDK3Y29G4F87XVY7", "current_trial": 268, "dateTime": 1513206271509, "trialdata": {"rt": -1000, "stimulus": "/static/audio/wordpool/FLIPPER.wav", "key_press": -1, "type": "PRES_AUD", "word": "flipper", "wordID": 579, "conditions": [24, 1600, "a", 12000], "trial": 7, "serialpos": 15, "trial_type": "single-audio", "trial_index": 268, "time_elapsed": 1639678, "internal_node_id": "0.0-196.0"}}, {"uniqueid": "MTK1149:3NQL1CS15SFH60IDK3Y29G4F87XVY7", "current_trial": 269, "dateTime": 1513206273984, "trialdata": {"rt": -1000, "stimulus": "/static/audio/wordpool/COUNTY.wav", "key_press": -1, "type": "PRES_AUD", "word": "county", "wordID": 388, "conditions": [24, 1600, "a", 12000], "trial": 7, "serialpos": 16, "trial_type": "single-audio", "trial_index": 269, "time_elapsed": 1642153, "internal_node_id": "0.0-197.0"}}, {"uniqueid": "MTK1149:3NQL1CS15SFH60IDK3Y29G4F87XVY7", "current_trial": 270, "dateTime": 1513206276714, "trialdata": {"rt": -1000, "stimulus": "/static/audio/wordpool/LIVER.wav", "key_press": -1, "type": "PRES_AUD", "word": "liver", "wordID": 832, "conditions": [24, 1600, "a", 12000], "trial": 7, "serialpos": 17, "trial_type": "single-audio", "trial_index": 270, "time_elapsed": 1644883, "internal_node_id": "0.0-198.0"}}, {"uniqueid": "MTK1149:3NQL1CS15SFH60IDK3Y29G4F87XVY7", "current_trial": 271, "dateTime": 1513206279181, "trialdata": {"rt": -1000, "stimulus": "/static/audio/wordpool/PARENT.wav", "key_press": -1, "type": "PRES_AUD", "word": "parent", "wordID": 1012, "conditions": [24, 1600, "a", 12000], "trial": 7, "serialpos": 18, "trial_type": "single-audio", "trial_index": 271, "time_elapsed": 1647350, "internal_node_id": "0.0-199.0"}}, {"uniqueid":