{"condition": 0, "counterbalance": 430, "assignmentId": "3DL65MZB8EMN1MVMTLR3CLOA5VZECD", "workerId": "MTK1241", "hitId": "3CIS7GGG65QH0WESPA71H7EWXEWEUP", "currenttrial": 626, "bonus": 0, "data": [{"uniqueid": "MTK1241:3DL65MZB8EMN1MVMTLR3CLOA5VZECD", "current_trial": 0, "dateTime": 1513467004524, "trialdata": {"rt": 2654, "key_press": 32, "type": "INSTRUCTIONS", "trial_type": "text", "trial_index": 0, "time_elapsed": 2657, "internal_node_id": "0.0-0.0"}}, {"uniqueid": "MTK1241:3DL65MZB8EMN1MVMTLR3CLOA5VZECD", "current_trial": 1, "dateTime": 1513467065376, "trialdata": {"rt": 60850, "key_press": 32, "type": "INSTRUCTIONS", "trial_type": "text", "trial_index": 1, "time_elapsed": 63511, "internal_node_id": "0.0-1.0"}}, {"uniqueid": "MTK1241:3DL65MZB8EMN1MVMTLR3CLOA5VZECD", "current_trial": 2, "dateTime": 1513467089303, "trialdata": {"rt": [23919], "responses": ["ocean"], "type": "AUDIO_TEST", "trial_type": "audio-test", "trial_index": 2, "time_elapsed": 87438, "internal_node_id": "0.0-2.0"}}, {"uniqueid": "MTK1241:3DL65MZB8EMN1MVMTLR3CLOA5VZECD", "current_trial": 3, "dateTime": 1513467110654, "trialdata": {"rt": [21346], "responses": ["crystal"], "type": "AUDIO_TEST", "trial_type": "audio-test", "trial_index": 3, "time_elapsed": 108789, "internal_node_id": "0.0-3.0"}}, {"uniqueid": "MTK1241:3DL65MZB8EMN1MVMTLR3CLOA5VZECD", "current_trial": 4, "dateTime": 1513467120274, "trialdata": {"rt": [9616], "responses": ["spice"], "type": "AUDIO_TEST", "trial_type": "audio-test", "trial_index": 4, "time_elapsed": 118409, "internal_node_id": "0.0-4.0"}}, {"uniqueid": "MTK1241:3DL65MZB8EMN1MVMTLR3CLOA5VZECD", "current_trial": 5, "dateTime": 1513467162226, "trialdata": {"rt": 41198, "responses": "{\"Q0\":\"11:30\",\"Q1\":\"6:30\",\"Q2\":\"5\"}", "type": "SLEEP_SURVEY", "trial_type": "survey-text", "trial_index": 5, "time_elapsed": 160360, "internal_node_id": "0.0-5.0"}}, {"uniqueid": "MTK1241:3DL65MZB8EMN1MVMTLR3CLOA5VZECD", "current_trial": 6, "dateTime": 1513467291093, "trialdata": {"rt": 127865, "key_press": 32, "type": "INSTRUCTIONS", "trial_type": "text", "trial_index": 6, "time_elapsed": 289228, "internal_node_id": "0.0-6.0"}}, {"uniqueid": "MTK1241:3DL65MZB8EMN1MVMTLR3CLOA5VZECD", "current_trial": 7, "dateTime": 1513467342320, "trialdata": {"rt": 50725, "key_press": 32, "type": "INSTRUCTIONS", "trial_type": "text", "trial_index": 7, "time_elapsed": 340455, "internal_node_id": "0.0-7.0"}}, {"uniqueid": "MTK1241:3DL65MZB8EMN1MVMTLR3CLOA5VZECD", "current_trial": 8, "dateTime": 1513467378839, "trialdata": {"rt": 36017, "key_press": 32, "type": "INSTRUCTIONS", "trial_type": "text", "trial_index": 8, "time_elapsed": 376974, "internal_node_id": "0.0-8.0"}}, {"uniqueid": "MTK1241:3DL65MZB8EMN1MVMTLR3CLOA5VZECD", "current_trial": 9, "dateTime": 1513467397845, "trialdata": {"rt": [4759, 8118, 11028, 13205, 16763], "responses": ["10", "22", "14", "14", "18"], "num1": [3, 9, 3, 5, 6, 5], "num2": [1, 5, 5, 1, 9, 8], "num3": [6, 8, 6, 8, 1, 4], "type": "DISTRACTOR", "conditions": [18, 1200, "a", 18000], "trial": 0, "trial_type": "math-distractor", "trial_index": 9, "time_elapsed": 395979, "internal_node_id": "0.0-9.0"}}, {"uniqueid": "MTK1241:3DL65MZB8EMN1MVMTLR3CLOA5VZECD", "current_trial": 10, "dateTime": 1513467400850, "trialdata": {"rt": -1, "stimulus": "<p id=\"stim\">10</p>", "key_press": -1, "trial_type": "single-stim", "trial_index": 10, "time_elapsed": 398985, "internal_node_id": "0.0-10.0-0.0"}}, {"uniqueid": "MTK1241:3DL65MZB8EMN1MVMTLR3CLOA5VZECD", "current_trial": 11, "dateTime": 1513467401851, "trialdata": {"rt": -1, "stimulus": "<p id=\"stim\">9</p>", "key_press": -1, "trial_type": "single-stim", "trial_index": 11, "time_elapsed": 399986, "internal_node_id": "0.0-10.0-1.0"}}, {"uniqueid": "MTK1241:3DL65MZB8EMN1MVMTLR3CLOA5VZECD", "current_trial": 12, "dateTime": 1513467402853, "trialdata": {"rt": -1, "stimulus": "<p id=\"stim\">8</p>", "key_press": -1, "trial_type": "single-stim", "trial_index": 12, "time_elapsed": 400988, "internal_node_id": "0.0-10.0-2.0"}}, {"uniqueid": "MTK1241:3DL65MZB8EMN1MVMTLR3CLOA5VZECD", "current_trial": 13, "dateTime": 1513467403855, "trialdata": {"rt": -1, "stimulus": "<p id=\"stim\">7</p>", "key_press": -1, "trial_type": "single-stim", "trial_index": 13, "time_elapsed": 401989, "internal_node_id": "0.0-10.0-3.0"}}, {"uniqueid": "MTK1241:3DL65MZB8EMN1MVMTLR3CLOA5VZECD", "current_trial": 14, "dateTime": 1513467404857, "trialdata": {"rt": -1, "stimulus": "<p id=\"stim\">6</p>", "key_press": -1, "trial_type": "single-stim", "trial_index": 14, "time_elapsed": 402991, "internal_node_id": "0.0-10.0-4.0"}}, {"uniqueid": "MTK1241:3DL65MZB8EMN1MVMTLR3CLOA5VZECD", "current_trial": 15, "dateTime": 1513467405859, "trialdata": {"rt": -1, "stimulus": "<p id=\"stim\">5</p>", "key_press": -1, "trial_type": "single-stim", "trial_index": 15, "time_elapsed": 403994, "internal_node_id": "0.0-10.0-5.0"}}, {"uniqueid": "MTK1241:3DL65MZB8EMN1MVMTLR3CLOA5VZECD", "current_trial": 16, "dateTime": 1513467406862, "trialdata": {"rt": -1, "stimulus": "<p id=\"stim\">4</p>", "key_press": -1, "trial_type": "single-stim", "trial_index": 16, "time_elapsed": 404997, "internal_node_id": "0.0-10.0-6.0"}}, {"uniqueid": "MTK1241:3DL65MZB8EMN1MVMTLR3CLOA5VZECD", "current_trial": 17, "dateTime": 1513467407863, "trialdata": {"rt": -1, "stimulus": "<p id=\"stim\">3</p>", "key_press": -1, "trial_type": "single-stim", "trial_index": 17, "time_elapsed": 405998, "internal_node_id": "0.0-10.0-7.0"}}, {"uniqueid": "MTK1241:3DL65MZB8EMN1MVMTLR3CLOA5VZECD", "current_trial": 18, "dateTime": 1513467408866, "trialdata": {"rt": -1, "stimulus": "<p id=\"stim\">2</p>", "key_press": -1, "trial_type": "single-stim", "trial_index": 18, "time_elapsed": 407000, "internal_node_id": "0.0-10.0-8.0"}}, {"uniqueid": "MTK1241:3DL65MZB8EMN1MVMTLR3CLOA5VZECD", "current_trial": 19, "dateTime": 1513467409867, "trialdata": {"rt": -1, "stimulus": "<p id=\"stim\">1</p>", "key_press": -1, "trial_type": "single-stim", "trial_index": 19, "time_elapsed": 408002, "internal_node_id": "0.0-10.0-9.0"}}, {"uniqueid": "MTK1241:3DL65MZB8EMN1MVMTLR3CLOA5VZECD", "current_trial": 20, "dateTime": 1513467411369, "trialdata": {"rt": -1, "stimulus": "<p id=\"stim\">+</p>", "key_press": -1, "type": "FIXATION", "trial_type": "single-stim", "trial_index": 20, "time_elapsed": 409504, "internal_node_id": "0.0-11.0-0.0"}}, {"uniqueid": "MTK1241:3DL65MZB8EMN1MVMTLR3CLOA5VZECD", "current_trial": 21, "dateTime": 1513467413485, "trialdata": {"rt": -1000, "stimulus": "/static/audio/wordpool/CREATURE.wav", "key_press": -1, "type": "PRES_AUD", "word": "creature", "wordID": 402, "conditions": [18, 1200, "a", 18000], "trial": 0, "serialpos": 0, "trial_type": "single-audio", "trial_index": 21, "time_elapsed": 411620, "internal_node_id": "0.0-12.0"}}, {"uniqueid": "MTK1241:3DL65MZB8EMN1MVMTLR3CLOA5VZECD", "current_trial": 22, "dateTime": 1513467415697, "trialdata": {"rt": -1000, "stimulus": "/static/audio/wordpool/TUNNEL.wav", "key_press": -1, "type": "PRES_AUD", "word": "tunnel", "wordID": 1518, "conditions": [18, 1200, "a", 18000], "trial": 0, "serialpos": 1, "trial_type": "single-audio", "trial_index": 22, "time_elapsed": 413832, "internal_node_id": "0.0-13.0"}}, {"uniqueid": "MTK1241:3DL65MZB8EMN1MVMTLR3CLOA5VZECD", "current_trial": 23, "dateTime": 1513467417966, "trialdata": {"rt": -1000, "stimulus": "/static/audio/wordpool/FRAME.wav", "key_press": -1, "type": "PRES_AUD", "word": "frame", "wordID": 599, "conditions": [18, 1200, "a", 18000], "trial": 0, "serialpos": 2, "trial_type": "single-audio", "trial_index": 23, "time_elapsed": 416101, "internal_node_id": "0.0-14.0"}}, {"uniqueid": "MTK1241:3DL65MZB8EMN1MVMTLR3CLOA5VZECD", "current_trial": 24, "dateTime": 1513467420172, "trialdata": {"rt": -1000, "stimulus": "/static/audio/wordpool/CARRIAGE.wav", "key_press": -1, "type": "PRES_AUD", "word": "carriage", "wordID": 247, "conditions": [18, 1200, "a", 18000], "trial": 0, "serialpos": 3, "trial_type": "single-audio", "trial_index": 24, "time_elapsed": 418306, "internal_node_id": "0.0-15.0"}}, {"uniqueid": "MTK1241:3DL65MZB8EMN1MVMTLR3CLOA5VZECD", "current_trial": 25, "dateTime": 1513467422286, "trialdata": {"rt": -1000, "stimulus": "/static/audio/wordpool/GROUND.wav", "key_press": -1, "type": "PRES_AUD", "word": "ground", "wordID": 665, "conditions": [18, 1200, "a", 18000], "trial": 0, "serialpos": 4, "trial_type": "single-audio", "trial_index": 25, "time_elapsed": 420421, "internal_node_id": "0.0-16.0"}}, {"uniqueid": "MTK1241:3DL65MZB8EMN1MVMTLR3CLOA5VZECD", "current_trial": 26, "dateTime": 1513467424573, "trialdata": {"rt": -1000, "stimulus": "/static/audio/wordpool/DRESS.wav", "key_press": -1, "type": "PRES_AUD", "word": "dress", "wordID": 494, "conditions": [18, 1200, "a", 18000], "trial": 0, "serialpos": 5, "trial_type": "single-audio", "trial_index": 26, "time_elapsed": 422708, "internal_node_id": "0.0-17.0"}}, {"uniqueid": "MTK1241:3DL65MZB8EMN1MVMTLR3CLOA5VZECD", "current_trial": 27, "dateTime": 1513467426691, "trialdata": {"rt": -1000, "stimulus": "/static/audio/wordpool/GRILL.wav", "key_press": -1, "type": "PRES_AUD", "word": "grill", "wordID": 660, "conditions": [18, 1200, "a", 18000], "trial": 0, "serialpos": 6, "trial_type": "single-audio", "trial_index": 27, "time_elapsed": 424826, "internal_node_id": "0.0-18.0"}}, {"uniqueid": "MTK1241:3DL65MZB8EMN1MVMTLR3CLOA5VZECD", "current_trial": 28, "dateTime": 1513467428877, "trialdata": {"rt": -1000, "stimulus": "/static/audio/wordpool/LONDON.wav", "key_press": -1, "type": "PRES_AUD", "word": "london", "wordID": 842, "conditions": [18, 1200, "a", 18000], "trial": 0, "serialpos": 7, "trial_type": "single-audio", "trial_index": 28, "time_elapsed": 427011, "internal_node_id": "0.0-19.0"}}, {"uniqueid": "MTK1241:3DL65MZB8EMN1MVMTLR3CLOA5VZECD", "current_trial": 29, "dateTime": 1513467430910, "trialdata": {"rt": -1000, "stimulus": "/static/audio/wordpool/BABY.wav", "key_press": -1, "type": "PRES_AUD", "word": "baby", "wordID": 63, "conditions": [18, 1200, "a", 18000], "trial": 0, "serialpos": 8, "trial_type": "single-audio", "trial_index": 29, "time_elapsed": 429044, "internal_node_id": "0.0-20.0"}}, {"uniqueid": "MTK1241:3DL65MZB8EMN1MVMTLR3CLOA5VZECD", "current_trial": 30, "dateTime": 1513467432927, "trialdata": {"rt": -1000, "stimulus": "/static/audio/wordpool/HIKER.wav", "key_press": -1, "type": "PRES_AUD", "word": "hiker", "wordID": 707, "conditions": [18, 1200, "a", 18000], "trial": 0, "serialpos": 9, "trial_type": "single-audio", "trial_index": 30, "time_elapsed": 431062, "internal_node_id": "0.0-21.0"}}, {"uniqueid": "MTK1241:3DL65MZB8EMN1MVMTLR3CLOA5VZECD", "current_trial": 31, "dateTime": 1513467435059, "trialdata": {"rt": -1000, "stimulus": "/static/audio/wordpool/BROOK.wav", "key_press": -1, "type": "PRES_AUD", "word": "brook", "wordID": 176, "conditions": [18, 1200, "a", 18000], "trial": 0, "serialpos": 10, "trial_type": "single-audio", "trial_index": 31, "time_elapsed": 433194, "internal_node_id": "0.0-22.0"}}, {"uniqueid": "MTK1241:3DL65MZB8EMN1MVMTLR3CLOA5VZECD", "current_trial": 32, "dateTime": 1513467437462, "trialdata": {"rt": -1000, "stimulus": "/static/audio/wordpool/POSTAGE.wav", "key_press": -1, "type": "PRES_AUD", "word": "postage", "wordID": 1112, "conditions": [18, 1200, "a", 18000], "trial": 0, "serialpos": 11, "trial_type": "single-audio", "trial_index": 32, "time_elapsed": 435596, "internal_node_id": "0.0-23.0"}}, {"uniqueid": "MTK1241:3DL65MZB8EMN1MVMTLR3CLOA5VZECD", "current_trial": 33, "dateTime": 1513467439653, "trialdata": {"rt": -1000, "stimulus": "/static/audio/wordpool/GRAVE.wav", "key_press": -1, "type": "PRES_AUD", "word": "grave", "wordID": 657, "conditions": [18, 1200, "a", 18000], "trial": 0, "serialpos": 12, "trial_type": "single-audio", "trial_index": 33, "time_elapsed": 437788, "internal_node_id": "0.0-24.0"}}, {"uniqueid": "MTK1241:3DL65MZB8EMN1MVMTLR3CLOA5VZECD", "current_trial": 34, "dateTime": 1513467441743, "trialdata": {"rt": -1000, "stimulus": "/static/audio/wordpool/WHISKERS.wav", "key_press": -1, "type": "PRES_AUD", "word": "whiskers", "wordID": 1604, "conditions": [18, 1200, "a", 18000], "trial": 0, "serialpos": 13, "trial_type": "single-audio", "trial_index": 34, "time_elapsed": 439878, "internal_node_id": "0.0-25.0"}}, {"uniqueid": "MTK1241:3DL65MZB8EMN1MVMTLR3CLOA5VZECD", "current_trial": 35, "dateTime": 1513467443824, "trialdata": {"rt": -1000, "stimulus": "/static/audio/wordpool/COMET.wav", "key_press": -1, "type": "PRES_AUD", "word": "comet", "wordID": 352, "conditions": [18, 1200, "a", 18000], "trial": 0, "serialpos": 14, "trial_type": "single-audio", "trial_index": 35, "time_elapsed": 441959, "internal_node_id": "0.0-26.0"}}, {"uniqueid": "MTK1241:3DL65MZB8EMN1MVMTLR3CLOA5VZECD", "current_trial": 36, "dateTime": 1513467446066, "trialdata": {"rt": -1000, "stimulus": "/static/audio/wordpool/PERMIT.wav", "key_press": -1, "type": "PRES_AUD", "word": "permit", "wordID": 1050, "conditions": [18, 1200, "a", 18000], "trial": 0, "serialpos": 15, "trial_type": "single-audio", "trial_index": 36, "time_elapsed": 444200, "internal_node_id": "0.0-27.0"}}, {"uniqueid": "MTK1241:3DL65MZB8EMN1MVMTLR3CLOA5VZECD", "current_trial": 37, "dateTime": 1513467448111, "trialdata": {"rt": -1000, "stimulus": "/static/audio/wordpool/XEROX.wav", "key_press": -1, "type": "PRES_AUD", "word": "xerox", "wordID": 1627, "conditions": [18, 1200, "a", 18000], "trial": 0, "serialpos": 16, "trial_type": "single-audio", "trial_index": 37, "time_elapsed": 446246, "internal_node_id": "0.0-28.0"}}, {"uniqueid": "MTK1241:3DL65MZB8EMN1MVMTLR3CLOA5VZECD", "current_trial": 38, "dateTime": 1513467450255, "trialdata": {"rt": -1000, "stimulus": "/static/audio/wordpool/HAWK.wav", "key_press": -1, "type": "PRES_AUD", "word": "hawk", "wordID": 691, "conditions": [18, 1200, "a", 18000], "trial": 0, "serialpos": 17, "trial_type": "single-audio", "trial_index": 38, "time_elapsed": 448390, "internal_node_id": "0.0-29.0"}}, {"uniqueid": "MTK1241:3DL65MZB8EMN1MVMTLR3CLOA5VZECD", "current_trial": 39, "dateTime": 1513467451496, "trialdata": {"rt": -1, "stimulus": "", "key_press": -1, "type": "PRE_RECALL_DELAY", "trial_type": "single-stim", "trial_index": 39, "time_elapsed": 449631, "internal_node_id": "0.0-30.0-0.0"}}, {"uniqueid": "MTK1241:3DL65MZB8EMN1MVMTLR3CLOA5VZECD", "current_trial": 40, "dateTime": 1513467452001, "trialdata": {"rt": -1000, "stimulus": "/static/audio/400Hz.wav", "key_press": -1, "type": "PRE_RECALL_ALERT", "trial_type": "single-audio", "trial_index": 40, "time_elapsed": 450136, "internal_node_id": "0.0-31.0"}}, {"uniqueid": "MTK1241:3DL65MZB8EMN1MVMTLR3CLOA5VZECD", "current_trial": 41, "dateTime": 1513467512010, "trialdata": {"rt": [4668, 6486, 8034, 10072, 11818, 13460, 16208, 18104, 20125, 22092, 24469, 27674, 34111, 37258, 45630], "recwords": ["creature", "tunnel", "frame", "carriage", "ground", "dress", "grill", "london", "baby", "hiker", "brook", "postage", "common", "hawk", "zerox"], "type": "FREE_RECALL", "conditions": [18, 1200, "a", 18000], "trial": 0, "trial_type": "free-recall", "trial_index": 41, "time_elapsed": 510141, "internal_node_id": "0.0-32.0-0.0"}}, {"uniqueid": "MTK1241:3DL65MZB8EMN1MVMTLR3CLOA5VZECD", "current_trial": 42, "dateTime": 1513467520470, "trialdata": {"rt": 6458, "key_press": 32, "type": "INSTRUCTIONS", "trial_type": "text", "trial_index": 42, "time_elapsed": 518605, "internal_node_id": "0.0-33.0"}}, {"uniqueid": "MTK1241:3DL65MZB8EMN1MVMTLR3CLOA5VZECD", "current_trial": 43, "dateTime": 1513467540474, "trialdata": {"rt": [3329, 5339, 7540, 9849, 11491, 13669, 16407], "responses": ["27", "14", "10", "12", "12", "13", "27"], "num1": [9, 6, 2, 3, 3, 3, 8, 7], "num2": [9, 6, 7, 6, 1, 4, 9, 8], "num3": [9, 2, 1, 3, 8, 6, 9, 8], "type": "DISTRACTOR", "conditions": [18, 1200, "v", 18000], "trial": 1, "trial_type": "math-distractor", "trial_index": 43, "time_elapsed": 538609, "internal_node_id": "0.0-34.0"}}, {"uniqueid": "MTK1241:3DL65MZB8EMN1MVMTLR3CLOA5VZECD", "current_trial": 44, "dateTime": 1513467543477, "trialdata": {"rt": -1, "stimulus": "<p id=\"stim\">10</p>", "key_press": -1, "trial_type": "single-stim", "trial_index": 44, "time_elapsed": 541612, "internal_node_id": "0.0-35.0-0.0"}}, {"uniqueid": "MTK1241:3DL65MZB8EMN1MVMTLR3CLOA5VZECD", "current_trial": 45, "dateTime": 1513467544479, "trialdata": {"rt": -1, "stimulus": "<p id=\"stim\">9</p>", "key_press": -1, "trial_type": "single-stim", "trial_index": 45, "time_elapsed": 542613, "internal_node_id": "0.0-35.0-1.0"}}, {"uniqueid": "MTK1241:3DL65MZB8EMN1MVMTLR3CLOA5VZECD", "current_trial": 46, "dateTime": 1513467545480, "trialdata": {"rt": -1, "stimulus": "<p id=\"stim\">8</p>", "key_press": -1, "trial_type": "single-stim", "trial_index": 46, "time_elapsed": 543614, "internal_node_id": "0.0-35.0-2.0"}}, {"uniqueid": "MTK1241:3DL65MZB8EMN1MVMTLR3CLOA5VZECD", "current_trial": 47, "dateTime": 1513467546481, "trialdata": {"rt": -1, "stimulus": "<p id=\"stim\">7</p>", "key_press": -1, "trial_type": "single-stim", "trial_index": 47, "time_elapsed": 544616, "internal_node_id": "0.0-35.0-3.0"}}, {"uniqueid": "MTK1241:3DL65MZB8EMN1MVMTLR3CLOA5VZECD", "current_trial": 48, "dateTime": 1513467547482, "trialdata": {"rt": -1, "stimulus": "<p id=\"stim\">6</p>", "key_press": -1, "trial_type": "single-stim", "trial_index": 48, "time_elapsed": 545617, "internal_node_id": "0.0-35.0-4.0"}}, {"uniqueid": "MTK1241:3DL65MZB8EMN1MVMTLR3CLOA5VZECD", "current_trial": 49, "dateTime": 1513467548484, "trialdata": {"rt": -1, "stimulus": "<p id=\"stim\">5</p>", "key_press": -1, "trial_type": "single-stim", "trial_index": 49, "time_elapsed": 546618, "internal_node_id": "0.0-35.0-5.0"}}, {"uniqueid": "MTK1241:3DL65MZB8EMN1MVMTLR3CLOA5VZECD", "current_trial": 50, "dateTime": 1513467549485, "trialdata": {"rt": -1, "stimulus": "<p id=\"stim\">4</p>", "key_press": -1, "trial_type": "single-stim", "trial_index": 50, "time_elapsed": 547620, "internal_node_id": "0.0-35.0-6.0"}}, {"uniqueid": "MTK1241:3DL65MZB8EMN1MVMTLR3CLOA5VZECD", "current_trial": 51, "dateTime": 1513467550486, "trialdata": {"rt": -1, "stimulus": "<p id=\"stim\">3</p>", "key_press": -1, "trial_type": "single-stim", "trial_index": 51, "time_elapsed": 548621, "internal_node_id": "0.0-35.0-7.0"}}, {"uniqueid": "MTK1241:3DL65MZB8EMN1MVMTLR3CLOA5VZECD", "current_trial": 52, "dateTime": 1513467551488, "trialdata": {"rt": -1, "stimulus": "<p id=\"stim\">2</p>", "key_press": -1, "trial_type": "single-stim", "trial_index": 52, "time_elapsed": 549623, "internal_node_id": "0.0-35.0-8.0"}}, {"uniqueid": "MTK1241:3DL65MZB8EMN1MVMTLR3CLOA5VZECD", "current_trial": 53, "dateTime": 1513467552490, "trialdata": {"rt": -1, "stimulus": "<p id=\"stim\">1</p>", "key_press": -1, "trial_type": "single-stim", "trial_index": 53, "time_elapsed": 550624, "internal_node_id": "0.0-35.0-9.0"}}, {"uniqueid": "MTK1241:3DL65MZB8EMN1MVMTLR3CLOA5VZECD", "current_trial": 54, "dateTime": 1513467553991, "trialdata": {"rt": -1, "stimulus": "<p id=\"stim\">+</p>", "key_press": -1, "type": "FIXATION", "trial_type": "single-stim", "trial_index": 54, "time_elapsed": 552126, "internal_node_id": "0.0-36.0-0.0"}}, {"uniqueid": "MTK1241:3DL65MZB8EMN1MVMTLR3CLOA5VZECD", "current_trial": 55, "dateTime": 1513467555192, "trialdata": {"rt": -1, "stimulus": "<p id=\"stim\">APPLE</p>", "key_press": -1, "type": "PRES_VIS", "word": "apple", "wordID": 32, "conditions": [18, 1200, "v", 18000], "trial": 1, "serialpos": 0, "trial_type": "single-stim", "trial_index": 55, "time_elapsed": 553327, "internal_node_id": "0.0-37.0"}}, {"uniqueid": "MTK1241:3DL65MZB8EMN1MVMTLR3CLOA5VZECD", "current_trial": 56, "dateTime": 1513467557254, "trialdata": {"rt": -1, "stimulus": "<p id=\"stim\">PASSAGE</p>", "key_press": -1, "type": "PRES_VIS", "word": "passage", "wordID": 1018, "conditions": [18, 1200, "v", 18000], "trial": 1, "serialpos": 1, "trial_type": "single-stim", "trial_index": 56, "time_elapsed": 555388, "internal_node_id": "0.0-38.0"}}, {"uniqueid": "MTK1241:3DL65MZB8EMN1MVMTLR3CLOA5VZECD", "current_trial": 57, "dateTime": 1513467559458, "trialdata": {"rt": -1, "stimulus": "<p id=\"stim\">WASHER</p>", "key_press": -1, "type": "PRES_VIS", "word": "washer", "wordID": 1591, "conditions": [18, 1200, "v", 18000], "trial": 1, "serialpos": 2, "trial_type": "single-stim", "trial_index": 57, "time_elapsed": 557593, "internal_node_id": "0.0-39.0"}}, {"uniqueid": "MTK1241:3DL65MZB8EMN1MVMTLR3CLOA5VZECD", "current_trial": 58, "dateTime": 1513467561524, "trialdata": {"rt": -1, "stimulus": "<p id=\"stim\">POISON</p>", "key_press": -1, "type": "PRES_VIS", "word": "poison", "wordID": 1095, "conditions": [18, 1200, "v", 18000], "trial": 1, "serialpos": 3, "trial_type": "single-stim", "trial_index": 58, "time_elapsed": 559658, "internal_node_id": "0.0-40.0"}}, {"uniqueid": "MTK1241:3DL65MZB8EMN1MVMTLR3CLOA5VZECD", "current_trial": 59, "dateTime": 1513467563573, "trialdata": {"rt": -1, "stimulus": "<p id=\"stim\">MOTOR</p>", "key_press": -1, "type": "PRES_VIS", "word": "motor", "wordID": 921, "conditions": [18, 1200, "v", 18000], "trial": 1, "serialpos": 4, "trial_type": "single-stim", "trial_index": 59, "time_elapsed": 561707, "internal_node_id": "0.0-41.0"}}, {"uniqueid": "MTK1241:3DL65MZB8EMN1MVMTLR3CLOA5VZECD", "current_trial": 60, "dateTime": 1513467565641, "trialdata": {"rt": -1, "stimulus": "<p id=\"stim\">BLOCKADE</p>", "key_press": -1, "type": "PRES_VIS", "word": "blockade", "wordID": 136, "conditions": [18, 1200, "v", 18000], "trial": 1, "serialpos": 5, "trial_type": "single-stim", "trial_index": 60, "time_elapsed": 563776, "internal_node_id": "0.0-42.0"}}, {"uniqueid": "MTK1241:3DL65MZB8EMN1MVMTLR3CLOA5VZECD", "current_trial": 61, "dateTime": 1513467567869, "trialdata": {"rt": -1, "stimulus": "<p id=\"stim\">RECORD</p>", "key_press": -1, "type": "PRES_VIS", "word": "record", "wordID": 1175, "conditions": [18, 1200, "v", 18000], "trial": 1, "serialpos": 6, "trial_type": "single-stim", "trial_index": 61, "time_elapsed": 566004, "internal_node_id": "0.0-43.0"}}, {"uniqueid": "MTK1241:3DL65MZB8EMN1MVMTLR3CLOA5VZECD", "current_trial": 62, "dateTime": 1513467570085, "trialdata": {"rt": -1, "stimulus": "<p id=\"stim\">ARMY</p>", "key_press": -1, "type": "PRES_VIS", "word": "army", "wordID": 38, "conditions": [18, 1200, "v", 18000], "trial": 1, "serialpos": 7, "trial_type": "single-stim", "trial_index": 62, "time_elapsed": 568220, "internal_node_id": "0.0-44.0"}}, {"uniqueid": "MTK1241:3DL65MZB8EMN1MVMTLR3CLOA5VZECD", "current_trial": 63, "dateTime": 1513467572113, "trialdata": {"rt": -1, "stimulus": "<p id=\"stim\">COMPASS</p>", "key_press": -1, "type": "PRES_VIS", "word": "compass", "wordID": 357, "conditions": [18, 1200, "v", 18000], "trial": 1, "serialpos": 8, "trial_type": "single-stim", "trial_index": 63, "time_elapsed": 570248, "internal_node_id": "0.0-45.0"}}, {"uniqueid": "MTK1241:3DL65MZB8EMN1MVMTLR3CLOA5VZECD", "current_trial": 64, "dateTime": 1513467574475, "trialdata": {"rt": -1, "stimulus": "<p id=\"stim\">POWDER</p>", "key_press": -1, "type": "PRES_VIS", "word": "powder", "wordID": 1116, "conditions": [18, 1200, "v", 18000], "trial": 1, "serialpos": 9, "trial_type": "single-stim", "trial_index": 64, "time_elapsed": 572610, "internal_node_id": "0.0-46.0"}}, {"uniqueid": "MTK1241:3DL65MZB8EMN1MVMTLR3CLOA5VZECD", "current_trial": 65, "dateTime": 1513467576844, "trialdata": {"rt": -1, "stimulus": "<p id=\"stim\">AGENT</p>", "key_press": -1, "type": "PRES_VIS", "word": "agent", "wordID": 9, "conditions": [18, 1200, "v", 18000], "trial": 1, "serialpos": 10, "trial_type": "single-stim", "trial_index": 65, "time_elapsed": 574979, "internal_node_id": "0.0-47.0"}}, {"uniqueid": "MTK1241:3DL65MZB8EMN1MVMTLR3CLOA5VZECD", "current_trial": 66, "dateTime": 1513467579133, "trialdata": {"rt": -1, "stimulus": "<p id=\"stim\">PEACH</p>", "key_press": -1, "type": "PRES_VIS", "word": "peach", "wordID": 1030, "conditions": [18, 1200, "v", 18000], "trial": 1, "serialpos": 11, "trial_type": "single-stim", "trial_index": 66, "time_elapsed": 577267, "internal_node_id": "0.0-48.0"}}, {"uniqueid": "MTK1241:3DL65MZB8EMN1MVMTLR3CLOA5VZECD", "current_trial": 67, "dateTime": 1513467581339, "trialdata": {"rt": -1, "stimulus": "<p id=\"stim\">GAZELLE</p>", "key_press": -1, "type": "PRES_VIS", "word": "gazelle", "wordID": 627, "conditions": [18, 1200, "v", 18000], "trial": 1, "serialpos": 12, "trial_type": "single-stim", "trial_index": 67, "time_elapsed": 579474, "internal_node_id": "0.0-49.0"}}, {"uniqueid": "MTK1241:3DL65MZB8EMN1MVMTLR3CLOA5VZECD", "current_trial": 68, "dateTime": 1513467583645, "trialdata": {"rt": -1, "stimulus": "<p id=\"stim\">GAVEL</p>", "key_press": -1, "type": "PRES_VIS", "word": "gavel", "wordID": 626, "conditions": [18, 1200, "v", 18000], "trial": 1, "serialpos": 13, "trial_type": "single-stim", "trial_index": 68, "time_elapsed": 581778, "internal_node_id": "0.0-50.0"}}, {"uniqueid": "MTK1241:3DL65MZB8EMN1MVMTLR3CLOA5VZECD", "current_trial": 69, "dateTime": 1513467585756, "trialdata": {"rt": -1, "stimulus": "<p id=\"stim\">GLOBE</p>", "key_press": -1, "type": "PRES_VIS", "word": "globe", "wordID": 640, "conditions": [18, 1200, "v", 18000], "trial": 1, "serialpos": 14, "trial_type": "single-stim", "trial_index": 69, "time_elapsed": 583891, "internal_node_id": "0.0-51.0"}}, {"uniqueid": "MTK1241:3DL65MZB8EMN1MVMTLR3CLOA5VZECD", "current_trial": 70, "dateTime": 1513467587841, "trialdata": {"rt": -1, "stimulus": "<p id=\"stim\">CHIPMUNK</p>", "key_press": -1, "type": "PRES_VIS", "word": "chipmunk", "wordID": 303, "conditions": [18, 1200, "v", 18000], "trial": 1, "serialpos": 15, "trial_type": "single-stim", "trial_index": 70, "time_elapsed": 585976, "internal_node_id": "0.0-52.0"}}, {"uniqueid": "MTK1241:3DL65MZB8EMN1MVMTLR3CLOA5VZECD", "current_trial": 71, "dateTime": 1513467590121, "trialdata": {"rt": -1, "stimulus": "<p id=\"stim\">PATIENT</p>", "key_press": -1, "type": "PRES_VIS", "word": "patient", "wordID": 1023, "conditions": [18, 1200, "v", 18000], "trial": 1, "serialpos": 16, "trial_type": "single-stim", "trial_index": 71, "time_elapsed": 588256, "internal_node_id": "0.0-53.0"}}, {"uniqueid": "MTK1241:3DL65MZB8EMN1MVMTLR3CLOA5VZECD", "current_trial": 72, "dateTime": 1513467592144, "trialdata": {"rt": -1, "stimulus": "<p id=\"stim\">JOURNAL</p>", "key_press": -1, "type": "PRES_VIS", "word": "journal", "wordID": 759, "conditions": [18, 1200, "v", 18000], "trial": 1, "serialpos": 17, "trial_type": "single-stim", "trial_index": 72, "time_elapsed": 590278, "internal_node_id": "0.0-54.0"}}, {"uniqueid": "MTK1241:3DL65MZB8EMN1MVMTLR3CLOA5VZECD", "current_trial": 73, "dateTime": 1513467594541, "trialdata": {"rt": -1, "stimulus": "", "key_press": -1, "type": "PRE_RECALL_DELAY", "trial_type": "single-stim", "trial_index": 73, "time_elapsed": 592676, "internal_node_id": "0.0-55.0-0.0"}}, {"uniqueid": "MTK1241:3DL65MZB8EMN1MVMTLR3CLOA5VZECD", "current_trial": 74, "dateTime": 1513467595044, "trialdata": {"rt": -1000, "stimulus": "/static/audio/400Hz.wav", "key_press": -1, "type": "PRE_RECALL_ALERT", "trial_type": "single-audio", "trial_index": 74, "time_elapsed": 593179, "internal_node_id": "0.0-56.0"}}, {"uniqueid": "MTK1241:3DL65MZB8EMN1MVMTLR3CLOA5VZECD", "current_trial": 75, "dateTime": 1513467655053, "trialdata": {"rt": [4733, 6960, 8576, 10623, 13073, 15718, 19613, 22048, 27988, 33005, 45172], "recwords": ["apple", "passage", "washer", "poison", "blockade", "record", "peach", "glove", "chipmunk", "journal", "army"], "type": "FREE_RECALL", "conditions": [18, 1200, "v", 18000], "trial": 1, "trial_type": "free-recall", "trial_index": 75, "time_elapsed": 653184, "internal_node_id": "0.0-57.0-0.0"}}, {"uniqueid": "MTK1241:3DL65MZB8EMN1MVMTLR3CLOA5VZECD", "current_trial": 76, "dateTime": 1513467662382, "trialdata": {"rt": 5322, "key_press": 32, "type": "INSTRUCTIONS", "trial_type": "text", "trial_index": 76, "time_elapsed": 660511, "internal_node_id": "0.0-58.0"}}, {"uniqueid": "MTK1241:3DL65MZB8EMN1MVMTLR3CLOA5VZECD", "current_trial": 77, "dateTime": 1513467675385, "trialdata": {"rt": [2196, 4331, 6718, 9100, 10777], "responses": ["19", "13", "14", "18", "18"], "num1": [9, 1, 6, 8, 1, 4], "num2": [1, 3, 7, 6, 9, 5], "num3": [9, 9, 1, 4, 8, 1], "type": "DISTRACTOR", "conditions": [12, 1600, "a", 12000], "trial": 2, "trial_type": "math-distractor", "trial_index": 77, "time_elapsed": 673520, "internal_node_id": "0.0-59.0"}}, {"uniqueid": "MTK1241:3DL65MZB8EMN1MVMTLR3CLOA5VZECD", "current_trial": 78, "dateTime": 1513467678388, "trialdata": {"rt": -1, "stimulus": "<p id=\"stim\">10</p>", "key_press": -1, "trial_type": "single-stim", "trial_index": 78, "time_elapsed": 676522, "internal_node_id": "0.0-60.0-0.0"}}, {"uniqueid": "MTK1241:3DL65MZB8EMN1MVMTLR3CLOA5VZECD", "current_trial": 79, "dateTime": 1513467679389, "trialdata": {"rt": -1, "stimulus": "<p id=\"stim\">9</p>", "key_press": -1, "trial_type": "single-stim", "trial_index": 79, "time_elapsed": 677524, "internal_node_id": "0.0-60.0-1.0"}}, {"uniqueid": "MTK1241:3DL65MZB8EMN1MVMTLR3CLOA5VZECD", "current_trial": 80, "dateTime": 1513467680391, "trialdata": {"rt": -1, "stimulus": "<p id=\"stim\">8</p>", "key_press": -1, "trial_type": "single-stim", "trial_index": 80, "time_elapsed": 678526, "internal_node_id": "0.0-60.0-2.0"}}, {"uniqueid": "MTK1241:3DL65MZB8EMN1MVMTLR3CLOA5VZECD", "current_trial": 81, "dateTime": 1513467681392, "trialdata": {"rt": -1, "stimulus": "<p id=\"stim\">7</p>", "key_press": -1, "trial_type": "single-stim", "trial_index": 81, "time_elapsed": 679527, "internal_node_id": "0.0-60.0-3.0"}}, {"uniqueid": "MTK1241:3DL65MZB8EMN1MVMTLR3CLOA5VZECD", "current_trial": 82, "dateTime": 1513467682393, "trialdata": {"rt": -1, "stimulus": "<p id=\"stim\">6</p>", "key_press": -1, "trial_type": "single-stim", "trial_index": 82, "time_elapsed": 680528, "internal_node_id": "0.0-60.0-4.0"}}, {"uniqueid": "MTK1241:3DL65MZB8EMN1MVMTLR3CLOA5VZECD", "current_trial": 83, "dateTime": 1513467683394, "trialdata": {"rt": -1, "stimulus": "<p id=\"stim\">5</p>", "key_press": -1, "trial_type": "single-stim", "trial_index": 83, "time_elapsed": 681529, "internal_node_id": "0.0-60.0-5.0"}}, {"uniqueid": "MTK1241:3DL65MZB8EMN1MVMTLR3CLOA5VZECD", "current_trial": 84, "dateTime": 1513467684395, "trialdata": {"rt": -1, "stimulus": "<p id=\"stim\">4</p>", "key_press": -1, "trial_type": "single-stim", "trial_index": 84, "time_elapsed": 682530, "internal_node_id": "0.0-60.0-6.0"}}, {"uniqueid": "MTK1241:3DL65MZB8EMN1MVMTLR3CLOA5VZECD", "current_trial": 85, "dateTime": 1513467685397, "trialdata": {"rt": -1, "stimulus": "<p id=\"stim\">3</p>", "key_press": -1, "trial_type": "single-stim", "trial_index": 85, "time_elapsed": 683532, "internal_node_id": "0.0-60.0-7.0"}}, {"uniqueid": "MTK1241:3DL65MZB8EMN1MVMTLR3CLOA5VZECD", "current_trial": 86, "dateTime": 1513467686398, "trialdata": {"rt": -1, "stimulus": "<p id=\"stim\">2</p>", "key_press": -1, "trial_type": "single-stim", "trial_index": 86, "time_elapsed": 684533, "internal_node_id": "0.0-60.0-8.0"}}, {"uniqueid": "MTK1241:3DL65MZB8EMN1MVMTLR3CLOA5VZECD", "current_trial": 87, "dateTime": 1513467687400, "trialdata": {"rt": -1, "stimulus": "<p id=\"stim\">1</p>", "key_press": -1, "trial_type": "single-stim", "trial_index": 87, "time_elapsed": 685535, "internal_node_id": "0.0-60.0-9.0"}}, {"uniqueid": "MTK1241:3DL65MZB8EMN1MVMTLR3CLOA5VZECD", "current_trial": 88, "dateTime": 1513467688902, "trialdata": {"rt": -1, "stimulus": "<p id=\"stim\">+</p>", "key_press": -1, "type": "FIXATION", "trial_type": "single-stim", "trial_index": 88, "time_elapsed": 687037, "internal_node_id": "0.0-61.0-0.0"}}, {"uniqueid": "MTK1241:3DL65MZB8EMN1MVMTLR3CLOA5VZECD", "current_trial": 89, "dateTime": 1513467691469, "trialdata": {"rt": -1000, "stimulus": "/static/audio/wordpool/GUITAR.wav", "key_press": -1, "type": "PRES_AUD", "word": "guitar", "wordID": 669, "conditions": [12, 1600, "a", 12000], "trial": 2, "serialpos": 0, "trial_type": "single-audio", "trial_index": 89, "time_elapsed": 689604, "internal_node_id": "0.0-62.0"}}, {"uniqueid": "MTK1241:3DL65MZB8EMN1MVMTLR3CLOA5VZECD", "current_trial": 90, "dateTime": 1513467694205, "trialdata": {"rt": -1000, "stimulus": "/static/audio/wordpool/STICKER.wav", "key_press": -1, "type": "PRES_AUD", "word": "sticker", "wordID": 1381, "conditions": [12, 1600, "a", 12000], "trial": 2, "serialpos": 1, "trial_type": "single-audio", "trial_index": 90, "time_elapsed": 692340, "internal_node_id": "0.0-63.0"}}, {"uniqueid": "MTK1241:3DL65MZB8EMN1MVMTLR3CLOA5VZECD", "current_trial": 91, "dateTime": 1513467696815, "trialdata": {"rt": -1000, "stimulus": "/static/audio/wordpool/STOVE.wav", "key_press": -1, "type": "PRES_AUD", "word": "stove", "wordID": 1387, "conditions": [12, 1600, "a", 12000], "trial": 2, "serialpos": 2, "trial_type": "single-audio", "trial_index": 91, "time_elapsed": 694950, "internal_node_id": "0.0-64.0"}}, {"uniqueid": "MTK1241:3DL65MZB8EMN1MVMTLR3CLOA5VZECD", "current_trial": 92, "dateTime": 1513467699532, "trialdata": {"rt": -1000, "stimulus": "/static/audio/wordpool/WAITER.wav", "key_press": -1, "type": "PRES_AUD", "word": "waiter", "wordID": 1579, "conditions": [12, 1600, "a", 12000], "trial": 2, "serialpos": 3, "trial_type": "single-audio", "trial_index": 92, "time_elapsed": 697667, "internal_node_id": "0.0-65.0"}}, {"uniqueid": "MTK1241:3DL65MZB8EMN1MVMTLR3CLOA5VZECD", "current_trial": 93, "dateTime": 1513467702067, "trialdata": {"rt": -1000, "stimulus": "/static/audio/wordpool/SADDLE.wav", "key_press": -1, "type": "PRES_AUD", "word": "saddle", "wordID": 1220, "conditions": [12, 1600, "a", 12000], "trial": 2, "serialpos": 4, "trial_type": "single-audio", "trial_index": 93, "time_elapsed": 700202, "internal_node_id": "0.0-66.0"}}, {"uniqueid": "MTK1241:3DL65MZB8EMN1MVMTLR3CLOA5VZECD", "current_trial": 94, "dateTime": 1513467704479, "trialdata": {"rt": -1000, "stimulus": "/static/audio/wordpool/CRIB.wav", "key_press": -1, "type": "PRES_AUD", "word": "crib", "wordID": 406, "conditions": [12, 1600, "a", 12000], "trial": 2, "serialpos": 5, "trial_type": "single-audio", "trial_index": 94, "time_elapsed": 702614, "internal_node_id": "0.0-67.0"}}, {"uniqueid": "MTK1241:3DL65MZB8EMN1MVMTLR3CLOA5VZECD", "current_trial": 95, "dateTime": 1513467707197, "trialdata": {"rt": -1000, "stimulus": "/static/audio/wordpool/CANYON.wav", "key_press": -1, "type": "PRES_AUD", "word": "canyon", "wordID": 234, "conditions": [12, 1600, "a", 12000], "trial": 2, "serialpos": 6, "trial_type": "single-audio", "trial_index": 95, "time_elapsed": 705331, "internal_node_id": "0.0-68.0"}}, {"uniqueid": "MTK1241:3DL65MZB8EMN1MVMTLR3CLOA5VZECD", "current_trial": 96, "dateTime": 1513467709937, "trialdata": {"rt": -1000, "stimulus": "/static/audio/wordpool/VALLEY.wav", "key_press": -1, "type": "PRES_AUD", "word": "valley", "wordID": 1544, "conditions": [12, 1600, "a", 12000], "trial": 2, "serialpos": 7, "trial_type": "single-audio", "trial_index": 96, "time_elapsed": 708072, "internal_node_id": "0.0-69.0"}}, {"uniqueid": "MTK1241:3DL65MZB8EMN1MVMTLR3CLOA5VZECD", "current_trial": 97, "dateTime": 1513467712380, "trialdata": {"rt": -1000, "stimulus": "/static/audio/wordpool/FOREHEAD.wav", "key_press": -1, "type": "PRES_AUD", "word": "forehead", "wordID": 591, "conditions": [12, 1600, "a", 12000], "trial": 2, "serialpos": 8, "trial_type": "single-audio", "trial_index": 97, "time_elapsed": 710515, "internal_node_id": "0.0-70.0"}}, {"uniqueid": "MTK1241:3DL65MZB8EMN1MVMTLR3CLOA5VZECD", "current_trial": 98, "dateTime": 1513467715036, "trialdata": {"rt": -1000, "stimulus": "/static/audio/wordpool/TURNIP.wav", "key_press": -1, "type": "PRES_AUD", "word": "turnip", "wordID": 1520, "conditions": [12, 1600, "a", 12000], "trial": 2, "serialpos": 9, "trial_type": "single-audio", "trial_index": 98, "time_elapsed": 713171, "internal_node_id": "0.0-71.0"}}, {"uniqueid": "MTK1241:3DL65MZB8EMN1MVMTLR3CLOA5VZECD", "current_trial": 99, "dateTime": 1513467717701, "trialdata": {"rt": -1000, "stimulus": "/static/audio/wordpool/CANDY.wav", "key_press": -1, "type": "PRES_AUD", "word": "candy", "wordID": 229, "conditions": [12, 1600, "a", 12000], "trial": 2, "serialpos": 10, "trial_type": "single-audio", "trial_index": 99, "time_elapsed": 715835, "internal_node_id": "0.0-72.0"}}, {"uniqueid": "MTK1241:3DL65MZB8EMN1MVMTLR3CLOA5VZECD", "current_trial": 100, "dateTime": 1513467720184, "trialdata": {"rt": -1000, "stimulus": "/static/audio/wordpool/COOK.wav", "key_press": -1, "type": "PRES_AUD", "word": "cook", "wordID": 371, "conditions": [12, 1600, "a", 12000], "trial": 2, "serialpos": 11, "trial_type": "single-audio", "trial_index": 100, "time_elapsed": 718319, "internal_node_id": "0.0-73.0"}}, {"uniqueid": "MTK1241:3DL65MZB8EMN1MVMTLR3CLOA5VZECD", "current_trial": 101, "dateTime": 1513467721447, "trialdata": {"rt": -1, "stimulus": "", "key_press": -1, "type": "PRE_RECALL_DELAY", "trial_type": "single-stim", "trial_index": 101, "time_elapsed": 719582, "internal_node_id": "0.0-74.0-0.0"}}, {"uniqueid": "MTK1241:3DL65MZB8EMN1MVMTLR3CLOA5VZECD", "current_trial": 102, "dateTime": 1513467721949, "trialdata": {"rt": -1000, "stimulus": "/static/audio/400Hz.wav", "key_press": -1, "type": "PRE_RECALL_ALERT", "trial_type": "single-audio", "trial_index": 102, "time_elapsed": 720084, "internal_node_id": "0.0-75.0"}}, {"uniqueid": "MTK1241:3DL65MZB8EMN1MVMTLR3CLOA5VZECD", "current_trial": 103, "dateTime": 1513467781957, "trialdata": {"rt": [3545, 7091, 8967, 10584, 12299, 15495, 19871, 22904, 24731, 29351, 55867], "recwords": ["guitar", "sticker", "stove", "waiter", "saddle", "canyon", "valley", "candy", "cook", "forehead", ""], "type": "FREE_RECALL", "conditions": [12, 1600, "a", 12000], "trial": 2, "trial_type": "free-recall", "trial_index": 103, "time_elapsed": 780088, "internal_node_id": "0.0-76.0-0.0"}}, {"uniqueid": "MTK1241:3DL65MZB8EMN1MVMTLR3CLOA5VZECD", "current_trial": 104, "dateTime": 1513467786452, "trialdata": {"rt": 2492, "key_press": 32, "type": "INSTRUCTIONS", "trial_type": "text", "trial_index": 104, "time_elapsed": 784587, "internal_node_id": "0.0-77.0"}}, {"uniqueid": "MTK1241:3DL65MZB8EMN1MVMTLR3CLOA5VZECD", "current_trial": 105, "dateTime": 1513467800456, "trialdata": {"rt": [3996, 7391, 9233, 11707], "responses": ["16", "20", "8", "11"], "num1": [3, 9, 1, 1, 4], "num2": [8, 9, 3, 6, 5], "num3": [5, 3, 4, 5, 5], "type": "DISTRACTOR", "conditions": [24, 800, "v", 12000], "trial": 3, "trial_type": "math-distractor", "trial_index": 105, "time_elapsed": 798591, "internal_node_id": "0.0-78.0"}}, {"uniqueid": "MTK1241:3DL65MZB8EMN1MVMTLR3CLOA5VZECD", "current_trial": 106, "dateTime": 1513467803458, "trialdata": {"rt": -1, "stimulus": "<p id=\"stim\">10</p>", "key_press": -1, "trial_type": "single-stim", "trial_index": 106, "time_elapsed": 801593, "internal_node_id": "0.0-79.0-0.0"}}, {"uniqueid": "MTK1241:3DL65MZB8EMN1MVMTLR3CLOA5VZECD", "current_trial": 107, "dateTime": 1513467804460, "trialdata": {"rt": -1, "stimulus": "<p id=\"stim\">9</p>", "key_press": -1, "trial_type": "single-stim", "trial_index": 107, "time_elapsed": 802595, "internal_node_id": "0.0-79.0-1.0"}}, {"uniqueid": "MTK1241:3DL65MZB8EMN1MVMTLR3CLOA5VZECD", "current_trial": 108, "dateTime": 1513467805463, "trialdata": {"rt": -1, "stimulus": "<p id=\"stim\">8</p>", "key_press": -1, "trial_type": "single-stim", "trial_index": 108, "time_elapsed": 803597, "internal_node_id": "0.0-79.0-2.0"}}, {"uniqueid": "MTK1241:3DL65MZB8EMN1MVMTLR3CLOA5VZECD", "current_trial": 109, "dateTime": 1513467806464, "trialdata": {"rt": -1, "stimulus": "<p id=\"stim\">7</p>", "key_press": -1, "trial_type": "single-stim", "trial_index": 109, "time_elapsed": 804599, "internal_node_id": "0.0-79.0-3.0"}}, {"uniqueid": "MTK1241:3DL65MZB8EMN1MVMTLR3CLOA5VZECD", "current_trial": 110, "dateTime": 1513467807466, "trialdata": {"rt": -1, "stimulus": "<p id=\"stim\">6</p>", "key_press": -1, "trial_type": "single-stim", "trial_index": 110, "time_elapsed": 805601, "internal_node_id": "0.0-79.0-4.0"}}, {"uniqueid": "MTK1241:3DL65MZB8EMN1MVMTLR3CLOA5VZECD", "current_trial": 111, "dateTime": 1513467808468, "trialdata": {"rt": -1, "stimulus": "<p id=\"stim\">5</p>", "key_press": -1, "trial_type": "single-stim", "trial_index": 111, "time_elapsed": 806602, "internal_node_id": "0.0-79.0-5.0"}}, {"uniqueid": "MTK1241:3DL65MZB8EMN1MVMTLR3CLOA5VZECD", "current_trial": 112, "dateTime": 1513467809469, "trialdata": {"rt": -1, "stimulus": "<p id=\"stim\">4</p>", "key_press": -1, "trial_type": "single-stim", "trial_index": 112, "time_elapsed": 807604, "internal_node_id": "0.0-79.0-6.0"}}, {"uniqueid": "MTK1241:3DL65MZB8EMN1MVMTLR3CLOA5VZECD", "current_trial": 113, "dateTime": 1513467810471, "trialdata": {"rt": -1, "stimulus": "<p id=\"stim\">3</p>", "key_press": -1, "trial_type": "single-stim", "trial_index": 113, "time_elapsed": 808606, "internal_node_id": "0.0-79.0-7.0"}}, {"uniqueid": "MTK1241:3DL65MZB8EMN1MVMTLR3CLOA5VZECD", "current_trial": 114, "dateTime": 1513467811473, "trialdata": {"rt": -1, "stimulus": "<p id=\"stim\">2</p>", "key_press": -1, "trial_type": "single-stim", "trial_index": 114, "time_elapsed": 809608, "internal_node_id": "0.0-79.0-8.0"}}, {"uniqueid": "MTK1241:3DL65MZB8EMN1MVMTLR3CLOA5VZECD", "current_trial": 115, "dateTime": 1513467812473, "trialdata": {"rt": -1, "stimulus": "<p id=\"stim\">1</p>", "key_press": -1, "trial_type": "single-stim", "trial_index": 115, "time_elapsed": 810608, "internal_node_id": "0.0-79.0-9.0"}}, {"uniqueid": "MTK1241:3DL65MZB8EMN1MVMTLR3CLOA5VZECD", "current_trial": 116, "dateTime": 1513467813974, "trialdata": {"rt": -1, "stimulus": "<p id=\"stim\">+</p>", "key_press": -1, "type": "FIXATION", "trial_type": "single-stim", "trial_index": 116, "time_elapsed": 812109, "internal_node_id": "0.0-80.0-0.0"}}, {"uniqueid": "MTK1241:3DL65MZB8EMN1MVMTLR3CLOA5VZECD", "current_trial": 117, "dateTime": 1513467814777, "trialdata": {"rt": -1, "stimulus": "<p id=\"stim\">TRANSPLANT</p>", "key_press": -1, "type": "PRES_VIS", "word": "transplant", "wordID": 1495, "conditions": [24, 800, "v", 12000], "trial": 3, "serialpos": 0, "trial_type": "single-stim", "trial_index": 117, "time_elapsed": 812912, "internal_node_id": "0.0-81.0"}}, {"uniqueid": "MTK1241:3DL65MZB8EMN1MVMTLR3CLOA5VZECD", "current_trial": 118, "dateTime": 1513467816547, "trialdata": {"rt": -1, "stimulus": "<p id=\"stim\">COD</p>", "key_press": -1, "type": "PRES_VIS", "word": "cod", "wordID": 339, "conditions": [24, 800, "v", 12000], "trial": 3, "serialpos": 1, "trial_type": "single-stim", "trial_index": 118, "time_elapsed": 814682, "internal_node_id": "0.0-82.0"}}, {"uniqueid": "MTK1241:3DL65MZB8EMN1MVMTLR3CLOA5VZECD", "current_trial": 119, "dateTime": 1513467818537, "trialdata": {"rt": -1, "stimulus": "<p id=\"stim\">CAMEL</p>", "key_press": -1, "type": "PRES_VIS", "word": "camel", "wordID": 222, "conditions": [24, 800, "v", 12000], "trial": 3, "serialpos": 2, "trial_type": "single-stim", "trial_index": 119, "time_elapsed": 816672, "internal_node_id": "0.0-83.0"}}, {"uniqueid": "MTK1241:3DL65MZB8EMN1MVMTLR3CLOA5VZECD", "current_trial": 120, "dateTime": 1513467820400, "trialdata": {"rt": -1, "stimulus": "<p id=\"stim\">SUNRISE</p>", "key_press": -1, "type": "PRES_VIS", "word": "sunrise", "wordID": 1406, "conditions": [24, 800, "v", 12000], "trial": 3, "serialpos": 3, "trial_type": "single-stim", "trial_index": 120, "time_elapsed": 818535, "internal_node_id": "0.0-84.0"}}, {"uniqueid": "MTK1241:3DL65MZB8EMN1MVMTLR3CLOA5VZECD", "current_trial": 121, "dateTime": 1513467822351, "trialdata": {"rt": -1, "stimulus": "<p id=\"stim\">SANDWICH</p>", "key_press": -1, "type": "PRES_VIS", "word": "sandwich", "wordID": 1231, "conditions": [24, 800, "v", 12000], "trial": 3, "serialpos": 4, "trial_type": "single-stim", "trial_index": 121, "time_elapsed": 820486, "internal_node_id": "0.0-85.0"}}, {"uniqueid": "MTK1241:3DL65MZB8EMN1MVMTLR3CLOA5VZECD", "current_trial": 122, "dateTime": 1513467824076, "trialdata": {"rt": -1, "stimulus": "<p id=\"stim\">SNACK</p>", "key_press": -1, "type": "PRES_VIS", "word": "snack", "wordID": 1330, "conditions": [24, 800, "v", 12000], "trial": 3, "serialpos": 5, "trial_type": "single-stim", "trial_index": 122, "time_elapsed": 822211, "internal_node_id": "0.0-86.0"}}, {"uniqueid": "MTK1241:3DL65MZB8EMN1MVMTLR3CLOA5VZECD", "current_trial": 123, "dateTime": 1513467825937, "trialdata": {"rt": -1, "stimulus": "<p id=\"stim\">OUTDOORS</p>", "key_press": -1, "type": "PRES_VIS", "word": "outdoors", "wordID": 986, "conditions": [24, 800, "v", 12000], "trial": 3, "serialpos": 6, "trial_type": "single-stim", "trial_index": 123, "time_elapsed": 824072, "internal_node_id": "0.0-87.0"}}, {"uniqueid": "MTK1241:3DL65MZB8EMN1MVMTLR3CLOA5VZECD", "current_trial": 124, "dateTime": 1513467827937, "trialdata": {"rt": -1, "stimulus": "<p id=\"stim\">CHILD</p>", "key_press": -1, "type": "PRES_VIS", "word": "child", "wordID": 298, "conditions": [24, 800, "v", 12000], "trial": 3, "serialpos": 7, "trial_type": "single-stim", "trial_index": 124, "time_elapsed": 826072, "internal_node_id": "0.0-88.0"}}, {"uniqueid": "MTK1241:3DL65MZB8EMN1MVMTLR3CLOA5VZECD", "current_trial": 125, "dateTime": 1513467829854, "trialdata": {"rt": -1, "stimulus": "<p id=\"stim\">KIDNEY</p>", "key_press": -1, "type": "PRES_VIS", "word": "kidney", "wordID": 775, "conditions": [24, 800, "v", 12000], "trial": 3, "serialpos": 8, "trial_type": "single-stim", "trial_index": 125, "time_elapsed": 827989, "internal_node_id": "0.0-89.0"}}, {"uniqueid": "MTK1241:3DL65MZB8EMN1MVMTLR3CLOA5VZECD", "current_trial": 126, "dateTime": 1513467831853, "trialdata": {"rt": -1, "stimulus": "<p id=\"stim\">CRAYON</p>", "key_press": -1, "type": "PRES_VIS", "word": "crayon", "wordID": 400, "conditions": [24, 800, "v", 12000], "trial": 3, "serialpos": 9, "trial_type": "single-stim", "trial_index": 126, "time_elapsed": 829988, "internal_node_id": "0.0-90.0"}}, {"uniqueid": "MTK1241:3DL65MZB8EMN1MVMTLR3CLOA5VZECD", "current_trial": 127, "dateTime": 1513467833651, "trialdata": {"rt": -1, "stimulus": "<p id=\"stim\">YARN</p>", "key_press": -1, "type": "PRES_VIS", "word": "yarn", "wordID": 1630, "conditions": [24, 800, "v", 12000], "trial": 3, "serialpos": 10, "trial_type": "single-stim", "trial_index": 127, "time_elapsed": 831785, "internal_node_id": "0.0-91.0"}}, {"uniqueid": "MTK1241:3DL65MZB8EMN1MVMTLR3CLOA5VZECD", "current_trial": 128, "dateTime": 1513467835416, "trialdata": {"rt": -1, "stimulus": "<p id=\"stim\">PUDDLE</p>", "key_press": -1, "type": "PRES_VIS", "word": "puddle", "wordID": 1139, "conditions": [24, 800, "v", 12000], "trial": 3, "serialpos": 11, "trial_type": "single-stim", "trial_index": 128, "time_elapsed": 833551, "internal_node_id": "0.0-92.0"}}, {"uniqueid": "MTK1241:3DL65MZB8EMN1MVMTLR3CLOA5VZECD", "current_trial": 129, "dateTime": 1513467837374, "trialdata": {"rt": -1, "stimulus": "<p id=\"stim\">SHERIFF</p>", "key_press": -1, "type": "PRES_VIS", "word": "sheriff", "wordID": 1283, "conditions": [24, 800, "v", 12000], "trial": 3, "serialpos": 12, "trial_type": "single-stim", "trial_index": 129, "time_elapsed": 835509, "internal_node_id": "0.0-93.0"}}, {"uniqueid": "MTK1241:3DL65MZB8EMN1MVMTLR3CLOA5VZECD", "current_trial": 130, "dateTime": 1513467839128, "trialdata": {"rt": -1, "stimulus": "<p id=\"stim\">SCOTCH</p>", "key_press": -1, "type": "PRES_VIS", "word": "scotch", "wordID": 1250, "conditions": [24, 800, "v", 12000], "trial": 3, "serialpos": 13, "trial_type": "single-stim", "trial_index": 130, "time_elapsed": 837262, "internal_node_id": "0.0-94.0"}}, {"uniqueid": "MTK1241:3DL65MZB8EMN1MVMTLR3CLOA5VZECD", "current_trial": 131, "dateTime": 1513467841063, "trialdata": {"rt": -1, "stimulus": "<p id=\"stim\">HOOK</p>", "key_press": -1, "type": "PRES_VIS", "word": "hook", "wordID": 714, "conditions": [24, 800, "v", 12000], "trial": 3, "serialpos": 14, "trial_type": "single-stim", "trial_index": 131, "time_elapsed": 839198, "internal_node_id": "0.0-95.0"}}, {"uniqueid": "MTK1241:3DL65MZB8EMN1MVMTLR3CLOA5VZECD", "current_trial": 132, "dateTime": 1513467843028, "trialdata": {"rt": -1, "stimulus": "<p id=\"stim\">COUNTY</p>", "key_press": -1, "type": "PRES_VIS", "word": "county", "wordID": 388, "conditions": [24, 800, "v", 12000], "trial": 3, "serialpos": 15, "trial_type": "single-stim", "trial_index": 132, "time_elapsed": 841162, "internal_node_id": "0.0-96.0"}}, {"uniqueid": "MTK1241:3DL65MZB8EMN1MVMTLR3CLOA5VZECD", "current_trial": 133, "dateTime": 1513467844982, "trialdata": {"rt": -1, "stimulus": "<p id=\"stim\">COIN</p>", "key_press": -1, "type": "PRES_VIS", "word": "coin", "wordID": 342, "conditions": [24, 800, "v", 12000], "trial": 3, "serialpos": 16, "trial_type": "single-stim", "trial_index": 133, "time_elapsed": 843117, "internal_node_id": "0.0-97.0"}}, {"uniqueid": "MTK1241:3DL65MZB8EMN1MVMTLR3CLOA5VZECD", "current_trial": 134, "dateTime": 1513467846929, "trialdata": {"rt": -1, "stimulus": "<p id=\"stim\">PLATE</p>", "key_press": -1, "type": "PRES_VIS", "word": "plate", "wordID": 1085, "conditions": [24, 800, "v", 12000], "trial": 3, "serialpos": 17, "trial_type": "single-stim", "trial_index": 134, "time_elapsed": 845064, "internal_node_id": "0.0-98.0"}}, {"uniqueid": "MTK1241:3DL65MZB8EMN1MVMTLR3CLOA5VZECD", "current_trial": 135, "dateTime": 1513467848742, "trialdata": {"rt": -1, "stimulus": "<p id=\"stim\">LIGHTNING</p>", "key_press": -1, "type": "PRES_VIS", "word": "lightning", "wordID": 819, "conditions": [24, 800, "v", 12000], "trial": 3, "serialpos": 18, "trial_type": "single-stim", "trial_index": 135, "time_elapsed": 846877, "internal_node_id": "0.0-99.0"}}, {"uniqueid": "MTK1241:3DL65MZB8EMN1MVMTLR3CLOA5VZECD", "current_trial": 136, "dateTime": 1513467850395, "trialdata": {"rt": -1, "stimulus": "<p id=\"stim\">SHELF</p>", "key_press": -1, "type": "PRES_VIS", "word": "shelf", "wordID": 1279, "conditions": [24, 800, "v", 12000], "trial": 3, "serialpos": 19, "trial_type": "single-stim", "trial_index": 136, "time_elapsed": 848530, "internal_node_id": "0.0-100.0"}}, {"uniqueid": "MTK1241:3DL65MZB8EMN1MVMTLR3CLOA5VZECD", "current_trial": 137, "dateTime": 1513467852060, "trialdata": {"rt": -1, "stimulus": "<p id=\"stim\">BRIEFCASE</p>", "key_press": -1, "type": "PRES_VIS", "word": "briefcase", "wordID": 174, "conditions": [24, 800, "v", 12000], "trial": 3, "serialpos": 20, "trial_type": "single-stim", "trial_index": 137, "time_elapsed": 850195, "internal_node_id": "0.0-101.0"}}, {"uniqueid": "MTK1241:3DL65MZB8EMN1MVMTLR3CLOA5VZECD", "current_trial": 138, "dateTime": 1513467853783, "trialdata": {"rt": -1, "stimulus": "<p id=\"stim\">KNAPSACK</p>", "key_press": -1, "type": "PRES_VIS", "word": "knapsack", "wordID": 782, "conditions": [24, 800, "v", 12000], "trial": 3, "serialpos": 21, "trial_type": "single-stim", "trial_index": 138, "time_elapsed": 851918, "internal_node_id": "0.0-102.0"}}, {"uniqueid": "MTK1241:3DL65MZB8EMN1MVMTLR3CLOA5VZECD", "current_trial": 139, "dateTime": 1513467855560, "trialdata": {"rt": -1, "stimulus": "<p id=\"stim\">SUBWAY</p>", "key_press": -1, "type": "PRES_VIS", "word": "subway", "wordID": 1399, "conditions": [24, 800, "v", 12000], "trial": 3, "serialpos": 22, "trial_type": "single-stim", "trial_index": 139, "time_elapsed": 853695, "internal_node_id": "0.0-103.0"}}, {"uniqueid": "MTK1241:3DL65MZB8EMN1MVMTLR3CLOA5VZECD", "current_trial": 140, "dateTime": 1513467857417, "trialdata": {"rt": -1, "stimulus": "<p id=\"stim\">SEAL</p>", "key_press": -1, "type": "PRES_VIS", "word": "seal", "wordID": 1261, "conditions": [24, 800, "v", 12000], "trial": 3, "serialpos": 23, "trial_type": "single-stim", "trial_index": 140, "time_elapsed": 855552, "internal_node_id": "0.0-104.0"}}, {"uniqueid": "MTK1241:3DL65MZB8EMN1MVMTLR3CLOA5VZECD", "current_trial": 141, "dateTime": 1513467859717, "trialdata": {"rt": -1, "stimulus": "", "key_press": -1, "type": "PRE_RECALL_DELAY", "trial_type": "single-stim", "trial_index": 141, "time_elapsed": 857852, "internal_node_id": "0.0-105.0-0.0"}}, {"uniqueid": "MTK1241:3DL65MZB8EMN1MVMTLR3CLOA5VZECD", "current_trial": 142, "dateTime": 1513467860352, "trialdata": {"rt": -1000, "stimulus": "/static/audio/400Hz.wav", "key_press": -1, "type": "PRE_RECALL_ALERT", "trial_type": "single-audio", "trial_index": 142, "time_elapsed": 858469, "internal_node_id": "0.0-106.0"}}, {"uniqueid": "MTK1241:3DL65MZB8EMN1MVMTLR3CLOA5VZECD", "current_trial": 143, "dateTime": 1513467920360, "trialdata": {"rt": [7537, 8625, 10474, 13008, 15769, 18203, 20620, 23770, 25282, 28480, 30384, 32717, 34787, 39044, 41123, 43052, 51700], "recwords": ["transplant", "cod", "camel", "sunrise", "sandwich", "snack", "kidney", "canyon", "yarn", "sheriff", "scotch", "hook", "coin", "lightning", "shelf", "seal", "subway"], "type": "FREE_RECALL", "conditions": [24, 800, "v", 12000], "trial": 3, "trial_type": "free-recall", "trial_index": 143, "time_elapsed": 918491, "internal_node_id": "0.0-107.0-0.0"}}, {"uniqueid": "MTK1241:3DL65MZB8EMN1MVMTLR3CLOA5VZECD", "current_trial": 144, "dateTime": 1513467925315, "trialdata": {"rt": 2953, "key_press": 32, "type": "INSTRUCTIONS", "trial_type": "text", "trial_index": 144, "time_elapsed": 923450, "internal_node_id": "0.0-108.0"}}, {"uniqueid": "MTK1241:3DL65MZB8EMN1MVMTLR3CLOA5VZECD", "current_trial": 145, "dateTime": 1513467939318, "trialdata": {"rt": [3764, 6172, 8470, 10919], "responses": ["18", "18", "16", "17"], "num1": [8, 3, 2, 6, 2], "num2": [5, 9, 9, 4, 1], "num3": [5, 6, 5, 7, 2], "type": "DISTRACTOR", "conditions": [12, 800, "a", 12000], "trial": 4, "trial_type": "math-distractor", "trial_index": 145, "time_elapsed": 937453, "internal_node_id": "0.0-109.0"}}, {"uniqueid": "MTK1241:3DL65MZB8EMN1MVMTLR3CLOA5VZECD", "current_trial": 146, "dateTime": 1513467942320, "trialdata": {"rt": -1, "stimulus": "<p id=\"stim\">10</p>", "key_press": -1, "trial_type": "single-stim", "trial_index": 146, "time_elapsed": 940455, "internal_node_id": "0.0-110.0-0.0"}}, {"uniqueid": "MTK1241:3DL65MZB8EMN1MVMTLR3CLOA5VZECD", "current_trial": 147, "dateTime": 1513467943322, "trialdata": {"rt": -1, "stimulus": "<p id=\"stim\">9</p>", "key_press": -1, "trial_type": "single-stim", "trial_index": 147, "time_elapsed": 941457, "internal_node_id": "0.0-110.0-1.0"}}, {"uniqueid": "MTK1241:3DL65MZB8EMN1MVMTLR3CLOA5VZECD", "current_trial": 148, "dateTime": 1513467944323, "trialdata": {"rt": -1, "stimulus": "<p id=\"stim\">8</p>", "key_press": -1, "trial_type": "single-stim", "trial_index": 148, "time_elapsed": 942458, "internal_node_id": "0.0-110.0-2.0"}}, {"uniqueid": "MTK1241:3DL65MZB8EMN1MVMTLR3CLOA5VZECD", "current_trial": 149, "dateTime": 1513467945325, "trialdata": {"rt": -1, "stimulus": "<p id=\"stim\">7</p>", "key_press": -1, "trial_type": "single-stim", "trial_index": 149, "time_elapsed": 943460, "internal_node_id": "0.0-110.0-3.0"}}, {"uniqueid": "MTK1241:3DL65MZB8EMN1MVMTLR3CLOA5VZECD", "current_trial": 150, "dateTime": 1513467946328, "trialdata": {"rt": -1, "stimulus": "<p id=\"stim\">6</p>", "key_press": -1, "trial_type": "single-stim", "trial_index": 150, "time_elapsed": 944463, "internal_node_id": "0.0-110.0-4.0"}}, {"uniqueid": "MTK1241:3DL65MZB8EMN1MVMTLR3CLOA5VZECD", "current_trial": 151, "dateTime": 1513467947390, "trialdata": {"rt": -1, "stimulus": "<p id=\"stim\">5</p>", "key_press": -1, "trial_type": "single-stim", "trial_index": 151, "time_elapsed": 945525, "internal_node_id": "0.0-110.0-5.0"}}, {"uniqueid": "MTK1241:3DL65MZB8EMN1MVMTLR3CLOA5VZECD", "current_trial": 152, "dateTime": 1513467948392, "trialdata": {"rt": -1, "stimulus": "<p id=\"stim\">4</p>", "key_press": -1, "trial_type": "single-stim", "trial_index": 152, "time_elapsed": 946526, "internal_node_id": "0.0-110.0-6.0"}}, {"uniqueid": "MTK1241:3DL65MZB8EMN1MVMTLR3CLOA5VZECD", "current_trial": 153, "dateTime": 1513467949393, "trialdata": {"rt": -1, "stimulus": "<p id=\"stim\">3</p>", "key_press": -1, "trial_type": "single-stim", "trial_index": 153, "time_elapsed": 947528, "internal_node_id": "0.0-110.0-7.0"}}, {"uniqueid": "MTK1241:3DL65MZB8EMN1MVMTLR3CLOA5VZECD", "current_trial": 154, "dateTime": 1513467950395, "trialdata": {"rt": -1, "stimulus": "<p id=\"stim\">2</p>", "key_press": -1, "trial_type": "single-stim", "trial_index": 154, "time_elapsed": 948530, "internal_node_id": "0.0-110.0-8.0"}}, {"uniqueid": "MTK1241:3DL65MZB8EMN1MVMTLR3CLOA5VZECD", "current_trial": 155, "dateTime": 1513467951396, "trialdata": {"rt": -1, "stimulus": "<p id=\"stim\">1</p>", "key_press": -1, "trial_type": "single-stim", "trial_index": 155, "time_elapsed": 949531, "internal_node_id": "0.0-110.0-9.0"}}, {"uniqueid": "MTK1241:3DL65MZB8EMN1MVMTLR3CLOA5VZECD", "current_trial": 156, "dateTime": 1513467952897, "trialdata": {"rt": -1, "stimulus": "<p id=\"stim\">+</p>", "key_press": -1, "type": "FIXATION", "trial_type": "single-stim", "trial_index": 156, "time_elapsed": 951032, "internal_node_id": "0.0-111.0-0.0"}}, {"uniqueid": "MTK1241:3DL65MZB8EMN1MVMTLR3CLOA5VZECD", "current_trial": 157, "dateTime": 1513467954852, "trialdata": {"rt": -1000, "stimulus": "/static/audio/wordpool/GOBLIN.wav", "key_press": -1, "type": "PRES_AUD", "word": "goblin", "wordID": 644, "conditions": [12, 800, "a", 12000], "trial": 4, "serialpos": 0, "trial_type": "single-audio", "trial_index": 157, "time_elapsed": 952987, "internal_node_id": "0.0-112.0"}}, {"uniqueid": "MTK1241:3DL65MZB8EMN1MVMTLR3CLOA5VZECD", "current_trial": 158, "dateTime": 1513467956790, "trialdata": {"rt": -1000, "stimulus": "/static/audio/wordpool/CRATER.wav", "key_press": -1, "type": "PRES_AUD", "word": "crater", "wordID": 399, "conditions": [12, 800, "a", 12000], "trial": 4, "serialpos": 1, "trial_type": "single-audio", "trial_index": 158, "time_elapsed": 954925, "internal_node_id": "0.0-113.0"}}, {"uniqueid": "MTK1241:3DL65MZB8EMN1MVMTLR3CLOA5VZECD", "current_trial": 159, "dateTime": 1513467958511, "trialdata": {"rt": -1000, "stimulus": "/static/audio/wordpool/LAVA.wav", "key_press": -1, "type": "PRES_AUD", "word": "lava", "wordID": 803, "conditions": [12, 800, "a", 12000], "trial": 4, "serialpos": 2, "trial_type": "single-audio", "trial_index": 159, "time_elapsed": 956646, "internal_node_id": "0.0-114.0"}}, {"uniqueid": "MTK1241:3DL65MZB8EMN1MVMTLR3CLOA5VZECD", "current_trial": 160, "dateTime": 1513467960390, "trialdata": {"rt": -1000, "stimulus": "/static/audio/wordpool/KNIFE.wav", "key_press": -1, "type": "PRES_AUD", "word": "knife", "wordID": 784, "conditions": [12, 800, "a", 12000], "trial": 4, "serialpos": 3, "trial_type": "single-audio", "trial_index": 160, "time_elapsed": 958525, "internal_node_id": "0.0-115.0"}}, {"uniqueid": "MTK1241:3DL65MZB8EMN1MVMTLR3CLOA5VZECD", "current_trial": 161, "dateTime": 1513467962194, "trialdata": {"rt": -1000, "stimulus": "/static/audio/wordpool/SPIDER.wav", "key_press": -1, "type": "PRES_AUD", "word": "spider", "wordID": 1350, "conditions": [12, 800, "a", 12000], "trial": 4, "serialpos": 4, "trial_type": "single-audio", "trial_index": 161, "time_elapsed": 960329, "internal_node_id": "0.0-116.0"}}, {"uniqueid": "MTK1241:3DL65MZB8EMN1MVMTLR3CLOA5VZECD", "current_trial": 162, "dateTime": 1513467963995, "trialdata": {"rt": -1000, "stimulus": "/static/audio/wordpool/MUFFIN.wav", "key_press": -1, "type": "PRES_AUD", "word": "muffin", "wordID": 928, "conditions": [12, 800, "a", 12000], "trial": 4, "serialpos": 5, "trial_type": "single-audio", "trial_index": 162, "time_elapsed": 962130, "internal_node_id": "0.0-117.0"}}, {"uniqueid": "MTK1241:3DL65MZB8EMN1MVMTLR3CLOA5VZECD", "current_trial": 163, "dateTime": 1513467965609, "trialdata": {"rt": -1000, "stimulus": "/static/audio/wordpool/POET.wav", "key_press": -1, "type": "PRES_AUD", "word": "poet", "wordID": 1094, "conditions": [12, 800, "a", 12000], "trial": 4, "serialpos": 6, "trial_type": "single-audio", "trial_index": 163, "time_elapsed": 963744, "internal_node_id": "0.0-118.0"}}, {"uniqueid": "MTK1241:3DL65MZB8EMN1MVMTLR3CLOA5VZECD", "current_trial": 164, "dateTime": 1513467967536, "trialdata": {"rt": -1000, "stimulus": "/static/audio/wordpool/THIEF.wav", "key_press": -1, "type": "PRES_AUD", "word": "thief", "wordID": 1455, "conditions": [12, 800, "a", 12000], "trial": 4, "serialpos": 7, "trial_type": "single-audio", "trial_index": 164, "time_elapsed": 965671, "internal_node_id": "0.0-119.0"}}, {"uniqueid": "MTK1241:3DL65MZB8EMN1MVMTLR3CLOA5VZECD", "current_trial": 165, "dateTime": 1513467969188, "trialdata": {"rt": -1000, "stimulus": "/static/audio/wordpool/TOURIST.wav", "key_press": -1, "type": "PRES_AUD", "word": "tourist", "wordID": 1487, "conditions": [12, 800, "a", 12000], "trial": 4, "serialpos": 8, "trial_type": "single-audio", "trial_index": 165, "time_elapsed": 967323, "internal_node_id": "0.0-120.0"}}, {"uniqueid": "MTK1241:3DL65MZB8EMN1MVMTLR3CLOA5VZECD", "current_trial": 166, "dateTime": 1513467970838, "trialdata": {"rt": -1000, "stimulus": "/static/audio/wordpool/SCISSORS.wav", "key_press": -1, "type": "PRES_AUD", "word": "scissors", "wordID": 1249, "conditions": [12, 800, "a", 12000], "trial": 4, "serialpos": 9, "trial_type": "single-audio", "trial_index": 166, "time_elapsed": 968973, "internal_node_id": "0.0-121.0"}}, {"uniqueid": "MTK1241:3DL65MZB8EMN1MVMTLR3CLOA5VZECD", "current_trial": 167, "dateTime": 1513467972540, "trialdata": {"rt": -1000, "stimulus": "/static/audio/wordpool/PEANUT.wav", "key_press": -1, "type": "PRES_AUD", "word": "peanut", "wordID": 1031, "conditions": [12, 800, "a", 12000], "trial": 4, "serialpos": 10, "trial_type": "single-audio", "trial_index": 167, "time_elapsed": 970675, "internal_node_id": "0.0-122.0"}}, {"uniqueid": "MTK1241:3DL65MZB8EMN1MVMTLR3CLOA5VZECD", "current_trial": 168, "dateTime": 1513467974250, "trialdata": {"rt": -1000, "stimulus": "/static/audio/wordpool/LUMBER.wav", "key_press": -1, "type": "PRES_AUD", "word": "lumber", "wordID": 847, "conditions": [12, 800, "a", 12000], "trial": 4, "serialpos": 11, "trial_type": "single-audio", "trial_index": 168, "time_elapsed": 972385, "internal_node_id": "0.0-123.0"}}, {"uniqueid": "MTK1241:3DL65MZB8EMN1MVMTLR3CLOA5VZECD", "current_trial": 169, "dateTime": 1513467975590, "trialdata": {"rt": -1, "stimulus": "", "key_press": -1, "type": "PRE_RECALL_DELAY", "trial_type": "single-stim", "trial_index": 169, "time_elapsed": 973724, "internal_node_id": "0.0-124.0-0.0"}}, {"uniqueid": "MTK1241:3DL65MZB8EMN1MVMTLR3CLOA5VZECD", "current_trial": 170, "dateTime": 1513467976091, "trialdata": {"rt": -1000, "stimulus": "/static/audio/400Hz.wav", "key_press": -1, "type": "PRE_RECALL_ALERT", "trial_type": "single-audio", "trial_index": 170, "time_elapsed": 974226, "internal_node_id": "0.0-125.0"}}, {"uniqueid": "MTK1241:3DL65MZB8EMN1MVMTLR3CLOA5VZECD", "current_trial": 171, "dateTime": 1513468036099, "trialdata": {"rt": [4419, 7397, 9718, 11950, 15000, 18800, 21234, 25208, 28280, 32993, 59820], "recwords": ["goblin", "creature", "lava", "knife", "muffin", "thief", "poet", "tourist", "lumber", "peanut", ""], "type": "FREE_RECALL", "conditions": [12, 800, "a", 12000], "trial": 4, "trial_type": "free-recall", "trial_index": 171, "time_elapsed": 1034230, "internal_node_id": "0.0-126.0-0.0"}}, {"uniqueid": "MTK1241:3DL65MZB8EMN1MVMTLR3CLOA5VZECD", "current_trial": 172, "dateTime": 1513468040201, "trialdata": {"rt": 2100, "key_press": 32, "type": "INSTRUCTIONS", "trial_type": "text", "trial_index": 172, "time_elapsed": 1038336, "internal_node_id": "0.0-127.0"}}, {"uniqueid": "MTK1241:3DL65MZB8EMN1MVMTLR3CLOA5VZECD", "current_trial": 173, "dateTime": 1513468066208, "trialdata": {"rt": [3338, 6878, 9862, 12326, 16350, 18593, 21274, 23248], "responses": ["18", "24", "20", "9", "14", "13", "12", "8"], "num1": [6, 9, 5, 4, 8, 7, 1, 6, 3], "num2": [9, 9, 7, 2, 5, 4, 5, 1, 3], "num3": [3, 6, 8, 3, 1, 2, 6, 1, 7], "type": "DISTRACTOR", "conditions": [24, 1600, "v", 24000], "trial": 5, "trial_type": "math-distractor", "trial_index": 173, "time_elapsed": 1064342, "internal_node_id": "0.0-128.0"}}, {"uniqueid": "MTK1241:3DL65MZB8EMN1MVMTLR3CLOA5VZECD", "current_trial": 174, "dateTime": 1513468069210, "trialdata": {"rt": -1, "stimulus": "<p id=\"stim\">10</p>", "key_press": -1, "trial_type": "single-stim", "trial_index": 174, "time_elapsed": 1067345, "internal_node_id": "0.0-129.0-0.0"}}, {"uniqueid": "MTK1241:3DL65MZB8EMN1MVMTLR3CLOA5VZECD", "current_trial": 175, "dateTime": 1513468070212, "trialdata": {"rt": -1, "stimulus": "<p id=\"stim\">9</p>", "key_press": -1, "trial_type": "single-stim", "trial_index": 175, "time_elapsed": 1068347, "internal_node_id": "0.0-129.0-1.0"}}, {"uniqueid": "MTK1241:3DL65MZB8EMN1MVMTLR3CLOA5VZECD", "current_trial": 176, "dateTime": 1513468071214, "trialdata": {"rt": -1, "stimulus": "<p id=\"stim\">8</p>", "key_press": -1, "trial_type": "single-stim", "trial_index": 176, "time_elapsed": 1069349, "internal_node_id": "0.0-129.0-2.0"}}, {"uniqueid": "MTK1241:3DL65MZB8EMN1MVMTLR3CLOA5VZECD", "current_trial": 177, "dateTime": 1513468072216, "trialdata": {"rt": -1, "stimulus": "<p id=\"stim\">7</p>", "key_press": -1, "trial_type": "single-stim", "trial_index": 177, "time_elapsed": 1070351, "internal_node_id": "0.0-129.0-3.0"}}, {"uniqueid": "MTK1241:3DL65MZB8EMN1MVMTLR3CLOA5VZECD", "current_trial": 178, "dateTime": 1513468073218, "trialdata": {"rt": -1, "stimulus": "<p id=\"stim\">6</p>", "key_press": -1, "trial_type": "single-stim", "trial_index": 178, "time_elapsed": 1071353, "internal_node_id": "0.0-129.0-4.0"}}, {"uniqueid": "MTK1241:3DL65MZB8EMN1MVMTLR3CLOA5VZECD", "current_trial": 179, "dateTime": 1513468074220, "trialdata": {"rt": -1, "stimulus": "<p id=\"stim\">5</p>", "key_press": -1, "trial_type": "single-stim", "trial_index": 179, "time_elapsed": 1072354, "internal_node_id": "0.0-129.0-5.0"}}, {"uniqueid": "MTK1241:3DL65MZB8EMN1MVMTLR3CLOA5VZECD", "current_trial": 180, "dateTime": 1513468075221, "trialdata": {"rt": -1, "stimulus": "<p id=\"stim\">4</p>", "key_press": -1, "trial_type": "single-stim", "trial_index": 180, "time_elapsed": 1073356, "internal_node_id": "0.0-129.0-6.0"}}, {"uniqueid": "MTK1241:3DL65MZB8EMN1MVMTLR3CLOA5VZECD", "current_trial": 181, "dateTime": 1513468076222, "trialdata": {"rt": -1, "stimulus": "<p id=\"stim\">3</p>", "key_press": -1, "trial_type": "single-stim", "trial_index": 181, "time_elapsed": 1074357, "internal_node_id": "0.0-129.0-7.0"}}, {"uniqueid": "MTK1241:3DL65MZB8EMN1MVMTLR3CLOA5VZECD", "current_trial": 182, "dateTime": 1513468077228, "trialdata": {"rt": -1, "stimulus": "<p id=\"stim\">2</p>", "key_press": -1, "trial_type": "single-stim", "trial_index": 182, "time_elapsed": 1075363, "internal_node_id": "0.0-129.0-8.0"}}, {"uniqueid": "MTK1241:3DL65MZB8EMN1MVMTLR3CLOA5VZECD", "current_trial": 183, "dateTime": 1513468078230, "trialdata": {"rt": -1, "stimulus": "<p id=\"stim\">1</p>", "key_press": -1, "trial_type": "single-stim", "trial_index": 183, "time_elapsed": 1076365, "internal_node_id": "0.0-129.0-9.0"}}, {"uniqueid": "MTK1241:3DL65MZB8EMN1MVMTLR3CLOA5VZECD", "current_trial": 184, "dateTime": 1513468079732, "trialdata": {"rt": -1, "stimulus": "<p id=\"stim\">+</p>", "key_press": -1, "type": "FIXATION", "trial_type": "single-stim", "trial_index": 184, "time_elapsed": 1077867, "internal_node_id": "0.0-130.0-0.0"}}, {"uniqueid": "MTK1241:3DL65MZB8EMN1MVMTLR3CLOA5VZECD", "current_trial": 185, "dateTime": 1513468081333, "trialdata": {"rt": -1, "stimulus": "<p id=\"stim\">SCARECROW</p>", "key_press": -1, "type": "PRES_VIS", "word": "scarecrow", "wordID": 1244, "conditions": [24, 1600, "v", 24000], "trial": 5, "serialpos": 0, "trial_type": "single-stim", "trial_index": 185, "time_elapsed": 1079468, "internal_node_id": "0.0-131.0"}}, {"uniqueid": "MTK1241:3DL65MZB8EMN1MVMTLR3CLOA5VZECD", "current_trial": 186, "dateTime": 1513468084079, "trialdata": {"rt": -1, "stimulus": "<p id=\"stim\">DUST</p>", "key_press": -1, "type": "PRES_VIS", "word": "dust", "wordID": 507, "conditions": [24, 1600, "v", 24000], "trial": 5, "serialpos": 1, "trial_type": "single-stim", "trial_index": 186, "time_elapsed": 1082214, "internal_node_id": "0.0-132.0"}}, {"uniqueid": "MTK1241:3DL65MZB8EMN1MVMTLR3CLOA5VZECD", "current_trial": 187, "dateTime": 1513468086816, "trialdata": {"rt": -1, "stimulus": "<p id=\"stim\">QUARTER</p>", "key_press": -1, "type": "PRES_VIS", "word": "quarter", "wordID": 1147, "conditions": [24, 1600, "v", 24000], "trial": 5, "serialpos": 2, "trial_type": "single-stim", "trial_index": 187, "time_elapsed": 1084951, "internal_node_id": "0.0-133.0"}}, {"uniqueid": "MTK1241:3DL65MZB8EMN1MVMTLR3CLOA5VZECD", "current_trial": 188, "dateTime": 1513468089405, "trialdata": {"rt": -1, "stimulus": "<p id=\"stim\">SCALLOP</p>", "key_press": -1, "type": "PRES_VIS", "word": "scallop", "wordID": 1241, "conditions": [24, 1600, "v", 24000], "trial": 5, "serialpos": 3, "trial_type": "single-stim", "trial_index": 188, "time_elapsed": 1087539, "internal_node_id": "0.0-134.0"}}, {"uniqueid": "MTK1241:3DL65MZB8EMN1MVMTLR3CLOA5VZECD", "current_trial": 189, "dateTime": 1513468091846, "trialdata": {"rt": -1, "stimulus": "<p id=\"stim\">PIMPLE</p>", "key_press": -1, "type": "PRES_VIS", "word": "pimple", "wordID": 1070, "conditions": [24, 1600, "v", 24000], "trial": 5, "serialpos": 4, "trial_type": "single-stim", "trial_index": 189, "time_elapsed": 1089980, "internal_node_id": "0.0-135.0"}}, {"uniqueid": "MTK1241:3DL65MZB8EMN1MVMTLR3CLOA5VZECD", "current_trial": 190, "dateTime": 1513468094436, "trialdata": {"rt": -1, "stimulus": "<p id=\"stim\">LACE</p>", "key_press": -1, "type": "PRES_VIS", "word": "lace", "wordID": 791, "conditions": [24, 1600, "v", 24000], "trial": 5, "serialpos": 5, "trial_type": "single-stim", "trial_index": 190, "time_elapsed": 1092571, "internal_node_id": "0.0-136.0"}}, {"uniqueid": "MTK1241:3DL65MZB8EMN1MVMTLR3CLOA5VZECD", "current_trial": 191, "dateTime": 1513468097184, "trialdata": {"rt": -1, "stimulus": "<p id=\"stim\">VELVET</p>", "key_press": -1, "type": "PRES_VIS", "word": "velvet", "wordID": 1554, "conditions": [24, 1600, "v", 24000], "trial": 5, "serialpos": 6, "trial_type": "single-stim", "trial_index": 191, "time_elapsed": 1095318, "internal_node_id": "0.0-137.0"}}, {"uniqueid": "MTK1241:3DL65MZB8EMN1MVMTLR3CLOA5VZECD", "current_trial": 192, "dateTime": 1513468099919, "trialdata": {"rt": -1, "stimulus": "<p id=\"stim\">CONVICT</p>", "key_press": -1, "type": "PRES_VIS", "word": "convict", "wordID": 370, "conditions": [24, 1600, "v", 24000], "trial": 5, "serialpos": 7, "trial_type": "single-stim", "trial_index": 192, "time_elapsed": 1098054, "internal_node_id": "0.0-138.0"}}, {"uniqueid": "MTK1241:3DL65MZB8EMN1MVMTLR3CLOA5VZECD", "current_trial": 193, "dateTime": 1513468102634, "trialdata": {"rt": -1, "stimulus": "<p id=\"stim\">FRECKLE</p>", "key_press": -1, "type": "PRES_VIS", "word": "freckle", "wordID": 601, "conditions": [24, 1600, "v", 24000], "trial": 5, "serialpos": 8, "trial_type": "single-stim", "trial_index": 193, "time_elapsed": 1100768, "internal_node_id": "0.0-139.0"}}, {"uniqueid": "MTK1241:3DL65MZB8EMN1MVMTLR3CLOA5VZECD", "current_trial": 194, "dateTime": 1513468105081, "trialdata": {"rt": -1, "stimulus": "<p id=\"stim\">MILDEW</p>", "key_press": -1, "type": "PRES_VIS", "word": "mildew", "wordID": 892, "conditions": [24, 1600, "v", 24000], "trial": 5, "serialpos": 9, "trial_type": "single-stim", "trial_index": 194, "time_elapsed": 1103216, "internal_node_id": "0.0-140.0"}}, {"uniqueid": "MTK1241:3DL65MZB8EMN1MVMTLR3CLOA5VZECD", "current_trial": 195, "dateTime": 1513468107605, "trialdata": {"rt": -1, "stimulus": "<p id=\"stim\">CLAM</p>", "key_press": -1, "type": "PRES_VIS", "word": "clam", "wordID": 314, "conditions": [24, 1600, "v", 24000], "trial": 5, "serialpos": 10, "trial_type": "single-stim", "trial_index": 195, "time_elapsed": 1105739, "internal_node_id": "0.0-141.0"}}, {"uniqueid": "MTK1241:3DL65MZB8EMN1MVMTLR3CLOA5VZECD", "current_trial": 196, "dateTime": 1513468110212, "trialdata": {"rt": -1, "stimulus": "<p id=\"stim\">PORTRAIT</p>", "key_press": -1, "type": "PRES_VIS", "word": "portrait", "wordID": 1110, "conditions": [24, 1600, "v", 24000], "trial": 5, "serialpos": 11, "trial_type": "single-stim", "trial_index": 196, "time_elapsed": 1108347, "internal_node_id": "0.0-142.0"}}, {"uniqueid": "MTK1241:3DL65MZB8EMN1MVMTLR3CLOA5VZECD", "current_trial": 197, "dateTime": 1513468112923, "trialdata": {"rt": -1, "stimulus": "<p id=\"stim\">CHEMIST</p>", "key_press": -1, "type": "PRES_VIS", "word": "chemist", "wordID": 291, "conditions": [24, 1600, "v", 24000], "trial": 5, "serialpos": 12, "trial_type": "single-stim", "trial_index": 197, "time_elapsed": 1111058, "internal_node_id": "0.0-143.0"}}, {"uniqueid": "MTK1241:3DL65MZB8EMN1MVMTLR3CLOA5VZECD", "current_trial": 198, "dateTime": 1513468115351, "trialdata": {"rt": -1, "stimulus": "<p id=\"stim\">TAXI</p>", "key_press": -1, "type": "PRES_VIS", "word": "taxi", "wordID": 1437, "conditions": [24, 1600, "v", 24000], "trial": 5, "serialpos": 13, "trial_type": "single-stim", "trial_index": 198, "time_elapsed": 1113486, "internal_node_id": "0.0-144.0"}}, {"uniqueid": "MTK1241:3DL65MZB8EMN1MVMTLR3CLOA5VZECD", "current_trial": 199, "dateTime": 1513468117893, "trialdata": {"rt": -1, "stimulus": "<p id=\"stim\">MILK</p>", "key_press": -1, "type": "PRES_VIS", "word": "milk", "wordID": 894, "conditions": [24, 1600, "v", 24000], "trial": 5, "serialpos": 14, "trial_type": "single-stim", "trial_index": 199, "time_elapsed": 1116028, "internal_node_id": "0.0-145.0"}}, {"uniqueid": "MTK1241:3DL65MZB8EMN1MVMTLR3CLOA5VZECD", "current_trial": 200, "dateTime": 1513468120421, "trialdata": {"rt": -1, "stimulus": "<p id=\"stim\">HONEY</p>", "key_press": -1, "type": "PRES_VIS", "word": "honey", "wordID": 712, "conditions": [24, 1600, "v", 24000], "trial": 5, "serialpos": 15, "trial_type": "single-stim", "trial_index": 200, "time_elapsed": 1118556, "internal_node_id": "0.0-146.0"}}, {"uniqueid": "MTK1241:3DL65MZB8EMN1MVMTLR3CLOA5VZECD", "current_trial": 201, "dateTime": 1513468123178, "trialdata": {"rt": -1, "stimulus": "<p id=\"stim\">GRAPE</p>", "key_press": -1, "type": "PRES_VIS", "word": "grape", "wordID": 653, "conditions": [24, 1600, "v", 24000], "trial": 5, "serialpos": 16, "trial_type": "single-stim", "trial_index": 201, "time_elapsed": 1121313, "internal_node_id": "0.0-147.0"}}, {"uniqueid": "MTK1241:3DL65MZB8EMN1MVMTLR3CLOA5VZECD", "current_trial": 202, "dateTime": 1513468125630, "trialdata": {"rt": -1, "stimulus": "<p id=\"stim\">JUDGE</p>", "key_press": -1, "type": "PRES_VIS", "word": "judge", "wordID": 760, "conditions": [24, 1600, "v", 24000], "trial": 5, "serialpos": 17, "trial_type": "single-stim", "trial_index": 202, "time_elapsed": 1123765, "internal_node_id": "0.0-148.0"}}, {"uniqueid": "MTK1241:3DL65MZB8EMN1MVMTLR3CLOA5VZECD", "current_trial": 203, "dateTime": 1513468128135, "trialdata": {"rt": -1, "stimulus": "<p id=\"stim\">HUSBAND</p>", "key_press": -1, "type": "PRES_VIS", "word": "husband", "wordID": 727, "conditions": [24, 1600, "v", 24000], "trial": 5, "serialpos": 18, "trial_type": "single-stim", "trial_index": 203, "time_elapsed": 1126270, "internal_node_id": "0.0-149.0"}}, {"uniqueid": "MTK1241:3DL65MZB8EMN1MVMTLR3CLOA5VZECD", "current_trial": 204, "dateTime": 1513468130669, "trialdata": {"rt": -1, "stimulus": "<p id=\"stim\">BARLEY</p>", "key_press": -1, "type": "PRES_VIS", "word": "barley", "wordID": 87, "conditions": [24, 1600, "v", 24000], "trial": 5, "serialpos": 19, "trial_type": "single-stim", "trial_index": 204, "time_elapsed": 1128804, "internal_node_id": "0.0-150.0"}}, {"uniqueid": "MTK1241:3DL65MZB8EMN1MVMTLR3CLOA5VZECD", "current_trial": 205, "dateTime": 1513468133267, "trialdata": {"rt": -1, "stimulus": "<p id=\"stim\">DANDRUFF</p>", "key_press": -1, "type": "PRES_VIS", "word": "dandruff", "wordID": 438, "conditions": [24, 1600, "v", 24000], "trial": 5, "serialpos": 20, "trial_type": "single-stim", "trial_index": 205, "time_elapsed": 1131402, "internal_node_id": "0.0-151.0"}}, {"uniqueid": "MTK1241:3DL65MZB8EMN1MVMTLR3CLOA5VZECD", "current_trial": 206, "dateTime": 1513468135913, "trialdata": {"rt": -1, "stimulus": "<p id=\"stim\">CLOUD</p>", "key_press": -1, "type": "PRES_VIS", "word": "cloud", "wordID": 327, "conditions": [24, 1600, "v", 24000], "trial": 5, "serialpos": 21, "trial_type": "single-stim", "trial_index": 206, "time_elapsed": 1134048, "internal_node_id": "0.0-152.0"}}, {"uniqueid": "MTK1241:3DL65MZB8EMN1MVMTLR3CLOA5VZECD", "current_trial": 207, "dateTime": 1513468138507, "trialdata": {"rt": -1, "stimulus": "<p id=\"stim\">FRAGRANCE</p>", "key_press": -1, "type": "PRES_VIS", "word": "fragrance", "wordID": 598, "conditions": [24, 1600, "v", 24000], "trial": 5, "serialpos": 22, "trial_type": "single-stim", "trial_index": 207, "time_elapsed": 1136642, "internal_node_id": "0.0-153.0"}}, {"uniqueid": "MTK1241:3DL65MZB8EMN1MVMTLR3CLOA5VZECD", "current_trial": 208, "dateTime": 1513468140917, "trialdata": {"rt": -1, "stimulus": "<p id=\"stim\">HERO</p>", "key_press": -1, "type": "PRES_VIS", "word": "hero", "wordID": 705, "conditions": [24, 1600, "v", 24000], "trial": 5, "serialpos": 23, "trial_type": "single-stim", "trial_index": 208, "time_elapsed": 1139051, "internal_node_id": "0.0-154.0"}}, {"uniqueid": "MTK1241:3DL65MZB8EMN1MVMTLR3CLOA5VZECD", "current_trial": 209, "dateTime": 1513468143019, "trialdata": {"rt": -1, "stimulus": "", "key_press": -1, "type": "PRE_RECALL_DELAY", "trial_type": "single-stim", "trial_index": 209, "time_elapsed": 1141154, "internal_node_id": "0.0-155.0-0.0"}}, {"uniqueid": "MTK1241:3DL65MZB8EMN1MVMTLR3CLOA5VZECD", "current_trial": 210, "dateTime": 1513468143528, "trialdata": {"rt": -1000, "stimulus": "/static/audio/400Hz.wav", "key_press": -1, "type": "PRE_RECALL_ALERT", "trial_type": "single-audio", "trial_index": 210, "time_elapsed": 1141663, "internal_node_id": "0.0-156.0"}}, {"uniqueid": "MTK1241:3DL65MZB8EMN1MVMTLR3CLOA5VZECD", "current_trial": 211, "dateTime": 1513468203541, "trialdata": {"rt": [8314, 10322, 14083, 16416, 19692, 21576, 25163, 28561, 31517, 35307, 37103, 41813, 45620, 51740], "recwords": ["scarecrow", "dust", "pimple", "lace", "velvet", "convict", "frecke", "mildew", "portrait", "honey", "grape", "husband", "cloud", "hero"], "type": "FREE_RECALL", "conditions": [24, 1600, "v", 24000], "trial": 5, "trial_type": "free-recall", "trial_index": 211, "time_elapsed": 1201667, "internal_node_id": "0.0-157.0-0.0"}}, {"uniqueid": "MTK1241:3DL65MZB8EMN1MVMTLR3CLOA5VZECD", "current_trial": 212, "dateTime": 1513468207011, "trialdata": {"rt": 1468, "key_press": 32, "type": "INSTRUCTIONS", "trial_type": "text", "trial_index": 212, "time_elapsed": 1205145, "internal_node_id": "0.0-158.0"}}, {"uniqueid": "MTK1241:3DL65MZB8EMN1MVMTLR3CLOA5VZECD", "current_trial": 213, "dateTime": 1513468233015, "trialdata": {"rt": [3371, 5950, 7740, 10400, 11910, 14740, 16827, 18783, 22071], "responses": ["13", "20", "18", "16", "11", "21", "12", "89", "23"], "num1": [5, 9, 8, 2, 8, 9, 1, 5, 5, 9], "num2": [3, 7, 7, 5, 2, 4, 6, 2, 9, 2], "num3": [5, 4, 3, 9, 1, 8, 5, 2, 9, 8], "type": "DISTRACTOR", "conditions": [12, 800, "a", 24000], "trial": 6, "trial_type": "math-distractor", "trial_index": 213, "time_elapsed": 1231150, "internal_node_id": "0.0-159.0"}}, {"uniqueid": "MTK1241:3DL65MZB8EMN1MVMTLR3CLOA5VZECD", "current_trial": 214, "dateTime": 1513468236018, "trialdata": {"rt": -1, "stimulus": "<p id=\"stim\">10</p>", "key_press": -1, "trial_type": "single-stim", "trial_index": 214, "time_elapsed": 1234153, "internal_node_id": "0.0-160.0-0.0"}}, {"uniqueid": "MTK1241:3DL65MZB8EMN1MVMTLR3CLOA5VZECD", "current_trial": 215, "dateTime": 1513468237019, "trialdata": {"rt": -1, "stimulus": "<p id=\"stim\">9</p>", "key_press": -1, "trial_type": "single-stim", "trial_index": 215, "time_elapsed": 1235154, "internal_node_id": "0.0-160.0-1.0"}}, {"uniqueid": "MTK1241:3DL65MZB8EMN1MVMTLR3CLOA5VZECD", "current_trial": 216, "dateTime": 1513468238021, "trialdata": {"rt": -1, "stimulus": "<p id=\"stim\">8</p>", "key_press": -1, "trial_type": "single-stim", "trial_index": 216, "time_elapsed": 1236156, "internal_node_id": "0.0-160.0-2.0"}}, {"uniqueid": "MTK1241:3DL65MZB8EMN1MVMTLR3CLOA5VZECD", "current_trial": 217, "dateTime": 1513468239022, "trialdata": {"rt": -1, "stimulus": "<p id=\"stim\">7</p>", "key_press": -1, "trial_type": "single-stim", "trial_index": 217, "time_elapsed": 1237157, "internal_node_id": "0.0-160.0-3.0"}}, {"uniqueid": "MTK1241:3DL65MZB8EMN1MVMTLR3CLOA5VZECD", "current_trial": 218, "dateTime": 1513468240024, "trialdata": {"rt": -1, "stimulus": "<p id=\"stim\">6</p>", "key_press": -1, "trial_type": "single-stim", "trial_index": 218, "time_elapsed": 1238159, "internal_node_id": "0.0-160.0-4.0"}}, {"uniqueid": "MTK1241:3DL65MZB8EMN1MVMTLR3CLOA5VZECD", "current_trial": 219, "dateTime": 1513468241025, "trialdata": {"rt": -1, "stimulus": "<p id=\"stim\">5</p>", "key_press": -1, "trial_type": "single-stim", "trial_index": 219, "time_elapsed": 1239160, "internal_node_id": "0.0-160.0-5.0"}}, {"uniqueid": "MTK1241:3DL65MZB8EMN1MVMTLR3CLOA5VZECD", "current_trial": 220, "dateTime": 1513468242027, "trialdata": {"rt": -1, "stimulus": "<p id=\"stim\">4</p>", "key_press": -1, "trial_type": "single-stim", "trial_index": 220, "time_elapsed": 1240162, "internal_node_id": "0.0-160.0-6.0"}}, {"uniqueid": "MTK1241:3DL65MZB8EMN1MVMTLR3CLOA5VZECD", "current_trial": 221, "dateTime": 1513468243029, "trialdata": {"rt": -1, "stimulus": "<p id=\"stim\">3</p>", "key_press": -1, "trial_type": "single-stim", "trial_index": 221, "time_elapsed": 1241163, "internal_node_id": "0.0-160.0-7.0"}}, {"uniqueid": "MTK1241:3DL65MZB8EMN1MVMTLR3CLOA5VZECD", "current_trial": 222, "dateTime": 1513468244031, "trialdata": {"rt": -1, "stimulus": "<p id=\"stim\">2</p>", "key_press": -1, "trial_type": "single-stim", "trial_index": 222, "time_elapsed": 1242166, "internal_node_id": "0.0-160.0-8.0"}}, {"uniqueid": "MTK1241:3DL65MZB8EMN1MVMTLR3CLOA5VZECD", "current_trial": 223, "dateTime": 1513468245034, "trialdata": {"rt": -1, "stimulus": "<p id=\"stim\">1</p>", "key_press": -1, "trial_type": "single-stim", "trial_index": 223, "time_elapsed": 1243168, "internal_node_id": "0.0-160.0-9.0"}}, {"uniqueid": "MTK1241:3DL65MZB8EMN1MVMTLR3CLOA5VZECD", "current_trial": 224, "dateTime": 1513468246535, "trialdata": {"rt": -1, "stimulus": "<p id=\"stim\">+</p>", "key_press": -1, "type": "FIXATION", "trial_type": "single-stim", "trial_index": 224, "time_elapsed": 1244670, "internal_node_id": "0.0-161.0-0.0"}}, {"uniqueid": "MTK1241:3DL65MZB8EMN1MVMTLR3CLOA5VZECD", "current_trial": 225, "dateTime": 1513468248450, "trialdata": {"rt": -1000, "stimulus": "/static/audio/wordpool/PROTON.wav", "key_press": -1, "type": "PRES_AUD", "word": "proton", "wordID": 1131, "conditions": [12, 800, "a", 24000], "trial": 6, "serialpos": 0, "trial_type": "single-audio", "trial_index": 225, "time_elapsed": 1246585, "internal_node_id": "0.0-162.0"}}, {"uniqueid": "MTK1241:3DL65MZB8EMN1MVMTLR3CLOA5VZECD", "current_trial": 226, "dateTime": 1513468250309, "trialdata": {"rt": -1000, "stimulus": "/static/audio/wordpool/ATLAS.wav", "key_press": -1, "type": "PRES_AUD", "word": "atlas", "wordID": 52, "conditions": [12, 800, "a", 24000], "trial": 6, "serialpos": 1, "trial_type": "single-audio", "trial_index": 226, "time_elapsed": 1248443, "internal_node_id": "0.0-163.0"}}, {"uniqueid": "MTK1241:3DL65MZB8EMN1MVMTLR3CLOA5VZECD", "current_trial": 227, "dateTime": 1513468251937, "trialdata": {"rt": -1000, "stimulus": "/static/audio/wordpool/DAUGHTER.wav", "key_press": -1, "type": "PRES_AUD", "word": "daughter", "wordID": 441, "conditions": [12, 800, "a", 24000], "trial": 6, "serialpos": 2, "trial_type": "single-audio", "trial_index": 227, "time_elapsed": 1250071, "internal_node_id": "0.0-164.0"}}, {"uniqueid": "MTK1241:3DL65MZB8EMN1MVMTLR3CLOA5VZECD", "current_trial": 228, "dateTime": 1513468253601, "trialdata": {"rt": -1000, "stimulus": "/static/audio/wordpool/SALMON.wav", "key_press": -1, "type": "PRES_AUD", "word": "salmon", "wordID": 1226, "conditions": [12, 800, "a", 24000], "trial": 6, "serialpos": 3, "trial_type": "single-audio", "trial_index": 228, "time_elapsed": 1251736, "internal_node_id": "0.0-165.0"}}, {"uniqueid": "MTK1241:3DL65MZB8EMN1MVMTLR3CLOA5VZECD", "current_trial": 229, "dateTime": 1513468255361, "trialdata": {"rt": -1000, "stimulus": "/static/audio/wordpool/OX.wav", "key_press": -1, "type": "PRES_AUD", "word": "ox", "wordID": 993, "conditions": [12, 800, "a", 24000], "trial": 6, "serialpos": 4, "trial_type": "single-audio", "trial_index": 229, "time_elapsed": 1253495, "internal_node_id": "0.0-166.0"}}, {"uniqueid": "MTK1241:3DL65MZB8EMN1MVMTLR3CLOA5VZECD", "current_trial": 230, "dateTime": 1513468257222, "trialdata": {"rt": -1000, "stimulus": "/static/audio/wordpool/WRIST.wav", "key_press": -1, "type": "PRES_AUD", "word": "wrist", "wordID": 1625, "conditions": [12, 800, "a", 24000], "trial": 6, "serialpos": 5, "trial_type": "single-audio", "trial_index": 230, "time_elapsed": 1255357, "internal_node_id": "0.0-167.0"}}, {"uniqueid": "MTK1241:3DL65MZB8EMN1MVMTLR3CLOA5VZECD", "current_trial": 231, "dateTime": 1513468259215, "trialdata": {"rt": -1000, "stimulus": "/static/audio/wordpool/FINGER.wav", "key_press": -1, "type": "PRES_AUD", "word": "finger", "wordID": 566, "conditions": [12, 800, "a", 24000], "trial": 6, "serialpos": 6, "trial_type": "single-audio", "trial_index": 231, "time_elapsed": 1257350, "internal_node_id": "0.0-168.0"}}, {"uniqueid": "MTK1241:3DL65MZB8EMN1MVMTLR3CLOA5VZECD", "current_trial": 232, "dateTime": 1513468261189, "trialdata": {"rt": -1000, "stimulus": "/static/audio/wordpool/STOMACH.wav", "key_press": -1, "type": "PRES_AUD", "word": "stomach", "wordID": 1383, "conditions": [12, 800, "a", 24000], "trial": 6, "serialpos": 7, "trial_type": "single-audio", "trial_index": 232, "time_elapsed": 1259324, "internal_node_id": "0.0-169.0"}}, {"uniqueid": "MTK1241:3DL65MZB8EMN1MVMTLR3CLOA5VZECD", "current_trial": 233, "dateTime": 1513468263098, "trialdata": {"rt": -1000, "stimulus": "/static/audio/wordpool/FLIPPER.wav", "key_press": -1, "type": "PRES_AUD", "word": "flipper", "wordID": 579, "conditions": [12, 800, "a", 24000], "trial": 6, "serialpos": 8, "trial_type": "single-audio", "trial_index": 233, "time_elapsed": 1261233, "internal_node_id": "0.0-170.0"}}, {"uniqueid": "MTK1241:3DL65MZB8EMN1MVMTLR3CLOA5VZECD", "current_trial": 234, "dateTime": 1513468264913, "trialdata": {"rt": -1000, "stimulus": "/static/audio/wordpool/PIGEON.wav", "key_press": -1, "type": "PRES_AUD", "word": "pigeon", "wordID": 1064, "conditions": [12, 800, "a", 24000], "trial": 6, "serialpos": 9, "trial_type": "single-audio", "trial_index": 234, "time_elapsed": 1263048, "internal_node_id": "0.0-171.0"}}, {"uniqueid": "MTK1241:3DL65MZB8EMN1MVMTLR3CLOA5VZECD", "current_trial": 235, "dateTime": 1513468266585, "trialdata": {"rt": -1000, "stimulus": "/static/audio/wordpool/CHEST.wav", "key_press": -1, "type": "PRES_AUD", "word": "chest", "wordID": 294, "conditions": [12, 800, "a", 24000], "trial": 6, "serialpos": 10, "trial_type": "single-audio", "trial_index": 235, "time_elapsed": 1264719, "internal_node_id": "0.0-172.0"}}, {"uniqueid": "MTK1241:3DL65MZB8EMN1MVMTLR3CLOA5VZECD", "current_trial": 236, "dateTime": 1513468268366, "trialdata": {"rt": -1000, "stimulus": "/static/audio/wordpool/CAFE.wav", "key_press": -1, "type": "PRES_AUD", "word": "cafe", "wordID": 215, "conditions": [12, 800, "a", 24000], "trial": 6, "serialpos": 11, "trial_type": "single-audio", "trial_index": 236, "time_elapsed": 1266501, "internal_node_id": "0.0-173.0"}}, {"uniqueid": "MTK1241:3DL65MZB8EMN1MVMTLR3CLOA5VZECD", "current_trial": 237, "dateTime": 1513468269673, "trialdata": {"rt": -1, "stimulus": "", "key_press": -1, "type": "PRE_RECALL_DELAY", "trial_type": "single-stim", "trial_index": 237, "time_elapsed": 1267808, "internal_node_id": "0.0-174.0-0.0"}}, {"uniqueid": "MTK1241:3DL65MZB8EMN1MVMTLR3CLOA5VZECD", "current_trial": 238, "dateTime": 1513468270175, "trialdata": {"rt": -1000, "stimulus": "/static/audio/400Hz.wav", "key_press": -1, "type": "PRE_RECALL_ALERT", "trial_type": "single-audio", "trial_index": 238, "time_elapsed": 1268310, "internal_node_id": "0.0-175.0"}}, {"uniqueid": "MTK1241:3DL65MZB8EMN1MVMTLR3CLOA5VZECD", "current_trial": 239, "dateTime": 1513468330184, "trialdata": {"rt": [4967, 7954, 11413, 13679, 15684, 18009, 21692, 25352, 44581, 48979], "recwords": ["cafe", "pingion", "flipper", "proton", "atlas", "daughter", "wrist", "stomack", "atlas", ""], "type": "FREE_RECALL", "conditions": [12, 800, "a", 24000], "trial": 6, "trial_type": "free-recall", "trial_index": 239, "time_elapsed": 1328313, "internal_node_id": "0.0-176.0-0.0"}}, {"uniqueid": "MTK1241:3DL65MZB8EMN1MVMTLR3CLOA5VZECD", "current_trial": 240, "dateTime": 1513468334925, "trialdata": {"rt": 2739, "key_press": 32, "type": "INSTRUCTIONS", "trial_type": "text", "trial_index": 240, "time_elapsed": 1333060, "internal_node_id": "0.0-177.0"}}, {"uniqueid": "MTK1241:3DL65MZB8EMN1MVMTLR3CLOA5VZECD", "current_trial": 241, "dateTime": 1513468348932, "trialdata": {"rt": [2152, 4059, 5859, 7278, 8826, 10709], "responses": ["11", "19", "18", "11", "11", "10"], "num1": [5, 6, 7, 4, 2, 1, 2], "num2": [1, 6, 3, 6, 1, 4, 5], "num3": [5, 7, 8, 1, 8, 5, 2], "type": "DISTRACTOR", "conditions": [24, 1600, "v", 12000], "trial": 7, "trial_type": "math-distractor", "trial_index": 241, "time_elapsed": 1347067, "internal_node_id": "0.0-178.0"}}, {"uniqueid": "MTK1241:3DL65MZB8EMN1MVMTLR3CLOA5VZECD", "current_trial": 242, "dateTime": 1513468351935, "trialdata": {"rt": -1, "stimulus": "<p id=\"stim\">10</p>", "key_press": -1, "trial_type": "single-stim", "trial_index": 242, "time_elapsed": 1350070, "internal_node_id": "0.0-179.0-0.0"}}, {"uniqueid": "MTK1241:3DL65MZB8EMN1MVMTLR3CLOA5VZECD", "current_trial": 243, "dateTime": 1513468352937, "trialdata": {"rt": -1, "stimulus": "<p id=\"stim\">9</p>", "key_press": -1, "trial_type": "single-stim", "trial_index": 243, "time_elapsed": 1351072, "internal_node_id": "0.0-179.0-1.0"}}, {"uniqueid": "MTK1241:3DL65MZB8EMN1MVMTLR3CLOA5VZECD", "current_trial": 244, "dateTime": 1513468353939, "trialdata": {"rt": -1, "stimulus": "<p id=\"stim\">8</p>", "key_press": -1, "trial_type": "single-stim", "trial_index": 244, "time_elapsed": 1352074, "internal_node_id": "0.0-179.0-2.0"}}, {"uniqueid": "MTK1241:3DL65MZB8EMN1MVMTLR3CLOA5VZECD", "current_trial": 245, "dateTime": 1513468354941, "trialdata": {"rt": -1, "stimulus": "<p id=\"stim\">7</p>", "key_press": -1, "trial_type": "single-stim", "trial_index": 245, "time_elapsed": 1353076, "internal_node_id": "0.0-179.0-3.0"}}, {"uniqueid": "MTK1241:3DL65MZB8EMN1MVMTLR3CLOA5VZECD", "current_trial": 246, "dateTime": 1513468355944, "trialdata": {"rt": -1, "stimulus": "<p id=\"stim\">6</p>", "key_press": -1, "trial_type": "single-stim", "trial_index": 246, "time_elapsed": 1354077, "internal_node_id": "0.0-179.0-4.0"}}, {"uniqueid": "MTK1241:3DL65MZB8EMN1MVMTLR3CLOA5VZECD", "current_trial": 247, "dateTime": 1513468356946, "trialdata": {"rt": -1, "stimulus": "<p id=\"stim\">5</p>", "key_press": -1, "trial_type": "single-stim", "trial_index": 247, "time_elapsed": 1355081, "internal_node_id": "0.0-179.0-5.0"}}, {"uniqueid": "MTK1241:3DL65MZB8EMN1MVMTLR3CLOA5VZECD", "current_trial": 248, "dateTime": 1513468357947, "trialdata": {"rt": -1, "stimulus": "<p id=\"stim\">4</p>", "key_press": -1, "trial_type": "single-stim", "trial_index": 248, "time_elapsed": 1356082, "internal_node_id": "0.0-179.0-6.0"}}, {"uniqueid": "MTK1241:3DL65MZB8EMN1MVMTLR3CLOA5VZECD", "current_trial": 249, "dateTime": 1513468358949, "trialdata": {"rt": -1, "stimulus": "<p id=\"stim\">3</p>", "key_press": -1, "trial_type": "single-stim", "trial_index": 249, "time_elapsed": 1357084, "internal_node_id": "0.0-179.0-7.0"}}, {"uniqueid": "MTK1241:3DL65MZB8EMN1MVMTLR3CLOA5VZECD", "current_trial": 250, "dateTime": 1513468359951, "trialdata": {"rt": -1, "stimulus": "<p id=\"stim\">2</p>", "key_press": -1, "trial_type": "single-stim", "trial_index": 250, "time_elapsed": 1358086, "internal_node_id": "0.0-179.0-8.0"}}, {"uniqueid": "MTK1241:3DL65MZB8EMN1MVMTLR3CLOA5VZECD", "current_trial": 251, "dateTime": 1513468360953, "trialdata": {"rt": -1, "stimulus": "<p id=\"stim\">1</p>", "key_press": -1, "trial_type": "single-stim", "trial_index": 251, "time_elapsed": 1359088, "internal_node_id": "0.0-179.0-9.0"}}, {"uniqueid": "MTK1241:3DL65MZB8EMN1MVMTLR3CLOA5VZECD", "current_trial": 252, "dateTime": 1513468362455, "trialdata": {"rt": -1, "stimulus": "<p id=\"stim\">+</p>", "key_press": -1, "type": "FIXATION", "trial_type": "single-stim", "trial_index": 252, "time_elapsed": 1360590, "internal_node_id": "0.0-180.0-0.0"}}, {"uniqueid": "MTK1241:3DL65MZB8EMN1MVMTLR3CLOA5VZECD", "current_trial": 253, "dateTime": 1513468364056, "trialdata": {"rt": -1, "stimulus": "<p id=\"stim\">TRENCH</p>", "key_press": -1, "type": "PRES_VIS", "word": "trench", "wordID": 1502, "conditions": [24, 1600, "v", 12000], "trial": 7, "serialpos": 0, "trial_type": "single-stim", "trial_index": 253, "time_elapsed": 1362191, "internal_node_id": "0.0-181.0"}}, {"uniqueid": "MTK1241:3DL65MZB8EMN1MVMTLR3CLOA5VZECD", "current_trial": 254, "dateTime": 1513468366720, "trialdata": {"rt": -1, "stimulus": "<p id=\"stim\">WAITRESS</p>", "key_press": -1, "type": "PRES_VIS", "word": "waitress", "wordID": 1580, "conditions": [24, 1600, "v", 12000], "trial": 7, "serialpos": 1, "trial_type": "single-stim", "trial_index": 254, "time_elapsed": 1364855, "internal_node_id": "0.0-182.0"}}, {"uniqueid": "MTK1241:3DL65MZB8EMN1MVMTLR3CLOA5VZECD", "current_trial": 255, "dateTime": 1513468369323, "trialdata": {"rt": -1, "stimulus": "<p id=\"stim\">TRUCK</p>", "key_press": -1, "type": "PRES_VIS", "word": "truck", "wordID": 1511, "conditions": [24, 1600, "v", 12000], "trial": 7, "serialpos": 2, "trial_type": "single-stim", "trial_index": 255, "time_elapsed": 1367458, "internal_node_id": "0.0-183.0"}}, {"uniqueid": "MTK1241:3DL65MZB8EMN1MVMTLR3CLOA5VZECD", "current_trial": 256, "dateTime": 1513468372118, "trialdata": {"rt": -1, "stimulus": "<p id=\"stim\">BIKE</p>", "key_press": -1, "type": "PRES_VIS", "word": "bike", "wordID": 124, "conditions": [24, 1600, "v", 12000], "trial": 7, "serialpos": 3, "trial_type": "single-stim", "trial_index": 256, "time_elapsed": 1370252, "internal_node_id": "0.0-184.0"}}, {"uniqueid": "MTK1241:3DL65MZB8EMN1MVMTLR3CLOA5VZECD", "current_trial": 257, "dateTime": 1513468374847, "trialdata": {"rt": -1, "stimulus": "<p id=\"stim\">PALACE</p>", "key_press": -1, "type": "PRES_VIS", "word": "palace", "wordID": 1005, "conditions": [24, 1600, "v", 12000], "trial": 7, "serialpos": 4, "trial_type": "single-stim", "trial_index": 257, "time_elapsed": 1372982, "internal_node_id": "0.0-185.0"}}, {"uniqueid": "MTK1241:3DL65MZB8EMN1MVMTLR3CLOA5VZECD", "current_trial": 258, "dateTime": 1513468377347, "trialdata": {"rt": -1, "stimulus": "<p id=\"stim\">DENIM</p>", "key_press": -1, "type": "PRES_VIS", "word": "denim", "wordID": 445, "conditions": [24, 1600, "v", 12000], "trial": 7, "serialpos": 5, "trial_type": "single-stim", "trial_index": 258, "time_elapsed": 1375482, "internal_node_id": "0.0-186.0"}}, {"uniqueid": "MTK1241:3DL65MZB8EMN1MVMTLR3CLOA5VZECD", "current_trial": 259, "dateTime": 1513468380129, "trialdata": {"rt": -1, "stimulus": "<p id=\"stim\">PAPER</p>", "key_press": -1, "type": "PRES_VIS", "word": "paper", "wordID": 1010, "conditions": [24, 1600, "v", 12000], "trial": 7, "serialpos": 6, "trial_type": "single-stim", "trial_index": 259, "time_elapsed": 1378264, "internal_node_id": "0.0-187.0"}}, {"uniqueid": "MTK1241:3DL65MZB8EMN1MVMTLR3CLOA5VZECD", "current_trial": 260, "dateTime": 1513468382637, "trialdata": {"rt": -1, "stimulus": "<p id=\"stim\">FLAG</p>", "key_press": -1, "type": "PRES_VIS", "word": "flag", "wordID": 572, "conditions": [24, 1600, "v", 12000], "trial": 7, "serialpos": 7, "trial_type": "single-stim", "trial_index": 260, "time_elapsed": 1380772, "internal_node_id": "0.0-188.0"}}, {"uniqueid": "MTK1241:3DL65MZB8EMN1MVMTLR3CLOA5VZECD", "current_trial": 261, "dateTime": 1513468385124, "trialdata": {"rt": -1, "stimulus": "<p id=\"stim\">PLAID</p>", "key_press": -1, "type": "PRES_VIS", "word": "plaid", "wordID": 1079, "conditions": [24, 1600, "v", 12000], "trial": 7, "serialpos": 8, "trial_type": "single-stim", "trial_index": 261, "time_elapsed": 1383259, "internal_node_id": "0.0-189.0"}}, {"uniqueid": "MTK1241:3DL65MZB8EMN1MVMTLR3CLOA5VZECD", "current_trial": 262, "dateTime": 1513468387624, "trialdata": {"rt": -1, "stimulus": "<p id=\"stim\">CATTLE</p>", "key_press": -1, "type": "PRES_VIS", "word": "cattle", "wordID": 260, "conditions": [24, 1600, "v", 12000], "trial": 7, "serialpos": 9, "trial_type": "single-stim", "trial_index": 262, "time_elapsed": 1385759, "internal_node_id": "0.0-190.0"}}, {"uniqueid": "MTK1241:3DL65MZB8EMN1MVMTLR3CLOA5VZECD", "current_trial": 263, "dateTime": 1513468390242, "trialdata": {"rt": -1, "stimulus": "<p id=\"stim\">BISON</p>", "key_press": -1, "type": "PRES_VIS", "word": "bison", "wordID": 130, "conditions": [24, 1600, "v", 12000], "trial": 7, "serialpos": 10, "trial_type": "single-stim", "trial_index": 263, "time_elapsed": 1388377, "internal_node_id": "0.0-191.0"}}, {"uniqueid": "MTK1241:3DL65MZB8EMN1MVMTLR3CLOA5VZECD", "current_trial": 264, "dateTime": 1513468392763, "trialdata": {"rt": -1, "stimulus": "<p id=\"stim\">MATTRESS</p>", "key_press": -1, "type": "PRES_VIS", "word": "mattress", "wordID": 878, "conditions": [24, 1600, "v", 12000], "trial": 7, "serialpos": 11, "trial_type": "single-stim", "trial_index": 264, "time_elapsed": 1390898, "internal_node_id": "0.0-192.0"}}, {"uniqueid": "MTK1241:3DL65MZB8EMN1MVMTLR3CLOA5VZECD", "current_trial": 265, "dateTime": 1513468395557, "trialdata": {"rt": -1, "stimulus": "<p id=\"stim\">TREAT</p>", "key_press": -1, "type": "PRES_VIS", "word": "treat", "wordID": 1500, "conditions": [24, 1600, "v", 12000], "trial": 7, "serialpos": 12, "trial_type": "single-stim", "trial_index": 265, "time_elapsed": 1393691, "internal_node_id": "0.0-193.0"}}, {"uniqueid": "MTK1241:3DL65MZB8EMN1MVMTLR3CLOA5VZECD", "current_trial": 266, "dateTime": 1513468398057, "trialdata": {"rt": -1, "stimulus": "<p id=\"stim\">GARLIC</p>", "key_press": -1, "type": "PRES_VIS", "word": "garlic", "wordID": 623, "conditions": [24, 1600, "v", 12000], "trial": 7, "serialpos": 13, "trial_type": "single-stim", "trial_index": 266, "time_elapsed": 1396191, "internal_node_id": "0.0-194.0"}}, {"uniqueid": "MTK1241:3DL65MZB8EMN1MVMTLR3CLOA5VZECD", "current_trial": 267, "dateTime": 1513468400461, "trialdata": {"rt": -1, "stimulus": "<p id=\"stim\">BLADE</p>", "key_press": -1, "type": "PRES_VIS", "word": "blade", "wordID": 133, "conditions": [24, 1600, "v", 12000], "trial": 7, "serialpos": 14, "trial_type": "single-stim", "trial_index": 267, "time_elapsed": 1398596, "internal_node_id": "0.0-195.0"}}, {"uniqueid": "MTK1241:3DL65MZB8EMN1MVMTLR3CLOA5VZECD", "current_trial": 268, "dateTime": 1513468402936, "trialdata": {"rt": -1, "stimulus": "<p id=\"stim\">HANDBAG</p>", "key_press": -1, "type": "PRES_VIS", "word": "handbag", "wordID": 683, "conditions": [24, 1600, "v", 12000], "trial": 7, "serialpos": 15, "trial_type": "single-stim", "trial_index": 268, "time_elapsed": 1401071, "internal_node_id": "0.0-196.0"}}, {"uniqueid": "MTK1241:3DL65MZB8EMN1MVMTLR3CLOA5VZECD", "current_trial": 269, "dateTime": 1513468405548, "trialdata": {"rt": -1, "stimulus": "<p id=\"stim\">SUITCASE</p>", "key_press": -1, "type": "PRES_VIS", "word": "suitcase", "wordID": 1402, "conditions": [24, 1600, "v", 12000], "trial": 7, "serialpos": 16, "trial_type": "single-stim", "trial_index": 269, "time_elapsed": 1403683, "internal_node_id": "0.0-197.0"}}, {"uniqueid": "MTK1241:3DL65MZB8EMN1MVMTLR3CLOA5VZECD", "current_trial": 270, "dateTime": 1513468408288, "trialdata": {"rt": -1, "stimulus": "<p id=\"stim\">SIBLING</p>", "key_press": -1, "type": "PRES_VIS", "word": "sibling", "wordID": 1300, "conditions": [24, 1600, "v", 12000], "trial": 7, "serialpos": 17, "trial_type": "single-stim", "trial_index": 270, "time_el