{"condition": 0, "counterbalance": 2436, "assignmentId": "374TNBHA8C2P1SMWY44S3T57RHJYQL", "workerId": "MTK1161", "hitId": "36MUZ9VAE69VJU363FHC77A8BCIDER", "currenttrial": 626, "bonus": 0, "data": [{"uniqueid": "MTK1161:374TNBHA8C2P1SMWY44S3T57RHJYQL", "current_trial": 0, "dateTime": 1513264741011, "trialdata": {"rt": 103689, "key_press": 68, "type": "INSTRUCTIONS", "trial_type": "text", "trial_index": 0, "time_elapsed": 103693, "internal_node_id": "0.0-0.0"}}, {"uniqueid": "MTK1161:374TNBHA8C2P1SMWY44S3T57RHJYQL", "current_trial": 1, "dateTime": 1513264762920, "trialdata": {"rt": 21907, "key_press": 76, "type": "INSTRUCTIONS", "trial_type": "text", "trial_index": 1, "time_elapsed": 125603, "internal_node_id": "0.0-1.0"}}, {"uniqueid": "MTK1161:374TNBHA8C2P1SMWY44S3T57RHJYQL", "current_trial": 2, "dateTime": 1513264772678, "trialdata": {"rt": [9740], "responses": ["ocean"], "type": "AUDIO_TEST", "trial_type": "audio-test", "trial_index": 2, "time_elapsed": 135361, "internal_node_id": "0.0-2.0"}}, {"uniqueid": "MTK1161:374TNBHA8C2P1SMWY44S3T57RHJYQL", "current_trial": 3, "dateTime": 1513264778083, "trialdata": {"rt": [5401], "responses": ["crystal"], "type": "AUDIO_TEST", "trial_type": "audio-test", "trial_index": 3, "time_elapsed": 140766, "internal_node_id": "0.0-3.0"}}, {"uniqueid": "MTK1161:374TNBHA8C2P1SMWY44S3T57RHJYQL", "current_trial": 4, "dateTime": 1513264802322, "trialdata": {"rt": [24236], "responses": ["spice"], "type": "AUDIO_TEST", "trial_type": "audio-test", "trial_index": 4, "time_elapsed": 165004, "internal_node_id": "0.0-4.0"}}, {"uniqueid": "MTK1161:374TNBHA8C2P1SMWY44S3T57RHJYQL", "current_trial": 5, "dateTime": 1513264816574, "trialdata": {"rt": 13497, "responses": "{\"Q0\":\"11pm\",\"Q1\":\"8am\",\"Q2\":\"5\"}", "type": "SLEEP_SURVEY", "trial_type": "survey-text", "trial_index": 5, "time_elapsed": 179257, "internal_node_id": "0.0-5.0"}}, {"uniqueid": "MTK1161:374TNBHA8C2P1SMWY44S3T57RHJYQL", "current_trial": 6, "dateTime": 1513264853550, "trialdata": {"rt": 35974, "key_press": 32, "type": "INSTRUCTIONS", "trial_type": "text", "trial_index": 6, "time_elapsed": 216233, "internal_node_id": "0.0-6.0"}}, {"uniqueid": "MTK1161:374TNBHA8C2P1SMWY44S3T57RHJYQL", "current_trial": 7, "dateTime": 1513264862609, "trialdata": {"rt": 8557, "key_press": 32, "type": "INSTRUCTIONS", "trial_type": "text", "trial_index": 7, "time_elapsed": 225292, "internal_node_id": "0.0-7.0"}}, {"uniqueid": "MTK1161:374TNBHA8C2P1SMWY44S3T57RHJYQL", "current_trial": 8, "dateTime": 1513264869225, "trialdata": {"rt": 6113, "key_press": 32, "type": "INSTRUCTIONS", "trial_type": "text", "trial_index": 8, "time_elapsed": 231908, "internal_node_id": "0.0-8.0"}}, {"uniqueid": "MTK1161:374TNBHA8C2P1SMWY44S3T57RHJYQL", "current_trial": 9, "dateTime": 1513264888232, "trialdata": {"rt": [4124, 7544, 11974, 17293], "responses": ["19", "10", "19", "14"], "num1": [6, 1, 8, 3, 1], "num2": [4, 3, 6, 2, 2], "num3": [9, 6, 5, 9, 6], "type": "DISTRACTOR", "conditions": [18, 1200, "v", 18000], "trial": 0, "trial_type": "math-distractor", "trial_index": 9, "time_elapsed": 250915, "internal_node_id": "0.0-9.0"}}, {"uniqueid": "MTK1161:374TNBHA8C2P1SMWY44S3T57RHJYQL", "current_trial": 10, "dateTime": 1513264891239, "trialdata": {"rt": -1, "stimulus": "<p id=\"stim\">10</p>", "key_press": -1, "trial_type": "single-stim", "trial_index": 10, "time_elapsed": 253921, "internal_node_id": "0.0-10.0-0.0"}}, {"uniqueid": "MTK1161:374TNBHA8C2P1SMWY44S3T57RHJYQL", "current_trial": 11, "dateTime": 1513264892242, "trialdata": {"rt": -1, "stimulus": "<p id=\"stim\">9</p>", "key_press": -1, "trial_type": "single-stim", "trial_index": 11, "time_elapsed": 254925, "internal_node_id": "0.0-10.0-1.0"}}, {"uniqueid": "MTK1161:374TNBHA8C2P1SMWY44S3T57RHJYQL", "current_trial": 12, "dateTime": 1513264893245, "trialdata": {"rt": -1, "stimulus": "<p id=\"stim\">8</p>", "key_press": -1, "trial_type": "single-stim", "trial_index": 12, "time_elapsed": 255928, "internal_node_id": "0.0-10.0-2.0"}}, {"uniqueid": "MTK1161:374TNBHA8C2P1SMWY44S3T57RHJYQL", "current_trial": 13, "dateTime": 1513264894249, "trialdata": {"rt": -1, "stimulus": "<p id=\"stim\">7</p>", "key_press": -1, "trial_type": "single-stim", "trial_index": 13, "time_elapsed": 256931, "internal_node_id": "0.0-10.0-3.0"}}, {"uniqueid": "MTK1161:374TNBHA8C2P1SMWY44S3T57RHJYQL", "current_trial": 14, "dateTime": 1513264895252, "trialdata": {"rt": -1, "stimulus": "<p id=\"stim\">6</p>", "key_press": -1, "trial_type": "single-stim", "trial_index": 14, "time_elapsed": 257934, "internal_node_id": "0.0-10.0-4.0"}}, {"uniqueid": "MTK1161:374TNBHA8C2P1SMWY44S3T57RHJYQL", "current_trial": 15, "dateTime": 1513264896254, "trialdata": {"rt": -1, "stimulus": "<p id=\"stim\">5</p>", "key_press": -1, "trial_type": "single-stim", "trial_index": 15, "time_elapsed": 258937, "internal_node_id": "0.0-10.0-5.0"}}, {"uniqueid": "MTK1161:374TNBHA8C2P1SMWY44S3T57RHJYQL", "current_trial": 16, "dateTime": 1513264897257, "trialdata": {"rt": -1, "stimulus": "<p id=\"stim\">4</p>", "key_press": -1, "trial_type": "single-stim", "trial_index": 16, "time_elapsed": 259940, "internal_node_id": "0.0-10.0-6.0"}}, {"uniqueid": "MTK1161:374TNBHA8C2P1SMWY44S3T57RHJYQL", "current_trial": 17, "dateTime": 1513264898259, "trialdata": {"rt": -1, "stimulus": "<p id=\"stim\">3</p>", "key_press": -1, "trial_type": "single-stim", "trial_index": 17, "time_elapsed": 260941, "internal_node_id": "0.0-10.0-7.0"}}, {"uniqueid": "MTK1161:374TNBHA8C2P1SMWY44S3T57RHJYQL", "current_trial": 18, "dateTime": 1513264899261, "trialdata": {"rt": -1, "stimulus": "<p id=\"stim\">2</p>", "key_press": -1, "trial_type": "single-stim", "trial_index": 18, "time_elapsed": 261944, "internal_node_id": "0.0-10.0-8.0"}}, {"uniqueid": "MTK1161:374TNBHA8C2P1SMWY44S3T57RHJYQL", "current_trial": 19, "dateTime": 1513264900263, "trialdata": {"rt": -1, "stimulus": "<p id=\"stim\">1</p>", "key_press": -1, "trial_type": "single-stim", "trial_index": 19, "time_elapsed": 262946, "internal_node_id": "0.0-10.0-9.0"}}, {"uniqueid": "MTK1161:374TNBHA8C2P1SMWY44S3T57RHJYQL", "current_trial": 20, "dateTime": 1513264901767, "trialdata": {"rt": -1, "stimulus": "<p id=\"stim\">+</p>", "key_press": -1, "type": "FIXATION", "trial_type": "single-stim", "trial_index": 20, "time_elapsed": 264449, "internal_node_id": "0.0-11.0-0.0"}}, {"uniqueid": "MTK1161:374TNBHA8C2P1SMWY44S3T57RHJYQL", "current_trial": 21, "dateTime": 1513264902968, "trialdata": {"rt": -1, "stimulus": "<p id=\"stim\">KLEENEX</p>", "key_press": -1, "type": "PRES_VIS", "word": "kleenex", "wordID": 781, "conditions": [18, 1200, "v", 18000], "trial": 0, "serialpos": 0, "trial_type": "single-stim", "trial_index": 21, "time_elapsed": 265651, "internal_node_id": "0.0-12.0"}}, {"uniqueid": "MTK1161:374TNBHA8C2P1SMWY44S3T57RHJYQL", "current_trial": 22, "dateTime": 1513264905240, "trialdata": {"rt": -1, "stimulus": "<p id=\"stim\">TILE</p>", "key_press": -1, "type": "PRES_VIS", "word": "tile", "wordID": 1467, "conditions": [18, 1200, "v", 18000], "trial": 0, "serialpos": 1, "trial_type": "single-stim", "trial_index": 22, "time_elapsed": 267922, "internal_node_id": "0.0-13.0"}}, {"uniqueid": "MTK1161:374TNBHA8C2P1SMWY44S3T57RHJYQL", "current_trial": 23, "dateTime": 1513264907546, "trialdata": {"rt": -1, "stimulus": "<p id=\"stim\">FUNGUS</p>", "key_press": -1, "type": "PRES_VIS", "word": "fungus", "wordID": 613, "conditions": [18, 1200, "v", 18000], "trial": 0, "serialpos": 2, "trial_type": "single-stim", "trial_index": 23, "time_elapsed": 270228, "internal_node_id": "0.0-14.0"}}, {"uniqueid": "MTK1161:374TNBHA8C2P1SMWY44S3T57RHJYQL", "current_trial": 24, "dateTime": 1513264909636, "trialdata": {"rt": -1, "stimulus": "<p id=\"stim\">POSTAGE</p>", "key_press": -1, "type": "PRES_VIS", "word": "postage", "wordID": 1112, "conditions": [18, 1200, "v", 18000], "trial": 0, "serialpos": 3, "trial_type": "single-stim", "trial_index": 24, "time_elapsed": 272319, "internal_node_id": "0.0-15.0"}}, {"uniqueid": "MTK1161:374TNBHA8C2P1SMWY44S3T57RHJYQL", "current_trial": 25, "dateTime": 1513264911684, "trialdata": {"rt": -1, "stimulus": "<p id=\"stim\">SHOULDER</p>", "key_press": -1, "type": "PRES_VIS", "word": "shoulder", "wordID": 1293, "conditions": [18, 1200, "v", 18000], "trial": 0, "serialpos": 4, "trial_type": "single-stim", "trial_index": 25, "time_elapsed": 274366, "internal_node_id": "0.0-16.0"}}, {"uniqueid": "MTK1161:374TNBHA8C2P1SMWY44S3T57RHJYQL", "current_trial": 26, "dateTime": 1513264914013, "trialdata": {"rt": -1, "stimulus": "<p id=\"stim\">SOFTBALL</p>", "key_press": -1, "type": "PRES_VIS", "word": "softball", "wordID": 1342, "conditions": [18, 1200, "v", 18000], "trial": 0, "serialpos": 5, "trial_type": "single-stim", "trial_index": 26, "time_elapsed": 276696, "internal_node_id": "0.0-17.0"}}, {"uniqueid": "MTK1161:374TNBHA8C2P1SMWY44S3T57RHJYQL", "current_trial": 27, "dateTime": 1513264916240, "trialdata": {"rt": -1, "stimulus": "<p id=\"stim\">SCISSORS</p>", "key_press": -1, "type": "PRES_VIS", "word": "scissors", "wordID": 1249, "conditions": [18, 1200, "v", 18000], "trial": 0, "serialpos": 6, "trial_type": "single-stim", "trial_index": 27, "time_elapsed": 278923, "internal_node_id": "0.0-18.0"}}, {"uniqueid": "MTK1161:374TNBHA8C2P1SMWY44S3T57RHJYQL", "current_trial": 28, "dateTime": 1513264918601, "trialdata": {"rt": -1, "stimulus": "<p id=\"stim\">BOYFRIEND</p>", "key_press": -1, "type": "PRES_VIS", "word": "boyfriend", "wordID": 161, "conditions": [18, 1200, "v", 18000], "trial": 0, "serialpos": 7, "trial_type": "single-stim", "trial_index": 28, "time_elapsed": 281283, "internal_node_id": "0.0-19.0"}}, {"uniqueid": "MTK1161:374TNBHA8C2P1SMWY44S3T57RHJYQL", "current_trial": 29, "dateTime": 1513264920944, "trialdata": {"rt": -1, "stimulus": "<p id=\"stim\">KNIFE</p>", "key_press": -1, "type": "PRES_VIS", "word": "knife", "wordID": 784, "conditions": [18, 1200, "v", 18000], "trial": 0, "serialpos": 8, "trial_type": "single-stim", "trial_index": 29, "time_elapsed": 283627, "internal_node_id": "0.0-20.0"}}, {"uniqueid": "MTK1161:374TNBHA8C2P1SMWY44S3T57RHJYQL", "current_trial": 30, "dateTime": 1513264923295, "trialdata": {"rt": -1, "stimulus": "<p id=\"stim\">NIGHTGOWN</p>", "key_press": -1, "type": "PRES_VIS", "word": "nightgown", "wordID": 952, "conditions": [18, 1200, "v", 18000], "trial": 0, "serialpos": 9, "trial_type": "single-stim", "trial_index": 30, "time_elapsed": 285978, "internal_node_id": "0.0-21.0"}}, {"uniqueid": "MTK1161:374TNBHA8C2P1SMWY44S3T57RHJYQL", "current_trial": 31, "dateTime": 1513264925495, "trialdata": {"rt": -1, "stimulus": "<p id=\"stim\">BROOK</p>", "key_press": -1, "type": "PRES_VIS", "word": "brook", "wordID": 176, "conditions": [18, 1200, "v", 18000], "trial": 0, "serialpos": 10, "trial_type": "single-stim", "trial_index": 31, "time_elapsed": 288177, "internal_node_id": "0.0-22.0"}}, {"uniqueid": "MTK1161:374TNBHA8C2P1SMWY44S3T57RHJYQL", "current_trial": 32, "dateTime": 1513264927612, "trialdata": {"rt": -1, "stimulus": "<p id=\"stim\">SUSPECT</p>", "key_press": -1, "type": "PRES_VIS", "word": "suspect", "wordID": 1414, "conditions": [18, 1200, "v", 18000], "trial": 0, "serialpos": 11, "trial_type": "single-stim", "trial_index": 32, "time_elapsed": 290294, "internal_node_id": "0.0-23.0"}}, {"uniqueid": "MTK1161:374TNBHA8C2P1SMWY44S3T57RHJYQL", "current_trial": 33, "dateTime": 1513264929793, "trialdata": {"rt": -1, "stimulus": "<p id=\"stim\">JELLY</p>", "key_press": -1, "type": "PRES_VIS", "word": "jelly", "wordID": 754, "conditions": [18, 1200, "v", 18000], "trial": 0, "serialpos": 12, "trial_type": "single-stim", "trial_index": 33, "time_elapsed": 292476, "internal_node_id": "0.0-24.0"}}, {"uniqueid": "MTK1161:374TNBHA8C2P1SMWY44S3T57RHJYQL", "current_trial": 34, "dateTime": 1513264932167, "trialdata": {"rt": -1, "stimulus": "<p id=\"stim\">AWARD</p>", "key_press": -1, "type": "PRES_VIS", "word": "award", "wordID": 62, "conditions": [18, 1200, "v", 18000], "trial": 0, "serialpos": 13, "trial_type": "single-stim", "trial_index": 34, "time_elapsed": 294850, "internal_node_id": "0.0-25.0"}}, {"uniqueid": "MTK1161:374TNBHA8C2P1SMWY44S3T57RHJYQL", "current_trial": 35, "dateTime": 1513264934469, "trialdata": {"rt": -1, "stimulus": "<p id=\"stim\">STUDENT</p>", "key_press": -1, "type": "PRES_VIS", "word": "student", "wordID": 1394, "conditions": [18, 1200, "v", 18000], "trial": 0, "serialpos": 14, "trial_type": "single-stim", "trial_index": 35, "time_elapsed": 297152, "internal_node_id": "0.0-26.0"}}, {"uniqueid": "MTK1161:374TNBHA8C2P1SMWY44S3T57RHJYQL", "current_trial": 36, "dateTime": 1513264936505, "trialdata": {"rt": -1, "stimulus": "<p id=\"stim\">FRANCE</p>", "key_press": -1, "type": "PRES_VIS", "word": "france", "wordID": 600, "conditions": [18, 1200, "v", 18000], "trial": 0, "serialpos": 15, "trial_type": "single-stim", "trial_index": 36, "time_elapsed": 299188, "internal_node_id": "0.0-27.0"}}, {"uniqueid": "MTK1161:374TNBHA8C2P1SMWY44S3T57RHJYQL", "current_trial": 37, "dateTime": 1513264938733, "trialdata": {"rt": -1, "stimulus": "<p id=\"stim\">FRAGRANCE</p>", "key_press": -1, "type": "PRES_VIS", "word": "fragrance", "wordID": 598, "conditions": [18, 1200, "v", 18000], "trial": 0, "serialpos": 16, "trial_type": "single-stim", "trial_index": 37, "time_elapsed": 301416, "internal_node_id": "0.0-28.0"}}, {"uniqueid": "MTK1161:374TNBHA8C2P1SMWY44S3T57RHJYQL", "current_trial": 38, "dateTime": 1513264940995, "trialdata": {"rt": -1, "stimulus": "<p id=\"stim\">HAND</p>", "key_press": -1, "type": "PRES_VIS", "word": "hand", "wordID": 682, "conditions": [18, 1200, "v", 18000], "trial": 0, "serialpos": 17, "trial_type": "single-stim", "trial_index": 38, "time_elapsed": 303677, "internal_node_id": "0.0-29.0"}}, {"uniqueid": "MTK1161:374TNBHA8C2P1SMWY44S3T57RHJYQL", "current_trial": 39, "dateTime": 1513264943203, "trialdata": {"rt": -1, "stimulus": "", "key_press": -1, "type": "PRE_RECALL_DELAY", "trial_type": "single-stim", "trial_index": 39, "time_elapsed": 305886, "internal_node_id": "0.0-30.0-0.0"}}, {"uniqueid": "MTK1161:374TNBHA8C2P1SMWY44S3T57RHJYQL", "current_trial": 40, "dateTime": 1513264943708, "trialdata": {"rt": -1000, "stimulus": "/static/audio/400Hz.wav", "key_press": -1, "type": "PRE_RECALL_ALERT", "trial_type": "single-audio", "trial_index": 40, "time_elapsed": 306391, "internal_node_id": "0.0-31.0"}}, {"uniqueid": "MTK1161:374TNBHA8C2P1SMWY44S3T57RHJYQL", "current_trial": 41, "dateTime": 1513265003714, "trialdata": {"rt": [2335, 3553, 5945, 7563, 9044, 10460, 12781, 15250, 16837, 21725, 26691, 28851], "recwords": ["kleenex", "knife", "towel", "suspect", "student", "knife", "brook", "jelly", "france", "fragrance", "boyfriend", ""], "type": "FREE_RECALL", "conditions": [18, 1200, "v", 18000], "trial": 0, "trial_type": "free-recall", "trial_index": 41, "time_elapsed": 366395, "internal_node_id": "0.0-32.0-0.0"}}, {"uniqueid": "MTK1161:374TNBHA8C2P1SMWY44S3T57RHJYQL", "current_trial": 42, "dateTime": 1513265010045, "trialdata": {"rt": 4326, "key_press": 75, "type": "INSTRUCTIONS", "trial_type": "text", "trial_index": 42, "time_elapsed": 372728, "internal_node_id": "0.0-33.0"}}, {"uniqueid": "MTK1161:374TNBHA8C2P1SMWY44S3T57RHJYQL", "current_trial": 43, "dateTime": 1513265030070, "trialdata": {"rt": [3883, 6177, 8440, 11687, 13451, 16987], "responses": ["14", "10", "13", "12", "11", "12"], "num1": [6, 4, 6, 8, 3, 2, 4], "num2": [2, 5, 3, 3, 3, 4, 4], "num3": [6, 1, 4, 1, 5, 6, 6], "type": "DISTRACTOR", "conditions": [18, 1200, "a", 18000], "trial": 1, "trial_type": "math-distractor", "trial_index": 43, "time_elapsed": 392753, "internal_node_id": "0.0-34.0"}}, {"uniqueid": "MTK1161:374TNBHA8C2P1SMWY44S3T57RHJYQL", "current_trial": 44, "dateTime": 1513265033074, "trialdata": {"rt": -1, "stimulus": "<p id=\"stim\">10</p>", "key_press": -1, "trial_type": "single-stim", "trial_index": 44, "time_elapsed": 395757, "internal_node_id": "0.0-35.0-0.0"}}, {"uniqueid": "MTK1161:374TNBHA8C2P1SMWY44S3T57RHJYQL", "current_trial": 45, "dateTime": 1513265034075, "trialdata": {"rt": -1, "stimulus": "<p id=\"stim\">9</p>", "key_press": -1, "trial_type": "single-stim", "trial_index": 45, "time_elapsed": 396758, "internal_node_id": "0.0-35.0-1.0"}}, {"uniqueid": "MTK1161:374TNBHA8C2P1SMWY44S3T57RHJYQL", "current_trial": 46, "dateTime": 1513265035079, "trialdata": {"rt": -1, "stimulus": "<p id=\"stim\">8</p>", "key_press": -1, "trial_type": "single-stim", "trial_index": 46, "time_elapsed": 397762, "internal_node_id": "0.0-35.0-2.0"}}, {"uniqueid": "MTK1161:374TNBHA8C2P1SMWY44S3T57RHJYQL", "current_trial": 47, "dateTime": 1513265036082, "trialdata": {"rt": -1, "stimulus": "<p id=\"stim\">7</p>", "key_press": -1, "trial_type": "single-stim", "trial_index": 47, "time_elapsed": 398765, "internal_node_id": "0.0-35.0-3.0"}}, {"uniqueid": "MTK1161:374TNBHA8C2P1SMWY44S3T57RHJYQL", "current_trial": 48, "dateTime": 1513265037086, "trialdata": {"rt": -1, "stimulus": "<p id=\"stim\">6</p>", "key_press": -1, "trial_type": "single-stim", "trial_index": 48, "time_elapsed": 399769, "internal_node_id": "0.0-35.0-4.0"}}, {"uniqueid": "MTK1161:374TNBHA8C2P1SMWY44S3T57RHJYQL", "current_trial": 49, "dateTime": 1513265038088, "trialdata": {"rt": -1, "stimulus": "<p id=\"stim\">5</p>", "key_press": -1, "trial_type": "single-stim", "trial_index": 49, "time_elapsed": 400770, "internal_node_id": "0.0-35.0-5.0"}}, {"uniqueid": "MTK1161:374TNBHA8C2P1SMWY44S3T57RHJYQL", "current_trial": 50, "dateTime": 1513265039090, "trialdata": {"rt": -1, "stimulus": "<p id=\"stim\">4</p>", "key_press": -1, "trial_type": "single-stim", "trial_index": 50, "time_elapsed": 401773, "internal_node_id": "0.0-35.0-6.0"}}, {"uniqueid": "MTK1161:374TNBHA8C2P1SMWY44S3T57RHJYQL", "current_trial": 51, "dateTime": 1513265040093, "trialdata": {"rt": -1, "stimulus": "<p id=\"stim\">3</p>", "key_press": -1, "trial_type": "single-stim", "trial_index": 51, "time_elapsed": 402776, "internal_node_id": "0.0-35.0-7.0"}}, {"uniqueid": "MTK1161:374TNBHA8C2P1SMWY44S3T57RHJYQL", "current_trial": 52, "dateTime": 1513265041095, "trialdata": {"rt": -1, "stimulus": "<p id=\"stim\">2</p>", "key_press": -1, "trial_type": "single-stim", "trial_index": 52, "time_elapsed": 403778, "internal_node_id": "0.0-35.0-8.0"}}, {"uniqueid": "MTK1161:374TNBHA8C2P1SMWY44S3T57RHJYQL", "current_trial": 53, "dateTime": 1513265042101, "trialdata": {"rt": -1, "stimulus": "<p id=\"stim\">1</p>", "key_press": -1, "trial_type": "single-stim", "trial_index": 53, "time_elapsed": 404783, "internal_node_id": "0.0-35.0-9.0"}}, {"uniqueid": "MTK1161:374TNBHA8C2P1SMWY44S3T57RHJYQL", "current_trial": 54, "dateTime": 1513265043604, "trialdata": {"rt": -1, "stimulus": "<p id=\"stim\">+</p>", "key_press": -1, "type": "FIXATION", "trial_type": "single-stim", "trial_index": 54, "time_elapsed": 406287, "internal_node_id": "0.0-36.0-0.0"}}, {"uniqueid": "MTK1161:374TNBHA8C2P1SMWY44S3T57RHJYQL", "current_trial": 55, "dateTime": 1513265045948, "trialdata": {"rt": -1000, "stimulus": "/static/audio/wordpool/HANDBAG.wav", "key_press": -1, "type": "PRES_AUD", "word": "handbag", "wordID": 683, "conditions": [18, 1200, "a", 18000], "trial": 1, "serialpos": 0, "trial_type": "single-audio", "trial_index": 55, "time_elapsed": 408631, "internal_node_id": "0.0-37.0"}}, {"uniqueid": "MTK1161:374TNBHA8C2P1SMWY44S3T57RHJYQL", "current_trial": 56, "dateTime": 1513265048163, "trialdata": {"rt": -1000, "stimulus": "/static/audio/wordpool/MAMMAL.wav", "key_press": -1, "type": "PRES_AUD", "word": "mammal", "wordID": 860, "conditions": [18, 1200, "a", 18000], "trial": 1, "serialpos": 1, "trial_type": "single-audio", "trial_index": 56, "time_elapsed": 410845, "internal_node_id": "0.0-38.0"}}, {"uniqueid": "MTK1161:374TNBHA8C2P1SMWY44S3T57RHJYQL", "current_trial": 57, "dateTime": 1513265050515, "trialdata": {"rt": -1000, "stimulus": "/static/audio/wordpool/GANGSTER.wav", "key_press": -1, "type": "PRES_AUD", "word": "gangster", "wordID": 619, "conditions": [18, 1200, "a", 18000], "trial": 1, "serialpos": 2, "trial_type": "single-audio", "trial_index": 57, "time_elapsed": 413198, "internal_node_id": "0.0-39.0"}}, {"uniqueid": "MTK1161:374TNBHA8C2P1SMWY44S3T57RHJYQL", "current_trial": 58, "dateTime": 1513265052669, "trialdata": {"rt": -1000, "stimulus": "/static/audio/wordpool/YARN.wav", "key_press": -1, "type": "PRES_AUD", "word": "yarn", "wordID": 1630, "conditions": [18, 1200, "a", 18000], "trial": 1, "serialpos": 3, "trial_type": "single-audio", "trial_index": 58, "time_elapsed": 415352, "internal_node_id": "0.0-40.0"}}, {"uniqueid": "MTK1161:374TNBHA8C2P1SMWY44S3T57RHJYQL", "current_trial": 59, "dateTime": 1513265054879, "trialdata": {"rt": -1000, "stimulus": "/static/audio/wordpool/STOMACH.wav", "key_press": -1, "type": "PRES_AUD", "word": "stomach", "wordID": 1383, "conditions": [18, 1200, "a", 18000], "trial": 1, "serialpos": 4, "trial_type": "single-audio", "trial_index": 59, "time_elapsed": 417562, "internal_node_id": "0.0-41.0"}}, {"uniqueid": "MTK1161:374TNBHA8C2P1SMWY44S3T57RHJYQL", "current_trial": 60, "dateTime": 1513265057045, "trialdata": {"rt": -1000, "stimulus": "/static/audio/wordpool/LAMP.wav", "key_press": -1, "type": "PRES_AUD", "word": "lamp", "wordID": 797, "conditions": [18, 1200, "a", 18000], "trial": 1, "serialpos": 5, "trial_type": "single-audio", "trial_index": 60, "time_elapsed": 419728, "internal_node_id": "0.0-42.0"}}, {"uniqueid": "MTK1161:374TNBHA8C2P1SMWY44S3T57RHJYQL", "current_trial": 61, "dateTime": 1513265059125, "trialdata": {"rt": -1000, "stimulus": "/static/audio/wordpool/NECKLACE.wav", "key_press": -1, "type": "PRES_AUD", "word": "necklace", "wordID": 939, "conditions": [18, 1200, "a", 18000], "trial": 1, "serialpos": 6, "trial_type": "single-audio", "trial_index": 61, "time_elapsed": 421808, "internal_node_id": "0.0-43.0"}}, {"uniqueid": "MTK1161:374TNBHA8C2P1SMWY44S3T57RHJYQL", "current_trial": 62, "dateTime": 1513265061412, "trialdata": {"rt": -1000, "stimulus": "/static/audio/wordpool/DINER.wav", "key_press": -1, "type": "PRES_AUD", "word": "diner", "wordID": 466, "conditions": [18, 1200, "a", 18000], "trial": 1, "serialpos": 7, "trial_type": "single-audio", "trial_index": 62, "time_elapsed": 424095, "internal_node_id": "0.0-44.0"}}, {"uniqueid": "MTK1161:374TNBHA8C2P1SMWY44S3T57RHJYQL", "current_trial": 63, "dateTime": 1513265063616, "trialdata": {"rt": -1000, "stimulus": "/static/audio/wordpool/HONEY.wav", "key_press": -1, "type": "PRES_AUD", "word": "honey", "wordID": 712, "conditions": [18, 1200, "a", 18000], "trial": 1, "serialpos": 8, "trial_type": "single-audio", "trial_index": 63, "time_elapsed": 426298, "internal_node_id": "0.0-45.0"}}, {"uniqueid": "MTK1161:374TNBHA8C2P1SMWY44S3T57RHJYQL", "current_trial": 64, "dateTime": 1513265065941, "trialdata": {"rt": -1000, "stimulus": "/static/audio/wordpool/BIKE.wav", "key_press": -1, "type": "PRES_AUD", "word": "bike", "wordID": 124, "conditions": [18, 1200, "a", 18000], "trial": 1, "serialpos": 9, "trial_type": "single-audio", "trial_index": 64, "time_elapsed": 428624, "internal_node_id": "0.0-46.0"}}, {"uniqueid": "MTK1161:374TNBHA8C2P1SMWY44S3T57RHJYQL", "current_trial": 65, "dateTime": 1513265068193, "trialdata": {"rt": -1000, "stimulus": "/static/audio/wordpool/TART.wav", "key_press": -1, "type": "PRES_AUD", "word": "tart", "wordID": 1435, "conditions": [18, 1200, "a", 18000], "trial": 1, "serialpos": 10, "trial_type": "single-audio", "trial_index": 65, "time_elapsed": 430876, "internal_node_id": "0.0-47.0"}}, {"uniqueid": "MTK1161:374TNBHA8C2P1SMWY44S3T57RHJYQL", "current_trial": 66, "dateTime": 1513265070465, "trialdata": {"rt": -1000, "stimulus": "/static/audio/wordpool/POISON.wav", "key_press": -1, "type": "PRES_AUD", "word": "poison", "wordID": 1095, "conditions": [18, 1200, "a", 18000], "trial": 1, "serialpos": 11, "trial_type": "single-audio", "trial_index": 66, "time_elapsed": 433148, "internal_node_id": "0.0-48.0"}}, {"uniqueid": "MTK1161:374TNBHA8C2P1SMWY44S3T57RHJYQL", "current_trial": 67, "dateTime": 1513265072710, "trialdata": {"rt": -1000, "stimulus": "/static/audio/wordpool/PLIERS.wav", "key_press": -1, "type": "PRES_AUD", "word": "pliers", "wordID": 1088, "conditions": [18, 1200, "a", 18000], "trial": 1, "serialpos": 12, "trial_type": "single-audio", "trial_index": 67, "time_elapsed": 435393, "internal_node_id": "0.0-49.0"}}, {"uniqueid": "MTK1161:374TNBHA8C2P1SMWY44S3T57RHJYQL", "current_trial": 68, "dateTime": 1513265074967, "trialdata": {"rt": -1000, "stimulus": "/static/audio/wordpool/FOREHEAD.wav", "key_press": -1, "type": "PRES_AUD", "word": "forehead", "wordID": 591, "conditions": [18, 1200, "a", 18000], "trial": 1, "serialpos": 13, "trial_type": "single-audio", "trial_index": 68, "time_elapsed": 437648, "internal_node_id": "0.0-50.0"}}, {"uniqueid": "MTK1161:374TNBHA8C2P1SMWY44S3T57RHJYQL", "current_trial": 69, "dateTime": 1513265077274, "trialdata": {"rt": -1000, "stimulus": "/static/audio/wordpool/SHERIFF.wav", "key_press": -1, "type": "PRES_AUD", "word": "sheriff", "wordID": 1283, "conditions": [18, 1200, "a", 18000], "trial": 1, "serialpos": 14, "trial_type": "single-audio", "trial_index": 69, "time_elapsed": 439957, "internal_node_id": "0.0-51.0"}}, {"uniqueid": "MTK1161:374TNBHA8C2P1SMWY44S3T57RHJYQL", "current_trial": 70, "dateTime": 1513265079665, "trialdata": {"rt": -1000, "stimulus": "/static/audio/wordpool/OZONE.wav", "key_press": -1, "type": "PRES_AUD", "word": "ozone", "wordID": 995, "conditions": [18, 1200, "a", 18000], "trial": 1, "serialpos": 15, "trial_type": "single-audio", "trial_index": 70, "time_elapsed": 442348, "internal_node_id": "0.0-52.0"}}, {"uniqueid": "MTK1161:374TNBHA8C2P1SMWY44S3T57RHJYQL", "current_trial": 71, "dateTime": 1513265081937, "trialdata": {"rt": -1000, "stimulus": "/static/audio/wordpool/MISSILE.wav", "key_press": -1, "type": "PRES_AUD", "word": "missile", "wordID": 899, "conditions": [18, 1200, "a", 18000], "trial": 1, "serialpos": 16, "trial_type": "single-audio", "trial_index": 71, "time_elapsed": 444620, "internal_node_id": "0.0-53.0"}}, {"uniqueid": "MTK1161:374TNBHA8C2P1SMWY44S3T57RHJYQL", "current_trial": 72, "dateTime": 1513265084307, "trialdata": {"rt": -1000, "stimulus": "/static/audio/wordpool/ARM.wav", "key_press": -1, "type": "PRES_AUD", "word": "arm", "wordID": 37, "conditions": [18, 1200, "a", 18000], "trial": 1, "serialpos": 17, "trial_type": "single-audio", "trial_index": 72, "time_elapsed": 446990, "internal_node_id": "0.0-54.0"}}, {"uniqueid": "MTK1161:374TNBHA8C2P1SMWY44S3T57RHJYQL", "current_trial": 73, "dateTime": 1513265085516, "trialdata": {"rt": -1, "stimulus": "", "key_press": -1, "type": "PRE_RECALL_DELAY", "trial_type": "single-stim", "trial_index": 73, "time_elapsed": 448199, "internal_node_id": "0.0-55.0-0.0"}}, {"uniqueid": "MTK1161:374TNBHA8C2P1SMWY44S3T57RHJYQL", "current_trial": 74, "dateTime": 1513265086019, "trialdata": {"rt": -1000, "stimulus": "/static/audio/400Hz.wav", "key_press": -1, "type": "PRE_RECALL_ALERT", "trial_type": "single-audio", "trial_index": 74, "time_elapsed": 448702, "internal_node_id": "0.0-56.0"}}, {"uniqueid": "MTK1161:374TNBHA8C2P1SMWY44S3T57RHJYQL", "current_trial": 75, "dateTime": 1513265146030, "trialdata": {"rt": [5648, 7131, 8485, 11580, 13099, 14753, 16880, 20676, 29818], "recwords": ["honey", "diner", "stomach", "necklace", "missile", "arm", "sheriff", "badger", "pliars"], "type": "FREE_RECALL", "conditions": [18, 1200, "a", 18000], "trial": 1, "trial_type": "free-recall", "trial_index": 75, "time_elapsed": 508707, "internal_node_id": "0.0-57.0-0.0"}}, {"uniqueid": "MTK1161:374TNBHA8C2P1SMWY44S3T57RHJYQL", "current_trial": 76, "dateTime": 1513265149420, "trialdata": {"rt": 1382, "key_press": 75, "type": "INSTRUCTIONS", "trial_type": "text", "trial_index": 76, "time_elapsed": 512097, "internal_node_id": "0.0-58.0"}}, {"uniqueid": "MTK1161:374TNBHA8C2P1SMWY44S3T57RHJYQL", "current_trial": 77, "dateTime": 1513265174427, "trialdata": {"rt": [3731, 6147, 9390, 11390, 14054, 16337, 18274, 19764, 21996], "responses": ["17", "18", "16", "14", "17", "16", "13", "11", "16"], "num1": [3, 2, 6, 1, 9, 9, 5, 4, 7, 9], "num2": [9, 9, 7, 6, 4, 2, 3, 6, 7, 5], "num3": [5, 7, 3, 7, 4, 5, 5, 1, 2, 2], "type": "DISTRACTOR", "conditions": [12, 800, "v", 24000], "trial": 2, "trial_type": "math-distractor", "trial_index": 77, "time_elapsed": 537110, "internal_node_id": "0.0-59.0"}}, {"uniqueid": "MTK1161:374TNBHA8C2P1SMWY44S3T57RHJYQL", "current_trial": 78, "dateTime": 1513265177430, "trialdata": {"rt": -1, "stimulus": "<p id=\"stim\">10</p>", "key_press": -1, "trial_type": "single-stim", "trial_index": 78, "time_elapsed": 540113, "internal_node_id": "0.0-60.0-0.0"}}, {"uniqueid": "MTK1161:374TNBHA8C2P1SMWY44S3T57RHJYQL", "current_trial": 79, "dateTime": 1513265178432, "trialdata": {"rt": -1, "stimulus": "<p id=\"stim\">9</p>", "key_press": -1, "trial_type": "single-stim", "trial_index": 79, "time_elapsed": 541115, "internal_node_id": "0.0-60.0-1.0"}}, {"uniqueid": "MTK1161:374TNBHA8C2P1SMWY44S3T57RHJYQL", "current_trial": 80, "dateTime": 1513265179434, "trialdata": {"rt": -1, "stimulus": "<p id=\"stim\">8</p>", "key_press": -1, "trial_type": "single-stim", "trial_index": 80, "time_elapsed": 542117, "internal_node_id": "0.0-60.0-2.0"}}, {"uniqueid": "MTK1161:374TNBHA8C2P1SMWY44S3T57RHJYQL", "current_trial": 81, "dateTime": 1513265180437, "trialdata": {"rt": -1, "stimulus": "<p id=\"stim\">7</p>", "key_press": -1, "trial_type": "single-stim", "trial_index": 81, "time_elapsed": 543120, "internal_node_id": "0.0-60.0-3.0"}}, {"uniqueid": "MTK1161:374TNBHA8C2P1SMWY44S3T57RHJYQL", "current_trial": 82, "dateTime": 1513265181440, "trialdata": {"rt": -1, "stimulus": "<p id=\"stim\">6</p>", "key_press": -1, "trial_type": "single-stim", "trial_index": 82, "time_elapsed": 544123, "internal_node_id": "0.0-60.0-4.0"}}, {"uniqueid": "MTK1161:374TNBHA8C2P1SMWY44S3T57RHJYQL", "current_trial": 83, "dateTime": 1513265182442, "trialdata": {"rt": -1, "stimulus": "<p id=\"stim\">5</p>", "key_press": -1, "trial_type": "single-stim", "trial_index": 83, "time_elapsed": 545125, "internal_node_id": "0.0-60.0-5.0"}}, {"uniqueid": "MTK1161:374TNBHA8C2P1SMWY44S3T57RHJYQL", "current_trial": 84, "dateTime": 1513265183445, "trialdata": {"rt": -1, "stimulus": "<p id=\"stim\">4</p>", "key_press": -1, "trial_type": "single-stim", "trial_index": 84, "time_elapsed": 546127, "internal_node_id": "0.0-60.0-6.0"}}, {"uniqueid": "MTK1161:374TNBHA8C2P1SMWY44S3T57RHJYQL", "current_trial": 85, "dateTime": 1513265184446, "trialdata": {"rt": -1, "stimulus": "<p id=\"stim\">3</p>", "key_press": -1, "trial_type": "single-stim", "trial_index": 85, "time_elapsed": 547129, "internal_node_id": "0.0-60.0-7.0"}}, {"uniqueid": "MTK1161:374TNBHA8C2P1SMWY44S3T57RHJYQL", "current_trial": 86, "dateTime": 1513265185450, "trialdata": {"rt": -1, "stimulus": "<p id=\"stim\">2</p>", "key_press": -1, "trial_type": "single-stim", "trial_index": 86, "time_elapsed": 548132, "internal_node_id": "0.0-60.0-8.0"}}, {"uniqueid": "MTK1161:374TNBHA8C2P1SMWY44S3T57RHJYQL", "current_trial": 87, "dateTime": 1513265186451, "trialdata": {"rt": -1, "stimulus": "<p id=\"stim\">1</p>", "key_press": -1, "trial_type": "single-stim", "trial_index": 87, "time_elapsed": 549134, "internal_node_id": "0.0-60.0-9.0"}}, {"uniqueid": "MTK1161:374TNBHA8C2P1SMWY44S3T57RHJYQL", "current_trial": 88, "dateTime": 1513265187954, "trialdata": {"rt": -1, "stimulus": "<p id=\"stim\">+</p>", "key_press": -1, "type": "FIXATION", "trial_type": "single-stim", "trial_index": 88, "time_elapsed": 550637, "internal_node_id": "0.0-61.0-0.0"}}, {"uniqueid": "MTK1161:374TNBHA8C2P1SMWY44S3T57RHJYQL", "current_trial": 89, "dateTime": 1513265188756, "trialdata": {"rt": -1, "stimulus": "<p id=\"stim\">BRANCH</p>", "key_press": -1, "type": "PRES_VIS", "word": "branch", "wordID": 167, "conditions": [12, 800, "v", 24000], "trial": 2, "serialpos": 0, "trial_type": "single-stim", "trial_index": 89, "time_elapsed": 551439, "internal_node_id": "0.0-62.0"}}, {"uniqueid": "MTK1161:374TNBHA8C2P1SMWY44S3T57RHJYQL", "current_trial": 90, "dateTime": 1513265190544, "trialdata": {"rt": -1, "stimulus": "<p id=\"stim\">PIZZA</p>", "key_press": -1, "type": "PRES_VIS", "word": "pizza", "wordID": 1078, "conditions": [12, 800, "v", 24000], "trial": 2, "serialpos": 1, "trial_type": "single-stim", "trial_index": 90, "time_elapsed": 553227, "internal_node_id": "0.0-63.0"}}, {"uniqueid": "MTK1161:374TNBHA8C2P1SMWY44S3T57RHJYQL", "current_trial": 91, "dateTime": 1513265192290, "trialdata": {"rt": -1, "stimulus": "<p id=\"stim\">PEANUT</p>", "key_press": -1, "type": "PRES_VIS", "word": "peanut", "wordID": 1031, "conditions": [12, 800, "v", 24000], "trial": 2, "serialpos": 2, "trial_type": "single-stim", "trial_index": 91, "time_elapsed": 554973, "internal_node_id": "0.0-64.0"}}, {"uniqueid": "MTK1161:374TNBHA8C2P1SMWY44S3T57RHJYQL", "current_trial": 92, "dateTime": 1513265194094, "trialdata": {"rt": -1, "stimulus": "<p id=\"stim\">COCKTAIL</p>", "key_press": -1, "type": "PRES_VIS", "word": "cocktail", "wordID": 337, "conditions": [12, 800, "v", 24000], "trial": 2, "serialpos": 3, "trial_type": "single-stim", "trial_index": 92, "time_elapsed": 556777, "internal_node_id": "0.0-65.0"}}, {"uniqueid": "MTK1161:374TNBHA8C2P1SMWY44S3T57RHJYQL", "current_trial": 93, "dateTime": 1513265195719, "trialdata": {"rt": -1, "stimulus": "<p id=\"stim\">FIREMAN</p>", "key_press": -1, "type": "PRES_VIS", "word": "fireman", "wordID": 568, "conditions": [12, 800, "v", 24000], "trial": 2, "serialpos": 4, "trial_type": "single-stim", "trial_index": 93, "time_elapsed": 558402, "internal_node_id": "0.0-66.0"}}, {"uniqueid": "MTK1161:374TNBHA8C2P1SMWY44S3T57RHJYQL", "current_trial": 94, "dateTime": 1513265197579, "trialdata": {"rt": -1, "stimulus": "<p id=\"stim\">OYSTER</p>", "key_press": -1, "type": "PRES_VIS", "word": "oyster", "wordID": 994, "conditions": [12, 800, "v", 24000], "trial": 2, "serialpos": 5, "trial_type": "single-stim", "trial_index": 94, "time_elapsed": 560262, "internal_node_id": "0.0-67.0"}}, {"uniqueid": "MTK1161:374TNBHA8C2P1SMWY44S3T57RHJYQL", "current_trial": 95, "dateTime": 1513265199380, "trialdata": {"rt": -1, "stimulus": "<p id=\"stim\">SEAFOOD</p>", "key_press": -1, "type": "PRES_VIS", "word": "seafood", "wordID": 1259, "conditions": [12, 800, "v", 24000], "trial": 2, "serialpos": 6, "trial_type": "single-stim", "trial_index": 95, "time_elapsed": 562062, "internal_node_id": "0.0-68.0"}}, {"uniqueid": "MTK1161:374TNBHA8C2P1SMWY44S3T57RHJYQL", "current_trial": 96, "dateTime": 1513265201318, "trialdata": {"rt": -1, "stimulus": "<p id=\"stim\">BANK</p>", "key_press": -1, "type": "PRES_VIS", "word": "bank", "wordID": 82, "conditions": [12, 800, "v", 24000], "trial": 2, "serialpos": 7, "trial_type": "single-stim", "trial_index": 96, "time_elapsed": 564001, "internal_node_id": "0.0-69.0"}}, {"uniqueid": "MTK1161:374TNBHA8C2P1SMWY44S3T57RHJYQL", "current_trial": 97, "dateTime": 1513265203098, "trialdata": {"rt": -1, "stimulus": "<p id=\"stim\">HAWK</p>", "key_press": -1, "type": "PRES_VIS", "word": "hawk", "wordID": 691, "conditions": [12, 800, "v", 24000], "trial": 2, "serialpos": 8, "trial_type": "single-stim", "trial_index": 97, "time_elapsed": 565781, "internal_node_id": "0.0-70.0"}}, {"uniqueid": "MTK1161:374TNBHA8C2P1SMWY44S3T57RHJYQL", "current_trial": 98, "dateTime": 1513265204826, "trialdata": {"rt": -1, "stimulus": "<p id=\"stim\">BLENDER</p>", "key_press": -1, "type": "PRES_VIS", "word": "blender", "wordID": 135, "conditions": [12, 800, "v", 24000], "trial": 2, "serialpos": 9, "trial_type": "single-stim", "trial_index": 98, "time_elapsed": 567509, "internal_node_id": "0.0-71.0"}}, {"uniqueid": "MTK1161:374TNBHA8C2P1SMWY44S3T57RHJYQL", "current_trial": 99, "dateTime": 1513265206566, "trialdata": {"rt": -1, "stimulus": "<p id=\"stim\">SKILLET</p>", "key_press": -1, "type": "PRES_VIS", "word": "skillet", "wordID": 1316, "conditions": [12, 800, "v", 24000], "trial": 2, "serialpos": 10, "trial_type": "single-stim", "trial_index": 99, "time_elapsed": 569249, "internal_node_id": "0.0-72.0"}}, {"uniqueid": "MTK1161:374TNBHA8C2P1SMWY44S3T57RHJYQL", "current_trial": 100, "dateTime": 1513265208241, "trialdata": {"rt": -1, "stimulus": "<p id=\"stim\">GIFT</p>", "key_press": -1, "type": "PRES_VIS", "word": "gift", "wordID": 634, "conditions": [12, 800, "v", 24000], "trial": 2, "serialpos": 11, "trial_type": "single-stim", "trial_index": 100, "time_elapsed": 570924, "internal_node_id": "0.0-73.0"}}, {"uniqueid": "MTK1161:374TNBHA8C2P1SMWY44S3T57RHJYQL", "current_trial": 101, "dateTime": 1513265210517, "trialdata": {"rt": -1, "stimulus": "", "key_press": -1, "type": "PRE_RECALL_DELAY", "trial_type": "single-stim", "trial_index": 101, "time_elapsed": 573199, "internal_node_id": "0.0-74.0-0.0"}}, {"uniqueid": "MTK1161:374TNBHA8C2P1SMWY44S3T57RHJYQL", "current_trial": 102, "dateTime": 1513265211019, "trialdata": {"rt": -1000, "stimulus": "/static/audio/400Hz.wav", "key_press": -1, "type": "PRE_RECALL_ALERT", "trial_type": "single-audio", "trial_index": 102, "time_elapsed": 573702, "internal_node_id": "0.0-75.0"}}, {"uniqueid": "MTK1161:374TNBHA8C2P1SMWY44S3T57RHJYQL", "current_trial": 103, "dateTime": 1513265271027, "trialdata": {"rt": [2132, 3175, 4151, 6056, 7261, 9160, 10457, 13124, 14982], "recwords": ["branch", "bank", "oyster", "seafood", "skillet", "fireman", "bank", "hawk", "blender"], "type": "FREE_RECALL", "conditions": [12, 800, "v", 24000], "trial": 2, "trial_type": "free-recall", "trial_index": 103, "time_elapsed": 633707, "internal_node_id": "0.0-76.0-0.0"}}, {"uniqueid": "MTK1161:374TNBHA8C2P1SMWY44S3T57RHJYQL", "current_trial": 104, "dateTime": 1513265277854, "trialdata": {"rt": 4825, "key_press": 75, "type": "INSTRUCTIONS", "trial_type": "text", "trial_index": 104, "time_elapsed": 640537, "internal_node_id": "0.0-77.0"}}, {"uniqueid": "MTK1161:374TNBHA8C2P1SMWY44S3T57RHJYQL", "current_trial": 105, "dateTime": 1513265291859, "trialdata": {"rt": [3116, 6437, 8249, 9834], "responses": ["17", "16", "11", "14"], "num1": [7, 1, 8, 5, 8], "num2": [1, 8, 1, 5, 4], "num3": [9, 6, 2, 4, 4], "type": "DISTRACTOR", "conditions": [12, 1600, "v", 12000], "trial": 3, "trial_type": "math-distractor", "trial_index": 105, "time_elapsed": 654542, "internal_node_id": "0.0-78.0"}}, {"uniqueid": "MTK1161:374TNBHA8C2P1SMWY44S3T57RHJYQL", "current_trial": 106, "dateTime": 1513265294861, "trialdata": {"rt": -1, "stimulus": "<p id=\"stim\">10</p>", "key_press": -1, "trial_type": "single-stim", "trial_index": 106, "time_elapsed": 657544, "internal_node_id": "0.0-79.0-0.0"}}, {"uniqueid": "MTK1161:374TNBHA8C2P1SMWY44S3T57RHJYQL", "current_trial": 107, "dateTime": 1513265295865, "trialdata": {"rt": -1, "stimulus": "<p id=\"stim\">9</p>", "key_press": -1, "trial_type": "single-stim", "trial_index": 107, "time_elapsed": 658548, "internal_node_id": "0.0-79.0-1.0"}}, {"uniqueid": "MTK1161:374TNBHA8C2P1SMWY44S3T57RHJYQL", "current_trial": 108, "dateTime": 1513265296868, "trialdata": {"rt": -1, "stimulus": "<p id=\"stim\">8</p>", "key_press": -1, "trial_type": "single-stim", "trial_index": 108, "time_elapsed": 659550, "internal_node_id": "0.0-79.0-2.0"}}, {"uniqueid": "MTK1161:374TNBHA8C2P1SMWY44S3T57RHJYQL", "current_trial": 109, "dateTime": 1513265297869, "trialdata": {"rt": -1, "stimulus": "<p id=\"stim\">7</p>", "key_press": -1, "trial_type": "single-stim", "trial_index": 109, "time_elapsed": 660552, "internal_node_id": "0.0-79.0-3.0"}}, {"uniqueid": "MTK1161:374TNBHA8C2P1SMWY44S3T57RHJYQL", "current_trial": 110, "dateTime": 1513265298871, "trialdata": {"rt": -1, "stimulus": "<p id=\"stim\">6</p>", "key_press": -1, "trial_type": "single-stim", "trial_index": 110, "time_elapsed": 661554, "internal_node_id": "0.0-79.0-4.0"}}, {"uniqueid": "MTK1161:374TNBHA8C2P1SMWY44S3T57RHJYQL", "current_trial": 111, "dateTime": 1513265299874, "trialdata": {"rt": -1, "stimulus": "<p id=\"stim\">5</p>", "key_press": -1, "trial_type": "single-stim", "trial_index": 111, "time_elapsed": 662557, "internal_node_id": "0.0-79.0-5.0"}}, {"uniqueid": "MTK1161:374TNBHA8C2P1SMWY44S3T57RHJYQL", "current_trial": 112, "dateTime": 1513265300875, "trialdata": {"rt": -1, "stimulus": "<p id=\"stim\">4</p>", "key_press": -1, "trial_type": "single-stim", "trial_index": 112, "time_elapsed": 663558, "internal_node_id": "0.0-79.0-6.0"}}, {"uniqueid": "MTK1161:374TNBHA8C2P1SMWY44S3T57RHJYQL", "current_trial": 113, "dateTime": 1513265301877, "trialdata": {"rt": -1, "stimulus": "<p id=\"stim\">3</p>", "key_press": -1, "trial_type": "single-stim", "trial_index": 113, "time_elapsed": 664560, "internal_node_id": "0.0-79.0-7.0"}}, {"uniqueid": "MTK1161:374TNBHA8C2P1SMWY44S3T57RHJYQL", "current_trial": 114, "dateTime": 1513265302878, "trialdata": {"rt": -1, "stimulus": "<p id=\"stim\">2</p>", "key_press": -1, "trial_type": "single-stim", "trial_index": 114, "time_elapsed": 665561, "internal_node_id": "0.0-79.0-8.0"}}, {"uniqueid": "MTK1161:374TNBHA8C2P1SMWY44S3T57RHJYQL", "current_trial": 115, "dateTime": 1513265303880, "trialdata": {"rt": -1, "stimulus": "<p id=\"stim\">1</p>", "key_press": -1, "trial_type": "single-stim", "trial_index": 115, "time_elapsed": 666563, "internal_node_id": "0.0-79.0-9.0"}}, {"uniqueid": "MTK1161:374TNBHA8C2P1SMWY44S3T57RHJYQL", "current_trial": 116, "dateTime": 1513265305382, "trialdata": {"rt": -1, "stimulus": "<p id=\"stim\">+</p>", "key_press": -1, "type": "FIXATION", "trial_type": "single-stim", "trial_index": 116, "time_elapsed": 668065, "internal_node_id": "0.0-80.0-0.0"}}, {"uniqueid": "MTK1161:374TNBHA8C2P1SMWY44S3T57RHJYQL", "current_trial": 117, "dateTime": 1513265306984, "trialdata": {"rt": -1, "stimulus": "<p id=\"stim\">LEADER</p>", "key_press": -1, "type": "PRES_VIS", "word": "leader", "wordID": 806, "conditions": [12, 1600, "v", 12000], "trial": 3, "serialpos": 0, "trial_type": "single-stim", "trial_index": 117, "time_elapsed": 669667, "internal_node_id": "0.0-81.0"}}, {"uniqueid": "MTK1161:374TNBHA8C2P1SMWY44S3T57RHJYQL", "current_trial": 118, "dateTime": 1513265309439, "trialdata": {"rt": -1, "stimulus": "<p id=\"stim\">BALLOON</p>", "key_press": -1, "type": "PRES_VIS", "word": "balloon", "wordID": 74, "conditions": [12, 1600, "v", 12000], "trial": 3, "serialpos": 1, "trial_type": "single-stim", "trial_index": 118, "time_elapsed": 672122, "internal_node_id": "0.0-82.0"}}, {"uniqueid": "MTK1161:374TNBHA8C2P1SMWY44S3T57RHJYQL", "current_trial": 119, "dateTime": 1513265311997, "trialdata": {"rt": -1, "stimulus": "<p id=\"stim\">COUCH</p>", "key_press": -1, "type": "PRES_VIS", "word": "couch", "wordID": 385, "conditions": [12, 1600, "v", 12000], "trial": 3, "serialpos": 2, "trial_type": "single-stim", "trial_index": 119, "time_elapsed": 674680, "internal_node_id": "0.0-83.0"}}, {"uniqueid": "MTK1161:374TNBHA8C2P1SMWY44S3T57RHJYQL", "current_trial": 120, "dateTime": 1513265314654, "trialdata": {"rt": -1, "stimulus": "<p id=\"stim\">SWAMP</p>", "key_press": -1, "type": "PRES_VIS", "word": "swamp", "wordID": 1415, "conditions": [12, 1600, "v", 12000], "trial": 3, "serialpos": 3, "trial_type": "single-stim", "trial_index": 120, "time_elapsed": 677337, "internal_node_id": "0.0-84.0"}}, {"uniqueid": "MTK1161:374TNBHA8C2P1SMWY44S3T57RHJYQL", "current_trial": 121, "dateTime": 1513265317082, "trialdata": {"rt": -1, "stimulus": "<p id=\"stim\">BARREL</p>", "key_press": -1, "type": "PRES_VIS", "word": "barrel", "wordID": 90, "conditions": [12, 1600, "v", 12000], "trial": 3, "serialpos": 4, "trial_type": "single-stim", "trial_index": 121, "time_elapsed": 679765, "internal_node_id": "0.0-85.0"}}, {"uniqueid": "MTK1161:374TNBHA8C2P1SMWY44S3T57RHJYQL", "current_trial": 122, "dateTime": 1513265319520, "trialdata": {"rt": -1, "stimulus": "<p id=\"stim\">LOVER</p>", "key_press": -1, "type": "PRES_VIS", "word": "lover", "wordID": 845, "conditions": [12, 1600, "v", 12000], "trial": 3, "serialpos": 5, "trial_type": "single-stim", "trial_index": 122, "time_elapsed": 682202, "internal_node_id": "0.0-86.0"}}, {"uniqueid": "MTK1161:374TNBHA8C2P1SMWY44S3T57RHJYQL", "current_trial": 123, "dateTime": 1513265322250, "trialdata": {"rt": -1, "stimulus": "<p id=\"stim\">ORANGE</p>", "key_press": -1, "type": "PRES_VIS", "word": "orange", "wordID": 979, "conditions": [12, 1600, "v", 12000], "trial": 3, "serialpos": 6, "trial_type": "single-stim", "trial_index": 123, "time_elapsed": 684933, "internal_node_id": "0.0-87.0"}}, {"uniqueid": "MTK1161:374TNBHA8C2P1SMWY44S3T57RHJYQL", "current_trial": 124, "dateTime": 1513265324964, "trialdata": {"rt": -1, "stimulus": "<p id=\"stim\">PASTRY</p>", "key_press": -1, "type": "PRES_VIS", "word": "pastry", "wordID": 1021, "conditions": [12, 1600, "v", 12000], "trial": 3, "serialpos": 7, "trial_type": "single-stim", "trial_index": 124, "time_elapsed": 687647, "internal_node_id": "0.0-88.0"}}, {"uniqueid": "MTK1161:374TNBHA8C2P1SMWY44S3T57RHJYQL", "current_trial": 125, "dateTime": 1513265327699, "trialdata": {"rt": -1, "stimulus": "<p id=\"stim\">SHORTCAKE</p>", "key_press": -1, "type": "PRES_VIS", "word": "shortcake", "wordID": 1291, "conditions": [12, 1600, "v", 12000], "trial": 3, "serialpos": 8, "trial_type": "single-stim", "trial_index": 125, "time_elapsed": 690382, "internal_node_id": "0.0-89.0"}}, {"uniqueid": "MTK1161:374TNBHA8C2P1SMWY44S3T57RHJYQL", "current_trial": 126, "dateTime": 1513265330419, "trialdata": {"rt": -1, "stimulus": "<p id=\"stim\">GALLON</p>", "key_press": -1, "type": "PRES_VIS", "word": "gallon", "wordID": 617, "conditions": [12, 1600, "v", 12000], "trial": 3, "serialpos": 9, "trial_type": "single-stim", "trial_index": 126, "time_elapsed": 693102, "internal_node_id": "0.0-90.0"}}, {"uniqueid": "MTK1161:374TNBHA8C2P1SMWY44S3T57RHJYQL", "current_trial": 127, "dateTime": 1513265333155, "trialdata": {"rt": -1, "stimulus": "<p id=\"stim\">LILY</p>", "key_press": -1, "type": "PRES_VIS", "word": "lily", "wordID": 820, "conditions": [12, 1600, "v", 12000], "trial": 3, "serialpos": 10, "trial_type": "single-stim", "trial_index": 127, "time_elapsed": 695838, "internal_node_id": "0.0-91.0"}}, {"uniqueid": "MTK1161:374TNBHA8C2P1SMWY44S3T57RHJYQL", "current_trial": 128, "dateTime": 1513265335906, "trialdata": {"rt": -1, "stimulus": "<p id=\"stim\">LAKE</p>", "key_press": -1, "type": "PRES_VIS", "word": "lake", "wordID": 795, "conditions": [12, 1600, "v", 12000], "trial": 3, "serialpos": 11, "trial_type": "single-stim", "trial_index": 128, "time_elapsed": 698588, "internal_node_id": "0.0-92.0"}}, {"uniqueid": "MTK1161:374TNBHA8C2P1SMWY44S3T57RHJYQL", "current_trial": 129, "dateTime": 1513265338441, "trialdata": {"rt": -1, "stimulus": "", "key_press": -1, "type": "PRE_RECALL_DELAY", "trial_type": "single-stim", "trial_index": 129, "time_elapsed": 701124, "internal_node_id": "0.0-93.0-0.0"}}, {"uniqueid": "MTK1161:374TNBHA8C2P1SMWY44S3T57RHJYQL", "current_trial": 130, "dateTime": 1513265338942, "trialdata": {"rt": -1000, "stimulus": "/static/audio/400Hz.wav", "key_press": -1, "type": "PRE_RECALL_ALERT", "trial_type": "single-audio", "trial_index": 130, "time_elapsed": 701625, "internal_node_id": "0.0-94.0"}}, {"uniqueid": "MTK1161:374TNBHA8C2P1SMWY44S3T57RHJYQL", "current_trial": 131, "dateTime": 1513265398949, "trialdata": {"rt": [1533, 3155, 4329, 6195, 7637, 8667, 12841, 14986, 16425, 18054, 21034], "recwords": ["leader", "balloon", "couch", "swamp", "barrell", "lover", "galloon", "lilly", "lake", "orange", "pastry"], "type": "FREE_RECALL", "conditions": [12, 1600, "v", 12000], "trial": 3, "trial_type": "free-recall", "trial_index": 131, "time_elapsed": 761629, "internal_node_id": "0.0-95.0-0.0"}}, {"uniqueid": "MTK1161:374TNBHA8C2P1SMWY44S3T57RHJYQL", "current_trial": 132, "dateTime": 1513265404442, "trialdata": {"rt": 3490, "key_press": 75, "type": "INSTRUCTIONS", "trial_type": "text", "trial_index": 132, "time_elapsed": 767125, "internal_node_id": "0.0-96.0"}}, {"uniqueid": "MTK1161:374TNBHA8C2P1SMWY44S3T57RHJYQL", "current_trial": 133, "dateTime": 1513265430446, "trialdata": {"rt": [2696, 4484, 6552, 8272, 10079, 12740, 15975, 18965, 21757], "responses": ["16", "11", "18", "12", "14", "10", "18", "10", "22"], "num1": [4, 4, 9, 1, 5, 3, 4, 4, 9, 3], "num2": [8, 5, 4, 2, 8, 6, 9, 3, 5, 3], "num3": [4, 2, 5, 9, 1, 1, 5, 3, 8, 6], "type": "DISTRACTOR", "conditions": [24, 800, "v", 24000], "trial": 4, "trial_type": "math-distractor", "trial_index": 133, "time_elapsed": 793129, "internal_node_id": "0.0-97.0"}}, {"uniqueid": "MTK1161:374TNBHA8C2P1SMWY44S3T57RHJYQL", "current_trial": 134, "dateTime": 1513265433448, "trialdata": {"rt": -1, "stimulus": "<p id=\"stim\">10</p>", "key_press": -1, "trial_type": "single-stim", "trial_index": 134, "time_elapsed": 796131, "internal_node_id": "0.0-98.0-0.0"}}, {"uniqueid": "MTK1161:374TNBHA8C2P1SMWY44S3T57RHJYQL", "current_trial": 135, "dateTime": 1513265434450, "trialdata": {"rt": -1, "stimulus": "<p id=\"stim\">9</p>", "key_press": -1, "trial_type": "single-stim", "trial_index": 135, "time_elapsed": 797133, "internal_node_id": "0.0-98.0-1.0"}}, {"uniqueid": "MTK1161:374TNBHA8C2P1SMWY44S3T57RHJYQL", "current_trial": 136, "dateTime": 1513265435452, "trialdata": {"rt": -1, "stimulus": "<p id=\"stim\">8</p>", "key_press": -1, "trial_type": "single-stim", "trial_index": 136, "time_elapsed": 798134, "internal_node_id": "0.0-98.0-2.0"}}, {"uniqueid": "MTK1161:374TNBHA8C2P1SMWY44S3T57RHJYQL", "current_trial": 137, "dateTime": 1513265436453, "trialdata": {"rt": -1, "stimulus": "<p id=\"stim\">7</p>", "key_press": -1, "trial_type": "single-stim", "trial_index": 137, "time_elapsed": 799136, "internal_node_id": "0.0-98.0-3.0"}}, {"uniqueid": "MTK1161:374TNBHA8C2P1SMWY44S3T57RHJYQL", "current_trial": 138, "dateTime": 1513265437456, "trialdata": {"rt": -1, "stimulus": "<p id=\"stim\">6</p>", "key_press": -1, "trial_type": "single-stim", "trial_index": 138, "time_elapsed": 800139, "internal_node_id": "0.0-98.0-4.0"}}, {"uniqueid": "MTK1161:374TNBHA8C2P1SMWY44S3T57RHJYQL", "current_trial": 139, "dateTime": 1513265438458, "trialdata": {"rt": -1, "stimulus": "<p id=\"stim\">5</p>", "key_press": -1, "trial_type": "single-stim", "trial_index": 139, "time_elapsed": 801140, "internal_node_id": "0.0-98.0-5.0"}}, {"uniqueid": "MTK1161:374TNBHA8C2P1SMWY44S3T57RHJYQL", "current_trial": 140, "dateTime": 1513265439461, "trialdata": {"rt": -1, "stimulus": "<p id=\"stim\">4</p>", "key_press": -1, "trial_type": "single-stim", "trial_index": 140, "time_elapsed": 802143, "internal_node_id": "0.0-98.0-6.0"}}, {"uniqueid": "MTK1161:374TNBHA8C2P1SMWY44S3T57RHJYQL", "current_trial": 141, "dateTime": 1513265440463, "trialdata": {"rt": -1, "stimulus": "<p id=\"stim\">3</p>", "key_press": -1, "trial_type": "single-stim", "trial_index": 141, "time_elapsed": 803146, "internal_node_id": "0.0-98.0-7.0"}}, {"uniqueid": "MTK1161:374TNBHA8C2P1SMWY44S3T57RHJYQL", "current_trial": 142, "dateTime": 1513265441465, "trialdata": {"rt": -1, "stimulus": "<p id=\"stim\">2</p>", "key_press": -1, "trial_type": "single-stim", "trial_index": 142, "time_elapsed": 804148, "internal_node_id": "0.0-98.0-8.0"}}, {"uniqueid": "MTK1161:374TNBHA8C2P1SMWY44S3T57RHJYQL", "current_trial": 143, "dateTime": 1513265442466, "trialdata": {"rt": -1, "stimulus": "<p id=\"stim\">1</p>", "key_press": -1, "trial_type": "single-stim", "trial_index": 143, "time_elapsed": 805149, "internal_node_id": "0.0-98.0-9.0"}}, {"uniqueid": "MTK1161:374TNBHA8C2P1SMWY44S3T57RHJYQL", "current_trial": 144, "dateTime": 1513265443968, "trialdata": {"rt": -1, "stimulus": "<p id=\"stim\">+</p>", "key_press": -1, "type": "FIXATION", "trial_type": "single-stim", "trial_index": 144, "time_elapsed": 806651, "internal_node_id": "0.0-99.0-0.0"}}, {"uniqueid": "MTK1161:374TNBHA8C2P1SMWY44S3T57RHJYQL", "current_trial": 145, "dateTime": 1513265444770, "trialdata": {"rt": -1, "stimulus": "<p id=\"stim\">TOASTER</p>", "key_press": -1, "type": "PRES_VIS", "word": "toaster", "wordID": 1471, "conditions": [24, 800, "v", 24000], "trial": 4, "serialpos": 0, "trial_type": "single-stim", "trial_index": 145, "time_elapsed": 807453, "internal_node_id": "0.0-100.0"}}, {"uniqueid": "MTK1161:374TNBHA8C2P1SMWY44S3T57RHJYQL", "current_trial": 146, "dateTime": 1513265446462, "trialdata": {"rt": -1, "stimulus": "<p id=\"stim\">SCOTCH</p>", "key_press": -1, "type": "PRES_VIS", "word": "scotch", "wordID": 1250, "conditions": [24, 800, "v", 24000], "trial": 4, "serialpos": 1, "trial_type": "single-stim", "trial_index": 146, "time_elapsed": 809144, "internal_node_id": "0.0-101.0"}}, {"uniqueid": "MTK1161:374TNBHA8C2P1SMWY44S3T57RHJYQL", "current_trial": 147, "dateTime": 1513265448366, "trialdata": {"rt": -1, "stimulus": "<p id=\"stim\">RELISH</p>", "key_press": -1, "type": "PRES_VIS", "word": "relish", "wordID": 1182, "conditions": [24, 800, "v", 24000], "trial": 4, "serialpos": 2, "trial_type": "single-stim", "trial_index": 147, "time_elapsed": 811049, "internal_node_id": "0.0-102.0"}}, {"uniqueid": "MTK1161:374TNBHA8C2P1SMWY44S3T57RHJYQL", "current_trial": 148, "dateTime": 1513265450198, "trialdata": {"rt": -1, "stimulus": "<p id=\"stim\">PENGUIN</p>", "key_press": -1, "type": "PRES_VIS", "word": "penguin", "wordID": 1043, "conditions": [24, 800, "v", 24000], "trial": 4, "serialpos": 3, "trial_type": "single-stim", "trial_index": 148, "time_elapsed": 812881, "internal_node_id": "0.0-103.0"}}, {"uniqueid": "MTK1161:374TNBHA8C2P1SMWY44S3T57RHJYQL", "current_trial": 149, "dateTime": 1513265451890, "trialdata": {"rt": -1, "stimulus": "<p id=\"stim\">PIMPLE</p>", "key_press": -1, "type": "PRES_VIS", "word": "pimple", "wordID": 1070, "conditions": [24, 800, "v", 24000], "trial": 4, "serialpos": 4, "trial_type": "single-stim", "trial_index": 149, "time_elapsed": 814573, "internal_node_id": "0.0-104.0"}}, {"uniqueid": "MTK1161:374TNBHA8C2P1SMWY44S3T57RHJYQL", "current_trial": 150, "dateTime": 1513265453735, "trialdata": {"rt": -1, "stimulus": "<p id=\"stim\">LUNCH</p>", "key_press": -1, "type": "PRES_VIS", "word": "lunch", "wordID": 848, "conditions": [24, 800, "v", 24000], "trial": 4, "serialpos": 5, "trial_type": "single-stim", "trial_index": 150, "time_elapsed": 816418, "internal_node_id": "0.0-105.0"}}, {"uniqueid": "MTK1161:374TNBHA8C2P1SMWY44S3T57RHJYQL", "current_trial": 151, "dateTime": 1513265455418, "trialdata": {"rt": -1, "stimulus": "<p id=\"stim\">SUPPER</p>", "key_press": -1, "type": "PRES_VIS", "word": "supper", "wordID": 1410, "conditions": [24, 800, "v", 24000], "trial": 4, "serialpos": 6, "trial_type": "single-stim", "trial_index": 151, "time_elapsed": 818101, "internal_node_id": "0.0-106.0"}}, {"uniqueid": "MTK1161:374TNBHA8C2P1SMWY44S3T57RHJYQL", "current_trial": 152, "dateTime": 1513265457159, "trialdata": {"rt": -1, "stimulus": "<p id=\"stim\">LIGHTNING</p>", "key_press": -1, "type": "PRES_VIS", "word": "lightning", "wordID": 819, "conditions": [24, 800, "v", 24000], "trial": 4, "serialpos": 7, "trial_type": "single-stim", "trial_index": 152, "time_elapsed": 819842, "internal_node_id": "0.0-107.0"}}, {"uniqueid": "MTK1161:374TNBHA8C2P1SMWY44S3T57RHJYQL", "current_trial": 153, "dateTime": 1513265458812, "trialdata": {"rt": -1, "stimulus": "<p id=\"stim\">MASK</p>", "key_press": -1, "type": "PRES_VIS", "word": "mask", "wordID": 875, "conditions": [24, 800, "v", 24000], "trial": 4, "serialpos": 8, "trial_type": "single-stim", "trial_index": 153, "time_elapsed": 821495, "internal_node_id": "0.0-108.0"}}, {"uniqueid": "MTK1161:374TNBHA8C2P1SMWY44S3T57RHJYQL", "current_trial": 154, "dateTime": 1513265460750, "trialdata": {"rt": -1, "stimulus": "<p id=\"stim\">STOVE</p>", "key_press": -1, "type": "PRES_VIS", "word": "stove", "wordID": 1387, "conditions": [24, 800, "v", 24000], "trial": 4, "serialpos": 9, "trial_type": "single-stim", "trial_index": 154, "time_elapsed": 823433, "internal_node_id": "0.0-109.0"}}, {"uniqueid": "MTK1161:374TNBHA8C2P1SMWY44S3T57RHJYQL", "current_trial": 155, "dateTime": 1513265462560, "trialdata": {"rt": -1, "stimulus": "<p id=\"stim\">GARBAGE</p>", "key_press": -1, "type": "PRES_VIS", "word": "garbage", "wordID": 621, "conditions": [24, 800, "v", 24000], "trial": 4, "serialpos": 10, "trial_type": "single-stim", "trial_index": 155, "time_elapsed": 825243, "internal_node_id": "0.0-110.0"}}, {"uniqueid": "MTK1161:374TNBHA8C2P1SMWY44S3T57RHJYQL", "current_trial": 156, "dateTime": 1513265464512, "trialdata": {"rt": -1, "stimulus": "<p id=\"stim\">SNAIL</p>", "key_press": -1, "type": "PRES_VIS", "word": "snail", "wordID": 1331, "conditions": [24, 800, "v", 24000], "trial": 4, "serialpos": 11, "trial_type": "single-stim", "trial_index": 156, "time_elapsed": 827195, "internal_node_id": "0.0-111.0"}}, {"uniqueid": "MTK1161:374TNBHA8C2P1SMWY44S3T57RHJYQL", "current_trial": 157, "dateTime": 1513265466166, "trialdata": {"rt": -1, "stimulus": "<p id=\"stim\">RADISH</p>", "key_press": -1, "type": "PRES_VIS", "word": "radish", "wordID": 1157, "conditions": [24, 800, "v", 24000], "trial": 4, "serialpos": 12, "trial_type": "single-stim", "trial_index": 157, "time_elapsed": 828849, "internal_node_id": "0.0-112.0"}}, {"uniqueid": "MTK1161:374TNBHA8C2P1SMWY44S3T57RHJYQL", "current_trial": 158, "dateTime": 1513265468158, "trialdata": {"rt": -1, "stimulus": "<p id=\"stim\">VENUS</p>", "key_press": -1, "type": "PRES_VIS", "word": "venus", "wordID": 1556, "conditions": [24, 800, "v", 24000], "trial": 4, "serialpos": 13, "trial_type": "single-stim", "trial_index": 158, "time_elapsed": 830841, "internal_node_id": "0.0-113.0"}}, {"uniqueid": "MTK1161:374TNBHA8C2P1SMWY44S3T57RHJYQL", "current_trial": 159, "dateTime": 1513265470014, "trialdata": {"rt": -1, "stimulus": "<p id=\"stim\">RAZOR</p>", "key_press": -1, "type": "PRES_VIS", "word": "razor", "wordID": 1170, "conditions": [24, 800, "v", 24000], "trial": 4, "serialpos": 14, "trial_type": "single-stim", "trial_index": 159, "time_elapsed": 832696, "internal_node_id": "0.0-114.0"}}, {"uniqueid": "MTK1161:374TNBHA8C2P1SMWY44S3T57RHJYQL", "current_trial": 160, "dateTime": 1513265471793, "trialdata": {"rt": -1, "stimulus": "<p id=\"stim\">PLUTO</p>", "key_press": -1, "type": "PRES_VIS", "word": "pluto", "wordID": 1091, "conditions": [24, 800, "v", 24000], "trial": 4, "serialpos": 15, "trial_type": "single-stim", "trial_index": 160, "time_elapsed": 834476, "internal_node_id": "0.0-115.0"}}, {"uniqueid": "MTK1161:374TNBHA8C2P1SMWY44S3T57RHJYQL", "current_trial": 161, "dateTime": 1513265473699, "trialdata": {"rt": -1, "stimulus": "<p id=\"stim\">PUDDLE</p>", "key_press": -1, "type": "PRES_VIS", "word": "puddle", "wordID": 1139, "conditions": [24, 800, "v", 24000], "trial": 4, "serialpos": 16, "trial_type": "single-stim", "trial_index": 161, "time_elapsed": 836382, "internal_node_id": "0.0-116.0"}}, {"uniqueid": "MTK1161:374TNBHA8C2P1SMWY44S3T57RHJYQL", "current_trial": 162, "dateTime": 1513265475534, "trialdata": {"rt": -1, "stimulus": "<p id=\"stim\">CANDY</p>", "key_press": -1, "type": "PRES_VIS", "word": "candy", "wordID": 229, "conditions": [24, 800, "v", 24000], "trial": 4, "serialpos": 17, "trial_type": "single-stim", "trial_index": 162, "time_elapsed": 838216, "internal_node_id": "0.0-117.0"}}, {"uniqueid": "MTK1161:374TNBHA8C2P1SMWY44S3T57RHJYQL", "current_trial": 163, "dateTime": 1513265477534, "trialdata": {"rt": -1, "stimulus": "<p id=\"stim\">POPCORN</p>", "key_press": -1, "type": "PRES_VIS", "word": "popcorn", "wordID": 1103, "conditions": [24, 800, "v", 24000], "trial": 4, "serialpos": 18, "trial_type": "single-stim", "trial_index": 163, "time_elapsed": 840216, "internal_node_id": "0.0-118.0"}}, {"uniqueid": "MTK1161:374TNBHA8C2P1SMWY44S3T57RHJYQL", "current_trial": 164, "dateTime": 1513265479220, "trialdata": {"rt": -1, "stimulus": "<p id=\"stim\">SCALPEL</p>", "key_press": -1, "type": "PRES_VIS", "word": "scalpel", "wordID": 1242, "conditions": [24, 800, "v", 24000], "trial": 4, "serialpos": 19, "trial_type": "single-stim", "trial_index": 164, "time_elapsed": 841903, "internal_node_id": "0.0-119.0"}}, {"uniqueid": "MTK1161:374TNBHA8C2P1SMWY44S3T57RHJYQL", "current_trial": 165, "dateTime": 1513265481026, "trialdata": {"rt": -1, "stimulus": "<p id=\"stim\">MATCH</p>", "key_press": -1, "type": "PRES_VIS", "word": "match", "wordID": 877, "conditions": [24, 800, "v", 24000], "trial": 4, "serialpos": 20, "trial_type": "single-stim", "trial_index": 165, "time_elapsed": 843709, "internal_node_id": "0.0-120.0"}}, {"uniqueid": "MTK1161:374TNBHA8C2P1SMWY44S3T57RHJYQL", "current_trial": 166, "dateTime": 1513265482959, "trialdata": {"rt": -1, "stimulus": "<p id=\"stim\">STREAM</p>", "key_press": -1, "type": "PRES_VIS", "word": "stream", "wordID": 1391, "conditions": [24, 800, "v", 24000], "trial": 4, "serialpos": 21, "trial_type": "single-stim", "trial_index": 166, "time_elapsed": 845642, "internal_node_id": "0.0-121.0"}}, {"uniqueid": "MTK1161:374TNBHA8C2P1SMWY44S3T57RHJYQL", "current_trial": 167, "dateTime": 1513265484587, "trialdata": {"rt": -1, "stimulus": "<p id=\"stim\">POLICE</p>", "key_press": -1, "type": "PRES_VIS", "word": "police", "wordID": 1097, "conditions": [24, 800, "v", 24000], "trial": 4, "serialpos": 22, "trial_type": "single-stim", "trial_index": 167, "time_elapsed": 847270, "internal_node_id": "0.0-122.0"}}, {"uniqueid": "MTK1161:374TNBHA8C2P1SMWY44S3T57RHJYQL", "current_trial": 168, "dateTime": 1513265486491, "trialdata": {"rt": -1, "stimulus": "<p id=\"stim\">BRIEFCASE</p>", "key_press": -1, "type": "PRES_VIS", "word": "briefcase", "wordID": 174, "conditions": [24, 800, "v", 24000], "trial": 4, "serialpos": 23, "trial_type": "single-stim", "trial_index": 168, "time_elapsed": 849174, "internal_node_id": "0.0-123.0"}}, {"uniqueid": "MTK1161:374TNBHA8C2P1SMWY44S3T57RHJYQL", "current_trial": 169, "dateTime": 1513265488884, "trialdata": {"rt": -1, "stimulus": "", "key_press": -1, "type": "PRE_RECALL_DELAY", "trial_type": "single-stim", "trial_index": 169, "time_elapsed": 851567, "internal_node_id": "0.0-124.0-0.0"}}, {"uniqueid": "MTK1161:374TNBHA8C2P1SMWY44S3T57RHJYQL", "current_trial": 170, "dateTime": 1513265489386, "trialdata": {"rt": -1000, "stimulus": "/static/audio/400Hz.wav", "key_press": -1, "type": "PRE_RECALL_ALERT", "trial_type": "single-audio", "trial_index": 170, "time_elapsed": 852069, "internal_node_id": "0.0-125.0"}}, {"uniqueid": "MTK1161:374TNBHA8C2P1SMWY44S3T57RHJYQL", "current_trial": 171, "dateTime": 1513265549394, "trialdata": {"rt": [2047, 6192, 8604, 11637, 13263, 15737, 19490, 22080], "recwords": ["toaster", "scotch", "relish", "radish", "pluto", "razor", "police", "pluto"], "type": "FREE_RECALL", "conditions": [24, 800, "v", 24000], "trial": 4, "trial_type": "free-recall", "trial_index": 171, "time_elapsed": 912073, "internal_node_id": "0.0-126.0-0.0"}}, {"uniqueid": "MTK1161:374TNBHA8C2P1SMWY44S3T57RHJYQL", "current_trial": 172, "dateTime": 1513265552756, "trialdata": {"rt": 1360, "key_press": 73, "type": "INSTRUCTIONS", "trial_type": "text", "trial_index": 172, "time_elapsed": 915439, "internal_node_id": "0.0-127.0"}}, {"uniqueid": "MTK1161:374TNBHA8C2P1SMWY44S3T57RHJYQL", "current_trial": 173, "dateTime": 1513265566761, "trialdata": {"rt": [3385, 7069, 8991, 10942], "responses": ["11", "11", "13", "12"], "num1": [3, 4, 8, 4, 1], "num2": [3, 2, 4, 5, 1], "num3": [7, 5, 1, 3, 9], "type": "DISTRACTOR", "conditions": [24, 1600, "v", 12000], "trial": 5, "trial_type": "math-distractor", "trial_index": 173, "time_elapsed": 929444, "internal_node_id": "0.0-128.0"}}, {"uniqueid": "MTK1161:374TNBHA8C2P1SMWY44S3T57RHJYQL", "current_trial": 174, "dateTime": 1513265569767, "trialdata": {"rt": -1, "stimulus": "<p id=\"stim\">10</p>", "key_press": -1, "trial_type": "single-stim", "trial_index": 174, "time_elapsed": 932448, "internal_node_id": "0.0-129.0-0.0"}}, {"uniqueid": "MTK1161:374TNBHA8C2P1SMWY44S3T57RHJYQL", "current_trial": 175, "dateTime": 1513265570769, "trialdata": {"rt": -1, "stimulus": "<p id=\"stim\">9</p>", "key_press": -1, "trial_type": "single-stim", "trial_index": 175, "time_elapsed": 933451, "internal_node_id": "0.0-129.0-1.0"}}, {"uniqueid": "MTK1161:374TNBHA8C2P1SMWY44S3T57RHJYQL", "current_trial": 176, "dateTime": 1513265571772, "trialdata": {"rt": -1, "stimulus": "<p id=\"stim\">8</p>", "key_press": -1, "trial_type": "single-stim", "trial_index": 176, "time_elapsed": 934455, "internal_node_id": "0.0-129.0-2.0"}}, {"uniqueid": "MTK1161:374TNBHA8C2P1SMWY44S3T57RHJYQL", "current_trial": 177, "dateTime": 1513265572773, "trialdata": {"rt": -1, "stimulus": "<p id=\"stim\">7</p>", "key_press": -1, "trial_type": "single-stim", "trial_index": 177, "time_elapsed": 935456, "internal_node_id": "0.0-129.0-3.0"}}, {"uniqueid": "MTK1161:374TNBHA8C2P1SMWY44S3T57RHJYQL", "current_trial": 178, "dateTime": 1513265573775, "trialdata": {"rt": -1, "stimulus": "<p id=\"stim\">6</p>", "key_press": -1, "trial_type": "single-stim", "trial_index": 178, "time_elapsed": 936457, "internal_node_id": "0.0-129.0-4.0"}}, {"uniqueid": "MTK1161:374TNBHA8C2P1SMWY44S3T57RHJYQL", "current_trial": 179, "dateTime": 1513265574778, "trialdata": {"rt": -1, "stimulus": "<p id=\"stim\">5</p>", "key_press": -1, "trial_type": "single-stim", "trial_index": 179, "time_elapsed": 937461, "internal_node_id": "0.0-129.0-5.0"}}, {"uniqueid": "MTK1161:374TNBHA8C2P1SMWY44S3T57RHJYQL", "current_trial": 180, "dateTime": 1513265575779, "trialdata": {"rt": -1, "stimulus": "<p id=\"stim\">4</p>", "key_press": -1, "trial_type": "single-stim", "trial_index": 180, "time_elapsed": 938462, "internal_node_id": "0.0-129.0-6.0"}}, {"uniqueid": "MTK1161:374TNBHA8C2P1SMWY44S3T57RHJYQL", "current_trial": 181, "dateTime": 1513265576780, "trialdata": {"rt": -1, "stimulus": "<p id=\"stim\">3</p>", "key_press": -1, "trial_type": "single-stim", "trial_index": 181, "time_elapsed": 939463, "internal_node_id": "0.0-129.0-7.0"}}, {"uniqueid": "MTK1161:374TNBHA8C2P1SMWY44S3T57RHJYQL", "current_trial": 182, "dateTime": 1513265577782, "trialdata": {"rt": -1, "stimulus": "<p id=\"stim\">2</p>", "key_press": -1, "trial_type": "single-stim", "trial_index": 182, "time_elapsed": 940465, "internal_node_id": "0.0-129.0-8.0"}}, {"uniqueid": "MTK1161:374TNBHA8C2P1SMWY44S3T57RHJYQL", "current_trial": 183, "dateTime": 1513265578783, "trialdata": {"rt": -1, "stimulus": "<p id=\"stim\">1</p>", "key_press": -1, "trial_type": "single-stim", "trial_index": 183, "time_elapsed": 941466, "internal_node_id": "0.0-129.0-9.0"}}, {"uniqueid": "MTK1161:374TNBHA8C2P1SMWY44S3T57RHJYQL", "current_trial": 184, "dateTime": 1513265580286, "trialdata": {"rt": -1, "stimulus": "<p id=\"stim\">+</p>", "key_press": -1, "type": "FIXATION", "trial_type": "single-stim", "trial_index": 184, "time_elapsed": 942969, "internal_node_id": "0.0-130.0-0.0"}}, {"uniqueid": "MTK1161:374TNBHA8C2P1SMWY44S3T57RHJYQL", "current_trial": 185, "dateTime": 1513265581888, "trialdata": {"rt": -1, "stimulus": "<p id=\"stim\">SUNSET</p>", "key_press": -1, "type": "PRES_VIS", "word": "sunset", "wordID": 1407, "conditions": [24, 1600, "v", 12000], "trial": 5, "serialpos": 0, "trial_type": "single-stim", "trial_index": 185, "time_elapsed": 944570, "internal_node_id": "0.0-131.0"}}, {"uniqueid": "MTK1161:374TNBHA8C2P1SMWY44S3T57RHJYQL", "current_trial": 186, "dateTime": 1513265584491, "trialdata": {"rt": -1, "stimulus": "<p id=\"stim\">PERFUME</p>", "key_press": -1, "type": "PRES_VIS", "word": "perfume", "wordID": 1048, "conditions": [24, 1600, "v", 12000], "trial": 5, "serialpos": 1, "trial_type": "single-stim", "trial_index": 186, "time_elapsed": 947174, "internal_node_id": "0.0-132.0"}}, {"uniqueid": "MTK1161:374TNBHA8C2P1SMWY44S3T57RHJYQL", "current_trial": 187, "dateTime": 1513265587220, "trialdata": {"rt": -1, "stimulus": "<p id=\"stim\">SNACK</p>", "key_press": -1, "type": "PRES_VIS", "word": "snack", "wordID": 1330, "conditions": [24, 1600, "v", 12000], "trial": 5, "serialpos": 2, "trial_type": "single-stim", "trial_index": 187, "time_elapsed": 949902, "internal_node_id": "0.0-133.0"}}, {"uniqueid": "MTK1161:374TNBHA8C2P1SMWY44S3T57RHJYQL", "current_trial": 188, "dateTime": 1513265589968, "trialdata": {"rt": -1, "stimulus": "<p id=\"stim\">SUNRISE</p>", "key_press": -1, "type": "PRES_VIS", "word": "sunrise", "wordID": 1406, "conditions": [24, 1600, "v", 12000], "trial": 5, "serialpos": 3, "trial_type": "single-stim", "trial_index": 188, "time_elapsed": 952651, "internal_node_id": "0.0-134.0"}}, {"uniqueid": "MTK1161:374TNBHA8C2P1SMWY44S3T57RHJYQL", "current_trial": 189, "dateTime": 1513265592717, "trialdata": {"rt": -1, "stimulus": "<p id=\"stim\">VALVE</p>", "key_press": -1, "type": "PRES_VIS", "word": "valve", "wordID": 1545, "conditions": [24, 1600, "v", 12000], "trial": 5, "serialpos": 4, "trial_type": "single-stim", "trial_index": 189, "time_elapsed": 955400, "internal_node_id": "0.0-135.0"}}, {"uniqueid": "MTK1161:374TNBHA8C2P1SMWY44S3T57RHJYQL", "current_trial": 190, "dateTime": 1513265595263, "trialdata": {"rt": -1, "stimulus": "<p id=\"stim\">SWIMMER</p>", "key_press": -1, "type": "PRES_VIS", "word": "swimmer", "wordID": 1419, "conditions": [24, 1600, "v", 12000], "trial": 5, "serialpos": 5, "trial_type": "single-stim", "trial_index": 190, "time_elapsed": 957945, "internal_node_id": "0.0-136.0"}}, {"uniqueid": "MTK1161:374TNBHA8C2P1SMWY44S3T57RHJYQL", "current_trial": 191, "dateTime": 1513265597717, "trialdata": {"rt": -1, "stimulus": "<p id=\"stim\">COTTAGE</p>", "key_press": -1, "type": "PRES_VIS", "word": "cottage", "wordID": 383, "conditions": [24, 1600, "v", 12000], "trial": 5, "serialpos": 6, "trial_type": "single-stim", "trial_index": 191, "time_elapsed": 960399, "internal_node_id": "0.0-137.0"}}, {"uniqueid": "MTK1161:374TNBHA8C2P1SMWY44S3T57RHJYQL", "current_trial": 192, "dateTime": 1513265600364, "trialdata": {"rt": -1, "stimulus": "<p id=\"stim\">SUITCASE</p>", "key_press": -1, "type": "PRES_VIS", "word": "suitcase", "wordID": 1402, "conditions": [24, 1600, "v", 12000], "trial": 5, "serialpos": 7, "trial_type": "single-stim", "trial_index": 192, "time_elapsed": 963047, "internal_node_id": "0.0-138.0"}}, {"uniqueid": "MTK1161:374TNBHA8C2P1SMWY44S3T57RHJYQL", "current_trial": 193, "dateTime": 1513265602905, "trialdata": {"rt": -1, "stimulus": "<p id=\"stim\">BURGLAR</p>", "key_press": -1, "type": "PRES_VIS", "word": "burglar", "wordID": 199, "conditions": [24, 1600, "v", 12000], "trial": 5, "serialpos": 8, "trial_type": "single-stim", "trial_index": 193, "time_elapsed": 965588, "internal_node_id": "0.0-139.0"}}, {"uniqueid": "MTK1161:374TNBHA8C2P1SMWY44S3T57RHJYQL", "current_trial": 194, "dateTime": 1513265605415, "trialdata": {"rt": -1, "stimulus": "<p id=\"stim\">ROBBER</p>", "key_press": -1, "type": "PRES_VIS", "word": "robber", "wordID": 1196, "conditions": [24, 1600, "v", 12000], "trial": 5, "serialpos": 9, "trial_type": "single-stim", "trial_index": 194, "time_elapsed": 968098, "internal_node_id": "0.0-140.0"}}, {"uniqueid": "MTK1161:374TNBHA8C2P1SMWY44S3T57RHJYQL", "current_trial": 195, "dateTime": 1513265608002, "trialdata": {"rt": -1, "stimulus": "<p id=\"stim\">JUGGLER</p>", "key_press": -1, "type": "PRES_VIS", "word": "juggler", "wordID": 762, "conditions": [24, 1600, "v", 12000], "trial": 5, "serialpos": 10, "trial_type": "single-stim", "trial_index": 195, "time_elapsed": 970685, "internal_node_id": "0.0-141.0"}}, {"uniqueid": "MTK1161:374TNBHA8C2P1SMWY44S3T57RHJYQL", "current_trial": 196, "dateTime": 1513265610603, "trialdata": {"rt": -1, "stimulus": "<p id=\"stim\">BARLEY</p>", "key_press": -1, "type": "PRES_VIS", "word": "barley", "wordID": 87, "conditions": [24, 1600, "v", 12000], "trial": 5, "serialpos": 11, "trial_type": "single-stim", "trial_index": 196, "time_elapsed": 973286, "internal_node_id": "0.0-142.0"}}, {"uniqueid": "MTK1161:374TNBHA8C2P1SMWY44S3T57RHJYQL", "current_trial": 197, "dateTime": 1513265613195, "trialdata": {"rt": -1, "stimulus": "<p id=\"stim\">WRIST</p>", "key_press": -1, "type": "PRES_VIS", "word": "wrist", "wordID": 1625, "conditions": [24, 1600, "v", 12000], "trial": 5, "serialpos": 12, "trial_type": "single-stim", "trial_index": 197, "time_elapsed": 975877, "internal_node_id": "0.0-143.0"}}, {"uniqueid": "MTK1161:374TNBHA8C2P1SMWY44S3T57RHJYQL", "current_trial": 198, "dateTime": 1513265615957, "trialdata": {"rt": -1, "stimulus": "<p id=\"stim\">JUDGE</p>", "key_press": -1, "type": "PRES_VIS", "word": "judge", "wordID": 760, "conditions": [24, 1600, "v", 12000], "trial": 5, "serialpos": 13, "trial_type": "single-stim", "trial_index": 198, "time_elapsed": 978640, "internal_node_id": "0.0-144.0"}}, {"uniqueid": "MTK1161:374TNBHA8C2P1SMWY44S3T57RHJYQL", "current_trial": 199, "dateTime": 1513265618435, "trialdata": {"rt": -1, "stimulus": "<p id=\"stim\">JURY</p>", "key_press": -1, "type": "PRES_VIS", "word": "jury", "wordID": 765, "conditions": [24, 1600, "v", 12000], "trial": 5, "serialpos": 14, "trial_type": "single-stim", "trial_index": 199, "time_elapsed": 981118, "internal_node_id": "0.0-145.0"}}, {"uniqueid": "MTK1161:374TNBHA8C2P1SMWY44S3T57RHJYQL", "current_trial": 200, "dateTime": 1513265620996, "trialdata": {"rt": -1, "stimulus": "<p id=\"stim\">LASER</p>", "key_press": -1, "type": "PRES_VIS", "word": "laser", "wordID": 800, "conditions": [24, 1600, "v", 12000], "trial": 5, "serialpos": 15, "trial_type": "single-stim", "trial_index": 200, "time_elapsed": 983678, "internal_node_id": "0.0-146.0"}}, {"uniqueid": "MTK1161:374TNBHA8C2P1SMWY44S3T57RHJYQL", "current_trial": 201, "dateTime": 1513265623539, "trialdata": {"rt": -1, "stimulus": "<p id=\"stim\">GUARD</p>", "key_press": -1, "type": "PRES_VIS", "word": "guard", "wordID": 666, "conditions": [24, 1600, "v", 12000], "trial": 5, "serialpos": 16, "trial_type": "single-stim", "trial_index": 201, "time_elapsed": 986222, "internal_node_id": "0.0-147.0"}}, {"uniqueid": "MTK1161:374TNBHA8C2P1SMWY44S3T57RHJYQL", "current_trial": 202, "dateTime": 1513265625943, "trialdata": {"rt": -1, "stimulus": "<p id=\"stim\">VIRUS</p>", "key_press": -1, "type": "PRES_VIS", "word": "virus", "wordID": 1571, "conditions": [24, 1600, "v", 12000], "trial": 5, "serialpos": 17, "trial_type": "single-stim", "trial_index": 202, "time_elapsed": 988626, "internal_node_id": "0.0-148.0"}}, {"uniqueid": "MTK1161:374TNBHA8C2P1SMWY44S3T57RHJYQL", "current_trial": 203, "dateTime": 1513265628512, "trialdata": {"rt": -1, "stimulus": "<p id=\"stim\">FINGER</p>", "key_press": -1, "type": "PRES_VIS", "word": "finger", "wordID": 566, "conditions": [24, 1600, "v", 12000], "trial": 5, "serialpos": 18, "trial_type": "single-stim", "trial_index": 203, "time_elapsed": 991194, "internal_node_id": "0.0-149.0"}}, {"uniqueid": "MTK1161:374TNBHA8C2P1SMWY44S3T57RHJYQL", "current_trial": 204, "dateTime": 1513265631189, "trialdata": {"rt": -1, "stimulus": "<p id=\"stim\">NOMAD</p>", "key_press": -1, "type": "PRES_VIS", "word": "nomad", "wordID": 954, "conditions": [24, 1600, "v", 12000], "trial": 5, "serialpos": 19, "trial_type": "single-stim", "trial_index": 204, "time_elapsed": 993871, "internal_node_id": "0.0-150.0"}}, {"uniqueid": "MTK1161:374TNBHA8C2P1SMWY44S3T57RHJYQL", "current_trial": 205, "dateTime": 1513265633952, "trialdata": {"rt": -1, "stimulus": "<p id=\"stim\">TURTLE</p>", "key_press": -1, "type": "PRES_VIS", "word": "turtle", "wordID": 1521, "conditions": [24, 1600, "v", 12000], "trial": 5, "serialpos": 20, "trial_type": "single-stim", "trial_index": 205, "time_elapsed": 996635, "internal_node_id": "0.0-151.0"}}, {"uniqueid": "MTK1161:374TNBHA8C2P1SMWY44S3T57RHJYQL", "current_trial": 206, "dateTime": 1513265636698, "trialdata": {"rt": -1, "stimulus": "<p id=\"stim\">COIN</p>", "key_press": -1, "type": "PRES_VIS", "word": "coin", "wordID": 342, "conditions": [24, 1600, "v", 12000], "trial": 5, "serialpos": 21, "trial_type": "single-stim", "trial_index": 206, "time_elapsed": 999381, "internal_node_id": "0.0-152.0"}}, {"uniqueid": "MTK1161:374TNBHA8C2P1SMWY44S3T57RHJYQL", "current_trial": 207, "dateTime": 1513265639396, "trialdata": {"rt": -1, "stimulus": "<p id=\"stim\">ELBOW</p>", "key_press": -1, "type": "PRES_VIS", "word": "elbow", "wordID": 519, "conditions": [24, 1600, "v", 12000], "trial": 5, "serialpos": 22, "trial_type": "single-stim", "trial_index": 207, "time_elapsed": 1002079, "internal_node_id": "0.0-153.0"}}, {"uniqueid": "MTK1161:374TNBHA8C2P1SMWY44S3T57RHJYQL", "current_trial": 208, "dateTime": 1513265641994, "trialdata": {"rt": -1, "stimulus": "<p id=\"stim\">PISTON</p>", "key_press": -1, "type": "PRES_VIS", "word": "piston", "wordID": 1075, "conditions": [24, 1600, "v", 12000], "trial": 5, "serialpos": 23, "trial_type": "single-stim", "trial_index": 208, "time_elapsed": 1004677, "internal_node_id": "0.0-154.0"}}, {"uniqueid": "MTK1161:374TNBHA8C2P1SMWY44S3T57RHJYQL", "current_trial": 209, "dateTime": 1513265644345, "trialdata": {"rt": -1, "stimulus": "", "key_press": -1, "type": "PRE_RECALL_DELAY", "trial_type": "single-stim", "trial_index": 209, "time_elapsed": 1007028, "internal_node_id": "0.0-155.0-0.0"}}, {"uniqueid": "MTK1161:374TNBHA8C2P1SMWY44S3T57RHJYQL", "current_trial": 210, "dateTime": 1513265644848, "trialdata": {"rt": -1000, "stimulus": "/static/audio/400Hz.wav", "key_press": -1, "type": "PRE_RECALL_ALERT", "trial_type": "single-audio", "trial_index": 210, "time_elapsed": 1007530, "internal_node_id": "0.0-156.0"}}, {"uniqueid": "MTK1161:374TNBHA8C2P1SMWY44S3T57RHJYQL", "current_trial": 211, "dateTime": 1513265704857, "trialdata": {"rt": [3453, 4885, 7227, 9253, 11385, 13244, 17895, 19210, 22200, 26177, 28841], "recwords": ["sunset", "snack", "sunrise", "cottage", "swimmer", "valve", "robber", "juggler", "barley", "jury", "finger"], "type": "FREE_RECALL", "conditions": [24, 1600, "v", 12000], "trial": 5, "trial_type": "free-recall", "trial_index": 211, "time_elapsed": 1067535, "internal_node_id": "0.0-157.0-0.0"}}, {"uniqueid": "MTK1161:374TNBHA8C2P1SMWY44S3T57RHJYQL", "current_trial": 212, "dateTime": 1513265709199, "trialdata": {"rt": 2339, "key_press": 75, "type": "INSTRUCTIONS", "trial_type": "text", "trial_index": 212, "time_elapsed": 1071882, "internal_node_id": "0.0-158.0"}}, {"uniqueid": "MTK1161:374TNBHA8C2P1SMWY44S3T57RHJYQL", "current_trial": 213, "dateTime": 1513265735204, "trialdata": {"rt": [3176, 5153, 6989, 8996, 11925, 14257, 16500, 18834, 20478, 22898], "responses": ["17", "7", "9", "9", "18", "20", "14", "15", "5", "16"], "num1": [3, 1, 7, 3, 6, 8, 4, 6, 2, 1, 7], "num2": [8, 3, 5, 2, 7, 7, 4, 5, 2, 8, 4], "num3": [6, 3, 1, 4, 5, 5, 6, 4, 1, 7, 1], "type": "DISTRACTOR", "conditions": [12, 1600, "a", 24000], "trial": 6, "trial_type": "math-distractor", "trial_index": 213, "time_elapsed": 1097887, "internal_node_id": "0.0-159.0"}}, {"uniqueid": "MTK1161:374TNBHA8C2P1SMWY44S3T57RHJYQL", "current_trial": 214, "dateTime": 1513265738207, "trialdata": {"rt": -1, "stimulus": "<p id=\"stim\">10</p>", "key_press": -1, "trial_type": "single-stim", "trial_index": 214, "time_elapsed": 1100890, "internal_node_id": "0.0-160.0-0.0"}}, {"uniqueid": "MTK1161:374TNBHA8C2P1SMWY44S3T57RHJYQL", "current_trial": 215, "dateTime": 1513265739209, "trialdata": {"rt": -1, "stimulus": "<p id=\"stim\">9</p>", "key_press": -1, "trial_type": "single-stim", "trial_index": 215, "time_elapsed": 1101892, "internal_node_id": "0.0-160.0-1.0"}}, {"uniqueid": "MTK1161:374TNBHA8C2P1SMWY44S3T57RHJYQL", "current_trial": 216, "dateTime": 1513265740211, "trialdata": {"rt": -1, "stimulus": "<p id=\"stim\">8</p>", "key_press": -1, "trial_type": "single-stim", "trial_index": 216, "time_elapsed": 1102894, "internal_node_id": "0.0-160.0-2.0"}}, {"uniqueid": "MTK1161:374TNBHA8C2P1SMWY44S3T57RHJYQL", "current_trial": 217, "dateTime": 1513265741213, "trialdata": {"rt": -1, "stimulus": "<p id=\"stim\">7</p>", "key_press": -1, "trial_type": "single-stim", "trial_index": 217, "time_elapsed": 1103896, "internal_node_id": "0.0-160.0-3.0"}}, {"uniqueid": "MTK1161:374TNBHA8C2P1SMWY44S3T57RHJYQL", "current_trial": 218, "dateTime": 1513265742216, "trialdata": {"rt": -1, "stimulus": "<p id=\"stim\">6</p>", "key_press": -1, "trial_type": "single-stim", "trial_index": 218, "time_elapsed": 1104899, "internal_node_id": "0.0-160.0-4.0"}}, {"uniqueid": "MTK1161:374TNBHA8C2P1SMWY44S3T57RHJYQL", "current_trial": 219, "dateTime": 1513265743218, "trialdata": {"rt": -1, "stimulus": "<p id=\"stim\">5</p>", "key_press": -1, "trial_type": "single-stim", "trial_index": 219, "time_elapsed": 1105901, "internal_node_id": "0.0-160.0-5.0"}}, {"uniqueid": "MTK1161:374TNBHA8C2P1SMWY44S3T57RHJYQL", "current_trial": 220, "dateTime": 1513265744220, "trialdata": {"rt": -1, "stimulus": "<p id=\"stim\">4</p>", "key_press": -1, "trial_type": "single-stim", "trial_index": 220, "time_elapsed": 1106903, "internal_node_id": "0.0-160.0-6.0"}}, {"uniqueid": "MTK1161:374TNBHA8C2P1SMWY44S3T57RHJYQL", "current_trial": 221, "dateTime": 1513265745222, "trialdata": {"rt": -1, "stimulus": "<p id=\"stim\">3</p>", "key_press": -1, "trial_type": "single-stim", "trial_index": 221, "time_elapsed": 1107905, "internal_node_id": "0.0-160.0-7.0"}}, {"uniqueid": "MTK1161:374TNBHA8C2P1SMWY44S3T57RHJYQL", "current_trial": 222, "dateTime": 1513265746224, "trialdata": {"rt": -1, "stimulus": "<p id=\"stim\">2</p>", "key_press": -1, "trial_type": "single-stim", "trial_index": 222, "time_elapsed": 1108907, "internal_node_id": "0.0-160.0-8.0"}}, {"uniqueid": "MTK1161:374TNBHA8C2P1SMWY44S3T57RHJYQL", "current_trial": 223, "dateTime": 1513265747226, "trialdata": {"rt": -1, "stimulus": "<p id=\"stim\">1</p>", "key_press": -1, "trial_type": "single-stim", "trial_index": 223, "time_elapsed": 1109909, "internal_node_id": "0.0-160.0-9.0"}}, {"uniqueid": "MTK1161:374TNBHA8C2P1SMWY44S3T57RHJYQL", "current_trial": 224, "dateTime": 1513265748729, "trialdata": {"rt": -1, "stimulus": "<p id=\"stim\">+</p>", "key_press": -1, "type": "FIXATION", "trial_type": "single-stim", "trial_index": 224, "time_elapsed": 1111412, "internal_node_id": "0.0-161.0-0.0"}}, {"uniqueid": "MTK1161:374TNBHA8C2P1SMWY44S3T57RHJYQL", "current_trial": 225, "dateTime": 1513265751231, "trialdata": {"rt": -1000, "stimulus": "/static/audio/wordpool/CROSS.wav", "key_press": -1, "type": "PRES_AUD", "word": "cross", "wordID": 412, "conditions": [12, 1600, "a", 24000], "trial": 6, "serialpos": 0, "trial_type": "single-audio", "trial_index": 225, "time_elapsed": 1113914, "internal_node_id": "0.0-162.0"}}, {"uniqueid": "MTK1161:374TNBHA8C2P1SMWY44S3T57RHJYQL", "current_trial": 226, "dateTime": 1513265753927, "trialdata": {"rt": -1000, "stimulus": "/static/audio/wordpool/BOX.wav", "key_press": -1, "type": "PRES_AUD", "word": "box", "wordID": 158, "conditions": [12, 1600, "a", 24000], "trial": 6, "serialpos": 1, "trial_type": "single-audio", "trial_index": 226, "time_elapsed": 1116610, "internal_node_id": "0.0-163.0"}}, {"uniqueid": "MTK1161:374TNBHA8C2P1SMWY44S3T57RHJYQL", "current_trial": 227, "dateTime": 1513265756565, "trialdata": {"rt": -1000, "stimulus": "/static/audio/wordpool/CELLAR.wav", "key_press": -1, "type": "PRES_AUD", "word": "cellar", "wordID": 266, "conditions": [12, 1600, "a", 24000], "trial": 6, "serialpos": 2, "trial_type": "single-audio", "trial_index": 227, "time_elapsed": 1119248, "internal_node_id": "0.0-164.0"}}, {"uniqueid": "MTK1161:374TNBHA8C2P1SMWY44S3T57RHJYQL", "current_trial": 228, "dateTime": 1513265759205, "trialdata": {"rt": -1000, "stimulus": "/static/audio/wordpool/CUSTARD.wav", "key_press": -1, "type": "PRES_AUD", "word": "custard", "wordID": 428, "conditions": [12, 1600, "a", 24000], "trial": 6, "serialpos": 3, "trial_type": "single-audio", "trial_index": 228, "time_elapsed": 1121888, "internal_node_id": "0.0-165.0"}}, {"uniqueid": "MTK1161:374TNBHA8C2P1SMWY44S3T57RHJYQL", "current_trial": 229, "dateTime": 1513265761722, "trialdata": {"rt": -1000, "stimulus": "/static/audio/wordpool/MUFFIN.wav", "key_press": -1, "type": "PRES_AUD", "word": "muffin", "wordID": 928, "conditions": [12, 1600, "a", 24000], "trial": 6, "serialpos": 4, "trial_type": "single-audio", "trial_index": 229, "time_elapsed": 1124405, "internal_node_id": "0.0-166.0"}}, {"uniqueid": "MTK1161:374TNBHA8C2P1SMWY44S3T57RHJYQL", "current_trial": 230, "dateTime": 1513265764137, "trialdata": {"rt": -1000, "stimulus": "/static/audio/wordpool/RIVER.wav", "key_press": -1, "type": "PRES_AUD", "word": "river", "wordID": 1193, "conditions": [12, 1600, "a", 24000], "trial": 6, "serialpos": 5, "trial_type": "single-audio", "trial_index": 230, "time_elapsed": 1126819, "internal_node_id": "0.0-167.0"}}, {"uniqueid": "MTK1161:374TNBHA8C2P1SMWY44S3T57RHJYQL", "current_trial": 231, "dateTime": 1513265766721, "trialdata": {"rt": -1000, "stimulus": "/static/audio/wordpool/DIME.wav", "key_press": -1, "type": "PRES_AUD", "word": "dime", "wordID": 465, "conditions": [12, 1600, "a", 24000], "trial": 6, "serialpos": 6, "trial_type": "single-audio", "trial_index": 231, "time_elapsed": 1129404, "internal_node_id": "0.0-168.0"}}, {"uniqueid": "MTK1161:374TNBHA8C2P1SMWY44S3T57RHJYQL", "current_trial": 232, "dateTime": 1513265769444, "trialdata": {"rt": -1000, "stimulus": "/static/audio/wordpool/CASHIER.wav", "key_press": -1, "type": "PRES_AUD", "word": "cashier", "wordID": 253, "conditions": [12, 1600, "a", 24000], "trial": 6, "serialpos": 7, "trial_type": "single-audio", "trial_index": 232, "time_elapsed": 1132127, "internal_node_id": "0.0-169.0"}}, {"uniqueid": "MTK1161:374TNBHA8C2P1SMWY44S3T57RHJYQL", "current_trial": 233, "dateTime": 1513265771908, "trialdata": {"rt": -1000, "stimulus": "/static/audio/wordpool/GLASS.wav", "key_press": -1, "type": "PRES_AUD", "word": "glass", "wordID": 638, "conditions": [12, 1600, "a", 24000], "trial": 6, "serialpos": 8, "trial_type": "single-audio", "trial_index": 233, "time_elapsed": 1134591, "internal_node_id": "0.0-170.0"}}, {"uniqueid": "MTK1161:374TNBHA8C2P1SMWY44S3T57RHJYQL", "current_trial": 234, "dateTime": 1513265774461, "trialdata": {"rt": -1000, "stimulus": "/static/audio/wordpool/CAPTIVE.wav", "key_press": -1, "type": "PRES_AUD", "word": "captive", "wordID": 239, "conditions": [12, 1600, "a", 24000], "trial": 6, "serialpos": 9, "trial_type": "single-audio", "trial_index": 234, "time_elapsed": 1137143, "internal_node_id": "0.0-171.0"}}, {"uniqueid": "MTK1161:374TNBHA8C2P1SMWY44S3T57RHJYQL", "current_trial": 235, "dateTime": 1513265777248, "trialdata": {"rt": -1000, "stimulus": "/static/audio/wordpool/KETCHUP.wav", "key_press": -1, "type": "PRES_AUD", "word": "ketchup", "wordID": 770, "conditions": [12, 1600, "a", 24000], "trial": 6, "serialpos": 10, "trial_type": "single-audio", "trial_index": 235, "time_elapsed": 1139930, "internal_node_id": "0.0-172.0"}}, {"uniqueid": "MTK1161:374TNBHA8C2P1SMWY44S3T57RHJYQL", "current_trial": 236, "dateTime": 1513265779924, "trialdata": {"rt": -1000, "stimulus": "/static/audio/wordpool/WAITER.wav", "key_press": -1, "type": "PRES_AUD", "word": "waiter", "wordID": 1579, "conditions": [12, 1600, "a", 24000], "trial": 6, "serialpos": 11, "trial_type": "single-audio", "trial_index": 236, "time_elapsed": 1142607, "internal_node_id": "0.0-173.0"}}, {"uniqueid": "MTK1161:374TNBHA8C2P1SMWY44S3T57RHJYQL", "current_trial": 237, "dateTime": 1513265781295, "trialdata": {"rt": -1, "stimulus": "", "key_press": -1, "type": "PRE_RECALL_DELAY", "trial_type": "single-stim", "trial_index": 237, "time_elapsed": 1143978, "internal_node_id": "0.0-174.0-0.0"}}, {"uniqueid": "MTK1161:374TNBHA8C2P1SMWY44S3T57RHJYQL", "current_trial": 238, "dateTime": 1513265781797, "trialdata": {"rt": -1000, "stimulus": "/static/audio/400Hz.wav", "key_press": -1, "type": "PRE_RECALL_ALERT", "trial_type": "single-audio", "trial_index": 238, "time_elapsed": 1144480, "internal_node_id": "0.0-175.0"}}, {"uniqueid": "MTK1161:374TNBHA8C2P1SMWY44S3T57RHJYQL", "current_trial": 239, "dateTime": 1513265841806, "trialdata": {"rt": [3735, 4877, 6714, 12048, 13721, 16350, 20973], "recwords": ["cross", "box", "cellar", "custard", "muffin", "ketchup", "waiter"], "type": "FREE_RECALL", "conditions": [12, 1600, "a", 24000], "trial": 6, "trial_type": "free-recall", "trial_index": 239, "time_elapsed": 1204484, "internal_node_id": "0.0-176.0-0.0"}}, {"uniqueid": "MTK1161:374TNBHA8C2P1SMWY44S3T57RHJYQL", "current_trial": 240, "dateTime": 1513265899136, "trialdata": {"rt": 55327, "key_press": 75, "type": "INSTRUCTIONS", "trial_type": "text", "trial_index": 240, "time_elapsed": 1261819, "internal_node_id": "0.0-177.0"}}, {"uniqueid": "MTK1161:374TNBHA8C2P1SMWY44S3T57RHJYQL", "current_trial": 241, "dateTime": 1513265913141, "trialdata": {"rt": [4334, 6060, 7905, 9629, 11806], "responses": ["18", "14", "24", "11", "18"], "num1": [8, 9, 8, 1, 4, 7], "num2": [8, 4, 8, 3, 6, 2], "num3": [2, 1, 8, 7, 8, 3], "type": "DISTRACTOR", "conditions": [24, 1600, "a", 12000], "trial": 7, "trial_type": "math-distractor", "trial_index": 241, "time_elapsed": 1275824, "internal_node_id": "0.0-178.0"}}, {"uniqueid": "MTK1161:374TNBHA8C2P1SMWY44S3T57RHJYQL", "current_trial": 242, "dateTime": 1513265916145, "trialdata": {"rt": -1, "stimulus": "<p id=\"stim\">10</p>", "key_press": -1, "trial_type": "single-stim", "trial_index": 242, "time_elapsed": 1278828, "internal_node_id": "0.0-179.0-0.0"}}, {"uniqueid": "MTK1161:374TNBHA8C2P1SMWY44S3T57RHJYQL", "current_trial": 243, "dateTime": 1513265917148, "trialdata": {"rt": -1, "stimulus": "<p id=\"stim\">9</p>", "key_press": -1, "trial_type": "single-stim", "trial_index": 243, "time_elapsed": 1279831, "internal_node_id": "0.0-179.0-1.0"}}, {"uniqueid": "MTK1161:374TNBHA8C2P1SMWY44S3T57RHJYQL", "current_trial": 244, "dateTime": 1513265918150, "trialdata": {"rt": -1, "stimulus": "<p id=\"stim\">8</p>", "key_press": -1, "trial_type": "single-stim", "trial_index": 244, "time_elapsed": 1280832, "internal_node_id": "0.0-179.0-2.0"}}, {"uniqueid": "MTK1161:374TNBHA8C2P1SMWY44S3T57RHJYQL", "current_trial": 245, "dateTime": 1513265919151, "trialdata": {"rt": -1, "stimulus": "<p id=\"stim\">7</p>", "key_press": -1, "trial_type": "single-stim", "trial_index": 245, "time_elapsed": 1281834, "internal_node_id": "0.0-179.0-3.0"}}, {"uniqueid": "MTK1161:374TNBHA8C2P1SMWY44S3T57RHJYQL", "current_trial": 246, "dateTime": 1513265920154, "trialdata": {"rt": -1, "stimulus": "<p id=\"stim\">6</p>", "key_press": -1, "trial_type": "single-stim", "trial_index": 246, "time_elapsed": 1282837, "internal_node_id": "0.0-179.0-4.0"}}, {"uniqueid": "MTK1161:374TNBHA8C2P1SMWY44S3T57RHJYQL", "current_trial": 247, "dateTime": 1513265921156, "trialdata": {"rt": -1, "stimulus": "<p id=\"stim\">5</p>", "key_press": -1, "trial_type": "single-stim", "trial_index": 247, "time_elapsed": 1283839, "internal_node_id": "0.0-179.0-5.0"}}, {"uniqueid": "MTK1161:374TNBHA8C2P1SMWY44S3T57RHJYQL", "current_trial": 248, "dateTime": 1513265922158, "trialdata": {"rt": -1, "stimulus": "<p id=\"stim\">4</p>", "key_press": -1, "trial_type": "single-stim", "trial_index": 248, "time_elapsed": 1284841, "internal_node_id": "0.0-179.0-6.0"}}, {"uniqueid": "MTK1161:374TNBHA8C2P1SMWY44S3T57RHJYQL", "current_trial": 249, "dateTime": 1513265923162, "trialdata": {"rt": -1, "stimulus": "<p id=\"stim\">3</p>", "key_press": -1, "trial_type": "single-stim", "trial_index": 249, "time_elapsed": 1285844, "internal_node_id": "0.0-179.0-7.0"}}, {"uniqueid": "MTK1161:374TNBHA8C2P1SMWY44S3T57RHJYQL", "current_trial": 250, "dateTime": 1513265924166, "trialdata": {"rt": -1, "stimulus": "<p id=\"stim\">2</p>", "key_press": -1, "trial_type": "single-stim", "trial_index": 250, "time_elapsed": 1286849, "internal_node_id": "0.0-179.0-8.0"}}, {"uniqueid": "MTK1161:374TNBHA8C2P1SMWY44S3T57RHJYQL", "current_trial": 251, "dateTime": 1513265925168, "trialdata": {"rt": -1, "stimulus": "<p id=\"stim\">1</p>", "key_press": -1, "trial_type": "single-stim", "trial_index": 251, "time_elapsed": 1287851, "internal_node_id": "0.0-179.0-9.0"}}, {"uniqueid": "MTK1161:374TNBHA8C2P1SMWY44S3T57RHJYQL", "current_trial": 252, "dateTime": 1513265926671, "trialdata": {"rt": -1, "stimulus": "<p id=\"stim\">+</p>", "key_press": -1, "type": "FIXATION", "trial_type": "single-stim", "trial_index": 252, "time_elapsed": 1289354, "internal_node_id": "0.0-180.0-0.0"}}, {"uniqueid": "MTK1161:374TNBHA8C2P1SMWY44S3T57RHJYQL", "current_trial": 253, "dateTime": 1513265929225, "trialdata": {"rt": -1000, "stimulus": "/static/audio/wordpool/BUNNY.wav", "key_press": -1, "type": "PRES_AUD", "word": "bunny", "wordID": 197, "conditions": [24, 1600, "a", 12000], "trial": 7, "serialpos": 0, "trial_type": "single-audio", "trial_index": 253, "time_elapsed": 1291907, "internal_node_id": "0.0-181.0"}}, {"uniqueid": "MTK1161:374TNBHA8C2P1SMWY44S3T57RHJYQL", "current_trial": 254, "dateTime": 1513265931634, "trialdata": {"rt": -1000, "stimulus": "/static/audio/wordpool/COFFEE.wav", "key_press": -1, "type": "PRES_AUD", "word": "coffee", "wordID": 340, "conditions": [24, 1600, "a", 12000], "trial": 7, "serialpos": 1, "trial_type": "single-audio", "trial_index": 254, "time_elapsed": 1294317, "internal_node_id": "0.0-182.0"}}, {"uniqueid": "MTK1161:374TNBHA8C2P1SMWY44S3T57RHJYQL", "current_trial": 255, "dateTime": 1513265934255, "trialdata": {"rt": -1000, "stimulus": "/static/audio/wordpool/JOURNAL.wav", "key_press": -1, "type": "PRES_AUD", "word": "journal", "wordID": 759, "conditions": [24, 1600, "a", 12000], "trial": 7, "serialpos": 2, "trial_type": "single-audio", "trial_index": 255, "time_elapsed": 1296938, "internal_node_id": "0.0-183.0"}}, {"uniqueid": "MTK1161:374TNBHA8C2P1SMWY44S3T57RHJYQL", "current_trial": 256, "dateTime": 1513265936916, "trialdata": {"rt": -1000, "stimulus": "/static/audio/wordpool/COSTUME.wav", "key_press": -1, "type": "PRES_AUD", "word": "costume", "wordID": 382, "conditions": [24, 1600, "a", 12000], "trial": 7, "serialpos": 3, "trial_type": "single-audio", "trial_index": 256, "time_elapsed": 1299598, "internal_node_id": "0.0-184.0"}}, {"uniqueid": "MTK1161:374TNBHA8C2P1SMWY44S3T57RHJYQL", "current_trial": 257, "dateTime": 1513265939657, "trialdata": {"rt": -1000, "stimulus": "/static/audio/wordpool/CHAMPAGNE.wav", "key_press": -1, "type": "PRES_AUD", "word": "champagne", "wordID": 277, "conditions": [24, 1600, "a", 12000], "trial": 7, "serialpos": 4, "trial_type": "single-audio", "trial_index": 257, "time_elapsed": 1302340, "internal_node_id": "0.0-185.0"}}, {"uniqueid": "MTK1161:374TNBHA8C2P1SMWY44S3T57RHJYQL", "current_trial": 258, "dateTime": 1513265942369, "trialdata": {"rt": -1000, "stimulus": "/static/audio/wordpool/CROWN.wav", "key_press": -1, "type": "PRES_AUD", "word": "crown", "wordID": 414, "conditions": [24, 1600, "a", 12000], "trial": 7, "serialpos": 5, "trial_type": "single-audio", "trial_index": 258, "time_elapsed": 1305052, "internal_node_id": "0.0-186.0"}}, {"uniqueid": "MTK1161:374TNBHA8C2P1SMWY44S3T57RHJYQL", "current_trial": 259, "dateTime": 1513265945105, "trialdata": {"rt": -1000, "stimulus": "/static/audio/wordpool/WHISTLE.wav", "key_press": -1, "type": "PRES_AUD", "word": "whistle", "wordID": 1605, "conditions": [24, 1600, "a", 12000], "trial": 7, "serialpos": 6, "trial_type": "single-audio", "trial_index": 259, "time_elapsed": 1307788, "internal_node_id": "0.0-187.0"}}, {"uniqueid": "MTK1161:374TNBHA8C2P1SMWY44S3T57RHJYQL", "current_trial": 260, "dateTime": 1513265947789, "trialdata": {"rt": -1000, "stimulus": "/static/audio/wordpool/CHIPMUNK.wav", "key_press": -1, "type": "PRES_AUD", "word": "chipmunk", "wordID": 303, "conditions": [24, 1600, "a", 12000], "trial": 7, "serialpos": 7, "trial_type": "single-audio", "trial_index": 260, "time_elapsed": 1310472, "internal_node_id": "0.0-188.0"}}, {"uniqueid": "MTK1161:374TNBHA8C2P1SMWY44S3T57RHJYQL", "current_trial": 261, "dateTime": 1513265950383, "trialdata": {"rt": -1000, "stimulus": "/static/audio/wordpool/KITCHEN.wav", "key_press": -1, "type": "PRES_AUD", "word": "kitchen", "wordID": 777, "conditions": [24, 1600, "a", 12000], "trial": 7, "serialpos": 8, "trial_type": "single-audio", "trial_index": 261, "time_elapsed": 1313066, "internal_node_id": "0.0-189.0"}}, {"uniqueid": "MTK1161:374TNBHA8C2P1SMWY44S3T57RHJYQL", "current_trial": 262, "dateTime": 1513265953032, "trialdata": {"rt": -1000, "stimulus": "/static/audio/wordpool/COOK.wav", "key_press": -1, "type": "PRES_AUD", "word": "cook", "wordID": 371, "conditions": [24, 1600, "a", 12000], "trial": 7, "serialpos": 9, "trial_type": "single-audio", "trial_index": 262, "time_elapsed": 1315715, "internal_node_id": "0.0-190.0"}}, {"uniqueid": "MTK1161:374TNBHA8C2P1SMWY44S3T57RHJYQL", "current_trial": 263, "dateTime": 1513265955527, "trialdata": {"rt": -1000, "stimulus": "/static/audio/wordpool/PECAN.wav", "key_press": -1, "type": "PRES_AUD", "word": "pecan", "wordID": 1035, "conditions": [24, 1600, "a", 12000], "trial": 7, "serialpos": 10, "trial_type": "single-audio", "trial_index": 263, "time_elapsed": 1318210, "internal_node_id": "0.0-191.0"}}, {"uniqueid": "MTK1161:374TNBHA8C2P1SMWY44S3T57RHJYQL", "current_trial": 264, "dateTime": 1513265958119, "trialdata": {"rt": -1000, "stimulus": "/static/audio/wordpool/DAISY.wav", "key_press": -1, "type": "PRES_AUD", "word": "daisy", "wordID": 434, "conditions": [24, 1600, "a", 12000], "trial": 7, "serialpos": 11, "trial_type": "single-audio", "trial_index": 264, "time_elapsed": 1320802, "internal_node_id": "0.0-192.0"}}, {"uniqueid": "MTK1161:374TNBHA8C2P1SMWY44S3T57RHJYQL", "current_trial": 265, "dateTime": 1513265960539, "trialdata": {"rt": -1000, "stimulus": "/static/audio/wordpool/DRILL.wav", "key_press": -1, "type": "PRES_AUD", "word": "drill", "wordID": 496, "conditions": [24, 1600, "a", 12000], "trial": 7, "serialpos": 12, "trial_type": "single-audio", "trial_index": 265, "time_elapsed": 1323222, "internal_node_id": "0.0-193.0"}}, {"uniqueid": "MTK1161:374TNBHA8C2P1SMWY44S3T57RHJYQL", "current_trial": 266, "dateTime": 1513265963200, "trialdata": {"rt": -1000, "stimulus": "/static/audio/wordpool/LONDON.wav", "key_press": -1, "type": "PRES_AUD", "word": "london", "wordID": 842, "conditions": [24, 1600, "a", 12000], "trial": 7, "serialpos": 13, "trial_type": "single-audio", "trial_index": 266, "time_elapsed": 1325883, "internal_node_id": "0.0-194.0"}}, {"uniqueid": "MTK1161:374TNBHA8C2P1SMWY44S3T57RHJYQL", "current_trial": 267, "dateTime": 1513265965743, "trialdata": {"rt": -1000, "stimulus": "/static/audio/wordpool/SPACE.wav", "key_press": -1, "type": "PRES_AUD", "word": "space", "wordID": 1344, "conditions": [24, 1600, "a", 12000], "trial": 7, "serialpos": 14, "trial_type": "single-audio", "trial_index": 267, "time_elapsed": 1328426, "internal_node_id": "0.0-195.0"}}, {"uniqueid": "MTK1161:374TNBHA8C2P1SMWY44S3T57RHJYQL", "current_trial": 268, "dateTime": 1513265968206, "trialdata": {"rt": -1000, "stimulus": "/static/audio/wordpool/STONE.wav", "key_press": -1, "type": "PRES_AUD", "word": "stone", "wordID": 1384, "conditions": [24, 1600, "a", 12000], "trial": 7, "serialpos": 15, "trial_type": "single-audio", "trial_index": 268, "time_elapsed": 1330889, "internal_node_id": "0.0-196.0"}}, {"uniqueid": "MTK1161:374TNBHA8C2P1SMWY44S3T57RHJYQL", "current_trial": 269, "dateTime": 1513265970631, "trialdata": {"rt": -1000, "stimulus": "/static/audio/wordpool/BRICK.wav", "key_press": -1, "type": "PRES_AUD", "word": "brick", "wordID": 171, "conditions": [24, 1600, "a", 12000], "trial": 7, "serialpos": 16, "trial_type": "single-audio", "trial_index": 269, "time_elapsed": 1333314, "internal_node_id": "0.0-197.0"}}, {"uniqueid": "MTK1161:374TNBHA8C2P1SMWY44S3T57RHJYQL", "current_trial": 270, "dateTime": 1513265973299, "trialdata": {"rt": -1000, "stimulus": "/static/audio/wordpool/MARKET.wav", "key_press": -1, "type": "PRES_AUD", "word": "market", "wordID": 870, "conditions": [24, 1600, "a", 12000], "trial": 7, "serialpos": 17, "trial_type": "single-audio", "trial_index": 270, "time_elapsed": 1335982, "internal_node_id": "0.0-198.0"}}, {"uniqueid": "MTK1161:374TNBHA8C2P1SMWY44S3T57RHJYQL", "current_trial": 271, "dateTime": 1513265975765, "trialdata": {"rt": -1000, "stimulus": "/static/audio/wordpool/BACKBONE.wav", "key_press": -1, "type": "PRES_AUD", "word": "backbone", "wordID": 65, "conditions": [24, 1600, "a", 12000], "trial": 7, "serialpos": 18, "trial_type"