{"assignmentId": "3DQQ64TANHS0CBQHJQ7FIRUHFBJWPF", "workerId": "MTK1980", "questiondata": {"origin": "United States", "strat-rehearsal": "10", "marital": "Married/Domestic Partnership", "education": "Some college", "ethnicity": "Not Hispanic", "color_depth": 24, "distracted": "No", "wrote-notes": "No", "strat-other": "", "screen_width": 1600, "avail_screen_width": 1600, "avail_screen_height": 860, "strat-image": "89", "language": "English", "gender": "Female", "age": "44", "gender_other": "", "race": ["White"], "strat-categorize": "34", "pixel_depth": 24, "strat-spatial": "0", "strat-story": "32", "race_other": "", "screen_height": 900}, "bonus": 0, "hitId": "3JYPJ2TAYIFWE56S3ZSDPJCX2X4PF6", "counterbalance": 477, "useragent": "Mozilla/5.0 (Windows NT 10.0; Win64; x64) AppleWebKit/537.36 (KHTML, like Gecko) Chrome/63.0.3239.132 Safari/537.36", "eventdata": [{"eventtype": "initialized", "interval": 0, "value": null, "timestamp": 1516643612574}, {"eventtype": "window_resize", "interval": 0, "value": [1600, 853], "timestamp": 1516643612574}, {"eventtype": "focus", "interval": 27686, "value": "off", "timestamp": 1516643640260}, {"eventtype": "focus", "interval": 4126, "value": "on", "timestamp": 1516643644386}], "data": [{"current_trial": 0, "trialdata": {"rt": 3121, "trial_type": "text", "internal_node_id": "0.0-0.0", "time_elapsed": 3126, "key_press": 13, "type": "INSTRUCTIONS", "trial_index": 0}, "uniqueid": "MTK1980:3DQQ64TANHS0CBQHJQ7FIRUHFBJWPF", "dateTime": 1516643616167}, {"current_trial": 1, "trialdata": {"rt": 17198, "trial_type": "text", "internal_node_id": "0.0-1.0", "time_elapsed": 20326, "key_press": 13, "type": "INSTRUCTIONS", "trial_index": 1}, "uniqueid": "MTK1980:3DQQ64TANHS0CBQHJQ7FIRUHFBJWPF", "dateTime": 1516643633366}, {"current_trial": 2, "trialdata": {"rt": [16738], "trial_type": "audio-test", "responses": ["ocean"], "internal_node_id": "0.0-2.0", "time_elapsed": 37087, "type": "AUDIO_TEST", "trial_index": 2}, "uniqueid": "MTK1980:3DQQ64TANHS0CBQHJQ7FIRUHFBJWPF", "dateTime": 1516643650127}, {"current_trial": 3, "trialdata": {"rt": [6653], "trial_type": "audio-test", "responses": ["crystal"], "internal_node_id": "0.0-3.0", "time_elapsed": 43747, "type": "AUDIO_TEST", "trial_index": 3}, "uniqueid": "MTK1980:3DQQ64TANHS0CBQHJQ7FIRUHFBJWPF", "dateTime": 1516643656787}, {"current_trial": 4, "trialdata": {"rt": [4909], "trial_type": "audio-test", "responses": ["spice"], "internal_node_id": "0.0-4.0", "time_elapsed": 48664, "type": "AUDIO_TEST", "trial_index": 4}, "uniqueid": "MTK1980:3DQQ64TANHS0CBQHJQ7FIRUHFBJWPF", "dateTime": 1516643661704}, {"current_trial": 5, "trialdata": {"rt": 30788, "trial_type": "survey-text", "responses": "{\"Q0\":\"1:00 AM\",\"Q1\":\"8:00 AM4\",\"Q2\":\"4\"}", "internal_node_id": "0.0-5.0", "time_elapsed": 80206, "type": "SLEEP_SURVEY", "trial_index": 5}, "uniqueid": "MTK1980:3DQQ64TANHS0CBQHJQ7FIRUHFBJWPF", "dateTime": 1516643693246}, {"current_trial": 6, "trialdata": {"rt": 51520, "trial_type": "text", "internal_node_id": "0.0-6.0", "time_elapsed": 132728, "key_press": 13, "type": "INSTRUCTIONS", "trial_index": 6}, "uniqueid": "MTK1980:3DQQ64TANHS0CBQHJQ7FIRUHFBJWPF", "dateTime": 1516643745768}, {"current_trial": 7, "trialdata": {"rt": 13042, "trial_type": "text", "internal_node_id": "0.0-7.0", "time_elapsed": 146271, "key_press": 13, "type": "INSTRUCTIONS", "trial_index": 7}, "uniqueid": "MTK1980:3DQQ64TANHS0CBQHJQ7FIRUHFBJWPF", "dateTime": 1516643759311}, {"current_trial": 8, "trialdata": {"rt": 6005, "trial_type": "text", "internal_node_id": "0.0-8.0", "time_elapsed": 152777, "key_press": 13, "type": "INSTRUCTIONS", "trial_index": 8}, "uniqueid": "MTK1980:3DQQ64TANHS0CBQHJQ7FIRUHFBJWPF", "dateTime": 1516643765817}, {"current_trial": 9, "trialdata": {"rt": [4379, 6630, 9698, 12776, 15466], "trial_type": "math-distractor", "key_times": [3557, 3894, 4379, 6094, 6266, 6630, 8288, 8560, 9698, 12187, 12432, 12776, 14683, 14978, 15466], "responses": ["19", "11", "15", "20", "16"], "num2": [6, 2, 3, 3, 3, 6], "num3": [6, 3, 3, 8, 9, 5], "conditions": [18, 1200, "v", 18000], "internal_node_id": "0.0-9.0", "key_presses": [97, 105, 13, 97, 97, 13, 97, 101, 13, 98, 96, 13, 97, 102, 13], "trial": 0, "time_elapsed": 171782, "type": "DISTRACTOR", "trial_index": 9, "num1": [7, 6, 9, 9, 4, 1]}, "uniqueid": "MTK1980:3DQQ64TANHS0CBQHJQ7FIRUHFBJWPF", "dateTime": 1516643784822}, {"current_trial": 10, "trialdata": {"rt": -1, "trial_type": "single-stim", "stimulus": "<p id=\"stim\">10</p>", "internal_node_id": "0.0-10.0-0.0", "time_elapsed": 174783, "key_press": -1, "trial_index": 10}, "uniqueid": "MTK1980:3DQQ64TANHS0CBQHJQ7FIRUHFBJWPF", "dateTime": 1516643787823}, {"current_trial": 11, "trialdata": {"rt": -1, "trial_type": "single-stim", "stimulus": "<p id=\"stim\">9</p>", "internal_node_id": "0.0-10.0-1.0", "time_elapsed": 175784, "key_press": -1, "trial_index": 11}, "uniqueid": "MTK1980:3DQQ64TANHS0CBQHJQ7FIRUHFBJWPF", "dateTime": 1516643788824}, {"current_trial": 12, "trialdata": {"rt": -1, "trial_type": "single-stim", "stimulus": "<p id=\"stim\">8</p>", "internal_node_id": "0.0-10.0-2.0", "time_elapsed": 176786, "key_press": -1, "trial_index": 12}, "uniqueid": "MTK1980:3DQQ64TANHS0CBQHJQ7FIRUHFBJWPF", "dateTime": 1516643789826}, {"current_trial": 13, "trialdata": {"rt": -1, "trial_type": "single-stim", "stimulus": "<p id=\"stim\">7</p>", "internal_node_id": "0.0-10.0-3.0", "time_elapsed": 177787, "key_press": -1, "trial_index": 13}, "uniqueid": "MTK1980:3DQQ64TANHS0CBQHJQ7FIRUHFBJWPF", "dateTime": 1516643790827}, {"current_trial": 14, "trialdata": {"rt": -1, "trial_type": "single-stim", "stimulus": "<p id=\"stim\">6</p>", "internal_node_id": "0.0-10.0-4.0", "time_elapsed": 178789, "key_press": -1, "trial_index": 14}, "uniqueid": "MTK1980:3DQQ64TANHS0CBQHJQ7FIRUHFBJWPF", "dateTime": 1516643791829}, {"current_trial": 15, "trialdata": {"rt": -1, "trial_type": "single-stim", "stimulus": "<p id=\"stim\">5</p>", "internal_node_id": "0.0-10.0-5.0", "time_elapsed": 179791, "key_press": -1, "trial_index": 15}, "uniqueid": "MTK1980:3DQQ64TANHS0CBQHJQ7FIRUHFBJWPF", "dateTime": 1516643792832}, {"current_trial": 16, "trialdata": {"rt": -1, "trial_type": "single-stim", "stimulus": "<p id=\"stim\">4</p>", "internal_node_id": "0.0-10.0-6.0", "time_elapsed": 180792, "key_press": -1, "trial_index": 16}, "uniqueid": "MTK1980:3DQQ64TANHS0CBQHJQ7FIRUHFBJWPF", "dateTime": 1516643793833}, {"current_trial": 17, "trialdata": {"rt": -1, "trial_type": "single-stim", "stimulus": "<p id=\"stim\">3</p>", "internal_node_id": "0.0-10.0-7.0", "time_elapsed": 181793, "key_press": -1, "trial_index": 17}, "uniqueid": "MTK1980:3DQQ64TANHS0CBQHJQ7FIRUHFBJWPF", "dateTime": 1516643794834}, {"current_trial": 18, "trialdata": {"rt": -1, "trial_type": "single-stim", "stimulus": "<p id=\"stim\">2</p>", "internal_node_id": "0.0-10.0-8.0", "time_elapsed": 182794, "key_press": -1, "trial_index": 18}, "uniqueid": "MTK1980:3DQQ64TANHS0CBQHJQ7FIRUHFBJWPF", "dateTime": 1516643795835}, {"current_trial": 19, "trialdata": {"rt": -1, "trial_type": "single-stim", "stimulus": "<p id=\"stim\">1</p>", "internal_node_id": "0.0-10.0-9.0", "time_elapsed": 183796, "key_press": -1, "trial_index": 19}, "uniqueid": "MTK1980:3DQQ64TANHS0CBQHJQ7FIRUHFBJWPF", "dateTime": 1516643796836}, {"current_trial": 20, "trialdata": {"rt": -1, "trial_type": "single-stim", "stimulus": "<p id=\"stim\">+</p>", "internal_node_id": "0.0-11.0-0.0", "time_elapsed": 185298, "key_press": -1, "type": "FIXATION", "trial_index": 20}, "uniqueid": "MTK1980:3DQQ64TANHS0CBQHJQ7FIRUHFBJWPF", "dateTime": 1516643798338}, {"current_trial": 21, "trialdata": {"rt": -1, "trial_type": "single-stim", "word": "truck", "stimulus": "<p id=\"stim\">TRUCK</p>", "conditions": [18, 1200, "v", 18000], "internal_node_id": "0.0-12.0", "trial": 0, "time_elapsed": 186498, "serialpos": 0, "key_press": -1, "wordID": 1511, "type": "PRES_VIS", "trial_index": 21}, "uniqueid": "MTK1980:3DQQ64TANHS0CBQHJQ7FIRUHFBJWPF", "dateTime": 1516643799539}, {"current_trial": 22, "trialdata": {"rt": -1, "trial_type": "single-stim", "word": "hornet", "stimulus": "<p id=\"stim\">HORNET</p>", "conditions": [18, 1200, "v", 18000], "internal_node_id": "0.0-13.0", "trial": 0, "time_elapsed": 188574, "serialpos": 1, "key_press": -1, "wordID": 717, "type": "PRES_VIS", "trial_index": 22}, "uniqueid": "MTK1980:3DQQ64TANHS0CBQHJQ7FIRUHFBJWPF", "dateTime": 1516643801614}, {"current_trial": 23, "trialdata": {"rt": -1, "trial_type": "single-stim", "word": "toaster", "stimulus": "<p id=\"stim\">TOASTER</p>", "conditions": [18, 1200, "v", 18000], "internal_node_id": "0.0-14.0", "trial": 0, "time_elapsed": 190803, "serialpos": 2, "key_press": -1, "wordID": 1471, "type": "PRES_VIS", "trial_index": 23}, "uniqueid": "MTK1980:3DQQ64TANHS0CBQHJQ7FIRUHFBJWPF", "dateTime": 1516643803844}, {"current_trial": 24, "trialdata": {"rt": -1, "trial_type": "single-stim", "word": "crayon", "stimulus": "<p id=\"stim\">CRAYON</p>", "conditions": [18, 1200, "v", 18000], "internal_node_id": "0.0-15.0", "trial": 0, "time_elapsed": 192996, "serialpos": 3, "key_press": -1, "wordID": 400, "type": "PRES_VIS", "trial_index": 24}, "uniqueid": "MTK1980:3DQQ64TANHS0CBQHJQ7FIRUHFBJWPF", "dateTime": 1516643806036}, {"current_trial": 25, "trialdata": {"rt": -1, "trial_type": "single-stim", "word": "author", "stimulus": "<p id=\"stim\">AUTHOR</p>", "conditions": [18, 1200, "v", 18000], "internal_node_id": "0.0-16.0", "trial": 0, "time_elapsed": 195323, "serialpos": 4, "key_press": -1, "wordID": 60, "type": "PRES_VIS", "trial_index": 25}, "uniqueid": "MTK1980:3DQQ64TANHS0CBQHJQ7FIRUHFBJWPF", "dateTime": 1516643808363}, {"current_trial": 26, "trialdata": {"rt": -1, "trial_type": "single-stim", "word": "robot", "stimulus": "<p id=\"stim\">ROBOT</p>", "conditions": [18, 1200, "v", 18000], "internal_node_id": "0.0-17.0", "trial": 0, "time_elapsed": 197355, "serialpos": 5, "key_press": -1, "wordID": 1199, "type": "PRES_VIS", "trial_index": 26}, "uniqueid": "MTK1980:3DQQ64TANHS0CBQHJQ7FIRUHFBJWPF", "dateTime": 1516643810395}, {"current_trial": 27, "trialdata": {"rt": -1, "trial_type": "single-stim", "word": "transplant", "stimulus": "<p id=\"stim\">TRANSPLANT</p>", "conditions": [18, 1200, "v", 18000], "internal_node_id": "0.0-18.0", "trial": 0, "time_elapsed": 199664, "serialpos": 6, "key_press": -1, "wordID": 1495, "type": "PRES_VIS", "trial_index": 27}, "uniqueid": "MTK1980:3DQQ64TANHS0CBQHJQ7FIRUHFBJWPF", "dateTime": 1516643812705}, {"current_trial": 28, "trialdata": {"rt": -1, "trial_type": "single-stim", "word": "swamp", "stimulus": "<p id=\"stim\">SWAMP</p>", "conditions": [18, 1200, "v", 18000], "internal_node_id": "0.0-19.0", "trial": 0, "time_elapsed": 202041, "serialpos": 7, "key_press": -1, "wordID": 1415, "type": "PRES_VIS", "trial_index": 28}, "uniqueid": "MTK1980:3DQQ64TANHS0CBQHJQ7FIRUHFBJWPF", "dateTime": 1516643815082}, {"current_trial": 29, "trialdata": {"rt": -1, "trial_type": "single-stim", "word": "ankle", "stimulus": "<p id=\"stim\">ANKLE</p>", "conditions": [18, 1200, "v", 18000], "internal_node_id": "0.0-20.0", "trial": 0, "time_elapsed": 204337, "serialpos": 8, "key_press": -1, "wordID": 23, "type": "PRES_VIS", "trial_index": 29}, "uniqueid": "MTK1980:3DQQ64TANHS0CBQHJQ7FIRUHFBJWPF", "dateTime": 1516643817377}, {"current_trial": 30, "trialdata": {"rt": -1, "trial_type": "single-stim", "word": "garbage", "stimulus": "<p id=\"stim\">GARBAGE</p>", "conditions": [18, 1200, "v", 18000], "internal_node_id": "0.0-21.0", "trial": 0, "time_elapsed": 206558, "serialpos": 9, "key_press": -1, "wordID": 621, "type": "PRES_VIS", "trial_index": 30}, "uniqueid": "MTK1980:3DQQ64TANHS0CBQHJQ7FIRUHFBJWPF", "dateTime": 1516643819598}, {"current_trial": 31, "trialdata": {"rt": -1, "trial_type": "single-stim", "word": "statue", "stimulus": "<p id=\"stim\">STATUE</p>", "conditions": [18, 1200, "v", 18000], "internal_node_id": "0.0-22.0", "trial": 0, "time_elapsed": 208862, "serialpos": 10, "key_press": -1, "wordID": 1373, "type": "PRES_VIS", "trial_index": 31}, "uniqueid": "MTK1980:3DQQ64TANHS0CBQHJQ7FIRUHFBJWPF", "dateTime": 1516643821903}, {"current_trial": 32, "trialdata": {"rt": -1, "trial_type": "single-stim", "word": "robber", "stimulus": "<p id=\"stim\">ROBBER</p>", "conditions": [18, 1200, "v", 18000], "internal_node_id": "0.0-23.0", "trial": 0, "time_elapsed": 211250, "serialpos": 11, "key_press": -1, "wordID": 1196, "type": "PRES_VIS", "trial_index": 32}, "uniqueid": "MTK1980:3DQQ64TANHS0CBQHJQ7FIRUHFBJWPF", "dateTime": 1516643824290}, {"current_trial": 33, "trialdata": {"rt": -1, "trial_type": "single-stim", "word": "waitress", "stimulus": "<p id=\"stim\">WAITRESS</p>", "conditions": [18, 1200, "v", 18000], "internal_node_id": "0.0-24.0", "trial": 0, "time_elapsed": 213484, "serialpos": 12, "key_press": -1, "wordID": 1580, "type": "PRES_VIS", "trial_index": 33}, "uniqueid": "MTK1980:3DQQ64TANHS0CBQHJQ7FIRUHFBJWPF", "dateTime": 1516643826524}, {"current_trial": 34, "trialdata": {"rt": -1, "trial_type": "single-stim", "word": "velvet", "stimulus": "<p id=\"stim\">VELVET</p>", "conditions": [18, 1200, "v", 18000], "internal_node_id": "0.0-25.0", "trial": 0, "time_elapsed": 215609, "serialpos": 13, "key_press": -1, "wordID": 1554, "type": "PRES_VIS", "trial_index": 34}, "uniqueid": "MTK1980:3DQQ64TANHS0CBQHJQ7FIRUHFBJWPF", "dateTime": 1516643828650}, {"current_trial": 35, "trialdata": {"rt": -1, "trial_type": "single-stim", "word": "dragon", "stimulus": "<p id=\"stim\">DRAGON</p>", "conditions": [18, 1200, "v", 18000], "internal_node_id": "0.0-26.0", "trial": 0, "time_elapsed": 217645, "serialpos": 14, "key_press": -1, "wordID": 491, "type": "PRES_VIS", "trial_index": 35}, "uniqueid": "MTK1980:3DQQ64TANHS0CBQHJQ7FIRUHFBJWPF", "dateTime": 1516643830686}, {"current_trial": 36, "trialdata": {"rt": -1, "trial_type": "single-stim", "word": "glove", "stimulus": "<p id=\"stim\">GLOVE</p>", "conditions": [18, 1200, "v", 18000], "internal_node_id": "0.0-27.0", "trial": 0, "time_elapsed": 219987, "serialpos": 15, "key_press": -1, "wordID": 641, "type": "PRES_VIS", "trial_index": 36}, "uniqueid": "MTK1980:3DQQ64TANHS0CBQHJQ7FIRUHFBJWPF", "dateTime": 1516643833027}, {"current_trial": 37, "trialdata": {"rt": -1, "trial_type": "single-stim", "word": "dust", "stimulus": "<p id=\"stim\">DUST</p>", "conditions": [18, 1200, "v", 18000], "internal_node_id": "0.0-28.0", "trial": 0, "time_elapsed": 222233, "serialpos": 16, "key_press": -1, "wordID": 507, "type": "PRES_VIS", "trial_index": 37}, "uniqueid": "MTK1980:3DQQ64TANHS0CBQHJQ7FIRUHFBJWPF", "dateTime": 1516643835274}, {"current_trial": 38, "trialdata": {"rt": -1, "trial_type": "single-stim", "word": "worker", "stimulus": "<p id=\"stim\">WORKER</p>", "conditions": [18, 1200, "v", 18000], "internal_node_id": "0.0-29.0", "trial": 0, "time_elapsed": 224301, "serialpos": 17, "key_press": -1, "wordID": 1620, "type": "PRES_VIS", "trial_index": 38}, "uniqueid": "MTK1980:3DQQ64TANHS0CBQHJQ7FIRUHFBJWPF", "dateTime": 1516643837341}, {"current_trial": 39, "trialdata": {"rt": -1, "trial_type": "single-stim", "stimulus": "", "internal_node_id": "0.0-30.0-0.0", "time_elapsed": 226728, "key_press": -1, "type": "PRE_RECALL_DELAY", "trial_index": 39}, "uniqueid": "MTK1980:3DQQ64TANHS0CBQHJQ7FIRUHFBJWPF", "dateTime": 1516643839768}, {"current_trial": 40, "trialdata": {"rt": -1000, "trial_type": "single-audio", "stimulus": "/static/audio/400Hz.wav", "internal_node_id": "0.0-31.0", "time_elapsed": 227231, "key_press": -1, "type": "PRE_RECALL_ALERT", "trial_index": 40}, "uniqueid": "MTK1980:3DQQ64TANHS0CBQHJQ7FIRUHFBJWPF", "dateTime": 1516643840271}, {"current_trial": 41, "trialdata": {"rt": [3721, 5093, 6355, 7837, 10418, 12772, 14710, 17355, 19913, 23189, 24940, 26547], "recwords": ["dragon", "glove", "dust", "worker", "waitress", "velvet", "swamp", "transplant", "truck", "hornet", "ankle", "swamp"], "key_times": [2493, 2742, 2874, 3092, 3203, 3425, 3721, 4177, 4321, 4547, 4693, 4929, 5093, 5387, 5536, 5659, 5883, 6355, 6703, 6777, 6993, 7107, 7288, 7505, 7837, 8217, 8424, 8941, 9240, 9482, 9669, 10057, 10250, 10418, 10715, 10948, 11124, 11509, 11774, 12090, 12772, 13272, 13505, 13704, 14168, 14404, 14710, 15080, 15284, 15432, 15570, 15717, 16478, 16746, 16924, 17034, 17245, 17355, 18389, 18639, 18801, 18969, 19200, 19913, 21427, 21607, 21777, 21967, 22113, 22372, 23189, 23465, 23614, 24273, 24532, 24710, 24940, 25301, 25532, 25747, 25927, 26197, 26547], "trial_type": "free-recall", "conditions": [18, 1200, "v", 18000], "internal_node_id": "0.0-32.0-0.0", "key_presses": [68, 82, 65, 71, 79, 78, 13, 71, 76, 79, 86, 69, 13, 68, 85, 83, 84, 13, 87, 79, 82, 75, 69, 82, 13, 87, 65, 73, 84, 82, 69, 83, 83, 13, 86, 69, 76, 86, 69, 84, 13, 83, 87, 65, 77, 80, 13, 84, 82, 65, 78, 83, 80, 76, 65, 78, 84, 13, 84, 82, 85, 67, 75, 13, 72, 79, 82, 78, 69, 84, 13, 65, 78, 75, 76, 69, 13, 83, 87, 65, 77, 80, 13], "trial": 0, "time_elapsed": 287234, "type": "FREE_RECALL", "trial_index": 41}, "uniqueid": "MTK1980:3DQQ64TANHS0CBQHJQ7FIRUHFBJWPF", "dateTime": 1516643900278}, {"current_trial": 42, "trialdata": {"rt": 2107, "trial_type": "text", "internal_node_id": "0.0-33.0", "time_elapsed": 291345, "key_press": 13, "type": "INSTRUCTIONS", "trial_index": 42}, "uniqueid": "MTK1980:3DQQ64TANHS0CBQHJQ7FIRUHFBJWPF", "dateTime": 1516643904386}, {"current_trial": 43, "trialdata": {"rt": [2725, 5130, 7416, 9733, 14938, 17060], "trial_type": "math-distractor", "key_times": [2093, 2306, 2725, 4590, 4774, 5130, 6844, 7097, 7416, 9090, 9347, 9733, 14495, 14701, 14938, 16478, 16691, 17060], "responses": ["14", "11", "14", "15", "21", "12"], "num2": [5, 1, 6, 3, 9, 1, 7], "num3": [2, 5, 6, 9, 7, 8, 6], "conditions": [18, 1200, "v", 18000], "internal_node_id": "0.0-34.0", "key_presses": [97, 100, 13, 97, 97, 13, 97, 100, 13, 97, 101, 13, 98, 97, 13, 97, 98, 13], "trial": 1, "time_elapsed": 311348, "type": "DISTRACTOR", "trial_index": 43, "num1": [7, 5, 2, 3, 5, 3, 4]}, "uniqueid": "MTK1980:3DQQ64TANHS0CBQHJQ7FIRUHFBJWPF", "dateTime": 1516643924388}, {"current_trial": 44, "trialdata": {"rt": -1, "trial_type": "single-stim", "stimulus": "<p id=\"stim\">10</p>", "internal_node_id": "0.0-35.0-0.0", "time_elapsed": 314348, "key_press": -1, "trial_index": 44}, "uniqueid": "MTK1980:3DQQ64TANHS0CBQHJQ7FIRUHFBJWPF", "dateTime": 1516643927389}, {"current_trial": 45, "trialdata": {"rt": -1, "trial_type": "single-stim", "stimulus": "<p id=\"stim\">9</p>", "internal_node_id": "0.0-35.0-1.0", "time_elapsed": 315350, "key_press": -1, "trial_index": 45}, "uniqueid": "MTK1980:3DQQ64TANHS0CBQHJQ7FIRUHFBJWPF", "dateTime": 1516643928390}, {"current_trial": 46, "trialdata": {"rt": -1, "trial_type": "single-stim", "stimulus": "<p id=\"stim\">8</p>", "internal_node_id": "0.0-35.0-2.0", "time_elapsed": 316351, "key_press": -1, "trial_index": 46}, "uniqueid": "MTK1980:3DQQ64TANHS0CBQHJQ7FIRUHFBJWPF", "dateTime": 1516643929392}, {"current_trial": 47, "trialdata": {"rt": -1, "trial_type": "single-stim", "stimulus": "<p id=\"stim\">7</p>", "internal_node_id": "0.0-35.0-3.0", "time_elapsed": 317354, "key_press": -1, "trial_index": 47}, "uniqueid": "MTK1980:3DQQ64TANHS0CBQHJQ7FIRUHFBJWPF", "dateTime": 1516643930394}, {"current_trial": 48, "trialdata": {"rt": -1, "trial_type": "single-stim", "stimulus": "<p id=\"stim\">6</p>", "internal_node_id": "0.0-35.0-4.0", "time_elapsed": 318356, "key_press": -1, "trial_index": 48}, "uniqueid": "MTK1980:3DQQ64TANHS0CBQHJQ7FIRUHFBJWPF", "dateTime": 1516643931396}, {"current_trial": 49, "trialdata": {"rt": -1, "trial_type": "single-stim", "stimulus": "<p id=\"stim\">5</p>", "internal_node_id": "0.0-35.0-5.0", "time_elapsed": 319357, "key_press": -1, "trial_index": 49}, "uniqueid": "MTK1980:3DQQ64TANHS0CBQHJQ7FIRUHFBJWPF", "dateTime": 1516643932398}, {"current_trial": 50, "trialdata": {"rt": -1, "trial_type": "single-stim", "stimulus": "<p id=\"stim\">4</p>", "internal_node_id": "0.0-35.0-6.0", "time_elapsed": 320358, "key_press": -1, "trial_index": 50}, "uniqueid": "MTK1980:3DQQ64TANHS0CBQHJQ7FIRUHFBJWPF", "dateTime": 1516643933399}, {"current_trial": 51, "trialdata": {"rt": -1, "trial_type": "single-stim", "stimulus": "<p id=\"stim\">3</p>", "internal_node_id": "0.0-35.0-7.0", "time_elapsed": 321360, "key_press": -1, "trial_index": 51}, "uniqueid": "MTK1980:3DQQ64TANHS0CBQHJQ7FIRUHFBJWPF", "dateTime": 1516643934400}, {"current_trial": 52, "trialdata": {"rt": -1, "trial_type": "single-stim", "stimulus": "<p id=\"stim\">2</p>", "internal_node_id": "0.0-35.0-8.0", "time_elapsed": 322360, "key_press": -1, "trial_index": 52}, "uniqueid": "MTK1980:3DQQ64TANHS0CBQHJQ7FIRUHFBJWPF", "dateTime": 1516643935402}, {"current_trial": 53, "trialdata": {"rt": -1, "trial_type": "single-stim", "stimulus": "<p id=\"stim\">1</p>", "internal_node_id": "0.0-35.0-9.0", "time_elapsed": 323363, "key_press": -1, "trial_index": 53}, "uniqueid": "MTK1980:3DQQ64TANHS0CBQHJQ7FIRUHFBJWPF", "dateTime": 1516643936403}, {"current_trial": 54, "trialdata": {"rt": -1, "trial_type": "single-stim", "stimulus": "<p id=\"stim\">+</p>", "internal_node_id": "0.0-36.0-0.0", "time_elapsed": 324863, "key_press": -1, "type": "FIXATION", "trial_index": 54}, "uniqueid": "MTK1980:3DQQ64TANHS0CBQHJQ7FIRUHFBJWPF", "dateTime": 1516643937904}, {"current_trial": 55, "trialdata": {"rt": -1, "trial_type": "single-stim", "word": "sunset", "stimulus": "<p id=\"stim\">SUNSET</p>", "conditions": [18, 1200, "v", 18000], "internal_node_id": "0.0-37.0", "trial": 1, "time_elapsed": 326066, "serialpos": 0, "key_press": -1, "wordID": 1407, "type": "PRES_VIS", "trial_index": 55}, "uniqueid": "MTK1980:3DQQ64TANHS0CBQHJQ7FIRUHFBJWPF", "dateTime": 1516643939106}, {"current_trial": 56, "trialdata": {"rt": -1, "trial_type": "single-stim", "word": "costume", "stimulus": "<p id=\"stim\">COSTUME</p>", "conditions": [18, 1200, "v", 18000], "internal_node_id": "0.0-38.0", "trial": 1, "time_elapsed": 328211, "serialpos": 1, "key_press": -1, "wordID": 382, "type": "PRES_VIS", "trial_index": 56}, "uniqueid": "MTK1980:3DQQ64TANHS0CBQHJQ7FIRUHFBJWPF", "dateTime": 1516643941252}, {"current_trial": 57, "trialdata": {"rt": -1, "trial_type": "single-stim", "word": "asia", "stimulus": "<p id=\"stim\">ASIA</p>", "conditions": [18, 1200, "v", 18000], "internal_node_id": "0.0-39.0", "trial": 1, "time_elapsed": 330361, "serialpos": 2, "key_press": -1, "wordID": 45, "type": "PRES_VIS", "trial_index": 57}, "uniqueid": "MTK1980:3DQQ64TANHS0CBQHJQ7FIRUHFBJWPF", "dateTime": 1516643943401}, {"current_trial": 58, "trialdata": {"rt": -1, "trial_type": "single-stim", "word": "salmon", "stimulus": "<p id=\"stim\">SALMON</p>", "conditions": [18, 1200, "v", 18000], "internal_node_id": "0.0-40.0", "trial": 1, "time_elapsed": 332567, "serialpos": 3, "key_press": -1, "wordID": 1226, "type": "PRES_VIS", "trial_index": 58}, "uniqueid": "MTK1980:3DQQ64TANHS0CBQHJQ7FIRUHFBJWPF", "dateTime": 1516643945608}, {"current_trial": 59, "trialdata": {"rt": -1, "trial_type": "single-stim", "word": "slug", "stimulus": "<p id=\"stim\">SLUG</p>", "conditions": [18, 1200, "v", 18000], "internal_node_id": "0.0-41.0", "trial": 1, "time_elapsed": 334694, "serialpos": 4, "key_press": -1, "wordID": 1328, "type": "PRES_VIS", "trial_index": 59}, "uniqueid": "MTK1980:3DQQ64TANHS0CBQHJQ7FIRUHFBJWPF", "dateTime": 1516643947735}, {"current_trial": 60, "trialdata": {"rt": -1, "trial_type": "single-stim", "word": "guitar", "stimulus": "<p id=\"stim\">GUITAR</p>", "conditions": [18, 1200, "v", 18000], "internal_node_id": "0.0-42.0", "trial": 1, "time_elapsed": 336927, "serialpos": 5, "key_press": -1, "wordID": 669, "type": "PRES_VIS", "trial_index": 60}, "uniqueid": "MTK1980:3DQQ64TANHS0CBQHJQ7FIRUHFBJWPF", "dateTime": 1516643949968}, {"current_trial": 61, "trialdata": {"rt": -1, "trial_type": "single-stim", "word": "carriage", "stimulus": "<p id=\"stim\">CARRIAGE</p>", "conditions": [18, 1200, "v", 18000], "internal_node_id": "0.0-43.0", "trial": 1, "time_elapsed": 339309, "serialpos": 6, "key_press": -1, "wordID": 247, "type": "PRES_VIS", "trial_index": 61}, "uniqueid": "MTK1980:3DQQ64TANHS0CBQHJQ7FIRUHFBJWPF", "dateTime": 1516643952349}, {"current_trial": 62, "trialdata": {"rt": -1, "trial_type": "single-stim", "word": "scissors", "stimulus": "<p id=\"stim\">SCISSORS</p>", "conditions": [18, 1200, "v", 18000], "internal_node_id": "0.0-44.0", "trial": 1, "time_elapsed": 341669, "serialpos": 7, "key_press": -1, "wordID": 1249, "type": "PRES_VIS", "trial_index": 62}, "uniqueid": "MTK1980:3DQQ64TANHS0CBQHJQ7FIRUHFBJWPF", "dateTime": 1516643954710}, {"current_trial": 63, "trialdata": {"rt": -1, "trial_type": "single-stim", "word": "female", "stimulus": "<p id=\"stim\">FEMALE</p>", "conditions": [18, 1200, "v", 18000], "internal_node_id": "0.0-45.0", "trial": 1, "time_elapsed": 343783, "serialpos": 8, "key_press": -1, "wordID": 558, "type": "PRES_VIS", "trial_index": 63}, "uniqueid": "MTK1980:3DQQ64TANHS0CBQHJQ7FIRUHFBJWPF", "dateTime": 1516643956823}, {"current_trial": 64, "trialdata": {"rt": -1, "trial_type": "single-stim", "word": "loft", "stimulus": "<p id=\"stim\">LOFT</p>", "conditions": [18, 1200, "v", 18000], "internal_node_id": "0.0-46.0", "trial": 1, "time_elapsed": 346148, "serialpos": 9, "key_press": -1, "wordID": 839, "type": "PRES_VIS", "trial_index": 64}, "uniqueid": "MTK1980:3DQQ64TANHS0CBQHJQ7FIRUHFBJWPF", "dateTime": 1516643959189}, {"current_trial": 65, "trialdata": {"rt": -1, "trial_type": "single-stim", "word": "paddle", "stimulus": "<p id=\"stim\">PADDLE</p>", "conditions": [18, 1200, "v", 18000], "internal_node_id": "0.0-47.0", "trial": 1, "time_elapsed": 348411, "serialpos": 10, "key_press": -1, "wordID": 999, "type": "PRES_VIS", "trial_index": 65}, "uniqueid": "MTK1980:3DQQ64TANHS0CBQHJQ7FIRUHFBJWPF", "dateTime": 1516643961452}, {"current_trial": 66, "trialdata": {"rt": -1, "trial_type": "single-stim", "word": "forehead", "stimulus": "<p id=\"stim\">FOREHEAD</p>", "conditions": [18, 1200, "v", 18000], "internal_node_id": "0.0-48.0", "trial": 1, "time_elapsed": 350540, "serialpos": 11, "key_press": -1, "wordID": 591, "type": "PRES_VIS", "trial_index": 66}, "uniqueid": "MTK1980:3DQQ64TANHS0CBQHJQ7FIRUHFBJWPF", "dateTime": 1516643963580}, {"current_trial": 67, "trialdata": {"rt": -1, "trial_type": "single-stim", "word": "jury", "stimulus": "<p id=\"stim\">JURY</p>", "conditions": [18, 1200, "v", 18000], "internal_node_id": "0.0-49.0", "trial": 1, "time_elapsed": 352775, "serialpos": 12, "key_press": -1, "wordID": 765, "type": "PRES_VIS", "trial_index": 67}, "uniqueid": "MTK1980:3DQQ64TANHS0CBQHJQ7FIRUHFBJWPF", "dateTime": 1516643965815}, {"current_trial": 68, "trialdata": {"rt": -1, "trial_type": "single-stim", "word": "postage", "stimulus": "<p id=\"stim\">POSTAGE</p>", "conditions": [18, 1200, "v", 18000], "internal_node_id": "0.0-50.0", "trial": 1, "time_elapsed": 355093, "serialpos": 13, "key_press": -1, "wordID": 1112, "type": "PRES_VIS", "trial_index": 68}, "uniqueid": "MTK1980:3DQQ64TANHS0CBQHJQ7FIRUHFBJWPF", "dateTime": 1516643968136}, {"current_trial": 69, "trialdata": {"rt": -1, "trial_type": "single-stim", "word": "barrel", "stimulus": "<p id=\"stim\">BARREL</p>", "conditions": [18, 1200, "v", 18000], "internal_node_id": "0.0-51.0", "trial": 1, "time_elapsed": 357334, "serialpos": 14, "key_press": -1, "wordID": 90, "type": "PRES_VIS", "trial_index": 69}, "uniqueid": "MTK1980:3DQQ64TANHS0CBQHJQ7FIRUHFBJWPF", "dateTime": 1516643970376}, {"current_trial": 70, "trialdata": {"rt": -1, "trial_type": "single-stim", "word": "cottage", "stimulus": "<p id=\"stim\">COTTAGE</p>", "conditions": [18, 1200, "v", 18000], "internal_node_id": "0.0-52.0", "trial": 1, "time_elapsed": 359484, "serialpos": 15, "key_press": -1, "wordID": 383, "type": "PRES_VIS", "trial_index": 70}, "uniqueid": "MTK1980:3DQQ64TANHS0CBQHJQ7FIRUHFBJWPF", "dateTime": 1516643972524}, {"current_trial": 71, "trialdata": {"rt": -1, "trial_type": "single-stim", "word": "mildew", "stimulus": "<p id=\"stim\">MILDEW</p>", "conditions": [18, 1200, "v", 18000], "internal_node_id": "0.0-53.0", "trial": 1, "time_elapsed": 361486, "serialpos": 16, "key_press": -1, "wordID": 892, "type": "PRES_VIS", "trial_index": 71}, "uniqueid": "MTK1980:3DQQ64TANHS0CBQHJQ7FIRUHFBJWPF", "dateTime": 1516643974526}, {"current_trial": 72, "trialdata": {"rt": -1, "trial_type": "single-stim", "word": "suitcase", "stimulus": "<p id=\"stim\">SUITCASE</p>", "conditions": [18, 1200, "v", 18000], "internal_node_id": "0.0-54.0", "trial": 1, "time_elapsed": 363570, "serialpos": 17, "key_press": -1, "wordID": 1402, "type": "PRES_VIS", "trial_index": 72}, "uniqueid": "MTK1980:3DQQ64TANHS0CBQHJQ7FIRUHFBJWPF", "dateTime": 1516643976611}, {"current_trial": 73, "trialdata": {"rt": -1, "trial_type": "single-stim", "stimulus": "", "internal_node_id": "0.0-55.0-0.0", "time_elapsed": 366113, "key_press": -1, "type": "PRE_RECALL_DELAY", "trial_index": 73}, "uniqueid": "MTK1980:3DQQ64TANHS0CBQHJQ7FIRUHFBJWPF", "dateTime": 1516643979154}, {"current_trial": 74, "trialdata": {"rt": -1000, "trial_type": "single-audio", "stimulus": "/static/audio/400Hz.wav", "internal_node_id": "0.0-56.0", "time_elapsed": 366617, "key_press": -1, "type": "PRE_RECALL_ALERT", "trial_index": 74}, "uniqueid": "MTK1980:3DQQ64TANHS0CBQHJQ7FIRUHFBJWPF", "dateTime": 1516643979657}, {"current_trial": 75, "trialdata": {"rt": [3293, 6548, 8149, 9913, 10960, 12806, 15300, 18904, 40263, 42731, 48026, 52803], "recwords": ["mildew", "suitcase", "barrel", "cottage", "slug", "guitar", "women", "loft", "scissors", "carriage", "trout", "china"], "key_times": [1825, 2042, 2255, 2623, 2861, 3080, 3293, 3592, 3771, 3983, 4188, 4464, 4505, 4659, 5156, 5324, 5740, 6142, 6398, 6548, 6831, 6991, 7250, 7417, 7640, 7888, 8149, 8385, 8536, 8719, 8879, 9230, 9481, 9747, 9913, 10265, 10373, 10588, 10770, 10960, 11419, 11653, 11843, 12061, 12247, 12558, 12806, 14210, 14313, 14479, 14623, 14771, 15300, 15617, 15840, 17297, 18050, 18331, 18576, 18904, 37677, 37919, 38049, 38302, 38465, 38618, 38802, 39014, 39603, 39906, 40263, 40656, 40830, 41078, 41244, 41436, 41546, 41773, 42008, 42731, 46813, 47119, 47296, 47437, 47633, 48026, 51141, 52004, 52219, 52426, 52593, 52803], "trial_type": "free-recall", "conditions": [18, 1200, "v", 18000], "internal_node_id": "0.0-57.0-0.0", "key_presses": [77, 73, 76, 68, 69, 87, 13, 83, 85, 73, 84, 67, 67, 65, 8, 8, 65, 83, 69, 13, 66, 65, 82, 82, 69, 76, 13, 67, 79, 84, 84, 65, 71, 69, 13, 83, 76, 85, 71, 13, 71, 85, 73, 84, 65, 82, 13, 87, 79, 77, 69, 78, 13, 76, 79, 84, 8, 70, 84, 13, 83, 67, 73, 83, 83, 79, 82, 69, 8, 83, 13, 67, 65, 82, 82, 73, 65, 71, 69, 13, 84, 82, 79, 85, 84, 13, 67, 72, 73, 78, 65, 13], "trial": 1, "time_elapsed": 426621, "type": "FREE_RECALL", "trial_index": 75}, "uniqueid": "MTK1980:3DQQ64TANHS0CBQHJQ7FIRUHFBJWPF", "dateTime": 1516644039663}, {"current_trial": 76, "trialdata": {"rt": 1685, "trial_type": "text", "internal_node_id": "0.0-58.0", "time_elapsed": 430309, "key_press": 13, "type": "INSTRUCTIONS", "trial_index": 76}, "uniqueid": "MTK1980:3DQQ64TANHS0CBQHJQ7FIRUHFBJWPF", "dateTime": 1516644043349}, {"current_trial": 77, "trialdata": {"rt": [2167, 5186, 8420, 10571, 12559, 15096, 17476, 20254, 22360], "trial_type": "math-distractor", "key_times": [1679, 1901, 2167, 4531, 4749, 5186, 7707, 8022, 8420, 10055, 10266, 10571, 12078, 12281, 12559, 14462, 14785, 15096, 17177, 17476, 19723, 20254, 21836, 22072, 22360, 23860], "responses": ["15", "26", "17", "10", "20", "17", "9", "9", "15"], "num2": [3, 9, 8, 1, 7, 9, 5, 5, 5, 7], "num3": [6, 9, 4, 7, 4, 4, 3, 3, 6, 3], "conditions": [12, 1600, "v", 24000], "internal_node_id": "0.0-59.0", "key_presses": [97, 101, 13, 98, 102, 13, 97, 103, 13, 97, 96, 13, 98, 96, 13, 97, 103, 13, 105, 13, 105, 13, 97, 101, 13, 97], "trial": 2, "time_elapsed": 455311, "type": "DISTRACTOR", "trial_index": 77, "num1": [6, 8, 5, 2, 9, 4, 1, 1, 4, 8]}, "uniqueid": "MTK1980:3DQQ64TANHS0CBQHJQ7FIRUHFBJWPF", "dateTime": 1516644068352}, {"current_trial": 78, "trialdata": {"rt": -1, "trial_type": "single-stim", "stimulus": "<p id=\"stim\">10</p>", "internal_node_id": "0.0-60.0-0.0", "time_elapsed": 458313, "key_press": -1, "trial_index": 78}, "uniqueid": "MTK1980:3DQQ64TANHS0CBQHJQ7FIRUHFBJWPF", "dateTime": 1516644071353}, {"current_trial": 79, "trialdata": {"rt": -1, "trial_type": "single-stim", "stimulus": "<p id=\"stim\">9</p>", "internal_node_id": "0.0-60.0-1.0", "time_elapsed": 459313, "key_press": -1, "trial_index": 79}, "uniqueid": "MTK1980:3DQQ64TANHS0CBQHJQ7FIRUHFBJWPF", "dateTime": 1516644072354}, {"current_trial": 80, "trialdata": {"rt": -1, "trial_type": "single-stim", "stimulus": "<p id=\"stim\">8</p>", "internal_node_id": "0.0-60.0-2.0", "time_elapsed": 460314, "key_press": -1, "trial_index": 80}, "uniqueid": "MTK1980:3DQQ64TANHS0CBQHJQ7FIRUHFBJWPF", "dateTime": 1516644073355}, {"current_trial": 81, "trialdata": {"rt": -1, "trial_type": "single-stim", "stimulus": "<p id=\"stim\">7</p>", "internal_node_id": "0.0-60.0-3.0", "time_elapsed": 461315, "key_press": -1, "trial_index": 81}, "uniqueid": "MTK1980:3DQQ64TANHS0CBQHJQ7FIRUHFBJWPF", "dateTime": 1516644074356}, {"current_trial": 82, "trialdata": {"rt": -1, "trial_type": "single-stim", "stimulus": "<p id=\"stim\">6</p>", "internal_node_id": "0.0-60.0-4.0", "time_elapsed": 462316, "key_press": -1, "trial_index": 82}, "uniqueid": "MTK1980:3DQQ64TANHS0CBQHJQ7FIRUHFBJWPF", "dateTime": 1516644075357}, {"current_trial": 83, "trialdata": {"rt": -1, "trial_type": "single-stim", "stimulus": "<p id=\"stim\">5</p>", "internal_node_id": "0.0-60.0-5.0", "time_elapsed": 463317, "key_press": -1, "trial_index": 83}, "uniqueid": "MTK1980:3DQQ64TANHS0CBQHJQ7FIRUHFBJWPF", "dateTime": 1516644076358}, {"current_trial": 84, "trialdata": {"rt": -1, "trial_type": "single-stim", "stimulus": "<p id=\"stim\">4</p>", "internal_node_id": "0.0-60.0-6.0", "time_elapsed": 464319, "key_press": -1, "trial_index": 84}, "uniqueid": "MTK1980:3DQQ64TANHS0CBQHJQ7FIRUHFBJWPF", "dateTime": 1516644077360}, {"current_trial": 85, "trialdata": {"rt": -1, "trial_type": "single-stim", "stimulus": "<p id=\"stim\">3</p>", "internal_node_id": "0.0-60.0-7.0", "time_elapsed": 465321, "key_press": -1, "trial_index": 85}, "uniqueid": "MTK1980:3DQQ64TANHS0CBQHJQ7FIRUHFBJWPF", "dateTime": 1516644078361}, {"current_trial": 86, "trialdata": {"rt": -1, "trial_type": "single-stim", "stimulus": "<p id=\"stim\">2</p>", "internal_node_id": "0.0-60.0-8.0", "time_elapsed": 466322, "key_press": -1, "trial_index": 86}, "uniqueid": "MTK1980:3DQQ64TANHS0CBQHJQ7FIRUHFBJWPF", "dateTime": 1516644079362}, {"current_trial": 87, "trialdata": {"rt": -1, "trial_type": "single-stim", "stimulus": "<p id=\"stim\">1</p>", "internal_node_id": "0.0-60.0-9.0", "time_elapsed": 467322, "key_press": -1, "trial_index": 87}, "uniqueid": "MTK1980:3DQQ64TANHS0CBQHJQ7FIRUHFBJWPF", "dateTime": 1516644080363}, {"current_trial": 88, "trialdata": {"rt": -1, "trial_type": "single-stim", "stimulus": "<p id=\"stim\">+</p>", "internal_node_id": "0.0-61.0-0.0", "time_elapsed": 468823, "key_press": -1, "type": "FIXATION", "trial_index": 88}, "uniqueid": "MTK1980:3DQQ64TANHS0CBQHJQ7FIRUHFBJWPF", "dateTime": 1516644081864}, {"current_trial": 89, "trialdata": {"rt": -1, "trial_type": "single-stim", "word": "garlic", "stimulus": "<p id=\"stim\">GARLIC</p>", "conditions": [12, 1600, "v", 24000], "internal_node_id": "0.0-62.0", "trial": 2, "time_elapsed": 470424, "serialpos": 0, "key_press": -1, "wordID": 623, "type": "PRES_VIS", "trial_index": 89}, "uniqueid": "MTK1980:3DQQ64TANHS0CBQHJQ7FIRUHFBJWPF", "dateTime": 1516644083465}, {"current_trial": 90, "trialdata": {"rt": -1, "trial_type": "single-stim", "word": "snack", "stimulus": "<p id=\"stim\">SNACK</p>", "conditions": [12, 1600, "v", 24000], "internal_node_id": "0.0-63.0", "trial": 2, "time_elapsed": 472929, "serialpos": 1, "key_press": -1, "wordID": 1330, "type": "PRES_VIS", "trial_index": 90}, "uniqueid": "MTK1980:3DQQ64TANHS0CBQHJQ7FIRUHFBJWPF", "dateTime": 1516644085969}, {"current_trial": 91, "trialdata": {"rt": -1, "trial_type": "single-stim", "word": "ox", "stimulus": "<p id=\"stim\">OX</p>", "conditions": [12, 1600, "v", 24000], "internal_node_id": "0.0-64.0", "trial": 2, "time_elapsed": 475467, "serialpos": 2, "key_press": -1, "wordID": 993, "type": "PRES_VIS", "trial_index": 91}, "uniqueid": "MTK1980:3DQQ64TANHS0CBQHJQ7FIRUHFBJWPF", "dateTime": 1516644088508}, {"current_trial": 92, "trialdata": {"rt": -1, "trial_type": "single-stim", "word": "palace", "stimulus": "<p id=\"stim\">PALACE</p>", "conditions": [12, 1600, "v", 24000], "internal_node_id": "0.0-65.0", "trial": 2, "time_elapsed": 478166, "serialpos": 3, "key_press": -1, "wordID": 1005, "type": "PRES_VIS", "trial_index": 92}, "uniqueid": "MTK1980:3DQQ64TANHS0CBQHJQ7FIRUHFBJWPF", "dateTime": 1516644091207}, {"current_trial": 93, "trialdata": {"rt": -1, "trial_type": "single-stim", "word": "onion", "stimulus": "<p id=\"stim\">ONION</p>", "conditions": [12, 1600, "v", 24000], "internal_node_id": "0.0-66.0", "trial": 2, "time_elapsed": 480568, "serialpos": 4, "key_press": -1, "wordID": 976, "type": "PRES_VIS", "trial_index": 93}, "uniqueid": "MTK1980:3DQQ64TANHS0CBQHJQ7FIRUHFBJWPF", "dateTime": 1516644093609}, {"current_trial": 94, "trialdata": {"rt": -1, "trial_type": "single-stim", "word": "glass", "stimulus": "<p id=\"stim\">GLASS</p>", "conditions": [12, 1600, "v", 24000], "internal_node_id": "0.0-67.0", "trial": 2, "time_elapsed": 482994, "serialpos": 5, "key_press": -1, "wordID": 638, "type": "PRES_VIS", "trial_index": 94}, "uniqueid": "MTK1980:3DQQ64TANHS0CBQHJQ7FIRUHFBJWPF", "dateTime": 1516644096035}, {"current_trial": 95, "trialdata": {"rt": -1, "trial_type": "single-stim", "word": "cobra", "stimulus": "<p id=\"stim\">COBRA</p>", "conditions": [12, 1600, "v", 24000], "internal_node_id": "0.0-68.0", "trial": 2, "time_elapsed": 485417, "serialpos": 6, "key_press": -1, "wordID": 335, "type": "PRES_VIS", "trial_index": 95}, "uniqueid": "MTK1980:3DQQ64TANHS0CBQHJQ7FIRUHFBJWPF", "dateTime": 1516644098458}, {"current_trial": 96, "trialdata": {"rt": -1, "trial_type": "single-stim", "word": "racket", "stimulus": "<p id=\"stim\">RACKET</p>", "conditions": [12, 1600, "v", 24000], "internal_node_id": "0.0-69.0", "trial": 2, "time_elapsed": 488128, "serialpos": 7, "key_press": -1, "wordID": 1154, "type": "PRES_VIS", "trial_index": 96}, "uniqueid": "MTK1980:3DQQ64TANHS0CBQHJQ7FIRUHFBJWPF", "dateTime": 1516644101168}, {"current_trial": 97, "trialdata": {"rt": -1, "trial_type": "single-stim", "word": "oyster", "stimulus": "<p id=\"stim\">OYSTER</p>", "conditions": [12, 1600, "v", 24000], "internal_node_id": "0.0-70.0", "trial": 2, "time_elapsed": 490817, "serialpos": 8, "key_press": -1, "wordID": 994, "type": "PRES_VIS", "trial_index": 97}, "uniqueid": "MTK1980:3DQQ64TANHS0CBQHJQ7FIRUHFBJWPF", "dateTime": 1516644103857}, {"current_trial": 98, "trialdata": {"rt": -1, "trial_type": "single-stim", "word": "crab", "stimulus": "<p id=\"stim\">CRAB</p>", "conditions": [12, 1600, "v", 24000], "internal_node_id": "0.0-71.0", "trial": 2, "time_elapsed": 493494, "serialpos": 9, "key_press": -1, "wordID": 396, "type": "PRES_VIS", "trial_index": 98}, "uniqueid": "MTK1980:3DQQ64TANHS0CBQHJQ7FIRUHFBJWPF", "dateTime": 1516644106534}, {"current_trial": 99, "trialdata": {"rt": -1, "trial_type": "single-stim", "word": "stone", "stimulus": "<p id=\"stim\">STONE</p>", "conditions": [12, 1600, "v", 24000], "internal_node_id": "0.0-72.0", "trial": 2, "time_elapsed": 496045, "serialpos": 10, "key_press": -1, "wordID": 1384, "type": "PRES_VIS", "trial_index": 99}, "uniqueid": "MTK1980:3DQQ64TANHS0CBQHJQ7FIRUHFBJWPF", "dateTime": 1516644109086}, {"current_trial": 100, "trialdata": {"rt": -1, "trial_type": "single-stim", "word": "shelter", "stimulus": "<p id=\"stim\">SHELTER</p>", "conditions": [12, 1600, "v", 24000], "internal_node_id": "0.0-73.0", "trial": 2, "time_elapsed": 498774, "serialpos": 11, "key_press": -1, "wordID": 1281, "type": "PRES_VIS", "trial_index": 100}, "uniqueid": "MTK1980:3DQQ64TANHS0CBQHJQ7FIRUHFBJWPF", "dateTime": 1516644111814}, {"current_trial": 101, "trialdata": {"rt": -1, "trial_type": "single-stim", "stimulus": "", "internal_node_id": "0.0-74.0-0.0", "time_elapsed": 501174, "key_press": -1, "type": "PRE_RECALL_DELAY", "trial_index": 101}, "uniqueid": "MTK1980:3DQQ64TANHS0CBQHJQ7FIRUHFBJWPF", "dateTime": 1516644114214}, {"current_trial": 102, "trialdata": {"rt": -1000, "trial_type": "single-audio", "stimulus": "/static/audio/400Hz.wav", "internal_node_id": "0.0-75.0", "time_elapsed": 501678, "key_press": -1, "type": "PRE_RECALL_ALERT", "trial_index": 102}, "uniqueid": "MTK1980:3DQQ64TANHS0CBQHJQ7FIRUHFBJWPF", "dateTime": 1516644114718}, {"current_trial": 103, "trialdata": {"rt": [1759, 3685, 5221, 6571, 8748, 10055, 11640, 13089, 33459, 35312], "recwords": ["stone", "shelter", "oyster", "crab", "garlic", "snack", "onion", "glass", "ox", "temple"], "key_times": [948, 1190, 1259, 1427, 1626, 1759, 2039, 2283, 2426, 2583, 3144, 3401, 3552, 3685, 3987, 4251, 4469, 4656, 4862, 5036, 5221, 5542, 5793, 5947, 6254, 6571, 7640, 7802, 7999, 8145, 8285, 8471, 8748, 9042, 9270, 9452, 9644, 9773, 10055, 10643, 10831, 11040, 11219, 11375, 11640, 11993, 12126, 12233, 12470, 12643, 13089, 32944, 33230, 33459, 33992, 34205, 34311, 34610, 34891, 35066, 35312], "trial_type": "free-recall", "conditions": [12, 1600, "v", 24000], "internal_node_id": "0.0-76.0-0.0", "key_presses": [83, 84, 79, 78, 69, 13, 83, 72, 69, 76, 84, 69, 82, 13, 79, 89, 83, 84, 69, 82, 13, 67, 82, 65, 66, 13, 71, 65, 82, 76, 73, 67, 13, 83, 78, 65, 67, 75, 13, 79, 78, 73, 79, 78, 13, 71, 76, 65, 83, 83, 13, 79, 88, 13, 84, 69, 77, 80, 76, 69, 13], "trial": 2, "time_elapsed": 561682, "type": "FREE_RECALL", "trial_index": 103}, "uniqueid": "MTK1980:3DQQ64TANHS0CBQHJQ7FIRUHFBJWPF", "dateTime": 1516644174724}, {"current_trial": 104, "trialdata": {"rt": 1385, "trial_type": "text", "internal_node_id": "0.0-77.0", "time_elapsed": 565070, "key_press": 13, "type": "INSTRUCTIONS", "trial_index": 104}, "uniqueid": "MTK1980:3DQQ64TANHS0CBQHJQ7FIRUHFBJWPF", "dateTime": 1516644178110}, {"current_trial": 105, "trialdata": {"rt": [2813, 4722, 6232, 7905, 9674, 11424], "trial_type": "math-distractor", "key_times": [1446, 1647, 2813, 4205, 4442, 4722, 5753, 5942, 6232, 7321, 7601, 7905, 9144, 9394, 9674, 10946, 11170, 11424], "responses": ["12", "15", "11", "16", "15", "12"], "num2": [4, 4, 3, 8, 1, 7, 8], "num3": [3, 7, 1, 6, 6, 2, 1], "conditions": [24, 1600, "v", 12000], "internal_node_id": "0.0-78.0", "key_presses": [97, 98, 13, 97, 101, 13, 97, 97, 13, 97, 102, 13, 97, 101, 13, 97, 98, 13], "trial": 3, "time_elapsed": 579072, "type": "DISTRACTOR", "trial_index": 105, "num1": [5, 4, 7, 2, 8, 3, 1]}, "uniqueid": "MTK1980:3DQQ64TANHS0CBQHJQ7FIRUHFBJWPF", "dateTime": 1516644192112}, {"current_trial": 106, "trialdata": {"rt": -1, "trial_type": "single-stim", "stimulus": "<p id=\"stim\">10</p>", "internal_node_id": "0.0-79.0-0.0", "time_elapsed": 582073, "key_press": -1, "trial_index": 106}, "uniqueid": "MTK1980:3DQQ64TANHS0CBQHJQ7FIRUHFBJWPF", "dateTime": 1516644195113}, {"current_trial": 107, "trialdata": {"rt": -1, "trial_type": "single-stim", "stimulus": "<p id=\"stim\">9</p>", "internal_node_id": "0.0-79.0-1.0", "time_elapsed": 583073, "key_press": -1, "trial_index": 107}, "uniqueid": "MTK1980:3DQQ64TANHS0CBQHJQ7FIRUHFBJWPF", "dateTime": 1516644196114}, {"current_trial": 108, "trialdata": {"rt": -1, "trial_type": "single-stim", "stimulus": "<p id=\"stim\">8</p>", "internal_node_id": "0.0-79.0-2.0", "time_elapsed": 584075, "key_press": -1, "trial_index": 108}, "uniqueid": "MTK1980:3DQQ64TANHS0CBQHJQ7FIRUHFBJWPF", "dateTime": 1516644197115}, {"current_trial": 109, "trialdata": {"rt": -1, "trial_type": "single-stim", "stimulus": "<p id=\"stim\">7</p>", "internal_node_id": "0.0-79.0-3.0", "time_elapsed": 585077, "key_press": -1, "trial_index": 109}, "uniqueid": "MTK1980:3DQQ64TANHS0CBQHJQ7FIRUHFBJWPF", "dateTime": 1516644198117}, {"current_trial": 110, "trialdata": {"rt": -1, "trial_type": "single-stim", "stimulus": "<p id=\"stim\">6</p>", "internal_node_id": "0.0-79.0-4.0", "time_elapsed": 586079, "key_press": -1, "trial_index": 110}, "uniqueid": "MTK1980:3DQQ64TANHS0CBQHJQ7FIRUHFBJWPF", "dateTime": 1516644199119}, {"current_trial": 111, "trialdata": {"rt": -1, "trial_type": "single-stim", "stimulus": "<p id=\"stim\">5</p>", "internal_node_id": "0.0-79.0-5.0", "time_elapsed": 587080, "key_press": -1, "trial_index": 111}, "uniqueid": "MTK1980:3DQQ64TANHS0CBQHJQ7FIRUHFBJWPF", "dateTime": 1516644200120}, {"current_trial": 112, "trialdata": {"rt": -1, "trial_type": "single-stim", "stimulus": "<p id=\"stim\">4</p>", "internal_node_id": "0.0-79.0-6.0", "time_elapsed": 588080, "key_press": -1, "trial_index": 112}, "uniqueid": "MTK1980:3DQQ64TANHS0CBQHJQ7FIRUHFBJWPF", "dateTime": 1516644201121}, {"current_trial": 113, "trialdata": {"rt": -1, "trial_type": "single-stim", "stimulus": "<p id=\"stim\">3</p>", "internal_node_id": "0.0-79.0-7.0", "time_elapsed": 589082, "key_press": -1, "trial_index": 113}, "uniqueid": "MTK1980:3DQQ64TANHS0CBQHJQ7FIRUHFBJWPF", "dateTime": 1516644202122}, {"current_trial": 114, "trialdata": {"rt": -1, "trial_type": "single-stim", "stimulus": "<p id=\"stim\">2</p>", "internal_node_id": "0.0-79.0-8.0", "time_elapsed": 590082, "key_press": -1, "trial_index": 114}, "uniqueid": "MTK1980:3DQQ64TANHS0CBQHJQ7FIRUHFBJWPF", "dateTime": 1516644203123}, {"current_trial": 115, "trialdata": {"rt": -1, "trial_type": "single-stim", "stimulus": "<p id=\"stim\">1</p>", "internal_node_id": "0.0-79.0-9.0", "time_elapsed": 591084, "key_press": -1, "trial_index": 115}, "uniqueid": "MTK1980:3DQQ64TANHS0CBQHJQ7FIRUHFBJWPF", "dateTime": 1516644204124}, {"current_trial": 116, "trialdata": {"rt": -1, "trial_type": "single-stim", "stimulus": "<p id=\"stim\">+</p>", "internal_node_id": "0.0-80.0-0.0", "time_elapsed": 592585, "key_press": -1, "type": "FIXATION", "trial_index": 116}, "uniqueid": "MTK1980:3DQQ64TANHS0CBQHJQ7FIRUHFBJWPF", "dateTime": 1516644205625}, {"current_trial": 117, "trialdata": {"rt": -1, "trial_type": "single-stim", "word": "fungus", "stimulus": "<p id=\"stim\">FUNGUS</p>", "conditions": [24, 1600, "v", 12000], "internal_node_id": "0.0-81.0", "trial": 3, "time_elapsed": 594185, "serialpos": 0, "key_press": -1, "wordID": 613, "type": "PRES_VIS", "trial_index": 117}, "uniqueid": "MTK1980:3DQQ64TANHS0CBQHJQ7FIRUHFBJWPF", "dateTime": 1516644207227}, {"current_trial": 118, "trialdata": {"rt": -1, "trial_type": "single-stim", "word": "spouse", "stimulus": "<p id=\"stim\">SPOUSE</p>", "conditions": [24, 1600, "v", 12000], "internal_node_id": "0.0-82.0", "trial": 3, "time_elapsed": 596816, "serialpos": 1, "key_press": -1, "wordID": 1357, "type": "PRES_VIS", "trial_index": 118}, "uniqueid": "MTK1980:3DQQ64TANHS0CBQHJQ7FIRUHFBJWPF", "dateTime": 1516644209856}, {"current_trial": 119, "trialdata": {"rt": -1, "trial_type": "single-stim", "word": "husband", "stimulus": "<p id=\"stim\">HUSBAND</p>", "conditions": [24, 1600, "v", 12000], "internal_node_id": "0.0-83.0", "trial": 3, "time_elapsed": 599520, "serialpos": 2, "key_press": -1, "wordID": 727, "type": "PRES_VIS", "trial_index": 119}, "uniqueid": "MTK1980:3DQQ64TANHS0CBQHJQ7FIRUHFBJWPF", "dateTime": 1516644212560}, {"current_trial": 120, "trialdata": {"rt": -1, "trial_type": "single-stim", "word": "lagoon", "stimulus": "<p id=\"stim\">LAGOON</p>", "conditions": [24, 1600, "v", 12000], "internal_node_id": "0.0-84.0", "trial": 3, "time_elapsed": 602019, "serialpos": 3, "key_press": -1, "wordID": 794, "type": "PRES_VIS", "trial_index": 120}, "uniqueid": "MTK1980:3DQQ64TANHS0CBQHJQ7FIRUHFBJWPF", "dateTime": 1516644215060}, {"current_trial": 121, "trialdata": {"rt": -1, "trial_type": "single-stim", "word": "cupboard", "stimulus": "<p id=\"stim\">CUPBOARD</p>", "conditions": [24, 1600, "v", 12000], "internal_node_id": "0.0-85.0", "trial": 3, "time_elapsed": 604430, "serialpos": 4, "key_press": -1, "wordID": 424, "type": "PRES_VIS", "trial_index": 121}, "uniqueid": "MTK1980:3DQQ64TANHS0CBQHJQ7FIRUHFBJWPF", "dateTime": 1516644217470}, {"current_trial": 122, "trialdata": {"rt": -1, "trial_type": "single-stim", "word": "journal", "stimulus": "<p id=\"stim\">JOURNAL</p>", "conditions": [24, 1600, "v", 12000], "internal_node_id": "0.0-86.0", "trial": 3, "time_elapsed": 606909, "serialpos": 5, "key_press": -1, "wordID": 759, "type": "PRES_VIS", "trial_index": 122}, "uniqueid": "MTK1980:3DQQ64TANHS0CBQHJQ7FIRUHFBJWPF", "dateTime": 1516644219950}, {"current_trial": 123, "trialdata": {"rt": -1, "trial_type": "single-stim", "word": "breast", "stimulus": "<p id=\"stim\">BREAST</p>", "conditions": [24, 1600, "v", 12000], "internal_node_id": "0.0-87.0", "trial": 3, "time_elapsed": 609552, "serialpos": 6, "key_press": -1, "wordID": 170, "type": "PRES_VIS", "trial_index": 123}, "uniqueid": "MTK1980:3DQQ64TANHS0CBQHJQ7FIRUHFBJWPF", "dateTime": 1516644222593}, {"current_trial": 124, "trialdata": {"rt": -1, "trial_type": "single-stim", "word": "venus", "stimulus": "<p id=\"stim\">VENUS</p>", "conditions": [24, 1600, "v", 12000], "internal_node_id": "0.0-88.0", "trial": 3, "time_elapsed": 612094, "serialpos": 7, "key_press": -1, "wordID": 1556, "type": "PRES_VIS", "trial_index": 124}, "uniqueid": "MTK1980:3DQQ64TANHS0CBQHJQ7FIRUHFBJWPF", "dateTime": 1516644225134}, {"current_trial": 125, "trialdata": {"rt": -1, "trial_type": "single-stim", "word": "lake", "stimulus": "<p id=\"stim\">LAKE</p>", "conditions": [24, 1600, "v", 12000], "internal_node_id": "0.0-89.0", "trial": 3, "time_elapsed": 614873, "serialpos": 8, "key_press": -1, "wordID": 795, "type": "PRES_VIS", "trial_index": 125}, "uniqueid": "MTK1980:3DQQ64TANHS0CBQHJQ7FIRUHFBJWPF", "dateTime": 1516644227913}, {"current_trial": 126, "trialdata": {"rt": -1, "trial_type": "single-stim", "word": "notebook", "stimulus": "<p id=\"stim\">NOTEBOOK</p>", "conditions": [24, 1600, "v", 12000], "internal_node_id": "0.0-90.0", "trial": 3, "time_elapsed": 617366, "serialpos": 9, "key_press": -1, "wordID": 958, "type": "PRES_VIS", "trial_index": 126}, "uniqueid": "MTK1980:3DQQ64TANHS0CBQHJQ7FIRUHFBJWPF", "dateTime": 1516644230407}, {"current_trial": 127, "trialdata": {"rt": -1, "trial_type": "single-stim", "word": "chapel", "stimulus": "<p id=\"stim\">CHAPEL</p>", "conditions": [24, 1600, "v", 12000], "internal_node_id": "0.0-91.0", "trial": 3, "time_elapsed": 620158, "serialpos": 10, "key_press": -1, "wordID": 279, "type": "PRES_VIS", "trial_index": 127}, "uniqueid": "MTK1980:3DQQ64TANHS0CBQHJQ7FIRUHFBJWPF", "dateTime": 1516644233198}, {"current_trial": 128, "trialdata": {"rt": -1, "trial_type": "single-stim", "word": "gift", "stimulus": "<p id=\"stim\">GIFT</p>", "conditions": [24, 1600, "v", 12000], "internal_node_id": "0.0-92.0", "trial": 3, "time_elapsed": 622793, "serialpos": 11, "key_press": -1, "wordID": 634, "type": "PRES_VIS", "trial_index": 128}, "uniqueid": "MTK1980:3DQQ64TANHS0CBQHJQ7FIRUHFBJWPF", "dateTime": 1516644235834}, {"current_trial": 129, "trialdata": {"rt": -1, "trial_type": "single-stim", "word": "beaver", "stimulus": "<p id=\"stim\">BEAVER</p>", "conditions": [24, 1600, "v", 12000], "internal_node_id": "0.0-93.0", "trial": 3, "time_elapsed": 625267, "serialpos": 12, "key_press": -1, "wordID": 108, "type": "PRES_VIS", "trial_index": 129}, "uniqueid": "MTK1980:3DQQ64TANHS0CBQHJQ7FIRUHFBJWPF", "dateTime": 1516644238307}, {"current_trial": 130, "trialdata": {"rt": -1, "trial_type": "single-stim", "word": "lunch", "stimulus": "<p id=\"stim\">LUNCH</p>", "conditions": [24, 1600, "v", 12000], "internal_node_id": "0.0-94.0", "trial": 3, "time_elapsed": 627747, "serialpos": 13, "key_press": -1, "wordID": 848, "type": "PRES_VIS", "trial_index": 130}, "uniqueid": "MTK1980:3DQQ64TANHS0CBQHJQ7FIRUHFBJWPF", "dateTime": 1516644240789}, {"current_trial": 131, "trialdata": {"rt": -1, "trial_type": "single-stim", "word": "milk", "stimulus": "<p id=\"stim\">MILK</p>", "conditions": [24, 1600, "v", 12000], "internal_node_id": "0.0-95.0", "trial": 3, "time_elapsed": 630544, "serialpos": 14, "key_press": -1, "wordID": 894, "type": "PRES_VIS", "trial_index": 131}, "uniqueid": "MTK1980:3DQQ64TANHS0CBQHJQ7FIRUHFBJWPF", "dateTime": 1516644243584}, {"current_trial": 132, "trialdata": {"rt": -1, "trial_type": "single-stim", "word": "soda", "stimulus": "<p id=\"stim\">SODA</p>", "conditions": [24, 1600, "v", 12000], "internal_node_id": "0.0-96.0", "trial": 3, "time_elapsed": 633078, "serialpos": 15, "key_press": -1, "wordID": 1340, "type": "PRES_VIS", "trial_index": 132}, "uniqueid": "MTK1980:3DQQ64TANHS0CBQHJQ7FIRUHFBJWPF", "dateTime": 1516644246119}, {"current_trial": 133, "trialdata": {"rt": -1, "trial_type": "single-stim", "word": "canyon", "stimulus": "<p id=\"stim\">CANYON</p>", "conditions": [24, 1600, "v", 12000], "internal_node_id": "0.0-97.0", "trial": 3, "time_elapsed": 635526, "serialpos": 16, "key_press": -1, "wordID": 234, "type": "PRES_VIS", "trial_index": 133}, "uniqueid": "MTK1980:3DQQ64TANHS0CBQHJQ7FIRUHFBJWPF", "dateTime": 1516644248566}, {"current_trial": 134, "trialdata": {"rt": -1, "trial_type": "single-stim", "word": "valley", "stimulus": "<p id=\"stim\">VALLEY</p>", "conditions": [24, 1600, "v", 12000], "internal_node_id": "0.0-98.0", "trial": 3, "time_elapsed": 637973, "serialpos": 17, "key_press": -1, "wordID": 1544, "type": "PRES_VIS", "trial_index": 134}, "uniqueid": "MTK1980:3DQQ64TANHS0CBQHJQ7FIRUHFBJWPF", "dateTime": 1516644251013}, {"current_trial": 135, "trialdata": {"rt": -1, "trial_type": "single-stim", "word": "hostess", "stimulus": "<p id=\"stim\">HOSTESS</p>", "conditions": [24, 1600, "v", 12000], "internal_node_id": "0.0-99.0", "trial": 3, "time_elapsed": 640513, "serialpos": 18, "key_press": -1, "wordID": 722, "type": "PRES_VIS", "trial_index": 135}, "uniqueid": "MTK1980:3DQQ64TANHS0CBQHJQ7FIRUHFBJWPF", "dateTime": 1516644253554}, {"current_trial": 136, "trialdata": {"rt": -1, "trial_type": "single-stim", "word": "drink", "stimulus": "<p id=\"stim\">DRINK</p>", "conditions": [24, 1600, "v", 12000], "internal_node_id": "0.0-100.0", "trial": 3, "time_elapsed": 643260, "serialpos": 19, "key_press": -1, "wordID": 497, "type": "PRES_VIS", "trial_index": 136}, "uniqueid": "MTK1980:3DQQ64TANHS0CBQHJQ7FIRUHFBJWPF", "dateTime": 1516644256300}, {"current_trial": 137, "trialdata": {"rt": -1, "trial_type": "single-stim", "word": "shark", "stimulus": "<p id=\"stim\">SHARK</p>", "conditions": [24, 1600, "v", 12000], "internal_node_id": "0.0-101.0", "trial": 3, "time_elapsed": 645739, "serialpos": 20, "key_press": -1, "wordID": 1274, "type": "PRES_VIS", "trial_index": 137}, "uniqueid": "MTK1980:3DQQ64TANHS0CBQHJQ7FIRUHFBJWPF", "dateTime": 1516644258780}, {"current_trial": 138, "trialdata": {"rt": -1, "trial_type": "single-stim", "word": "subway", "stimulus": "<p id=\"stim\">SUBWAY</p>", "conditions": [24, 1600, "v", 12000], "internal_node_id": "0.0-102.0", "trial": 3, "time_elapsed": 648507, "serialpos": 21, "key_press": -1, "wordID": 1399, "type": "PRES_VIS", "trial_index": 138}, "uniqueid": "MTK1980:3DQQ64TANHS0CBQHJQ7FIRUHFBJWPF", "dateTime": 1516644261547}, {"current_trial": 139, "trialdata": {"rt": -1, "trial_type": "single-stim", "word": "cocktail", "stimulus": "<p id=\"stim\">COCKTAIL</p>", "conditions": [24, 1600, "v", 12000], "internal_node_id": "0.0-103.0", "trial": 3, "time_elapsed": 650992, "serialpos": 22, "key_press": -1, "wordID": 337, "type": "PRES_VIS", "trial_index": 139}, "uniqueid": "MTK1980:3DQQ64TANHS0CBQHJQ7FIRUHFBJWPF", "dateTime": 1516644264032}, {"current_trial": 140, "trialdata": {"rt": -1, "trial_type": "single-stim", "word": "pizza", "stimulus": "<p id=\"stim\">PIZZA</p>", "conditions": [24, 1600, "v", 12000], "internal_node_id": "0.0-104.0", "trial": 3, "time_elapsed": 653575, "serialpos": 23, "key_press": -1, "wordID": 1078, "type": "PRES_VIS", "trial_index": 140}, "uniqueid": "MTK1980:3DQQ64TANHS0CBQHJQ7FIRUHFBJWPF", "dateTime": 1516644266615}, {"current_trial": 141, "trialdata": {"rt": -1, "trial_type": "single-stim", "stimulus": "", "internal_node_id": "0.0-105.0-0.0", "time_elapsed": 655808, "key_press": -1, "type": "PRE_RECALL_DELAY", "trial_index": 141}, "uniqueid": "MTK1980:3DQQ64TANHS0CBQHJQ7FIRUHFBJWPF", "dateTime": 1516644268849}, {"current_trial": 142, "trialdata": {"rt": -1000, "trial_type": "single-audio", "stimulus": "/static/audio/400Hz.wav", "internal_node_id": "0.0-106.0", "time_elapsed": 656314, "key_press": -1, "type": "PRE_RECALL_ALERT", "trial_index": 142}, "uniqueid": "MTK1980:3DQQ64TANHS0CBQHJQ7FIRUHFBJWPF", "dateTime": 1516644269354}, {"current_trial": 143, "trialdata": {"rt": [1863, 3814, 6054, 8866, 11965, 13144, 17178, 19813, 22422, 23563, 26435, 28727, 30742, 36901, 39162, 42896, 45486, 49058], "recwords": ["pizza", "shark", "drink", "cocktail", "milk", "sode", "hostess", "lunch", "beaver", "fu", "fungus", "husband", "swamp", "lake", "notebook", "journal", "cupboard", "spouse"], "key_times": [920, 1137, 1308, 1483, 1680, 1863, 2476, 2659, 2799, 3047, 3532, 3814, 4204, 4436, 4586, 5074, 5346, 5534, 5777, 6054, 6517, 6662, 6837, 7187, 7618, 7791, 7992, 8300, 8866, 9541, 9689, 9727, 9918, 10309, 10485, 10659, 11173, 11439, 11704, 11965, 12273, 12417, 12546, 12783, 13144, 14058, 14202, 14349, 14544, 14933, 15294, 15516, 15749, 15947, 16203, 16378, 17178, 18597, 18795, 19048, 19298, 19484, 19813, 20874, 21095, 21241, 21281, 21788, 22012, 22200, 22350, 22422, 23408, 23528, 23563, 23755, 24503, 25295, 25433, 25668, 25907, 26051, 26200, 26435, 27084, 27301, 27412, 27747, 27954, 28345, 28565, 28727, 29006, 29212, 29435, 29594, 29861, 30742, 36259, 36402, 36535, 36747, 36901, 37634, 37779, 37927, 38081, 38285, 38557, 38695, 38930, 39162, 39936, 40337, 40945, 41207, 41348, 41535, 42117, 42367, 42560, 42896, 43449, 43576, 43756, 44079, 44249, 44362, 44583, 44939, 45486, 46437, 46678, 47011, 47286, 47449, 47989, 49058], "trial_type": "free-recall", "conditions": [24, 1600, "v", 12000], "internal_node_id": "0.0-107.0-0.0", "key_presses": [80, 73, 90, 90, 65, 13, 83, 72, 65, 82, 75, 13, 68, 82, 79, 8, 73, 78, 75, 13, 67, 79, 67, 75, 84, 65, 73, 76, 13, 77, 77, 73, 76, 8, 8, 8, 73, 76, 75, 13, 83, 79, 68, 69, 13, 72, 79, 84, 69, 8, 8, 83, 84, 69, 83, 83, 13, 76, 85, 78, 67, 72, 13, 66, 69, 65, 90, 8, 86, 69, 82, 13, 70, 85, 32, 78, 8, 70, 85, 78, 71, 85, 83, 13, 72, 85, 83, 66, 65, 78, 68, 13, 83, 87, 65, 77, 80, 13, 76, 65, 75, 69, 13, 78, 79, 84, 69, 66, 79, 79, 75, 13, 79, 8, 74, 79, 85, 82, 78, 65, 76, 13, 67, 85, 80, 66, 79, 65, 82, 68, 13, 83, 80, 79, 85, 83, 69, 13], "trial": 3, "time_elapsed": 716315, "type": "FREE_RECALL", "trial_index": 143}, "uniqueid": "MTK1980:3DQQ64TANHS0CBQHJQ7FIRUHFBJWPF", "dateTime": 1516644329358}, {"current_trial": 144, "trialdata": {"rt": 840, "trial_type": "text", "internal_node_id": "0.0-108.0", "time_elapsed": 719160, "key_press": 13, "type": "INSTRUCTIONS", "trial_index": 144}, "uniqueid": "MTK1980:3DQQ64TANHS0CBQHJQ7FIRUHFBJWPF", "dateTime": 1516644332200}, {"current_trial": 145, "trialdata": {"rt": [3744, 5948, 10723, 12706, 14347, 16247, 18781, 22043], "trial_type": "math-distractor", "key_times": [3232, 3477, 3744, 5401, 5638, 5948, 10234, 10430, 10723, 12213, 12413, 12706, 13700, 13983, 14347, 15594, 15919, 16247, 18258, 18502, 18781, 21525, 21764, 22043, 23790], "responses": ["18", "14", "23", "12", "19", "18", "19", "23"], "num2": [5, 8, 9, 2, 2, 6, 3, 8, 6], "num3": [5, 2, 7, 1, 9, 8, 8, 9, 7], "conditions": [24, 800, "v", 24000], "internal_node_id": "0.0-109.0", "key_presses": [97, 104, 13, 97, 100, 13, 98, 99, 13, 97, 98, 13, 97, 105, 13, 97, 104, 13, 97, 105, 13, 98, 99, 13, 97], "trial": 4, "time_elapsed": 745162, "type": "DISTRACTOR", "trial_index": 145, "num1": [8, 4, 7, 9, 8, 4, 8, 5, 6]}, "uniqueid": "MTK1980:3DQQ64TANHS0CBQHJQ7FIRUHFBJWPF", "dateTime": 1516644358202}, {"current_trial": 146, "trialdata": {"rt": -1, "trial_type": "single-stim", "stimulus": "<p id=\"stim\">10</p>", "internal_node_id": "0.0-110.0-0.0", "time_elapsed": 748162, "key_press": -1, "trial_index": 146}, "uniqueid": "MTK1980:3DQQ64TANHS0CBQHJQ7FIRUHFBJWPF", "dateTime": 1516644361203}, {"current_trial": 147, "trialdata": {"rt": -1, "trial_type": "single-stim", "stimulus": "<p id=\"stim\">9</p>", "internal_node_id": "0.0-110.0-1.0", "time_elapsed": 749163, "key_press": -1, "trial_index": 147}, "uniqueid": "MTK1980:3DQQ64TANHS0CBQHJQ7FIRUHFBJWPF", "dateTime": 1516644362205}, {"current_trial": 148, "trialdata": {"rt": -1, "trial_type": "single-stim", "stimulus": "<p id=\"stim\">8</p>", "internal_node_id": "0.0-110.0-2.0", "time_elapsed": 750167, "key_press": -1, "trial_index": 148}, "uniqueid": "MTK1980:3DQQ64TANHS0CBQHJQ7FIRUHFBJWPF", "dateTime": 1516644363207}, {"current_trial": 149, "trialdata": {"rt": -1, "trial_type": "single-stim", "stimulus": "<p id=\"stim\">7</p>", "internal_node_id": "0.0-110.0-3.0", "time_elapsed": 751169, "key_press": -1, "trial_index": 149}, "uniqueid": "MTK1980:3DQQ64TANHS0CBQHJQ7FIRUHFBJWPF", "dateTime": 1516644364209}, {"current_trial": 150, "trialdata": {"rt": -1, "trial_type": "single-stim", "stimulus": "<p id=\"stim\">6</p>", "internal_node_id": "0.0-110.0-4.0", "time_elapsed": 752170, "key_press": -1, "trial_index": 150}, "uniqueid": "MTK1980:3DQQ64TANHS0CBQHJQ7FIRUHFBJWPF", "dateTime": 1516644365210}, {"current_trial": 151, "trialdata": {"rt": -1, "trial_type": "single-stim", "stimulus": "<p id=\"stim\">5</p>", "internal_node_id": "0.0-110.0-5.0", "time_elapsed": 753171, "key_press": -1, "trial_index": 151}, "uniqueid": "MTK1980:3DQQ64TANHS0CBQHJQ7FIRUHFBJWPF", "dateTime": 1516644366211}, {"current_trial": 152, "trialdata": {"rt": -1, "trial_type": "single-stim", "stimulus": "<p id=\"stim\">4</p>", "internal_node_id": "0.0-110.0-6.0", "time_elapsed": 754172, "key_press": -1, "trial_index": 152}, "uniqueid": "MTK1980:3DQQ64TANHS0CBQHJQ7FIRUHFBJWPF", "dateTime": 1516644367213}, {"current_trial": 153, "trialdata": {"rt": -1, "trial_type": "single-stim", "stimulus": "<p id=\"stim\">3</p>", "internal_node_id": "0.0-110.0-7.0", "time_elapsed": 755175, "key_press": -1, "trial_index": 153}, "uniqueid": "MTK1980:3DQQ64TANHS0CBQHJQ7FIRUHFBJWPF", "dateTime": 1516644368215}, {"current_trial": 154, "trialdata": {"rt": -1, "trial_type": "single-stim", "stimulus": "<p id=\"stim\">2</p>", "internal_node_id": "0.0-110.0-8.0", "time_elapsed": 756177, "key_press": -1, "trial_index": 154}, "uniqueid": "MTK1980:3DQQ64TANHS0CBQHJQ7FIRUHFBJWPF", "dateTime": 1516644369217}, {"current_trial": 155, "trialdata": {"rt": -1, "trial_type": "single-stim", "stimulus": "<p id=\"stim\">1</p>", "internal_node_id": "0.0-110.0-9.0", "time_elapsed": 757177, "key_press": -1, "trial_index": 155}, "uniqueid": "MTK1980:3DQQ64TANHS0CBQHJQ7FIRUHFBJWPF", "dateTime": 1516644370218}, {"current_trial": 156, "trialdata": {"rt": -1, "trial_type": "single-stim", "stimulus": "<p id=\"stim\">+</p>", "internal_node_id": "0.0-111.0-0.0", "time_elapsed": 758680, "key_press": -1, "type": "FIXATION", "trial_index": 156}, "uniqueid": "MTK1980:3DQQ64TANHS0CBQHJQ7FIRUHFBJWPF", "dateTime": 1516644371720}, {"current_trial": 157, "trialdata": {"rt": -1, "trial_type": "single-stim", "word": "cabbage", "stimulus": "<p id=\"stim\">CABBAGE</p>", "conditions": [24, 800, "v", 24000], "internal_node_id": "0.0-112.0", "trial": 4, "time_elapsed": 759481, "serialpos": 0, "key_press": -1, "wordID": 209, "type": "PRES_VIS", "trial_index": 157}, "uniqueid": "MTK1980:3DQQ64TANHS0CBQHJQ7FIRUHFBJWPF", "dateTime": 1516644372521}, {"current_trial": 158, "trialdata": {"rt": -1, "trial_type": "single-stim", "word": "film", "stimulus": "<p id=\"stim\">FILM</p>", "conditions": [24, 800, "v", 24000], "internal_node_id": "0.0-113.0", "trial": 4, "time_elapsed": 761245, "serialpos": 1, "key_press": -1, "wordID": 564, "type": "PRES_VIS", "trial_index": 158}, "uniqueid": "MTK1980:3DQQ64TANHS0CBQHJQ7FIRUHFBJWPF", "dateTime": 1516644374286}, {"current_trial": 159, "trialdata": {"rt": -1, "trial_type": "single-stim", "word": "actor", "stimulus": "<p id=\"stim\">ACTOR</p>", "conditions": [24, 800, "v", 24000], "internal_node_id": "0.0-114.0", "trial": 4, "time_elapsed": 762894, "serialpos": 2, "key_press": -1, "wordID": 4, "type": "PRES_VIS", "trial_index": 159}, "uniqueid": "MTK1980:3DQQ64TANHS0CBQHJQ7FIRUHFBJWPF", "dateTime": 1516644375934}, {"current_trial": 160, "trialdata": {"rt": -1, "trial_type": "single-stim", "word": "dolphin", "stimulus": "<p id=\"stim\">DOLPHIN</p>", "conditions": [24, 800, "v", 24000], "internal_node_id": "0.0-115.0", "trial": 4, "time_elapsed": 764815, "serialpos": 3, "key_press": -1, "wordID": 482, "type": "PRES_VIS", "trial_index": 160}, "uniqueid": "MTK1980:3DQQ64TANHS0CBQHJQ7FIRUHFBJWPF", "dateTime": 1516644377855}, {"current_trial": 161, "trialdata": {"rt": -1, "trial_type": "single-stim", "word": "smog", "stimulus": "<p id=\"stim\">SMOG</p>", "conditions": [24, 800, "v", 24000], "internal_node_id": "0.0-116.0", "trial": 4, "time_elapsed": 766644, "serialpos": 4, "key_press": -1, "wordID": 1329, "type": "PRES_VIS", "trial_index": 161}, "uniqueid": "MTK1980:3DQQ64TANHS0CBQHJQ7FIRUHFBJWPF", "dateTime": 1516644379684}, {"current_trial": 162, "trialdata": {"rt": -1, "trial_type": "single-stim", "word": "dashboard", "stimulus": "<p id=\"stim\">DASHBOARD</p>", "conditions": [24, 800, "v", 24000], "internal_node_id": "0.0-117.0", "trial": 4, "time_elapsed": 768509, "serialpos": 5, "key_press": -1, "wordID": 440, "type": "PRES_VIS", "trial_index": 162}, "uniqueid": "MTK1980:3DQQ64TANHS0CBQHJQ7FIRUHFBJWPF", "dateTime": 1516644381550}, {"current_trial": 163, "trialdata": {"rt": -1, "trial_type": "single-stim", "word": "bullet", "stimulus": "<p id=\"stim\">BULLET</p>", "conditions": [24, 800, "v", 24000], "internal_node_id": "0.0-118.0", "trial": 4, "time_elapsed": 770418, "serialpos": 6, "key_press": -1, "wordID": 193, "type": "PRES_VIS", "trial_index": 163}, "uniqueid": "MTK1980:3DQQ64TANHS0CBQHJQ7FIRUHFBJWPF", "dateTime": 1516644383458}, {"current_trial": 164, "trialdata": {"rt": -1, "trial_type": "single-stim", "word": "handbag", "stimulus": "<p id=\"stim\">HANDBAG</p>", "conditions": [24, 800, "v", 24000], "internal_node_id": "0.0-119.0", "trial": 4, "time_elapsed": 772241, "serialpos": 7, "key_press": -1, "wordID": 683, "type": "PRES_VIS", "trial_index": 164}, "uniqueid": "MTK1980:3DQQ64TANHS0CBQHJQ7FIRUHFBJWPF", "dateTime": 1516644385281}, {"current_trial": 165, "trialdata": {"rt": -1, "trial_type": "single-stim", "word": "seagull", "stimulus": "<p id=\"stim\">SEAGULL</p>", "conditions": [24, 800, "v", 24000], "internal_node_id": "0.0-120.0", "trial": 4, "time_elapsed": 774235, "serialpos": 8, "key_press": -1, "wordID": 1260, "type": "PRES_VIS", "trial_index": 165}, "uniqueid": "MTK1980:3DQQ64TANHS0CBQHJQ7FIRUHFBJWPF", "dateTime": 1516644387275}, {"current_trial": 166, "trialdata": {"rt": -1, "trial_type": "single-stim", "word": "fox", "stimulus": "<p id=\"stim\">FOX</p>", "conditions": [24, 800, "v", 24000], "internal_node_id": "0.0-121.0", "trial": 4, "time_elapsed": 776047, "serialpos": 9, "key_press": -1, "wordID": 597, "type": "PRES_VIS", "trial_index": 166}, "uniqueid": "MTK1980:3DQQ64TANHS0CBQHJQ7FIRUHFBJWPF", "dateTime": 1516644389087}, {"current_trial": 167, "trialdata": {"rt": -1, "trial_type": "single-stim", "word": "turnip", "stimulus": "<p id=\"stim\">TURNIP</p>", "conditions": [24, 800, "v", 24000], "internal_node_id": "0.0-122.0", "trial": 4, "time_elapsed": 778025, "serialpos": 10, "key_press": -1, "wordID": 1520, "type": "PRES_VIS", "trial_index": 167}, "uniqueid": "MTK1980:3DQQ64TANHS0CBQHJQ7FIRUHFBJWPF", "dateTime": 1516644391067}, {"current_trial": 168, "trialdata": {"rt": -1, "trial_type": "single-stim", "word": "county", "stimulus": "<p id=\"stim\">COUNTY</p>", "conditions": [24, 800, "v", 24000], "internal_node_id": "0.0-123.0", "trial": 4, "time_elapsed": 779971, "serialpos": 11, "key_press": -1, "wordID": 388, "type": "PRES_VIS", "trial_index": 168}, "uniqueid": "MTK1980:3DQQ64TANHS0CBQHJQ7FIRUHFBJWPF", "dateTime": 1516644393011}, {"current_trial": 169, "trialdata": {"rt": -1, "trial_type": "single-stim", "word": "temple", "stimulus": "<p id=\"stim\">TEMPLE</p>", "conditions": [24, 800, "v", 24000], "internal_node_id": "0.0-124.0", "trial": 4, "time_elapsed": 781723, "serialpos": 12, "key_press": -1, "wordID": 1447, "type": "PRES_VIS", "trial_index": 169}, "uniqueid": "MTK1980:3DQQ64TANHS0CBQHJQ7FIRUHFBJWPF", "dateTime": 1516644394764}, {"current_trial": 170, "trialdata": {"rt": -1, "trial_type": "single-stim", "word": "scallop", "stimulus": "<p id=\"stim\">SCALLOP</p>", "conditions": [24, 800, "v", 24000], "internal_node_id": "0.0-125.0", "trial": 4, "time_elapsed": 783662, "serialpos": 13, "key_press": -1, "wordID": 1241, "type": "PRES_VIS", "trial_index": 170}, "uniqueid": "MTK1980:3DQQ64TANHS0CBQHJQ7FIRUHFBJWPF", "dateTime": 1516644396702}, {"current_trial": 171, "trialdata": {"rt": -1, "trial_type": "single-stim", "word": "playground", "stimulus": "<p id=\"stim\">PLAYGROUND</p>", "conditions": [24, 800, "v", 24000], "internal_node_id": "0.0-126.0", "trial": 4, "time_elapsed": 785496, "serialpos": 14, "key_press": -1, "wordID": 1086, "type": "PRES_VIS", "trial_index": 171}, "uniqueid": "MTK1980:3DQQ64TANHS0CBQHJQ7FIRUHFBJWPF", "dateTime": 1516644398536}, {"current_trial": 172, "trialdata": {"rt": -1, "trial_type": "single-stim", "word": "yarn", "stimulus": "<p id=\"stim\">YARN</p>", "conditions": [24, 800, "v", 24000], "internal_node_id": "0.0-127.0", "trial": 4, "time_elapsed": 787122, "serialpos": 15, "key_press": -1, "wordID": 1630, "type": "PRES_VIS", "trial_index": 172}, "uniqueid": "MTK1980:3DQQ64TANHS0CBQHJQ7FIRUHFBJWPF", "dateTime": 1516644400163}, {"current_trial": 173, "trialdata": {"rt": -1, "trial_type": "single-stim", "word": "hawk", "stimulus": "<p id=\"stim\">HAWK</p>", "conditions": [24, 800, "v", 24000], "internal_node_id": "0.0-128.0", "trial": 4, "time_elapsed": 788792, "serialpos": 16, "key_press": -1, "wordID": 691, "type": "PRES_VIS", "trial_index": 173}, "uniqueid": "MTK1980:3DQQ64TANHS0CBQHJQ7FIRUHFBJWPF", "dateTime": 1516644401832}, {"current_trial": 174, "trialdata": {"rt": -1, "trial_type": "single-stim", "word": "balloon", "stimulus": "<p id=\"stim\">BALLOON</p>", "conditions": [24, 800, "v", 24000], "internal_node_id": "0.0-129.0", "trial": 4, "time_elapsed": 790771, "serialpos": 17, "key_press": -1, "wordID": 74, "type": "PRES_VIS", "trial_index": 174}, "uniqueid": "MTK1980:3DQQ64TANHS0CBQHJQ7FIRUHFBJWPF", "dateTime": 1516644403811}, {"current_trial": 175, "trialdata": {"rt": -1, "trial_type": "single-stim", "word": "tractor", "stimulus": "<p id=\"stim\">TRACTOR</p>", "conditions": [24, 800, "v", 24000], "internal_node_id": "0.0-130.0", "trial": 4, "time_elapsed": 792437, "serialpos": 18, "key_press": -1, "wordID": 1492, "type": "PRES_VIS", "trial_index": 175}, "uniqueid": "MTK1980:3DQQ64TANHS0CBQHJQ7FIRUHFBJWPF", "dateTime": 1516644405479}, {"current_trial": 176, "trialdata": {"rt": -1, "trial_type": "single-stim", "word": "church", "stimulus": "<p id=\"stim\">CHURCH</p>", "conditions": [24, 800, "v", 24000], "internal_node_id": "0.0-131.0", "trial": 4, "time_elapsed": 794145, "serialpos": 19, "key_press": -1, "wordID": 306, "type": "PRES_VIS", "trial_index": 176}, "uniqueid": "MTK1980:3DQQ64TANHS0CBQHJQ7FIRUHFBJWPF", "dateTime": 1516644407185}, {"current_trial": 177, "trialdata": {"rt": -1, "trial_type": "single-stim", "word": "survey", "stimulus": "<p id=\"stim\">SURVEY</p>", "conditions": [24, 800, "v", 24000], "internal_node_id": "0.0-132.0", "trial": 4, "time_elapsed": 795918, "serialpos": 20, "key_press": -1, "wordID": 1413, "type": "PRES_VIS", "trial_index": 177}, "uniqueid": "MTK1980:3DQQ64TANHS0CBQHJQ7FIRUHFBJWPF", "dateTime": 1516644408959}, {"current_trial": 178, "trialdata": {"rt": -1, "trial_type": "single-stim", "word": "report", "stimulus": "<p id=\"stim\">REPORT</p>", "conditions": [24, 800, "v", 24000], "internal_node_id": "0.0-133.0", "trial": 4, "time_elapsed": 797670, "serialpos": 21, "key_press": -1, "wordID": 1183, "type": "PRES_VIS", "trial_index": 178}, "uniqueid": "MTK1980:3DQQ64TANHS0CBQHJQ7FIRUHFBJWPF", "dateTime": 1516644410710}, {"current_trial": 179, "trialdata": {"rt": -1, "trial_type": "single-stim", "word": "hook", "stimulus": "<p id=\"stim\">HOOK</p>", "conditions": [24, 800, "v", 24000], "internal_node_id": "0.0-134.0", "trial": 4, "time_elapsed": 799447, "serialpos": 22, "key_press": -1, "wordID": 714, "type": "PRES_VIS", "trial_index": 179}, "uniqueid": "MTK1980:3DQQ64TANHS0CBQHJQ7FIRUHFBJWPF", "dateTime": 1516644412487}, {"current_trial": 180, "trialdata": {"rt": -1, "trial_type": "single-stim", "word": "clam", "stimulus": "<p id=\"stim\">CLAM</p>", "conditions": [24, 800, "v", 24000], "internal_node_id": "0.0-135.0", "trial": 4, "time_elapsed": 801249, "serialpos": 23, "key_press": -1, "wordID": 314, "type": "PRES_VIS", "trial_index": 180}, "uniqueid": "MTK1980:3DQQ64TANHS0CBQHJQ7FIRUHFBJWPF", "dateTime": 1516644414289}, {"current_trial": 181, "trialdata": {"rt": -1, "trial_type": "single-stim", "stimulus": "", "internal_node_id": "0.0-136.0-0.0", "time_elapsed": 803730, "key_press": -1, "type": "PRE_RECALL_DELAY", "trial_index": 181}, "uniqueid": "MTK1980:3DQQ64TANHS0CBQHJQ7FIRUHFBJWPF", "dateTime": 1516644416771}, {"current_trial": 182, "trialdata": {"rt": -1000, "trial_type": "single-audio", "stimulus": "/static/audio/400Hz.wav", "internal_node_id": "0.0-137.0", "time_elapsed": 804232, "key_press": -1, "type": "PRE_RECALL_ALERT", "trial_index": 182}, "uniqueid": "MTK1980:3DQQ64TANHS0CBQHJQ7FIRUHFBJWPF", "dateTime": 1516644417272}, {"current_trial": 183, "trialdata": {"rt": [1647, 2841, 5251, 6432, 8083, 9412, 11674, 14460, 15943, 27161, 29260, 38594, 56835], "recwords": ["hook", "clam", "tractor", "survey", "report", "eagle", "balloon", "playground", "yarn", "cabbage", "turnip", "dolphin", "report"], "key_times": [621, 966, 1132, 1374, 1647, 1942, 2065, 2246, 2472, 2841, 3701, 3928, 4259, 4486, 4773, 4924, 5070, 5251, 5438, 5586, 5739, 5973, 6174, 6321, 6432, 6699, 6916, 7286, 7504, 7650, 7846, 8083, 8369, 8509, 8816, 8986, 9174, 9412, 9826, 10012, 10223, 10382, 10831, 11215, 11413, 11674, 12165, 12408, 12518, 12684, 12988, 13480, 13682, 13823, 14082, 14270, 14460, 14841, 15009, 15237, 15586, 15943, 25680, 25874, 26263, 26408, 26577, 26782, 27017, 27161, 27628, 27911, 28090, 28278, 28582, 28823, 29260, 35094, 35357, 35675, 36020, 36297, 36683, 37042, 38594, 55761, 55993, 56189, 56367, 56515, 56682, 56835, 59147, 59338, 59484, 59893], "trial_type": "free-recall", "conditions": [24, 800, "v", 24000], "internal_node_id": "0.0-138.0-0.0", "key_presses": [72, 79, 79, 75, 13, 67, 76, 65, 77, 13, 84, 82, 65, 67, 84, 79, 82, 13, 83, 85, 82, 86, 69, 89, 32, 82, 69, 80, 79, 82, 84, 13, 69, 65, 71, 76, 69, 13, 66, 65, 76, 76, 79, 79, 78, 13, 80, 76, 65, 89, 71, 82, 79, 85, 78, 68, 13, 89, 65, 82, 78, 13, 67, 65, 66, 66, 65, 71, 69, 13, 84, 85, 82, 78, 73, 80, 13, 68, 79, 76, 80, 72, 73, 78, 13, 82, 69, 80, 79, 82, 84, 13, 83, 85, 82, 86], "trial": 4, "time_elapsed": 864236, "type": "FREE_RECALL", "trial_index": 183}, "uniqueid": "MTK1980:3DQQ64TANHS0CBQHJQ7FIRUHFBJWPF", "dateTime": 1516644477281}, {"current_trial": 184, "trialdata": {"rt": 1245, "trial_type": "text", "internal_node_id": "0.0-139.0", "time_elapsed": 867487, "key_press": 13, "type": "INSTRUCTIONS", "trial_index": 184}, "uniqueid": "MTK1980:3DQQ64TANHS0CBQHJQ7FIRUHFBJWPF", "dateTime": 1516644480527}, {"current_trial": 185, "trialdata": {"rt": [1724, 3701, 5577, 8370, 10338, 11891], "trial_type": "math-distractor", "key_times": [1370, 1724, 3373, 3701, 4992, 5221, 5577, 7578, 7985, 8370, 9703, 10010, 10338, 11332, 11597, 11891], "responses": ["7", "6", "14", "16", "17", "13"], "num2": [3, 1, 8, 7, 3, 1, 3], "num3": [1, 1, 5, 7, 8, 3, 5], "conditions": [12, 800, "v", 12000], "internal_node_id": "0.0-140.0", "key_presses": [103, 13, 102, 13, 97, 100, 13, 97, 102, 13, 97, 103, 13, 97, 99, 13], "trial": 5, "time_elapsed": 881490, "type": "DISTRACTOR", "trial_index": 185, "num1": [3, 4, 1, 2, 6, 9, 3]}, "uniqueid": "MTK1980:3DQQ64TANHS0CBQHJQ7FIRUHFBJWPF", "dateTime": 1516644494530}, {"current_trial": 186, "trialdata": {"rt": -1, "trial_type": "single-stim", "stimulus": "<p id=\"stim\">10</p>", "internal_node_id": "0.0-141.0-0.0", "time_elapsed": 884492, "key_press": -1, "trial_index": 186}, "uniqueid": "MTK1980:3DQQ64TANHS0CBQHJQ7FIRUHFBJWPF", "dateTime": 1516644497532}, {"current_trial": 187, "trialdata": {"rt": -1, "trial_type": "single-stim", "stimulus": "<p id=\"stim\">9</p>", "internal_node_id": "0.0-141.0-1.0", "time_elapsed": 885492, "key_press": -1, "trial_index": 187}, "uniqueid": "MTK1980:3DQQ64TANHS0CBQHJQ7FIRUHFBJWPF", "dateTime": 1516644498532}, {"current_trial": 188, "trialdata": {"rt": -1, "trial_type": "single-stim", "stimulus": "<p id=\"stim\">8</p>", "internal_node_id": "0.0-141.0-2.0", "time_elapsed": 886494, "key_press": -1, "trial_index": 188}, "uniqueid": "MTK1980:3DQQ64TANHS0CBQHJQ7FIRUHFBJWPF", "dateTime": 1516644499534}, {"current_trial": 189, "trialdata": {"rt": -1, "trial_type": "single-stim", "stimulus": "<p id=\"stim\">7</p>", "internal_node_id": "0.0-141.0-3.0", "time_elapsed": 887494, "key_press": -1, "trial_index": 189}, "uniqueid": "MTK1980:3DQQ64TANHS0CBQHJQ7FIRUHFBJWPF", "dateTime": 1516644500534}, {"current_trial": 190, "trialdata": {"rt": -1, "trial_type": "single-stim", "stimulus": "<p id=\"stim\">6</p>", "internal_node_id": "0.0-141.0-4.0", "time_elapsed": 888495, "key_press": -1, "trial_index": 190}, "uniqueid": "MTK1980:3DQQ64TANHS0CBQHJQ7FIRUHFBJWPF", "dateTime": 1516644501535}, {"current_trial": 191, "trialdata": {"rt": -1, "trial_type": "single-stim", "stimulus": "<p id=\"stim\">5</p>", "internal_node_id": "0.0-141.0-5.0", "time_elapsed": 889496, "key_press": -1, "trial_index": 191}, "uniqueid": "MTK1980:3DQQ64TANHS0CBQHJQ7FIRUHFBJWPF", "dateTime": 1516644502536}, {"current_trial": 192, "trialdata": {"rt": -1, "trial_type": "single-stim", "stimulus": "<p id=\"stim\">4</p>", "internal_node_id": "0.0-141.0-6.0", "time_elapsed": 890496, "key_press": -1, "trial_index": 192}, "uniqueid": "MTK1980:3DQQ64TANHS0CBQHJQ7FIRUHFBJWPF", "dateTime": 1516644503537}, {"current_trial": 193, "trialdata": {"rt": -1, "trial_type": "single-stim", "stimulus": "<p id=\"stim\">3</p>", "internal_node_id": "0.0-141.0-7.0", "time_elapsed": 891497, "key_press": -1, "trial_index": 193}, "uniqueid": "MTK1980:3DQQ64TANHS0CBQHJQ7FIRUHFBJWPF", "dateTime": 1516644504538}, {"current_trial": 194, "trialdata": {"rt": -1, "trial_type": "single-stim", "stimulus": "<p id=\"stim\">2</p>", "internal_node_id": "0.0-141.0-8.0", "time_elapsed": 892498, "key_press": -1, "trial_index": 194}, "uniqueid": "MTK1980:3DQQ64TANHS0CBQHJQ7FIRUHFBJWPF", "dateTime": 1516644505539}, {"current_trial": 195, "trialdata": {"rt": -1, "trial_type": "single-stim", "stimulus": "<p id=\"stim\">1</p>", "internal_node_id": "0.0-141.0-9.0", "time_elapsed": 893499, "key_press": -1, "trial_index": 195}, "uniqueid": "MTK1980:3DQQ64TANHS0CBQHJQ7FIRUHFBJWPF", "dateTime": 1516644506540}, {"current_trial": 196, "trialdata": {"rt": -1, "trial_type": "single-stim", "stimulus": "<p id=\"stim\">+</p>", "internal_node_id": "0.0-142.0-0.0", "time_elapsed": 895000, "key_press": -1, "type": "FIXATION", "trial_index": 196}, "uniqueid": "MTK1980:3DQQ64TANHS0CBQHJQ7FIRUHFBJWPF", "dateTime": 1516644508041}, {"current_trial": 197, "trialdata": {"rt": -1, "trial_type": "single-stim", "word": "panther", "stimulus": "<p id=\"stim\">PANTHER</p>", "conditions": [12, 800, "v", 12000], "internal_node_id": "0.0-143.0", "trial": 5, "time_elapsed": 895803, "serialpos": 0, "key_press": -1, "wordID": 1008, "type": "PRES_VIS", "trial_index": 197}, "uniqueid": "MTK1980:3DQQ64TANHS0CBQHJQ7FIRUHFBJWPF", "dateTime": 1516644508843}, {"current_trial": 198, "trialdata": {"rt": -1, "trial_type": "single-stim", "word": "badge", "stimulus": "<p id=\"stim\">BADGE</p>", "conditions": [12, 800, "v", 12000], "internal_node_id": "0.0-144.0", "trial": 5, "time_elapsed": 897696, "serialpos": 1, "key_press": -1, "wordID": 67, "type": "PRES_VIS", "trial_index": 198}, "uniqueid": "MTK1980:3DQQ64TANHS0CBQHJQ7FIRUHFBJWPF", "dateTime": 1516644510736}, {"current_trial": 199, "trialdata": {"rt": -1, "trial_type": "single-stim", "word": "kitchen", "stimulus": "<p id=\"stim\">KITCHEN</p>", "conditions": [12, 800, "v", 12000], "internal_node_id": "0.0-145.0", "trial": 5, "time_elapsed": 899448, "serialpos": 2, "key_press": -1, "wordID": 777, "type": "PRES_VIS", "trial_index": 199}, "uniqueid": "MTK1980:3DQQ64TANHS0CBQHJQ7FIRUHFBJWPF", "dateTime": 1516644512489}, {"current_trial": 200, "trialdata": {"rt": -1, "trial_type": "single-stim", "word": "cook", "stimulus": "<p id=\"stim\">COOK</p>", "conditions": [12, 800, "v", 12000], "internal_node_id": "0.0-146.0", "trial": 5, "time_elapsed": 901377, "serialpos": 3, "key_press": -1, "wordID": 371, "type": "PRES_VIS", "trial_index": 200}, "uniqueid": "MTK1980:3DQQ64TANHS0CBQHJQ7FIRUHFBJWPF", "dateTime": 1516644514417}, {"current_trial": 201, "trialdata": {"rt": -1, "trial_type": "single-stim", "word": "grill", "stimulus": "<p id=\"stim\">GRILL</p>", "conditions": [12, 800, "v", 12000], "internal_node_id": "0.0-147.0", "trial": 5, "time_elapsed": 903245, "serialpos": 4, "key_press": -1, "wordID": 660, "type": "PRES_VIS", "trial_index": 201}, "uniqueid": "MTK1980:3DQQ64TANHS0CBQHJQ7FIRUHFBJWPF", "dateTime": 1516644516285}, {"current_trial": 202, "trialdata": {"rt": -1, "trial_type": "single-stim", "word": "lodge", "stimulus": "<p id=\"stim\">LODGE</p>", "conditions": [12, 800, "v", 12000], "internal_node_id": "0.0-148.0", "trial": 5, "time_elapsed": 905028, "serialpos": 5, "key_press": -1, "wordID": 838, "type": "PRES_VIS", "trial_index": 202}, "uniqueid": "MTK1980:3DQQ64TANHS0CBQHJQ7FIRUHFBJWPF", "dateTime": 1516644518069}, {"current_trial": 203, "trialdata": {"rt": -1, "trial_type": "single-stim", "word": "tile", "stimulus": "<p id=\"stim\">TILE</p>", "conditions": [12, 800, "v", 12000], "internal_node_id": "0.0-149.0", "trial": 5, "time_elapsed": 906685, "serialpos": 6, "key_press": -1, "wordID": 1467, "type": "PRES_VIS", "trial_index": 203}, "uniqueid": "MTK1980:3DQQ64TANHS0CBQHJQ7FIRUHFBJWPF", "dateTime": 1516644519726}, {"current_trial": 204, "trialdata": {"rt": -1, "trial_type": "single-stim", "word": "portrait", "stimulus": "<p id=\"stim\">PORTRAIT</p>", "conditions": [12, 800, "v", 12000], "internal_node_id": "0.0-150.0", "trial": 5, "time_elapsed": 908585, "serialpos": 7, "key_press": -1, "wordID": 1110, "type": "PRES_VIS", "trial_index": 204}, "uniqueid": "MTK1980:3DQQ64TANHS0CBQHJQ7FIRUHFBJWPF", "dateTime": 1516644521625}, {"current_trial": 205, "trialdata": {"rt": -1, "trial_type": "single-stim", "word": "passage", "stimulus": "<p id=\"stim\">PASSAGE</p>", "conditions": [12, 800, "v", 12000], "internal_node_id": "0.0-151.0", "trial": 5, "time_elapsed": 910492, "serialpos": 8, "key_press": -1, "wordID": 1018, "type": "PRES_VIS", "trial_index": 205}, "uniqueid": "MTK1980:3DQQ64TANHS0CBQHJQ7FIRUHFBJWPF", "dateTime": 1516644523533}, {"current_trial": 206, "trialdata": {"rt": -1, "trial_type": "single-stim", "word": "pilot", "stimulus": "<p id=\"stim\">PILOT</p>", "conditions": [12, 800, "v", 12000], "internal_node_id": "0.0-152.0", "trial": 5, "time_elapsed": 912278, "serialpos": 9, "key_press": -1, "wordID": 1069, "type": "PRES_VIS", "trial_index": 206}, "uniqueid": "MTK1980:3DQQ64TANHS0CBQHJQ7FIRUHFBJWPF", "dateTime": 1516644525318}, {"current_trial": 207, "trialdata": {"rt": -1, "trial_type": "single-stim", "word": "leopard", "stimulus": "<p id=\"stim\">LEOPARD</p>", "conditions": [12, 800, "v", 12000], "internal_node_id": "0.0-153.0", "trial": 5, "time_elapsed": 914042, "serialpos": 10, "key_press": -1, "wordID": 811, "type": "PRES_VIS", "trial_index": 207}, "uniqueid": "MTK1980:3DQQ64TANHS0CBQHJQ7FIRUHFBJWPF", "dateTime": 1516644527083}, {"current_trial": 208, "trialdata": {"rt": -1, "trial_type": "single-stim", "word": "luggage", "stimulus": "<p id=\"stim\">LUGGAGE</p>", "conditions": [12, 800, "v", 12000], "internal_node_id": "0.0-154.0", "trial": 5, "time_elapsed": 915792, "serialpos": 11, "key_press": -1, "wordID": 846, "type": "PRES_VIS", "trial_index": 208}, "uniqueid": "MTK1980:3DQQ64TANHS0CBQHJQ7FIRUHFBJWPF", "dateTime": 1516644528832}, {"current_trial": 209, "trialdata": {"rt": -1, "trial_type": "single-stim", "stimulus": "", "internal_node_id": "0.0-155.0-0.0", "time_elapsed": 917954, "key_press": -1, "type": "PRE_RECALL_DELAY", "trial_index": 209}, "uniqueid": "MTK1980:3DQQ64TANHS0CBQHJQ7FIRUHFBJWPF", "dateTime": 1516644530994}, {"current_trial": 210, "trialdata": {"rt": -1000, "trial_type": "single-audio", "stimulus": "/static/audio/400Hz.wav", "internal_node_id": "0.0-156.0", "time_elapsed": 918456, "key_press": -1, "type": "PRE_RECALL_ALERT", "trial_index": 210}, "uniqueid": "MTK1980:3DQQ64TANHS0CBQHJQ7FIRUHFBJWPF", "dateTime": 1516644531496}, {"current_trial": 211, "trialdata": {"rt": [4540, 6889, 8973, 11017, 31186, 35341, 37541], "recwords": ["leopard", "luggage", "pilot", "lodge", "grill", "panther", "badge"], "key_times": [1025, 1274, 1671, 1857, 2187, 2395, 2807, 3072, 3299, 3485, 3884, 4540, 5189, 5486, 5709, 5871, 6044, 6520, 6737, 6889, 7810, 8082, 8319, 8558, 8747, 8973, 9374, 9602, 9809, 10053, 10438, 11017, 29944, 30190, 30313, 30597, 30805, 31186, 34024, 34160, 34324, 34523, 34671, 34822, 34979, 35341, 36028, 36192, 36422, 36644, 36875, 37541], "trial_type": "free-recall", "conditions": [12, 800, "v", 12000], "internal_node_id": "0.0-157.0-0.0", "key_presses": [69, 79, 8, 8, 76, 69, 79, 80, 65, 82, 68, 13, 76, 85, 71, 71, 65, 71, 69, 13, 80, 73, 76, 79, 84, 13, 76, 79, 68, 71, 69, 13, 71, 82, 73, 76, 76, 13, 80, 65, 78, 84, 72, 69, 82, 13, 66, 65, 68, 71, 69, 13], "trial": 5, "time_elapsed": 978458, "type": "FREE_RECALL", "trial_index": 211}, "uniqueid": "MTK1980:3DQQ64TANHS0CBQHJQ7FIRUHFBJWPF", "dateTime": 1516644591502}, {"current_trial": 212, "trialdata": {"rt": 1293, "trial_type": "text", "internal_node_id": "0.0-158.0", "time_elapsed": 981758, "key_press": 13, "type": "INSTRUCTIONS", "trial_index": 212}, "uniqueid": "MTK1980:3DQQ64TANHS0CBQHJQ7FIRUHFBJWPF", "dateTime": 1516644594798}, {"current_trial": 213, "trialdata": {"rt": [1662, 3115, 6260, 8333, 10173], "trial_type": "math-distractor", "key_times": [1193, 1375, 1662, 2596, 2806, 3115, 5848, 6030, 6260, 7760, 8013, 8333, 9594, 9811, 10173, 11635, 11873], "responses": ["16", "12", "22", "19", "10"], "num2": [5, 6, 9, 4, 8, 5], "num3": [9, 2, 8, 8, 1, 2], "conditions": [12, 1600, "v", 12000], "internal_node_id": "0.0-159.0", "key_presses": [97, 102, 13, 97, 98, 13, 98, 98, 13, 97, 105, 13, 97, 96, 13, 97, 102], "trial": 6, "time_elapsed": 995762, "type": "DISTRACTOR", "trial_index": 213, "num1": [2, 4, 5, 7, 1, 9]}, "uniqueid": "MTK1980:3DQQ64TANHS0CBQHJQ7FIRUHFBJWPF", "dateTime": 1516644608802}, {"current_trial": 214, "trialdata": {"rt": -1, "trial_type": "single-stim", "stimulus": "<p id=\"stim\">10</p>", "internal_node_id": "0.0-160.0-0.0", "time_elapsed": 998765, "key_press": -1, "trial_index": 214}, "uniqueid": "MTK1980:3DQQ64TANHS0CBQHJQ7FIRUHFBJWPF", "dateTime": 1516644611805}, {"current_trial": 215, "trialdata": {"rt": -1, "trial_type": "single-stim", "stimulus": "<p id=\"stim\">9</p>", "internal_node_id": "0.0-160.0-1.0", "time_elapsed": 999766, "key_press": -1, "trial_index": 215}, "uniqueid": "MTK1980:3DQQ64TANHS0CBQHJQ7FIRUHFBJWPF", "dateTime": 1516644612806}, {"current_trial": 216, "trialdata": {"rt": -1, "trial_type": "single-stim", "stimulus": "<p id=\"stim\">8</p>", "internal_node_id": "0.0-160.0-2.0", "time_elapsed": 1000767, "key_press": -1, "trial_index": 216}, "uniqueid": "MTK1980:3DQQ64TANHS0CBQHJQ7FIRUHFBJWPF", "dateTime": 1516644613807}, {"current_trial": 217, "trialdata": {"rt": -1, "trial_type": "single-stim", "stimulus": "<p id=\"stim\">7</p>", "internal_node_id": "0.0-160.0-3.0", "time_elapsed": 1001768, "key_press": -1, "trial_index": 217}, "uniqueid": "MTK1980:3DQQ64TANHS0CBQHJQ7FIRUHFBJWPF", "dateTime": 1516644614808}, {"current_trial": 218, "trialdata": {"rt": -1, "trial_type": "single-stim", "stimulus": "<p id=\"stim\">6</p>", "internal_node_id": "0.0-160.0-4.0", "time_elapsed": 1002770, "key_press": -1, "trial_index": 218}, "uniqueid": "MTK1980:3DQQ64TANHS0CBQHJQ7FIRUHFBJWPF", "dateTime": 1516644615810}, {"current_trial": 219, "trialdata": {"rt": -1, "trial_type": "single-stim", "stimulus": "<p id=\"stim\">5</p>", "internal_node_id": "0.0-160.0-5.0", "time_elapsed": 1003772, "key_press": -1, "trial_index": 219}, "uniqueid": "MTK1980:3DQQ64TANHS0CBQHJQ7FIRUHFBJWPF", "dateTime": 1516644616812}, {"current_trial": 220, "trialdata": {"rt": -1, "trial_type": "single-stim", "stimulus": "<p id=\"stim\">4</p>", "internal_node_id": "0.0-160.0-6.0", "time_elapsed": 1004772, "key_press": -1, "trial_index": 220}, "uniqueid": "MTK1980:3DQQ64TANHS0CBQHJQ7FIRUHFBJWPF", "dateTime": 1516644617813}, {"current_trial": 221, "trialdata": {"rt": -1, "trial_type": "single-stim", "stimulus": "<p id=\"stim\">3</p>", "internal_node_id": "0.0-160.0-7.0", "time_elapsed": 1005774, "key_press": -1, "trial_index": 221}, "uniqueid": "MTK1980:3DQQ64TANHS0CBQHJQ7FIRUHFBJWPF", "dateTime": 1516644618814}, {"current_trial": 222, "trialdata": {"rt": -1, "trial_type": "single-stim", "stimulus": "<p id=\"stim\">2</p>", "internal_node_id": "0.0-160.0-8.0", "time_elapsed": 1006775, "key_press": -1, "trial_index": 222}, "uniqueid": "MTK1980:3DQQ64TANHS0CBQHJQ7FIRUHFBJWPF", "dateTime": 1516644619816}, {"current_trial": 223, "trialdata": {"rt": -1, "trial_type": "single-stim", "stimulus": "<p id=\"stim\">1</p>", "internal_node_id": "0.0-160.0-9.0", "time_elapsed": 1007777, "key_press": -1, "trial_index": 223}, "uniqueid": "MTK1980:3DQQ64TANHS0CBQHJQ7FIRUHFBJWPF", "dateTime": 1516644620817}, {"current_trial": 224, "trialdata": {"rt": -1, "trial_type": "single-stim", "stimulus": "<p id=\"stim\">+</p>", "internal_node_id": "0.0-161.0-0.0", "time_elapsed": 1009279, "key_press": -1, "type": "FIXATION", "trial_index": 224}, "uniqueid": "MTK1980:3DQQ64TANHS0CBQHJQ7FIRUHFBJWPF", "dateTime": 1516644622319}, {"current_trial": 225, "trialdata": {"rt": -1, "trial_type": "single-stim", "word": "bouquet", "stimulus": "<p id=\"stim\">BOUQUET</p>", "conditions": [12, 1600, "v", 12000], "internal_node_id": "0.0-162.0", "trial": 6, "time_elapsed": 1010879, "serialpos": 0, "key_press": -1, "wordID": 156, "type": "PRES_VIS", "trial_index": 225}, "uniqueid": "MTK1980:3DQQ64TANHS0CBQHJQ7FIRUHFBJWPF", "dateTime": 1516644623920}, {"current_trial": 226, "trialdata": {"rt": -1, "trial_type": "single-stim", "word": "chemist", "stimulus": "<p id=\"stim\">CHEMIST</p>", "conditions": [12, 1600, "v", 12000], "internal_node_id": "0.0-163.0", "trial": 6, "time_elapsed": 1013345, "serialpos": 1, "key_press": -1, "wordID": 291, "type": "PRES_VIS", "trial_index": 226}, "uniqueid": "MTK1980:3DQQ64TANHS0CBQHJQ7FIRUHFBJWPF", "dateTime": 1516644626385}, {"current_trial": 227, "trialdata": {"rt": -1, "trial_type": "single-stim", "word": "sandwich", "stimulus": "<p id=\"stim\">SANDWICH</p>", "conditions": [12, 1600, "v", 12000], "internal_node_id": "0.0-164.0", "trial": 6, "time_elapsed": 1015746, "serialpos": 2, "key_press": -1, "wordID": 1231, "type": "PRES_VIS", "trial_index": 227}, "uniqueid": "MTK1980:3DQQ64TANHS0CBQHJQ7FIRUHFBJWPF", "dateTime": 1516644628787}, {"current_trial": 228, "trialdata": {"rt": -1, "trial_type": "single-stim", "word": "sparrow", "stimulus": "<p id=\"stim\">SPARROW</p>", "conditions": [12, 1600, "v", 12000], "internal_node_id": "0.0-165.0", "trial": 6, "time_elapsed": 1018265, "serialpos": 3, "key_press": -1, "wordID": 1346, "type": "PRES_VIS", "trial_index": 228}, "uniqueid": "MTK1980:3DQQ64TANHS0CBQHJQ7FIRUHFBJWPF", "dateTime": 1516644631305}, {"current_trial": 229, "trialdata": {"rt": -1, "trial_type": "single-stim", "word": "europe", "stimulus": "<p id=\"stim\">EUROPE</p>", "conditions": [12, 1600, "v", 12000], "internal_node_id": "0.0-166.0", "trial": 6, "time_elapsed": 1020837, "serialpos": 4, "key_press": -1, "wordID": 540, "type": "PRES_VIS", "trial_index": 229}, "uniqueid": "MTK1980:3DQQ64TANHS0CBQHJQ7FIRUHFBJWPF", "dateTime": 1516644633877}, {"current_trial": 230, "trialdata": {"rt": -1, "trial_type": "single-stim", "word": "bank", "stimulus": "<p id=\"stim\">BANK</p>", "conditions": [12, 1600, "v", 12000], "internal_node_id": "0.0-167.0", "trial": 6, "time_elapsed": 1023323, "serialpos": 5, "key_press": -1, "wordID": 82, "type": "PRES_VIS", "trial_index": 230}, "uniqueid": "MTK1980:3DQQ64TANHS0CBQHJQ7FIRUHFBJWPF", "dateTime": 1516644636363}, {"current_trial": 231, "trialdata": {"rt": -1, "trial_type": "single-stim", "word": "robin", "stimulus": "<p id=\"stim\">ROBIN</p>", "conditions": [12, 1600, "v", 12000], "internal_node_id": "0.0-168.0", "trial": 6, "time_elapsed": 1025961, "serialpos": 6, "key_press": -1, "wordID": 1198, "type": "PRES_VIS", "trial_index": 231}, "uniqueid": "MTK1980:3DQQ64TANHS0CBQHJQ7FIRUHFBJWPF", "dateTime": 1516644639001}, {"current_trial": 232, "trialdata": {"rt": -1, "trial_type": "single-stim", "word": "whistle", "stimulus": "<p id=\"stim\">WHISTLE</p>", "conditions": [12, 1600, "v", 12000], "internal_node_id": "0.0-169.0", "trial": 6, "time_elapsed": 1028736, "serialpos": 7, "key_press": -1, "wordID": 1605, "type": "PRES_VIS", "trial_index": 232}, "uniqueid": "MTK1980:3DQQ64TANHS0CBQHJQ7FIRUHFBJWPF", "dateTime": 1516644641776}, {"current_trial": 233, "trialdata": {"rt": -1, "trial_type": "single-stim", "word": "fireman", "stimulus": "<p id=\"stim\">FIREMAN</p>", "conditions": [12, 1600, "v", 12000], "internal_node_id": "0.0-170.0", "trial": 6, "time_elapsed": 1031226, "serialpos": 8, "key_press": -1, "wordID": 568, "type": "PRES_VIS", "trial_index": 233}, "uniqueid": "MTK1980:3DQQ64TANHS0CBQHJQ7FIRUHFBJWPF", "dateTime": 1516644644266}, {"current_trial": 234, "trialdata": {"rt": -1, "trial_type": "single-stim", "word": "supper", "stimulus": "<p id=\"stim\">SUPPER</p>", "conditions": [12, 1600, "v", 12000], "internal_node_id": "0.0-171.0", "trial": 6, "time_elapsed": 1033924, "serialpos": 9, "key_press": -1, "wordID": 1410, "type": "PRES_VIS", "trial_index": 234}, "uniqueid": "MTK1980:3DQQ64TANHS0CBQHJQ7FIRUHFBJWPF", "dateTime": 1516644646965}, {"current_trial": 235, "trialdata": {"rt": -1, "trial_type": "single-stim", "word": "banquet", "stimulus": "<p id=\"stim\">BANQUET</p>", "conditions": [12, 1600, "v", 12000], "internal_node_id": "0.0-172.0", "trial": 6, "time_elapsed": 1036629, "serialpos": 10, "key_press": -1, "wordID": 85, "type": "PRES_VIS", "trial_index": 235}, "uniqueid": "MTK1980:3DQQ64TANHS0CBQHJQ7FIRUHFBJWPF", "dateTime": 1516644649670}, {"current_trial": 236, "trialdata": {"rt": -1, "trial_type": "single-stim", "word": "army", "stimulus": "<p id=\"stim\">ARMY</p>", "conditions": [12, 1600, "v", 12000], "internal_node_id": "0.0-173.0", "trial": 6, "time_elapsed": 1039134, "serialpos": 11, "key_press": -1, "wordID": 38, "type": "PRES_VIS", "trial_index": 236}, "uniqueid": "MTK1980:3DQQ64TANHS0CBQHJQ7FIRUHFBJWPF", "dateTime": 1516644652174}, {"current_trial": 237, "trialdata": {"rt": -1, "trial_type": "single-stim", "stimulus": "", "internal_node_id": "0.0-174.0-0.0", "time_elapsed": 1041691, "key_press": -1, "type": "PRE_RECALL_DELAY", "trial_index": 237}, "uniqueid": "MTK1980:3DQQ64TANHS0CBQHJQ7FIRUHFBJWPF", "dateTime": 1516644654731}, {"current_trial": 238, "trialdata": {"rt": -1000, "trial_type": "single-audio", "stimulus": "/static/audio/400Hz.wav", "internal_node_id": "0.0-175.0", "time_elapsed": 1042193, "key_press": -1, "type": "PRE_RECALL_ALERT", "trial_index": 238}, "uniqueid": "MTK1980:3DQQ64TANHS0CBQHJQ7FIRUHFBJWPF", "dateTime": 1516644655233}, {"current_trial": 239, "trialdata": {"rt": [1390, 4099, 6451, 9200, 10999, 12709, 14409, 16270, 18343, 24010, 39124, 40393], "recwords": ["army", "banquet", "supper", "fireman", "bouquet", "chemist", "sparrow", "sandwich", "robin", "whistle", "europe", "bank"], "key_times": [359, 551, 697, 1049, 1390, 2261, 2456, 2565, 2888, 3041, 3375, 3883, 4099, 4462, 4571, 4803, 4992, 6106, 6309, 6451, 6676, 6778, 7016, 7969, 8208, 8458, 8603, 9200, 9547, 9697, 9836, 10170, 10356, 10587, 10878, 10999, 11243, 11436, 11647, 11871, 12049, 12205, 12455, 12709, 13006, 13190, 13331, 13539, 13710, 13824, 13983, 14409, 14793, 14940, 15090, 15228, 15524, 15668, 15822, 16073, 16270, 16793, 16905, 17119, 17276, 17959, 18343, 21645, 21887, 22522, 22869, 22990, 23133, 23376, 23550, 23699, 24010, 36199, 36869, 37291, 37429, 37685, 38850, 39124, 39471, 39679, 39788, 40074, 40393], "trial_type": "free-recall", "conditions": [12, 1600, "v", 12000], "internal_node_id": "0.0-176.0-0.0", "key_presses": [65, 82, 77, 89, 13, 66, 65, 78, 81, 85, 69, 84, 13, 83, 85, 80, 80, 69, 82, 13, 70, 73, 82, 69, 77, 65, 78, 13, 66, 79, 85, 81, 85, 69, 84, 32, 67, 72, 69, 77, 73, 83, 84, 13, 83, 80, 65, 82, 82, 79, 87, 13, 83, 65, 78, 68, 87, 73, 67, 72, 32, 82, 79, 66, 73, 78, 13, 87, 73, 8, 72, 73, 83, 84, 76, 69, 13, 69, 85, 82, 79, 80, 69, 13, 66, 65, 78, 75, 13], "trial": 6, "time_elapsed": 1102197, "type": "FREE_RECALL", "trial_index": 239}, "uniqueid": "MTK1980:3DQQ64TANHS0CBQHJQ7FIRUHFBJWPF", "dateTime": 1516644715243}, {"current_trial": 240, "trialdata": {"rt": 1388, "trial_type": "text", "internal_node_id": "0.0-177.0", "time_elapsed": 1105592, "key_press": 13, "type": "INSTRUCTIONS", "trial_index": 240}, "uniqueid": "MTK1980:3DQQ64TANHS0CBQHJQ7FIRUHFBJWPF", "dateTime": 1516644718632}, {"current_trial": 241, "trialdata": {"rt": [2359, 3987, 5738, 8053, 9535, 11499, 13220, 15689, 18074, 20129, 21975], "trial_type": "math-distractor", "key_times": [1941, 2130, 2359, 3665, 3987, 5130, 5401, 5738, 7485, 7760, 8053, 9002, 9250, 9535, 10830, 11209, 11499, 12737, 12967, 13220, 14798, 14992, 15689, 17643, 17864, 18074, 19876, 20129, 21432, 21678, 21975, 23768], "responses": ["11", "3", "15", "13", "12", "17", "12", "20", "20", "9", "19"], "num2": [5, 1, 9, 3, 4, 2, 3, 7, 6, 4, 1, 2], "num3": [4, 1, 1, 2, 2, 9, 1, 6, 6, 4, 9, 3], "conditions": [12, 800, "v", 24000], "internal_node_id": "0.0-178.0", "key_presses": [97, 97, 13, 99, 13, 97, 101, 13, 97, 99, 13, 97, 98, 13, 97, 103, 13, 97, 98, 13, 98, 96, 13, 98, 96, 13, 105, 13, 97, 105, 13, 102], "trial": 7, "time_elapsed": 1131595, "type": "DISTRACTOR", "trial_index": 241, "num1": [2, 1, 5, 8, 6, 4, 8, 7, 8, 1, 9, 1]}, "uniqueid": "MTK1980:3DQQ64TANHS0CBQHJQ7FIRUHFBJWPF", "dateTime": 1516644744635}, {"current_trial": 242, "trialdata": {"rt": -1, "trial_type": "single-stim", "stimulus": "<p id=\"stim\">10</p>", "internal_node_id": "0.0-179.0-0.0", "time_elapsed": 1134596, "key_press": -1, "trial_index": 242}, "uniqueid": "MTK1980:3DQQ64TANHS0CBQHJQ7FIRUHFBJWPF", "dateTime": 1516644747637}, {"current_trial": 243, "trialdata": {"rt": -1, "trial_type": "single-stim", "stimulus": "<p id=\"stim\">9</p>", "internal_node_id": "0.0-179.0-1.0", "time_elapsed": 1135598, "key_press": -1, "trial_index": 243}, "uniqueid": "MTK1980:3DQQ64TANHS0CBQHJQ7FIRUHFBJWPF", "dateTime": 1516644748638}, {"current_trial": 244, "trialdata": {"rt": -1, "trial_type": "single-stim", "stimulus": "<p id=\"stim\">8</p>", "internal_node_id": "0.0-179.0-2.0", "time_elapsed": 1136600, "key_press": -1, "trial_index": 244}, "uniqueid": "MTK1980:3DQQ64TANHS0CBQHJQ7FIRUHFBJWPF", "dateTime": 1516644749640}, {"current_trial": 245, "trialdata": {"rt": -1, "trial_type": "single-stim", "stimulus": "<p id=\"stim\">7</p>", "internal_node_id": "0.0-179.0-3.0", "time_elapsed": 1137602, "key_press": -1, "trial_index": 245}, "uniqueid": "MTK1980:3DQQ64TANHS0CBQHJQ7FIRUHFBJWPF", "dateTime": 1516644750642}, {"current_trial": 246, "trialdata": {"rt": -1, "trial_type": "single-stim", "stimulus": "<p id=\"stim\">6</p>", "internal_node_id": "0.0-179.0-4.0", "time_elapsed": 1138603, "key_press": -1, "trial_index": 246}, "uniqueid": "MTK1980:3DQQ64TANHS0CBQHJQ7FIRUHFBJWPF", "dateTime": 1516644751643}, {"current_trial": 247,