{"assignmentId": "3BWI6RSP7HGHP50Q24JSWZWW750E7L", "workerId": "MTK1620", "questiondata": {"avail_screen_height": 900, "color_depth": 24, "screen_width": 1600, "pixel_depth": 24, "avail_screen_width": 1600, "screen_height": 900}, "bonus": 0, "hitId": "3INZSNUD80XEOYCPV41QFT9XK9MD9P", "counterbalance": 1498, "useragent": "Mozilla/5.0 (X11; Linux x86_64) AppleWebKit/537.36 (KHTML, like Gecko) Chrome/63.0.3239.108 Safari/537.36", "eventdata": [{"eventtype": "initialized", "interval": 0, "value": null, "timestamp": 1516046950066}, {"eventtype": "window_resize", "interval": 0, "value": [1600, 843], "timestamp": 1516046950066}, {"eventtype": "focus", "interval": 2153942, "value": "off", "timestamp": 1516049104008}, {"eventtype": "focus", "interval": 3143, "value": "on", "timestamp": 1516049107151}, {"eventtype": "focus", "interval": 637839, "value": "off", "timestamp": 1516049744990}, {"eventtype": "focus", "interval": 35192, "value": "on", "timestamp": 1516049780182}, {"eventtype": "focus", "interval": 5372, "value": "off", "timestamp": 1516049785554}, {"eventtype": "focus", "interval": 6287, "value": "on", "timestamp": 1516049791841}, {"eventtype": "focus", "interval": 2062, "value": "off", "timestamp": 1516049793903}], "data": [{"current_trial": 0, "trialdata": {"rt": 1384, "trial_type": "text", "internal_node_id": "0.0-0.0", "time_elapsed": 1387, "key_press": 32, "type": "INSTRUCTIONS", "trial_index": 0}, "uniqueid": "MTK1620:3BWI6RSP7HGHP50Q24JSWZWW750E7L", "dateTime": 1516046951864}, {"current_trial": 1, "trialdata": {"rt": 2315, "trial_type": "text", "internal_node_id": "0.0-1.0", "time_elapsed": 3705, "key_press": 32, "type": "INSTRUCTIONS", "trial_index": 1}, "uniqueid": "MTK1620:3BWI6RSP7HGHP50Q24JSWZWW750E7L", "dateTime": 1516046954182}, {"current_trial": 2, "trialdata": {"rt": [3278], "trial_type": "audio-test", "responses": ["ocean"], "internal_node_id": "0.0-2.0", "time_elapsed": 6994, "type": "AUDIO_TEST", "trial_index": 2}, "uniqueid": "MTK1620:3BWI6RSP7HGHP50Q24JSWZWW750E7L", "dateTime": 1516046957471}, {"current_trial": 3, "trialdata": {"rt": [3325], "trial_type": "audio-test", "responses": ["crystal"], "internal_node_id": "0.0-3.0", "time_elapsed": 10329, "type": "AUDIO_TEST", "trial_index": 3}, "uniqueid": "MTK1620:3BWI6RSP7HGHP50Q24JSWZWW750E7L", "dateTime": 1516046960806}, {"current_trial": 4, "trialdata": {"rt": [3329], "trial_type": "audio-test", "responses": ["spice"], "internal_node_id": "0.0-4.0", "time_elapsed": 13666, "type": "AUDIO_TEST", "trial_index": 4}, "uniqueid": "MTK1620:3BWI6RSP7HGHP50Q24JSWZWW750E7L", "dateTime": 1516046964143}, {"current_trial": 5, "trialdata": {"rt": 6625, "trial_type": "survey-text", "responses": "{\"Q0\":\"10\",\"Q1\":\"8\",\"Q2\":\"5\"}", "internal_node_id": "0.0-5.0", "time_elapsed": 21046, "type": "SLEEP_SURVEY", "trial_index": 5}, "uniqueid": "MTK1620:3BWI6RSP7HGHP50Q24JSWZWW750E7L", "dateTime": 1516046971523}, {"current_trial": 6, "trialdata": {"rt": 14224, "trial_type": "text", "internal_node_id": "0.0-6.0", "time_elapsed": 36272, "key_press": 32, "type": "INSTRUCTIONS", "trial_index": 6}, "uniqueid": "MTK1620:3BWI6RSP7HGHP50Q24JSWZWW750E7L", "dateTime": 1516046986749}, {"current_trial": 7, "trialdata": {"rt": 5525, "trial_type": "text", "internal_node_id": "0.0-7.0", "time_elapsed": 42299, "key_press": 32, "type": "INSTRUCTIONS", "trial_index": 7}, "uniqueid": "MTK1620:3BWI6RSP7HGHP50Q24JSWZWW750E7L", "dateTime": 1516046992776}, {"current_trial": 8, "trialdata": {"rt": 8454, "trial_type": "text", "internal_node_id": "0.0-8.0", "time_elapsed": 51255, "key_press": 32, "type": "INSTRUCTIONS", "trial_index": 8}, "uniqueid": "MTK1620:3BWI6RSP7HGHP50Q24JSWZWW750E7L", "dateTime": 1516047001733}, {"current_trial": 9, "trialdata": {"rt": [2098, 4622, 6297, 8381, 12453, 14542, 16669], "trial_type": "math-distractor", "key_times": [1794, 1947, 2098, 4187, 4515, 4622, 6168, 6297, 8049, 8225, 8381, 12278, 12328, 12453, 14099, 14315, 14542, 16154, 16525, 16669], "responses": ["11", "16", "9", "11", "14", "18", "27"], "num2": [3, 8, 6, 3, 1, 6, 9, 6], "num3": [4, 2, 2, 3, 5, 6, 9, 7], "conditions": [18, 1200, "v", 18000], "internal_node_id": "0.0-9.0", "key_presses": [49, 49, 13, 49, 54, 13, 57, 13, 49, 49, 13, 49, 52, 13, 49, 56, 13, 50, 55, 13], "trial": 0, "time_elapsed": 70278, "type": "DISTRACTOR", "trial_index": 9, "num1": [4, 6, 1, 5, 8, 6, 9, 7]}, "uniqueid": "MTK1620:3BWI6RSP7HGHP50Q24JSWZWW750E7L", "dateTime": 1516047020756}, {"current_trial": 10, "trialdata": {"rt": -1, "trial_type": "single-stim", "stimulus": "<p id=\"stim\">10</p>", "internal_node_id": "0.0-10.0-0.0", "time_elapsed": 73282, "key_press": -1, "trial_index": 10}, "uniqueid": "MTK1620:3BWI6RSP7HGHP50Q24JSWZWW750E7L", "dateTime": 1516047023759}, {"current_trial": 11, "trialdata": {"rt": -1, "trial_type": "single-stim", "stimulus": "<p id=\"stim\">9</p>", "internal_node_id": "0.0-10.0-1.0", "time_elapsed": 74284, "key_press": -1, "trial_index": 11}, "uniqueid": "MTK1620:3BWI6RSP7HGHP50Q24JSWZWW750E7L", "dateTime": 1516047024761}, {"current_trial": 12, "trialdata": {"rt": -1, "trial_type": "single-stim", "stimulus": "<p id=\"stim\">8</p>", "internal_node_id": "0.0-10.0-2.0", "time_elapsed": 75286, "key_press": -1, "trial_index": 12}, "uniqueid": "MTK1620:3BWI6RSP7HGHP50Q24JSWZWW750E7L", "dateTime": 1516047025763}, {"current_trial": 13, "trialdata": {"rt": -1, "trial_type": "single-stim", "stimulus": "<p id=\"stim\">7</p>", "internal_node_id": "0.0-10.0-3.0", "time_elapsed": 76288, "key_press": -1, "trial_index": 13}, "uniqueid": "MTK1620:3BWI6RSP7HGHP50Q24JSWZWW750E7L", "dateTime": 1516047026765}, {"current_trial": 14, "trialdata": {"rt": -1, "trial_type": "single-stim", "stimulus": "<p id=\"stim\">6</p>", "internal_node_id": "0.0-10.0-4.0", "time_elapsed": 77290, "key_press": -1, "trial_index": 14}, "uniqueid": "MTK1620:3BWI6RSP7HGHP50Q24JSWZWW750E7L", "dateTime": 1516047027767}, {"current_trial": 15, "trialdata": {"rt": -1, "trial_type": "single-stim", "stimulus": "<p id=\"stim\">5</p>", "internal_node_id": "0.0-10.0-5.0", "time_elapsed": 78292, "key_press": -1, "trial_index": 15}, "uniqueid": "MTK1620:3BWI6RSP7HGHP50Q24JSWZWW750E7L", "dateTime": 1516047028769}, {"current_trial": 16, "trialdata": {"rt": -1, "trial_type": "single-stim", "stimulus": "<p id=\"stim\">4</p>", "internal_node_id": "0.0-10.0-6.0", "time_elapsed": 79294, "key_press": -1, "trial_index": 16}, "uniqueid": "MTK1620:3BWI6RSP7HGHP50Q24JSWZWW750E7L", "dateTime": 1516047029771}, {"current_trial": 17, "trialdata": {"rt": -1, "trial_type": "single-stim", "stimulus": "<p id=\"stim\">3</p>", "internal_node_id": "0.0-10.0-7.0", "time_elapsed": 80297, "key_press": -1, "trial_index": 17}, "uniqueid": "MTK1620:3BWI6RSP7HGHP50Q24JSWZWW750E7L", "dateTime": 1516047030774}, {"current_trial": 18, "trialdata": {"rt": -1, "trial_type": "single-stim", "stimulus": "<p id=\"stim\">2</p>", "internal_node_id": "0.0-10.0-8.0", "time_elapsed": 81298, "key_press": -1, "trial_index": 18}, "uniqueid": "MTK1620:3BWI6RSP7HGHP50Q24JSWZWW750E7L", "dateTime": 1516047031776}, {"current_trial": 19, "trialdata": {"rt": -1, "trial_type": "single-stim", "stimulus": "<p id=\"stim\">1</p>", "internal_node_id": "0.0-10.0-9.0", "time_elapsed": 82300, "key_press": -1, "trial_index": 19}, "uniqueid": "MTK1620:3BWI6RSP7HGHP50Q24JSWZWW750E7L", "dateTime": 1516047032777}, {"current_trial": 20, "trialdata": {"rt": -1, "trial_type": "single-stim", "stimulus": "<p id=\"stim\">+</p>", "internal_node_id": "0.0-11.0-0.0", "time_elapsed": 83805, "key_press": -1, "type": "FIXATION", "trial_index": 20}, "uniqueid": "MTK1620:3BWI6RSP7HGHP50Q24JSWZWW750E7L", "dateTime": 1516047034282}, {"current_trial": 21, "trialdata": {"rt": -1, "trial_type": "single-stim", "word": "actress", "stimulus": "<p id=\"stim\">ACTRESS</p>", "conditions": [18, 1200, "v", 18000], "internal_node_id": "0.0-12.0", "trial": 0, "time_elapsed": 85007, "serialpos": 0, "key_press": -1, "wordID": 5, "type": "PRES_VIS", "trial_index": 21}, "uniqueid": "MTK1620:3BWI6RSP7HGHP50Q24JSWZWW750E7L", "dateTime": 1516047035484}, {"current_trial": 22, "trialdata": {"rt": -1, "trial_type": "single-stim", "word": "gymnast", "stimulus": "<p id=\"stim\">GYMNAST</p>", "conditions": [18, 1200, "v", 18000], "internal_node_id": "0.0-13.0", "trial": 0, "time_elapsed": 87297, "serialpos": 1, "key_press": -1, "wordID": 674, "type": "PRES_VIS", "trial_index": 22}, "uniqueid": "MTK1620:3BWI6RSP7HGHP50Q24JSWZWW750E7L", "dateTime": 1516047037775}, {"current_trial": 23, "trialdata": {"rt": -1, "trial_type": "single-stim", "word": "pimple", "stimulus": "<p id=\"stim\">PIMPLE</p>", "conditions": [18, 1200, "v", 18000], "internal_node_id": "0.0-14.0", "trial": 0, "time_elapsed": 89400, "serialpos": 2, "key_press": -1, "wordID": 1070, "type": "PRES_VIS", "trial_index": 23}, "uniqueid": "MTK1620:3BWI6RSP7HGHP50Q24JSWZWW750E7L", "dateTime": 1516047039877}, {"current_trial": 24, "trialdata": {"rt": -1, "trial_type": "single-stim", "word": "fireplace", "stimulus": "<p id=\"stim\">FIREPLACE</p>", "conditions": [18, 1200, "v", 18000], "internal_node_id": "0.0-15.0", "trial": 0, "time_elapsed": 91430, "serialpos": 3, "key_press": -1, "wordID": 569, "type": "PRES_VIS", "trial_index": 24}, "uniqueid": "MTK1620:3BWI6RSP7HGHP50Q24JSWZWW750E7L", "dateTime": 1516047041907}, {"current_trial": 25, "trialdata": {"rt": -1, "trial_type": "single-stim", "word": "woman", "stimulus": "<p id=\"stim\">WOMAN</p>", "conditions": [18, 1200, "v", 18000], "internal_node_id": "0.0-16.0", "trial": 0, "time_elapsed": 93484, "serialpos": 4, "key_press": -1, "wordID": 1619, "type": "PRES_VIS", "trial_index": 25}, "uniqueid": "MTK1620:3BWI6RSP7HGHP50Q24JSWZWW750E7L", "dateTime": 1516047043961}, {"current_trial": 26, "trialdata": {"rt": -1, "trial_type": "single-stim", "word": "receipt", "stimulus": "<p id=\"stim\">RECEIPT</p>", "conditions": [18, 1200, "v", 18000], "internal_node_id": "0.0-17.0", "trial": 0, "time_elapsed": 95534, "serialpos": 5, "key_press": -1, "wordID": 1172, "type": "PRES_VIS", "trial_index": 26}, "uniqueid": "MTK1620:3BWI6RSP7HGHP50Q24JSWZWW750E7L", "dateTime": 1516047046011}, {"current_trial": 27, "trialdata": {"rt": -1, "trial_type": "single-stim", "word": "palace", "stimulus": "<p id=\"stim\">PALACE</p>", "conditions": [18, 1200, "v", 18000], "internal_node_id": "0.0-18.0", "trial": 0, "time_elapsed": 97592, "serialpos": 6, "key_press": -1, "wordID": 1005, "type": "PRES_VIS", "trial_index": 27}, "uniqueid": "MTK1620:3BWI6RSP7HGHP50Q24JSWZWW750E7L", "dateTime": 1516047048069}, {"current_trial": 28, "trialdata": {"rt": -1, "trial_type": "single-stim", "word": "popcorn", "stimulus": "<p id=\"stim\">POPCORN</p>", "conditions": [18, 1200, "v", 18000], "internal_node_id": "0.0-19.0", "trial": 0, "time_elapsed": 99654, "serialpos": 7, "key_press": -1, "wordID": 1103, "type": "PRES_VIS", "trial_index": 28}, "uniqueid": "MTK1620:3BWI6RSP7HGHP50Q24JSWZWW750E7L", "dateTime": 1516047050132}, {"current_trial": 29, "trialdata": {"rt": -1, "trial_type": "single-stim", "word": "piano", "stimulus": "<p id=\"stim\">PIANO</p>", "conditions": [18, 1200, "v", 18000], "internal_node_id": "0.0-20.0", "trial": 0, "time_elapsed": 101775, "serialpos": 8, "key_press": -1, "wordID": 1056, "type": "PRES_VIS", "trial_index": 29}, "uniqueid": "MTK1620:3BWI6RSP7HGHP50Q24JSWZWW750E7L", "dateTime": 1516047052252}, {"current_trial": 30, "trialdata": {"rt": -1, "trial_type": "single-stim", "word": "stallion", "stimulus": "<p id=\"stim\">STALLION</p>", "conditions": [18, 1200, "v", 18000], "internal_node_id": "0.0-21.0", "trial": 0, "time_elapsed": 103796, "serialpos": 9, "key_press": -1, "wordID": 1368, "type": "PRES_VIS", "trial_index": 30}, "uniqueid": "MTK1620:3BWI6RSP7HGHP50Q24JSWZWW750E7L", "dateTime": 1516047054274}, {"current_trial": 31, "trialdata": {"rt": -1, "trial_type": "single-stim", "word": "lady", "stimulus": "<p id=\"stim\">LADY</p>", "conditions": [18, 1200, "v", 18000], "internal_node_id": "0.0-22.0", "trial": 0, "time_elapsed": 105891, "serialpos": 10, "key_press": -1, "wordID": 793, "type": "PRES_VIS", "trial_index": 31}, "uniqueid": "MTK1620:3BWI6RSP7HGHP50Q24JSWZWW750E7L", "dateTime": 1516047056368}, {"current_trial": 32, "trialdata": {"rt": -1, "trial_type": "single-stim", "word": "judge", "stimulus": "<p id=\"stim\">JUDGE</p>", "conditions": [18, 1200, "v", 18000], "internal_node_id": "0.0-23.0", "trial": 0, "time_elapsed": 108095, "serialpos": 11, "key_press": -1, "wordID": 760, "type": "PRES_VIS", "trial_index": 32}, "uniqueid": "MTK1620:3BWI6RSP7HGHP50Q24JSWZWW750E7L", "dateTime": 1516047058572}, {"current_trial": 33, "trialdata": {"rt": -1, "trial_type": "single-stim", "word": "parent", "stimulus": "<p id=\"stim\">PARENT</p>", "conditions": [18, 1200, "v", 18000], "internal_node_id": "0.0-24.0", "trial": 0, "time_elapsed": 110120, "serialpos": 12, "key_press": -1, "wordID": 1012, "type": "PRES_VIS", "trial_index": 33}, "uniqueid": "MTK1620:3BWI6RSP7HGHP50Q24JSWZWW750E7L", "dateTime": 1516047060597}, {"current_trial": 34, "trialdata": {"rt": -1, "trial_type": "single-stim", "word": "scribble", "stimulus": "<p id=\"stim\">SCRIBBLE</p>", "conditions": [18, 1200, "v", 18000], "internal_node_id": "0.0-25.0", "trial": 0, "time_elapsed": 112283, "serialpos": 13, "key_press": -1, "wordID": 1255, "type": "PRES_VIS", "trial_index": 34}, "uniqueid": "MTK1620:3BWI6RSP7HGHP50Q24JSWZWW750E7L", "dateTime": 1516047062760}, {"current_trial": 35, "trialdata": {"rt": -1, "trial_type": "single-stim", "word": "xerox", "stimulus": "<p id=\"stim\">XEROX</p>", "conditions": [18, 1200, "v", 18000], "internal_node_id": "0.0-26.0", "trial": 0, "time_elapsed": 114646, "serialpos": 14, "key_press": -1, "wordID": 1627, "type": "PRES_VIS", "trial_index": 35}, "uniqueid": "MTK1620:3BWI6RSP7HGHP50Q24JSWZWW750E7L", "dateTime": 1516047065124}, {"current_trial": 36, "trialdata": {"rt": -1, "trial_type": "single-stim", "word": "ox", "stimulus": "<p id=\"stim\">OX</p>", "conditions": [18, 1200, "v", 18000], "internal_node_id": "0.0-27.0", "trial": 0, "time_elapsed": 116751, "serialpos": 15, "key_press": -1, "wordID": 993, "type": "PRES_VIS", "trial_index": 36}, "uniqueid": "MTK1620:3BWI6RSP7HGHP50Q24JSWZWW750E7L", "dateTime": 1516047067228}, {"current_trial": 37, "trialdata": {"rt": -1, "trial_type": "single-stim", "word": "citrus", "stimulus": "<p id=\"stim\">CITRUS</p>", "conditions": [18, 1200, "v", 18000], "internal_node_id": "0.0-28.0", "trial": 0, "time_elapsed": 118985, "serialpos": 16, "key_press": -1, "wordID": 312, "type": "PRES_VIS", "trial_index": 37}, "uniqueid": "MTK1620:3BWI6RSP7HGHP50Q24JSWZWW750E7L", "dateTime": 1516047069462}, {"current_trial": 38, "trialdata": {"rt": -1, "trial_type": "single-stim", "word": "shorts", "stimulus": "<p id=\"stim\">SHORTS</p>", "conditions": [18, 1200, "v", 18000], "internal_node_id": "0.0-29.0", "trial": 0, "time_elapsed": 121096, "serialpos": 17, "key_press": -1, "wordID": 1292, "type": "PRES_VIS", "trial_index": 38}, "uniqueid": "MTK1620:3BWI6RSP7HGHP50Q24JSWZWW750E7L", "dateTime": 1516047071573}, {"current_trial": 39, "trialdata": {"rt": -1, "trial_type": "single-stim", "stimulus": "", "internal_node_id": "0.0-30.0-0.0", "time_elapsed": 123334, "key_press": -1, "type": "PRE_RECALL_DELAY", "trial_index": 39}, "uniqueid": "MTK1620:3BWI6RSP7HGHP50Q24JSWZWW750E7L", "dateTime": 1516047073811}, {"current_trial": 40, "trialdata": {"rt": -1000, "trial_type": "single-audio", "stimulus": "/static/audio/400Hz.wav", "internal_node_id": "0.0-31.0", "time_elapsed": 123837, "key_press": -1, "type": "PRE_RECALL_ALERT", "trial_index": 40}, "uniqueid": "MTK1620:3BWI6RSP7HGHP50Q24JSWZWW750E7L", "dateTime": 1516047074314}, {"current_trial": 41, "trialdata": {"rt": [3480, 5224, 7320, 8842, 9930, 12630, 15273, 19656, 27989, 38714], "recwords": ["actress", "citrus", "gymnast", "shorts", "ox", "oxtail", "pimple", "", "stallion", "gymnast"], "key_times": [2134, 2204, 2591, 2664, 2728, 2966, 3147, 3480, 3688, 3820, 3978, 4083, 4356, 4486, 5224, 6062, 6292, 6443, 6896, 7012, 7078, 7210, 7320, 7586, 7706, 7786, 7869, 8000, 8089, 8842, 9582, 9751, 9930, 10207, 10332, 10826, 10930, 10977, 11055, 12630, 14568, 14687, 14774, 14892, 14990, 15103, 15273, 19656, 26590, 26759, 26827, 26912, 27029, 27598, 27669, 27782, 27989, 37621, 37825, 37951, 38136, 38260, 38334, 38443, 38714], "trial_type": "free-recall", "conditions": [18, 1200, "v", 18000], "internal_node_id": "0.0-32.0-0.0", "key_presses": [65, 67, 84, 82, 69, 83, 83, 32, 67, 73, 84, 82, 85, 83, 32, 71, 89, 77, 78, 65, 83, 84, 13, 83, 72, 79, 82, 84, 83, 32, 79, 88, 13, 79, 88, 84, 65, 73, 76, 13, 80, 73, 77, 80, 76, 69, 13, 32, 83, 84, 65, 76, 76, 73, 79, 78, 13, 71, 89, 77, 78, 65, 83, 84, 13], "trial": 0, "time_elapsed": 183843, "type": "FREE_RECALL", "trial_index": 41}, "uniqueid": "MTK1620:3BWI6RSP7HGHP50Q24JSWZWW750E7L", "dateTime": 1516047134323}, {"current_trial": 42, "trialdata": {"rt": 1793, "trial_type": "text", "internal_node_id": "0.0-33.0", "time_elapsed": 187641, "key_press": 32, "type": "INSTRUCTIONS", "trial_index": 42}, "uniqueid": "MTK1620:3BWI6RSP7HGHP50Q24JSWZWW750E7L", "dateTime": 1516047138118}, {"current_trial": 43, "trialdata": {"rt": [3892, 5285, 8052, 10500, 12373, 15688], "trial_type": "math-distractor", "key_times": [3611, 3723, 3892, 5162, 5285, 7731, 7912, 8052, 10306, 10395, 10500, 12269, 12373, 15017, 15484, 15688], "responses": ["12", "9", "14", "14", "9", "16"], "num2": [1, 7, 5, 4, 3, 7, 4], "num3": [7, 1, 2, 2, 1, 5, 8], "conditions": [18, 1200, "v", 18000], "internal_node_id": "0.0-34.0", "key_presses": [49, 50, 13, 57, 13, 49, 52, 13, 49, 52, 13, 57, 13, 49, 54, 13], "trial": 1, "time_elapsed": 207646, "type": "DISTRACTOR", "trial_index": 43, "num1": [4, 1, 7, 8, 5, 4, 9]}, "uniqueid": "MTK1620:3BWI6RSP7HGHP50Q24JSWZWW750E7L", "dateTime": 1516047158123}, {"current_trial": 44, "trialdata": {"rt": -1, "trial_type": "single-stim", "stimulus": "<p id=\"stim\">10</p>", "internal_node_id": "0.0-35.0-0.0", "time_elapsed": 210649, "key_press": -1, "trial_index": 44}, "uniqueid": "MTK1620:3BWI6RSP7HGHP50Q24JSWZWW750E7L", "dateTime": 1516047161126}, {"current_trial": 45, "trialdata": {"rt": -1, "trial_type": "single-stim", "stimulus": "<p id=\"stim\">9</p>", "internal_node_id": "0.0-35.0-1.0", "time_elapsed": 211651, "key_press": -1, "trial_index": 45}, "uniqueid": "MTK1620:3BWI6RSP7HGHP50Q24JSWZWW750E7L", "dateTime": 1516047162128}, {"current_trial": 46, "trialdata": {"rt": -1, "trial_type": "single-stim", "stimulus": "<p id=\"stim\">8</p>", "internal_node_id": "0.0-35.0-2.0", "time_elapsed": 212652, "key_press": -1, "trial_index": 46}, "uniqueid": "MTK1620:3BWI6RSP7HGHP50Q24JSWZWW750E7L", "dateTime": 1516047163129}, {"current_trial": 47, "trialdata": {"rt": -1, "trial_type": "single-stim", "stimulus": "<p id=\"stim\">7</p>", "internal_node_id": "0.0-35.0-3.0", "time_elapsed": 213654, "key_press": -1, "trial_index": 47}, "uniqueid": "MTK1620:3BWI6RSP7HGHP50Q24JSWZWW750E7L", "dateTime": 1516047164131}, {"current_trial": 48, "trialdata": {"rt": -1, "trial_type": "single-stim", "stimulus": "<p id=\"stim\">6</p>", "internal_node_id": "0.0-35.0-4.0", "time_elapsed": 214656, "key_press": -1, "trial_index": 48}, "uniqueid": "MTK1620:3BWI6RSP7HGHP50Q24JSWZWW750E7L", "dateTime": 1516047165133}, {"current_trial": 49, "trialdata": {"rt": -1, "trial_type": "single-stim", "stimulus": "<p id=\"stim\">5</p>", "internal_node_id": "0.0-35.0-5.0", "time_elapsed": 215657, "key_press": -1, "trial_index": 49}, "uniqueid": "MTK1620:3BWI6RSP7HGHP50Q24JSWZWW750E7L", "dateTime": 1516047166134}, {"current_trial": 50, "trialdata": {"rt": -1, "trial_type": "single-stim", "stimulus": "<p id=\"stim\">4</p>", "internal_node_id": "0.0-35.0-6.0", "time_elapsed": 216659, "key_press": -1, "trial_index": 50}, "uniqueid": "MTK1620:3BWI6RSP7HGHP50Q24JSWZWW750E7L", "dateTime": 1516047167137}, {"current_trial": 51, "trialdata": {"rt": -1, "trial_type": "single-stim", "stimulus": "<p id=\"stim\">3</p>", "internal_node_id": "0.0-35.0-7.0", "time_elapsed": 217661, "key_press": -1, "trial_index": 51}, "uniqueid": "MTK1620:3BWI6RSP7HGHP50Q24JSWZWW750E7L", "dateTime": 1516047168138}, {"current_trial": 52, "trialdata": {"rt": -1, "trial_type": "single-stim", "stimulus": "<p id=\"stim\">2</p>", "internal_node_id": "0.0-35.0-8.0", "time_elapsed": 218663, "key_press": -1, "trial_index": 52}, "uniqueid": "MTK1620:3BWI6RSP7HGHP50Q24JSWZWW750E7L", "dateTime": 1516047169140}, {"current_trial": 53, "trialdata": {"rt": -1, "trial_type": "single-stim", "stimulus": "<p id=\"stim\">1</p>", "internal_node_id": "0.0-35.0-9.0", "time_elapsed": 219665, "key_press": -1, "trial_index": 53}, "uniqueid": "MTK1620:3BWI6RSP7HGHP50Q24JSWZWW750E7L", "dateTime": 1516047170142}, {"current_trial": 54, "trialdata": {"rt": -1, "trial_type": "single-stim", "stimulus": "<p id=\"stim\">+</p>", "internal_node_id": "0.0-36.0-0.0", "time_elapsed": 221166, "key_press": -1, "type": "FIXATION", "trial_index": 54}, "uniqueid": "MTK1620:3BWI6RSP7HGHP50Q24JSWZWW750E7L", "dateTime": 1516047171644}, {"current_trial": 55, "trialdata": {"rt": -1, "trial_type": "single-stim", "word": "gravel", "stimulus": "<p id=\"stim\">GRAVEL</p>", "conditions": [18, 1200, "v", 18000], "internal_node_id": "0.0-37.0", "trial": 1, "time_elapsed": 222368, "serialpos": 0, "key_press": -1, "wordID": 658, "type": "PRES_VIS", "trial_index": 55}, "uniqueid": "MTK1620:3BWI6RSP7HGHP50Q24JSWZWW750E7L", "dateTime": 1516047172845}, {"current_trial": 56, "trialdata": {"rt": -1, "trial_type": "single-stim", "word": "hook", "stimulus": "<p id=\"stim\">HOOK</p>", "conditions": [18, 1200, "v", 18000], "internal_node_id": "0.0-38.0", "trial": 1, "time_elapsed": 224619, "serialpos": 1, "key_press": -1, "wordID": 714, "type": "PRES_VIS", "trial_index": 56}, "uniqueid": "MTK1620:3BWI6RSP7HGHP50Q24JSWZWW750E7L", "dateTime": 1516047175097}, {"current_trial": 57, "trialdata": {"rt": -1, "trial_type": "single-stim", "word": "shirt", "stimulus": "<p id=\"stim\">SHIRT</p>", "conditions": [18, 1200, "v", 18000], "internal_node_id": "0.0-39.0", "trial": 1, "time_elapsed": 226954, "serialpos": 2, "key_press": -1, "wordID": 1286, "type": "PRES_VIS", "trial_index": 57}, "uniqueid": "MTK1620:3BWI6RSP7HGHP50Q24JSWZWW750E7L", "dateTime": 1516047177431}, {"current_trial": 58, "trialdata": {"rt": -1, "trial_type": "single-stim", "word": "grape", "stimulus": "<p id=\"stim\">GRAPE</p>", "conditions": [18, 1200, "v", 18000], "internal_node_id": "0.0-40.0", "trial": 1, "time_elapsed": 229118, "serialpos": 3, "key_press": -1, "wordID": 653, "type": "PRES_VIS", "trial_index": 58}, "uniqueid": "MTK1620:3BWI6RSP7HGHP50Q24JSWZWW750E7L", "dateTime": 1516047179595}, {"current_trial": 59, "trialdata": {"rt": -1, "trial_type": "single-stim", "word": "film", "stimulus": "<p id=\"stim\">FILM</p>", "conditions": [18, 1200, "v", 18000], "internal_node_id": "0.0-41.0", "trial": 1, "time_elapsed": 231273, "serialpos": 4, "key_press": -1, "wordID": 564, "type": "PRES_VIS", "trial_index": 59}, "uniqueid": "MTK1620:3BWI6RSP7HGHP50Q24JSWZWW750E7L", "dateTime": 1516047181750}, {"current_trial": 60, "trialdata": {"rt": -1, "trial_type": "single-stim", "word": "sunrise", "stimulus": "<p id=\"stim\">SUNRISE</p>", "conditions": [18, 1200, "v", 18000], "internal_node_id": "0.0-42.0", "trial": 1, "time_elapsed": 233457, "serialpos": 5, "key_press": -1, "wordID": 1406, "type": "PRES_VIS", "trial_index": 60}, "uniqueid": "MTK1620:3BWI6RSP7HGHP50Q24JSWZWW750E7L", "dateTime": 1516047183934}, {"current_trial": 61, "trialdata": {"rt": -1, "trial_type": "single-stim", "word": "salt", "stimulus": "<p id=\"stim\">SALT</p>", "conditions": [18, 1200, "v", 18000], "internal_node_id": "0.0-43.0", "trial": 1, "time_elapsed": 235731, "serialpos": 6, "key_press": -1, "wordID": 1228, "type": "PRES_VIS", "trial_index": 61}, "uniqueid": "MTK1620:3BWI6RSP7HGHP50Q24JSWZWW750E7L", "dateTime": 1516047186209}, {"current_trial": 62, "trialdata": {"rt": -1, "trial_type": "single-stim", "word": "transplant", "stimulus": "<p id=\"stim\">TRANSPLANT</p>", "conditions": [18, 1200, "v", 18000], "internal_node_id": "0.0-44.0", "trial": 1, "time_elapsed": 238038, "serialpos": 7, "key_press": -1, "wordID": 1495, "type": "PRES_VIS", "trial_index": 62}, "uniqueid": "MTK1620:3BWI6RSP7HGHP50Q24JSWZWW750E7L", "dateTime": 1516047188515}, {"current_trial": 63, "trialdata": {"rt": -1, "trial_type": "single-stim", "word": "chest", "stimulus": "<p id=\"stim\">CHEST</p>", "conditions": [18, 1200, "v", 18000], "internal_node_id": "0.0-45.0", "trial": 1, "time_elapsed": 240438, "serialpos": 8, "key_press": -1, "wordID": 294, "type": "PRES_VIS", "trial_index": 63}, "uniqueid": "MTK1620:3BWI6RSP7HGHP50Q24JSWZWW750E7L", "dateTime": 1516047190915}, {"current_trial": 64, "trialdata": {"rt": -1, "trial_type": "single-stim", "word": "cod", "stimulus": "<p id=\"stim\">COD</p>", "conditions": [18, 1200, "v", 18000], "internal_node_id": "0.0-46.0", "trial": 1, "time_elapsed": 242461, "serialpos": 9, "key_press": -1, "wordID": 339, "type": "PRES_VIS", "trial_index": 64}, "uniqueid": "MTK1620:3BWI6RSP7HGHP50Q24JSWZWW750E7L", "dateTime": 1516047192938}, {"current_trial": 65, "trialdata": {"rt": -1, "trial_type": "single-stim", "word": "keeper", "stimulus": "<p id=\"stim\">KEEPER</p>", "conditions": [18, 1200, "v", 18000], "internal_node_id": "0.0-47.0", "trial": 1, "time_elapsed": 244557, "serialpos": 10, "key_press": -1, "wordID": 768, "type": "PRES_VIS", "trial_index": 65}, "uniqueid": "MTK1620:3BWI6RSP7HGHP50Q24JSWZWW750E7L", "dateTime": 1516047195034}, {"current_trial": 66, "trialdata": {"rt": -1, "trial_type": "single-stim", "word": "cellar", "stimulus": "<p id=\"stim\">CELLAR</p>", "conditions": [18, 1200, "v", 18000], "internal_node_id": "0.0-48.0", "trial": 1, "time_elapsed": 246829, "serialpos": 11, "key_press": -1, "wordID": 266, "type": "PRES_VIS", "trial_index": 66}, "uniqueid": "MTK1620:3BWI6RSP7HGHP50Q24JSWZWW750E7L", "dateTime": 1516047197306}, {"current_trial": 67, "trialdata": {"rt": -1, "trial_type": "single-stim", "word": "bison", "stimulus": "<p id=\"stim\">BISON</p>", "conditions": [18, 1200, "v", 18000], "internal_node_id": "0.0-49.0", "trial": 1, "time_elapsed": 248895, "serialpos": 12, "key_press": -1, "wordID": 130, "type": "PRES_VIS", "trial_index": 67}, "uniqueid": "MTK1620:3BWI6RSP7HGHP50Q24JSWZWW750E7L", "dateTime": 1516047199372}, {"current_trial": 68, "trialdata": {"rt": -1, "trial_type": "single-stim", "word": "lipstick", "stimulus": "<p id=\"stim\">LIPSTICK</p>", "conditions": [18, 1200, "v", 18000], "internal_node_id": "0.0-50.0", "trial": 1, "time_elapsed": 251003, "serialpos": 13, "key_press": -1, "wordID": 828, "type": "PRES_VIS", "trial_index": 68}, "uniqueid": "MTK1620:3BWI6RSP7HGHP50Q24JSWZWW750E7L", "dateTime": 1516047201484}, {"current_trial": 69, "trialdata": {"rt": -1, "trial_type": "single-stim", "word": "doughnut", "stimulus": "<p id=\"stim\">DOUGHNUT</p>", "conditions": [18, 1200, "v", 18000], "internal_node_id": "0.0-51.0", "trial": 1, "time_elapsed": 253260, "serialpos": 14, "key_press": -1, "wordID": 489, "type": "PRES_VIS", "trial_index": 69}, "uniqueid": "MTK1620:3BWI6RSP7HGHP50Q24JSWZWW750E7L", "dateTime": 1516047203738}, {"current_trial": 70, "trialdata": {"rt": -1, "trial_type": "single-stim", "word": "washer", "stimulus": "<p id=\"stim\">WASHER</p>", "conditions": [18, 1200, "v", 18000], "internal_node_id": "0.0-52.0", "trial": 1, "time_elapsed": 255589, "serialpos": 15, "key_press": -1, "wordID": 1591, "type": "PRES_VIS", "trial_index": 70}, "uniqueid": "MTK1620:3BWI6RSP7HGHP50Q24JSWZWW750E7L", "dateTime": 1516047206066}, {"current_trial": 71, "trialdata": {"rt": -1, "trial_type": "single-stim", "word": "clock", "stimulus": "<p id=\"stim\">CLOCK</p>", "conditions": [18, 1200, "v", 18000], "internal_node_id": "0.0-53.0", "trial": 1, "time_elapsed": 257734, "serialpos": 16, "key_press": -1, "wordID": 324, "type": "PRES_VIS", "trial_index": 71}, "uniqueid": "MTK1620:3BWI6RSP7HGHP50Q24JSWZWW750E7L", "dateTime": 1516047208211}, {"current_trial": 72, "trialdata": {"rt": -1, "trial_type": "single-stim", "word": "rattle", "stimulus": "<p id=\"stim\">RATTLE</p>", "conditions": [18, 1200, "v", 18000], "internal_node_id": "0.0-54.0", "trial": 1, "time_elapsed": 260081, "serialpos": 17, "key_press": -1, "wordID": 1169, "type": "PRES_VIS", "trial_index": 72}, "uniqueid": "MTK1620:3BWI6RSP7HGHP50Q24JSWZWW750E7L", "dateTime": 1516047210558}, {"current_trial": 73, "trialdata": {"rt": -1, "trial_type": "single-stim", "stimulus": "", "internal_node_id": "0.0-55.0-0.0", "time_elapsed": 262211, "key_press": -1, "type": "PRE_RECALL_DELAY", "trial_index": 73}, "uniqueid": "MTK1620:3BWI6RSP7HGHP50Q24JSWZWW750E7L", "dateTime": 1516047212689}, {"current_trial": 74, "trialdata": {"rt": -1000, "trial_type": "single-audio", "stimulus": "/static/audio/400Hz.wav", "internal_node_id": "0.0-56.0", "time_elapsed": 262713, "key_press": -1, "type": "PRE_RECALL_ALERT", "trial_index": 74}, "uniqueid": "MTK1620:3BWI6RSP7HGHP50Q24JSWZWW750E7L", "dateTime": 1516047213190}, {"current_trial": 75, "trialdata": {"rt": [1744, 3569], "recwords": ["deli", "gravel"], "key_times": [1179, 1307, 1417, 1492, 1744, 2852, 2904, 3005, 3145, 3235, 3351, 3569], "trial_type": "free-recall", "conditions": [18, 1200, "v", 18000], "internal_node_id": "0.0-57.0-0.0", "key_presses": [68, 69, 76, 73, 13, 71, 82, 65, 86, 69, 76, 13], "trial": 1, "time_elapsed": 322717, "type": "FREE_RECALL", "trial_index": 75}, "uniqueid": "MTK1620:3BWI6RSP7HGHP50Q24JSWZWW750E7L", "dateTime": 1516047273197}, {"current_trial": 76, "trialdata": {"rt": 2258, "trial_type": "text", "internal_node_id": "0.0-58.0", "time_elapsed": 326980, "key_press": 32, "type": "INSTRUCTIONS", "trial_index": 76}, "uniqueid": "MTK1620:3BWI6RSP7HGHP50Q24JSWZWW750E7L", "dateTime": 1516047277457}, {"current_trial": 77, "trialdata": {"rt": [2598, 5652, 8432, 10328], "trial_type": "math-distractor", "key_times": [2409, 2498, 2598, 5401, 5540, 5652, 8279, 8343, 8432, 9967, 10216, 10328], "responses": ["19", "11", "20", "14"], "num2": [9, 2, 7, 8, 8], "num3": [8, 4, 8, 5, 4], "conditions": [12, 1600, "v", 12000], "internal_node_id": "0.0-59.0", "key_presses": [49, 57, 13, 49, 49, 13, 50, 48, 13, 49, 52, 13], "trial": 2, "time_elapsed": 339984, "type": "DISTRACTOR", "trial_index": 77, "num1": [2, 5, 5, 1, 2]}, "uniqueid": "MTK1620:3BWI6RSP7HGHP50Q24JSWZWW750E7L", "dateTime": 1516047290461}, {"current_trial": 78, "trialdata": {"rt": -1, "trial_type": "single-stim", "stimulus": "<p id=\"stim\">10</p>", "internal_node_id": "0.0-60.0-0.0", "time_elapsed": 342986, "key_press": -1, "trial_index": 78}, "uniqueid": "MTK1620:3BWI6RSP7HGHP50Q24JSWZWW750E7L", "dateTime": 1516047293463}, {"current_trial": 79, "trialdata": {"rt": -1, "trial_type": "single-stim", "stimulus": "<p id=\"stim\">9</p>", "internal_node_id": "0.0-60.0-1.0", "time_elapsed": 343987, "key_press": -1, "trial_index": 79}, "uniqueid": "MTK1620:3BWI6RSP7HGHP50Q24JSWZWW750E7L", "dateTime": 1516047294465}, {"current_trial": 80, "trialdata": {"rt": -1, "trial_type": "single-stim", "stimulus": "<p id=\"stim\">8</p>", "internal_node_id": "0.0-60.0-2.0", "time_elapsed": 344989, "key_press": -1, "trial_index": 80}, "uniqueid": "MTK1620:3BWI6RSP7HGHP50Q24JSWZWW750E7L", "dateTime": 1516047295466}, {"current_trial": 81, "trialdata": {"rt": -1, "trial_type": "single-stim", "stimulus": "<p id=\"stim\">7</p>", "internal_node_id": "0.0-60.0-3.0", "time_elapsed": 345991, "key_press": -1, "trial_index": 81}, "uniqueid": "MTK1620:3BWI6RSP7HGHP50Q24JSWZWW750E7L", "dateTime": 1516047296468}, {"current_trial": 82, "trialdata": {"rt": -1, "trial_type": "single-stim", "stimulus": "<p id=\"stim\">6</p>", "internal_node_id": "0.0-60.0-4.0", "time_elapsed": 346992, "key_press": -1, "trial_index": 82}, "uniqueid": "MTK1620:3BWI6RSP7HGHP50Q24JSWZWW750E7L", "dateTime": 1516047297469}, {"current_trial": 83, "trialdata": {"rt": -1, "trial_type": "single-stim", "stimulus": "<p id=\"stim\">5</p>", "internal_node_id": "0.0-60.0-5.0", "time_elapsed": 347994, "key_press": -1, "trial_index": 83}, "uniqueid": "MTK1620:3BWI6RSP7HGHP50Q24JSWZWW750E7L", "dateTime": 1516047298471}, {"current_trial": 84, "trialdata": {"rt": -1, "trial_type": "single-stim", "stimulus": "<p id=\"stim\">4</p>", "internal_node_id": "0.0-60.0-6.0", "time_elapsed": 348996, "key_press": -1, "trial_index": 84}, "uniqueid": "MTK1620:3BWI6RSP7HGHP50Q24JSWZWW750E7L", "dateTime": 1516047299473}, {"current_trial": 85, "trialdata": {"rt": -1, "trial_type": "single-stim", "stimulus": "<p id=\"stim\">3</p>", "internal_node_id": "0.0-60.0-7.0", "time_elapsed": 349997, "key_press": -1, "trial_index": 85}, "uniqueid": "MTK1620:3BWI6RSP7HGHP50Q24JSWZWW750E7L", "dateTime": 1516047300474}, {"current_trial": 86, "trialdata": {"rt": -1, "trial_type": "single-stim", "stimulus": "<p id=\"stim\">2</p>", "internal_node_id": "0.0-60.0-8.0", "time_elapsed": 350999, "key_press": -1, "trial_index": 86}, "uniqueid": "MTK1620:3BWI6RSP7HGHP50Q24JSWZWW750E7L", "dateTime": 1516047301476}, {"current_trial": 87, "trialdata": {"rt": -1, "trial_type": "single-stim", "stimulus": "<p id=\"stim\">1</p>", "internal_node_id": "0.0-60.0-9.0", "time_elapsed": 352001, "key_press": -1, "trial_index": 87}, "uniqueid": "MTK1620:3BWI6RSP7HGHP50Q24JSWZWW750E7L", "dateTime": 1516047302478}, {"current_trial": 88, "trialdata": {"rt": -1, "trial_type": "single-stim", "stimulus": "<p id=\"stim\">+</p>", "internal_node_id": "0.0-61.0-0.0", "time_elapsed": 353502, "key_press": -1, "type": "FIXATION", "trial_index": 88}, "uniqueid": "MTK1620:3BWI6RSP7HGHP50Q24JSWZWW750E7L", "dateTime": 1516047303980}, {"current_trial": 89, "trialdata": {"rt": -1, "trial_type": "single-stim", "word": "nightgown", "stimulus": "<p id=\"stim\">NIGHTGOWN</p>", "conditions": [12, 1600, "v", 12000], "internal_node_id": "0.0-62.0", "trial": 2, "time_elapsed": 355104, "serialpos": 0, "key_press": -1, "wordID": 952, "type": "PRES_VIS", "trial_index": 89}, "uniqueid": "MTK1620:3BWI6RSP7HGHP50Q24JSWZWW750E7L", "dateTime": 1516047305581}, {"current_trial": 90, "trialdata": {"rt": -1, "trial_type": "single-stim", "word": "goblin", "stimulus": "<p id=\"stim\">GOBLIN</p>", "conditions": [12, 1600, "v", 12000], "internal_node_id": "0.0-63.0", "trial": 2, "time_elapsed": 357623, "serialpos": 1, "key_press": -1, "wordID": 644, "type": "PRES_VIS", "trial_index": 90}, "uniqueid": "MTK1620:3BWI6RSP7HGHP50Q24JSWZWW750E7L", "dateTime": 1516047308100}, {"current_trial": 91, "trialdata": {"rt": -1, "trial_type": "single-stim", "word": "subway", "stimulus": "<p id=\"stim\">SUBWAY</p>", "conditions": [12, 1600, "v", 12000], "internal_node_id": "0.0-64.0", "trial": 2, "time_elapsed": 360331, "serialpos": 2, "key_press": -1, "wordID": 1399, "type": "PRES_VIS", "trial_index": 91}, "uniqueid": "MTK1620:3BWI6RSP7HGHP50Q24JSWZWW750E7L", "dateTime": 1516047310808}, {"current_trial": 92, "trialdata": {"rt": -1, "trial_type": "single-stim", "word": "seafood", "stimulus": "<p id=\"stim\">SEAFOOD</p>", "conditions": [12, 1600, "v", 12000], "internal_node_id": "0.0-65.0", "trial": 2, "time_elapsed": 362749, "serialpos": 3, "key_press": -1, "wordID": 1259, "type": "PRES_VIS", "trial_index": 92}, "uniqueid": "MTK1620:3BWI6RSP7HGHP50Q24JSWZWW750E7L", "dateTime": 1516047313226}, {"current_trial": 93, "trialdata": {"rt": -1, "trial_type": "single-stim", "word": "gangster", "stimulus": "<p id=\"stim\">GANGSTER</p>", "conditions": [12, 1600, "v", 12000], "internal_node_id": "0.0-66.0", "trial": 2, "time_elapsed": 365360, "serialpos": 4, "key_press": -1, "wordID": 619, "type": "PRES_VIS", "trial_index": 93}, "uniqueid": "MTK1620:3BWI6RSP7HGHP50Q24JSWZWW750E7L", "dateTime": 1516047315839}, {"current_trial": 94, "trialdata": {"rt": -1, "trial_type": "single-stim", "word": "empire", "stimulus": "<p id=\"stim\">EMPIRE</p>", "conditions": [12, 1600, "v", 12000], "internal_node_id": "0.0-67.0", "trial": 2, "time_elapsed": 368019, "serialpos": 5, "key_press": -1, "wordID": 529, "type": "PRES_VIS", "trial_index": 94}, "uniqueid": "MTK1620:3BWI6RSP7HGHP50Q24JSWZWW750E7L", "dateTime": 1516047318496}, {"current_trial": 95, "trialdata": {"rt": -1, "trial_type": "single-stim", "word": "dress", "stimulus": "<p id=\"stim\">DRESS</p>", "conditions": [12, 1600, "v", 12000], "internal_node_id": "0.0-68.0", "trial": 2, "time_elapsed": 370583, "serialpos": 6, "key_press": -1, "wordID": 494, "type": "PRES_VIS", "trial_index": 95}, "uniqueid": "MTK1620:3BWI6RSP7HGHP50Q24JSWZWW750E7L", "dateTime": 1516047321061}, {"current_trial": 96, "trialdata": {"rt": -1, "trial_type": "single-stim", "word": "scarecrow", "stimulus": "<p id=\"stim\">SCARECROW</p>", "conditions": [12, 1600, "v", 12000], "internal_node_id": "0.0-69.0", "trial": 2, "time_elapsed": 373383, "serialpos": 7, "key_press": -1, "wordID": 1244, "type": "PRES_VIS", "trial_index": 96}, "uniqueid": "MTK1620:3BWI6RSP7HGHP50Q24JSWZWW750E7L", "dateTime": 1516047323860}, {"current_trial": 97, "trialdata": {"rt": -1, "trial_type": "single-stim", "word": "blouse", "stimulus": "<p id=\"stim\">BLOUSE</p>", "conditions": [12, 1600, "v", 12000], "internal_node_id": "0.0-70.0", "trial": 2, "time_elapsed": 375940, "serialpos": 8, "key_press": -1, "wordID": 138, "type": "PRES_VIS", "trial_index": 97}, "uniqueid": "MTK1620:3BWI6RSP7HGHP50Q24JSWZWW750E7L", "dateTime": 1516047326417}, {"current_trial": 98, "trialdata": {"rt": -1, "trial_type": "single-stim", "word": "police", "stimulus": "<p id=\"stim\">POLICE</p>", "conditions": [12, 1600, "v", 12000], "internal_node_id": "0.0-71.0", "trial": 2, "time_elapsed": 378700, "serialpos": 9, "key_press": -1, "wordID": 1097, "type": "PRES_VIS", "trial_index": 98}, "uniqueid": "MTK1620:3BWI6RSP7HGHP50Q24JSWZWW750E7L", "dateTime": 1516047329177}, {"current_trial": 99, "trialdata": {"rt": -1, "trial_type": "single-stim", "word": "patrol", "stimulus": "<p id=\"stim\">PATROL</p>", "conditions": [12, 1600, "v", 12000], "internal_node_id": "0.0-72.0", "trial": 2, "time_elapsed": 381145, "serialpos": 10, "key_press": -1, "wordID": 1026, "type": "PRES_VIS", "trial_index": 99}, "uniqueid": "MTK1620:3BWI6RSP7HGHP50Q24JSWZWW750E7L", "dateTime": 1516047331622}, {"current_trial": 100, "trialdata": {"rt": -1, "trial_type": "single-stim", "word": "seagull", "stimulus": "<p id=\"stim\">SEAGULL</p>", "conditions": [12, 1600, "v", 12000], "internal_node_id": "0.0-73.0", "trial": 2, "time_elapsed": 383691, "serialpos": 11, "key_press": -1, "wordID": 1260, "type": "PRES_VIS", "trial_index": 100}, "uniqueid": "MTK1620:3BWI6RSP7HGHP50Q24JSWZWW750E7L", "dateTime": 1516047334168}, {"current_trial": 101, "trialdata": {"rt": -1, "trial_type": "single-stim", "stimulus": "", "internal_node_id": "0.0-74.0-0.0", "time_elapsed": 386015, "key_press": -1, "type": "PRE_RECALL_DELAY", "trial_index": 101}, "uniqueid": "MTK1620:3BWI6RSP7HGHP50Q24JSWZWW750E7L", "dateTime": 1516047336492}, {"current_trial": 102, "trialdata": {"rt": -1000, "trial_type": "single-audio", "stimulus": "/static/audio/400Hz.wav", "internal_node_id": "0.0-75.0", "time_elapsed": 386517, "key_press": -1, "type": "PRE_RECALL_ALERT", "trial_index": 102}, "uniqueid": "MTK1620:3BWI6RSP7HGHP50Q24JSWZWW750E7L", "dateTime": 1516047336994}, {"current_trial": 103, "trialdata": {"rt": [1379, 2397, 3944, 5830, 19604, 25819, 25953, 35465], "recwords": ["police", "patrol", "seagull", "nightgown", "seagull", "subway", "", "goblin"], "key_times": [644, 734, 982, 1040, 1204, 1298, 1379, 1623, 1720, 1810, 1945, 1983, 2086, 2397, 2865, 2959, 3057, 3447, 3561, 3626, 3819, 3944, 4229, 4324, 4382, 4535, 4593, 5372, 5460, 5577, 5701, 5830, 17441, 17520, 17644, 17967, 18090, 18165, 18381, 19604, 25036, 25162, 25259, 25339, 25439, 25543, 25819, 25953, 34749, 34878, 34978, 35132, 35231, 35299, 35465], "trial_type": "free-recall", "conditions": [12, 1600, "v", 12000], "internal_node_id": "0.0-76.0-0.0", "key_presses": [80, 79, 76, 73, 67, 69, 13, 80, 65, 84, 82, 79, 76, 13, 83, 69, 65, 71, 85, 76, 76, 13, 78, 73, 71, 72, 84, 71, 79, 87, 78, 13, 83, 69, 65, 71, 85, 76, 76, 13, 83, 85, 66, 87, 65, 89, 13, 13, 71, 79, 66, 76, 73, 78, 13], "trial": 2, "time_elapsed": 446521, "type": "FREE_RECALL", "trial_index": 103}, "uniqueid": "MTK1620:3BWI6RSP7HGHP50Q24JSWZWW750E7L", "dateTime": 1516047397001}, {"current_trial": 104, "trialdata": {"rt": 1341, "trial_type": "text", "internal_node_id": "0.0-77.0", "time_elapsed": 449867, "key_press": 32, "type": "INSTRUCTIONS", "trial_index": 104}, "uniqueid": "MTK1620:3BWI6RSP7HGHP50Q24JSWZWW750E7L", "dateTime": 1516047400344}, {"current_trial": 105, "trialdata": {"rt": [3225, 5085, 8672, 10398, 13085, 15643, 17527, 20005, 22423], "trial_type": "math-distractor", "key_times": [3045, 3118, 3225, 4897, 4975, 5085, 8269, 8542, 8672, 9993, 10296, 10398, 12870, 12988, 13085, 15353, 15549, 15643, 17457, 17527, 19594, 19874, 20005, 22279, 22352, 22423], "responses": ["13", "13", "16", "16", "20", "18", "6", "14", "14"], "num2": [6, 2, 3, 8, 7, 9, 2, 4, 7, 8], "num3": [2, 2, 8, 4, 6, 6, 1, 3, 5, 9], "conditions": [12, 1600, "v", 24000], "internal_node_id": "0.0-78.0", "key_presses": [49, 51, 13, 49, 51, 13, 49, 54, 13, 49, 54, 13, 50, 48, 13, 49, 56, 13, 54, 13, 49, 52, 13, 49, 52, 13], "trial": 3, "time_elapsed": 475872, "type": "DISTRACTOR", "trial_index": 105, "num1": [5, 9, 5, 4, 7, 3, 3, 7, 1, 1]}, "uniqueid": "MTK1620:3BWI6RSP7HGHP50Q24JSWZWW750E7L", "dateTime": 1516047426349}, {"current_trial": 106, "trialdata": {"rt": -1, "trial_type": "single-stim", "stimulus": "<p id=\"stim\">10</p>", "internal_node_id": "0.0-79.0-0.0", "time_elapsed": 478874, "key_press": -1, "trial_index": 106}, "uniqueid": "MTK1620:3BWI6RSP7HGHP50Q24JSWZWW750E7L", "dateTime": 1516047429351}, {"current_trial": 107, "trialdata": {"rt": -1, "trial_type": "single-stim", "stimulus": "<p id=\"stim\">9</p>", "internal_node_id": "0.0-79.0-1.0", "time_elapsed": 479875, "key_press": -1, "trial_index": 107}, "uniqueid": "MTK1620:3BWI6RSP7HGHP50Q24JSWZWW750E7L", "dateTime": 1516047430352}, {"current_trial": 108, "trialdata": {"rt": -1, "trial_type": "single-stim", "stimulus": "<p id=\"stim\">8</p>", "internal_node_id": "0.0-79.0-2.0", "time_elapsed": 480877, "key_press": -1, "trial_index": 108}, "uniqueid": "MTK1620:3BWI6RSP7HGHP50Q24JSWZWW750E7L", "dateTime": 1516047431354}, {"current_trial": 109, "trialdata": {"rt": -1, "trial_type": "single-stim", "stimulus": "<p id=\"stim\">7</p>", "internal_node_id": "0.0-79.0-3.0", "time_elapsed": 481879, "key_press": -1, "trial_index": 109}, "uniqueid": "MTK1620:3BWI6RSP7HGHP50Q24JSWZWW750E7L", "dateTime": 1516047432356}, {"current_trial": 110, "trialdata": {"rt": -1, "trial_type": "single-stim", "stimulus": "<p id=\"stim\">6</p>", "internal_node_id": "0.0-79.0-4.0", "time_elapsed": 482881, "key_press": -1, "trial_index": 110}, "uniqueid": "MTK1620:3BWI6RSP7HGHP50Q24JSWZWW750E7L", "dateTime": 1516047433358}, {"current_trial": 111, "trialdata": {"rt": -1, "trial_type": "single-stim", "stimulus": "<p id=\"stim\">5</p>", "internal_node_id": "0.0-79.0-5.0", "time_elapsed": 483882, "key_press": -1, "trial_index": 111}, "uniqueid": "MTK1620:3BWI6RSP7HGHP50Q24JSWZWW750E7L", "dateTime": 1516047434359}, {"current_trial": 112, "trialdata": {"rt": -1, "trial_type": "single-stim", "stimulus": "<p id=\"stim\">4</p>", "internal_node_id": "0.0-79.0-6.0", "time_elapsed": 484884, "key_press": -1, "trial_index": 112}, "uniqueid": "MTK1620:3BWI6RSP7HGHP50Q24JSWZWW750E7L", "dateTime": 1516047435361}, {"current_trial": 113, "trialdata": {"rt": -1, "trial_type": "single-stim", "stimulus": "<p id=\"stim\">3</p>", "internal_node_id": "0.0-79.0-7.0", "time_elapsed": 485886, "key_press": -1, "trial_index": 113}, "uniqueid": "MTK1620:3BWI6RSP7HGHP50Q24JSWZWW750E7L", "dateTime": 1516047436363}, {"current_trial": 114, "trialdata": {"rt": -1, "trial_type": "single-stim", "stimulus": "<p id=\"stim\">2</p>", "internal_node_id": "0.0-79.0-8.0", "time_elapsed": 486887, "key_press": -1, "trial_index": 114}, "uniqueid": "MTK1620:3BWI6RSP7HGHP50Q24JSWZWW750E7L", "dateTime": 1516047437365}, {"current_trial": 115, "trialdata": {"rt": -1, "trial_type": "single-stim", "stimulus": "<p id=\"stim\">1</p>", "internal_node_id": "0.0-79.0-9.0", "time_elapsed": 487889, "key_press": -1, "trial_index": 115}, "uniqueid": "MTK1620:3BWI6RSP7HGHP50Q24JSWZWW750E7L", "dateTime": 1516047438366}, {"current_trial": 116, "trialdata": {"rt": -1, "trial_type": "single-stim", "stimulus": "<p id=\"stim\">+</p>", "internal_node_id": "0.0-80.0-0.0", "time_elapsed": 489391, "key_press": -1, "type": "FIXATION", "trial_index": 116}, "uniqueid": "MTK1620:3BWI6RSP7HGHP50Q24JSWZWW750E7L", "dateTime": 1516047439868}, {"current_trial": 117, "trialdata": {"rt": -1, "trial_type": "single-stim", "word": "widow", "stimulus": "<p id=\"stim\">WIDOW</p>", "conditions": [12, 1600, "v", 24000], "internal_node_id": "0.0-81.0", "trial": 3, "time_elapsed": 490993, "serialpos": 0, "key_press": -1, "wordID": 1607, "type": "PRES_VIS", "trial_index": 117}, "uniqueid": "MTK1620:3BWI6RSP7HGHP50Q24JSWZWW750E7L", "dateTime": 1516047441470}, {"current_trial": 118, "trialdata": {"rt": -1, "trial_type": "single-stim", "word": "daughter", "stimulus": "<p id=\"stim\">DAUGHTER</p>", "conditions": [12, 1600, "v", 24000], "internal_node_id": "0.0-82.0", "trial": 3, "time_elapsed": 493562, "serialpos": 1, "key_press": -1, "wordID": 441, "type": "PRES_VIS", "trial_index": 118}, "uniqueid": "MTK1620:3BWI6RSP7HGHP50Q24JSWZWW750E7L", "dateTime": 1516047444039}, {"current_trial": 119, "trialdata": {"rt": -1, "trial_type": "single-stim", "word": "jungle", "stimulus": "<p id=\"stim\">JUNGLE</p>", "conditions": [12, 1600, "v", 24000], "internal_node_id": "0.0-83.0", "trial": 3, "time_elapsed": 495997, "serialpos": 2, "key_press": -1, "wordID": 763, "type": "PRES_VIS", "trial_index": 119}, "uniqueid": "MTK1620:3BWI6RSP7HGHP50Q24JSWZWW750E7L", "dateTime": 1516047446475}, {"current_trial": 120, "trialdata": {"rt": -1, "trial_type": "single-stim", "word": "pistol", "stimulus": "<p id=\"stim\">PISTOL</p>", "conditions": [12, 1600, "v", 24000], "internal_node_id": "0.0-84.0", "trial": 3, "time_elapsed": 498633, "serialpos": 3, "key_press": -1, "wordID": 1074, "type": "PRES_VIS", "trial_index": 120}, "uniqueid": "MTK1620:3BWI6RSP7HGHP50Q24JSWZWW750E7L", "dateTime": 1516047449110}, {"current_trial": 121, "trialdata": {"rt": -1, "trial_type": "single-stim", "word": "finger", "stimulus": "<p id=\"stim\">FINGER</p>", "conditions": [12, 1600, "v", 24000], "internal_node_id": "0.0-85.0", "trial": 3, "time_elapsed": 501133, "serialpos": 4, "key_press": -1, "wordID": 566, "type": "PRES_VIS", "trial_index": 121}, "uniqueid": "MTK1620:3BWI6RSP7HGHP50Q24JSWZWW750E7L", "dateTime": 1516047451610}, {"current_trial": 122, "trialdata": {"rt": -1, "trial_type": "single-stim", "word": "county", "stimulus": "<p id=\"stim\">COUNTY</p>", "conditions": [12, 1600, "v", 24000], "internal_node_id": "0.0-86.0", "trial": 3, "time_elapsed": 503822, "serialpos": 5, "key_press": -1, "wordID": 388, "type": "PRES_VIS", "trial_index": 122}, "uniqueid": "MTK1620:3BWI6RSP7HGHP50Q24JSWZWW750E7L", "dateTime": 1516047454299}, {"current_trial": 123, "trialdata": {"rt": -1, "trial_type": "single-stim", "word": "brick", "stimulus": "<p id=\"stim\">BRICK</p>", "conditions": [12, 1600, "v", 24000], "internal_node_id": "0.0-87.0", "trial": 3, "time_elapsed": 506357, "serialpos": 6, "key_press": -1, "wordID": 171, "type": "PRES_VIS", "trial_index": 123}, "uniqueid": "MTK1620:3BWI6RSP7HGHP50Q24JSWZWW750E7L", "dateTime": 1516047456835}, {"current_trial": 124, "trialdata": {"rt": -1, "trial_type": "single-stim", "word": "mattress", "stimulus": "<p id=\"stim\">MATTRESS</p>", "conditions": [12, 1600, "v", 24000], "internal_node_id": "0.0-88.0", "trial": 3, "time_elapsed": 508825, "serialpos": 7, "key_press": -1, "wordID": 878, "type": "PRES_VIS", "trial_index": 124}, "uniqueid": "MTK1620:3BWI6RSP7HGHP50Q24JSWZWW750E7L", "dateTime": 1516047459302}, {"current_trial": 125, "trialdata": {"rt": -1, "trial_type": "single-stim", "word": "twig", "stimulus": "<p id=\"stim\">TWIG</p>", "conditions": [12, 1600, "v", 24000], "internal_node_id": "0.0-89.0", "trial": 3, "time_elapsed": 511285, "serialpos": 8, "key_press": -1, "wordID": 1526, "type": "PRES_VIS", "trial_index": 125}, "uniqueid": "MTK1620:3BWI6RSP7HGHP50Q24JSWZWW750E7L", "dateTime": 1516047461762}, {"current_trial": 126, "trialdata": {"rt": -1, "trial_type": "single-stim", "word": "knife", "stimulus": "<p id=\"stim\">KNIFE</p>", "conditions": [12, 1600, "v", 24000], "internal_node_id": "0.0-90.0", "trial": 3, "time_elapsed": 513886, "serialpos": 9, "key_press": -1, "wordID": 784, "type": "PRES_VIS", "trial_index": 126}, "uniqueid": "MTK1620:3BWI6RSP7HGHP50Q24JSWZWW750E7L", "dateTime": 1516047464363}, {"current_trial": 127, "trialdata": {"rt": -1, "trial_type": "single-stim", "word": "flute", "stimulus": "<p id=\"stim\">FLUTE</p>", "conditions": [12, 1600, "v", 24000], "internal_node_id": "0.0-91.0", "trial": 3, "time_elapsed": 516674, "serialpos": 10, "key_press": -1, "wordID": 584, "type": "PRES_VIS", "trial_index": 127}, "uniqueid": "MTK1620:3BWI6RSP7HGHP50Q24JSWZWW750E7L", "dateTime": 1516047467151}, {"current_trial": 128, "trialdata": {"rt": -1, "trial_type": "single-stim", "word": "garden", "stimulus": "<p id=\"stim\">GARDEN</p>", "conditions": [12, 1600, "v", 24000], "internal_node_id": "0.0-92.0", "trial": 3, "time_elapsed": 519338, "serialpos": 11, "key_press": -1, "wordID": 622, "type": "PRES_VIS", "trial_index": 128}, "uniqueid": "MTK1620:3BWI6RSP7HGHP50Q24JSWZWW750E7L", "dateTime": 1516047469815}, {"current_trial": 129, "trialdata": {"rt": -1, "trial_type": "single-stim", "stimulus": "", "internal_node_id": "0.0-93.0-0.0", "time_elapsed": 521721, "key_press": -1, "type": "PRE_RECALL_DELAY", "trial_index": 129}, "uniqueid": "MTK1620:3BWI6RSP7HGHP50Q24JSWZWW750E7L", "dateTime": 1516047472198}, {"current_trial": 130, "trialdata": {"rt": -1000, "trial_type": "single-audio", "stimulus": "/static/audio/400Hz.wav", "internal_node_id": "0.0-94.0", "time_elapsed": 522223, "key_press": -1, "type": "PRE_RECALL_ALERT", "trial_index": 130}, "uniqueid": "MTK1620:3BWI6RSP7HGHP50Q24JSWZWW750E7L", "dateTime": 1516047472700}, {"current_trial": 131, "trialdata": {"rt": [3867, 4951, 6448, 10073, 13221, 29272], "recwords": ["pistol", "county", "knife", "mattress", "garden", "flute"], "key_times": [937, 1046, 1173, 1268, 1354, 2252, 2433, 2623, 2968, 3468, 3594, 3703, 3867, 4093, 4280, 4358, 4434, 4555, 4774, 4951, 5214, 5370, 5522, 5597, 5688, 6448, 7401, 7463, 7554, 7748, 7997, 8084, 8176, 8363, 10073, 11416, 11562, 11640, 11884, 11973, 12062, 13221, 28744, 28859, 28933, 29054, 29132, 29272], "trial_type": "free-recall", "conditions": [12, 1600, "v", 24000], "internal_node_id": "0.0-95.0-0.0", "key_presses": [80, 73, 84, 79, 76, 8, 8, 8, 83, 84, 79, 76, 13, 67, 79, 85, 78, 84, 89, 13, 75, 78, 73, 70, 69, 13, 77, 65, 84, 84, 82, 69, 83, 83, 13, 71, 65, 82, 68, 69, 78, 13, 70, 76, 85, 84, 69, 13], "trial": 3, "time_elapsed": 582227, "type": "FREE_RECALL", "trial_index": 131}, "uniqueid": "MTK1620:3BWI6RSP7HGHP50Q24JSWZWW750E7L", "dateTime": 1516047532708}, {"current_trial": 132, "trialdata": {"rt": 2559, "trial_type": "text", "internal_node_id": "0.0-96.0", "time_elapsed": 586792, "key_press": 32, "type": "INSTRUCTIONS", "trial_index": 132}, "uniqueid": "MTK1620:3BWI6RSP7HGHP50Q24JSWZWW750E7L", "dateTime": 1516047537269}, {"current_trial": 133, "trialdata": {"rt": [4572, 6725, 10255, 11390], "trial_type": "math-distractor", "key_times": [4388, 4467, 4572, 6186, 6324, 6725, 9983, 10102, 10255, 11322, 11390], "responses": ["14", "19", "11", "9"], "num2": [4, 9, 4, 3, 7], "num3": [5, 1, 3, 3, 3], "conditions": [12, 1600, "v", 12000], "internal_node_id": "0.0-97.0", "key_presses": [49, 52, 13, 49, 57, 13, 49, 49, 13, 57, 13], "trial": 4, "time_elapsed": 600796, "type": "DISTRACTOR", "trial_index": 133, "num1": [4, 9, 4, 3, 5]}, "uniqueid": "MTK1620:3BWI6RSP7HGHP50Q24JSWZWW750E7L", "dateTime": 1516047551273}, {"current_trial": 134, "trialdata": {"rt": -1, "trial_type": "single-stim", "stimulus": "<p id=\"stim\">10</p>", "internal_node_id": "0.0-98.0-0.0", "time_elapsed": 603800, "key_press": -1, "trial_index": 134}, "uniqueid": "MTK1620:3BWI6RSP7HGHP50Q24JSWZWW750E7L", "dateTime": 1516047554278}, {"current_trial": 135, "trialdata": {"rt": -1, "trial_type": "single-stim", "stimulus": "<p id=\"stim\">9</p>", "internal_node_id": "0.0-98.0-1.0", "time_elapsed": 604803, "key_press": -1, "trial_index": 135}, "uniqueid": "MTK1620:3BWI6RSP7HGHP50Q24JSWZWW750E7L", "dateTime": 1516047555280}, {"current_trial": 136, "trialdata": {"rt": -1, "trial_type": "single-stim", "stimulus": "<p id=\"stim\">8</p>", "internal_node_id": "0.0-98.0-2.0", "time_elapsed": 605805, "key_press": -1, "trial_index": 136}, "uniqueid": "MTK1620:3BWI6RSP7HGHP50Q24JSWZWW750E7L", "dateTime": 1516047556283}, {"current_trial": 137, "trialdata": {"rt": -1, "trial_type": "single-stim", "stimulus": "<p id=\"stim\">7</p>", "internal_node_id": "0.0-98.0-3.0", "time_elapsed": 606808, "key_press": -1, "trial_index": 137}, "uniqueid": "MTK1620:3BWI6RSP7HGHP50Q24JSWZWW750E7L", "dateTime": 1516047557285}, {"current_trial": 138, "trialdata": {"rt": -1, "trial_type": "single-stim", "stimulus": "<p id=\"stim\">6</p>", "internal_node_id": "0.0-98.0-4.0", "time_elapsed": 607809, "key_press": -1, "trial_index": 138}, "uniqueid": "MTK1620:3BWI6RSP7HGHP50Q24JSWZWW750E7L", "dateTime": 1516047558288}, {"current_trial": 139, "trialdata": {"rt": -1, "trial_type": "single-stim", "stimulus": "<p id=\"stim\">5</p>", "internal_node_id": "0.0-98.0-5.0", "time_elapsed": 608813, "key_press": -1, "trial_index": 139}, "uniqueid": "MTK1620:3BWI6RSP7HGHP50Q24JSWZWW750E7L", "dateTime": 1516047559290}, {"current_trial": 140, "trialdata": {"rt": -1, "trial_type": "single-stim", "stimulus": "<p id=\"stim\">4</p>", "internal_node_id": "0.0-98.0-6.0", "time_elapsed": 609814, "key_press": -1, "trial_index": 140}, "uniqueid": "MTK1620:3BWI6RSP7HGHP50Q24JSWZWW750E7L", "dateTime": 1516047560291}, {"current_trial": 141, "trialdata": {"rt": -1, "trial_type": "single-stim", "stimulus": "<p id=\"stim\">3</p>", "internal_node_id": "0.0-98.0-7.0", "time_elapsed": 610816, "key_press": -1, "trial_index": 141}, "uniqueid": "MTK1620:3BWI6RSP7HGHP50Q24JSWZWW750E7L", "dateTime": 1516047561293}, {"current_trial": 142, "trialdata": {"rt": -1, "trial_type": "single-stim", "stimulus": "<p id=\"stim\">2</p>", "internal_node_id": "0.0-98.0-8.0", "time_elapsed": 611818, "key_press": -1, "trial_index": 142}, "uniqueid": "MTK1620:3BWI6RSP7HGHP50Q24JSWZWW750E7L", "dateTime": 1516047562295}, {"current_trial": 143, "trialdata": {"rt": -1, "trial_type": "single-stim", "stimulus": "<p id=\"stim\">1</p>", "internal_node_id": "0.0-98.0-9.0", "time_elapsed": 612819, "key_press": -1, "trial_index": 143}, "uniqueid": "MTK1620:3BWI6RSP7HGHP50Q24JSWZWW750E7L", "dateTime": 1516047563296}, {"current_trial": 144, "trialdata": {"rt": -1, "trial_type": "single-stim", "stimulus": "<p id=\"stim\">+</p>", "internal_node_id": "0.0-99.0-0.0", "time_elapsed": 614321, "key_press": -1, "type": "FIXATION", "trial_index": 144}, "uniqueid": "MTK1620:3BWI6RSP7HGHP50Q24JSWZWW750E7L", "dateTime": 1516047564798}, {"current_trial": 145, "trialdata": {"rt": -1, "trial_type": "single-stim", "word": "basement", "stimulus": "<p id=\"stim\">BASEMENT</p>", "conditions": [12, 1600, "v", 12000], "internal_node_id": "0.0-100.0", "trial": 4, "time_elapsed": 615923, "serialpos": 0, "key_press": -1, "wordID": 93, "type": "PRES_VIS", "trial_index": 145}, "uniqueid": "MTK1620:3BWI6RSP7HGHP50Q24JSWZWW750E7L", "dateTime": 1516047566400}, {"current_trial": 146, "trialdata": {"rt": -1, "trial_type": "single-stim", "word": "flashlight", "stimulus": "<p id=\"stim\">FLASHLIGHT</p>", "conditions": [12, 1600, "v", 12000], "internal_node_id": "0.0-101.0", "trial": 4, "time_elapsed": 618712, "serialpos": 1, "key_press": -1, "wordID": 574, "type": "PRES_VIS", "trial_index": 146}, "uniqueid": "MTK1620:3BWI6RSP7HGHP50Q24JSWZWW750E7L", "dateTime": 1516047569189}, {"current_trial": 147, "trialdata": {"rt": -1, "trial_type": "single-stim", "word": "nurse", "stimulus": "<p id=\"stim\">NURSE</p>", "conditions": [12, 1600, "v", 12000], "internal_node_id": "0.0-102.0", "trial": 4, "time_elapsed": 621470, "serialpos": 2, "key_press": -1, "wordID": 962, "type": "PRES_VIS", "trial_index": 147}, "uniqueid": "MTK1620:3BWI6RSP7HGHP50Q24JSWZWW750E7L", "dateTime": 1516047571947}, {"current_trial": 148, "trialdata": {"rt": -1, "trial_type": "single-stim", "word": "patient", "stimulus": "<p id=\"stim\">PATIENT</p>", "conditions": [12, 1600, "v", 12000], "internal_node_id": "0.0-103.0", "trial": 4, "time_elapsed": 624023, "serialpos": 3, "key_press": -1, "wordID": 1023, "type": "PRES_VIS", "trial_index": 148}, "uniqueid": "MTK1620:3BWI6RSP7HGHP50Q24JSWZWW750E7L", "dateTime": 1516047574501}, {"current_trial": 149, "trialdata": {"rt": -1, "trial_type": "single-stim", "word": "branch", "stimulus": "<p id=\"stim\">BRANCH</p>", "conditions": [12, 1600, "v", 12000], "internal_node_id": "0.0-104.0", "trial": 4, "time_elapsed": 626643, "serialpos": 4, "key_press": -1, "wordID": 167, "type": "PRES_VIS", "trial_index": 149}, "uniqueid": "MTK1620:3BWI6RSP7HGHP50Q24JSWZWW750E7L", "dateTime": 1516047577120}, {"current_trial": 150, "trialdata": {"rt": -1, "trial_type": "single-stim", "word": "garlic", "stimulus": "<p id=\"stim\">GARLIC</p>", "conditions": [12, 1600, "v", 12000], "internal_node_id": "0.0-105.0", "trial": 4, "time_elapsed": 629290, "serialpos": 5, "key_press": -1, "wordID": 623, "type": "PRES_VIS", "trial_index": 150}, "uniqueid": "MTK1620:3BWI6RSP7HGHP50Q24JSWZWW750E7L", "dateTime": 1516047579767}, {"current_trial": 151, "trialdata": {"rt": -1, "trial_type": "single-stim", "word": "diver", "stimulus": "<p id=\"stim\">DIVER</p>", "conditions": [12, 1600, "v", 12000], "internal_node_id": "0.0-106.0", "trial": 4, "time_elapsed": 631787, "serialpos": 6, "key_press": -1, "wordID": 475, "type": "PRES_VIS", "trial_index": 151}, "uniqueid": "MTK1620:3BWI6RSP7HGHP50Q24JSWZWW750E7L", "dateTime": 1516047582264}, {"current_trial": 152, "trialdata": {"rt": -1, "trial_type": "single-stim", "word": "sister", "stimulus": "<p id=\"stim\">SISTER</p>", "conditions": [12, 1600, "v", 12000], "internal_node_id": "0.0-107.0", "trial": 4, "time_elapsed": 634489, "serialpos": 7, "key_press": -1, "wordID": 1311, "type": "PRES_VIS", "trial_index": 152}, "uniqueid": "MTK1620:3BWI6RSP7HGHP50Q24JSWZWW750E7L", "dateTime": 1516047584967}, {"current_trial": 153, "trialdata": {"rt": -1, "trial_type": "single-stim", "word": "salad", "stimulus": "<p id=\"stim\">SALAD</p>", "conditions": [12, 1600, "v", 12000], "internal_node_id": "0.0-108.0", "trial": 4, "time_elapsed": 637272, "serialpos": 8, "key_press": -1, "wordID": 1223, "type": "PRES_VIS", "trial_index": 153}, "uniqueid": "MTK1620:3BWI6RSP7HGHP50Q24JSWZWW750E7L", "dateTime": 1516047587749}, {"current_trial": 154, "trialdata": {"rt": -1, "trial_type": "single-stim", "word": "gavel", "stimulus": "<p id=\"stim\">GAVEL</p>", "conditions": [12, 1600, "v", 12000], "internal_node_id": "0.0-109.0", "trial": 4, "time_elapsed": 639923, "serialpos": 9, "key_press": -1, "wordID": 626, "type": "PRES_VIS", "trial_index": 154}, "uniqueid": "MTK1620:3BWI6RSP7HGHP50Q24JSWZWW750E7L", "dateTime": 1516047590400}, {"current_trial": 155, "trialdata": {"rt": -1, "trial_type": "single-stim", "word": "diner", "stimulus": "<p id=\"stim\">DINER</p>", "conditions": [12, 1600, "v", 12000], "internal_node_id": "0.0-110.0", "trial": 4, "time_elapsed": 642660, "serialpos": 10, "key_press": -1, "wordID": 466, "type": "PRES_VIS", "trial_index": 155}, "uniqueid": "MTK1620:3BWI6RSP7HGHP50Q24JSWZWW750E7L", "dateTime": 1516047593138}, {"current_trial": 156, "trialdata": {"rt": -1, "trial_type": "single-stim", "word": "actor", "stimulus": "<p id=\"stim\">ACTOR</p>", "conditions": [12, 1600, "v", 12000], "internal_node_id": "0.0-111.0", "trial": 4, "time_elapsed": 645336, "serialpos": 11, "key_press": -1, "wordID": 4, "type": "PRES_VIS", "trial_index": 156}, "uniqueid": "MTK1620:3BWI6RSP7HGHP50Q24JSWZWW750E7L", "dateTime": 1516047595813}, {"current_trial": 157, "trialdata": {"rt": -1, "trial_type": "single-stim", "stimulus": "", "internal_node_id": "0.0-112.0-0.0", "time_elapsed": 647917, "key_press": -1, "type": "PRE_RECALL_DELAY", "trial_index": 157}, "uniqueid": "MTK1620:3BWI6RSP7HGHP50Q24JSWZWW750E7L", "dateTime": 1516047598394}, {"current_trial": 158, "trialdata": {"rt": -1000, "trial_type": "single-audio", "stimulus": "/static/audio/400Hz.wav", "internal_node_id": "0.0-113.0", "time_elapsed": 648418, "key_press": -1, "type": "PRE_RECALL_ALERT", "trial_index": 158}, "uniqueid": "MTK1620:3BWI6RSP7HGHP50Q24JSWZWW750E7L", "dateTime": 1516047598896}, {"current_trial": 159, "trialdata": {"rt": [1882, 2644, 4247, 5414, 6963, 8367, 18252], "recwords": ["sister", "gavel", "branch", "garlic", "basement", "flashlight", "actor"], "key_times": [1002, 1120, 1179, 1333, 1464, 1542, 1882, 2140, 2252, 2330, 2426, 2507, 2644, 3427, 3503, 3595, 3692, 3836, 3955, 4247, 4723, 4878, 4953, 5063, 5160, 5287, 5414, 5674, 5740, 5790, 5875, 5989, 6063, 6174, 6288, 6963, 7109, 7247, 7309, 7409, 7554, 7779, 7884, 7989, 8116, 8216, 8367, 16755, 16839, 17068, 17263, 17659, 17900, 17999, 18252], "trial_type": "free-recall", "conditions": [12, 1600, "v", 12000], "internal_node_id": "0.0-114.0-0.0", "key_presses": [83, 73, 83, 84, 69, 82, 13, 71, 65, 86, 69, 76, 13, 66, 82, 65, 78, 67, 72, 13, 71, 65, 82, 76, 73, 67, 13, 66, 65, 83, 69, 77, 69, 78, 84, 13, 70, 76, 65, 83, 72, 76, 73, 71, 72, 84, 13, 65, 67, 84, 82, 8, 79, 82, 13], "trial": 4, "time_elapsed": 708422, "type": "FREE_RECALL", "trial_index": 159}, "uniqueid": "MTK1620:3BWI6RSP7HGHP50Q24JSWZWW750E7L", "dateTime": 1516047658903}, {"current_trial": 160, "trialdata": {"rt": 1943, "trial_type": "text", "internal_node_id": "0.0-115.0", "time_elapsed": 712370, "key_press": 32, "type": "INSTRUCTIONS", "trial_index": 160}, "uniqueid": "MTK1620:3BWI6RSP7HGHP50Q24JSWZWW750E7L", "dateTime": 1516047662847}, {"current_trial": 161, "trialdata": {"rt": [2207, 3639, 5464, 7333, 9967, 13321, 15191, 17368, 19563, 23295], "trial_type": "math-distractor", "key_times": [2002, 2078, 2207, 3459, 3639, 5135, 5274, 5464, 7169, 7252, 7333, 9807, 9884, 9967, 12474, 12789, 13143, 13201, 13321, 14737, 14994, 15191, 16957, 17216, 17368, 19343, 19473, 19563, 22601, 22834, 23107, 23145, 23295], "responses": ["13", "8", "18", "15", "15", "22", "18", "10", "22", "12"], "num2": [3, 1, 7, 5, 6, 8, 5, 3, 8, 3, 7], "num3": [4, 6, 7, 1, 2, 9, 5, 2, 6, 5, 5], "conditions": [12, 800, "v", 24000], "internal_node_id": "0.0-116.0", "key_presses": [49, 51, 13, 56, 13, 49, 56, 13, 49, 53, 13, 49, 53, 13, 50, 49, 8, 50, 13, 49, 56, 13, 49, 48, 13, 50, 50, 13, 49, 51, 8, 50, 13], "trial": 5, "time_elapsed": 738375, "type": "DISTRACTOR", "trial_index": 161, "num1": [6, 1, 4, 9, 7, 5, 8, 5, 8, 4, 9]}, "uniqueid": "MTK1620:3BWI6RSP7HGHP50Q24JSWZWW750E7L", "dateTime": 1516047688852}, {"current_trial": 162, "trialdata": {"rt": -1, "trial_type": "single-stim", "stimulus": "<p id=\"stim\">10</p>", "internal_node_id": "0.0-117.0-0.0", "time_elapsed": 741377, "key_press": -1, "trial_index": 162}, "uniqueid": "MTK1620:3BWI6RSP7HGHP50Q24JSWZWW750E7L", "dateTime": 1516047691854}, {"current_trial": 163, "trialdata": {"rt": -1, "trial_type": "single-stim", "stimulus": "<p id=\"stim\">9</p>", "internal_node_id": "0.0-117.0-1.0", "time_elapsed": 742379, "key_press": -1, "trial_index": 163}, "uniqueid": "MTK1620:3BWI6RSP7HGHP50Q24JSWZWW750E7L", "dateTime": 1516047692856}, {"current_trial": 164, "trialdata": {"rt": -1, "trial_type": "single-stim", "stimulus": "<p id=\"stim\">8</p>", "internal_node_id": "0.0-117.0-2.0", "time_elapsed": 743381, "key_press": -1, "trial_index": 164}, "uniqueid": "MTK1620:3BWI6RSP7HGHP50Q24JSWZWW750E7L", "dateTime": 1516047693858}, {"current_trial": 165, "trialdata": {"rt": -1, "trial_type": "single-stim", "stimulus": "<p id=\"stim\">7</p>", "internal_node_id": "0.0-117.0-3.0", "time_elapsed": 744383, "key_press": -1, "trial_index": 165}, "uniqueid": "MTK1620:3BWI6RSP7HGHP50Q24JSWZWW750E7L", "dateTime": 1516047694860}, {"current_trial": 166, "trialdata": {"rt": -1, "trial_type": "single-stim", "stimulus": "<p id=\"stim\">6</p>", "internal_node_id": "0.0-117.0-4.0", "time_elapsed": 745385, "key_press": -1, "trial_index": 166}, "uniqueid": "MTK1620:3BWI6RSP7HGHP50Q24JSWZWW750E7L", "dateTime": 1516047695862}, {"current_trial": 167, "trialdata": {"rt": -1, "trial_type": "single-stim", "stimulus": "<p id=\"stim\">5</p>", "internal_node_id": "0.0-117.0-5.0", "time_elapsed": 746387, "key_press": -1, "trial_index": 167}, "uniqueid": "MTK1620:3BWI6RSP7HGHP50Q24JSWZWW750E7L", "dateTime": 1516047696864}, {"current_trial": 168, "trialdata": {"rt": -1, "trial_type": "single-stim", "stimulus": "<p id=\"stim\">4</p>", "internal_node_id": "0.0-117.0-6.0", "time_elapsed": 747388, "key_press": -1, "trial_index": 168}, "uniqueid": "MTK1620:3BWI6RSP7HGHP50Q24JSWZWW750E7L", "dateTime": 1516047697866}, {"current_trial": 169, "trialdata": {"rt": -1, "trial_type": "single-stim", "stimulus": "<p id=\"stim\">3</p>", "internal_node_id": "0.0-117.0-7.0", "time_elapsed": 748390, "key_press": -1, "trial_index": 169}, "uniqueid": "MTK1620:3BWI6RSP7HGHP50Q24JSWZWW750E7L", "dateTime": 1516047698867}, {"current_trial": 170, "trialdata": {"rt": -1, "trial_type": "single-stim", "stimulus": "<p id=\"stim\">2</p>", "internal_node_id": "0.0-117.0-8.0", "time_elapsed": 749392, "key_press": -1, "trial_index": 170}, "uniqueid": "MTK1620:3BWI6RSP7HGHP50Q24JSWZWW750E7L", "dateTime": 1516047699869}, {"current_trial": 171, "trialdata": {"rt": -1, "trial_type": "single-stim", "stimulus": "<p id=\"stim\">1</p>", "internal_node_id": "0.0-117.0-9.0", "time_elapsed": 750393, "key_press": -1, "trial_index": 171}, "uniqueid": "MTK1620:3BWI6RSP7HGHP50Q24JSWZWW750E7L", "dateTime": 1516047700870}, {"current_trial": 172, "trialdata": {"rt": -1, "trial_type": "single-stim", "stimulus": "<p id=\"stim\">+</p>", "internal_node_id": "0.0-118.0-0.0", "time_elapsed": 751895, "key_press": -1, "type": "FIXATION", "trial_index": 172}, "uniqueid": "MTK1620:3BWI6RSP7HGHP50Q24JSWZWW750E7L", "dateTime": 1516047702372}, {"current_trial": 173, "trialdata": {"rt": -1, "trial_type": "single-stim", "word": "catcher", "stimulus": "<p id=\"stim\">CATCHER</p>", "conditions": [12, 800, "v", 24000], "internal_node_id": "0.0-119.0", "trial": 5, "time_elapsed": 752697, "serialpos": 0, "key_press": -1, "wordID": 257, "type": "PRES_VIS", "trial_index": 173}, "uniqueid": "MTK1620:3BWI6RSP7HGHP50Q24JSWZWW750E7L", "dateTime": 1516047703174}, {"current_trial": 174, "trialdata": {"rt": -1, "trial_type": "single-stim", "word": "football", "stimulus": "<p id=\"stim\">FOOTBALL</p>", "conditions": [12, 800, "v", 24000], "internal_node_id": "0.0-120.0", "trial": 5, "time_elapsed": 754639, "serialpos": 1, "key_press": -1, "wordID": 590, "type": "PRES_VIS", "trial_index": 174}, "uniqueid": "MTK1620:3BWI6RSP7HGHP50Q24JSWZWW750E7L", "dateTime": 1516047705116}, {"current_trial": 175, "trialdata": {"rt": -1, "trial_type": "single-stim", "word": "snack", "stimulus": "<p id=\"stim\">SNACK</p>", "conditions": [12, 800, "v", 24000], "internal_node_id": "0.0-121.0", "trial": 5, "time_elapsed": 756302, "serialpos": 2, "key_press": -1, "wordID": 1330, "type": "PRES_VIS", "trial_index": 175}, "uniqueid": "MTK1620:3BWI6RSP7HGHP50Q24JSWZWW750E7L", "dateTime": 1516047706779}, {"current_trial": 176, "trialdata": {"rt": -1, "trial_type": "single-stim", "word": "pizza", "stimulus": "<p id=\"stim\">PIZZA</p>", "conditions": [12, 800, "v", 24000], "internal_node_id": "0.0-122.0", "trial": 5, "time_elapsed": 757927, "serialpos": 3, "key_press": -1, "wordID": 1078, "type": "PRES_VIS", "trial_index": 176}, "uniqueid": "MTK1620:3BWI6RSP7HGHP50Q24JSWZWW750E7L", "dateTime": 1516047708404}, {"current_trial": 177, "trialdata": {"rt": -1, "trial_type": "single-stim", "word": "honey", "stimulus": "<p id=\"stim\">HONEY</p>", "conditions": [12, 800, "v", 24000], "internal_node_id": "0.0-123.0", "trial": 5, "time_elapsed": 759822, "serialpos": 4, "key_press": -1, "wordID": 712, "type": "PRES_VIS", "trial_index": 177}, "uniqueid": "MTK1620:3BWI6RSP7HGHP50Q24JSWZWW750E7L", "dateTime": 1516047710299}, {"current_trial": 178, "trialdata": {"rt": -1, "trial_type": "single-stim", "word": "crevice", "stimulus": "<p id=\"stim\">CREVICE</p>", "conditions": [12, 800, "v", 24000], "internal_node_id": "0.0-124.0", "trial": 5, "time_elapsed": 761578, "serialpos": 5, "key_press": -1, "wordID": 404, "type": "PRES_VIS", "trial_index": 178}, "uniqueid": "MTK1620:3BWI6RSP7HGHP50Q24JSWZWW750E7L", "dateTime": 1516047712055}, {"current_trial": 179, "trialdata": {"rt": -1, "trial_type": "single-stim", "word": "pasta", "stimulus": "<p id=\"stim\">PASTA</p>", "conditions": [12, 800, "v", 24000], "internal_node_id": "0.0-125.0", "trial": 5, "time_elapsed": 763236, "serialpos": 6, "key_press": -1, "wordID": 1020, "type": "PRES_VIS", "trial_index": 179}, "uniqueid": "MTK1620:3BWI6RSP7HGHP50Q24JSWZWW750E7L", "dateTime": 1516047713713}, {"current_trial": 180, "trialdata": {"rt": -1, "trial_type": "single-stim", "word": "shoulder", "stimulus": "<p id=\"stim\">SHOULDER</p>", "conditions": [12, 800, "v", 24000], "internal_node_id": "0.0-126.0", "trial": 5, "time_elapsed": 765147, "serialpos": 7, "key_press": -1, "wordID": 1293, "type": "PRES_VIS", "trial_index": 180}, "uniqueid": "MTK1620:3BWI6RSP7HGHP50Q24JSWZWW750E7L", "dateTime": 1516047715624}, {"current_trial": 181, "trialdata": {"rt": -1, "trial_type": "single-stim", "word": "racket", "stimulus": "<p id=\"stim\">RACKET</p>", "conditions": [12, 800, "v", 24000], "internal_node_id": "0.0-127.0", "trial": 5, "time_elapsed": 767081, "serialpos": 8, "key_press": -1, "wordID": 1154, "type": "PRES_VIS", "trial_index": 181}, "uniqueid": "MTK1620:3BWI6RSP7HGHP50Q24JSWZWW750E7L", "dateTime": 1516047717558}, {"current_trial": 182, "trialdata": {"rt": -1, "trial_type": "single-stim", "word": "parsley", "stimulus": "<p id=\"stim\">PARSLEY</p>", "conditions": [12, 800, "v", 24000], "internal_node_id": "0.0-128.0", "trial": 5, "time_elapsed": 768979, "serialpos": 9, "key_press": -1, "wordID": 1015, "type": "PRES_VIS", "trial_index": 182}, "uniqueid": "MTK1620:3BWI6RSP7HGHP50Q24JSWZWW750E7L", "dateTime": 1516047719456}, {"current_trial": 183, "trialdata": {"rt": -1, "trial_type": "single-stim", "word": "pocket", "stimulus": "<p id=\"stim\">POCKET</p>", "conditions": [12, 800, "v", 24000], "internal_node_id": "0.0-129.0", "trial": 5, "time_elapsed": 770954, "serialpos": 10, "key_press": -1, "wordID": 1092, "type": "PRES_VIS", "trial_index": 183}, "uniqueid": "MTK1620:3BWI6RSP7HGHP50Q24JSWZWW750E7L", "dateTime": 1516047721431}, {"current_trial": 184, "trialdata": {"rt": -1, "trial_type": "single-stim", "word": "money", "stimulus": "<p id=\"stim\">MONEY</p>", "conditions": [12, 800, "v", 24000], "internal_node_id": "0.0-130.0", "trial": 5, "time_elapsed": 772946, "serialpos": 11, "key_press": -1, "wordID": 907, "type": "PRES_VIS", "trial_index": 184}, "uniqueid": "MTK1620:3BWI6RSP7HGHP50Q24JSWZWW750E7L", "dateTime": 1516047723424}, {"current_trial": 185, "trialdata": {"rt": -1, "trial_type": "single-stim", "stimulus": "", "internal_node_id": "0.0-131.0-0.0", "time_elapsed": 775039, "key_press": -1, "type": "PRE_RECALL_DELAY", "trial_index": 185}, "uniqueid": "MTK1620:3BWI6RSP7HGHP50Q24JSWZWW750E7L", "dateTime": 1516047725516}, {"current_trial": 186, "trialdata": {"rt": -1000, "trial_type": "single-audio", "stimulus": "/static/audio/400Hz.wav", "internal_node_id": "0.0-132.0", "time_elapsed": 775541, "key_press": -1, "type": "PRE_RECALL_ALERT", "trial_index": 186}, "uniqueid": "MTK1620:3BWI6RSP7HGHP50Q24JSWZWW750E7L", "dateTime": 1516047726018}, {"current_trial": 187, "trialdata": {"rt": [2528, 3440, 5217, 8266, 9483], "recwords": ["parsely", "pocket", "money", "football", "catcher"], "key_times": [567, 994, 1090, 1266, 1380, 1558, 1744, 2528, 2819, 2886, 2997, 3092, 3246, 3330, 3440, 3681, 3857, 3926, 3989, 4081, 5217, 7170, 7247, 7413, 7525, 7640, 7806, 7935, 8074, 8266, 8503, 8631, 8712, 8912, 9086, 9192, 9313, 9483], "trial_type": "free-recall", "conditions": [12, 800, "v", 24000], "internal_node_id": "0.0-133.0-0.0", "key_presses": [80, 65, 82, 83, 69, 76, 89, 13, 80, 79, 67, 75, 69, 84, 13, 77, 79, 78, 69, 89, 13, 70, 79, 79, 84, 66, 65, 76, 76, 13, 67, 65, 84, 67, 72, 69, 82, 13], "trial": 5, "time_elapsed": 835545, "type": "FREE_RECALL", "trial_index": 187}, "uniqueid": "MTK1620:3BWI6RSP7HGHP50Q24JSWZWW750E7L", "dateTime": 1516047786026}, {"current_trial": 188, "trialdata": {"rt": 883, "trial_type": "text", "internal_node_id": "0.0-134.0", "time_elapsed": 838434, "key_press": 32, "type": "INSTRUCTIONS", "trial_index": 188}, "uniqueid": "MTK1620:3BWI6RSP7HGHP50Q24JSWZWW750E7L", "dateTime": 1516047788911}, {"current_trial": 189, "trialdata": {"rt": [3053, 5085, 6555, 8047, 12206, 14859, 17743, 19898, 21628], "trial_type": "math-distractor", "key_times": [2858, 2934, 3053, 4886, 4972, 5085, 6383, 6476, 6555, 7871, 7969, 8047, 11954, 12086, 12206, 14115, 14797, 14859, 17349, 17641, 17743, 19699, 19898, 21415, 21521, 21628], "responses": ["18", "20", "10", "10", "18", "15", "16", "7", "10"], "num2": [8, 6, 2, 2, 7, 5, 7, 1, 1, 5], "num3": [6, 7, 7, 5, 9, 1, 4, 2, 2, 7], "conditions": [24, 800, "v", 24000], "internal_node_id": "0.0-135.0", "key_presses": [49, 56, 13, 50, 48, 13, 49, 48, 13, 49, 48, 13, 49, 56, 13, 49, 53, 13, 49, 54, 13, 55, 13, 49, 48, 13], "trial": 6, "time_elapsed": 864438, "type": "DISTRACTOR", "trial_index": 189, "num1": [4, 7, 1, 3, 8, 9, 5, 4, 7, 1]}, "uniqueid": "MTK1620:3BWI6RSP7HGHP50Q24JSWZWW750E7L", "dateTime": 1516047814916}, {"current_trial": 190, "trialdata": {"rt": -1, "trial_type": "single-stim", "stimulus": "<p id=\"stim\">10</p>", "internal_node_id": "0.0-136.0-0.0", "time_elapsed": 867441, "key_press": -1, "trial_index": 190}, "uniqueid": "MTK1620:3BWI6RSP7HGHP50Q24JSWZWW750E7L", "dateTime": 1516047817918}, {"current_trial": 191, "trialdata": {"rt": -1, "trial_type": "single-stim", "stimulus": "<p id=\"stim\">9</p>", "internal_node_id": "0.0-136.0-1.0", "time_elapsed": 868442, "key_press": -1, "trial_index": 191}, "uniqueid": "MTK1620:3BWI6RSP7HGHP50Q24JSWZWW750E7L", "dateTime": 1516047818920}, {"current_trial": 192, "trialdata": {"rt": -1, "trial_type": "single-stim", "stimulus": "<p id=\"stim\">8</p>", "internal_node_id": "0.0-136.0-2.0", "time_elapsed": 869444, "key_press": -1, "trial_index": 192}, "uniqueid": "MTK1620:3BWI6RSP7HGHP50Q24JSWZWW750E7L", "dateTime": 1516047819921}, {"current_trial": 193, "trialdata": {"rt": -1, "trial_type": "single-stim", "stimulus": "<p id=\"stim\">7</p>", "internal_node_id": "0.0-136.0-3.0", "time_elapsed": 870446, "key_press": -1, "trial_index": 193}, "uniqueid": "MTK1620:3BWI6RSP7HGHP50Q24JSWZWW750E7L", "dateTime": 1516047820923}, {"current_trial": 194, "trialdata": {"rt": -1, "trial_type": "single-stim", "stimulus": "<p id=\"stim\">6</p>", "internal_node_id": "0.0-136.0-4.0", "time_elapsed": 871447, "key_press": -1, "trial_index": 194}, "uniqueid": "MTK1620:3BWI6RSP7HGHP50Q24JSWZWW750E7L", "dateTime": 1516047821925}, {"current_trial": 195, "trialdata": {"rt": -1, "trial_type": "single-stim", "stimulus": "<p id=\"stim\">5</p>", "internal_node_id": "0.0-136.0-5.0", "time_elapsed": 872449, "key_press": -1, "trial_index": 195}, "uniqueid": "MTK1620:3BWI6RSP7HGHP50Q24JSWZWW750E7L", "dateTime": 1516047822926}, {"current_trial": 196, "trialdata": {"rt": -1, "trial_type": "single-stim", "stimulus": "<p id=\"stim\">4</p>", "internal_node_id": "0.0-136.0-6.0", "time_elapsed": 873451, "key_press": -1, "trial_index": 196}, "uniqueid": "MTK1620:3BWI6RSP7HGHP50Q24JSWZWW750E7L", "dateTime": 1516047823928}, {"current_trial": 197, "trialdata": {"rt": -1, "trial_type": "single-stim", "stimulus": "<p id=\"stim\">3</p>", "internal_node_id": "0.0-136.0-7.0", "time_elapsed": 874453, "key_press": -1, "trial_index": 197}, "uniqueid": "MTK1620:3BWI6RSP7HGHP50Q24JSWZWW750E7L", "dateTime": 1516047824930}, {"current_trial": 198, "trialdata": {"rt": -1, "trial_type": "single-stim", "stimulus": "<p id=\"stim\">2</p>", "internal_node_id": "0.0-136.0-8.0", "time_elapsed": 875455, "key_press": -1, "trial_index": 198}, "uniqueid": "MTK1620:3BWI6RSP7HGHP50Q24JSWZWW750E7L", "dateTime": 1516047825932}, {"current_trial": 199, "trialdata": {"rt": -1, "trial_type": "single-stim", "stimulus": "<p id=\"stim\">1</p>", "internal_node_id": "0.0-136.0-9.0", "time_elapsed": 876456, "key_press": -1, "trial_index": 199}, "uniqueid": "MTK1620:3BWI6RSP7HGHP50Q24JSWZWW750E7L", "dateTime": 1516047826934}, {"current_trial": 200, "trialdata": {"rt": -1, "trial_type": "single-stim", "stimulus": "<p id=\"stim\">+</p>", "internal_node_id": "0.0-137.0-0.0", "time_elapsed": 877958, "key_press": -1, "type": "FIXATION", "trial_index": 200}, "uniqueid": "MTK1620:3BWI6RSP7HGHP50Q24JSWZWW750E7L", "dateTime": 1516047828435}, {"current_trial": 201, "trialdata": {"rt": -1, "trial_type": "single-stim", "word": "muffin", "stimulus": "<p id=\"stim\">MUFFIN</p>", "conditions": [24, 800, "v", 24000], "internal_node_id": "0.0-138.0", "trial": 6, "time_elapsed": 878760, "serialpos": 0, "key_press": -1, "wordID": 928, "type": "PRES_VIS", "trial_index": 201}, "uniqueid": "MTK1620:3BWI6RSP7HGHP50Q24JSWZWW750E7L", "dateTime": 1516047829237}, {"current_trial": 202, "trialdata": {"rt": -1, "trial_type": "single-stim", "word": "item", "stimulus": "<p id=\"stim\">ITEM</p>", "conditions": [24, 800, "v", 24000], "internal_node_id": "0.0-139.0", "trial": 6, "time_elapsed": 880547, "serialpos": 1, "key_press": -1, "wordID": 745, "type": "PRES_VIS", "trial_index": 202}, "uniqueid": "MTK1620:3BWI6RSP7HGHP50Q24JSWZWW750E7L", "dateTime": 1516047831024}, {"current_trial": 203, "trialdata": {"rt": -1, "trial_type": "single-stim", "word": "knapsack", "stimulus": "<p id=\"stim\">KNAPSACK</p>", "conditions": [24, 800, "v", 24000], "internal_node_id": "0.0-140.0", "trial": 6, "time_elapsed": 882496, "serialpos": 2, "key_press": -1, "wordID": 782, "type": "PRES_VIS", "trial_index": 203}, "uniqueid": "MTK1620:3BWI6RSP7HGHP50Q24JSWZWW750E7L", "dateTime": 1516047832974}, {"current_trial": 204, "trialdata": {"rt": -1, "trial_type": "single-stim", "word": "penguin", "stimulus": "<p id=\"stim\">PENGUIN</p>", "conditions": [24, 800, "v", 24000], "internal_node_id": "0.0-141.0", "trial": 6, "time_elapsed": 884120, "serialpos": 3, "key_press": -1, "wordID": 1043, "type": "PRES_VIS", "trial_index": 204}, "uniqueid": "MTK1620:3BWI6RSP7HGHP50Q24JSWZWW750E7L", "dateTime": 1516047834597}, {"current_trial": 205, "trialdata": {"rt": -1, "trial_type": "single-stim", "word": "dolphin", "stimulus": "<p id=\"stim\">DOLPHIN</p>", "conditions": [24, 800, "v", 24000], "internal_node_id": "0.0-142.0", "trial": 6, "time_elapsed": 885822, "serialpos": 4, "key_press": -1, "wordID": 482, "type": "PRES_VIS", "trial_index": 205}, "uniqueid": "MTK1620:3BWI6RSP7HGHP50Q24JSWZWW750E7L", "dateTime": 1516047836299}, {"current_trial": 206, "trialdata": {"rt": -1, "trial_type": "single-stim", "word": "college", "stimulus": "<p id=\"stim\">COLLEGE</p>", "conditions": [24, 800, "v", 24000], "internal_node_id": "0.0-143.0", "trial": 6, "time_elapsed": 887465, "serialpos": 5, "key_press": -1, "wordID": 345, "type": "PRES_VIS", "trial_index": 206}, "uniqueid": "MTK1620:3BWI6RSP7HGHP50Q24JSWZWW750E7L", "dateTime": 1516047837942}, {"current_trial": 207, "trialdata": {"rt": -1, "trial_type": "single-stim", "word": "convict", "stimulus": "<p id=\"stim\">CONVICT</p>", "conditions": [24, 800, "v", 24000], "internal_node_id": "0.0-144.0", "trial": 6, "time_elapsed": 889348, "serialpos": 6, "key_press": -1, "wordID": 370, "type": "PRES_VIS", "trial_index": 207}, "uniqueid": "MTK1620:3BWI6RSP7HGHP50Q24JSWZWW750E7L", "dateTime": 1516047839825}, {"current_trial": 208, "trialdata": {"rt": -1, "trial_type": "single-stim", "word": "briefcase", "stimulus": "<p id=\"stim\">BRIEFCASE</p>", "conditions": [24, 800, "v", 24000], "internal_node_id": "0.0-145.0", "trial": 6, "time_elapsed": 891289, "serialpos": 7, "key_press": -1, "wordID": 174, "type": "PRES_VIS", "trial_index": 208}, "uniqueid": "MTK1620:3BWI6RSP7HGHP50Q24JSWZWW750E7L", "dateTime": 1516047841766}, {"current_trial": 209, "trialdata": {"rt": -1, "trial_type": "single-stim", "word": "lizard", "stimulus": "<p id=\"stim\">LIZARD</p>", "conditions": [24, 800, "v", 24000], "internal_node_id": "0.0-146.0", "trial": 6, "time_elapsed": 893014, "serialpos": 8, "key_press": -1, "wordID": 833, "type": "PRES_VIS", "trial_index": 209}, "uniqueid": "MTK1620:3BWI6RSP7HGHP50Q24JSWZWW750E7L", "dateTime": 1516047843491}, {"current_trial": 210, "trialdata": {"rt": -1, "trial_type": "single-stim", "word": "fox", "stimulus": "<p id=\"stim\">FOX</p>", "conditions": [24, 800, "v", 24000], "internal_node_id": "0.0-147.0", "trial": 6, "time_elapsed": 894722, "serialpos": 9, "key_press": -1, "wordID": 597, "type": "PRES_VIS", "trial_index": 210}, "uniqueid": "MTK1620:3BWI6RSP7HGHP50Q24JSWZWW750E7L", "dateTime": 1516047845200}, {"current_trial": 211, "trialdata": {"rt": -1, "trial_type": "single-stim", "word": "slime", "stimulus": "<p id=\"stim\">SLIME</p>", "conditions": [24, 800, "v", 24000], "internal_node_id": "0.0-148.0", "trial": 6, "time_elapsed": 896687, "serialpos": 10, "key_press": -1, "wordID": 1326, "type": "PRES_VIS", "trial_index": 211}, "uniqueid": "MTK1620:3BWI6RSP7HGHP50Q24JSWZWW750E7L", "dateTime": 1516047847164}, {"current_trial": 212, "trialdata": {"rt": -1, "trial_type": "single-stim", "word": "barley", "stimulus": "<p id=\"stim\">BARLEY</p>", "conditions": [24, 800, "v", 24000], "internal_node_id": "0.0-149.0", "trial": 6, "time_elapsed": 898423, "serialpos": 11, "key_press": -1, "wordID": 87, "type": "PRES_VIS", "trial_index": 212}, "uniqueid": "MTK1620:3BWI6RSP7HGHP50Q24JSWZWW750E7L", "dateTime": 1516047848900}, {"current_trial": 213, "trialdata": {"rt": -1, "trial_type": "single-stim", "word": "wrist", "stimulus": "<p id=\"stim\">WRIST</p>", "conditions": [24, 800, "v", 24000], "internal_node_id": "0.0-150.0", "trial": 6, "time_elapsed": 900045, "serialpos": 12, "key_press": -1, "wordID": 1625, "type": "PRES_VIS", "trial_index": 213}, "uniqueid": "MTK1620:3BWI6RSP7HGHP50Q24JSWZWW750E7L", "dateTime": 1516047850522}, {"current_trial": 214, "trialdata": {"rt": -1, "trial_type": "single-stim", "word": "kleenex", "stimulus": "<p id=\"stim\">KLEENEX</p>", "conditions": [24, 800, "v", 24000], "internal_node_id": "0.0-151.0", "trial": 6, "time_elapsed": 901818, "serialpos": 13, "key_press": -1, "wordID": 781, "type": "PRES_VIS", "trial_index": 214}, "uniqueid": "MTK1620:3BWI6RSP7HGHP50Q24JSWZWW750E7L", "dateTime": 1516047852295}, {"current_trial": 215, "trialdata": {"rt": -1, "trial_type": "single-stim", "word": "marrow", "stimulus": "<p id=\"stim\">MARROW</p>", "conditions": [24, 800, "v", 24000], "internal_node_id": "0.0-152.0", "trial": 6, "time_elapsed": 903602, "serialpos": 14, "key_press": -1, "wordID": 871, "type": "PRES_VIS", "trial_index": 215}, "uniqueid": "MTK1620:3BWI6RSP7HGHP50Q24JSWZWW750E7L", "dateTime": 1516047854079}, {"current_trial": 216, "trialdata": {"rt": -1, "trial_type": "single-stim", "word": "compass", "stimulus": "<p id=\"stim\">COMPASS</p>", "conditions": [24, 800, "v", 24000], "internal_node_id": "0.0-153.0", "trial": 6, "time_elapsed": 905535, "serialpos": 15, "key_press": -1, "wordID": 357, "type": "PRES_VIS", "trial_index": 216}, "uniqueid": "MTK1620:3BWI6RSP7HGHP50Q24JSWZWW750E7L", "dateTime": 1516047856012}, {"current_trial": 217, "trialdata": {"rt": -1, "trial_type": "single-stim", "word": "tweezers", "stimulus": "<p id=\"stim\">TWEEZERS</p>", "conditions": [24, 800, "v", 24000], "internal_node_id": "0.0-154.0", "trial": 6, "time_elapsed": 907468, "serialpos": 16, "key_press": -1, "wordID": 1525, "type": "PRES_VIS", "trial_index": 217}, "uniqueid": "MTK1620:3BWI6RSP7HGHP50Q24JSWZWW750E7L", "dateTime": 1516047857945}, {"current_trial": 218, "trialdata": {"rt": -1, "trial_type": "single-stim", "word": "dragon", "stimulus": "<p id=\"stim\">DRAGON</p>", "conditions": [24, 800, "v", 24000], "internal_node_id": "0.0-155.0", "trial": 6, "time_elapsed": 909277, "serialpos": 17, "key_press": -1, "wordID": 491, "type": "PRES_VIS", "trial_index": 218}, "uniqueid": "MTK1620:3BWI6RSP7HGHP50Q24JSWZWW750E7L", "dateTime": 1516047859754}, {"current_trial": 219, "trialdata": {"rt": -1, "trial_type": "single-stim", "word": "dustpan", "stimulus": "<p id=\"stim\">DUSTPAN</p>", "conditions": [24, 800, "v", 24000], "internal_node_id": "0.0-156.0", "trial": 6, "time_elapsed": 910929, "serialpos": 18, "key_press": -1, "wordID": 508, "type": "PRES_VIS", "trial_index": 219}, "uniqueid": "MTK1620:3BWI6RSP7HGHP50Q24JSWZWW750E7L", "dateTime": 1516047861406}, {"current_trial": 220, "trialdata": {"rt": -1, "trial_type": "single-stim", "word": "kidney", "stimulus": "<p id=\"stim\">KIDNEY</p>", "conditions": [24, 800, "v", 24000], "internal_node_id": "0.0-157.0", "trial": 6, "time_elapsed": 912866, "serialpos": 19, "key_press": -1, "wordID": 775, "type": "PRES_VIS", "trial_index": 220}, "uniqueid": "MTK1620:3BWI6RSP7HGHP50Q24JSWZWW750E7L", "dateTime": 1516047863343}, {"current_trial": 221, "trialdata": {"rt": -1, "trial_type": "single-stim", "word": "sponge", "stimulus": "<p id=\"stim\">SPONGE</p>", "conditions": [24, 800, "v", 24000], "internal_node_id": "0.0-158.0", "trial": 6, "time_elapsed": 914490, "serialpos": 20, "key_press": -1, "wordID": 1354, "type": "PRES_VIS", "trial_index": 221}, "uniqueid": "MTK1620:3BWI6RSP7HGHP50Q24JSWZWW750E7L", "dateTime": 1516047864967}, {"current_trial": 222, "trialdata": {"rt": -1, "trial_type": "single-stim", "word": "liver", "stimulus": "<p id=\"stim\">LIVER</p>", "conditions": [24, 800, "v", 24000], "internal_node_id": "0.0-159.0", "trial": 6, "time_elapsed": 916485, "serialpos": 21, "key_press": -1, "wordID": 832, "type": "PRES_VIS", "trial_index": 222}, "uniqueid": "MTK1620:3BWI6RSP7HGHP50Q24JSWZWW750E7L", "dateTime": 1516047866962}, {"current_trial": 223, "trialdata": {"rt": -1, "trial_type": "single-stim", "word": "crater", "stimulus": "<p id=\"stim\">CRATER</p>", "conditions": [24, 800, "v", 24000], "internal_node_id": "0.0-160.0", "trial": 6, "time_elapsed": 918235, "serialpos": 22, "key_press": -1, "wordID": 399, "type": "PRES_VIS", "trial_index": 223}, "uniqueid": "MTK1620:3BWI6RSP7HGHP50Q24JSWZWW750E7L", "dateTime": 1516047868713}, {"current_trial": 224, "trialdata": {"rt": -1, "trial_type": "single-stim", "word": "lava", "stimulus": "<p id=\"stim\">LAVA</p>", "conditions": [24, 800, "v", 24000], "internal_node_id": "0.0-161.0", "trial": 6, "time_elapsed": 920140, "serialpos": 23, "key_press": -1, "wordID": 803, "type": "PRES_VIS", "trial_index": 224}, "uniqueid": "MTK1620:3BWI6RSP7HGHP50Q24JSWZWW750E7L", "dateTime": 1516047870617}, {"current_trial": 225, "trialdata": {"rt": -1, "trial_type": "single-stim", "stimulus": "", "internal_node_id": "0.0-162.0-0.0", "time_elapsed": 922484, "key_press": -1, "type": "PRE_RECALL_DELAY", "trial_index": 225}, "uniqueid": "MTK1620:3BWI6RSP7HGHP50Q24JSWZWW750E7L", "dateTime": 1516047872961}, {"current_trial": 226, "trialdata": {"rt": -1000, "trial_type": "single-audio", "stimulus": "/static/audio/400Hz.wav", "internal_node_id": "0.0-163.0", "time_elapsed": 922985, "key_press": -1, "type": "PRE_RECALL_ALERT", "trial_index": 226}, "uniqueid": "MTK1620:3BWI6RSP7HGHP50Q24JSWZWW750E7L", "dateTime": 1516047873463}, {"current_trial": 227, "trialdata": {"rt": [1409, 2365, 3201, 5177, 5941, 9327, 21055, 23882, 27512, 29330], "recwords": ["kidney", "sponge", "liver", "crator", "lava", "knapsack", "liver", "kidney", "compass", "tweezer"], "key_times": [440, 608, 680, 775, 1132, 1229, 1409, 1690, 1789, 1858, 1976, 2117, 2235, 2365, 2654, 2739, 2840, 2930, 3042, 3201, 4376, 4579, 4652, 4753, 4872, 4957, 5177, 5455, 5563, 5669, 5776, 5941, 6693, 6815, 7117, 7312, 7417, 7523, 7862, 8061, 8263, 8394, 9327, 20372, 20471, 20571, 20747, 20854, 21055, 22896, 23035, 23129, 23242, 23361, 23451, 23882, 26780, 26860, 26950, 27062, 27147, 27219, 27396, 27512, 28460, 28540, 28659, 28806, 29007, 29061, 29148, 29330], "trial_type": "free-recall", "conditions": [24, 800, "v", 24000], "internal_node_id": "0.0-164.0-0.0", "key_presses": [75, 73, 68, 78, 69, 89, 13, 83, 80, 79, 78, 71, 69, 13, 76, 73, 86, 69, 82, 13, 67, 82, 65, 84, 79, 82, 13, 76, 65, 86, 65, 13, 75, 65, 8, 78, 65, 80, 83, 65, 67, 75, 13, 76, 73, 86, 69, 82, 13, 75, 73, 68, 78, 69, 89, 13, 67, 79, 77, 80, 65, 83, 83, 13, 84, 87, 69, 69, 90, 69, 82, 13], "trial": 6, "time_elapsed": 982990, "type": "FREE_RECALL", "trial_index": 227}, "uniqueid": "MTK1620:3BWI6RSP7HGHP50Q24JSWZWW750E7L", "dateTime": 1516047933473}, {"current_trial": 228, "trialdata": {"rt": 307, "trial_type": "text", "internal_node_id": "0.0-165.0", "time_elapsed": 985304, "key_press": 32, "type": "INSTRUCTIONS", "trial_index": 228}, "uniqueid": "MTK1620:3BWI6RSP7HGHP50Q24JSWZWW750E7L", "dateTime": 1516047935781}, {"current_trial": 229, "trialdata": {"rt": [4155, 7093, 10714, 13544, 15833, 19050, 21307, 23302], "trial_type": "math-distractor", "key_times": [3942, 4011, 4155, 6819, 6917, 7093, 9872, 10037, 10714, 13287, 13414, 13544, 15448, 15738, 15833, 18547, 18671, 19050, 20998, 21129, 21307, 22926, 23135, 23302], "responses": ["18", "18", "22", "18", "15", "11", "11", "18"], "num2": [6, 4, 9, 6, 3, 2, 1, 9, 8], "num3": [7, 5, 4, 9, 8, 4, 6, 1, 3], "conditions": [24, 1600, "v", 24000], "internal_node_id": "0.0-166.0", "key_presses": [49, 56, 13, 49, 56, 13, 50, 50, 13, 49, 56, 13, 49, 53, 13, 49, 49, 13, 49, 49, 13, 49, 56, 13], "trial": 7, "time_elapsed": 1011308, "type": "DISTRACTOR", "trial_index": 229, "num1": [4, 9, 9, 3, 4, 5, 4, 8, 9]}, "uniqueid": "MTK1620:3BWI6RSP7HGHP50Q24JSWZWW750E7L", "dateTime": 1516047961785}, {"current_trial": 230, "trialdata": {"rt": -1, "trial_type": "single-stim", "stimulus": "<p id=\"stim\">10</p>", "internal_node_id": "0.0-167.0-0.0", "time_elapsed": 1014311, "key_press": -1, "trial_index": 230}, "uniqueid": "MTK1620:3BWI6RSP7HGHP50Q24JSWZWW750E7L", "dateTime": 1516047964788}, {"current_trial": 231, "trialdata": {"rt": -1, "trial_type": "single-stim", "stimulus": "<p id=\"stim\">9</p>", "internal_node_id": "0.0-167.0-1.0", "time_elapsed": 1015313, "key_press": -1, "trial_index": 231}, "uniqueid": "MTK1620:3BWI6RSP7HGHP50Q24JSWZWW750E7L", "dateTime": 1516047965790}, {"current_trial": 232, "trialdata": {"rt": -1, "trial_type": "single-stim", "stimulus": "<p id=\"stim\">8</p>", "internal_node_id": "0.0-167.0-2.0", "time_elapsed": 1016314, "key_press": -1, "trial_index": 232}, "uniqueid": "MTK1620:3BWI6RSP7HGHP50Q24JSWZWW750E7L", "dateTime": 1516047966793}, {"current_trial": 233, "trialdata": {"rt": -1, "trial_type": "single-stim", "stimulus": "<p id=\"stim\">7</p>", "internal_node_id": "0.0-167.0-3.0", "time_elapsed": 1017318, "key_press": -1, "trial_index": 233}, "uniqueid": "MTK1620:3BWI6RSP7HGHP50Q24JSWZWW750E7L", "dateTime": 1516047967795}, {"current_trial": 234, "trialdata": {"rt": -1, "trial_type": "single-stim", "stimulus": "<p id=\"stim\">6</p>", "internal_node_id": "0.0-167.0-4.0", "time_elapsed": 1018320, "key_press": -1, "trial_index": 234}, "uniqueid": "MTK1620:3BWI6RSP7HGHP50Q24JSWZWW750E7L", "dateTime": 1516047968797}, {"current_trial": 235, "trialdata": {"rt": -1, "trial_type": "single-stim", "stimulus": "<p id=\"stim\">5</p>", "internal_node_id": "0.0-167.0-5.0", "time_elapsed": 1019322, "key_press": -1, "trial_index": 235}, "uniqueid": "MTK1620:3BWI6RSP7HGHP50Q24JSWZWW750E7L", "dateTime": 1516047969799}, {"current_trial": 236, "trialdata": {"rt": -1, "trial_type": "single-stim", "stimulus": "<p id=\"stim\">4</p>", "internal_node_id": "0.0-167.0-6.0", "time_elapsed": 1020323, "key_press": -1, "trial_index": 236}, "uniqueid": "MTK1620:3BWI6RSP7HGHP50Q24JSWZWW750E7L", "dateTime": 1516047970800}, {"current_trial": 237, "trialdata": {"rt": -1, "trial_type": "single-stim", "stimulus": "<p id=\"stim\">3</p>", "internal_node_id": "0.0-167.0-7.0", "time_elapsed": 1021325, "key_press": -1, "trial_index": 237}, "uniqueid": "MTK1620:3BWI6RSP7HGHP50Q24JSWZWW750E7L", "dateTime": 1516047971802}, {"current_trial": 238, "trialdata": {"rt": -1, "trial_type": "single-stim", "stimulus": "<p id=\"stim\">2</p>", "internal_node_id": "0.0-167.0-8.0", "time_elapsed": 1022327, "key_press": -1, "trial_index": 238}, "uniqueid": "MTK1620:3BWI6RSP7HGHP50Q24JSWZWW750E7L", "dateTime": 1516047972804}, {"current_trial": 239, "trialdata": {"rt": -1, "trial_type": "single-stim", "stimulus": "<p id=\"stim\">1</p>", "internal_node_id": "0.0-167.0-9.0", "time_elapsed": 1023329, "key_press": -1, "trial_index": 239}, "uniqueid": "MTK1620:3BWI6RSP7HGHP50Q24JSWZWW750E7L", "dateTime": 1516047973806}, {"current_trial": 240, "trialdata": {"rt": -1, "trial_type": "single-stim", "stimulus": "<p id=\"stim\">+</p>", "internal_node_id": "0.0-168.0-0.0", "time_elapsed": 1024831, "key_press": -1, "type": "FIXATION", "trial_index": 240}, "uniqueid": "MTK1620:3BWI6RSP7HGHP50Q24JSWZWW750E7L", "dateTime": 1516047975308}, {"current_trial": 241, "trialdata": {"rt": -1, "trial_type": "single-stim", "word": "office", "stimulus": "<p id=\"stim\">OFFICE</p>", "conditions": [24, 1600, "v", 24000], "internal_node_id": "0.0-169.0", "trial": 7, "time_elapsed": 1026433, "serialpos": 0, "key_press": -1, "wordID": 971, "type": "PRES_VIS", "trial_index": 241}, "uniqueid": "MTK1620:3BWI6RSP7HGHP50Q24JSWZWW750E7L", "dateTime": 1516047976910}, {"current_trial": 242, "trialdata": {"rt": -1, "trial_type": "single-stim", "word": "cupboard", "stimulus": "<p id=\"stim\">CUPBOARD</p>", "conditions": [24, 1600, "v", 24000], "internal_node_id": "0.0-170.0", "trial": 7, "time_elapsed": 1029021, "serialpos": 1, "key_press": -1, "wordID": 424, "type": "PRES_VIS", "trial_index": 242}, "uniqueid": "MTK1620:3BWI6RSP7HGHP50Q24JSWZWW750E7L", "dateTime": 1516047979498}, {"current_trial": 243, "trialdata": {"rt": -1, "trial_type": "single-stim", "word": "valley", "stimulus": "<p id=\"stim\">VALLEY</p>", "conditions": [24, 1600, "v", 24000], "internal_node_id": "0.0-171.0", "trial": 7, "time_elapsed": 1031572, "serialpos": 2, "key_press": -1, "wordID": 1544, "type": "PRES_VIS", "trial_index": 243}, "uniqueid": "MTK1620:3BWI6RSP7HGHP50Q24JSWZWW750E7L", "dateTime": 1516047982049}, {"current_trial": 244, "trialdata": {"rt": -1, "trial_type": "single-stim", "word": "paddle", "stimulus": "<p id=\"stim\">PADDLE</p>", "conditions": [24, 1600, "v", 24000], "internal_node_id": "0.0-172.0", "trial": 7, "time_elapsed": 1034229, "serialpos": 3, "key_press": -1, "wordID": 999, "type": "PRES_VIS", "trial_index": 244}, "uniqueid": "MTK1620:3BWI6RSP7HGHP50Q24JSWZWW750E7L", "dateTime": 1516047984707}, {"current_trial": 245, "trialdata": {"rt": -1, "trial_type": "single-stim", "word": "flag", "stimulus": "<p id=\"stim\">FLAG</p>", "conditions": [24, 1600, "v", 24000], "internal_node_id": "0.0-173.0", "trial": 7, "time_elapsed": 1036680, "serialpos": 4, "key_press": -1, "wordID": 572, "type": "PRES_VIS", "trial_index": 245}, "uniqueid": "MTK1620:3BWI6RSP7HGHP50Q24JSWZWW750E7L", "dateTime": 1516047987158}, {"current_trial": 246, "trialdata": {"rt": -1, "trial_type": "single-stim", "word": "tablet", "stimulus": "<p id=\"stim\">TABLET</p>", "conditions": [24, 1600, "v", 24000], "internal_node_id": "0.0-174.0", "trial": 7, "time_elapsed": 1039469, "serialpos": 5, "key_press": -1, "wordID": 1426, "type": "PRES_VIS", "trial_index": 246}, "uniqueid": "MTK1620:3BWI6RSP7HGHP50Q24JSWZWW750E7L", "dateTime": 1516047989946}, {"current_trial": 247, "trialdata": {"rt": -1, "trial_type": "single-stim", "word": "omelet", "stimulus": "<p id=\"stim\">OMELET</p>", "conditions": [24, 1600, "v", 24000], "internal_node_id": "0.0-175.0", "trial": 7, "time_elapsed": 1041897, "serialpos": 6, "key_press": -1, "wordID": 975, "type": "PRES_VIS", "trial_index": 247}, "uniqueid": "MTK1620:3BWI6RSP7HGHP50Q24JSWZWW750E7L", "dateTime": 1516047992374}, {"current_trial": 248, "trialdata": {"rt": -1, "trial_type": "single-stim", "word": "canyon", "stimulus": "<p id=\"stim\">CANYON</p>", "conditions": [24, 1600, "v", 24000], "internal_node_id": "0.0-176.0", "trial": 7, "time_elapsed": 1044698, "serialpos": 7, "key_press": -1, "wordID": 234, "type": "PRES_VIS", "trial_index": 248}, "uniqueid": "MTK1620:3BWI6RSP7HGHP50Q24JSWZWW750E7L", "dateTime": 1516047995175}, {"current_trial": 249, "trialdata": {"rt": -1, "trial_type": "single-stim", "word": "toaster", "stimulus": "<p id=\"stim\">TOASTER</p>", "conditions": [24, 1600, "v", 24000], "internal_node_id": "0.0-177.0", "trial": 7, "time_elapsed": 1047233, "serialpos": 8, "key_press": -1, "wordID": 1471, "type": "PRES_VIS", "trial_index": 249}, "uniqueid": "MTK1620:3BWI6RSP7HGHP50Q24JSWZWW750E7L", "dateTime": 1516047997710}, {"current_trial": 250, "trialdata": {"rt": -1, "trial_type": "single-stim", "word": "stove", "stimulus": "<p id=\"stim\">STOVE</p>", "conditions": [24, 1600, "v", 24000], "internal_node_id": "0.0-178.0", "trial": 7, "time_elapsed": 1050022, "serialpos": 9, "key_press": -1, "wordID": 1387, "type": "PRES_VIS", "trial_index": 250}, "uniqueid": "MTK1620:3BWI6RSP7HGHP50Q24JSWZWW750E7L", "dateTime": 1516048000499}, {"current_trial": 251, "trialdata": {"rt": -1, "trial_type": "single-stim", "word": "tuba", "stimulus": "<p id=\"stim\">TUBA</p>", "conditions": [24, 1600, "v", 24000], "internal_node_id": "0.0-179.0", "trial": 7, "time_elapsed": 1052585, "serialpos": 10, "key_press": -1, "wordID": 1514, "type": "PRES_VIS", "trial_index": 251}, "uniqueid": "MTK1620:3BWI6RSP7HGHP50Q24JSWZWW750E7L", "dateTime": 1516048003062}, {"current_trial": 252, "trialdata": {"rt": -1, "trial_type": "single-stim", "word": "blackboard", "stimulus": "<p id=\"stim\">BLACKBOARD</p>", "conditions": [24, 1600, "v", 24000], "internal_node_id": "0.0-180.0", "trial": 7, "time_elapsed": 1055207, "serialpos": 11, "key_press": -1, "wordID": 132, "type": "PRES_VIS", "trial_index": 252}, "uniqueid": "MTK1620:3BWI6RSP7HGHP50Q24JSWZWW750E7L", "dateTime": 1516048005684}, {"current_trial": 253, "trialdata": {"rt": -1, "trial_type": "single-stim", "word": "blueprint", "stimulus": "<p id=\"stim\">BLUEPRINT</p>", "conditions": [24, 1600, "v", 24000], "internal_node_id": "0.0-181.0", "trial": 7, "time_elapsed": 1057873, "serialpos": 12, "key_press": -1, "wordID": 141, "type": "PRES_VIS", "trial_index": 253}, "uniqueid": "MTK1620:3BWI6RSP7HGHP50Q24JSWZWW750E7L", "dateTime": 1516048008350}, {"current_trial": 254, "trialdata": {"rt": -1, "trial_type": "single-stim", "word": "wife", "stimulus": "<p id=\"stim\">WIFE</p>", "conditions": [24, 1600, "v", 24000], "internal_node_id": "0.0-182.0", "trial": 7, "time_elapsed": 1060401, "serialpos": 13, "key_press": -1, "wordID": 1608, "type": "PRES_VIS", "trial_index": 254}, "uniqueid": "MTK1620:3BWI6RSP7HGHP50Q24JSWZWW750E7L", "dateTime": 1516048010879}, {"current_trial": 255, "trialdata": {"rt": -1, "trial_type": "single-stim", "word": "guitar", "stimulus": "<p id=\"stim\">GUITAR</p>", "conditions": [24, 1600, "v", 24000], "internal_node_id": "0.0-183.0", "trial": 7, "time_elapsed": 1062841, "serialpos": 14, "key_press": -1, "wordID": 669, "type": "PRES_VIS", "trial_index": 255}, "uniqueid": "MTK1620:3BWI6RSP7HGHP50Q24JSWZWW750E7L", "dateTime": 1516048013318}, {"current_trial": 256, "trialdata": {"rt": -1, "trial_type": "single-stim", "word": "peach", "stimulus": "<p id=\"stim\">PEACH</p>", "conditions": [24, 1600, "v", 24000], "internal_node_id": "0.0-184.0", "trial": 7, "time_elapsed": 1065329, "serialpos": 15, "key_press": -1, "wordID": 1030, "type": "PRES_VIS", "trial_index": 256}, "uniqueid": "MTK1620:3BWI6RSP7HGHP50Q24JSWZWW750E7L", "dateTime": 1516048015808}, {"current_trial": 257, "trialdata": {"rt": -1, "trial_type": "single-stim", "word": "pecan", "stimulus": 