{"assignmentId": "3V26SBZTBELYKAXSHMPO8TQD5EKZZM", "workerId": "MTK1681", "questiondata": {"origin": "United States", "strat-rehearsal": "66", "marital": "Married/Domestic Partnership", "education": "High school diploma", "ethnicity": "Not Hispanic", "color_depth": 24, "distracted": "No", "wrote-notes": "No", "strat-other": "", "screen_width": 1280, "avail_screen_width": 1280, "avail_screen_height": 726, "strat-image": "46", "language": "English", "gender": "Female", "age": "37", "gender_other": "", "race": ["White"], "strat-categorize": "42", "pixel_depth": 24, "strat-spatial": "15", "strat-story": "0", "race_other": "", "screen_height": 800}, "bonus": 0, "hitId": "3WA2XVDZEMOWYLORTS9Y110GULPE6K", "counterbalance": 2554, "useragent": "Mozilla/5.0 (Macintosh; Intel Mac OS X 10_13_2) AppleWebKit/537.36 (KHTML, like Gecko) Chrome/63.0.3239.132 Safari/537.36", "eventdata": [{"eventtype": "initialized", "interval": 0, "value": null, "timestamp": 1516127526512}, {"eventtype": "window_resize", "interval": 0, "value": [1280, 703], "timestamp": 1516127526512}, {"eventtype": "focus", "interval": 12223, "value": "off", "timestamp": 1516127538735}, {"eventtype": "window_resize", "interval": 195, "value": [725, 703], "timestamp": 1516127538930}, {"eventtype": "focus", "interval": 5395, "value": "on", "timestamp": 1516127544325}, {"eventtype": "focus", "interval": 28355, "value": "off", "timestamp": 1516127572680}, {"eventtype": "focus", "interval": 92, "value": "on", "timestamp": 1516127572772}, {"eventtype": "window_resize", "interval": 209, "value": [1280, 703], "timestamp": 1516127572981}, {"eventtype": "focus", "interval": 1629719, "value": "off", "timestamp": 1516129202700}, {"eventtype": "focus", "interval": 7147, "value": "on", "timestamp": 1516129209847}, {"eventtype": "focus", "interval": 4487, "value": "off", "timestamp": 1516129214334}, {"eventtype": "focus", "interval": 2328, "value": "on", "timestamp": 1516129216662}], "data": [{"current_trial": 0, "trialdata": {"rt": 5568, "trial_type": "text", "internal_node_id": "0.0-0.0", "time_elapsed": 5569, "key_press": 13, "type": "INSTRUCTIONS", "trial_index": 0}, "uniqueid": "MTK1681:3V26SBZTBELYKAXSHMPO8TQD5EKZZM", "dateTime": 1516127545509}, {"current_trial": 1, "trialdata": {"rt": 2678, "trial_type": "text", "internal_node_id": "0.0-1.0", "time_elapsed": 8249, "key_press": 40, "type": "INSTRUCTIONS", "trial_index": 1}, "uniqueid": "MTK1681:3V26SBZTBELYKAXSHMPO8TQD5EKZZM", "dateTime": 1516127548188}, {"current_trial": 2, "trialdata": {"rt": [28101], "trial_type": "audio-test", "responses": ["ocean"], "internal_node_id": "0.0-2.0", "time_elapsed": 36362, "type": "AUDIO_TEST", "trial_index": 2}, "uniqueid": "MTK1681:3V26SBZTBELYKAXSHMPO8TQD5EKZZM", "dateTime": 1516127576301}, {"current_trial": 3, "trialdata": {"rt": [8138], "trial_type": "audio-test", "responses": ["crystal"], "internal_node_id": "0.0-3.0", "time_elapsed": 44505, "type": "AUDIO_TEST", "trial_index": 3}, "uniqueid": "MTK1681:3V26SBZTBELYKAXSHMPO8TQD5EKZZM", "dateTime": 1516127584444}, {"current_trial": 4, "trialdata": {"rt": [7859], "trial_type": "audio-test", "responses": ["spice"], "internal_node_id": "0.0-4.0", "time_elapsed": 52369, "type": "AUDIO_TEST", "trial_index": 4}, "uniqueid": "MTK1681:3V26SBZTBELYKAXSHMPO8TQD5EKZZM", "dateTime": 1516127592308}, {"current_trial": 5, "trialdata": {"rt": 44481, "trial_type": "survey-text", "responses": "{\"Q0\":\"11:00 PM\",\"Q1\":\"9:00 AM\",\"Q2\":\"5\"}", "internal_node_id": "0.0-5.0", "time_elapsed": 97604, "type": "SLEEP_SURVEY", "trial_index": 5}, "uniqueid": "MTK1681:3V26SBZTBELYKAXSHMPO8TQD5EKZZM", "dateTime": 1516127637543}, {"current_trial": 6, "trialdata": {"rt": 7983, "trial_type": "text", "internal_node_id": "0.0-6.0", "time_elapsed": 106590, "key_press": 40, "type": "INSTRUCTIONS", "trial_index": 6}, "uniqueid": "MTK1681:3V26SBZTBELYKAXSHMPO8TQD5EKZZM", "dateTime": 1516127646529}, {"current_trial": 7, "trialdata": {"rt": 16675, "trial_type": "text", "internal_node_id": "0.0-7.0", "time_elapsed": 123767, "key_press": 40, "type": "INSTRUCTIONS", "trial_index": 7}, "uniqueid": "MTK1681:3V26SBZTBELYKAXSHMPO8TQD5EKZZM", "dateTime": 1516127663706}, {"current_trial": 8, "trialdata": {"rt": 15295, "trial_type": "text", "internal_node_id": "0.0-8.0", "time_elapsed": 139567, "key_press": 40, "type": "INSTRUCTIONS", "trial_index": 8}, "uniqueid": "MTK1681:3V26SBZTBELYKAXSHMPO8TQD5EKZZM", "dateTime": 1516127679507}, {"current_trial": 9, "trialdata": {"rt": [5561, 13434, 16001], "trial_type": "math-distractor", "key_times": [4458, 4641, 5561, 8290, 8665, 13434, 15041, 15249, 16001, 17721], "responses": ["20", "17", "19"], "num2": [8, 5, 3, 2], "num3": [5, 5, 9, 3], "conditions": [18, 1200, "a", 18000], "internal_node_id": "0.0-9.0", "key_presses": [50, 48, 13, 49, 55, 13, 49, 57, 13, 49], "trial": 0, "time_elapsed": 158573, "type": "DISTRACTOR", "trial_index": 9, "num1": [7, 7, 7, 9]}, "uniqueid": "MTK1681:3V26SBZTBELYKAXSHMPO8TQD5EKZZM", "dateTime": 1516127698512}, {"current_trial": 10, "trialdata": {"rt": -1, "trial_type": "single-stim", "stimulus": "<p id=\"stim\">10</p>", "internal_node_id": "0.0-10.0-0.0", "time_elapsed": 161579, "key_press": -1, "trial_index": 10}, "uniqueid": "MTK1681:3V26SBZTBELYKAXSHMPO8TQD5EKZZM", "dateTime": 1516127701518}, {"current_trial": 11, "trialdata": {"rt": -1, "trial_type": "single-stim", "stimulus": "<p id=\"stim\">9</p>", "internal_node_id": "0.0-10.0-1.0", "time_elapsed": 162583, "key_press": -1, "trial_index": 11}, "uniqueid": "MTK1681:3V26SBZTBELYKAXSHMPO8TQD5EKZZM", "dateTime": 1516127702522}, {"current_trial": 12, "trialdata": {"rt": -1, "trial_type": "single-stim", "stimulus": "<p id=\"stim\">8</p>", "internal_node_id": "0.0-10.0-2.0", "time_elapsed": 163587, "key_press": -1, "trial_index": 12}, "uniqueid": "MTK1681:3V26SBZTBELYKAXSHMPO8TQD5EKZZM", "dateTime": 1516127703526}, {"current_trial": 13, "trialdata": {"rt": -1, "trial_type": "single-stim", "stimulus": "<p id=\"stim\">7</p>", "internal_node_id": "0.0-10.0-3.0", "time_elapsed": 164591, "key_press": -1, "trial_index": 13}, "uniqueid": "MTK1681:3V26SBZTBELYKAXSHMPO8TQD5EKZZM", "dateTime": 1516127704530}, {"current_trial": 14, "trialdata": {"rt": -1, "trial_type": "single-stim", "stimulus": "<p id=\"stim\">6</p>", "internal_node_id": "0.0-10.0-4.0", "time_elapsed": 165595, "key_press": -1, "trial_index": 14}, "uniqueid": "MTK1681:3V26SBZTBELYKAXSHMPO8TQD5EKZZM", "dateTime": 1516127705534}, {"current_trial": 15, "trialdata": {"rt": -1, "trial_type": "single-stim", "stimulus": "<p id=\"stim\">5</p>", "internal_node_id": "0.0-10.0-5.0", "time_elapsed": 166599, "key_press": -1, "trial_index": 15}, "uniqueid": "MTK1681:3V26SBZTBELYKAXSHMPO8TQD5EKZZM", "dateTime": 1516127706538}, {"current_trial": 16, "trialdata": {"rt": -1, "trial_type": "single-stim", "stimulus": "<p id=\"stim\">4</p>", "internal_node_id": "0.0-10.0-6.0", "time_elapsed": 167603, "key_press": -1, "trial_index": 16}, "uniqueid": "MTK1681:3V26SBZTBELYKAXSHMPO8TQD5EKZZM", "dateTime": 1516127707542}, {"current_trial": 17, "trialdata": {"rt": -1, "trial_type": "single-stim", "stimulus": "<p id=\"stim\">3</p>", "internal_node_id": "0.0-10.0-7.0", "time_elapsed": 168607, "key_press": -1, "trial_index": 17}, "uniqueid": "MTK1681:3V26SBZTBELYKAXSHMPO8TQD5EKZZM", "dateTime": 1516127708546}, {"current_trial": 18, "trialdata": {"rt": -1, "trial_type": "single-stim", "stimulus": "<p id=\"stim\">2</p>", "internal_node_id": "0.0-10.0-8.0", "time_elapsed": 169612, "key_press": -1, "trial_index": 18}, "uniqueid": "MTK1681:3V26SBZTBELYKAXSHMPO8TQD5EKZZM", "dateTime": 1516127709551}, {"current_trial": 19, "trialdata": {"rt": -1, "trial_type": "single-stim", "stimulus": "<p id=\"stim\">1</p>", "internal_node_id": "0.0-10.0-9.0", "time_elapsed": 170616, "key_press": -1, "trial_index": 19}, "uniqueid": "MTK1681:3V26SBZTBELYKAXSHMPO8TQD5EKZZM", "dateTime": 1516127710555}, {"current_trial": 20, "trialdata": {"rt": -1, "trial_type": "single-stim", "stimulus": "<p id=\"stim\">+</p>", "internal_node_id": "0.0-11.0-0.0", "time_elapsed": 172118, "key_press": -1, "type": "FIXATION", "trial_index": 20}, "uniqueid": "MTK1681:3V26SBZTBELYKAXSHMPO8TQD5EKZZM", "dateTime": 1516127712058}, {"current_trial": 21, "trialdata": {"rt": -1000, "trial_type": "single-audio", "word": "zebra", "stimulus": "/static/audio/wordpool/ZEBRA.wav", "conditions": [18, 1200, "a", 18000], "internal_node_id": "0.0-12.0", "trial": 0, "time_elapsed": 174192, "serialpos": 0, "key_press": -1, "wordID": 1634, "type": "PRES_AUD", "trial_index": 21}, "uniqueid": "MTK1681:3V26SBZTBELYKAXSHMPO8TQD5EKZZM", "dateTime": 1516127714131}, {"current_trial": 22, "trialdata": {"rt": -1000, "trial_type": "single-audio", "word": "bacon", "stimulus": "/static/audio/wordpool/BACON.wav", "conditions": [18, 1200, "a", 18000], "internal_node_id": "0.0-13.0", "trial": 0, "time_elapsed": 176465, "serialpos": 1, "key_press": -1, "wordID": 66, "type": "PRES_AUD", "trial_index": 22}, "uniqueid": "MTK1681:3V26SBZTBELYKAXSHMPO8TQD5EKZZM", "dateTime": 1516127716404}, {"current_trial": 23, "trialdata": {"rt": -1000, "trial_type": "single-audio", "word": "drink", "stimulus": "/static/audio/wordpool/DRINK.wav", "conditions": [18, 1200, "a", 18000], "internal_node_id": "0.0-14.0", "trial": 0, "time_elapsed": 178737, "serialpos": 2, "key_press": -1, "wordID": 497, "type": "PRES_AUD", "trial_index": 23}, "uniqueid": "MTK1681:3V26SBZTBELYKAXSHMPO8TQD5EKZZM", "dateTime": 1516127718676}, {"current_trial": 24, "trialdata": {"rt": -1000, "trial_type": "single-audio", "word": "binder", "stimulus": "/static/audio/wordpool/BINDER.wav", "conditions": [18, 1200, "a", 18000], "internal_node_id": "0.0-15.0", "trial": 0, "time_elapsed": 181015, "serialpos": 3, "key_press": -1, "wordID": 126, "type": "PRES_AUD", "trial_index": 24}, "uniqueid": "MTK1681:3V26SBZTBELYKAXSHMPO8TQD5EKZZM", "dateTime": 1516127720954}, {"current_trial": 25, "trialdata": {"rt": -1000, "trial_type": "single-audio", "word": "mailbox", "stimulus": "/static/audio/wordpool/MAILBOX.wav", "conditions": [18, 1200, "a", 18000], "internal_node_id": "0.0-16.0", "trial": 0, "time_elapsed": 183093, "serialpos": 4, "key_press": -1, "wordID": 856, "type": "PRES_AUD", "trial_index": 25}, "uniqueid": "MTK1681:3V26SBZTBELYKAXSHMPO8TQD5EKZZM", "dateTime": 1516127723032}, {"current_trial": 26, "trialdata": {"rt": -1000, "trial_type": "single-audio", "word": "playground", "stimulus": "/static/audio/wordpool/PLAYGROUND.wav", "conditions": [18, 1200, "a", 18000], "internal_node_id": "0.0-17.0", "trial": 0, "time_elapsed": 185287, "serialpos": 5, "key_press": -1, "wordID": 1086, "type": "PRES_AUD", "trial_index": 26}, "uniqueid": "MTK1681:3V26SBZTBELYKAXSHMPO8TQD5EKZZM", "dateTime": 1516127725226}, {"current_trial": 27, "trialdata": {"rt": -1000, "trial_type": "single-audio", "word": "camel", "stimulus": "/static/audio/wordpool/CAMEL.wav", "conditions": [18, 1200, "a", 18000], "internal_node_id": "0.0-18.0", "trial": 0, "time_elapsed": 187400, "serialpos": 6, "key_press": -1, "wordID": 222, "type": "PRES_AUD", "trial_index": 27}, "uniqueid": "MTK1681:3V26SBZTBELYKAXSHMPO8TQD5EKZZM", "dateTime": 1516127727339}, {"current_trial": 28, "trialdata": {"rt": -1000, "trial_type": "single-audio", "word": "novel", "stimulus": "/static/audio/wordpool/NOVEL.wav", "conditions": [18, 1200, "a", 18000], "internal_node_id": "0.0-19.0", "trial": 0, "time_elapsed": 189773, "serialpos": 7, "key_press": -1, "wordID": 959, "type": "PRES_AUD", "trial_index": 28}, "uniqueid": "MTK1681:3V26SBZTBELYKAXSHMPO8TQD5EKZZM", "dateTime": 1516127729713}, {"current_trial": 29, "trialdata": {"rt": -1000, "trial_type": "single-audio", "word": "dustpan", "stimulus": "/static/audio/wordpool/DUSTPAN.wav", "conditions": [18, 1200, "a", 18000], "internal_node_id": "0.0-20.0", "trial": 0, "time_elapsed": 192100, "serialpos": 8, "key_press": -1, "wordID": 508, "type": "PRES_AUD", "trial_index": 29}, "uniqueid": "MTK1681:3V26SBZTBELYKAXSHMPO8TQD5EKZZM", "dateTime": 1516127732039}, {"current_trial": 30, "trialdata": {"rt": -1000, "trial_type": "single-audio", "word": "cattle", "stimulus": "/static/audio/wordpool/CATTLE.wav", "conditions": [18, 1200, "a", 18000], "internal_node_id": "0.0-21.0", "trial": 0, "time_elapsed": 194184, "serialpos": 9, "key_press": -1, "wordID": 260, "type": "PRES_AUD", "trial_index": 30}, "uniqueid": "MTK1681:3V26SBZTBELYKAXSHMPO8TQD5EKZZM", "dateTime": 1516127734123}, {"current_trial": 31, "trialdata": {"rt": -1000, "trial_type": "single-audio", "word": "chapel", "stimulus": "/static/audio/wordpool/CHAPEL.wav", "conditions": [18, 1200, "a", 18000], "internal_node_id": "0.0-22.0", "trial": 0, "time_elapsed": 196396, "serialpos": 10, "key_press": -1, "wordID": 279, "type": "PRES_AUD", "trial_index": 31}, "uniqueid": "MTK1681:3V26SBZTBELYKAXSHMPO8TQD5EKZZM", "dateTime": 1516127736335}, {"current_trial": 32, "trialdata": {"rt": -1000, "trial_type": "single-audio", "word": "salad", "stimulus": "/static/audio/wordpool/SALAD.wav", "conditions": [18, 1200, "a", 18000], "internal_node_id": "0.0-23.0", "trial": 0, "time_elapsed": 198590, "serialpos": 11, "key_press": -1, "wordID": 1223, "type": "PRES_AUD", "trial_index": 32}, "uniqueid": "MTK1681:3V26SBZTBELYKAXSHMPO8TQD5EKZZM", "dateTime": 1516127738529}, {"current_trial": 33, "trialdata": {"rt": -1000, "trial_type": "single-audio", "word": "outlaw", "stimulus": "/static/audio/wordpool/OUTLAW.wav", "conditions": [18, 1200, "a", 18000], "internal_node_id": "0.0-24.0", "trial": 0, "time_elapsed": 200708, "serialpos": 12, "key_press": -1, "wordID": 988, "type": "PRES_AUD", "trial_index": 33}, "uniqueid": "MTK1681:3V26SBZTBELYKAXSHMPO8TQD5EKZZM", "dateTime": 1516127740647}, {"current_trial": 34, "trialdata": {"rt": -1000, "trial_type": "single-audio", "word": "gift", "stimulus": "/static/audio/wordpool/GIFT.wav", "conditions": [18, 1200, "a", 18000], "internal_node_id": "0.0-25.0", "trial": 0, "time_elapsed": 202757, "serialpos": 13, "key_press": -1, "wordID": 634, "type": "PRES_AUD", "trial_index": 34}, "uniqueid": "MTK1681:3V26SBZTBELYKAXSHMPO8TQD5EKZZM", "dateTime": 1516127742696}, {"current_trial": 35, "trialdata": {"rt": -1000, "trial_type": "single-audio", "word": "knife", "stimulus": "/static/audio/wordpool/KNIFE.wav", "conditions": [18, 1200, "a", 18000], "internal_node_id": "0.0-26.0", "trial": 0, "time_elapsed": 205014, "serialpos": 14, "key_press": -1, "wordID": 784, "type": "PRES_AUD", "trial_index": 35}, "uniqueid": "MTK1681:3V26SBZTBELYKAXSHMPO8TQD5EKZZM", "dateTime": 1516127744953}, {"current_trial": 36, "trialdata": {"rt": -1000, "trial_type": "single-audio", "word": "clock", "stimulus": "/static/audio/wordpool/CLOCK.wav", "conditions": [18, 1200, "a", 18000], "internal_node_id": "0.0-27.0", "trial": 0, "time_elapsed": 207051, "serialpos": 15, "key_press": -1, "wordID": 324, "type": "PRES_AUD", "trial_index": 36}, "uniqueid": "MTK1681:3V26SBZTBELYKAXSHMPO8TQD5EKZZM", "dateTime": 1516127746991}, {"current_trial": 37, "trialdata": {"rt": -1000, "trial_type": "single-audio", "word": "rebel", "stimulus": "/static/audio/wordpool/REBEL.wav", "conditions": [18, 1200, "a", 18000], "internal_node_id": "0.0-28.0", "trial": 0, "time_elapsed": 209280, "serialpos": 16, "key_press": -1, "wordID": 1171, "type": "PRES_AUD", "trial_index": 37}, "uniqueid": "MTK1681:3V26SBZTBELYKAXSHMPO8TQD5EKZZM", "dateTime": 1516127749219}, {"current_trial": 38, "trialdata": {"rt": -1000, "trial_type": "single-audio", "word": "package", "stimulus": "/static/audio/wordpool/PACKAGE.wav", "conditions": [18, 1200, "a", 18000], "internal_node_id": "0.0-29.0", "trial": 0, "time_elapsed": 211566, "serialpos": 17, "key_press": -1, "wordID": 996, "type": "PRES_AUD", "trial_index": 38}, "uniqueid": "MTK1681:3V26SBZTBELYKAXSHMPO8TQD5EKZZM", "dateTime": 1516127751505}, {"current_trial": 39, "trialdata": {"rt": -1, "trial_type": "single-stim", "stimulus": "", "internal_node_id": "0.0-30.0-0.0", "time_elapsed": 212931, "key_press": -1, "type": "PRE_RECALL_DELAY", "trial_index": 39}, "uniqueid": "MTK1681:3V26SBZTBELYKAXSHMPO8TQD5EKZZM", "dateTime": 1516127752870}, {"current_trial": 40, "trialdata": {"rt": -1000, "trial_type": "single-audio", "stimulus": "/static/audio/400Hz.wav", "internal_node_id": "0.0-31.0", "time_elapsed": 213433, "key_press": -1, "type": "PRE_RECALL_ALERT", "trial_index": 40}, "uniqueid": "MTK1681:3V26SBZTBELYKAXSHMPO8TQD5EKZZM", "dateTime": 1516127753372}, {"current_trial": 41, "trialdata": {"rt": [4377, 6617, 8705, 11216, 15192, 17313, 28280, 32328, 36024, 46528], "recwords": ["rebel", "package", "chapel", "outlaw", "zebra", "bacon", "dustpan", "knife", "clock", "chapel"], "key_times": [2586, 2658, 3009, 3185, 4121, 4377, 5209, 5323, 5521, 5825, 5945, 6249, 6401, 6617, 7353, 7665, 7785, 7993, 8201, 8393, 8705, 9530, 9737, 9929, 10273, 10425, 10745, 11216, 13314, 13705, 14217, 14593, 14809, 15192, 16090, 16249, 16441, 16689, 16873, 17313, 26610, 26840, 26968, 27288, 27696, 27832, 27968, 28280, 30896, 31160, 31328, 31616, 31833, 32328, 34881, 35136, 35336, 35464, 35664, 36024, 44633, 44904, 45032, 45240, 45376, 46312, 46528], "trial_type": "free-recall", "conditions": [18, 1200, "a", 18000], "internal_node_id": "0.0-32.0-0.0", "key_presses": [82, 69, 66, 69, 76, 13, 80, 65, 67, 75, 65, 71, 69, 13, 67, 72, 65, 80, 69, 76, 13, 79, 85, 84, 76, 65, 87, 13, 90, 69, 66, 82, 65, 13, 66, 65, 67, 79, 78, 13, 68, 85, 83, 84, 80, 65, 78, 13, 75, 78, 73, 70, 69, 13, 67, 76, 79, 67, 75, 13, 67, 72, 65, 80, 69, 76, 13], "trial": 0, "time_elapsed": 273434, "type": "FREE_RECALL", "trial_index": 41}, "uniqueid": "MTK1681:3V26SBZTBELYKAXSHMPO8TQD5EKZZM", "dateTime": 1516127813376}, {"current_trial": 42, "trialdata": {"rt": 1873, "trial_type": "text", "internal_node_id": "0.0-33.0", "time_elapsed": 277314, "key_press": 13, "type": "INSTRUCTIONS", "trial_index": 42}, "uniqueid": "MTK1681:3V26SBZTBELYKAXSHMPO8TQD5EKZZM", "dateTime": 1516127817253}, {"current_trial": 43, "trialdata": {"rt": [4090, 6642, 8962, 11250, 13058, 15050, 17874], "trial_type": "math-distractor", "key_times": [3170, 3314, 4090, 6179, 6642, 8522, 8658, 8962, 10218, 10754, 11250, 12466, 12650, 13058, 14250, 14794, 15050, 17202, 17634, 17874], "responses": ["12", "8", "19", "17", "11", "15", "15"], "num2": [4, 3, 7, 3, 6, 7, 7, 5], "num3": [3, 2, 6, 7, 1, 1, 2, 6], "conditions": [18, 1200, "a", 18000], "internal_node_id": "0.0-34.0", "key_presses": [49, 50, 13, 56, 13, 49, 57, 13, 49, 55, 13, 49, 49, 13, 49, 53, 13, 49, 53, 13], "trial": 1, "time_elapsed": 297325, "type": "DISTRACTOR", "trial_index": 43, "num1": [5, 3, 6, 6, 4, 7, 6, 8]}, "uniqueid": "MTK1681:3V26SBZTBELYKAXSHMPO8TQD5EKZZM", "dateTime": 1516127837264}, {"current_trial": 44, "trialdata": {"rt": -1, "trial_type": "single-stim", "stimulus": "<p id=\"stim\">10</p>", "internal_node_id": "0.0-35.0-0.0", "time_elapsed": 300334, "key_press": -1, "trial_index": 44}, "uniqueid": "MTK1681:3V26SBZTBELYKAXSHMPO8TQD5EKZZM", "dateTime": 1516127840273}, {"current_trial": 45, "trialdata": {"rt": -1, "trial_type": "single-stim", "stimulus": "<p id=\"stim\">9</p>", "internal_node_id": "0.0-35.0-1.0", "time_elapsed": 301338, "key_press": -1, "trial_index": 45}, "uniqueid": "MTK1681:3V26SBZTBELYKAXSHMPO8TQD5EKZZM", "dateTime": 1516127841277}, {"current_trial": 46, "trialdata": {"rt": -1, "trial_type": "single-stim", "stimulus": "<p id=\"stim\">8</p>", "internal_node_id": "0.0-35.0-2.0", "time_elapsed": 302342, "key_press": -1, "trial_index": 46}, "uniqueid": "MTK1681:3V26SBZTBELYKAXSHMPO8TQD5EKZZM", "dateTime": 1516127842281}, {"current_trial": 47, "trialdata": {"rt": -1, "trial_type": "single-stim", "stimulus": "<p id=\"stim\">7</p>", "internal_node_id": "0.0-35.0-3.0", "time_elapsed": 303346, "key_press": -1, "trial_index": 47}, "uniqueid": "MTK1681:3V26SBZTBELYKAXSHMPO8TQD5EKZZM", "dateTime": 1516127843285}, {"current_trial": 48, "trialdata": {"rt": -1, "trial_type": "single-stim", "stimulus": "<p id=\"stim\">6</p>", "internal_node_id": "0.0-35.0-4.0", "time_elapsed": 304350, "key_press": -1, "trial_index": 48}, "uniqueid": "MTK1681:3V26SBZTBELYKAXSHMPO8TQD5EKZZM", "dateTime": 1516127844290}, {"current_trial": 49, "trialdata": {"rt": -1, "trial_type": "single-stim", "stimulus": "<p id=\"stim\">5</p>", "internal_node_id": "0.0-35.0-5.0", "time_elapsed": 305354, "key_press": -1, "trial_index": 49}, "uniqueid": "MTK1681:3V26SBZTBELYKAXSHMPO8TQD5EKZZM", "dateTime": 1516127845294}, {"current_trial": 50, "trialdata": {"rt": -1, "trial_type": "single-stim", "stimulus": "<p id=\"stim\">4</p>", "internal_node_id": "0.0-35.0-6.0", "time_elapsed": 306359, "key_press": -1, "trial_index": 50}, "uniqueid": "MTK1681:3V26SBZTBELYKAXSHMPO8TQD5EKZZM", "dateTime": 1516127846298}, {"current_trial": 51, "trialdata": {"rt": -1, "trial_type": "single-stim", "stimulus": "<p id=\"stim\">3</p>", "internal_node_id": "0.0-35.0-7.0", "time_elapsed": 307363, "key_press": -1, "trial_index": 51}, "uniqueid": "MTK1681:3V26SBZTBELYKAXSHMPO8TQD5EKZZM", "dateTime": 1516127847302}, {"current_trial": 52, "trialdata": {"rt": -1, "trial_type": "single-stim", "stimulus": "<p id=\"stim\">2</p>", "internal_node_id": "0.0-35.0-8.0", "time_elapsed": 308367, "key_press": -1, "trial_index": 52}, "uniqueid": "MTK1681:3V26SBZTBELYKAXSHMPO8TQD5EKZZM", "dateTime": 1516127848306}, {"current_trial": 53, "trialdata": {"rt": -1, "trial_type": "single-stim", "stimulus": "<p id=\"stim\">1</p>", "internal_node_id": "0.0-35.0-9.0", "time_elapsed": 309371, "key_press": -1, "trial_index": 53}, "uniqueid": "MTK1681:3V26SBZTBELYKAXSHMPO8TQD5EKZZM", "dateTime": 1516127849310}, {"current_trial": 54, "trialdata": {"rt": -1, "trial_type": "single-stim", "stimulus": "<p id=\"stim\">+</p>", "internal_node_id": "0.0-36.0-0.0", "time_elapsed": 310877, "key_press": -1, "type": "FIXATION", "trial_index": 54}, "uniqueid": "MTK1681:3V26SBZTBELYKAXSHMPO8TQD5EKZZM", "dateTime": 1516127850816}, {"current_trial": 55, "trialdata": {"rt": -1000, "trial_type": "single-audio", "word": "champagne", "stimulus": "/static/audio/wordpool/CHAMPAGNE.wav", "conditions": [18, 1200, "a", 18000], "internal_node_id": "0.0-37.0", "trial": 1, "time_elapsed": 313041, "serialpos": 0, "key_press": -1, "wordID": 277, "type": "PRES_AUD", "trial_index": 55}, "uniqueid": "MTK1681:3V26SBZTBELYKAXSHMPO8TQD5EKZZM", "dateTime": 1516127852980}, {"current_trial": 56, "trialdata": {"rt": -1000, "trial_type": "single-audio", "word": "thief", "stimulus": "/static/audio/wordpool/THIEF.wav", "conditions": [18, 1200, "a", 18000], "internal_node_id": "0.0-38.0", "trial": 1, "time_elapsed": 315113, "serialpos": 1, "key_press": -1, "wordID": 1455, "type": "PRES_AUD", "trial_index": 56}, "uniqueid": "MTK1681:3V26SBZTBELYKAXSHMPO8TQD5EKZZM", "dateTime": 1516127855052}, {"current_trial": 57, "trialdata": {"rt": -1000, "trial_type": "single-audio", "word": "child", "stimulus": "/static/audio/wordpool/CHILD.wav", "conditions": [18, 1200, "a", 18000], "internal_node_id": "0.0-39.0", "trial": 1, "time_elapsed": 317272, "serialpos": 2, "key_press": -1, "wordID": 298, "type": "PRES_AUD", "trial_index": 57}, "uniqueid": "MTK1681:3V26SBZTBELYKAXSHMPO8TQD5EKZZM", "dateTime": 1516127857211}, {"current_trial": 58, "trialdata": {"rt": -1000, "trial_type": "single-audio", "word": "plaza", "stimulus": "/static/audio/wordpool/PLAZA.wav", "conditions": [18, 1200, "a", 18000], "internal_node_id": "0.0-40.0", "trial": 1, "time_elapsed": 319651, "serialpos": 3, "key_press": -1, "wordID": 1087, "type": "PRES_AUD", "trial_index": 58}, "uniqueid": "MTK1681:3V26SBZTBELYKAXSHMPO8TQD5EKZZM", "dateTime": 1516127859590}, {"current_trial": 59, "trialdata": {"rt": -1000, "trial_type": "single-audio", "word": "boyfriend", "stimulus": "/static/audio/wordpool/BOYFRIEND.wav", "conditions": [18, 1200, "a", 18000], "internal_node_id": "0.0-41.0", "trial": 1, "time_elapsed": 322019, "serialpos": 4, "key_press": -1, "wordID": 161, "type": "PRES_AUD", "trial_index": 59}, "uniqueid": "MTK1681:3V26SBZTBELYKAXSHMPO8TQD5EKZZM", "dateTime": 1516127861959}, {"current_trial": 60, "trialdata": {"rt": -1000, "trial_type": "single-audio", "word": "stamp", "stimulus": "/static/audio/wordpool/STAMP.wav", "conditions": [18, 1200, "a", 18000], "internal_node_id": "0.0-42.0", "trial": 1, "time_elapsed": 324283, "serialpos": 5, "key_press": -1, "wordID": 1369, "type": "PRES_AUD", "trial_index": 60}, "uniqueid": "MTK1681:3V26SBZTBELYKAXSHMPO8TQD5EKZZM", "dateTime": 1516127864222}, {"current_trial": 61, "trialdata": {"rt": -1000, "trial_type": "single-audio", "word": "highway", "stimulus": "/static/audio/wordpool/HIGHWAY.wav", "conditions": [18, 1200, "a", 18000], "internal_node_id": "0.0-43.0", "trial": 1, "time_elapsed": 326680, "serialpos": 6, "key_press": -1, "wordID": 706, "type": "PRES_AUD", "trial_index": 61}, "uniqueid": "MTK1681:3V26SBZTBELYKAXSHMPO8TQD5EKZZM", "dateTime": 1516127866620}, {"current_trial": 62, "trialdata": {"rt": -1000, "trial_type": "single-audio", "word": "woman", "stimulus": "/static/audio/wordpool/WOMAN.wav", "conditions": [18, 1200, "a", 18000], "internal_node_id": "0.0-44.0", "trial": 1, "time_elapsed": 328903, "serialpos": 7, "key_press": -1, "wordID": 1619, "type": "PRES_AUD", "trial_index": 62}, "uniqueid": "MTK1681:3V26SBZTBELYKAXSHMPO8TQD5EKZZM", "dateTime": 1516127868842}, {"current_trial": 63, "trialdata": {"rt": -1000, "trial_type": "single-audio", "word": "backbone", "stimulus": "/static/audio/wordpool/BACKBONE.wav", "conditions": [18, 1200, "a", 18000], "internal_node_id": "0.0-45.0", "trial": 1, "time_elapsed": 331306, "serialpos": 8, "key_press": -1, "wordID": 65, "type": "PRES_AUD", "trial_index": 63}, "uniqueid": "MTK1681:3V26SBZTBELYKAXSHMPO8TQD5EKZZM", "dateTime": 1516127871245}, {"current_trial": 64, "trialdata": {"rt": -1000, "trial_type": "single-audio", "word": "crown", "stimulus": "/static/audio/wordpool/CROWN.wav", "conditions": [18, 1200, "a", 18000], "internal_node_id": "0.0-46.0", "trial": 1, "time_elapsed": 333709, "serialpos": 9, "key_press": -1, "wordID": 414, "type": "PRES_AUD", "trial_index": 64}, "uniqueid": "MTK1681:3V26SBZTBELYKAXSHMPO8TQD5EKZZM", "dateTime": 1516127873648}, {"current_trial": 65, "trialdata": {"rt": -1000, "trial_type": "single-audio", "word": "dust", "stimulus": "/static/audio/wordpool/DUST.wav", "conditions": [18, 1200, "a", 18000], "internal_node_id": "0.0-47.0", "trial": 1, "time_elapsed": 336042, "serialpos": 10, "key_press": -1, "wordID": 507, "type": "PRES_AUD", "trial_index": 65}, "uniqueid": "MTK1681:3V26SBZTBELYKAXSHMPO8TQD5EKZZM", "dateTime": 1516127875981}, {"current_trial": 66, "trialdata": {"rt": -1000, "trial_type": "single-audio", "word": "picture", "stimulus": "/static/audio/wordpool/PICTURE.wav", "conditions": [18, 1200, "a", 18000], "internal_node_id": "0.0-48.0", "trial": 1, "time_elapsed": 338073, "serialpos": 11, "key_press": -1, "wordID": 1060, "type": "PRES_AUD", "trial_index": 66}, "uniqueid": "MTK1681:3V26SBZTBELYKAXSHMPO8TQD5EKZZM", "dateTime": 1516127878012}, {"current_trial": 67, "trialdata": {"rt": -1000, "trial_type": "single-audio", "word": "plaster", "stimulus": "/static/audio/wordpool/PLASTER.wav", "conditions": [18, 1200, "a", 18000], "internal_node_id": "0.0-49.0", "trial": 1, "time_elapsed": 340116, "serialpos": 12, "key_press": -1, "wordID": 1084, "type": "PRES_AUD", "trial_index": 67}, "uniqueid": "MTK1681:3V26SBZTBELYKAXSHMPO8TQD5EKZZM", "dateTime": 1516127880055}, {"current_trial": 68, "trialdata": {"rt": -1000, "trial_type": "single-audio", "word": "stallion", "stimulus": "/static/audio/wordpool/STALLION.wav", "conditions": [18, 1200, "a", 18000], "internal_node_id": "0.0-50.0", "trial": 1, "time_elapsed": 342507, "serialpos": 13, "key_press": -1, "wordID": 1368, "type": "PRES_AUD", "trial_index": 68}, "uniqueid": "MTK1681:3V26SBZTBELYKAXSHMPO8TQD5EKZZM", "dateTime": 1516127882448}, {"current_trial": 69, "trialdata": {"rt": -1000, "trial_type": "single-audio", "word": "cross", "stimulus": "/static/audio/wordpool/CROSS.wav", "conditions": [18, 1200, "a", 18000], "internal_node_id": "0.0-51.0", "trial": 1, "time_elapsed": 344716, "serialpos": 14, "key_press": -1, "wordID": 412, "type": "PRES_AUD", "trial_index": 69}, "uniqueid": "MTK1681:3V26SBZTBELYKAXSHMPO8TQD5EKZZM", "dateTime": 1516127884655}, {"current_trial": 70, "trialdata": {"rt": -1000, "trial_type": "single-audio", "word": "empire", "stimulus": "/static/audio/wordpool/EMPIRE.wav", "conditions": [18, 1200, "a", 18000], "internal_node_id": "0.0-52.0", "trial": 1, "time_elapsed": 346866, "serialpos": 15, "key_press": -1, "wordID": 529, "type": "PRES_AUD", "trial_index": 70}, "uniqueid": "MTK1681:3V26SBZTBELYKAXSHMPO8TQD5EKZZM", "dateTime": 1516127886805}, {"current_trial": 71, "trialdata": {"rt": -1000, "trial_type": "single-audio", "word": "taxi", "stimulus": "/static/audio/wordpool/TAXI.wav", "conditions": [18, 1200, "a", 18000], "internal_node_id": "0.0-53.0", "trial": 1, "time_elapsed": 349228, "serialpos": 16, "key_press": -1, "wordID": 1437, "type": "PRES_AUD", "trial_index": 71}, "uniqueid": "MTK1681:3V26SBZTBELYKAXSHMPO8TQD5EKZZM", "dateTime": 1516127889167}, {"current_trial": 72, "trialdata": {"rt": -1000, "trial_type": "single-audio", "word": "lagoon", "stimulus": "/static/audio/wordpool/LAGOON.wav", "conditions": [18, 1200, "a", 18000], "internal_node_id": "0.0-54.0", "trial": 1, "time_elapsed": 351230, "serialpos": 17, "key_press": -1, "wordID": 794, "type": "PRES_AUD", "trial_index": 72}, "uniqueid": "MTK1681:3V26SBZTBELYKAXSHMPO8TQD5EKZZM", "dateTime": 1516127891170}, {"current_trial": 73, "trialdata": {"rt": -1, "trial_type": "single-stim", "stimulus": "", "internal_node_id": "0.0-55.0-0.0", "time_elapsed": 352519, "key_press": -1, "type": "PRE_RECALL_DELAY", "trial_index": 73}, "uniqueid": "MTK1681:3V26SBZTBELYKAXSHMPO8TQD5EKZZM", "dateTime": 1516127892458}, {"current_trial": 74, "trialdata": {"rt": -1000, "trial_type": "single-audio", "stimulus": "/static/audio/400Hz.wav", "internal_node_id": "0.0-56.0", "time_elapsed": 353020, "key_press": -1, "type": "PRE_RECALL_ALERT", "trial_index": 74}, "uniqueid": "MTK1681:3V26SBZTBELYKAXSHMPO8TQD5EKZZM", "dateTime": 1516127892959}, {"current_trial": 75, "trialdata": {"rt": [3267, 6634, 8026, 9514, 13802, 15706, 18754, 23226, 24721, 37697, 47689], "recwords": ["lagoon", "champagne", "child", "woman", "empire", "plaza", "crown", "stamp", "dust", "plaza", "taxi"], "key_times": [1533, 1667, 1883, 2323, 2499, 2747, 3267, 4235, 4531, 4651, 4875, 5163, 5322, 6099, 6307, 6387, 6634, 6955, 7131, 7267, 7539, 7699, 8026, 8418, 8522, 8715, 8962, 9123, 9514, 11259, 11530, 11747, 12202, 12859, 13138, 13370, 13498, 13802, 14371, 14562, 14731, 15210, 15434, 15706, 17778, 18042, 18218, 18314, 18474, 18754, 21724, 22098, 22281, 22498, 22737, 23226, 23817, 24033, 24129, 24489, 24721, 36387, 36666, 36985, 37242, 37490, 37697, 45746, 45953, 46770, 47393, 47689], "trial_type": "free-recall", "conditions": [18, 1200, "a", 18000], "internal_node_id": "0.0-57.0-0.0", "key_presses": [76, 65, 71, 79, 79, 78, 13, 67, 72, 65, 77, 80, 65, 71, 78, 69, 13, 67, 72, 73, 76, 68, 13, 87, 79, 77, 65, 78, 13, 69, 77, 79, 8, 80, 73, 82, 69, 13, 80, 76, 65, 90, 65, 13, 67, 82, 79, 87, 78, 13, 83, 84, 65, 77, 80, 13, 68, 85, 83, 84, 13, 80, 76, 65, 90, 65, 13, 84, 65, 88, 73, 13], "trial": 1, "time_elapsed": 413025, "type": "FREE_RECALL", "trial_index": 75}, "uniqueid": "MTK1681:3V26SBZTBELYKAXSHMPO8TQD5EKZZM", "dateTime": 1516127952966}, {"current_trial": 76, "trialdata": {"rt": 4309, "trial_type": "text", "internal_node_id": "0.0-58.0", "time_elapsed": 419342, "key_press": 13, "type": "INSTRUCTIONS", "trial_index": 76}, "uniqueid": "MTK1681:3V26SBZTBELYKAXSHMPO8TQD5EKZZM", "dateTime": 1516127959281}, {"current_trial": 77, "trialdata": {"rt": [3362, 5713, 10410], "trial_type": "math-distractor", "key_times": [2546, 3049, 3362, 5466, 5713, 9523, 9618, 10410], "responses": ["16", "6", "12"], "num2": [6, 1, 7, 3], "num3": [8, 4, 4, 2], "conditions": [24, 1600, "a", 12000], "internal_node_id": "0.0-59.0", "key_presses": [49, 54, 13, 54, 13, 49, 50, 13], "trial": 2, "time_elapsed": 432351, "type": "DISTRACTOR", "trial_index": 77, "num1": [2, 1, 1, 8]}, "uniqueid": "MTK1681:3V26SBZTBELYKAXSHMPO8TQD5EKZZM", "dateTime": 1516127972290}, {"current_trial": 78, "trialdata": {"rt": -1, "trial_type": "single-stim", "stimulus": "<p id=\"stim\">10</p>", "internal_node_id": "0.0-60.0-0.0", "time_elapsed": 435357, "key_press": -1, "trial_index": 78}, "uniqueid": "MTK1681:3V26SBZTBELYKAXSHMPO8TQD5EKZZM", "dateTime": 1516127975297}, {"current_trial": 79, "trialdata": {"rt": -1, "trial_type": "single-stim", "stimulus": "<p id=\"stim\">9</p>", "internal_node_id": "0.0-60.0-1.0", "time_elapsed": 436361, "key_press": -1, "trial_index": 79}, "uniqueid": "MTK1681:3V26SBZTBELYKAXSHMPO8TQD5EKZZM", "dateTime": 1516127976301}, {"current_trial": 80, "trialdata": {"rt": -1, "trial_type": "single-stim", "stimulus": "<p id=\"stim\">8</p>", "internal_node_id": "0.0-60.0-2.0", "time_elapsed": 437365, "key_press": -1, "trial_index": 80}, "uniqueid": "MTK1681:3V26SBZTBELYKAXSHMPO8TQD5EKZZM", "dateTime": 1516127977305}, {"current_trial": 81, "trialdata": {"rt": -1, "trial_type": "single-stim", "stimulus": "<p id=\"stim\">7</p>", "internal_node_id": "0.0-60.0-3.0", "time_elapsed": 438370, "key_press": -1, "trial_index": 81}, "uniqueid": "MTK1681:3V26SBZTBELYKAXSHMPO8TQD5EKZZM", "dateTime": 1516127978309}, {"current_trial": 82, "trialdata": {"rt": -1, "trial_type": "single-stim", "stimulus": "<p id=\"stim\">6</p>", "internal_node_id": "0.0-60.0-4.0", "time_elapsed": 439374, "key_press": -1, "trial_index": 82}, "uniqueid": "MTK1681:3V26SBZTBELYKAXSHMPO8TQD5EKZZM", "dateTime": 1516127979313}, {"current_trial": 83, "trialdata": {"rt": -1, "trial_type": "single-stim", "stimulus": "<p id=\"stim\">5</p>", "internal_node_id": "0.0-60.0-5.0", "time_elapsed": 440378, "key_press": -1, "trial_index": 83}, "uniqueid": "MTK1681:3V26SBZTBELYKAXSHMPO8TQD5EKZZM", "dateTime": 1516127980317}, {"current_trial": 84, "trialdata": {"rt": -1, "trial_type": "single-stim", "stimulus": "<p id=\"stim\">4</p>", "internal_node_id": "0.0-60.0-6.0", "time_elapsed": 441382, "key_press": -1, "trial_index": 84}, "uniqueid": "MTK1681:3V26SBZTBELYKAXSHMPO8TQD5EKZZM", "dateTime": 1516127981321}, {"current_trial": 85, "trialdata": {"rt": -1, "trial_type": "single-stim", "stimulus": "<p id=\"stim\">3</p>", "internal_node_id": "0.0-60.0-7.0", "time_elapsed": 442386, "key_press": -1, "trial_index": 85}, "uniqueid": "MTK1681:3V26SBZTBELYKAXSHMPO8TQD5EKZZM", "dateTime": 1516127982325}, {"current_trial": 86, "trialdata": {"rt": -1, "trial_type": "single-stim", "stimulus": "<p id=\"stim\">2</p>", "internal_node_id": "0.0-60.0-8.0", "time_elapsed": 443390, "key_press": -1, "trial_index": 86}, "uniqueid": "MTK1681:3V26SBZTBELYKAXSHMPO8TQD5EKZZM", "dateTime": 1516127983329}, {"current_trial": 87, "trialdata": {"rt": -1, "trial_type": "single-stim", "stimulus": "<p id=\"stim\">1</p>", "internal_node_id": "0.0-60.0-9.0", "time_elapsed": 444393, "key_press": -1, "trial_index": 87}, "uniqueid": "MTK1681:3V26SBZTBELYKAXSHMPO8TQD5EKZZM", "dateTime": 1516127984333}, {"current_trial": 88, "trialdata": {"rt": -1, "trial_type": "single-stim", "stimulus": "<p id=\"stim\">+</p>", "internal_node_id": "0.0-61.0-0.0", "time_elapsed": 445897, "key_press": -1, "type": "FIXATION", "trial_index": 88}, "uniqueid": "MTK1681:3V26SBZTBELYKAXSHMPO8TQD5EKZZM", "dateTime": 1516127985836}, {"current_trial": 89, "trialdata": {"rt": -1000, "trial_type": "single-audio", "word": "hedge", "stimulus": "/static/audio/wordpool/HEDGE.wav", "conditions": [24, 1600, "a", 12000], "internal_node_id": "0.0-62.0", "trial": 2, "time_elapsed": 448405, "serialpos": 0, "key_press": -1, "wordID": 698, "type": "PRES_AUD", "trial_index": 89}, "uniqueid": "MTK1681:3V26SBZTBELYKAXSHMPO8TQD5EKZZM", "dateTime": 1516127988344}, {"current_trial": 90, "trialdata": {"rt": -1000, "trial_type": "single-audio", "word": "onion", "stimulus": "/static/audio/wordpool/ONION.wav", "conditions": [24, 1600, "a", 12000], "internal_node_id": "0.0-63.0", "trial": 2, "time_elapsed": 450929, "serialpos": 1, "key_press": -1, "wordID": 976, "type": "PRES_AUD", "trial_index": 90}, "uniqueid": "MTK1681:3V26SBZTBELYKAXSHMPO8TQD5EKZZM", "dateTime": 1516127990868}, {"current_trial": 91, "trialdata": {"rt": -1000, "trial_type": "single-audio", "word": "mustard", "stimulus": "/static/audio/wordpool/MUSTARD.wav", "conditions": [24, 1600, "a", 12000], "internal_node_id": "0.0-64.0", "trial": 2, "time_elapsed": 453651, "serialpos": 2, "key_press": -1, "wordID": 934, "type": "PRES_AUD", "trial_index": 91}, "uniqueid": "MTK1681:3V26SBZTBELYKAXSHMPO8TQD5EKZZM", "dateTime": 1516127993590}, {"current_trial": 92, "trialdata": {"rt": -1000, "trial_type": "single-audio", "word": "piston", "stimulus": "/static/audio/wordpool/PISTON.wav", "conditions": [24, 1600, "a", 12000], "internal_node_id": "0.0-65.0", "trial": 2, "time_elapsed": 456245, "serialpos": 3, "key_press": -1, "wordID": 1075, "type": "PRES_AUD", "trial_index": 92}, "uniqueid": "MTK1681:3V26SBZTBELYKAXSHMPO8TQD5EKZZM", "dateTime": 1516127996184}, {"current_trial": 93, "trialdata": {"rt": -1000, "trial_type": "single-audio", "word": "gymnast", "stimulus": "/static/audio/wordpool/GYMNAST.wav", "conditions": [24, 1600, "a", 12000], "internal_node_id": "0.0-66.0", "trial": 2, "time_elapsed": 458911, "serialpos": 4, "key_press": -1, "wordID": 674, "type": "PRES_AUD", "trial_index": 93}, "uniqueid": "MTK1681:3V26SBZTBELYKAXSHMPO8TQD5EKZZM", "dateTime": 1516127998850}, {"current_trial": 94, "trialdata": {"rt": -1000, "trial_type": "single-audio", "word": "patient", "stimulus": "/static/audio/wordpool/PATIENT.wav", "conditions": [24, 1600, "a", 12000], "internal_node_id": "0.0-67.0", "trial": 2, "time_elapsed": 461677, "serialpos": 5, "key_press": -1, "wordID": 1023, "type": "PRES_AUD", "trial_index": 94}, "uniqueid": "MTK1681:3V26SBZTBELYKAXSHMPO8TQD5EKZZM", "dateTime": 1516128001617}, {"current_trial": 95, "trialdata": {"rt": -1000, "trial_type": "single-audio", "word": "spouse", "stimulus": "/static/audio/wordpool/SPOUSE.wav", "conditions": [24, 1600, "a", 12000], "internal_node_id": "0.0-68.0", "trial": 2, "time_elapsed": 464429, "serialpos": 6, "key_press": -1, "wordID": 1357, "type": "PRES_AUD", "trial_index": 95}, "uniqueid": "MTK1681:3V26SBZTBELYKAXSHMPO8TQD5EKZZM", "dateTime": 1516128004368}, {"current_trial": 96, "trialdata": {"rt": -1000, "trial_type": "single-audio", "word": "briefcase", "stimulus": "/static/audio/wordpool/BRIEFCASE.wav", "conditions": [24, 1600, "a", 12000], "internal_node_id": "0.0-69.0", "trial": 2, "time_elapsed": 467077, "serialpos": 7, "key_press": -1, "wordID": 174, "type": "PRES_AUD", "trial_index": 96}, "uniqueid": "MTK1681:3V26SBZTBELYKAXSHMPO8TQD5EKZZM", "dateTime": 1516128007016}, {"current_trial": 97, "trialdata": {"rt": -1000, "trial_type": "single-audio", "word": "softball", "stimulus": "/static/audio/wordpool/SOFTBALL.wav", "conditions": [24, 1600, "a", 12000], "internal_node_id": "0.0-70.0", "trial": 2, "time_elapsed": 469739, "serialpos": 8, "key_press": -1, "wordID": 1342, "type": "PRES_AUD", "trial_index": 97}, "uniqueid": "MTK1681:3V26SBZTBELYKAXSHMPO8TQD5EKZZM", "dateTime": 1516128009678}, {"current_trial": 98, "trialdata": {"rt": -1000, "trial_type": "single-audio", "word": "valve", "stimulus": "/static/audio/wordpool/VALVE.wav", "conditions": [24, 1600, "a", 12000], "internal_node_id": "0.0-71.0", "trial": 2, "time_elapsed": 472212, "serialpos": 9, "key_press": -1, "wordID": 1545, "type": "PRES_AUD", "trial_index": 98}, "uniqueid": "MTK1681:3V26SBZTBELYKAXSHMPO8TQD5EKZZM", "dateTime": 1516128012151}, {"current_trial": 99, "trialdata": {"rt": -1000, "trial_type": "single-audio", "word": "snack", "stimulus": "/static/audio/wordpool/SNACK.wav", "conditions": [24, 1600, "a", 12000], "internal_node_id": "0.0-72.0", "trial": 2, "time_elapsed": 474899, "serialpos": 10, "key_press": -1, "wordID": 1330, "type": "PRES_AUD", "trial_index": 99}, "uniqueid": "MTK1681:3V26SBZTBELYKAXSHMPO8TQD5EKZZM", "dateTime": 1516128014838}, {"current_trial": 100, "trialdata": {"rt": -1000, "trial_type": "single-audio", "word": "popcorn", "stimulus": "/static/audio/wordpool/POPCORN.wav", "conditions": [24, 1600, "a", 12000], "internal_node_id": "0.0-73.0", "trial": 2, "time_elapsed": 477336, "serialpos": 11, "key_press": -1, "wordID": 1103, "type": "PRES_AUD", "trial_index": 100}, "uniqueid": "MTK1681:3V26SBZTBELYKAXSHMPO8TQD5EKZZM", "dateTime": 1516128017275}, {"current_trial": 101, "trialdata": {"rt": -1000, "trial_type": "single-audio", "word": "eagle", "stimulus": "/static/audio/wordpool/EAGLE.wav", "conditions": [24, 1600, "a", 12000], "internal_node_id": "0.0-74.0", "trial": 2, "time_elapsed": 479809, "serialpos": 12, "key_press": -1, "wordID": 511, "type": "PRES_AUD", "trial_index": 101}, "uniqueid": "MTK1681:3V26SBZTBELYKAXSHMPO8TQD5EKZZM", "dateTime": 1516128019748}, {"current_trial": 102, "trialdata": {"rt": -1000, "trial_type": "single-audio", "word": "farmer", "stimulus": "/static/audio/wordpool/FARMER.wav", "conditions": [24, 1600, "a", 12000], "internal_node_id": "0.0-75.0", "trial": 2, "time_elapsed": 482270, "serialpos": 13, "key_press": -1, "wordID": 552, "type": "PRES_AUD", "trial_index": 102}, "uniqueid": "MTK1681:3V26SBZTBELYKAXSHMPO8TQD5EKZZM", "dateTime": 1516128022209}, {"current_trial": 103, "trialdata": {"rt": -1000, "trial_type": "single-audio", "word": "motor", "stimulus": "/static/audio/wordpool/MOTOR.wav", "conditions": [24, 1600, "a", 12000], "internal_node_id": "0.0-76.0", "trial": 2, "time_elapsed": 485027, "serialpos": 14, "key_press": -1, "wordID": 921, "type": "PRES_AUD", "trial_index": 103}, "uniqueid": "MTK1681:3V26SBZTBELYKAXSHMPO8TQD5EKZZM", "dateTime": 1516128024966}, {"current_trial": 104, "trialdata": {"rt": -1000, "trial_type": "single-audio", "word": "clothes", "stimulus": "/static/audio/wordpool/CLOTHES.wav", "conditions": [24, 1600, "a", 12000], "internal_node_id": "0.0-77.0", "trial": 2, "time_elapsed": 487586, "serialpos": 15, "key_press": -1, "wordID": 326, "type": "PRES_AUD", "trial_index": 104}, "uniqueid": "MTK1681:3V26SBZTBELYKAXSHMPO8TQD5EKZZM", "dateTime": 1516128027525}, {"current_trial": 105, "trialdata": {"rt": -1000, "trial_type": "single-audio", "word": "puppy", "stimulus": "/static/audio/wordpool/PUPPY.wav", "conditions": [24, 1600, "a", 12000], "internal_node_id": "0.0-78.0", "trial": 2, "time_elapsed": 490290, "serialpos": 16, "key_press": -1, "wordID": 1143, "type": "PRES_AUD", "trial_index": 105}, "uniqueid": "MTK1681:3V26SBZTBELYKAXSHMPO8TQD5EKZZM", "dateTime": 1516128030229}, {"current_trial": 106, "trialdata": {"rt": -1000, "trial_type": "single-audio", "word": "college", "stimulus": "/static/audio/wordpool/COLLEGE.wav", "conditions": [24, 1600, "a", 12000], "internal_node_id": "0.0-79.0", "trial": 2, "time_elapsed": 492748, "serialpos": 17, "key_press": -1, "wordID": 345, "type": "PRES_AUD", "trial_index": 106}, "uniqueid": "MTK1681:3V26SBZTBELYKAXSHMPO8TQD5EKZZM", "dateTime": 1516128032687}, {"current_trial": 107, "trialdata": {"rt": -1000, "trial_type": "single-audio", "word": "student", "stimulus": "/static/audio/wordpool/STUDENT.wav", "conditions": [24, 1600, "a", 12000], "internal_node_id": "0.0-80.0", "trial": 2, "time_elapsed": 495491, "serialpos": 18, "key_press": -1, "wordID": 1394, "type": "PRES_AUD", "trial_index": 107}, "uniqueid": "MTK1681:3V26SBZTBELYKAXSHMPO8TQD5EKZZM", "dateTime": 1516128035430}, {"current_trial": 108, "trialdata": {"rt": -1000, "trial_type": "single-audio", "word": "orange", "stimulus": "/static/audio/wordpool/ORANGE.wav", "conditions": [24, 1600, "a", 12000], "internal_node_id": "0.0-81.0", "trial": 2, "time_elapsed": 498187, "serialpos": 19, "key_press": -1, "wordID": 979, "type": "PRES_AUD", "trial_index": 108}, "uniqueid": "MTK1681:3V26SBZTBELYKAXSHMPO8TQD5EKZZM", "dateTime": 1516128038126}, {"current_trial": 109, "trialdata": {"rt": -1000, "trial_type": "single-audio", "word": "perfume", "stimulus": "/static/audio/wordpool/PERFUME.wav", "conditions": [24, 1600, "a", 12000], "internal_node_id": "0.0-82.0", "trial": 2, "time_elapsed": 500874, "serialpos": 20, "key_press": -1, "wordID": 1048, "type": "PRES_AUD", "trial_index": 109}, "uniqueid": "MTK1681:3V26SBZTBELYKAXSHMPO8TQD5EKZZM", "dateTime": 1516128040813}, {"current_trial": 110, "trialdata": {"rt": -1000, "trial_type": "single-audio", "word": "shovel", "stimulus": "/static/audio/wordpool/SHOVEL.wav", "conditions": [24, 1600, "a", 12000], "internal_node_id": "0.0-83.0", "trial": 2, "time_elapsed": 503338, "serialpos": 21, "key_press": -1, "wordID": 1294, "type": "PRES_AUD", "trial_index": 110}, "uniqueid": "MTK1681:3V26SBZTBELYKAXSHMPO8TQD5EKZZM", "dateTime": 1516128043277}, {"current_trial": 111, "trialdata": {"rt": -1000, "trial_type": "single-audio", "word": "nightgown", "stimulus": "/static/audio/wordpool/NIGHTGOWN.wav", "conditions": [24, 1600, "a", 12000], "internal_node_id": "0.0-84.0", "trial": 2, "time_elapsed": 506100, "serialpos": 22, "key_press": -1, "wordID": 952, "type": "PRES_AUD", "trial_index": 111}, "uniqueid": "MTK1681:3V26SBZTBELYKAXSHMPO8TQD5EKZZM", "dateTime": 1516128046039}, {"current_trial": 112, "trialdata": {"rt": -1000, "trial_type": "single-audio", "word": "princess", "stimulus": "/static/audio/wordpool/PRINCESS.wav", "conditions": [24, 1600, "a", 12000], "internal_node_id": "0.0-85.0", "trial": 2, "time_elapsed": 508531, "serialpos": 23, "key_press": -1, "wordID": 1124, "type": "PRES_AUD", "trial_index": 112}, "uniqueid": "MTK1681:3V26SBZTBELYKAXSHMPO8TQD5EKZZM", "dateTime": 1516128048470}, {"current_trial": 113, "trialdata": {"rt": -1, "trial_type": "single-stim", "stimulus": "", "internal_node_id": "0.0-86.0-0.0", "time_elapsed": 509837, "key_press": -1, "type": "PRE_RECALL_DELAY", "trial_index": 113}, "uniqueid": "MTK1681:3V26SBZTBELYKAXSHMPO8TQD5EKZZM", "dateTime": 1516128049776}, {"current_trial": 114, "trialdata": {"rt": -1000, "trial_type": "single-audio", "stimulus": "/static/audio/400Hz.wav", "internal_node_id": "0.0-87.0", "time_elapsed": 510339, "key_press": -1, "type": "PRE_RECALL_ALERT", "trial_index": 114}, "uniqueid": "MTK1681:3V26SBZTBELYKAXSHMPO8TQD5EKZZM", "dateTime": 1516128050278}, {"current_trial": 115, "trialdata": {"rt": [3543, 5255, 8063, 9887, 11943, 25543, 33862, 35959, 39734, 41279, 47950, 50070, 53350, 56254], "recwords": ["hedge", "onion", "mustard", "college", "student", "gymnast", "softball", "perfume", "eagle", "farmer", "valve", "piston", "snack", "popcorn"], "key_times": [2208, 2368, 2600, 2872, 3031, 3543, 4224, 4440, 4583, 4768, 4887, 5255, 6287, 6423, 6567, 6783, 6927, 7672, 7895, 8063, 8343, 8511, 8735, 8919, 9087, 9423, 9646, 9887, 10175, 10495, 11087, 11184, 11391, 11511, 11695, 11943, 13513, 13975, 14271, 14463, 14591, 14814, 15750, 16542, 18431, 20967, 22862, 25543, 31008, 31591, 31783, 32063, 32447, 32631, 33311, 33519, 33862, 34599, 34775, 34871, 35135, 35414, 35615, 35759, 35959, 38679, 38807, 39078, 39310, 39422, 39734, 40311, 40414, 40574, 40806, 40942, 41046, 41279, 44399, 44854, 45030, 45454, 45831, 46014, 46326, 46518, 47126, 47414, 47678, 47950, 48487, 48670, 48878, 49126, 49318, 49806, 50070, 52358, 52654, 52766, 52878, 53022, 53350, 54134, 54238, 54406, 54606, 54806, 55014, 55911, 56254], "trial_type": "free-recall", "conditions": [24, 1600, "a", 12000], "internal_node_id": "0.0-88.0-0.0", "key_presses": [72, 69, 68, 71, 69, 13, 79, 78, 73, 79, 78, 13, 77, 85, 83, 84, 65, 82, 68, 13, 67, 79, 76, 76, 69, 71, 69, 13, 83, 84, 85, 68, 69, 78, 84, 32, 71, 89, 77, 78, 65, 83, 8, 8, 65, 83, 84, 13, 83, 79, 70, 84, 66, 65, 76, 76, 13, 80, 69, 82, 70, 85, 77, 69, 13, 69, 65, 71, 76, 69, 13, 70, 65, 82, 77, 69, 82, 13, 86, 65, 86, 76, 8, 8, 76, 69, 8, 86, 69, 13, 80, 73, 83, 84, 79, 78, 13, 83, 78, 65, 67, 75, 13, 80, 79, 80, 67, 79, 82, 78, 13], "trial": 2, "time_elapsed": 570345, "type": "FREE_RECALL", "trial_index": 115}, "uniqueid": "MTK1681:3V26SBZTBELYKAXSHMPO8TQD5EKZZM", "dateTime": 1516128110286}, {"current_trial": 116, "trialdata": {"rt": 2226, "trial_type": "text", "internal_node_id": "0.0-89.0", "time_elapsed": 574577, "key_press": 13, "type": "INSTRUCTIONS", "trial_index": 116}, "uniqueid": "MTK1681:3V26SBZTBELYKAXSHMPO8TQD5EKZZM", "dateTime": 1516128114517}, {"current_trial": 117, "trialdata": {"rt": [2763, 5314, 8234, 10394], "trial_type": "math-distractor", "key_times": [1947, 2259, 2763, 4619, 5051, 5314, 7251, 7386, 8234, 10019, 10394], "responses": ["19", "18", "21", "8"], "num2": [7, 8, 8, 6, 8], "num3": [6, 7, 5, 1, 9], "conditions": [24, 800, "a", 12000], "internal_node_id": "0.0-90.0", "key_presses": [49, 57, 13, 49, 56, 13, 50, 49, 13, 56, 13], "trial": 3, "time_elapsed": 588585, "type": "DISTRACTOR", "trial_index": 117, "num1": [6, 4, 8, 1, 5]}, "uniqueid": "MTK1681:3V26SBZTBELYKAXSHMPO8TQD5EKZZM", "dateTime": 1516128128524}, {"current_trial": 118, "trialdata": {"rt": -1, "trial_type": "single-stim", "stimulus": "<p id=\"stim\">10</p>", "internal_node_id": "0.0-91.0-0.0", "time_elapsed": 591591, "key_press": -1, "trial_index": 118}, "uniqueid": "MTK1681:3V26SBZTBELYKAXSHMPO8TQD5EKZZM", "dateTime": 1516128131530}, {"current_trial": 119, "trialdata": {"rt": -1, "trial_type": "single-stim", "stimulus": "<p id=\"stim\">9</p>", "internal_node_id": "0.0-91.0-1.0", "time_elapsed": 592594, "key_press": -1, "trial_index": 119}, "uniqueid": "MTK1681:3V26SBZTBELYKAXSHMPO8TQD5EKZZM", "dateTime": 1516128132534}, {"current_trial": 120, "trialdata": {"rt": -1, "trial_type": "single-stim", "stimulus": "<p id=\"stim\">8</p>", "internal_node_id": "0.0-91.0-2.0", "time_elapsed": 593599, "key_press": -1, "trial_index": 120}, "uniqueid": "MTK1681:3V26SBZTBELYKAXSHMPO8TQD5EKZZM", "dateTime": 1516128133538}, {"current_trial": 121, "trialdata": {"rt": -1, "trial_type": "single-stim", "stimulus": "<p id=\"stim\">7</p>", "internal_node_id": "0.0-91.0-3.0", "time_elapsed": 594603, "key_press": -1, "trial_index": 121}, "uniqueid": "MTK1681:3V26SBZTBELYKAXSHMPO8TQD5EKZZM", "dateTime": 1516128134542}, {"current_trial": 122, "trialdata": {"rt": -1, "trial_type": "single-stim", "stimulus": "<p id=\"stim\">6</p>", "internal_node_id": "0.0-91.0-4.0", "time_elapsed": 595608, "key_press": -1, "trial_index": 122}, "uniqueid": "MTK1681:3V26SBZTBELYKAXSHMPO8TQD5EKZZM", "dateTime": 1516128135547}, {"current_trial": 123, "trialdata": {"rt": -1, "trial_type": "single-stim", "stimulus": "<p id=\"stim\">5</p>", "internal_node_id": "0.0-91.0-5.0", "time_elapsed": 596609, "key_press": -1, "trial_index": 123}, "uniqueid": "MTK1681:3V26SBZTBELYKAXSHMPO8TQD5EKZZM", "dateTime": 1516128136548}, {"current_trial": 124, "trialdata": {"rt": -1, "trial_type": "single-stim", "stimulus": "<p id=\"stim\">4</p>", "internal_node_id": "0.0-91.0-6.0", "time_elapsed": 597610, "key_press": -1, "trial_index": 124}, "uniqueid": "MTK1681:3V26SBZTBELYKAXSHMPO8TQD5EKZZM", "dateTime": 1516128137549}, {"current_trial": 125, "trialdata": {"rt": -1, "trial_type": "single-stim", "stimulus": "<p id=\"stim\">3</p>", "internal_node_id": "0.0-91.0-7.0", "time_elapsed": 598611, "key_press": -1, "trial_index": 125}, "uniqueid": "MTK1681:3V26SBZTBELYKAXSHMPO8TQD5EKZZM", "dateTime": 1516128138550}, {"current_trial": 126, "trialdata": {"rt": -1, "trial_type": "single-stim", "stimulus": "<p id=\"stim\">2</p>", "internal_node_id": "0.0-91.0-8.0", "time_elapsed": 599612, "key_press": -1, "trial_index": 126}, "uniqueid": "MTK1681:3V26SBZTBELYKAXSHMPO8TQD5EKZZM", "dateTime": 1516128139551}, {"current_trial": 127, "trialdata": {"rt": -1, "trial_type": "single-stim", "stimulus": "<p id=\"stim\">1</p>", "internal_node_id": "0.0-91.0-9.0", "time_elapsed": 600613, "key_press": -1, "trial_index": 127}, "uniqueid": "MTK1681:3V26SBZTBELYKAXSHMPO8TQD5EKZZM", "dateTime": 1516128140553}, {"current_trial": 128, "trialdata": {"rt": -1, "trial_type": "single-stim", "stimulus": "<p id=\"stim\">+</p>", "internal_node_id": "0.0-92.0-0.0", "time_elapsed": 602119, "key_press": -1, "type": "FIXATION", "trial_index": 128}, "uniqueid": "MTK1681:3V26SBZTBELYKAXSHMPO8TQD5EKZZM", "dateTime": 1516128142058}, {"current_trial": 129, "trialdata": {"rt": -1000, "trial_type": "single-audio", "word": "blouse", "stimulus": "/static/audio/wordpool/BLOUSE.wav", "conditions": [24, 800, "a", 12000], "internal_node_id": "0.0-93.0", "trial": 3, "time_elapsed": 603919, "serialpos": 0, "key_press": -1, "wordID": 138, "type": "PRES_AUD", "trial_index": 129}, "uniqueid": "MTK1681:3V26SBZTBELYKAXSHMPO8TQD5EKZZM", "dateTime": 1516128143858}, {"current_trial": 130, "trialdata": {"rt": -1000, "trial_type": "single-audio", "word": "portrait", "stimulus": "/static/audio/wordpool/PORTRAIT.wav", "conditions": [24, 800, "a", 12000], "internal_node_id": "0.0-94.0", "trial": 3, "time_elapsed": 605764, "serialpos": 1, "key_press": -1, "wordID": 1110, "type": "PRES_AUD", "trial_index": 130}, "uniqueid": "MTK1681:3V26SBZTBELYKAXSHMPO8TQD5EKZZM", "dateTime": 1516128145703}, {"current_trial": 131, "trialdata": {"rt": -1000, "trial_type": "single-audio", "word": "brick", "stimulus": "/static/audio/wordpool/BRICK.wav", "conditions": [24, 800, "a", 12000], "internal_node_id": "0.0-95.0", "trial": 3, "time_elapsed": 607441, "serialpos": 2, "key_press": -1, "wordID": 171, "type": "PRES_AUD", "trial_index": 131}, "uniqueid": "MTK1681:3V26SBZTBELYKAXSHMPO8TQD5EKZZM", "dateTime": 1516128147380}, {"current_trial": 132, "trialdata": {"rt": -1000, "trial_type": "single-audio", "word": "finger", "stimulus": "/static/audio/wordpool/FINGER.wav", "conditions": [24, 800, "a", 12000], "internal_node_id": "0.0-96.0", "trial": 3, "time_elapsed": 609240, "serialpos": 3, "key_press": -1, "wordID": 566, "type": "PRES_AUD", "trial_index": 132}, "uniqueid": "MTK1681:3V26SBZTBELYKAXSHMPO8TQD5EKZZM", "dateTime": 1516128149179}, {"current_trial": 133, "trialdata": {"rt": -1000, "trial_type": "single-audio", "word": "sausage", "stimulus": "/static/audio/wordpool/SAUSAGE.wav", "conditions": [24, 800, "a", 12000], "internal_node_id": "0.0-97.0", "trial": 3, "time_elapsed": 610931, "serialpos": 4, "key_press": -1, "wordID": 1237, "type": "PRES_AUD", "trial_index": 133}, "uniqueid": "MTK1681:3V26SBZTBELYKAXSHMPO8TQD5EKZZM", "dateTime": 1516128150871}, {"current_trial": 134, "trialdata": {"rt": -1000, "trial_type": "single-audio", "word": "pasta", "stimulus": "/static/audio/wordpool/PASTA.wav", "conditions": [24, 800, "a", 12000], "internal_node_id": "0.0-98.0", "trial": 3, "time_elapsed": 612781, "serialpos": 5, "key_press": -1, "wordID": 1020, "type": "PRES_AUD", "trial_index": 134}, "uniqueid": "MTK1681:3V26SBZTBELYKAXSHMPO8TQD5EKZZM", "dateTime": 1516128152720}, {"current_trial": 135, "trialdata": {"rt": -1000, "trial_type": "single-audio", "word": "stove", "stimulus": "/static/audio/wordpool/STOVE.wav", "conditions": [24, 800, "a", 12000], "internal_node_id": "0.0-99.0", "trial": 3, "time_elapsed": 614557, "serialpos": 6, "key_press": -1, "wordID": 1387, "type": "PRES_AUD", "trial_index": 135}, "uniqueid": "MTK1681:3V26SBZTBELYKAXSHMPO8TQD5EKZZM", "dateTime": 1516128154496}, {"current_trial": 136, "trialdata": {"rt": -1000, "trial_type": "single-audio", "word": "pistol", "stimulus": "/static/audio/wordpool/PISTOL.wav", "conditions": [24, 800, "a", 12000], "internal_node_id": "0.0-100.0", "trial": 3, "time_elapsed": 616356, "serialpos": 7, "key_press": -1, "wordID": 1074, "type": "PRES_AUD", "trial_index": 136}, "uniqueid": "MTK1681:3V26SBZTBELYKAXSHMPO8TQD5EKZZM", "dateTime": 1516128156295}, {"current_trial": 137, "trialdata": {"rt": -1000, "trial_type": "single-audio", "word": "fruit", "stimulus": "/static/audio/wordpool/FRUIT.wav", "conditions": [24, 800, "a", 12000], "internal_node_id": "0.0-101.0", "trial": 3, "time_elapsed": 618341, "serialpos": 8, "key_press": -1, "wordID": 609, "type": "PRES_AUD", "trial_index": 137}, "uniqueid": "MTK1681:3V26SBZTBELYKAXSHMPO8TQD5EKZZM", "dateTime": 1516128158280}, {"current_trial": 138, "trialdata": {"rt": -1000, "trial_type": "single-audio", "word": "church", "stimulus": "/static/audio/wordpool/CHURCH.wav", "conditions": [24, 800, "a", 12000], "internal_node_id": "0.0-102.0", "trial": 3, "time_elapsed": 620018, "serialpos": 9, "key_press": -1, "wordID": 306, "type": "PRES_AUD", "trial_index": 138}, "uniqueid": "MTK1681:3V26SBZTBELYKAXSHMPO8TQD5EKZZM", "dateTime": 1516128159957}, {"current_trial": 139, "trialdata": {"rt": -1000, "trial_type": "single-audio", "word": "skirt", "stimulus": "/static/audio/wordpool/SKIRT.wav", "conditions": [24, 800, "a", 12000], "internal_node_id": "0.0-103.0", "trial": 3, "time_elapsed": 621846, "serialpos": 10, "key_press": -1, "wordID": 1318, "type": "PRES_AUD", "trial_index": 139}, "uniqueid": "MTK1681:3V26SBZTBELYKAXSHMPO8TQD5EKZZM", "dateTime": 1516128161785}, {"current_trial": 140, "trialdata": {"rt": -1000, "trial_type": "single-audio", "word": "branch", "stimulus": "/static/audio/wordpool/BRANCH.wav", "conditions": [24, 800, "a", 12000], "internal_node_id": "0.0-104.0", "trial": 3, "time_elapsed": 623692, "serialpos": 11, "key_press": -1, "wordID": 167, "type": "PRES_AUD", "trial_index": 140}, "uniqueid": "MTK1681:3V26SBZTBELYKAXSHMPO8TQD5EKZZM", "dateTime": 1516128163631}, {"current_trial": 141, "trialdata": {"rt": -1000, "trial_type": "single-audio", "word": "tunnel", "stimulus": "/static/audio/wordpool/TUNNEL.wav", "conditions": [24, 800, "a", 12000], "internal_node_id": "0.0-105.0", "trial": 3, "time_elapsed": 625618, "serialpos": 12, "key_press": -1, "wordID": 1518, "type": "PRES_AUD", "trial_index": 141}, "uniqueid": "MTK1681:3V26SBZTBELYKAXSHMPO8TQD5EKZZM", "dateTime": 1516128165557}, {"current_trial": 142, "trialdata": {"rt": -1000, "trial_type": "single-audio", "word": "viking", "stimulus": "/static/audio/wordpool/VIKING.wav", "conditions": [24, 800, "a", 12000], "internal_node_id": "0.0-106.0", "trial": 3, "time_elapsed": 627389, "serialpos": 13, "key_press": -1, "wordID": 1564, "type": "PRES_AUD", "trial_index": 142}, "uniqueid": "MTK1681:3V26SBZTBELYKAXSHMPO8TQD5EKZZM", "dateTime": 1516128167328}, {"current_trial": 143, "trialdata": {"rt": -1000, "trial_type": "single-audio", "word": "plaid", "stimulus": "/static/audio/wordpool/PLAID.wav", "conditions": [24, 800, "a", 12000], "internal_node_id": "0.0-107.0", "trial": 3, "time_elapsed": 629252, "serialpos": 14, "key_press": -1, "wordID": 1079, "type": "PRES_AUD", "trial_index": 143}, "uniqueid": "MTK1681:3V26SBZTBELYKAXSHMPO8TQD5EKZZM", "dateTime": 1516128169192}, {"current_trial": 144, "trialdata": {"rt": -1000, "trial_type": "single-audio", "word": "permit", "stimulus": "/static/audio/wordpool/PERMIT.wav", "conditions": [24, 800, "a", 12000], "internal_node_id": "0.0-108.0", "trial": 3, "time_elapsed": 631115, "serialpos": 15, "key_press": -1, "wordID": 1050, "type": "PRES_AUD", "trial_index": 144}, "uniqueid": "MTK1681:3V26SBZTBELYKAXSHMPO8TQD5EKZZM", "dateTime": 1516128171054}, {"current_trial": 145, "trialdata": {"rt": -1000, "trial_type": "single-audio", "word": "elbow", "stimulus": "/static/audio/wordpool/ELBOW.wav", "conditions": [24, 800, "a", 12000], "internal_node_id": "0.0-109.0", "trial": 3, "time_elapsed": 633060, "serialpos": 16, "key_press": -1, "wordID": 519, "type": "PRES_AUD", "trial_index": 145}, "uniqueid": "MTK1681:3V26SBZTBELYKAXSHMPO8TQD5EKZZM", "dateTime": 1516128172999}, {"current_trial": 146, "trialdata": {"rt": -1000, "trial_type": "single-audio", "word": "country", "stimulus": "/static/audio/wordpool/COUNTRY.wav", "conditions": [24, 800, "a", 12000], "internal_node_id": "0.0-110.0", "trial": 3, "time_elapsed": 634847, "serialpos": 17, "key_press": -1, "wordID": 387, "type": "PRES_AUD", "trial_index": 146}, "uniqueid": "MTK1681:3V26SBZTBELYKAXSHMPO8TQD5EKZZM", "dateTime": 1516128174786}, {"current_trial": 147, "trialdata": {"rt": -1000, "trial_type": "single-audio", "word": "world", "stimulus": "/static/audio/wordpool/WORLD.wav", "conditions": [24, 800, "a", 12000], "internal_node_id": "0.0-111.0", "trial": 3, "time_elapsed": 636535, "serialpos": 18, "key_press": -1, "wordID": 1621, "type": "PRES_AUD", "trial_index": 147}, "uniqueid": "MTK1681:3V26SBZTBELYKAXSHMPO8TQD5EKZZM", "dateTime": 1516128176474}, {"current_trial": 148, "trialdata": {"rt": -1000, "trial_type": "single-audio", "word": "leg", "stimulus": "/static/audio/wordpool/LEG.wav", "conditions": [24, 800, "a", 12000], "internal_node_id": "0.0-112.0", "trial": 3, "time_elapsed": 638451, "serialpos": 19, "key_press": -1, "wordID": 808, "type": "PRES_AUD", "trial_index": 148}, "uniqueid": "MTK1681:3V26SBZTBELYKAXSHMPO8TQD5EKZZM", "dateTime": 1516128178390}, {"current_trial": 149, "trialdata": {"rt": -1000, "trial_type": "single-audio", "word": "luggage", "stimulus": "/static/audio/wordpool/LUGGAGE.wav", "conditions": [24, 800, "a", 12000], "internal_node_id": "0.0-113.0", "trial": 3, "time_elapsed": 640099, "serialpos": 20, "key_press": -1, "wordID": 846, "type": "PRES_AUD", "trial_index": 149}, "uniqueid": "MTK1681:3V26SBZTBELYKAXSHMPO8TQD5EKZZM", "dateTime": 1516128180039}, {"current_trial": 150, "trialdata": {"rt": -1000, "trial_type": "single-audio", "word": "apron", "stimulus": "/static/audio/wordpool/APRON.wav", "conditions": [24, 800, "a", 12000], "internal_node_id": "0.0-114.0", "trial": 3, "time_elapsed": 641939, "serialpos": 21, "key_press": -1, "wordID": 34, "type": "PRES_AUD", "trial_index": 150}, "uniqueid": "MTK1681:3V26SBZTBELYKAXSHMPO8TQD5EKZZM", "dateTime": 1516128181878}, {"current_trial": 151, "trialdata": {"rt": -1000, "trial_type": "single-audio", "word": "relish", "stimulus": "/static/audio/wordpool/RELISH.wav", "conditions": [24, 800, "a", 12000], "internal_node_id": "0.0-115.0", "trial": 3, "time_elapsed": 643553, "serialpos": 22, "key_press": -1, "wordID": 1182, "type": "PRES_AUD", "trial_index": 151}, "uniqueid": "MTK1681:3V26SBZTBELYKAXSHMPO8TQD5EKZZM", "dateTime": 1516128183492}, {"current_trial": 152, "trialdata": {"rt": -1000, "trial_type": "single-audio", "word": "contract", "stimulus": "/static/audio/wordpool/CONTRACT.wav", "conditions": [24, 800, "a", 12000], "internal_node_id": "0.0-116.0", "trial": 3, "time_elapsed": 645300, "serialpos": 23, "key_press": -1, "wordID": 367, "type": "PRES_AUD", "trial_index": 152}, "uniqueid": "MTK1681:3V26SBZTBELYKAXSHMPO8TQD5EKZZM", "dateTime": 1516128185239}, {"current_trial": 153, "trialdata": {"rt": -1, "trial_type": "single-stim", "stimulus": "", "internal_node_id": "0.0-117.0-0.0", "time_elapsed": 646606, "key_press": -1, "type": "PRE_RECALL_DELAY", "trial_index": 153}, "uniqueid": "MTK1681:3V26SBZTBELYKAXSHMPO8TQD5EKZZM", "dateTime": 1516128186545}, {"current_trial": 154, "trialdata": {"rt": -1000, "trial_type": "single-audio", "stimulus": "/static/audio/400Hz.wav", "internal_node_id": "0.0-118.0", "time_elapsed": 647107, "key_press": -1, "type": "PRE_RECALL_ALERT", "trial_index": 154}, "uniqueid": "MTK1681:3V26SBZTBELYKAXSHMPO8TQD5EKZZM", "dateTime": 1516128187046}, {"current_trial": 155, "trialdata": {"rt": [2979, 4891, 7851, 14212, 15788, 18115, 21387, 28051, 35090], "recwords": ["contract", "relish", "leg", "pistol", "fruit", "stove", "louse", "contract", "permit"], "key_times": [1148, 1435, 1611, 1899, 2027, 2203, 2419, 2700, 2979, 3563, 3659, 3955, 4147, 4259, 4483, 4891, 5363, 5499, 5779, 7851, 12556, 12772, 12931, 13172, 13347, 13811, 14212, 14700, 14851, 15252, 15356, 15484, 15788, 16891, 17156, 17587, 17731, 17923, 18115, 19955, 20163, 20395, 20547, 20755, 21387, 26164, 26379, 26659, 27003, 27147, 27339, 27555, 27803, 28051, 33619, 33770, 33826, 34114, 34210, 34378, 35090], "trial_type": "free-recall", "conditions": [24, 800, "a", 12000], "internal_node_id": "0.0-119.0-0.0", "key_presses": [67, 79, 78, 84, 82, 65, 67, 84, 13, 82, 69, 76, 73, 83, 72, 13, 76, 69, 71, 13, 80, 73, 83, 84, 79, 76, 13, 70, 82, 85, 73, 84, 13, 83, 84, 79, 86, 69, 13, 76, 79, 85, 83, 69, 13, 67, 79, 78, 84, 82, 65, 67, 84, 13, 80, 69, 82, 77, 73, 84, 13], "trial": 3, "time_elapsed": 707111, "type": "FREE_RECALL", "trial_index": 155}, "uniqueid": "MTK1681:3V26SBZTBELYKAXSHMPO8TQD5EKZZM", "dateTime": 1516128247052}, {"current_trial": 156, "trialdata": {"rt": 7921, "trial_type": "text", "internal_node_id": "0.0-120.0", "time_elapsed": 717038, "key_press": 13, "type": "INSTRUCTIONS", "trial_index": 156}, "uniqueid": "MTK1681:3V26SBZTBELYKAXSHMPO8TQD5EKZZM", "dateTime": 1516128256977}, {"current_trial": 157, "trialdata": {"rt": [1697, 3465, 5953, 8313, 10489, 13465, 16065, 18009, 20729, 23176], "trial_type": "math-distractor", "key_times": [1257, 1441, 1697, 2993, 3169, 3465, 5593, 5689, 5953, 7737, 8137, 8313, 10145, 10313, 10489, 13201, 13465, 15377, 15905, 16065, 17689, 18009, 20169, 20457, 20729, 22873, 23176], "responses": ["11", "11", "12", "15", "11", "8", "14", "8", "18", "7"], "num2": [5, 4, 3, 2, 2, 1, 3, 1, 5, 2, 8], "num3": [5, 6, 2, 6, 3, 3, 9, 1, 6, 1, 9], "conditions": [12, 800, "a", 24000], "internal_node_id": "0.0-121.0", "key_presses": [49, 49, 13, 49, 49, 13, 49, 50, 13, 49, 53, 13, 49, 49, 13, 56, 13, 49, 52, 13, 56, 13, 49, 56, 13, 55, 13], "trial": 4, "time_elapsed": 743048, "type": "DISTRACTOR", "trial_index": 157, "num1": [1, 1, 7, 7, 6, 4, 2, 6, 7, 4, 6]}, "uniqueid": "MTK1681:3V26SBZTBELYKAXSHMPO8TQD5EKZZM", "dateTime": 1516128282987}, {"current_trial": 158, "trialdata": {"rt": -1, "trial_type": "single-stim", "stimulus": "<p id=\"stim\">10</p>", "internal_node_id": "0.0-122.0-0.0", "time_elapsed": 746057, "key_press": -1, "trial_index": 158}, "uniqueid": "MTK1681:3V26SBZTBELYKAXSHMPO8TQD5EKZZM", "dateTime": 1516128285996}, {"current_trial": 159, "trialdata": {"rt": -1, "trial_type": "single-stim", "stimulus": "<p id=\"stim\">9</p>", "internal_node_id": "0.0-122.0-1.0", "time_elapsed": 747061, "key_press": -1, "trial_index": 159}, "uniqueid": "MTK1681:3V26SBZTBELYKAXSHMPO8TQD5EKZZM", "dateTime": 1516128287001}, {"current_trial": 160, "trialdata": {"rt": -1, "trial_type": "single-stim", "stimulus": "<p id=\"stim\">8</p>", "internal_node_id": "0.0-122.0-2.0", "time_elapsed": 748065, "key_press": -1, "trial_index": 160}, "uniqueid": "MTK1681:3V26SBZTBELYKAXSHMPO8TQD5EKZZM", "dateTime": 1516128288005}, {"current_trial": 161, "trialdata": {"rt": -1, "trial_type": "single-stim", "stimulus": "<p id=\"stim\">7</p>", "internal_node_id": "0.0-122.0-3.0", "time_elapsed": 749069, "key_press": -1, "trial_index": 161}, "uniqueid": "MTK1681:3V26SBZTBELYKAXSHMPO8TQD5EKZZM", "dateTime": 1516128289008}, {"current_trial": 162, "trialdata": {"rt": -1, "trial_type": "single-stim", "stimulus": "<p id=\"stim\">6</p>", "internal_node_id": "0.0-122.0-4.0", "time_elapsed": 750074, "key_press": -1, "trial_index": 162}, "uniqueid": "MTK1681:3V26SBZTBELYKAXSHMPO8TQD5EKZZM", "dateTime": 1516128290013}, {"current_trial": 163, "trialdata": {"rt": -1, "trial_type": "single-stim", "stimulus": "<p id=\"stim\">5</p>", "internal_node_id": "0.0-122.0-5.0", "time_elapsed": 751078, "key_press": -1, "trial_index": 163}, "uniqueid": "MTK1681:3V26SBZTBELYKAXSHMPO8TQD5EKZZM", "dateTime": 1516128291017}, {"current_trial": 164, "trialdata": {"rt": -1, "trial_type": "single-stim", "stimulus": "<p id=\"stim\">4</p>", "internal_node_id": "0.0-122.0-6.0", "time_elapsed": 752082, "key_press": -1, "trial_index": 164}, "uniqueid": "MTK1681:3V26SBZTBELYKAXSHMPO8TQD5EKZZM", "dateTime": 1516128292021}, {"current_trial": 165, "trialdata": {"rt": -1, "trial_type": "single-stim", "stimulus": "<p id=\"stim\">3</p>", "internal_node_id": "0.0-122.0-7.0", "time_elapsed": 753086, "key_press": -1, "trial_index": 165}, "uniqueid": "MTK1681:3V26SBZTBELYKAXSHMPO8TQD5EKZZM", "dateTime": 1516128293025}, {"current_trial": 166, "trialdata": {"rt": -1, "trial_type": "single-stim", "stimulus": "<p id=\"stim\">2</p>", "internal_node_id": "0.0-122.0-8.0", "time_elapsed": 754090, "key_press": -1, "trial_index": 166}, "uniqueid": "MTK1681:3V26SBZTBELYKAXSHMPO8TQD5EKZZM", "dateTime": 1516128294029}, {"current_trial": 167, "trialdata": {"rt": -1, "trial_type": "single-stim", "stimulus": "<p id=\"stim\">1</p>", "internal_node_id": "0.0-122.0-9.0", "time_elapsed": 755094, "key_press": -1, "trial_index": 167}, "uniqueid": "MTK1681:3V26SBZTBELYKAXSHMPO8TQD5EKZZM", "dateTime": 1516128295033}, {"current_trial": 168, "trialdata": {"rt": -1, "trial_type": "single-stim", "stimulus": "<p id=\"stim\">+</p>", "internal_node_id": "0.0-123.0-0.0", "time_elapsed": 756597, "key_press": -1, "type": "FIXATION", "trial_index": 168}, "uniqueid": "MTK1681:3V26SBZTBELYKAXSHMPO8TQD5EKZZM", "dateTime": 1516128296536}, {"current_trial": 169, "trialdata": {"rt": -1000, "trial_type": "single-audio", "word": "author", "stimulus": "/static/audio/wordpool/AUTHOR.wav", "conditions": [12, 800, "a", 24000], "internal_node_id": "0.0-124.0", "trial": 4, "time_elapsed": 758295, "serialpos": 0, "key_press": -1, "wordID": 60, "type": "PRES_AUD", "trial_index": 169}, "uniqueid": "MTK1681:3V26SBZTBELYKAXSHMPO8TQD5EKZZM", "dateTime": 1516128298234}, {"current_trial": 170, "trialdata": {"rt": -1000, "trial_type": "single-audio", "word": "iceberg", "stimulus": "/static/audio/wordpool/ICEBERG.wav", "conditions": [12, 800, "a", 24000], "internal_node_id": "0.0-125.0", "trial": 4, "time_elapsed": 759943, "serialpos": 1, "key_press": -1, "wordID": 730, "type": "PRES_AUD", "trial_index": 170}, "uniqueid": "MTK1681:3V26SBZTBELYKAXSHMPO8TQD5EKZZM", "dateTime": 1516128299882}, {"current_trial": 171, "trialdata": {"rt": -1000, "trial_type": "single-audio", "word": "balloon", "stimulus": "/static/audio/wordpool/BALLOON.wav", "conditions": [12, 800, "a", 24000], "internal_node_id": "0.0-126.0", "trial": 4, "time_elapsed": 761760, "serialpos": 2, "key_press": -1, "wordID": 74, "type": "PRES_AUD", "trial_index": 171}, "uniqueid": "MTK1681:3V26SBZTBELYKAXSHMPO8TQD5EKZZM", "dateTime": 1516128301699}, {"current_trial": 172, "trialdata": {"rt": -1000, "trial_type": "single-audio", "word": "lightning", "stimulus": "/static/audio/wordpool/LIGHTNING.wav", "conditions": [12, 800, "a", 24000], "internal_node_id": "0.0-127.0", "trial": 4, "time_elapsed": 763454, "serialpos": 3, "key_press": -1, "wordID": 819, "type": "PRES_AUD", "trial_index": 172}, "uniqueid": "MTK1681:3V26SBZTBELYKAXSHMPO8TQD5EKZZM", "dateTime": 1516128303393}, {"current_trial": 173, "trialdata": {"rt": -1000, "trial_type": "single-audio", "word": "kidney", "stimulus": "/static/audio/wordpool/KIDNEY.wav", "conditions": [12, 800, "a", 24000], "internal_node_id": "0.0-128.0", "trial": 4, "time_elapsed": 765091, "serialpos": 4, "key_press": -1, "wordID": 775, "type": "PRES_AUD", "trial_index": 173}, "uniqueid": "MTK1681:3V26SBZTBELYKAXSHMPO8TQD5EKZZM", "dateTime": 1516128305030}, {"current_trial": 174, "trialdata": {"rt": -1000, "trial_type": "single-audio", "word": "tribe", "stimulus": "/static/audio/wordpool/TRIBE.wav", "conditions": [12, 800, "a", 24000], "internal_node_id": "0.0-129.0", "trial": 4, "time_elapsed": 766699, "serialpos": 5, "key_press": -1, "wordID": 1504, "type": "PRES_AUD", "trial_index": 174}, "uniqueid": "MTK1681:3V26SBZTBELYKAXSHMPO8TQD5EKZZM", "dateTime": 1516128306638}, {"current_trial": 175, "trialdata": {"rt": -1000, "trial_type": "single-audio", "word": "freezer", "stimulus": "/static/audio/wordpool/FREEZER.wav", "conditions": [12, 800, "a", 24000], "internal_node_id": "0.0-130.0", "trial": 4, "time_elapsed": 768312, "serialpos": 6, "key_press": -1, "wordID": 603, "type": "PRES_AUD", "trial_index": 175}, "uniqueid": "MTK1681:3V26SBZTBELYKAXSHMPO8TQD5EKZZM", "dateTime": 1516128308251}, {"current_trial": 176, "trialdata": {"rt": -1000, "trial_type": "single-audio", "word": "maple", "stimulus": "/static/audio/wordpool/MAPLE.wav", "conditions": [12, 800, "a", 24000], "internal_node_id": "0.0-131.0", "trial": 4, "time_elapsed": 769942, "serialpos": 7, "key_press": -1, "wordID": 865, "type": "PRES_AUD", "trial_index": 176}, "uniqueid": "MTK1681:3V26SBZTBELYKAXSHMPO8TQD5EKZZM", "dateTime": 1516128309882}, {"current_trial": 177, "trialdata": {"rt": -1000, "trial_type": "single-audio", "word": "army", "stimulus": "/static/audio/wordpool/ARMY.wav", "conditions": [12, 800, "a", 24000], "internal_node_id": "0.0-132.0", "trial": 4, "time_elapsed": 771579, "serialpos": 8, "key_press": -1, "wordID": 38, "type": "PRES_AUD", "trial_index": 177}, "uniqueid": "MTK1681:3V26SBZTBELYKAXSHMPO8TQD5EKZZM", "dateTime": 1516128311518}, {"current_trial": 178, "trialdata": {"rt": -1000, "trial_type": "single-audio", "word": "transplant", "stimulus": "/static/audio/wordpool/TRANSPLANT.wav", "conditions": [12, 800, "a", 24000], "internal_node_id": "0.0-133.0", "trial": 4, "time_elapsed": 773274, "serialpos": 9, "key_press": -1, "wordID": 1495, "type": "PRES_AUD", "trial_index": 178}, "uniqueid": "MTK1681:3V26SBZTBELYKAXSHMPO8TQD5EKZZM", "dateTime": 1516128313213}, {"current_trial": 179, "trialdata": {"rt": -1000, "trial_type": "single-audio", "word": "infant", "stimulus": "/static/audio/wordpool/INFANT.wav", "conditions": [12, 800, "a", 24000], "internal_node_id": "0.0-134.0", "trial": 4, "time_elapsed": 775016, "serialpos": 10, "key_press": -1, "wordID": 736, "type": "PRES_AUD", "trial_index": 179}, "uniqueid": "MTK1681:3V26SBZTBELYKAXSHMPO8TQD5EKZZM", "dateTime": 1516128314955}, {"current_trial": 180, "trialdata": {"rt": -1000, "trial_type": "single-audio", "word": "crib", "stimulus": "/static/audio/wordpool/CRIB.wav", "conditions": [12, 800, "a", 24000], "internal_node_id": "0.0-135.0", "trial": 4, "time_elapsed": 776971, "serialpos": 11, "key_press": -1, "wordID": 406, "type": "PRES_AUD", "trial_index": 180}, "uniqueid": "MTK1681:3V26SBZTBELYKAXSHMPO8TQD5EKZZM", "dateTime": 1516128316910}, {"current_trial": 181, "trialdata": {"rt": -1, "trial_type": "single-stim", "stimulus": "", "internal_node_id": "0.0-136.0-0.0", "time_elapsed": 778353, "key_press": -1, "type": "PRE_RECALL_DELAY", "trial_index": 181}, "uniqueid": "MTK1681:3V26SBZTBELYKAXSHMPO8TQD5EKZZM", "dateTime": 1516128318292}, {"current_trial": 182, "trialdata": {"rt": -1000, "trial_type": "single-audio", "stimulus": "/static/audio/400Hz.wav", "internal_node_id": "0.0-137.0", "time_elapsed": 778854, "key_press": -1, "type": "PRE_RECALL_ALERT", "trial_index": 182}, "uniqueid": "MTK1681:3V26SBZTBELYKAXSHMPO8TQD5EKZZM", "dateTime": 1516128318793}, {"current_trial": 183, "trialdata": {"rt": [1924, 3836, 6284], "recwords": ["crib", "infant", "army"], "key_times": [950, 1204, 1428, 1620, 1924, 2556, 2732, 3004, 3124, 3332, 3524, 3836, 4732, 4948, 5196, 5420, 6284], "trial_type": "free-recall", "conditions": [12, 800, "a", 24000], "internal_node_id": "0.0-138.0-0.0", "key_presses": [67, 82, 73, 66, 13, 73, 78, 70, 65, 78, 84, 13, 65, 82, 77, 89, 13], "trial": 4, "time_elapsed": 838860, "type": "FREE_RECALL", "trial_index": 183}, "uniqueid": "MTK1681:3V26SBZTBELYKAXSHMPO8TQD5EKZZM", "dateTime": 1516128378801}, {"current_trial": 184, "trialdata": {"rt": 1952, "trial_type": "text", "internal_node_id": "0.0-139.0", "time_elapsed": 842819, "key_press": 13, "type": "INSTRUCTIONS", "trial_index": 184}, "uniqueid": "MTK1681:3V26SBZTBELYKAXSHMPO8TQD5EKZZM", "dateTime": 1516128382758}, {"current_trial": 185, "trialdata": {"rt": [3071, 5615, 7399, 9599, 11855], "trial_type": "math-distractor", "key_times": [2183, 2647, 3071, 4760, 5375, 5615, 6695, 7199, 7399, 9264, 9439, 9599, 11400, 11671, 11855], "responses": ["24", "15", "16", "11", "13"], "num2": [8, 6, 5, 2, 5, 7], "num3": [8, 6, 6, 6, 6, 3], "conditions": [12, 800, "a", 12000], "internal_node_id": "0.0-140.0", "key_presses": [50, 52, 13, 49, 53, 13, 49, 54, 13, 49, 49, 13, 49, 51, 13], "trial": 5, "time_elapsed": 856828, "type": "DISTRACTOR", "trial_index": 185, "num1": [8, 3, 5, 3, 2, 9]}, "uniqueid": "MTK1681:3V26SBZTBELYKAXSHMPO8TQD5EKZZM", "dateTime": 1516128396767}, {"current_trial": 186, "trialdata": {"rt": -1, "trial_type": "single-stim", "stimulus": "<p id=\"stim\">10</p>", "internal_node_id": "0.0-141.0-0.0", "time_elapsed": 859834, "key_press": -1, "trial_index": 186}, "uniqueid": "MTK1681:3V26SBZTBELYKAXSHMPO8TQD5EKZZM", "dateTime": 1516128399773}, {"current_trial": 187, "trialdata": {"rt": -1, "trial_type": "single-stim", "stimulus": "<p id=\"stim\">9</p>", "internal_node_id": "0.0-141.0-1.0", "time_elapsed": 860838, "key_press": -1, "trial_index": 187}, "uniqueid": "MTK1681:3V26SBZTBELYKAXSHMPO8TQD5EKZZM", "dateTime": 1516128400777}, {"current_trial": 188, "trialdata": {"rt": -1, "trial_type": "single-stim", "stimulus": "<p id=\"stim\">8</p>", "internal_node_id": "0.0-141.0-2.0", "time_elapsed": 861842, "key_press": -1, "trial_index": 188}, "uniqueid": "MTK1681:3V26SBZTBELYKAXSHMPO8TQD5EKZZM", "dateTime": 1516128401781}, {"current_trial": 189, "trialdata": {"rt": -1, "trial_type": "single-stim", "stimulus": "<p id=\"stim\">7</p>", "internal_node_id": "0.0-141.0-3.0", "time_elapsed": 862846, "key_press": -1, "trial_index": 189}, "uniqueid": "MTK1681:3V26SBZTBELYKAXSHMPO8TQD5EKZZM", "dateTime": 1516128402785}, {"current_trial": 190, "trialdata": {"rt": -1, "trial_type": "single-stim", "stimulus": "<p id=\"stim\">6</p>", "internal_node_id": "0.0-141.0-4.0", "time_elapsed": 863851, "key_press": -1, "trial_index": 190}, "uniqueid": "MTK1681:3V26SBZTBELYKAXSHMPO8TQD5EKZZM", "dateTime": 1516128403790}, {"current_trial": 191, "trialdata": {"rt": -1, "trial_type": "single-stim", "stimulus": "<p id=\"stim\">5</p>", "internal_node_id": "0.0-141.0-5.0", "time_elapsed": 864855, "key_press": -1, "trial_index": 191}, "uniqueid": "MTK1681:3V26SBZTBELYKAXSHMPO8TQD5EKZZM", "dateTime": 1516128404794}, {"current_trial": 192, "trialdata": {"rt": -1, "trial_type": "single-stim", "stimulus": "<p id=\"stim\">4</p>", "internal_node_id": "0.0-141.0-6.0", "time_elapsed": 865859, "key_press": -1, "trial_index": 192}, "uniqueid": "MTK1681:3V26SBZTBELYKAXSHMPO8TQD5EKZZM", "dateTime": 1516128405798}, {"current_trial": 193, "trialdata": {"rt": -1, "trial_type": "single-stim", "stimulus": "<p id=\"stim\">3</p>", "internal_node_id": "0.0-141.0-7.0", "time_elapsed": 866863, "key_press": -1, "trial_index": 193}, "uniqueid": "MTK1681:3V26SBZTBELYKAXSHMPO8TQD5EKZZM", "dateTime": 1516128406802}, {"current_trial": 194, "trialdata": {"rt": -1, "trial_type": "single-stim", "stimulus": "<p id=\"stim\">2</p>", "internal_node_id": "0.0-141.0-8.0", "time_elapsed": 867867, "key_press": -1, "trial_index": 194}, "uniqueid": "MTK1681:3V26SBZTBELYKAXSHMPO8TQD5EKZZM", "dateTime": 1516128407806}, {"current_trial": 195, "trialdata": {"rt": -1, "trial_type": "single-stim", "stimulus": "<p id=\"stim\">1</p>", "internal_node_id": "0.0-141.0-9.0", "time_elapsed": 868871, "key_press": -1, "trial_index": 195}, "uniqueid": "MTK1681:3V26SBZTBELYKAXSHMPO8TQD5EKZZM", "dateTime": 1516128408810}, {"current_trial": 196, "trialdata": {"rt": -1, "trial_type": "single-stim", "stimulus": "<p id=\"stim\">+</p>", "internal_node_id": "0.0-142.0-0.0", "time_elapsed": 870374, "key_press": -1, "type": "FIXATION", "trial_index": 196}, "uniqueid": "MTK1681:3V26SBZTBELYKAXSHMPO8TQD5EKZZM", "dateTime": 1516128410313}, {"current_trial": 197, "trialdata": {"rt": -1000, "trial_type": "single-audio", "word": "creature", "stimulus": "/static/audio/wordpool/CREATURE.wav", "conditions": [12, 800, "a", 12000], "internal_node_id": "0.0-143.0", "trial": 5, "time_elapsed": 872062, "serialpos": 0, "key_press": -1, "wordID": 402, "type": "PRES_AUD", "trial_index": 197}, "uniqueid": "MTK1681:3V26SBZTBELYKAXSHMPO8TQD5EKZZM", "dateTime": 1516128412001}, {"current_trial": 198, "trialdata": {"rt": -1000, "trial_type": "single-audio", "word": "snake", "stimulus": "/static/audio/wordpool/SNAKE.wav", "conditions": [12, 800, "a", 12000], "internal_node_id": "0.0-144.0", "trial": 5, "time_elapsed": 873727, "serialpos": 1, "key_press": -1, "wordID": 1332, "type": "PRES_AUD", "trial_index": 198}, "uniqueid": "MTK1681:3V26SBZTBELYKAXSHMPO8TQD5EKZZM", "dateTime": 1516128413666}, {"current_trial": 199, "trialdata": {"rt": -1000, "trial_type": "single-audio", "word": "office", "stimulus": "/static/audio/wordpool/OFFICE.wav", "conditions": [12, 800, "a", 12000], "internal_node_id": "0.0-145.0", "trial": 5, "time_elapsed": 875660, "serialpos": 2, "key_press": -1, "wordID": 971, "type": "PRES_AUD", "trial_index": 199}, "uniqueid": "MTK1681:3V26SBZTBELYKAXSHMPO8TQD5EKZZM", "dateTime": 1516128415600}, {"current_trial": 200, "trialdata": {"rt": -1000, "trial_type": "single-audio", "word": "shirt", "stimulus": "/static/audio/wordpool/SHIRT.wav", "conditions": [12, 800, "a", 12000], "internal_node_id": "0.0-146.0", "trial": 5, "time_elapsed": 877336, "serialpos": 3, "key_press": -1, "wordID": 1286, "type": "PRES_AUD", "trial_index": 200}, "uniqueid": "MTK1681:3V26SBZTBELYKAXSHMPO8TQD5EKZZM", "dateTime": 1516128417275}, {"current_trial": 201, "trialdata": {"rt": -1000, "trial_type": "single-audio", "word": "twister", "stimulus": "/static/audio/wordpool/TWISTER.wav", "conditions": [12, 800, "a", 12000], "internal_node_id": "0.0-147.0", "trial": 5, "time_elapsed": 879225, "serialpos": 4, "key_press": -1, "wordID": 1529, "type": "PRES_AUD", "trial_index": 201}, "uniqueid": "MTK1681:3V26SBZTBELYKAXSHMPO8TQD5EKZZM", "dateTime": 1516128419165}, {"current_trial": 202, "trialdata": {"rt": -1000, "trial_type": "single-audio", "word": "donkey", "stimulus": "/static/audio/wordpool/DONKEY.wav", "conditions": [12, 800, "a", 12000], "internal_node_id": "0.0-148.0", "trial": 5, "time_elapsed": 881145, "serialpos": 5, "key_press": -1, "wordID": 483, "type": "PRES_AUD", "trial_index": 202}, "uniqueid": "MTK1681:3V26SBZTBELYKAXSHMPO8TQD5EKZZM", "dateTime": 1516128421084}, {"current_trial": 203, "trialdata": {"rt": -1000, "trial_type": "single-audio", "word": "pudding", "stimulus": "/static/audio/wordpool/PUDDING.wav", "conditions": [12, 800, "a", 12000], "internal_node_id": "0.0-149.0", "trial": 5, "time_elapsed": 882874, "serialpos": 6, "key_press": -1, "wordID": 1138, "type": "PRES_AUD", "trial_index": 203}, "uniqueid": "MTK1681:3V26SBZTBELYKAXSHMPO8TQD5EKZZM", "dateTime": 1516128422813}, {"current_trial": 204, "trialdata": {"rt": -1000, "trial_type": "single-audio", "word": "scallop", "stimulus": "/static/audio/wordpool/SCALLOP.wav", "conditions": [12, 800, "a", 12000], "internal_node_id": "0.0-150.0", "trial": 5, "time_elapsed": 884613, "serialpos": 7, "key_press": -1, "wordID": 1241, "type": "PRES_AUD", "trial_index": 204}, "uniqueid": "MTK1681:3V26SBZTBELYKAXSHMPO8TQD5EKZZM", "dateTime": 1516128424552}, {"current_trial": 205, "trialdata": {"rt": -1000, "trial_type": "single-audio", "word": "airplane", "stimulus": "/static/audio/wordpool/AIRPLANE.wav", "conditions": [12, 800, "a", 12000], "internal_node_id": "0.0-151.0", "trial": 5, "time_elapsed": 886275, "serialpos": 8, "key_press": -1, "wordID": 11, "type": "PRES_AUD", "trial_index": 205}, "uniqueid": "MTK1681:3V26SBZTBELYKAXSHMPO8TQD5EKZZM", "dateTime": 1516128426214}, {"current_trial": 206, "trialdata": {"rt": -1000, "trial_type": "single-audio", "word": "pimple", "stimulus": "/static/audio/wordpool/PIMPLE.wav", "conditions": [12, 800, "a", 12000], "internal_node_id": "0.0-152.0", "trial": 5, "time_elapsed": 888051, "serialpos": 9, "key_press": -1, "wordID": 1070, "type": "PRES_AUD", "trial_index": 206}, "uniqueid": "MTK1681:3V26SBZTBELYKAXSHMPO8TQD5EKZZM", "dateTime": 1516128427990}, {"current_trial": 207, "trialdata": {"rt": -1000, "trial_type": "single-audio", "word": "stream", "stimulus": "/static/audio/wordpool/STREAM.wav", "conditions": [12, 800, "a", 12000], "internal_node_id": "0.0-153.0", "trial": 5, "time_elapsed": 889845, "serialpos": 10, "key_press": -1, "wordID": 1391, "type": "PRES_AUD", "trial_index": 207}, "uniqueid": "MTK1681:3V26SBZTBELYKAXSHMPO8TQD5EKZZM", "dateTime": 1516128429784}, {"current_trial": 208, "trialdata": {"rt": -1000, "trial_type": "single-audio", "word": "headband", "stimulus": "/static/audio/wordpool/HEADBAND.wav", "conditions": [12, 800, "a", 12000], "internal_node_id": "0.0-154.0", "trial": 5, "time_elapsed": 891690, "serialpos": 11, "key_press": -1, "wordID": 695, "type": "PRES_AUD", "trial_index": 208}, "uniqueid": "MTK1681:3V26SBZTBELYKAXSHMPO8TQD5EKZZM", "dateTime": 1516128431629}, {"current_trial": 209, "trialdata": {"rt": -1, "trial_type": "single-stim", "stimulus": "", "internal_node_id": "0.0-155.0-0.0", "time_elapsed": 893066, "key_press": -1, "type": "PRE_RECALL_DELAY", "trial_index": 209}, "uniqueid": "MTK1681:3V26SBZTBELYKAXSHMPO8TQD5EKZZM", "dateTime": 1516128433005}, {"current_trial": 210, "trialdata": {"rt": -1000, "trial_type": "single-audio", "stimulus": "/static/audio/400Hz.wav", "internal_node_id": "0.0-156.0", "time_elapsed": 893568, "key_press": -1, "type": "PRE_RECALL_ALERT", "trial_index": 210}, "uniqueid": "MTK1681:3V26SBZTBELYKAXSHMPO8TQD5EKZZM", "dateTime": 1516128433507}, {"current_trial": 211, "trialdata": {"rt": [2536, 7360, 10624, 12904, 15752, 17919, 20407], "recwords": ["pimple", "stream", "headband", "creature", "snake", "office", "balloon"], "key_times": [1249, 1496, 1704, 1904, 2104, 2232, 2536, 2936, 3320, 3480, 3664, 3968, 4624, 4824, 4992, 5064, 6056, 6392, 6528, 6759, 7176, 7360, 8680, 8760, 8856, 9080, 9640, 9776, 9936, 10000, 10624, 10912, 11192, 11305, 11472, 11736, 12328, 12456, 12552, 12904, 14528, 14879, 14992, 15352, 15504, 15752, 16735, 16847, 17016, 17216, 17392, 17560, 17919, 18263, 18472, 18599, 18807, 19007, 19632, 19831, 20407], "trial_type": "free-recall", "conditions": [12, 800, "a", 12000], "internal_node_id": "0.0-157.0-0.0", "key_presses": [80, 73, 77, 80, 76, 69, 13, 83, 84, 82, 65, 77, 8, 8, 8, 69, 8, 82, 69, 65, 77, 32, 72, 69, 65, 68, 66, 65, 78, 68, 13, 67, 82, 69, 65, 84, 85, 82, 69, 13, 83, 78, 65, 75, 69, 13, 79, 70, 70, 73, 67, 69, 13, 66, 65, 76, 76, 79, 79, 78, 13], "trial": 5, "time_elapsed": 953571, "type": "FREE_RECALL", "trial_index": 211}, "uniqueid": "MTK1681:3V26SBZTBELYKAXSHMPO8TQD5EKZZM", "dateTime": 1516128493513}, {"current_trial": 212, "trialdata": {"rt": 1660, "trial_type": "text", "internal_node_id": "0.0-158.0", "time_elapsed": 957240, "key_press": 13, "type": "INSTRUCTIONS", "trial_index": 212}, "uniqueid": "MTK1681:3V26SBZTBELYKAXSHMPO8TQD5EKZZM", "dateTime": 1516128497179}, {"current_trial": 213, "trialdata": {"rt": [4196, 6493, 9540, 11796], "trial_type": "math-distractor", "key_times": [2348, 3284, 4196, 5964, 6332, 6493, 8573, 8764, 9540, 11005, 11636, 11796], "responses": ["18", "14", "14", "13"], "num2": [7, 5, 7, 1, 8], "num3": [6, 4, 1, 8, 8], "conditions": [24, 1600, "a", 12000], "internal_node_id": "0.0-159.0", "key_presses": [49, 56, 13, 49, 52, 13, 49, 52, 13, 49, 51, 13], "trial": 6, "time_elapsed": 971244, "type": "DISTRACTOR", "trial_index": 213, "num1": [5, 5, 6, 4, 1]}, "uniqueid": "MTK1681:3V26SBZTBELYKAXSHMPO8TQD5EKZZM", "dateTime": 1516128511183}, {"current_trial": 214, "trialdata": {"rt": -1, "trial_type": "single-stim", "stimulus": "<p id=\"stim\">10</p>", "internal_node_id": "0.0-160.0-0.0", "time_elapsed": 974250, "key_press": -1, "trial_index": 214}, "uniqueid": "MTK1681:3V26SBZTBELYKAXSHMPO8TQD5EKZZM", "dateTime": 1516128514189}, {"current_trial": 215, "trialdata": {"rt": -1, "trial_type": "single-stim", "stimulus": "<p id=\"stim\">9</p>", "internal_node_id": "0.0-160.0-1.0", "time_elapsed": 975254, "key_press": -1, "trial_index": 215}, "uniqueid": "MTK1681:3V26SBZTBELYKAXSHMPO8TQD5EKZZM", "dateTime": 1516128515193}, {"current_trial": 216, "trialdata": {"rt": -1, "trial_type": "single-stim", "stimulus": "<p id=\"stim\">8</p>", "internal_node_id": "0.0-160.0-2.0", "time_elapsed": 976259, "key_press": -1, "trial_index": 216}, "uniqueid": "MTK1681:3V26SBZTBELYKAXSHMPO8TQD5EKZZM", "dateTime": 1516128516198}, {"current_trial": 217, "trialdata": {"rt": -1, "trial_type": "single-stim", "stimulus": "<p id=\"stim\">7</p>", "internal_node_id": "0.0-160.0-3.0", "time_elapsed": 977262, "key_press": -1, "trial_index": 217}, "uniqueid": "MTK1681:3V26SBZTBELYKAXSHMPO8TQD5EKZZM", "dateTime": 1516128517201}, {"current_trial": 218, "trialdata": {"rt": -1, "trial_type": "single-stim", "stimulus": "<p id=\"stim\">6</p>", "internal_node_id": "0.0-160.0-4.0", "time_elapsed": 978266, "key_press": -1, "trial_index": 218}, "uniqueid": "MTK1681:3V26SBZTBELYKAXSHMPO8TQD5EKZZM", "dateTime": 1516128518205}, {"current_trial": 219, "trialdata": {"rt": -1, "trial_type": "single-stim", "stimulus": "<p id=\"stim\">5</p>", "internal_node_id": "0.0-160.0-5.0", "time_elapsed": 979270, "key_press": -1, "trial_index": 219}, "uniqueid": "MTK1681:3V26SBZTBELYKAXSHMPO8TQD5EKZZM", "dateTime": 1516128519210}, {"current_trial": 220, "trialdata": {"rt": -1, "trial_type": "single-stim", "stimulus": "<p id=\"stim\">4</p>", "internal_node_id": "0.0-160.0-6.0", "time_elapsed": 980274, "key_press": -1, "trial_index": 220}, "uniqueid": "MTK1681:3V26SBZTBELYKAXSHMPO8TQD5EKZZM", "dateTime": 1516128520214}, {"current_trial": 221, "trialdata": {"rt": -1, "trial_type": "single-stim", "stimulus": "<p id=\"stim\">3</p>", "internal_node_id": "0.0-160.0-7.0", "time_elapsed": 981279, "key_press": -1, "trial_index": 221}, "uniqueid": "MTK1681:3V26SBZTBELYKAXSHMPO8TQD5EKZZM", "dateTime": 1516128521218}, {"current_trial": 222, "trialdata": {"rt": -1, "trial_type": "single-stim", "stimulus": "<p id=\"stim\">2</p>", "internal_node_id": "0.0-160.0-8.0", "time_elapsed": 982283, "key_press": -1, "trial_index": 222}, "uniqueid": "MTK1681:3V26SBZTBELYKAXSHMPO8TQD5EKZZM", "dateTime": 1516128522222}, {"current_trial": 223, "trialdata": {"rt": -1, "trial_type": "single-stim", "stimulus": "<p id=\"stim\">1</p>", "internal_node_id": "0.0-160.0-9.0", "time_elapsed": 983287, "key_press": -1, "trial_index": 223}, "uniqueid": "MTK1681:3V26SBZTBELYKAXSHMPO8TQD5EKZZM", "dateTime": 1516128523226}, {"current_trial": 224, "trialdata": {"rt": -1, "trial_type": "single-stim", "stimulus": "<p id=\"stim\">+</p>", "internal_node_id": "0.0-161.0-0.0", "time_elapsed": 984790, "key_press": -1, "type": "FIXATION", "trial_index": 224}, "uniqueid": "MTK1681:3V26SBZTBELYKAXSHMPO8TQD5EKZZM", "dateTime": 1516128524729}, {"current_trial": 225, "trialdata": {"rt": -1000, "trial_type": "single-audio", "word": "pecan", "stimulus": "/static/audio/wordpool/PECAN.wav", "conditions": [24, 1600, "a", 12000], "internal_node_id": "0.0-162.0", "trial": 6, "time_elapsed": 987512, "serialpos": 0, "key_press": -1, "wordID": 1035, "type": "PRES_AUD", "trial_index": 225}, "uniqueid": "MTK1681:3V26SBZTBELYKAXSHMPO8TQD5EKZZM", "dateTime": 1516128527451}, {"current_trial": 226, "trialdata": {"rt": -1000, "trial_type": "single-audio", "word": "peach", "stimulus": "/static/audio/wordpool/PEACH.wav", "conditions": [24, 1600, "a", 12000], "internal_node_id": "0.0-163.0", "trial": 6, "time_elapsed": 990025, "serialpos": 1, "key_press": -1, "wordID": 1030, "type": "PRES_AUD", "trial_index": 226}, "uniqueid": "MTK1681:3V26SBZTBELYKAXSHMPO8TQD5EKZZM", "dateTime": 1516128529964}, {"current_trial": 227, "trialdata": {"rt": -1000, "trial_type": "single-audio", "word": "compass", "stimulus": "/static/audio/wordpool/COMPASS.wav", "conditions": [24, 1600, "a", 12000], "internal_node_id": "0.0-164.0", "trial": 6, "time_elapsed": 992621, "serialpos": 2, "key_press": -1, "wordID": 357, "type": "PRES_AUD", "trial_index": 227}, "uniqueid": "MTK1681:3V26SBZTBELYKAXSHMPO8TQD5EKZZM", "dateTime": 1516128532560}, {"current_trial": 228, "trialdata": {"rt": -1000, "trial_type": "single-audio", "word": "outdoors", "stimulus": "/static/audio/wordpool/OUTDOORS.wav", "conditions": [24, 1600, "a", 12000], "internal_node_id": "0.0-165.0", "trial": 6, "time_elapsed": 995155, "serialpos": 3, "key_press": -1, "wordID": 986, "type": "PRES_AUD", "trial_index": 228}, "uniqueid": "MTK1681:3V26SBZTBELYKAXSHMPO8TQD5EKZZM", "dateTime": 1516128535095}, {"current_trial": 229, "trialdata": {"rt": -1000, "trial_type": "single-audio", "word": "marine", "stimulus": "/static/audio/wordpool/MARINE.wav", "conditions": [24, 1600, "a", 12000], "internal_node_id": "0.0-166.0", "trial": 6, "time_elapsed": 997947, "serialpos": 4, "key_press": -1, "wordID": 868, "type": "PRES_AUD", "trial_index": 229}, "uniqueid": "MTK1681:3V26SBZTBELYKAXSHMPO8TQD5EKZZM", "dateTime": 1516128537886}, {"current_trial": 230, "trialdata": {"rt": -1000, "trial_type": "single-audio", "word": "bunny", "stimulus": "/static/audio/wordpool/BUNNY.wav", "conditions": [24, 1600, "a", 12000], "internal_node_id": "0.0-167.0", "trial": 6, "time_elapsed": 1000350, "serialpos": 5, "key_press": -1, "wordID": 197, "type": "PRES_AUD", "trial_index": 230}, "uniqueid": "MTK1681:3V26SBZTBELYKAXSHMPO8TQD5EKZZM", "dateTime": 1516128540290}, {"current_trial": 231, "trialdata": {"rt": -1000, "trial_type": "single-audio", "word": "custard", "stimulus": "/static/audio/wordpool/CUSTARD.wav", "conditions": [24, 1600, "a", 12000], "internal_node_id": "0.0-168.0", "trial": 6, "time_elapsed": 1002845, "serialpos": 6, "key_press": -1, "wordID": 428, "type": "PRES_AUD", "trial_index": 231}, "uniqueid": "MTK1681:3V26SBZTBELYKAXSHMPO8TQD5EKZZM", "dateTime": 1516128542784}, {"current_trial": 232, "trialdata": {"rt": -1000, "trial_type": "single-audio", "word": "hatchet", "stimulus": "/static/audio/wordpool/HATCHET.wav", "conditions": [24, 1600, "a", 12000], "internal_node_id": "0.0-169.0", "trial": 6, "time_elapsed": 1005489, "serialpos": 7, "key_press": -1, "wordID": 690, "type": "PRES_AUD", "trial_index": 232}, "uniqueid": "MTK1681:3V26SBZTBELYKAXSHMPO8TQD5EKZZM", "dateTime": 1516128545428}, {"current_trial": 233, "trialdata": {"rt": -1000, "trial_type": "single-audio", "word": "beaver", "stimulus": "/static/audio/wordpool/BEAVER.wav", "conditions": [24, 1600, "a", 12000], "internal_node_id": "0.0-170.0", "trial": 6, "time_elapsed": 1008016, "serialpos": 8, "key_press": -1, "wordID": 108, "type": "PRES_AUD", "trial_index": 233}, "uniqueid": "MTK1681:3V26SBZTBELYKAXSHMPO8TQD5EKZZM", "dateTime": 1516128547955}, {"current_trial": 234, "trialdata": {"rt": -1000, "trial_type": "single-audio", "word": "crutch", "stimulus": "/static/audio/wordpool/CRUTCH.wav", "conditions": [24, 1600, "a", 12000], "internal_node_id": "0.0-171.0", "trial": 6, "time_elapsed": 1010785, "serialpos": 9, "key_press": -1, "wordID": 416, "type": "PRES_AUD", "trial_index": 234}, "uniqueid": "MTK1681:3V26SBZTBELYKAXSHMPO8TQD5EKZZM", "dateTime": 1516128550724}, {"current_trial": 235, "trialdata": {"rt": -1000, "trial_type": "single-audio", "word": "chipmunk", "stimulus": "/static/audio/wordpool/CHIPMUNK.wav", "conditions": [24, 1600, "a", 12000], "internal_node_id": "0.0-172.0", "trial": 6, "time_elapsed": 1013478, "serialpos": 10, "key_press": -1, "wordID": 303, "type": "PRES_AUD", "trial_index": 235}, "uniqueid": "MTK1681:3V26SBZTBELYKAXSHMPO8TQD5EKZZM", "dateTime": 1516128553417}, {"current_trial": 236, "trialdata": {"rt": -1000, "trial_type": "single-audio", "word": "cellar", "stimulus": "/static/audio/wordpool/CELLAR.wav", "conditions": [24, 1600, "a", 12000], "internal_node_id": "0.0-173.0", "trial": 6, "time_elapsed": 1016078, "serialpos": 11, "key_press": -1, "wordID": 266, "type": "PRES_AUD", "trial_index": 236}, "uniqueid": "MTK1681:3V26SBZTBELYKAXSHMPO8TQD5EKZZM", "dateTime": 1516128556017}, {"current_trial": 237, "trialdata": {"rt": -1000, "trial_type": "single-audio", "word": "seafood", "stimulus": "/static/audio/wordpool/SEAFOOD.wav", "conditions": [24, 1600, "a", 12000], "internal_node_id": "0.0-174.0", "trial": 6, "time_elapsed": 1018568, "serialpos": 12, "key_press": -1, "wordID": 1259, "type": "PRES_AUD", "trial_index": 237}, "uniqueid": "MTK1681:3V26SBZTBELYKAXSHMPO8TQD5EKZZM", "dateTime": 1516128558507}, {"current_trial": 238, "trialdata": {"rt": -1000, "trial_type": "single-audio", "word": "report", "stimulus": "/static/audio/wordpool/REPORT.wav", "conditions": [24, 1600, "a", 12000], "internal_node_id": "0.0-175.0", "trial": 6, "time_elapsed": 1021191, "serialpos": 13, "key_press": -1, "wordID": 1183, "type": "PRES_AUD", "trial_index": 238}, "uniqueid": "MTK1681:3V26SBZTBELYKAXSHMPO8TQD5EKZZM", "dateTime": 1516128561130}, {"current_trial": 239, "trialdata": {"rt": -1000, "trial_type": "single-audio", "word": "tutu", "stimulus": "/static/audio/wordpool/TUTU.wav", "conditions": [24, 1600, "a", 12000], "internal_node_id": "0.0-176.0", "trial": 6, "time_elapsed": 1023879, "serialpos": 14, "key_press": -1, "wordID": 1523, "type": "PRES_AUD", "trial_index": 239}, "uniqueid": "MTK1681:3V26SBZTBELYKAXSHMPO8TQD5EKZZM", "dateTime": 1516128563818}, {"current_trial": 240, "trialdata": {"rt": -1000, "trial_type": "single-audio", "word": "cook", "stimulus": "/static/audio/wordpool/COOK.wav", "conditions": [24, 1600, "a", 12000], "internal_node_id": "0.0-177.0", "trial": 6, "time_elapsed": 1026394, "serialpos": 15, "key_press": -1, "wordID": 371, "type": "PRES_AUD", "trial_index": 240}, "uniqueid": "MTK1681:3V26SBZTBELYKAXSHMPO8TQD5EKZZM", "dateTime": 1516128566333}, {"current_trial": 241, "trialdata": {"rt": -1000, "trial_type": "single-audio", "word": "orchid", "stimulus": "/static/audio/wordpool/ORCHID.wav", "conditions": [24, 1600, "a", 12000], "internal_node_id": "0.0-178.0", "trial": 6, "time_elapsed": 1029009, "serialpos": 16, "key_press": -1, "wordID": 981, "type": "PRES_AUD", "trial_index": 241}, "uniqueid": "MTK1681:3V26SBZTBELYKAXSHMPO8TQD5EKZZM", "dateTime": 1516128568948}, {"current_trial": 242, "trialdata": {"rt": -1000, "trial_type": "single-audio", "word": "lily", "stimulus": "/static/audio/wordpool/LILY.wav", "conditions": [24, 1600, "a", 12000], "internal_node_id": "0.0-179.0", "trial": 6, "time_elapsed": 1031749, "serialpos": 17, "key_press": -1, "wordID": 820, "type": "PRES_AUD", "trial_index": 242}, "uniqueid": "MTK1681:3V26SBZTBELYKAXSHMPO8TQD5EKZZM", "dateTime": 1516128571688}, {"current_trial": 243, "trialdata": {"rt": -1000, "trial_type": "single-audio", "word": "clam", "stimulus": "/static/audio/wordpool/CLAM.wav", "conditions": [24, 1600, "a", 12000], "internal_node_id": "0.0-180.0", "trial": 6, "time_elapsed": 1034275, "serialpos": 18, "key_press": -1, "wordID": 314, "type": "PRES_AUD", "trial_index": 243}, "uniqueid": "MTK1681:3V26SBZTBELYKAXSHMPO8TQD5EKZZM", "dateTime": 1516128574214}, {"current_trial": 244, "trialdata": {"rt": -1000, "trial_type": "single-audio", "word": "napkin", "stimulus": "/static/audio/wordpool/NAPKIN.wav", "conditions": [24, 1600, "a", 12000], "internal_node_id": "0.0-181.0", "trial": 6, "time_elapsed": 1036957, "serialpos": 19, "key_press": -1, "wordID": 936, "type": "PRES_AUD", "trial_index": 244}, "uniqueid": "MTK1681:3V26SBZTBELYKAXSHMPO8TQD5EKZZM", "dateTime": 1516128576896}, {"current_trial": 245, "trialdata": {"rt": -1000, "trial_type": "single-audio", "word": "citrus", "stimulus": "/static/audio/wordpool/CITRUS.wav", "conditions": [24, 1600, "a", 12000], "internal_node_id": "0.0-182.0", "trial": 6, "time_elapsed": 1039578, "serialpos": 20, "key_press": -1, "wordID": 312, "type": "PRES_AUD", "trial_index": 245}, "uniqueid": "MTK1681:3V26SBZTBELYKAXSHMPO8TQD5EKZZM", "dateTime": 1516128579517}, {"current_trial": 246, "trialdata": {"rt": -1000, "trial_type": "single-audio", "word": "flute", "stimulus": "/static/audio/wordpool/FLUTE.wav", "conditions": [24, 1600, "a", 12000], "internal_node_id": "0.0-183.0", "trial": 6, "time_elapsed": 1042338, "serialpos": 21, "key_press": -1, "wordID": 584, "type": "PRES_AUD", "trial_index": 246}, "uniqueid": "MTK1681:3V26SBZTBELYKAXSHMPO8TQD5EKZZM", "dateTime": 1516128582278}, {"current_trial": 247, "trialdata": {"rt": -1000, "trial_type": "single-audio", "word": "actress", "stimulus": "/static/audio/wordpool/ACTRESS.wav", "conditions": [24, 1600, "a", 12000], "internal_node_id": "0.0-184.0", "trial": 6, "time_elapsed": 1044987, "serialpos": 22, "key_press": -1, "wordID": 5, "type": "PRES_AUD", "trial_index": 247}, "uniqueid": "MTK1681:3V26SBZTBELYKAXSHMPO8TQD5EKZZM", "dateTime": 1516128584926}, {"current_trial": 248, "trialdata": {"rt": -1000, "trial_type": "single-audio", "word": "dress", "stimulus": "/static/audio/wordpool/DRESS.wav", "conditions": [24, 1600, "a", 12000], "internal_node_id": "0.0-185.0", "trial": 6, "time_elapsed