{"condition": 0, "counterbalance": 884, "assignmentId": "30IQTZXKALDCDURNCAOB597GCDTX0U", "workerId": "MTK1275", "hitId": "3CIS7GGG65QH0WESPA71H7EWXEWEUP", "currenttrial": 626, "bonus": 0, "data": [{"uniqueid": "MTK1275:30IQTZXKALDCDURNCAOB597GCDTX0U", "current_trial": 0, "dateTime": 1513492283883, "trialdata": {"rt": 16942, "key_press": 32, "type": "INSTRUCTIONS", "trial_type": "text", "trial_index": 0, "time_elapsed": 16951, "internal_node_id": "0.0-0.0"}}, {"uniqueid": "MTK1275:30IQTZXKALDCDURNCAOB597GCDTX0U", "current_trial": 1, "dateTime": 1513492344275, "trialdata": {"rt": 60387, "key_press": 32, "type": "INSTRUCTIONS", "trial_type": "text", "trial_index": 1, "time_elapsed": 77345, "internal_node_id": "0.0-1.0"}}, {"uniqueid": "MTK1275:30IQTZXKALDCDURNCAOB597GCDTX0U", "current_trial": 2, "dateTime": 1513492353040, "trialdata": {"rt": [8706], "responses": ["ocean"], "type": "AUDIO_TEST", "trial_type": "audio-test", "trial_index": 2, "time_elapsed": 86110, "internal_node_id": "0.0-2.0"}}, {"uniqueid": "MTK1275:30IQTZXKALDCDURNCAOB597GCDTX0U", "current_trial": 3, "dateTime": 1513492360735, "trialdata": {"rt": [7672], "responses": ["crystal"], "type": "AUDIO_TEST", "trial_type": "audio-test", "trial_index": 3, "time_elapsed": 93805, "internal_node_id": "0.0-3.0"}}, {"uniqueid": "MTK1275:30IQTZXKALDCDURNCAOB597GCDTX0U", "current_trial": 4, "dateTime": 1513492367665, "trialdata": {"rt": [6908], "responses": ["spice"], "type": "AUDIO_TEST", "trial_type": "audio-test", "trial_index": 4, "time_elapsed": 100736, "internal_node_id": "0.0-4.0"}}, {"uniqueid": "MTK1275:30IQTZXKALDCDURNCAOB597GCDTX0U", "current_trial": 5, "dateTime": 1513492391131, "trialdata": {"rt": 22706, "responses": "{\"Q0\":\"1.30am\",\"Q1\":\"8.30am\",\"Q2\":\"5\"}", "type": "SLEEP_SURVEY", "trial_type": "survey-text", "trial_index": 5, "time_elapsed": 124202, "internal_node_id": "0.0-5.0"}}, {"uniqueid": "MTK1275:30IQTZXKALDCDURNCAOB597GCDTX0U", "current_trial": 6, "dateTime": 1513492446283, "trialdata": {"rt": 54146, "key_press": 32, "type": "INSTRUCTIONS", "trial_type": "text", "trial_index": 6, "time_elapsed": 179353, "internal_node_id": "0.0-6.0"}}, {"uniqueid": "MTK1275:30IQTZXKALDCDURNCAOB597GCDTX0U", "current_trial": 7, "dateTime": 1513492456910, "trialdata": {"rt": 10123, "key_press": 32, "type": "INSTRUCTIONS", "trial_type": "text", "trial_index": 7, "time_elapsed": 189980, "internal_node_id": "0.0-7.0"}}, {"uniqueid": "MTK1275:30IQTZXKALDCDURNCAOB597GCDTX0U", "current_trial": 8, "dateTime": 1513492466711, "trialdata": {"rt": 9297, "key_press": 32, "type": "INSTRUCTIONS", "trial_type": "text", "trial_index": 8, "time_elapsed": 199781, "internal_node_id": "0.0-8.0"}}, {"uniqueid": "MTK1275:30IQTZXKALDCDURNCAOB597GCDTX0U", "current_trial": 9, "dateTime": 1513492485726, "trialdata": {"rt": [4293, 6852, 11240, 14470, 17236], "responses": ["3 ", "10", "22", "13", "16"], "num1": [1, 3, 7, 3, 5, 5], "num2": [1, 5, 8, 3, 4, 6], "num3": [1, 2, 7, 7, 6, 4], "type": "DISTRACTOR", "conditions": [18, 1200, "a", 18000], "trial": 0, "trial_type": "math-distractor", "trial_index": 9, "time_elapsed": 218797, "internal_node_id": "0.0-9.0"}}, {"uniqueid": "MTK1275:30IQTZXKALDCDURNCAOB597GCDTX0U", "current_trial": 10, "dateTime": 1513492488735, "trialdata": {"rt": -1, "stimulus": "<p id=\"stim\">10</p>", "key_press": -1, "trial_type": "single-stim", "trial_index": 10, "time_elapsed": 221806, "internal_node_id": "0.0-10.0-0.0"}}, {"uniqueid": "MTK1275:30IQTZXKALDCDURNCAOB597GCDTX0U", "current_trial": 11, "dateTime": 1513492489738, "trialdata": {"rt": -1, "stimulus": "<p id=\"stim\">9</p>", "key_press": -1, "trial_type": "single-stim", "trial_index": 11, "time_elapsed": 222809, "internal_node_id": "0.0-10.0-1.0"}}, {"uniqueid": "MTK1275:30IQTZXKALDCDURNCAOB597GCDTX0U", "current_trial": 12, "dateTime": 1513492490740, "trialdata": {"rt": -1, "stimulus": "<p id=\"stim\">8</p>", "key_press": -1, "trial_type": "single-stim", "trial_index": 12, "time_elapsed": 223811, "internal_node_id": "0.0-10.0-2.0"}}, {"uniqueid": "MTK1275:30IQTZXKALDCDURNCAOB597GCDTX0U", "current_trial": 13, "dateTime": 1513492491746, "trialdata": {"rt": -1, "stimulus": "<p id=\"stim\">7</p>", "key_press": -1, "trial_type": "single-stim", "trial_index": 13, "time_elapsed": 224816, "internal_node_id": "0.0-10.0-3.0"}}, {"uniqueid": "MTK1275:30IQTZXKALDCDURNCAOB597GCDTX0U", "current_trial": 14, "dateTime": 1513492492748, "trialdata": {"rt": -1, "stimulus": "<p id=\"stim\">6</p>", "key_press": -1, "trial_type": "single-stim", "trial_index": 14, "time_elapsed": 225819, "internal_node_id": "0.0-10.0-4.0"}}, {"uniqueid": "MTK1275:30IQTZXKALDCDURNCAOB597GCDTX0U", "current_trial": 15, "dateTime": 1513492493751, "trialdata": {"rt": -1, "stimulus": "<p id=\"stim\">5</p>", "key_press": -1, "trial_type": "single-stim", "trial_index": 15, "time_elapsed": 226822, "internal_node_id": "0.0-10.0-5.0"}}, {"uniqueid": "MTK1275:30IQTZXKALDCDURNCAOB597GCDTX0U", "current_trial": 16, "dateTime": 1513492494755, "trialdata": {"rt": -1, "stimulus": "<p id=\"stim\">4</p>", "key_press": -1, "trial_type": "single-stim", "trial_index": 16, "time_elapsed": 227826, "internal_node_id": "0.0-10.0-6.0"}}, {"uniqueid": "MTK1275:30IQTZXKALDCDURNCAOB597GCDTX0U", "current_trial": 17, "dateTime": 1513492495758, "trialdata": {"rt": -1, "stimulus": "<p id=\"stim\">3</p>", "key_press": -1, "trial_type": "single-stim", "trial_index": 17, "time_elapsed": 228829, "internal_node_id": "0.0-10.0-7.0"}}, {"uniqueid": "MTK1275:30IQTZXKALDCDURNCAOB597GCDTX0U", "current_trial": 18, "dateTime": 1513492496761, "trialdata": {"rt": -1, "stimulus": "<p id=\"stim\">2</p>", "key_press": -1, "trial_type": "single-stim", "trial_index": 18, "time_elapsed": 229832, "internal_node_id": "0.0-10.0-8.0"}}, {"uniqueid": "MTK1275:30IQTZXKALDCDURNCAOB597GCDTX0U", "current_trial": 19, "dateTime": 1513492497764, "trialdata": {"rt": -1, "stimulus": "<p id=\"stim\">1</p>", "key_press": -1, "trial_type": "single-stim", "trial_index": 19, "time_elapsed": 230835, "internal_node_id": "0.0-10.0-9.0"}}, {"uniqueid": "MTK1275:30IQTZXKALDCDURNCAOB597GCDTX0U", "current_trial": 20, "dateTime": 1513492499267, "trialdata": {"rt": -1, "stimulus": "<p id=\"stim\">+</p>", "key_press": -1, "type": "FIXATION", "trial_type": "single-stim", "trial_index": 20, "time_elapsed": 232338, "internal_node_id": "0.0-11.0-0.0"}}, {"uniqueid": "MTK1275:30IQTZXKALDCDURNCAOB597GCDTX0U", "current_trial": 21, "dateTime": 1513492501428, "trialdata": {"rt": -1000, "stimulus": "/static/audio/wordpool/CARROT.wav", "key_press": -1, "type": "PRES_AUD", "word": "carrot", "wordID": 248, "conditions": [18, 1200, "a", 18000], "trial": 0, "serialpos": 0, "trial_type": "single-audio", "trial_index": 21, "time_elapsed": 234498, "internal_node_id": "0.0-12.0"}}, {"uniqueid": "MTK1275:30IQTZXKALDCDURNCAOB597GCDTX0U", "current_trial": 22, "dateTime": 1513492503500, "trialdata": {"rt": -1000, "stimulus": "/static/audio/wordpool/WIDOW.wav", "key_press": -1, "type": "PRES_AUD", "word": "widow", "wordID": 1607, "conditions": [18, 1200, "a", 18000], "trial": 0, "serialpos": 1, "trial_type": "single-audio", "trial_index": 22, "time_elapsed": 236571, "internal_node_id": "0.0-13.0"}}, {"uniqueid": "MTK1275:30IQTZXKALDCDURNCAOB597GCDTX0U", "current_trial": 23, "dateTime": 1513492505875, "trialdata": {"rt": -1000, "stimulus": "/static/audio/wordpool/THIEF.wav", "key_press": -1, "type": "PRES_AUD", "word": "thief", "wordID": 1455, "conditions": [18, 1200, "a", 18000], "trial": 0, "serialpos": 2, "trial_type": "single-audio", "trial_index": 23, "time_elapsed": 238945, "internal_node_id": "0.0-14.0"}}, {"uniqueid": "MTK1275:30IQTZXKALDCDURNCAOB597GCDTX0U", "current_trial": 24, "dateTime": 1513492508037, "trialdata": {"rt": -1000, "stimulus": "/static/audio/wordpool/WORLD.wav", "key_press": -1, "type": "PRES_AUD", "word": "world", "wordID": 1621, "conditions": [18, 1200, "a", 18000], "trial": 0, "serialpos": 3, "trial_type": "single-audio", "trial_index": 24, "time_elapsed": 241108, "internal_node_id": "0.0-15.0"}}, {"uniqueid": "MTK1275:30IQTZXKALDCDURNCAOB597GCDTX0U", "current_trial": 25, "dateTime": 1513492510078, "trialdata": {"rt": -1000, "stimulus": "/static/audio/wordpool/XEROX.wav", "key_press": -1, "type": "PRES_AUD", "word": "xerox", "wordID": 1627, "conditions": [18, 1200, "a", 18000], "trial": 0, "serialpos": 4, "trial_type": "single-audio", "trial_index": 25, "time_elapsed": 243148, "internal_node_id": "0.0-16.0"}}, {"uniqueid": "MTK1275:30IQTZXKALDCDURNCAOB597GCDTX0U", "current_trial": 26, "dateTime": 1513492512139, "trialdata": {"rt": -1000, "stimulus": "/static/audio/wordpool/STOMACH.wav", "key_press": -1, "type": "PRES_AUD", "word": "stomach", "wordID": 1383, "conditions": [18, 1200, "a", 18000], "trial": 0, "serialpos": 5, "trial_type": "single-audio", "trial_index": 26, "time_elapsed": 245210, "internal_node_id": "0.0-17.0"}}, {"uniqueid": "MTK1275:30IQTZXKALDCDURNCAOB597GCDTX0U", "current_trial": 27, "dateTime": 1513492514452, "trialdata": {"rt": -1000, "stimulus": "/static/audio/wordpool/CAPTIVE.wav", "key_press": -1, "type": "PRES_AUD", "word": "captive", "wordID": 239, "conditions": [18, 1200, "a", 18000], "trial": 0, "serialpos": 6, "trial_type": "single-audio", "trial_index": 27, "time_elapsed": 247523, "internal_node_id": "0.0-18.0"}}, {"uniqueid": "MTK1275:30IQTZXKALDCDURNCAOB597GCDTX0U", "current_trial": 28, "dateTime": 1513492516472, "trialdata": {"rt": -1000, "stimulus": "/static/audio/wordpool/WRENCH.wav", "key_press": -1, "type": "PRES_AUD", "word": "wrench", "wordID": 1624, "conditions": [18, 1200, "a", 18000], "trial": 0, "serialpos": 7, "trial_type": "single-audio", "trial_index": 28, "time_elapsed": 249543, "internal_node_id": "0.0-19.0"}}, {"uniqueid": "MTK1275:30IQTZXKALDCDURNCAOB597GCDTX0U", "current_trial": 29, "dateTime": 1513492518789, "trialdata": {"rt": -1000, "stimulus": "/static/audio/wordpool/LAVA.wav", "key_press": -1, "type": "PRES_AUD", "word": "lava", "wordID": 803, "conditions": [18, 1200, "a", 18000], "trial": 0, "serialpos": 8, "trial_type": "single-audio", "trial_index": 29, "time_elapsed": 251860, "internal_node_id": "0.0-20.0"}}, {"uniqueid": "MTK1275:30IQTZXKALDCDURNCAOB597GCDTX0U", "current_trial": 30, "dateTime": 1513492521124, "trialdata": {"rt": -1000, "stimulus": "/static/audio/wordpool/HEDGE.wav", "key_press": -1, "type": "PRES_AUD", "word": "hedge", "wordID": 698, "conditions": [18, 1200, "a", 18000], "trial": 0, "serialpos": 9, "trial_type": "single-audio", "trial_index": 30, "time_elapsed": 254195, "internal_node_id": "0.0-21.0"}}, {"uniqueid": "MTK1275:30IQTZXKALDCDURNCAOB597GCDTX0U", "current_trial": 31, "dateTime": 1513492523443, "trialdata": {"rt": -1000, "stimulus": "/static/audio/wordpool/MOTEL.wav", "key_press": -1, "type": "PRES_AUD", "word": "motel", "wordID": 918, "conditions": [18, 1200, "a", 18000], "trial": 0, "serialpos": 10, "trial_type": "single-audio", "trial_index": 31, "time_elapsed": 256514, "internal_node_id": "0.0-22.0"}}, {"uniqueid": "MTK1275:30IQTZXKALDCDURNCAOB597GCDTX0U", "current_trial": 32, "dateTime": 1513492525751, "trialdata": {"rt": -1000, "stimulus": "/static/audio/wordpool/SADDLE.wav", "key_press": -1, "type": "PRES_AUD", "word": "saddle", "wordID": 1220, "conditions": [18, 1200, "a", 18000], "trial": 0, "serialpos": 11, "trial_type": "single-audio", "trial_index": 32, "time_elapsed": 258822, "internal_node_id": "0.0-23.0"}}, {"uniqueid": "MTK1275:30IQTZXKALDCDURNCAOB597GCDTX0U", "current_trial": 33, "dateTime": 1513492527967, "trialdata": {"rt": -1000, "stimulus": "/static/audio/wordpool/SHOULDER.wav", "key_press": -1, "type": "PRES_AUD", "word": "shoulder", "wordID": 1293, "conditions": [18, 1200, "a", 18000], "trial": 0, "serialpos": 12, "trial_type": "single-audio", "trial_index": 33, "time_elapsed": 261038, "internal_node_id": "0.0-24.0"}}, {"uniqueid": "MTK1275:30IQTZXKALDCDURNCAOB597GCDTX0U", "current_trial": 34, "dateTime": 1513492530101, "trialdata": {"rt": -1000, "stimulus": "/static/audio/wordpool/ORANGE.wav", "key_press": -1, "type": "PRES_AUD", "word": "orange", "wordID": 979, "conditions": [18, 1200, "a", 18000], "trial": 0, "serialpos": 13, "trial_type": "single-audio", "trial_index": 34, "time_elapsed": 263171, "internal_node_id": "0.0-25.0"}}, {"uniqueid": "MTK1275:30IQTZXKALDCDURNCAOB597GCDTX0U", "current_trial": 35, "dateTime": 1513492532188, "trialdata": {"rt": -1000, "stimulus": "/static/audio/wordpool/ONION.wav", "key_press": -1, "type": "PRES_AUD", "word": "onion", "wordID": 976, "conditions": [18, 1200, "a", 18000], "trial": 0, "serialpos": 14, "trial_type": "single-audio", "trial_index": 35, "time_elapsed": 265259, "internal_node_id": "0.0-26.0"}}, {"uniqueid": "MTK1275:30IQTZXKALDCDURNCAOB597GCDTX0U", "current_trial": 36, "dateTime": 1513492534278, "trialdata": {"rt": -1000, "stimulus": "/static/audio/wordpool/COCOON.wav", "key_press": -1, "type": "PRES_AUD", "word": "cocoon", "wordID": 338, "conditions": [18, 1200, "a", 18000], "trial": 0, "serialpos": 15, "trial_type": "single-audio", "trial_index": 36, "time_elapsed": 267349, "internal_node_id": "0.0-27.0"}}, {"uniqueid": "MTK1275:30IQTZXKALDCDURNCAOB597GCDTX0U", "current_trial": 37, "dateTime": 1513492536491, "trialdata": {"rt": -1000, "stimulus": "/static/audio/wordpool/MUSTARD.wav", "key_press": -1, "type": "PRES_AUD", "word": "mustard", "wordID": 934, "conditions": [18, 1200, "a", 18000], "trial": 0, "serialpos": 16, "trial_type": "single-audio", "trial_index": 37, "time_elapsed": 269562, "internal_node_id": "0.0-28.0"}}, {"uniqueid": "MTK1275:30IQTZXKALDCDURNCAOB597GCDTX0U", "current_trial": 38, "dateTime": 1513492538579, "trialdata": {"rt": -1000, "stimulus": "/static/audio/wordpool/GIRL.wav", "key_press": -1, "type": "PRES_AUD", "word": "girl", "wordID": 636, "conditions": [18, 1200, "a", 18000], "trial": 0, "serialpos": 17, "trial_type": "single-audio", "trial_index": 38, "time_elapsed": 271650, "internal_node_id": "0.0-29.0"}}, {"uniqueid": "MTK1275:30IQTZXKALDCDURNCAOB597GCDTX0U", "current_trial": 39, "dateTime": 1513492539961, "trialdata": {"rt": -1, "stimulus": "", "key_press": -1, "type": "PRE_RECALL_DELAY", "trial_type": "single-stim", "trial_index": 39, "time_elapsed": 273031, "internal_node_id": "0.0-30.0-0.0"}}, {"uniqueid": "MTK1275:30IQTZXKALDCDURNCAOB597GCDTX0U", "current_trial": 40, "dateTime": 1513492540462, "trialdata": {"rt": -1000, "stimulus": "/static/audio/400Hz.wav", "key_press": -1, "type": "PRE_RECALL_ALERT", "trial_type": "single-audio", "trial_index": 40, "time_elapsed": 273533, "internal_node_id": "0.0-31.0"}}, {"uniqueid": "MTK1275:30IQTZXKALDCDURNCAOB597GCDTX0U", "current_trial": 41, "dateTime": 1513492600478, "trialdata": {"rt": [6900, 12625, 17426, 20473, 24783, 33725, 39555, 48635, 55457], "recwords": ["girl", "onion", "shoulder", "thief", "stomach", "captive", "lash", "hotel", "orange"], "type": "FREE_RECALL", "conditions": [18, 1200, "a", 18000], "trial": 0, "trial_type": "free-recall", "trial_index": 41, "time_elapsed": 333538, "internal_node_id": "0.0-32.0-0.0"}}, {"uniqueid": "MTK1275:30IQTZXKALDCDURNCAOB597GCDTX0U", "current_trial": 42, "dateTime": 1513492604056, "trialdata": {"rt": 1575, "key_press": 32, "type": "INSTRUCTIONS", "trial_type": "text", "trial_index": 42, "time_elapsed": 337127, "internal_node_id": "0.0-33.0"}}, {"uniqueid": "MTK1275:30IQTZXKALDCDURNCAOB597GCDTX0U", "current_trial": 43, "dateTime": 1513492624065, "trialdata": {"rt": [3872, 5573, 7528, 9004, 10875, 12295, 14536], "responses": ["17", "6", "12", "12", "16", "1", "15"], "num1": [9, 3, 2, 9, 3, 5, 5, 9], "num2": [4, 2, 4, 1, 7, 1, 3, 2], "num3": [4, 1, 6, 2, 6, 5, 7, 7], "type": "DISTRACTOR", "conditions": [18, 1200, "v", 18000], "trial": 1, "trial_type": "math-distractor", "trial_index": 43, "time_elapsed": 357135, "internal_node_id": "0.0-34.0"}}, {"uniqueid": "MTK1275:30IQTZXKALDCDURNCAOB597GCDTX0U", "current_trial": 44, "dateTime": 1513492627068, "trialdata": {"rt": -1, "stimulus": "<p id=\"stim\">10</p>", "key_press": -1, "trial_type": "single-stim", "trial_index": 44, "time_elapsed": 360138, "internal_node_id": "0.0-35.0-0.0"}}, {"uniqueid": "MTK1275:30IQTZXKALDCDURNCAOB597GCDTX0U", "current_trial": 45, "dateTime": 1513492628070, "trialdata": {"rt": -1, "stimulus": "<p id=\"stim\">9</p>", "key_press": -1, "trial_type": "single-stim", "trial_index": 45, "time_elapsed": 361141, "internal_node_id": "0.0-35.0-1.0"}}, {"uniqueid": "MTK1275:30IQTZXKALDCDURNCAOB597GCDTX0U", "current_trial": 46, "dateTime": 1513492629073, "trialdata": {"rt": -1, "stimulus": "<p id=\"stim\">8</p>", "key_press": -1, "trial_type": "single-stim", "trial_index": 46, "time_elapsed": 362144, "internal_node_id": "0.0-35.0-2.0"}}, {"uniqueid": "MTK1275:30IQTZXKALDCDURNCAOB597GCDTX0U", "current_trial": 47, "dateTime": 1513492630076, "trialdata": {"rt": -1, "stimulus": "<p id=\"stim\">7</p>", "key_press": -1, "trial_type": "single-stim", "trial_index": 47, "time_elapsed": 363147, "internal_node_id": "0.0-35.0-3.0"}}, {"uniqueid": "MTK1275:30IQTZXKALDCDURNCAOB597GCDTX0U", "current_trial": 48, "dateTime": 1513492631080, "trialdata": {"rt": -1, "stimulus": "<p id=\"stim\">6</p>", "key_press": -1, "trial_type": "single-stim", "trial_index": 48, "time_elapsed": 364150, "internal_node_id": "0.0-35.0-4.0"}}, {"uniqueid": "MTK1275:30IQTZXKALDCDURNCAOB597GCDTX0U", "current_trial": 49, "dateTime": 1513492632082, "trialdata": {"rt": -1, "stimulus": "<p id=\"stim\">5</p>", "key_press": -1, "trial_type": "single-stim", "trial_index": 49, "time_elapsed": 365153, "internal_node_id": "0.0-35.0-5.0"}}, {"uniqueid": "MTK1275:30IQTZXKALDCDURNCAOB597GCDTX0U", "current_trial": 50, "dateTime": 1513492633085, "trialdata": {"rt": -1, "stimulus": "<p id=\"stim\">4</p>", "key_press": -1, "trial_type": "single-stim", "trial_index": 50, "time_elapsed": 366156, "internal_node_id": "0.0-35.0-6.0"}}, {"uniqueid": "MTK1275:30IQTZXKALDCDURNCAOB597GCDTX0U", "current_trial": 51, "dateTime": 1513492634088, "trialdata": {"rt": -1, "stimulus": "<p id=\"stim\">3</p>", "key_press": -1, "trial_type": "single-stim", "trial_index": 51, "time_elapsed": 367159, "internal_node_id": "0.0-35.0-7.0"}}, {"uniqueid": "MTK1275:30IQTZXKALDCDURNCAOB597GCDTX0U", "current_trial": 52, "dateTime": 1513492635091, "trialdata": {"rt": -1, "stimulus": "<p id=\"stim\">2</p>", "key_press": -1, "trial_type": "single-stim", "trial_index": 52, "time_elapsed": 368162, "internal_node_id": "0.0-35.0-8.0"}}, {"uniqueid": "MTK1275:30IQTZXKALDCDURNCAOB597GCDTX0U", "current_trial": 53, "dateTime": 1513492636094, "trialdata": {"rt": -1, "stimulus": "<p id=\"stim\">1</p>", "key_press": -1, "trial_type": "single-stim", "trial_index": 53, "time_elapsed": 369165, "internal_node_id": "0.0-35.0-9.0"}}, {"uniqueid": "MTK1275:30IQTZXKALDCDURNCAOB597GCDTX0U", "current_trial": 54, "dateTime": 1513492637597, "trialdata": {"rt": -1, "stimulus": "<p id=\"stim\">+</p>", "key_press": -1, "type": "FIXATION", "trial_type": "single-stim", "trial_index": 54, "time_elapsed": 370668, "internal_node_id": "0.0-36.0-0.0"}}, {"uniqueid": "MTK1275:30IQTZXKALDCDURNCAOB597GCDTX0U", "current_trial": 55, "dateTime": 1513492638800, "trialdata": {"rt": -1, "stimulus": "<p id=\"stim\">MUMMY</p>", "key_press": -1, "type": "PRES_VIS", "word": "mummy", "wordID": 931, "conditions": [18, 1200, "v", 18000], "trial": 1, "serialpos": 0, "trial_type": "single-stim", "trial_index": 55, "time_elapsed": 371871, "internal_node_id": "0.0-37.0"}}, {"uniqueid": "MTK1275:30IQTZXKALDCDURNCAOB597GCDTX0U", "current_trial": 56, "dateTime": 1513492641035, "trialdata": {"rt": -1, "stimulus": "<p id=\"stim\">RECORD</p>", "key_press": -1, "type": "PRES_VIS", "word": "record", "wordID": 1175, "conditions": [18, 1200, "v", 18000], "trial": 1, "serialpos": 1, "trial_type": "single-stim", "trial_index": 56, "time_elapsed": 374106, "internal_node_id": "0.0-38.0"}}, {"uniqueid": "MTK1275:30IQTZXKALDCDURNCAOB597GCDTX0U", "current_trial": 57, "dateTime": 1513492643139, "trialdata": {"rt": -1, "stimulus": "<p id=\"stim\">RABBIT</p>", "key_press": -1, "type": "PRES_VIS", "word": "rabbit", "wordID": 1151, "conditions": [18, 1200, "v", 18000], "trial": 1, "serialpos": 2, "trial_type": "single-stim", "trial_index": 57, "time_elapsed": 376210, "internal_node_id": "0.0-39.0"}}, {"uniqueid": "MTK1275:30IQTZXKALDCDURNCAOB597GCDTX0U", "current_trial": 58, "dateTime": 1513492645317, "trialdata": {"rt": -1, "stimulus": "<p id=\"stim\">CELLAR</p>", "key_press": -1, "type": "PRES_VIS", "word": "cellar", "wordID": 266, "conditions": [18, 1200, "v", 18000], "trial": 1, "serialpos": 3, "trial_type": "single-stim", "trial_index": 58, "time_elapsed": 378388, "internal_node_id": "0.0-40.0"}}, {"uniqueid": "MTK1275:30IQTZXKALDCDURNCAOB597GCDTX0U", "current_trial": 59, "dateTime": 1513492647567, "trialdata": {"rt": -1, "stimulus": "<p id=\"stim\">TOURIST</p>", "key_press": -1, "type": "PRES_VIS", "word": "tourist", "wordID": 1487, "conditions": [18, 1200, "v", 18000], "trial": 1, "serialpos": 4, "trial_type": "single-stim", "trial_index": 59, "time_elapsed": 380638, "internal_node_id": "0.0-41.0"}}, {"uniqueid": "MTK1275:30IQTZXKALDCDURNCAOB597GCDTX0U", "current_trial": 60, "dateTime": 1513492649696, "trialdata": {"rt": -1, "stimulus": "<p id=\"stim\">VAGRANT</p>", "key_press": -1, "type": "PRES_VIS", "word": "vagrant", "wordID": 1543, "conditions": [18, 1200, "v", 18000], "trial": 1, "serialpos": 5, "trial_type": "single-stim", "trial_index": 60, "time_elapsed": 382767, "internal_node_id": "0.0-42.0"}}, {"uniqueid": "MTK1275:30IQTZXKALDCDURNCAOB597GCDTX0U", "current_trial": 61, "dateTime": 1513492651871, "trialdata": {"rt": -1, "stimulus": "<p id=\"stim\">MARSH</p>", "key_press": -1, "type": "PRES_VIS", "word": "marsh", "wordID": 873, "conditions": [18, 1200, "v", 18000], "trial": 1, "serialpos": 6, "trial_type": "single-stim", "trial_index": 61, "time_elapsed": 384942, "internal_node_id": "0.0-43.0"}}, {"uniqueid": "MTK1275:30IQTZXKALDCDURNCAOB597GCDTX0U", "current_trial": 62, "dateTime": 1513492653883, "trialdata": {"rt": -1, "stimulus": "<p id=\"stim\">GHETTO</p>", "key_press": -1, "type": "PRES_VIS", "word": "ghetto", "wordID": 632, "conditions": [18, 1200, "v", 18000], "trial": 1, "serialpos": 7, "trial_type": "single-stim", "trial_index": 62, "time_elapsed": 386954, "internal_node_id": "0.0-44.0"}}, {"uniqueid": "MTK1275:30IQTZXKALDCDURNCAOB597GCDTX0U", "current_trial": 63, "dateTime": 1513492656046, "trialdata": {"rt": -1, "stimulus": "<p id=\"stim\">FILM</p>", "key_press": -1, "type": "PRES_VIS", "word": "film", "wordID": 564, "conditions": [18, 1200, "v", 18000], "trial": 1, "serialpos": 8, "trial_type": "single-stim", "trial_index": 63, "time_elapsed": 389117, "internal_node_id": "0.0-45.0"}}, {"uniqueid": "MTK1275:30IQTZXKALDCDURNCAOB597GCDTX0U", "current_trial": 64, "dateTime": 1513492658113, "trialdata": {"rt": -1, "stimulus": "<p id=\"stim\">TART</p>", "key_press": -1, "type": "PRES_VIS", "word": "tart", "wordID": 1435, "conditions": [18, 1200, "v", 18000], "trial": 1, "serialpos": 9, "trial_type": "single-stim", "trial_index": 64, "time_elapsed": 391183, "internal_node_id": "0.0-46.0"}}, {"uniqueid": "MTK1275:30IQTZXKALDCDURNCAOB597GCDTX0U", "current_trial": 65, "dateTime": 1513492660504, "trialdata": {"rt": -1, "stimulus": "<p id=\"stim\">RATTLE</p>", "key_press": -1, "type": "PRES_VIS", "word": "rattle", "wordID": 1169, "conditions": [18, 1200, "v", 18000], "trial": 1, "serialpos": 10, "trial_type": "single-stim", "trial_index": 65, "time_elapsed": 393575, "internal_node_id": "0.0-47.0"}}, {"uniqueid": "MTK1275:30IQTZXKALDCDURNCAOB597GCDTX0U", "current_trial": 66, "dateTime": 1513492662598, "trialdata": {"rt": -1, "stimulus": "<p id=\"stim\">MAILBOX</p>", "key_press": -1, "type": "PRES_VIS", "word": "mailbox", "wordID": 856, "conditions": [18, 1200, "v", 18000], "trial": 1, "serialpos": 11, "trial_type": "single-stim", "trial_index": 66, "time_elapsed": 395669, "internal_node_id": "0.0-48.0"}}, {"uniqueid": "MTK1275:30IQTZXKALDCDURNCAOB597GCDTX0U", "current_trial": 67, "dateTime": 1513492664900, "trialdata": {"rt": -1, "stimulus": "<p id=\"stim\">HELMET</p>", "key_press": -1, "type": "PRES_VIS", "word": "helmet", "wordID": 701, "conditions": [18, 1200, "v", 18000], "trial": 1, "serialpos": 12, "trial_type": "single-stim", "trial_index": 67, "time_elapsed": 397971, "internal_node_id": "0.0-49.0"}}, {"uniqueid": "MTK1275:30IQTZXKALDCDURNCAOB597GCDTX0U", "current_trial": 68, "dateTime": 1513492667233, "trialdata": {"rt": -1, "stimulus": "<p id=\"stim\">WORKER</p>", "key_press": -1, "type": "PRES_VIS", "word": "worker", "wordID": 1620, "conditions": [18, 1200, "v", 18000], "trial": 1, "serialpos": 13, "trial_type": "single-stim", "trial_index": 68, "time_elapsed": 400294, "internal_node_id": "0.0-50.0"}}, {"uniqueid": "MTK1275:30IQTZXKALDCDURNCAOB597GCDTX0U", "current_trial": 69, "dateTime": 1513492669441, "trialdata": {"rt": -1, "stimulus": "<p id=\"stim\">BUTCHER</p>", "key_press": -1, "type": "PRES_VIS", "word": "butcher", "wordID": 202, "conditions": [18, 1200, "v", 18000], "trial": 1, "serialpos": 14, "trial_type": "single-stim", "trial_index": 69, "time_elapsed": 402512, "internal_node_id": "0.0-51.0"}}, {"uniqueid": "MTK1275:30IQTZXKALDCDURNCAOB597GCDTX0U", "current_trial": 70, "dateTime": 1513492671474, "trialdata": {"rt": -1, "stimulus": "<p id=\"stim\">BUNNY</p>", "key_press": -1, "type": "PRES_VIS", "word": "bunny", "wordID": 197, "conditions": [18, 1200, "v", 18000], "trial": 1, "serialpos": 15, "trial_type": "single-stim", "trial_index": 70, "time_elapsed": 404545, "internal_node_id": "0.0-52.0"}}, {"uniqueid": "MTK1275:30IQTZXKALDCDURNCAOB597GCDTX0U", "current_trial": 71, "dateTime": 1513492673640, "trialdata": {"rt": -1, "stimulus": "<p id=\"stim\">SCALPEL</p>", "key_press": -1, "type": "PRES_VIS", "word": "scalpel", "wordID": 1242, "conditions": [18, 1200, "v", 18000], "trial": 1, "serialpos": 16, "trial_type": "single-stim", "trial_index": 71, "time_elapsed": 406711, "internal_node_id": "0.0-53.0"}}, {"uniqueid": "MTK1275:30IQTZXKALDCDURNCAOB597GCDTX0U", "current_trial": 72, "dateTime": 1513492675663, "trialdata": {"rt": -1, "stimulus": "<p id=\"stim\">BRICK</p>", "key_press": -1, "type": "PRES_VIS", "word": "brick", "wordID": 171, "conditions": [18, 1200, "v", 18000], "trial": 1, "serialpos": 17, "trial_type": "single-stim", "trial_index": 72, "time_elapsed": 408734, "internal_node_id": "0.0-54.0"}}, {"uniqueid": "MTK1275:30IQTZXKALDCDURNCAOB597GCDTX0U", "current_trial": 73, "dateTime": 1513492677736, "trialdata": {"rt": -1, "stimulus": "", "key_press": -1, "type": "PRE_RECALL_DELAY", "trial_type": "single-stim", "trial_index": 73, "time_elapsed": 410807, "internal_node_id": "0.0-55.0-0.0"}}, {"uniqueid": "MTK1275:30IQTZXKALDCDURNCAOB597GCDTX0U", "current_trial": 74, "dateTime": 1513492678239, "trialdata": {"rt": -1000, "stimulus": "/static/audio/400Hz.wav", "key_press": -1, "type": "PRE_RECALL_ALERT", "trial_type": "single-audio", "trial_index": 74, "time_elapsed": 411310, "internal_node_id": "0.0-56.0"}}, {"uniqueid": "MTK1275:30IQTZXKALDCDURNCAOB597GCDTX0U", "current_trial": 75, "dateTime": 1513492738265, "trialdata": {"rt": [4601, 8478, 11133, 12918, 18377, 23879, 29190, 34775, 53747], "recwords": ["scalpel", "butcher", "worker", "helmet", "rattle", "rabbit", "ghetto", "mummy", "fragrance"], "type": "FREE_RECALL", "conditions": [18, 1200, "v", 18000], "trial": 1, "trial_type": "free-recall", "trial_index": 75, "time_elapsed": 471324, "internal_node_id": "0.0-57.0-0.0"}}, {"uniqueid": "MTK1275:30IQTZXKALDCDURNCAOB597GCDTX0U", "current_trial": 76, "dateTime": 1513492742384, "trialdata": {"rt": 2100, "key_press": 32, "type": "INSTRUCTIONS", "trial_type": "text", "trial_index": 76, "time_elapsed": 475439, "internal_node_id": "0.0-58.0"}}, {"uniqueid": "MTK1275:30IQTZXKALDCDURNCAOB597GCDTX0U", "current_trial": 77, "dateTime": 1513492755393, "trialdata": {"rt": [2690, 5659, 8045, 11056], "responses": ["16", "18", "9", "13"], "num1": [5, 8, 4, 1, 7], "num2": [6, 2, 4, 8, 1], "num3": [5, 8, 1, 4, 1], "type": "DISTRACTOR", "conditions": [24, 800, "a", 12000], "trial": 2, "trial_type": "math-distractor", "trial_index": 77, "time_elapsed": 488463, "internal_node_id": "0.0-59.0"}}, {"uniqueid": "MTK1275:30IQTZXKALDCDURNCAOB597GCDTX0U", "current_trial": 78, "dateTime": 1513492758396, "trialdata": {"rt": -1, "stimulus": "<p id=\"stim\">10</p>", "key_press": -1, "trial_type": "single-stim", "trial_index": 78, "time_elapsed": 491467, "internal_node_id": "0.0-60.0-0.0"}}, {"uniqueid": "MTK1275:30IQTZXKALDCDURNCAOB597GCDTX0U", "current_trial": 79, "dateTime": 1513492759399, "trialdata": {"rt": -1, "stimulus": "<p id=\"stim\">9</p>", "key_press": -1, "trial_type": "single-stim", "trial_index": 79, "time_elapsed": 492470, "internal_node_id": "0.0-60.0-1.0"}}, {"uniqueid": "MTK1275:30IQTZXKALDCDURNCAOB597GCDTX0U", "current_trial": 80, "dateTime": 1513492760402, "trialdata": {"rt": -1, "stimulus": "<p id=\"stim\">8</p>", "key_press": -1, "trial_type": "single-stim", "trial_index": 80, "time_elapsed": 493473, "internal_node_id": "0.0-60.0-2.0"}}, {"uniqueid": "MTK1275:30IQTZXKALDCDURNCAOB597GCDTX0U", "current_trial": 81, "dateTime": 1513492761405, "trialdata": {"rt": -1, "stimulus": "<p id=\"stim\">7</p>", "key_press": -1, "trial_type": "single-stim", "trial_index": 81, "time_elapsed": 494476, "internal_node_id": "0.0-60.0-3.0"}}, {"uniqueid": "MTK1275:30IQTZXKALDCDURNCAOB597GCDTX0U", "current_trial": 82, "dateTime": 1513492762408, "trialdata": {"rt": -1, "stimulus": "<p id=\"stim\">6</p>", "key_press": -1, "trial_type": "single-stim", "trial_index": 82, "time_elapsed": 495479, "internal_node_id": "0.0-60.0-4.0"}}, {"uniqueid": "MTK1275:30IQTZXKALDCDURNCAOB597GCDTX0U", "current_trial": 83, "dateTime": 1513492763411, "trialdata": {"rt": -1, "stimulus": "<p id=\"stim\">5</p>", "key_press": -1, "trial_type": "single-stim", "trial_index": 83, "time_elapsed": 496482, "internal_node_id": "0.0-60.0-5.0"}}, {"uniqueid": "MTK1275:30IQTZXKALDCDURNCAOB597GCDTX0U", "current_trial": 84, "dateTime": 1513492764414, "trialdata": {"rt": -1, "stimulus": "<p id=\"stim\">4</p>", "key_press": -1, "trial_type": "single-stim", "trial_index": 84, "time_elapsed": 497485, "internal_node_id": "0.0-60.0-6.0"}}, {"uniqueid": "MTK1275:30IQTZXKALDCDURNCAOB597GCDTX0U", "current_trial": 85, "dateTime": 1513492765417, "trialdata": {"rt": -1, "stimulus": "<p id=\"stim\">3</p>", "key_press": -1, "trial_type": "single-stim", "trial_index": 85, "time_elapsed": 498488, "internal_node_id": "0.0-60.0-7.0"}}, {"uniqueid": "MTK1275:30IQTZXKALDCDURNCAOB597GCDTX0U", "current_trial": 86, "dateTime": 1513492766420, "trialdata": {"rt": -1, "stimulus": "<p id=\"stim\">2</p>", "key_press": -1, "trial_type": "single-stim", "trial_index": 86, "time_elapsed": 499491, "internal_node_id": "0.0-60.0-8.0"}}, {"uniqueid": "MTK1275:30IQTZXKALDCDURNCAOB597GCDTX0U", "current_trial": 87, "dateTime": 1513492767423, "trialdata": {"rt": -1, "stimulus": "<p id=\"stim\">1</p>", "key_press": -1, "trial_type": "single-stim", "trial_index": 87, "time_elapsed": 500494, "internal_node_id": "0.0-60.0-9.0"}}, {"uniqueid": "MTK1275:30IQTZXKALDCDURNCAOB597GCDTX0U", "current_trial": 88, "dateTime": 1513492768928, "trialdata": {"rt": -1, "stimulus": "<p id=\"stim\">+</p>", "key_press": -1, "type": "FIXATION", "trial_type": "single-stim", "trial_index": 88, "time_elapsed": 501998, "internal_node_id": "0.0-61.0-0.0"}}, {"uniqueid": "MTK1275:30IQTZXKALDCDURNCAOB597GCDTX0U", "current_trial": 89, "dateTime": 1513492770732, "trialdata": {"rt": -1000, "stimulus": "/static/audio/wordpool/CLAM.wav", "key_press": -1, "type": "PRES_AUD", "word": "clam", "wordID": 314, "conditions": [24, 800, "a", 12000], "trial": 2, "serialpos": 0, "trial_type": "single-audio", "trial_index": 89, "time_elapsed": 503803, "internal_node_id": "0.0-62.0"}}, {"uniqueid": "MTK1275:30IQTZXKALDCDURNCAOB597GCDTX0U", "current_trial": 90, "dateTime": 1513492772447, "trialdata": {"rt": -1000, "stimulus": "/static/audio/wordpool/BLOCKADE.wav", "key_press": -1, "type": "PRES_AUD", "word": "blockade", "wordID": 136, "conditions": [24, 800, "a", 12000], "trial": 2, "serialpos": 1, "trial_type": "single-audio", "trial_index": 90, "time_elapsed": 505518, "internal_node_id": "0.0-63.0"}}, {"uniqueid": "MTK1275:30IQTZXKALDCDURNCAOB597GCDTX0U", "current_trial": 91, "dateTime": 1513492774347, "trialdata": {"rt": -1000, "stimulus": "/static/audio/wordpool/FRECKLE.wav", "key_press": -1, "type": "PRES_AUD", "word": "freckle", "wordID": 601, "conditions": [24, 800, "a", 12000], "trial": 2, "serialpos": 2, "trial_type": "single-audio", "trial_index": 91, "time_elapsed": 507418, "internal_node_id": "0.0-64.0"}}, {"uniqueid": "MTK1275:30IQTZXKALDCDURNCAOB597GCDTX0U", "current_trial": 92, "dateTime": 1513492776255, "trialdata": {"rt": -1000, "stimulus": "/static/audio/wordpool/SANDWICH.wav", "key_press": -1, "type": "PRES_AUD", "word": "sandwich", "wordID": 1231, "conditions": [24, 800, "a", 12000], "trial": 2, "serialpos": 3, "trial_type": "single-audio", "trial_index": 92, "time_elapsed": 509326, "internal_node_id": "0.0-65.0"}}, {"uniqueid": "MTK1275:30IQTZXKALDCDURNCAOB597GCDTX0U", "current_trial": 93, "dateTime": 1513492778050, "trialdata": {"rt": -1000, "stimulus": "/static/audio/wordpool/LEADER.wav", "key_press": -1, "type": "PRES_AUD", "word": "leader", "wordID": 806, "conditions": [24, 800, "a", 12000], "trial": 2, "serialpos": 4, "trial_type": "single-audio", "trial_index": 93, "time_elapsed": 511121, "internal_node_id": "0.0-66.0"}}, {"uniqueid": "MTK1275:30IQTZXKALDCDURNCAOB597GCDTX0U", "current_trial": 94, "dateTime": 1513492779988, "trialdata": {"rt": -1000, "stimulus": "/static/audio/wordpool/PLUTO.wav", "key_press": -1, "type": "PRES_AUD", "word": "pluto", "wordID": 1091, "conditions": [24, 800, "a", 12000], "trial": 2, "serialpos": 5, "trial_type": "single-audio", "trial_index": 94, "time_elapsed": 513058, "internal_node_id": "0.0-67.0"}}, {"uniqueid": "MTK1275:30IQTZXKALDCDURNCAOB597GCDTX0U", "current_trial": 95, "dateTime": 1513492781974, "trialdata": {"rt": -1000, "stimulus": "/static/audio/wordpool/SERVER.wav", "key_press": -1, "type": "PRES_AUD", "word": "server", "wordID": 1271, "conditions": [24, 800, "a", 12000], "trial": 2, "serialpos": 6, "trial_type": "single-audio", "trial_index": 95, "time_elapsed": 515044, "internal_node_id": "0.0-68.0"}}, {"uniqueid": "MTK1275:30IQTZXKALDCDURNCAOB597GCDTX0U", "current_trial": 96, "dateTime": 1513492783945, "trialdata": {"rt": -1000, "stimulus": "/static/audio/wordpool/PATIENT.wav", "key_press": -1, "type": "PRES_AUD", "word": "patient", "wordID": 1023, "conditions": [24, 800, "a", 12000], "trial": 2, "serialpos": 7, "trial_type": "single-audio", "trial_index": 96, "time_elapsed": 517016, "internal_node_id": "0.0-69.0"}}, {"uniqueid": "MTK1275:30IQTZXKALDCDURNCAOB597GCDTX0U", "current_trial": 97, "dateTime": 1513492785940, "trialdata": {"rt": -1000, "stimulus": "/static/audio/wordpool/TURNIP.wav", "key_press": -1, "type": "PRES_AUD", "word": "turnip", "wordID": 1520, "conditions": [24, 800, "a", 12000], "trial": 2, "serialpos": 8, "trial_type": "single-audio", "trial_index": 97, "time_elapsed": 519011, "internal_node_id": "0.0-70.0"}}, {"uniqueid": "MTK1275:30IQTZXKALDCDURNCAOB597GCDTX0U", "current_trial": 98, "dateTime": 1513492787551, "trialdata": {"rt": -1000, "stimulus": "/static/audio/wordpool/TWEEZERS.wav", "key_press": -1, "type": "PRES_AUD", "word": "tweezers", "wordID": 1525, "conditions": [24, 800, "a", 12000], "trial": 2, "serialpos": 9, "trial_type": "single-audio", "trial_index": 98, "time_elapsed": 520622, "internal_node_id": "0.0-71.0"}}, {"uniqueid": "MTK1275:30IQTZXKALDCDURNCAOB597GCDTX0U", "current_trial": 99, "dateTime": 1513492789369, "trialdata": {"rt": -1000, "stimulus": "/static/audio/wordpool/SCISSORS.wav", "key_press": -1, "type": "PRES_AUD", "word": "scissors", "wordID": 1249, "conditions": [24, 800, "a", 12000], "trial": 2, "serialpos": 10, "trial_type": "single-audio", "trial_index": 99, "time_elapsed": 522440, "internal_node_id": "0.0-72.0"}}, {"uniqueid": "MTK1275:30IQTZXKALDCDURNCAOB597GCDTX0U", "current_trial": 100, "dateTime": 1513492790986, "trialdata": {"rt": -1000, "stimulus": "/static/audio/wordpool/PIMPLE.wav", "key_press": -1, "type": "PRES_AUD", "word": "pimple", "wordID": 1070, "conditions": [24, 800, "a", 12000], "trial": 2, "serialpos": 11, "trial_type": "single-audio", "trial_index": 100, "time_elapsed": 524047, "internal_node_id": "0.0-73.0"}}, {"uniqueid": "MTK1275:30IQTZXKALDCDURNCAOB597GCDTX0U", "current_trial": 101, "dateTime": 1513492792925, "trialdata": {"rt": -1000, "stimulus": "/static/audio/wordpool/PASTA.wav", "key_press": -1, "type": "PRES_AUD", "word": "pasta", "wordID": 1020, "conditions": [24, 800, "a", 12000], "trial": 2, "serialpos": 12, "trial_type": "single-audio", "trial_index": 101, "time_elapsed": 525996, "internal_node_id": "0.0-74.0"}}, {"uniqueid": "MTK1275:30IQTZXKALDCDURNCAOB597GCDTX0U", "current_trial": 102, "dateTime": 1513492794834, "trialdata": {"rt": -1000, "stimulus": "/static/audio/wordpool/STICKER.wav", "key_press": -1, "type": "PRES_AUD", "word": "sticker", "wordID": 1381, "conditions": [24, 800, "a", 12000], "trial": 2, "serialpos": 13, "trial_type": "single-audio", "trial_index": 102, "time_elapsed": 527905, "internal_node_id": "0.0-75.0"}}, {"uniqueid": "MTK1275:30IQTZXKALDCDURNCAOB597GCDTX0U", "current_trial": 103, "dateTime": 1513492796521, "trialdata": {"rt": -1000, "stimulus": "/static/audio/wordpool/CONCERT.wav", "key_press": -1, "type": "PRES_AUD", "word": "concert", "wordID": 359, "conditions": [24, 800, "a", 12000], "trial": 2, "serialpos": 14, "trial_type": "single-audio", "trial_index": 103, "time_elapsed": 529592, "internal_node_id": "0.0-76.0"}}, {"uniqueid": "MTK1275:30IQTZXKALDCDURNCAOB597GCDTX0U", "current_trial": 104, "dateTime": 1513492798218, "trialdata": {"rt": -1000, "stimulus": "/static/audio/wordpool/COFFEE.wav", "key_press": -1, "type": "PRES_AUD", "word": "coffee", "wordID": 340, "conditions": [24, 800, "a", 12000], "trial": 2, "serialpos": 15, "trial_type": "single-audio", "trial_index": 104, "time_elapsed": 531289, "internal_node_id": "0.0-77.0"}}, {"uniqueid": "MTK1275:30IQTZXKALDCDURNCAOB597GCDTX0U", "current_trial": 105, "dateTime": 1513492800173, "trialdata": {"rt": -1000, "stimulus": "/static/audio/wordpool/WAITER.wav", "key_press": -1, "type": "PRES_AUD", "word": "waiter", "wordID": 1579, "conditions": [24, 800, "a", 12000], "trial": 2, "serialpos": 16, "trial_type": "single-audio", "trial_index": 105, "time_elapsed": 533244, "internal_node_id": "0.0-78.0"}}, {"uniqueid": "MTK1275:30IQTZXKALDCDURNCAOB597GCDTX0U", "current_trial": 106, "dateTime": 1513492802026, "trialdata": {"rt": -1000, "stimulus": "/static/audio/wordpool/COMPASS.wav", "key_press": -1, "type": "PRES_AUD", "word": "compass", "wordID": 357, "conditions": [24, 800, "a", 12000], "trial": 2, "serialpos": 17, "trial_type": "single-audio", "trial_index": 106, "time_elapsed": 535097, "internal_node_id": "0.0-79.0"}}, {"uniqueid": "MTK1275:30IQTZXKALDCDURNCAOB597GCDTX0U", "current_trial": 107, "dateTime": 1513492803973, "trialdata": {"rt": -1000, "stimulus": "/static/audio/wordpool/FOOTBALL.wav", "key_press": -1, "type": "PRES_AUD", "word": "football", "wordID": 590, "conditions": [24, 800, "a", 12000], "trial": 2, "serialpos": 18, "trial_type": "single-audio", "trial_index": 107, "time_elapsed": 537043, "internal_node_id": "0.0-80.0"}}, {"uniqueid": "MTK1275:30IQTZXKALDCDURNCAOB597GCDTX0U", "current_trial": 108, "dateTime": 1513492805833, "trialdata": {"rt": -1000, "stimulus": "/static/audio/wordpool/STATUE.wav", "key_press": -1, "type": "PRES_AUD", "word": "statue", "wordID": 1373, "conditions": [24, 800, "a", 12000], "trial": 2, "serialpos": 19, "trial_type": "single-audio", "trial_index": 108, "time_elapsed": 538904, "internal_node_id": "0.0-81.0"}}, {"uniqueid": "MTK1275:30IQTZXKALDCDURNCAOB597GCDTX0U", "current_trial": 109, "dateTime": 1513492807748, "trialdata": {"rt": -1000, "stimulus": "/static/audio/wordpool/SCULPTURE.wav", "key_press": -1, "type": "PRES_AUD", "word": "sculpture", "wordID": 1257, "conditions": [24, 800, "a", 12000], "trial": 2, "serialpos": 20, "trial_type": "single-audio", "trial_index": 109, "time_elapsed": 540819, "internal_node_id": "0.0-82.0"}}, {"uniqueid": "MTK1275:30IQTZXKALDCDURNCAOB597GCDTX0U", "current_trial": 110, "dateTime": 1513492809512, "trialdata": {"rt": -1000, "stimulus": "/static/audio/wordpool/BADGE.wav", "key_press": -1, "type": "PRES_AUD", "word": "badge", "wordID": 67, "conditions": [24, 800, "a", 12000], "trial": 2, "serialpos": 21, "trial_type": "single-audio", "trial_index": 110, "time_elapsed": 542583, "internal_node_id": "0.0-83.0"}}, {"uniqueid": "MTK1275:30IQTZXKALDCDURNCAOB597GCDTX0U", "current_trial": 111, "dateTime": 1513492811414, "trialdata": {"rt": -1000, "stimulus": "/static/audio/wordpool/PLIERS.wav", "key_press": -1, "type": "PRES_AUD", "word": "pliers", "wordID": 1088, "conditions": [24, 800, "a", 12000], "trial": 2, "serialpos": 22, "trial_type": "single-audio", "trial_index": 111, "time_elapsed": 544484, "internal_node_id": "0.0-84.0"}}, {"uniqueid": "MTK1275:30IQTZXKALDCDURNCAOB597GCDTX0U", "current_trial": 112, "dateTime": 1513492813262, "trialdata": {"rt": -1000, "stimulus": "/static/audio/wordpool/CHURCH.wav", "key_press": -1, "type": "PRES_AUD", "word": "church", "wordID": 306, "conditions": [24, 800, "a", 12000], "trial": 2, "serialpos": 23, "trial_type": "single-audio", "trial_index": 112, "time_elapsed": 546333, "internal_node_id": "0.0-85.0"}}, {"uniqueid": "MTK1275:30IQTZXKALDCDURNCAOB597GCDTX0U", "current_trial": 113, "dateTime": 1513492814550, "trialdata": {"rt": -1, "stimulus": "", "key_press": -1, "type": "PRE_RECALL_DELAY", "trial_type": "single-stim", "trial_index": 113, "time_elapsed": 547621, "internal_node_id": "0.0-86.0-0.0"}}, {"uniqueid": "MTK1275:30IQTZXKALDCDURNCAOB597GCDTX0U", "current_trial": 114, "dateTime": 1513492815053, "trialdata": {"rt": -1000, "stimulus": "/static/audio/400Hz.wav", "key_press": -1, "type": "PRE_RECALL_ALERT", "trial_type": "single-audio", "trial_index": 114, "time_elapsed": 548123, "internal_node_id": "0.0-87.0"}}, {"uniqueid": "MTK1275:30IQTZXKALDCDURNCAOB597GCDTX0U", "current_trial": 115, "dateTime": 1513492875068, "trialdata": {"rt": [4789, 6487, 10377, 17121, 21093, 24734, 32171, 39206, 41775, 52205], "recwords": ["church", "pliers", "statue", "compass", "coffee", "concert", "pimple", "turni[", "patient", "pluto"], "type": "FREE_RECALL", "conditions": [24, 800, "a", 12000], "trial": 2, "trial_type": "free-recall", "trial_index": 115, "time_elapsed": 608133, "internal_node_id": "0.0-88.0-0.0"}}, {"uniqueid": "MTK1275:30IQTZXKALDCDURNCAOB597GCDTX0U", "current_trial": 116, "dateTime": 1513492879368, "trialdata": {"rt": 2297, "key_press": 32, "type": "INSTRUCTIONS", "trial_type": "text", "trial_index": 116, "time_elapsed": 612438, "internal_node_id": "0.0-89.0"}}, {"uniqueid": "MTK1275:30IQTZXKALDCDURNCAOB597GCDTX0U", "current_trial": 117, "dateTime": 1513492905375, "trialdata": {"rt": [4696, 7137, 9109, 11451, 14480, 16859, 20431, 22708], "responses": ["25", "16", "19", "20", "17", "18", "20", "7"], "num1": [7, 7, 7, 9, 6, 1, 9, 2, 2], "num2": [9, 5, 3, 7, 3, 8, 4, 1, 4], "num3": [9, 4, 9, 4, 8, 9, 7, 4, 4], "type": "DISTRACTOR", "conditions": [12, 1600, "a", 24000], "trial": 3, "trial_type": "math-distractor", "trial_index": 117, "time_elapsed": 638446, "internal_node_id": "0.0-90.0"}}, {"uniqueid": "MTK1275:30IQTZXKALDCDURNCAOB597GCDTX0U", "current_trial": 118, "dateTime": 1513492908378, "trialdata": {"rt": -1, "stimulus": "<p id=\"stim\">10</p>", "key_press": -1, "trial_type": "single-stim", "trial_index": 118, "time_elapsed": 641449, "internal_node_id": "0.0-91.0-0.0"}}, {"uniqueid": "MTK1275:30IQTZXKALDCDURNCAOB597GCDTX0U", "current_trial": 119, "dateTime": 1513492909381, "trialdata": {"rt": -1, "stimulus": "<p id=\"stim\">9</p>", "key_press": -1, "trial_type": "single-stim", "trial_index": 119, "time_elapsed": 642452, "internal_node_id": "0.0-91.0-1.0"}}, {"uniqueid": "MTK1275:30IQTZXKALDCDURNCAOB597GCDTX0U", "current_trial": 120, "dateTime": 1513492910384, "trialdata": {"rt": -1, "stimulus": "<p id=\"stim\">8</p>", "key_press": -1, "trial_type": "single-stim", "trial_index": 120, "time_elapsed": 643455, "internal_node_id": "0.0-91.0-2.0"}}, {"uniqueid": "MTK1275:30IQTZXKALDCDURNCAOB597GCDTX0U", "current_trial": 121, "dateTime": 1513492911388, "trialdata": {"rt": -1, "stimulus": "<p id=\"stim\">7</p>", "key_press": -1, "trial_type": "single-stim", "trial_index": 121, "time_elapsed": 644459, "internal_node_id": "0.0-91.0-3.0"}}, {"uniqueid": "MTK1275:30IQTZXKALDCDURNCAOB597GCDTX0U", "current_trial": 122, "dateTime": 1513492912391, "trialdata": {"rt": -1, "stimulus": "<p id=\"stim\">6</p>", "key_press": -1, "trial_type": "single-stim", "trial_index": 122, "time_elapsed": 645462, "internal_node_id": "0.0-91.0-4.0"}}, {"uniqueid": "MTK1275:30IQTZXKALDCDURNCAOB597GCDTX0U", "current_trial": 123, "dateTime": 1513492913394, "trialdata": {"rt": -1, "stimulus": "<p id=\"stim\">5</p>", "key_press": -1, "trial_type": "single-stim", "trial_index": 123, "time_elapsed": 646465, "internal_node_id": "0.0-91.0-5.0"}}, {"uniqueid": "MTK1275:30IQTZXKALDCDURNCAOB597GCDTX0U", "current_trial": 124, "dateTime": 1513492914397, "trialdata": {"rt": -1, "stimulus": "<p id=\"stim\">4</p>", "key_press": -1, "trial_type": "single-stim", "trial_index": 124, "time_elapsed": 647468, "internal_node_id": "0.0-91.0-6.0"}}, {"uniqueid": "MTK1275:30IQTZXKALDCDURNCAOB597GCDTX0U", "current_trial": 125, "dateTime": 1513492915401, "trialdata": {"rt": -1, "stimulus": "<p id=\"stim\">3</p>", "key_press": -1, "trial_type": "single-stim", "trial_index": 125, "time_elapsed": 648472, "internal_node_id": "0.0-91.0-7.0"}}, {"uniqueid": "MTK1275:30IQTZXKALDCDURNCAOB597GCDTX0U", "current_trial": 126, "dateTime": 1513492916403, "trialdata": {"rt": -1, "stimulus": "<p id=\"stim\">2</p>", "key_press": -1, "trial_type": "single-stim", "trial_index": 126, "time_elapsed": 649474, "internal_node_id": "0.0-91.0-8.0"}}, {"uniqueid": "MTK1275:30IQTZXKALDCDURNCAOB597GCDTX0U", "current_trial": 127, "dateTime": 1513492917406, "trialdata": {"rt": -1, "stimulus": "<p id=\"stim\">1</p>", "key_press": -1, "trial_type": "single-stim", "trial_index": 127, "time_elapsed": 650477, "internal_node_id": "0.0-91.0-9.0"}}, {"uniqueid": "MTK1275:30IQTZXKALDCDURNCAOB597GCDTX0U", "current_trial": 128, "dateTime": 1513492918909, "trialdata": {"rt": -1, "stimulus": "<p id=\"stim\">+</p>", "key_press": -1, "type": "FIXATION", "trial_type": "single-stim", "trial_index": 128, "time_elapsed": 651980, "internal_node_id": "0.0-92.0-0.0"}}, {"uniqueid": "MTK1275:30IQTZXKALDCDURNCAOB597GCDTX0U", "current_trial": 129, "dateTime": 1513492921510, "trialdata": {"rt": -1000, "stimulus": "/static/audio/wordpool/BEAVER.wav", "key_press": -1, "type": "PRES_AUD", "word": "beaver", "wordID": 108, "conditions": [12, 1600, "a", 24000], "trial": 3, "serialpos": 0, "trial_type": "single-audio", "trial_index": 129, "time_elapsed": 654581, "internal_node_id": "0.0-93.0"}}, {"uniqueid": "MTK1275:30IQTZXKALDCDURNCAOB597GCDTX0U", "current_trial": 130, "dateTime": 1513492923955, "trialdata": {"rt": -1000, "stimulus": "/static/audio/wordpool/CHIPMUNK.wav", "key_press": -1, "type": "PRES_AUD", "word": "chipmunk", "wordID": 303, "conditions": [12, 1600, "a", 24000], "trial": 3, "serialpos": 1, "trial_type": "single-audio", "trial_index": 130, "time_elapsed": 657026, "internal_node_id": "0.0-94.0"}}, {"uniqueid": "MTK1275:30IQTZXKALDCDURNCAOB597GCDTX0U", "current_trial": 131, "dateTime": 1513492926472, "trialdata": {"rt": -1000, "stimulus": "/static/audio/wordpool/BELLY.wav", "key_press": -1, "type": "PRES_AUD", "word": "belly", "wordID": 118, "conditions": [12, 1600, "a", 24000], "trial": 3, "serialpos": 2, "trial_type": "single-audio", "trial_index": 131, "time_elapsed": 659543, "internal_node_id": "0.0-95.0"}}, {"uniqueid": "MTK1275:30IQTZXKALDCDURNCAOB597GCDTX0U", "current_trial": 132, "dateTime": 1513492928926, "trialdata": {"rt": -1000, "stimulus": "/static/audio/wordpool/OYSTER.wav", "key_press": -1, "type": "PRES_AUD", "word": "oyster", "wordID": 994, "conditions": [12, 1600, "a", 24000], "trial": 3, "serialpos": 3, "trial_type": "single-audio", "trial_index": 132, "time_elapsed": 661997, "internal_node_id": "0.0-96.0"}}, {"uniqueid": "MTK1275:30IQTZXKALDCDURNCAOB597GCDTX0U", "current_trial": 133, "dateTime": 1513492931482, "trialdata": {"rt": -1000, "stimulus": "/static/audio/wordpool/BLOUSE.wav", "key_press": -1, "type": "PRES_AUD", "word": "blouse", "wordID": 138, "conditions": [12, 1600, "a", 24000], "trial": 3, "serialpos": 4, "trial_type": "single-audio", "trial_index": 133, "time_elapsed": 664553, "internal_node_id": "0.0-97.0"}}, {"uniqueid": "MTK1275:30IQTZXKALDCDURNCAOB597GCDTX0U", "current_trial": 134, "dateTime": 1513492934139, "trialdata": {"rt": -1000, "stimulus": "/static/audio/wordpool/MARROW.wav", "key_press": -1, "type": "PRES_AUD", "word": "marrow", "wordID": 871, "conditions": [12, 1600, "a", 24000], "trial": 3, "serialpos": 5, "trial_type": "single-audio", "trial_index": 134, "time_elapsed": 667209, "internal_node_id": "0.0-98.0"}}, {"uniqueid": "MTK1275:30IQTZXKALDCDURNCAOB597GCDTX0U", "current_trial": 135, "dateTime": 1513492936662, "trialdata": {"rt": -1000, "stimulus": "/static/audio/wordpool/CABBAGE.wav", "key_press": -1, "type": "PRES_AUD", "word": "cabbage", "wordID": 209, "conditions": [12, 1600, "a", 24000], "trial": 3, "serialpos": 6, "trial_type": "single-audio", "trial_index": 135, "time_elapsed": 669733, "internal_node_id": "0.0-99.0"}}, {"uniqueid": "MTK1275:30IQTZXKALDCDURNCAOB597GCDTX0U", "current_trial": 136, "dateTime": 1513492939260, "trialdata": {"rt": -1000, "stimulus": "/static/audio/wordpool/COMET.wav", "key_press": -1, "type": "PRES_AUD", "word": "comet", "wordID": 352, "conditions": [12, 1600, "a", 24000], "trial": 3, "serialpos": 7, "trial_type": "single-audio", "trial_index": 136, "time_elapsed": 672331, "internal_node_id": "0.0-100.0"}}, {"uniqueid": "MTK1275:30IQTZXKALDCDURNCAOB597GCDTX0U", "current_trial": 137, "dateTime": 1513492941817, "trialdata": {"rt": -1000, "stimulus": "/static/audio/wordpool/NEUTRON.wav", "key_press": -1, "type": "PRES_AUD", "word": "neutron", "wordID": 946, "conditions": [12, 1600, "a", 24000], "trial": 3, "serialpos": 8, "trial_type": "single-audio", "trial_index": 137, "time_elapsed": 674888, "internal_node_id": "0.0-101.0"}}, {"uniqueid": "MTK1275:30IQTZXKALDCDURNCAOB597GCDTX0U", "current_trial": 138, "dateTime": 1513492944336, "trialdata": {"rt": -1000, "stimulus": "/static/audio/wordpool/PIGMENT.wav", "key_press": -1, "type": "PRES_AUD", "word": "pigment", "wordID": 1065, "conditions": [12, 1600, "a", 24000], "trial": 3, "serialpos": 9, "trial_type": "single-audio", "trial_index": 138, "time_elapsed": 677407, "internal_node_id": "0.0-102.0"}}, {"uniqueid": "MTK1275:30IQTZXKALDCDURNCAOB597GCDTX0U", "current_trial": 139, "dateTime": 1513492947051, "trialdata": {"rt": -1000, "stimulus": "/static/audio/wordpool/SCARF.wav", "key_press": -1, "type": "PRES_AUD", "word": "scarf", "wordID": 1245, "conditions": [12, 1600, "a", 24000], "trial": 3, "serialpos": 10, "trial_type": "single-audio", "trial_index": 139, "time_elapsed": 680122, "internal_node_id": "0.0-103.0"}}, {"uniqueid": "MTK1275:30IQTZXKALDCDURNCAOB597GCDTX0U", "current_trial": 140, "dateTime": 1513492949851, "trialdata": {"rt": -1000, "stimulus": "/static/audio/wordpool/SUNSET.wav", "key_press": -1, "type": "PRES_AUD", "word": "sunset", "wordID": 1407, "conditions": [12, 1600, "a", 24000], "trial": 3, "serialpos": 11, "trial_type": "single-audio", "trial_index": 140, "time_elapsed": 682922, "internal_node_id": "0.0-104.0"}}, {"uniqueid": "MTK1275:30IQTZXKALDCDURNCAOB597GCDTX0U", "current_trial": 141, "dateTime": 1513492951203, "trialdata": {"rt": -1, "stimulus": "", "key_press": -1, "type": "PRE_RECALL_DELAY", "trial_type": "single-stim", "trial_index": 141, "time_elapsed": 684274, "internal_node_id": "0.0-105.0-0.0"}}, {"uniqueid": "MTK1275:30IQTZXKALDCDURNCAOB597GCDTX0U", "current_trial": 142, "dateTime": 1513492951709, "trialdata": {"rt": -1000, "stimulus": "/static/audio/400Hz.wav", "key_press": -1, "type": "PRE_RECALL_ALERT", "trial_type": "single-audio", "trial_index": 142, "time_elapsed": 684780, "internal_node_id": "0.0-106.0"}}, {"uniqueid": "MTK1275:30IQTZXKALDCDURNCAOB597GCDTX0U", "current_trial": 143, "dateTime": 1513493011718, "trialdata": {"rt": [4127, 6215, 12065, 18546, 25844, 32055, 35432, 41212], "recwords": ["sunset", "pigment", "sunset", "neutron", "blouse", "belly", "chipmunk", "squirrel"], "type": "FREE_RECALL", "conditions": [12, 1600, "a", 24000], "trial": 3, "trial_type": "free-recall", "trial_index": 143, "time_elapsed": 744783, "internal_node_id": "0.0-107.0-0.0"}}, {"uniqueid": "MTK1275:30IQTZXKALDCDURNCAOB597GCDTX0U", "current_trial": 144, "dateTime": 1513493016342, "trialdata": {"rt": 2622, "key_press": 32, "type": "INSTRUCTIONS", "trial_type": "text", "trial_index": 144, "time_elapsed": 749413, "internal_node_id": "0.0-108.0"}}, {"uniqueid": "MTK1275:30IQTZXKALDCDURNCAOB597GCDTX0U", "current_trial": 145, "dateTime": 1513493042350, "trialdata": {"rt": [2255, 5084, 7145, 9937, 12352, 13858, 15879, 18863, 21403, 23835], "responses": ["16", "14", "8", "11", "16", "8", "10", "20", "13", "12"], "num1": [4, 7, 3, 1, 2, 1, 3, 3, 3, 4, 3], "num2": [8, 2, 3, 1, 6, 5, 4, 9, 3, 5, 5], "num3": [4, 5, 2, 9, 8, 2, 3, 8, 7, 3, 5], "type": "DISTRACTOR", "conditions": [24, 1600, "v", 24000], "trial": 4, "trial_type": "math-distractor", "trial_index": 145, "time_elapsed": 775421, "internal_node_id": "0.0-109.0"}}, {"uniqueid": "MTK1275:30IQTZXKALDCDURNCAOB597GCDTX0U", "current_trial": 146, "dateTime": 1513493045354, "trialdata": {"rt": -1, "stimulus": "<p id=\"stim\">10</p>", "key_press": -1, "trial_type": "single-stim", "trial_index": 146, "time_elapsed": 778425, "internal_node_id": "0.0-110.0-0.0"}}, {"uniqueid": "MTK1275:30IQTZXKALDCDURNCAOB597GCDTX0U", "current_trial": 147, "dateTime": 1513493046358, "trialdata": {"rt": -1, "stimulus": "<p id=\"stim\">9</p>", "key_press": -1, "trial_type": "single-stim", "trial_index": 147, "time_elapsed": 779428, "internal_node_id": "0.0-110.0-1.0"}}, {"uniqueid": "MTK1275:30IQTZXKALDCDURNCAOB597GCDTX0U", "current_trial": 148, "dateTime": 1513493047361, "trialdata": {"rt": -1, "stimulus": "<p id=\"stim\">8</p>", "key_press": -1, "trial_type": "single-stim", "trial_index": 148, "time_elapsed": 780432, "internal_node_id": "0.0-110.0-2.0"}}, {"uniqueid": "MTK1275:30IQTZXKALDCDURNCAOB597GCDTX0U", "current_trial": 149, "dateTime": 1513493048364, "trialdata": {"rt": -1, "stimulus": "<p id=\"stim\">7</p>", "key_press": -1, "trial_type": "single-stim", "trial_index": 149, "time_elapsed": 781435, "internal_node_id": "0.0-110.0-3.0"}}, {"uniqueid": "MTK1275:30IQTZXKALDCDURNCAOB597GCDTX0U", "current_trial": 150, "dateTime": 1513493049367, "trialdata": {"rt": -1, "stimulus": "<p id=\"stim\">6</p>", "key_press": -1, "trial_type": "single-stim", "trial_index": 150, "time_elapsed": 782438, "internal_node_id": "0.0-110.0-4.0"}}, {"uniqueid": "MTK1275:30IQTZXKALDCDURNCAOB597GCDTX0U", "current_trial": 151, "dateTime": 1513493050370, "trialdata": {"rt": -1, "stimulus": "<p id=\"stim\">5</p>", "key_press": -1, "trial_type": "single-stim", "trial_index": 151, "time_elapsed": 783441, "internal_node_id": "0.0-110.0-5.0"}}, {"uniqueid": "MTK1275:30IQTZXKALDCDURNCAOB597GCDTX0U", "current_trial": 152, "dateTime": 1513493051373, "trialdata": {"rt": -1, "stimulus": "<p id=\"stim\">4</p>", "key_press": -1, "trial_type": "single-stim", "trial_index": 152, "time_elapsed": 784444, "internal_node_id": "0.0-110.0-6.0"}}, {"uniqueid": "MTK1275:30IQTZXKALDCDURNCAOB597GCDTX0U", "current_trial": 153, "dateTime": 1513493052376, "trialdata": {"rt": -1, "stimulus": "<p id=\"stim\">3</p>", "key_press": -1, "trial_type": "single-stim", "trial_index": 153, "time_elapsed": 785447, "internal_node_id": "0.0-110.0-7.0"}}, {"uniqueid": "MTK1275:30IQTZXKALDCDURNCAOB597GCDTX0U", "current_trial": 154, "dateTime": 1513493053380, "trialdata": {"rt": -1, "stimulus": "<p id=\"stim\">2</p>", "key_press": -1, "trial_type": "single-stim", "trial_index": 154, "time_elapsed": 786450, "internal_node_id": "0.0-110.0-8.0"}}, {"uniqueid": "MTK1275:30IQTZXKALDCDURNCAOB597GCDTX0U", "current_trial": 155, "dateTime": 1513493054382, "trialdata": {"rt": -1, "stimulus": "<p id=\"stim\">1</p>", "key_press": -1, "trial_type": "single-stim", "trial_index": 155, "time_elapsed": 787453, "internal_node_id": "0.0-110.0-9.0"}}, {"uniqueid": "MTK1275:30IQTZXKALDCDURNCAOB597GCDTX0U", "current_trial": 156, "dateTime": 1513493055885, "trialdata": {"rt": -1, "stimulus": "<p id=\"stim\">+</p>", "key_press": -1, "type": "FIXATION", "trial_type": "single-stim", "trial_index": 156, "time_elapsed": 788956, "internal_node_id": "0.0-111.0-0.0"}}, {"uniqueid": "MTK1275:30IQTZXKALDCDURNCAOB597GCDTX0U", "current_trial": 157, "dateTime": 1513493057488, "trialdata": {"rt": -1, "stimulus": "<p id=\"stim\">STOVE</p>", "key_press": -1, "type": "PRES_VIS", "word": "stove", "wordID": 1387, "conditions": [24, 1600, "v", 24000], "trial": 4, "serialpos": 0, "trial_type": "single-stim", "trial_index": 157, "time_elapsed": 790559, "internal_node_id": "0.0-112.0"}}, {"uniqueid": "MTK1275:30IQTZXKALDCDURNCAOB597GCDTX0U", "current_trial": 158, "dateTime": 1513493060081, "trialdata": {"rt": -1, "stimulus": "<p id=\"stim\">TAXI</p>", "key_press": -1, "type": "PRES_VIS", "word": "taxi", "wordID": 1437, "conditions": [24, 1600, "v", 24000], "trial": 4, "serialpos": 1, "trial_type": "single-stim", "trial_index": 158, "time_elapsed": 793152, "internal_node_id": "0.0-113.0"}}, {"uniqueid": "MTK1275:30IQTZXKALDCDURNCAOB597GCDTX0U", "current_trial": 159, "dateTime": 1513493062638, "trialdata": {"rt": -1, "stimulus": "<p id=\"stim\">TROUT</p>", "key_press": -1, "type": "PRES_VIS", "word": "trout", "wordID": 1510, "conditions": [24, 1600, "v", 24000], "trial": 4, "serialpos": 2, "trial_type": "single-stim", "trial_index": 159, "time_elapsed": 795708, "internal_node_id": "0.0-114.0"}}, {"uniqueid": "MTK1275:30IQTZXKALDCDURNCAOB597GCDTX0U", "current_trial": 160, "dateTime": 1513493065209, "trialdata": {"rt": -1, "stimulus": "<p id=\"stim\">DOLPHIN</p>", "key_press": -1, "type": "PRES_VIS", "word": "dolphin", "wordID": 482, "conditions": [24, 1600, "v", 24000], "trial": 4, "serialpos": 3, "trial_type": "single-stim", "trial_index": 160, "time_elapsed": 798279, "internal_node_id": "0.0-115.0"}}, {"uniqueid": "MTK1275:30IQTZXKALDCDURNCAOB597GCDTX0U", "current_trial": 161, "dateTime": 1513493067666, "trialdata": {"rt": -1, "stimulus": "<p id=\"stim\">TERMITE</p>", "key_press": -1, "type": "PRES_VIS", "word": "termite", "wordID": 1450, "conditions": [24, 1600, "v", 24000], "trial": 4, "serialpos": 4, "trial_type": "single-stim", "trial_index": 161, "time_elapsed": 800737, "internal_node_id": "0.0-116.0"}}, {"uniqueid": "MTK1275:30IQTZXKALDCDURNCAOB597GCDTX0U", "current_trial": 162, "dateTime": 1513493070316, "trialdata": {"rt": -1, "stimulus": "<p id=\"stim\">FLOWER</p>", "key_press": -1, "type": "PRES_VIS", "word": "flower", "wordID": 583, "conditions": [24, 1600, "v", 24000], "trial": 4, "serialpos": 5, "trial_type": "single-stim", "trial_index": 162, "time_elapsed": 803387, "internal_node_id": "0.0-117.0"}}, {"uniqueid": "MTK1275:30IQTZXKALDCDURNCAOB597GCDTX0U", "current_trial": 163, "dateTime": 1513493072867, "trialdata": {"rt": -1, "stimulus": "<p id=\"stim\">ORCHID</p>", "key_press": -1, "type": "PRES_VIS", "word": "orchid", "wordID": 981, "conditions": [24, 1600, "v", 24000], "trial": 4, "serialpos": 6, "trial_type": "single-stim", "trial_index": 163, "time_elapsed": 805938, "internal_node_id": "0.0-118.0"}}, {"uniqueid": "MTK1275:30IQTZXKALDCDURNCAOB597GCDTX0U", "current_trial": 164, "dateTime": 1513493075638, "trialdata": {"rt": -1, "stimulus": "<p id=\"stim\">APPLE</p>", "key_press": -1, "type": "PRES_VIS", "word": "apple", "wordID": 32, "conditions": [24, 1600, "v", 24000], "trial": 4, "serialpos": 7, "trial_type": "single-stim", "trial_index": 164, "time_elapsed": 808709, "internal_node_id": "0.0-119.0"}}, {"uniqueid": "MTK1275:30IQTZXKALDCDURNCAOB597GCDTX0U", "current_trial": 165, "dateTime": 1513493078359, "trialdata": {"rt": -1, "stimulus": "<p id=\"stim\">CRIB</p>", "key_press": -1, "type": "PRES_VIS", "word": "crib", "wordID": 406, "conditions": [24, 1600, "v", 24000], "trial": 4, "serialpos": 8, "trial_type": "single-stim", "trial_index": 165, "time_elapsed": 811430, "internal_node_id": "0.0-120.0"}}, {"uniqueid": "MTK1275:30IQTZXKALDCDURNCAOB597GCDTX0U", "current_trial": 166, "dateTime": 1513493081163, "trialdata": {"rt": -1, "stimulus": "<p id=\"stim\">SKILLET</p>", "key_press": -1, "type": "PRES_VIS", "word": "skillet", "wordID": 1316, "conditions": [24, 1600, "v", 24000], "trial": 4, "serialpos": 9, "trial_type": "single-stim", "trial_index": 166, "time_elapsed": 814234, "internal_node_id": "0.0-121.0"}}, {"uniqueid": "MTK1275:30IQTZXKALDCDURNCAOB597GCDTX0U", "current_trial": 167, "dateTime": 1513493083761, "trialdata": {"rt": -1, "stimulus": "<p id=\"stim\">DRAWING</p>", "key_press": -1, "type": "PRES_VIS", "word": "drawing", "wordID": 493, "conditions": [24, 1600, "v", 24000], "trial": 4, "serialpos": 10, "trial_type": "single-stim", "trial_index": 167, "time_elapsed": 816832, "internal_node_id": "0.0-122.0"}}, {"uniqueid": "MTK1275:30IQTZXKALDCDURNCAOB597GCDTX0U", "current_trial": 168, "dateTime": 1513493086550, "trialdata": {"rt": -1, "stimulus": "<p id=\"stim\">SALMON</p>", "key_press": -1, "type": "PRES_VIS", "word": "salmon", "wordID": 1226, "conditions": [24, 1600, "v", 24000], "trial": 4, "serialpos": 11, "trial_type": "single-stim", "trial_index": 168, "time_elapsed": 819621, "internal_node_id": "0.0-123.0"}}, {"uniqueid": "MTK1275:30IQTZXKALDCDURNCAOB597GCDTX0U", "current_trial": 169, "dateTime": 1513493089023, "trialdata": {"rt": -1, "stimulus": "<p id=\"stim\">PENGUIN</p>", "key_press": -1, "type": "PRES_VIS", "word": "penguin", "wordID": 1043, "conditions": [24, 1600, "v", 24000], "trial": 4, "serialpos": 12, "trial_type": "single-stim", "trial_index": 169, "time_elapsed": 822094, "internal_node_id": "0.0-124.0"}}, {"uniqueid": "MTK1275:30IQTZXKALDCDURNCAOB597GCDTX0U", "current_trial": 170, "dateTime": 1513493091554, "trialdata": {"rt": -1, "stimulus": "<p id=\"stim\">MILDEW</p>", "key_press": -1, "type": "PRES_VIS", "word": "mildew", "wordID": 892, "conditions": [24, 1600, "v", 24000], "trial": 4, "serialpos": 13, "trial_type": "single-stim", "trial_index": 170, "time_elapsed": 824625, "internal_node_id": "0.0-125.0"}}, {"uniqueid": "MTK1275:30IQTZXKALDCDURNCAOB597GCDTX0U", "current_trial": 171, "dateTime": 1513493094314, "trialdata": {"rt": -1, "stimulus": "<p id=\"stim\">ATOM</p>", "key_press": -1, "type": "PRES_VIS", "word": "atom", "wordID": 54, "conditions": [24, 1600, "v", 24000], "trial": 4, "serialpos": 14, "trial_type": "single-stim", "trial_index": 171, "time_elapsed": 827385, "internal_node_id": "0.0-126.0"}}, {"uniqueid": "MTK1275:30IQTZXKALDCDURNCAOB597GCDTX0U", "current_trial": 172, "dateTime": 1513493096886, "trialdata": {"rt": -1, "stimulus": "<p id=\"stim\">BEAKER</p>", "key_press": -1, "type": "PRES_VIS", "word": "beaker", "wordID": 103, "conditions": [24, 1600, "v", 24000], "trial": 4, "serialpos": 15, "trial_type": "single-stim", "trial_index": 172, "time_elapsed": 829957, "internal_node_id": "0.0-127.0"}}, {"uniqueid": "MTK1275:30IQTZXKALDCDURNCAOB597GCDTX0U", "current_trial": 173, "dateTime": 1513493099392, "trialdata": {"rt": -1, "stimulus": "<p id=\"stim\">TROMBONE</p>", "key_press": -1, "type": "PRES_VIS", "word": "trombone", "wordID": 1507, "conditions": [24, 1600, "v", 24000], "trial": 4, "serialpos": 16, "trial_type": "single-stim", "trial_index": 173, "time_elapsed": 832462, "internal_node_id": "0.0-128.0"}}, {"uniqueid": "MTK1275:30IQTZXKALDCDURNCAOB597GCDTX0U", "current_trial": 174, "dateTime": 1513493101878, "trialdata": {"rt": -1, "stimulus": "<p id=\"stim\">CITRUS</p>", "key_press": -1, "type": "PRES_VIS", "word": "citrus", "wordID": 312, "conditions": [24, 1600, "v", 24000], "trial": 4, "serialpos": 17, "trial_type": "single-stim", "trial_index": 174, "time_elapsed": 834949, "internal_node_id": "0.0-129.0"}}, {"uniqueid": "MTK1275:30IQTZXKALDCDURNCAOB597GCDTX0U", "current_trial": 175, "dateTime": 1513493104627, "trialdata": {"rt": -1, "stimulus": "<p id=\"stim\">BROTHER</p>", "key_press": -1, "type": "PRES_VIS", "word": "brother", "wordID": 178, "conditions": [24, 1600, "v", 24000], "trial": 4, "serialpos": 18, "trial_type": "single-stim", "trial_index": 175, "time_elapsed": 837698, "internal_node_id": "0.0-130.0"}}, {"uniqueid": "MTK1275:30IQTZXKALDCDURNCAOB597GCDTX0U", "current_trial": 176, "dateTime": 1513493107385, "trialdata": {"rt": -1, "stimulus": "<p id=\"stim\">TURTLE</p>", "key_press": -1, "type": "PRES_VIS", "word": "turtle", "wordID": 1521, "conditions": [24, 1600, "v", 24000], "trial": 4, "serialpos": 19, "trial_type": "single-stim", "trial_index": 176, "time_elapsed": 840456, "internal_node_id": "0.0-131.0"}}, {"uniqueid": "MTK1275:30IQTZXKALDCDURNCAOB597GCDTX0U", "current_trial": 177, "dateTime": 1513493109906, "trialdata": {"rt": -1, "stimulus": "<p id=\"stim\">TOASTER</p>", "key_press": -1, "type": "PRES_VIS", "word": "toaster", "wordID": 1471, "conditions": [24, 1600, "v", 24000], "trial": 4, "serialpos": 20, "trial_type": "single-stim", "trial_index": 177, "time_elapsed": 842977, "internal_node_id": "0.0-132.0"}}, {"uniqueid": "MTK1275:30IQTZXKALDCDURNCAOB597GCDTX0U", "current_trial": 178, "dateTime": 1513493112606, "trialdata": {"rt": -1, "stimulus": "<p id=\"stim\">TRACTOR</p>", "key_press": -1, "type": "PRES_VIS", "word": "tractor", "wordID": 1492, "conditions": [24, 1600, "v", 24000], "trial": 4, "serialpos": 21, "trial_type": "single-stim", "trial_index": 178, "time_elapsed": 845677, "internal_node_id": "0.0-133.0"}}, {"uniqueid": "MTK1275:30IQTZXKALDCDURNCAOB597GCDTX0U", "current_trial": 179, "dateTime": 1513493115064, "trialdata": {"rt": -1, "stimulus": "<p id=\"stim\">TRUCK</p>", "key_press": -1, "type": "PRES_VIS", "word": "truck", "wordID": 1511, "conditions": [24, 1600, "v", 24000], "trial": 4, "serialpos": 22, "trial_type": "single-stim", "trial_index": 179, "time_elapsed": 848134, "internal_node_id": "0.0-134.0"}}, {"uniqueid": "MTK1275:30IQTZXKALDCDURNCAOB597GCDTX0U", "current_trial": 180, "dateTime": 1513493117824, "trialdata": {"rt": -1, "stimulus": "<p id=\"stim\">SUPPER</p>", "key_press": -1, "type": "PRES_VIS", "word": "supper", "wordID": 1410, "conditions": [24, 1600, "v", 24000], "trial": 4, "serialpos": 23, "trial_type": "single-stim", "trial_index": 180, "time_elapsed": 850895, "internal_node_id": "0.0-135.0"}}, {"uniqueid": "MTK1275:30IQTZXKALDCDURNCAOB597GCDTX0U", "current_trial": 181, "dateTime": 1513493120131, "trialdata": {"rt": -1, "stimulus": "", "key_press": -1, "type": "PRE_RECALL_DELAY", "trial_type": "single-stim", "trial_index": 181, "time_elapsed": 853202, "internal_node_id": "0.0-136.0-0.0"}}, {"uniqueid": "MTK1275:30IQTZXKALDCDURNCAOB597GCDTX0U", "current_trial": 182, "dateTime": 1513493120632, "trialdata": {"rt": -1000, "stimulus": "/static/audio/400Hz.wav", "key_press": -1, "type": "PRE_RECALL_ALERT", "trial_type": "single-audio", "trial_index": 182, "time_elapsed": 853703, "internal_node_id": "0.0-137.0"}}, {"uniqueid": "MTK1275:30IQTZXKALDCDURNCAOB597GCDTX0U", "current_trial": 183, "dateTime": 1513493180646, "trialdata": {"rt": [3487, 5030, 7345, 9431, 14268, 16900, 21368, 22846, 26902, 31170, 32471, 35937, 37504, 43691, 49396, 55610], "recwords": ["turtle", "toaster", "tractor", "mildew", "dolphin", "stove", "atom", "beaker", "salmon", "citrus", "apple", "flower", "orchid", "trout", "crib", "brother"], "type": "FREE_RECALL", "conditions": [24, 1600, "v", 24000], "trial": 4, "trial_type": "free-recall", "trial_index": 183, "time_elapsed": 913706, "internal_node_id": "0.0-138.0-0.0"}}, {"uniqueid": "MTK1275:30IQTZXKALDCDURNCAOB597GCDTX0U", "current_trial": 184, "dateTime": 1513493185721, "trialdata": {"rt": 3073, "key_press": 32, "type": "INSTRUCTIONS", "trial_type": "text", "trial_index": 184, "time_elapsed": 918792, "internal_node_id": "0.0-139.0"}}, {"uniqueid": "MTK1275:30IQTZXKALDCDURNCAOB597GCDTX0U", "current_trial": 185, "dateTime": 1513493199730, "trialdata": {"rt": [2321, 4733, 6210, 8086, 10198, 11551], "responses": ["18", "22", "15", "16", "11", "24"], "num1": [9, 4, 9, 9, 5, 8, 4], "num2": [3, 9, 1, 5, 2, 8, 2], "num3": [6, 9, 5, 2, 4, 8, 6], "type": "DISTRACTOR", "conditions": [12, 800, "v", 12000], "trial": 5, "trial_type": "math-distractor", "trial_index": 185, "time_elapsed": 932800, "internal_node_id": "0.0-140.0"}}, {"uniqueid": "MTK1275:30IQTZXKALDCDURNCAOB597GCDTX0U", "current_trial": 186, "dateTime": 1513493202732, "trialdata": {"rt": -1, "stimulus": "<p id=\"stim\">10</p>", "key_press": -1, "trial_type": "single-stim", "trial_index": 186, "time_elapsed": 935803, "internal_node_id": "0.0-141.0-0.0"}}, {"uniqueid": "MTK1275:30IQTZXKALDCDURNCAOB597GCDTX0U", "current_trial": 187, "dateTime": 1513493203735, "trialdata": {"rt": -1, "stimulus": "<p id=\"stim\">9</p>", "key_press": -1, "trial_type": "single-stim", "trial_index": 187, "time_elapsed": 936806, "internal_node_id": "0.0-141.0-1.0"}}, {"uniqueid": "MTK1275:30IQTZXKALDCDURNCAOB597GCDTX0U", "current_trial": 188, "dateTime": 1513493204739, "trialdata": {"rt": -1, "stimulus": "<p id=\"stim\">8</p>", "key_press": -1, "trial_type": "single-stim", "trial_index": 188, "time_elapsed": 937810, "internal_node_id": "0.0-141.0-2.0"}}, {"uniqueid": "MTK1275:30IQTZXKALDCDURNCAOB597GCDTX0U", "current_trial": 189, "dateTime": 1513493205742, "trialdata": {"rt": -1, "stimulus": "<p id=\"stim\">7</p>", "key_press": -1, "trial_type": "single-stim", "trial_index": 189, "time_elapsed": 938813, "internal_node_id": "0.0-141.0-3.0"}}, {"uniqueid": "MTK1275:30IQTZXKALDCDURNCAOB597GCDTX0U", "current_trial": 190, "dateTime": 1513493206745, "trialdata": {"rt": -1, "stimulus": "<p id=\"stim\">6</p>", "key_press": -1, "trial_type": "single-stim", "trial_index": 190, "time_elapsed": 939816, "internal_node_id": "0.0-141.0-4.0"}}, {"uniqueid": "MTK1275:30IQTZXKALDCDURNCAOB597GCDTX0U", "current_trial": 191, "dateTime": 1513493207748, "trialdata": {"rt": -1, "stimulus": "<p id=\"stim\">5</p>", "key_press": -1, "trial_type": "single-stim", "trial_index": 191, "time_elapsed": 940818, "internal_node_id": "0.0-141.0-5.0"}}, {"uniqueid": "MTK1275:30IQTZXKALDCDURNCAOB597GCDTX0U", "current_trial": 192, "dateTime": 1513493208750, "trialdata": {"rt": -1, "stimulus": "<p id=\"stim\">4</p>", "key_press": -1, "trial_type": "single-stim", "trial_index": 192, "time_elapsed": 941821, "internal_node_id": "0.0-141.0-6.0"}}, {"uniqueid": "MTK1275:30IQTZXKALDCDURNCAOB597GCDTX0U", "current_trial": 193, "dateTime": 1513493209753, "trialdata": {"rt": -1, "stimulus": "<p id=\"stim\">3</p>", "key_press": -1, "trial_type": "single-stim", "trial_index": 193, "time_elapsed": 942824, "internal_node_id": "0.0-141.0-7.0"}}, {"uniqueid": "MTK1275:30IQTZXKALDCDURNCAOB597GCDTX0U", "current_trial": 194, "dateTime": 1513493210757, "trialdata": {"rt": -1, "stimulus": "<p id=\"stim\">2</p>", "key_press": -1, "trial_type": "single-stim", "trial_index": 194, "time_elapsed": 943827, "internal_node_id": "0.0-141.0-8.0"}}, {"uniqueid": "MTK1275:30IQTZXKALDCDURNCAOB597GCDTX0U", "current_trial": 195, "dateTime": 1513493211759, "trialdata": {"rt": -1, "stimulus": "<p id=\"stim\">1</p>", "key_press": -1, "trial_type": "single-stim", "trial_index": 195, "time_elapsed": 944830, "internal_node_id": "0.0-141.0-9.0"}}, {"uniqueid": "MTK1275:30IQTZXKALDCDURNCAOB597GCDTX0U", "current_trial": 196, "dateTime": 1513493213262, "trialdata": {"rt": -1, "stimulus": "<p id=\"stim\">+</p>", "key_press": -1, "type": "FIXATION", "trial_type": "single-stim", "trial_index": 196, "time_elapsed": 946333, "internal_node_id": "0.0-142.0-0.0"}}, {"uniqueid": "MTK1275:30IQTZXKALDCDURNCAOB597GCDTX0U", "current_trial": 197, "dateTime": 1513493214066, "trialdata": {"rt": -1, "stimulus": "<p id=\"stim\">PIZZA</p>", "key_press": -1, "type": "PRES_VIS", "word": "pizza", "wordID": 1078, "conditions": [12, 800, "v", 12000], "trial": 5, "serialpos": 0, "trial_type": "single-stim", "trial_index": 197, "time_elapsed": 947136, "internal_node_id": "0.0-143.0"}}, {"uniqueid": "MTK1275:30IQTZXKALDCDURNCAOB597GCDTX0U", "current_trial": 198, "dateTime": 1513493215793, "trialdata": {"rt": -1, "stimulus": "<p id=\"stim\">CHILD</p>", "key_press": -1, "type": "PRES_VIS", "word": "child", "wordID": 298, "conditions": [12, 800, "v", 12000], "trial": 5, "serialpos": 1, "trial_type": "single-stim", "trial_index": 198, "time_elapsed": 948864, "internal_node_id": "0.0-144.0"}}, {"uniqueid": "MTK1275:30IQTZXKALDCDURNCAOB597GCDTX0U", "current_trial": 199, "dateTime": 1513493217526, "trialdata": {"rt": -1, "stimulus": "<p id=\"stim\">GYMNAST</p>", "key_press": -1, "type": "PRES_VIS", "word": "gymnast", "wordID": 674, "conditions": [12, 800, "v", 12000], "trial": 5, "serialpos": 2, "trial_type": "single-stim", "trial_index": 199, "time_elapsed": 950597, "internal_node_id": "0.0-145.0"}}, {"uniqueid": "MTK1275:30IQTZXKALDCDURNCAOB597GCDTX0U", "current_trial": 200, "dateTime": 1513493219399, "trialdata": {"rt": -1, "stimulus": "<p id=\"stim\">REBEL</p>", "key_press": -1, "type": "PRES_VIS", "word": "rebel", "wordID": 1171, "conditions": [12, 800, "v", 12000], "trial": 5, "serialpos": 3, "trial_type": "single-stim", "trial_index": 200, "time_elapsed": 952470, "internal_node_id": "0.0-146.0"}}, {"uniqueid": "MTK1275:30IQTZXKALDCDURNCAOB597GCDTX0U", "current_trial": 201, "dateTime": 1513493221199, "trialdata": {"rt": -1, "stimulus": "<p id=\"stim\">COBRA</p>", "key_press": -1, "type": "PRES_VIS", "word": "cobra", "wordID": 335, "conditions": [12, 800, "v", 12000], "trial": 5, "serialpos": 4, "trial_type": "single-stim", "trial_index": 201, "time_elapsed": 954270, "internal_node_id": "0.0-147.0"}}, {"uniqueid": "MTK1275:30IQTZXKALDCDURNCAOB597GCDTX0U", "current_trial": 202, "dateTime": 1513493223107, "trialdata": {"rt": -1, "stimulus": "<p id=\"stim\">ROBIN</p>", "key_press": -1, "type": "PRES_VIS", "word": "robin", "wordID": 1198, "conditions": [12, 800, "v", 12000], "trial": 5, "serialpos": 5, "trial_type": "single-stim", "trial_index": 202, "time_elapsed": 956178, "internal_node_id": "0.0-148.0"}}, {"uniqueid": "MTK1275:30IQTZXKALDCDURNCAOB597GCDTX0U", "current_trial": 203, "dateTime": 1513493224744, "trialdata": {"rt": -1, "stimulus": "<p id=\"stim\">SPARROW</p>", "key_press": -1, "type": "PRES_VIS", "word": "sparrow", "wordID": 1346, "conditions": [12, 800, "v", 12000], "trial": 5, "serialpos": 6, "trial_type": "single-stim", "trial_index": 203, "time_elapsed": 957815, "internal_node_id": "0.0-149.0"}}, {"uniqueid": "MTK1275:30IQTZXKALDCDURNCAOB597GCDTX0U", "current_trial": 204, "dateTime": 1513493226676, "trialdata": {"rt": -1, "stimulus": "<p id=\"stim\">DOUGHNUT</p>", "key_press": -1, "type": "PRES_VIS", "word": "doughnut", "wordID": 489, "conditions": [12, 800, "v", 12000], "trial": 5, "serialpos": 7, "trial_type": "single-stim", "trial_index": 204, "time_elapsed": 959747, "internal_node_id": "0.0-150.0"}}, {"uniqueid": "MTK1275:30IQTZXKALDCDURNCAOB597GCDTX0U", "current_trial": 205, "dateTime": 1513493228606, "trialdata": {"rt": -1, "stimulus": "<p id=\"stim\">LIZARD</p>", "key_press": -1, "type": "PRES_VIS", "word": "lizard", "wordID": 833, "conditions": [12, 800, "v", 12000], "trial": 5, "serialpos": 8, "trial_type": "single-stim", "trial_index": 205, "time_elapsed": 961677, "internal_node_id": "0.0-151.0"}}, {"uniqueid": "MTK1275:30IQTZXKALDCDURNCAOB597GCDTX0U", "current_trial": 206, "dateTime": 1513493230532, "trialdata": {"rt": -1, "stimulus": "<p id=\"stim\">COUCH</p>", "key_press": -1, "type": "PRES_VIS", "word": "couch", "wordID": 385, "conditions": [12, 800, "v", 12000], "trial": 5, "serialpos": 9, "trial_type": "single-stim", "trial_index": 206, "time_elapsed": 963603, "internal_node_id": "0.0-152.0"}}, {"uniqueid": "MTK1275:30IQTZXKALDCDURNCAOB597GCDTX0U", "current_trial": 207, "dateTime": 1513493232227, "trialdata": {"rt": -1, "stimulus": "<p id=\"stim\">FIREMAN</p>", "key_press": -1, "type": "PRES_VIS", "word": "fireman", "wordID": 568, "conditions": [12, 800, "v", 12000], "trial": 5, "serialpos": 10, "trial_type": "single-stim", "trial_index": 207, "time_elapsed": 965298, "internal_node_id": "0.0-153.0"}}, {"uniqueid": "MTK1275:30IQTZXKALDCDURNCAOB597GCDTX0U", "current_trial": 208, "dateTime": 1513493233893, "trialdata": {"rt": -1, "stimulus": "<p id=\"stim\">CHAMPAGNE</p>", "key_press": -1, "type": "PRES_VIS", "word": "champagne", "wordID": 277, "conditions": [12, 800, "v", 12000], "trial": 5, "serialpos": 11, "trial_type": "single-stim", "trial_index": 208, "time_elapsed": 966964, "internal_node_id": "0.0-154.0"}}, {"uniqueid": "MTK1275:30IQTZXKALDCDURNCAOB597GCDTX0U", "current_trial": 209, "dateTime": 1513493235954, "trialdata": {"rt": -1, "stimulus": "", "key_press": -1, "type": "PRE_RECALL_DELAY", "trial_type": "single-stim", "trial_index": 209, "time_elapsed": 969025, "internal_node_id": "0.0-155.0-0.0"}}, {"uniqueid": "MTK1275:30IQTZXKALDCDURNCAOB597GCDTX0U", "current_trial": 210, "dateTime": 1513493236474, "trialdata": {"rt": -1000, "stimulus": "/static/audio/400Hz.wav", "key_press": -1, "type": "PRE_RECALL_ALERT", "trial_type": "single-audio", "trial_index": 210, "time_elapsed": 969545, "internal_node_id": "0.0-156.0"}}, {"uniqueid": "MTK1275:30IQTZXKALDCDURNCAOB597GCDTX0U", "current_trial": 211, "dateTime": 1513493296490, "trialdata": {"rt": [4655, 10360, 14845, 23687, 23840, 26914, 33988, 39018, 46972], "recwords": ["champagne", "fireman", "cobra", "sparrow", "", "robin", "cobra", "doughnut", "pizza"], "type": "FREE_RECALL", "conditions": [12, 800, "v", 12000], "trial": 5, "trial_type": "free-recall", "trial_index": 211, "time_elapsed": 1029549, "internal_node_id": "0.0-157.0-0.0"}}, {"uniqueid": "MTK1275:30IQTZXKALDCDURNCAOB597GCDTX0U", "current_trial": 212, "dateTime": 1513493301647, "trialdata": {"rt": 3155, "key_press": 32, "type": "INSTRUCTIONS", "trial_type": "text", "trial_index": 212, "time_elapsed": 1034718, "internal_node_id": "0.0-158.0"}}, {"uniqueid": "MTK1275:30IQTZXKALDCDURNCAOB597GCDTX0U", "current_trial": 213, "dateTime": 1513493327654, "trialdata": {"rt": [1461, 3962, 5951, 8270, 10524, 13759, 15887, 17321, 20055, 21791, 23393], "responses": ["9", "11", "17", "16", "11", "14", "16", "12", "14", "16", "12"], "num1": [3, 4, 2, 4, 3, 4, 7, 1, 9, 1, 2, 5], "num2": [3, 3, 8, 6, 6, 4, 8, 9, 2, 7, 6, 7], "num3": [3, 4, 7, 6, 2, 6, 1, 2, 3, 8, 4, 4], "type": "DISTRACTOR", "conditions": [24, 800, "v", 24000], "trial": 6, "trial_type": "math-distractor", "trial_index": 213, "time_elapsed": 1060724, "internal_node_id": "0.0-159.0"}}, {"uniqueid": "MTK1275:30IQTZXKALDCDURNCAOB597GCDTX0U", "current_trial": 214, "dateTime": 1513493330657, "trialdata": {"rt": -1, "stimulus": "<p id=\"stim\">10</p>", "key_press": -1, "trial_type": "single-stim", "trial_index": 214, "time_elapsed": 1063728, "internal_node_id": "0.0-160.0-0.0"}}, {"uniqueid": "MTK1275:30IQTZXKALDCDURNCAOB597GCDTX0U", "current_trial": 215, "dateTime": 1513493331660, "trialdata": {"rt": -1, "stimulus": "<p id=\"stim\">9</p>", "key_press": -1, "trial_type": "single-stim", "trial_index": 215, "time_elapsed": 1064731, "internal_node_id": "0.0-160.0-1.0"}}, {"uniqueid": "MTK1275:30IQTZXKALDCDURNCAOB597GCDTX0U", "current_trial": 216, "dateTime": 1513493332663, "trialdata": {"rt": -1, "stimulus": "<p id=\"stim\">8</p>", "key_press": -1, "trial_type": "single-stim", "trial_index": 216, "time_elapsed": 1065734, "internal_node_id": "0.0-160.0-2.0"}}, {"uniqueid": "MTK1275:30IQTZXKALDCDURNCAOB597GCDTX0U", "current_trial": 217, "dateTime": 1513493333666, "trialdata": {"rt": -1, "stimulus": "<p id=\"stim\">7</p>", "key_press": -1, "trial_type": "single-stim", "trial_index": 217, "time_elapsed": 1066737, "internal_node_id": "0.0-160.0-3.0"}}, {"uniqueid": "MTK1275:30IQTZXKALDCDURNCAOB597GCDTX0U", "current_trial": 218, "dateTime": 1513493334669, "trialdata": {"rt": -1, "stimulus": "<p id=\"stim\">6</p>", "key_press": -1, "trial_type": "single-stim", "trial_index": 218, "time_elapsed": 1067740, "internal_node_id": "0.0-160.0-4.0"}}, {"uniqueid": "MTK1275:30IQTZXKALDCDURNCAOB597GCDTX0U", "current_trial": 219, "dateTime": 1513493335671, "trialdata": {"rt": -1, "stimulus": "<p id=\"stim\">5</p>", "key_press": -1, "trial_type": "single-stim", "trial_index": 219, "time_elapsed": 1068742, "internal_node_id": "0.0-160.0-5.0"}}, {"uniqueid": "MTK1275:30IQTZXKALDCDURNCAOB597GCDTX0U", "current_trial": 220, "dateTime": 1513493336674, "trialdata": {"rt": -1, "stimulus": "<p id=\"stim\">4</p>", "key_press": -1, "trial_type": "single-stim", "trial_index": 220, "time_elapsed": 1069745, "internal_node_id": "0.0-160.0-6.0"}}, {"uniqueid": "MTK1275:30IQTZXKALDCDURNCAOB597GCDTX0U", "current_trial": 221, "dateTime": 1513493337677, "trialdata": {"rt": -1, "stimulus": "<p id=\"stim\">3</p>", "key_press": -1, "trial_type": "single-stim", "trial_index": 221, "time_elapsed": 1070748, "internal_node_id": "0.0-160.0-7.0"}}, {"uniqueid": "MTK1275:30IQTZXKALDCDURNCAOB597GCDTX0U", "current_trial": 222, "dateTime": 1513493338680, "trialdata": {"rt": -1, "stimulus": "<p id=\"stim\">2</p>", "key_press": -1, "trial_type": "single-stim", "trial_index": 222, "time_elapsed": 1071751, "internal_node_id": "0.0-160.0-8.0"}}, {"uniqueid": "MTK1275:30IQTZXKALDCDURNCAOB597GCDTX0U", "current_trial": 223, "dateTime": 1513493339682, "trialdata": {"rt": -1, "stimulus": "<p id=\"stim\">1</p>", "key_press": -1, "trial_type": "single-stim", "trial_index": 223, "time_elapsed": 1072753, "internal_node_id": "0.0-160.0-9.0"}}, {"uniqueid": "MTK1275:30IQTZXKALDCDURNCAOB597GCDTX0U", "current_trial": 224, "dateTime": 1513493341185, "trialdata": {"rt": -1, "stimulus": "<p id=\"stim\">+</p>", "key_press": -1, "type": "FIXATION", "trial_type": "single-stim", "trial_index": 224, "time_elapsed": 1074256, "internal_node_id": "0.0-161.0-0.0"}}, {"uniqueid": "MTK1275:30IQTZXKALDCDURNCAOB597GCDTX0U", "current_trial": 225, "dateTime": 1513493341988, "trialdata": {"rt": -1, "stimulus": "<p id=\"stim\">CANAL</p>", "key_press": -1, "type": "PRES_VIS", "word": "canal", "wordID": 225, "conditions": [24, 800, "v", 24000], "trial": 6, "serialpos": 0, "trial_type": "single-stim", "trial_index": 225, "time_elapsed": 1075059, "internal_node_id": "0.0-162.0"}}, {"uniqueid": "MTK1275:30IQTZXKALDCDURNCAOB597GCDTX0U", "current_trial": 226, "dateTime": 1513493343720, "trialdata": {"rt": -1, "stimulus": "<p id=\"stim\">LAGOON</p>", "key_press": -1, "type": "PRES_VIS", "word": "lagoon", "wordID": 794, "conditions": [24, 800, "v", 24000], "trial": 6, "serialpos": 1, "trial_type": "single-stim", "trial_index": 226, "time_elapsed": 1076791, "internal_node_id": "0.0-163.0"}}, {"uniqueid": "MTK1275:30IQTZXKALDCDURNCAOB597GCDTX0U", "current_trial": 227, "dateTime": 1513493345524, "trialdata": {"rt": -1, "stimulus": "<p id=\"stim\">VIKING</p>", "key_press": -1, "type": "PRES_VIS", "word": "viking", "wordID": 1564, "conditions": [24, 800, "v", 24000], "trial": 6, "serialpos": 2, "trial_type": "single-stim", "trial_index": 227, "time_elapsed": 1078595, "internal_node_id": "0.0-164.0"}}, {"uniqueid": "MTK1275:30IQTZXKALDCDURNCAOB597GCDTX0U", "current_trial": 228, "dateTime": 1513493347460, "trialdata": {"rt": -1, "stimulus": "<p id=\"stim\">ITEM</p>", "key_press": -1, "type": "PRES_VIS", "word": "item", "wordID": 745, "conditions": [24, 800, "v", 24000], "trial": 6, "serialpos": 3, "trial_type": "single-stim", "trial_index": 228, "time_elapsed": 1080531, "internal_node_id": "0.0-165.0"}}, {"uniqueid": "MTK1275:30IQTZXKALDCDURNCAOB597GCDTX0U", "current_trial": 229, "dateTime": 1513493349101, "trialdata": {"rt": -1, "stimulus": "<p id=\"stim\">RIVER</p>", "key_press": -1, "type": "PRES_VIS", "word": "river", "wordID": 1193, "conditions": [24, 800, "v", 24000], "trial": 6, "serialpos": 4, "trial_type": "single-stim", "trial_index": 229, "time_elapsed": 1082172, "internal_node_id": "0.0-166.0"}}, {"uniqueid": "MTK1275:30IQTZXKALDCDURNCAOB597GCDTX0U", "current_trial": 230, "dateTime": 1513493350785, "trialdata": {"rt": -1, "stimulus": "<p id=\"stim\">COUNTRY</p>", "key_press": -1, "type": "PRES_VIS", "word": "country", "wordID": 387, "conditions": [24, 800, "v", 24000], "trial": 6, "serialpos": 5, "trial_type": "single-stim", "trial_index": 230, "time_elapsed": 1083855, "internal_node_id": "0.0-167.0"}}, {"uniqueid": "MTK1275:30IQTZXKALDCDURNCAOB597GCDTX0U", "current_trial": 231, "dateTime": 1513493352490, "trialdata": {"rt": -1, "stimulus": "<p id=\"stim\">CASHIER</p>", "key_press": -1, "type": "PRES_VIS", "word": "cashier", "wordID": 253, "conditions": [24, 800, "v", 24000], "trial": 6, "serialpos": 6, "trial_type": "single-stim", "trial_index": 231, "time_elapsed": 1085561, "internal_node_id": "0.0-168.0"}}, {"uniqueid": "MTK1275:30IQTZXKALDCDURNCAOB597GCDTX0U", "current_trial": 232, "dateTime": 1513493354264, "trialdata": {"rt": -1, "stimulus": "<p id=\"stim\">COUSIN</p>", "key_press": -1, "type": "PRES_VIS", "word": "cousin", "wordID": 391, "conditions": [24, 800, "v", 24000], "trial": 6, "serialpos": 7, "trial_type": "single-stim", "trial_index": 232, "time_elapsed": 1087335, "internal_node_id": "0.0-169.0"}}, {"uniqueid": "MTK1275:30IQTZXKALDCDURNCAOB597GCDTX0U", "current_trial": 233, "dateTime": 1513493355987, "trialdata": {"rt": -1, "stimulus": "<p id=\"stim\">TYPIST</p>", "key_press": -1, "type": "PRES_VIS", "word": "typist", "wordID": 1531, "conditions": [24, 800, "v", 24000], "trial": 6, "serialpos": 8, "trial_type": "single-stim", "trial_index": 233, "time_elapsed": 1089058, "internal_node_id": "0.0-170.0"}}, {"uniqueid": "MTK1275:30IQTZXKALDCDURNCAOB597GCDTX0U", "current_trial": 234, "dateTime": 1513493357739, "trialdata": {"rt": -1, "stimulus": "<p id=\"stim\">NOMAD</p>", "key_press": -1, "type": "PRES_VIS", "word": "nomad", "wordID": 954, "conditions": [24, 800, "v", 24000], "trial": 6, "serialpos": 9, "trial_type": "single-stim", "trial_index": 234, "time_elapsed": 1090810, "internal_node_id": "0.0-171.0"}}, {"uniqueid": "MTK1275:30IQTZXKALDCDURNCAOB597GCDTX0U", "current_trial": 235, "dateTime": 1513493359584, "trialdata": {"rt": -1, "stimulus": "<p id=\"stim\">UNCLE</p>", "key_press": -1, "type": "PRES_VIS", "word": "uncle", "wordID": 1535, "conditions": [24, 800, "v", 24000], "trial": 6, "serialpos": 10, "trial_type": "single-stim", "trial_index": 235, "time_elapsed": 1092655, "internal_node_id": "0.0-172.0"}}, {"uniqueid": "MTK1275:30IQTZXKALDCDURNCAOB597GCDTX0U", "current_trial": 236, "dateTime": 1513493361213, "trialdata": {"rt": -1, "stimulus": "<p id=\"stim\">DORM</p>", "key_press": -1, "type": "PRES_VIS", "word": "dorm", "wordID": 487, "conditions": [24, 800, "v", 24000], "trial": 6, "serialpos": 11, "trial_type": "single-stim", "trial_index": 236, "time_elapsed": 1094284, "internal_node_id": "0.0-173.0"}}, {"uniqueid": "MTK1275:30IQTZXKALDCDURNCAOB597GCDTX0U", "current_trial": 237, "dateTime": 1513493363203, "trialdata": {"rt": -1, "stimulus": "<p id=\"stim\">COD</p>", "key_press": -1, "type": "PRES_VIS", "word": "cod", "wordID": 339, "conditions": [24, 800, "v", 24000], "trial": 6, "serialpos": 12, "trial_type": "single-stim", "trial_index": 237, "time_elapsed": 1096273, "internal_node_id": "0.0-174.0"}}, {"uniqueid": "MTK1275:30IQTZXKALDCDURNCAOB597GCDTX0U", "current_trial": 238, "dateTime": 1513493365143, "trialdata": {"rt": -1, "stimulus": "<p id=\"stim\">LADY</p>", "key_press": -1, "type": "PRES_VIS", "word": "lady", "wordID": 793, "conditions": [24, 800, "v", 24000], "trial": 6, "serialpos": 13, "trial_type": "single-stim", "trial_index": 238, "time_elapsed": 1098214, "internal_node_id": "0.0-175.0"}}, {"uniqueid": "MTK1275:30IQTZXKALDCDURNCAOB597GCDTX0U", "current_trial": 239, "dateTime": 1513493367040, "trialdata": {"rt": -1, "stimulus": "<p id=\"stim\">LEG</p>", "key_press": -1, "type": "PRES_VIS", "word": "leg", "wordID": 808, "conditions": [24, 800, "v", 24000], "trial": 6, "serialpos": 14, "trial_type": "single-stim", "trial_index": 239, "time_elapsed": 1100111, "internal_node_id": "0.0-176.0"}}, {"uniqueid": "MTK1275:30IQTZXKALDCDURNCAOB597GCDTX0U", "current_trial": 240, "dateTime": 1513493368736, "trialdata": {"rt": -1, "stimulus": "<p id=\"stim\">PLAYGROUND</p>", "key_press": -1, "type": "PRES_VIS", "word": "playground", "wordID": 1086, "conditions": [24, 800, "v", 24000], "trial": 6, "serialpos": 15, "trial_type": "single-stim", "trial_index": 240, "time_elapsed": 1101806, "internal_node_id": "0.0-177.0"}}, {"uniqueid": "MTK1275:30IQTZXKALDCDURNCAOB597GCDTX0U", "current_trial": 241, "dateTime": 1513493370424, "trialdata": {"rt": -1, "stimulus": "<p id=\"stim\">CASHEW</p>", "key_press": -1, "type": "PRES_VIS", "word": "cashew", "wordID": 252, "conditions": [24, 800, "v", 24000], "trial": 6, "serialpos": 16, "trial_type": "single-stim", "trial_index": 241, "time_elapsed": 1103495, "internal_node_id": "0.0-178.0"}}, {"uniqueid": "MTK1275:30IQTZXKALDCDURNCAOB597GCDTX0U", "current_trial": 242, "dateTime": 1513493372381, "trialdata": {"rt": -1, "stimulus": "<p id=\"stim\">ARM</p>", "key_press": -1, "type": "PRES_VIS", "word": "arm", "wordID": 37, "conditions": [24, 800, "v", 24000], "trial": 6, "serialpos": 17, "trial_type": "single-stim", "trial_index": 242, "time_elapsed": 1105452, "internal_node_id": "0.0-179.0"}}, {"uniqueid": "MTK1275:30IQTZXKALDCDURNCAOB597GCDTX0U", "current_trial": 243, "dateTime": 1513493374365, "trialdata": {"rt": -1, "stimulus": "<p id=\"stim\">SALT</p>", "key_press": -1, "type": "PRES_VIS", "word": "salt", "wordID": 1228, "conditions": [24, 800, "v", 24000], "trial": 6, "serialpos": 18, "trial_type": "single-stim", "trial_index": 243, "time_elapsed": 1107436, "internal_node_id": "0.0-180.0"}}, {"uniqueid": "MTK1275:30IQTZXKALDCDURNCAOB597GCDTX0U", "current_trial": 244, "dateTime": 1513493376210, "trialdata": {"rt": -1, "stimulus": "<p id=\"stim\">FRAGRANCE</p>", "key_press": -1, "type": "PRES_VIS", "word": "fragrance", "wordID": 598, "conditions": [24, 800, "v", 24000], "trial": 6, "serialpos": 19, "trial_type": "single-stim", "trial_index": 244, "time_elapsed": 1109281, "internal_node_id": "0.0-181.0"}}, {"uniqueid": "MTK1275:30IQTZXKALDCDURNCAOB597GCDTX0U", "current_trial": 245, "dateTime": 1513493378163, "trialdata": {"rt": -1, "stimulus": "<p id=\"stim\">SODA</p>", "key_press": -1, "type": "PRES_VIS", "word": "soda", "wordID": 1340, "conditions": [24, 800, "v", 24000], "trial": 6, "serialpos": 20, "trial_type": "single-stim", "trial_index": 245, "time_elapsed": 1111234, "internal_node_id": "0.0-182.0"}}, {"uniqueid": "MTK1275:30IQTZXKALDCDURNCAOB597GCDTX0U", "current_trial": 246, "dateTime": 1513493379958, "trialdata": {"rt": -1, "stimulus": "<p id=\"stim\">GLOVE</p>", "key_press": -1, "type": "PRES_VIS", "word": "glove", "wordID": 641, "conditions": [24, 800, "v", 24000], "trial": 6, "serialpos": 21, "trial_type": "single-stim", "trial_index": 246, "time_elapsed": 1113029, "internal_node_id": "0.0-183.0"}}, {"uniqueid": "MTK1275:30IQTZXKALDCDURNCAOB597GCDTX0U", "current_trial": 247, "dateTime": 1513493381577, "trialdata": {"rt": -1, "stimulus": "<p id=\"stim\">COSTUME</p>", "key_press": -1, "type": "PRES_VIS", "word": "costume", "wordID": 382, "conditions": [24, 800, "v", 24000], "trial": 6, "serialpos": 22, "trial_type": "single-stim", "trial_index": 247, "time_elapsed": 1114648, "internal_node_id": "0.0-184.0"}}, {"uniqueid": "MTK1275:30IQTZXKALDCDURNCAOB597GCDTX0U", "current_trial": 248, "dateTime": 1513493383508, "trialdata": {"rt": -1, "stimulus": "<p id=\"stim\">SCARECROW</p>", "key_press": -1, "type": "PRES_VIS", "word": "scarecrow", "wordID": 1244, "conditions": [24, 800, "v", 24000], "trial": 6, "serialpos": 23, "trial_type": "single-stim", "trial_index": 248, "time_elapsed": 1116579, "internal_node_id": "0.0-185.0"}}, {"uniqueid": "MTK1275:30IQTZXKALDCDURNCAOB597GCDTX0U", "current_trial": 249, "dateTime": 1513493385659, "trialdata": {"rt": -1, "stimulus": "", "key_press": -1, "type": "PRE_RECALL_DELAY", "trial_type": "single-stim", "trial_index": 249, "time_elapsed": 1118729, "internal_node_id": "0.0-186.0-0.0"}}, {"uniqueid": "MTK1275:30IQTZXKALDCDURNCAOB597GCDTX0U", "current_trial": 250, "dateTime": 1513493386167, "trialdata": {"rt": -1000, "stimulus": "/static/audio/400Hz.wav", "key_press": -1, "type": "PRE_RECALL_ALERT", "trial_type": "single-audio", "trial_index": 250, "time_elapsed": 1119238, "internal_node_id": "0.0-187.0"}}, {"uniqueid": "MTK1275:30IQTZXKALDCDURNCAOB597GCDTX0U", "current_trial": 251, "dateTime": 1513493446186, "trialdata": {"rt": [5279, 14612, 16553, 20809, 22490, 27775, 30964, 32291, 40530, 52439], "recwords": ["costume", "soda", "glove", "fragrance", "salt", "playground", "canal", "cod", "lasy", "lagoon"], "type": "FREE_RECALL", "conditions": [24, 800, "v", 24000], "trial": 6, "trial_type": "free-recall", "trial_index": 251, "time_elapsed": 1179242, "internal_node_id": "0.0-188.0-0.0"}}, {"uniqueid": "MTK1275:30IQTZXKALDCDURNCAOB597GCDTX0U", "current_trial": 252, "dateTime": 1513493450579, "trialdata": {"rt": 2390, "key_press": 32, "type": "INSTRUCTIONS", "trial_type": "text", "trial_index": 252, "time_elapsed": 1183650, "internal_node_id": "0.0-189.0"}}, {"uniqueid": "MTK1275:30IQTZXKALDCDURNCAOB597GCDTX0U", "current_trial": 253, "dateTime": 1513493464586, "trialdata": {"rt": [1578, 4668, 6891, 9564, 11105], "responses": ["17", "17", "13", "13", "15"], "num1": [7, 4, 7, 9, 7, 6], "num2": [9, 7, 2, 3, 7, 3], "num3": [1, 6, 4, 1, 1, 6], "type": "DISTRACTOR", "conditions": [12, 800, "a", 12000], "trial": 7, "trial_type": "math-distractor", "trial_index": 253, "time_elapsed": 1197656, "internal_node_id": "0.0-190.0"}}, {"uniqueid": "MTK1275:30IQTZXKALDCDURNCAOB597GCDTX0U", "current_trial": 254, "dateTime": 1513493467590, "trialdata": {"rt": -1, "stimulus": "<p id=\"stim\">10</p>", "key_press": -1, "trial_type": "single-stim", "trial_index": 254, "time_elapsed": 1200661, "internal_node_id": "0.0-191.0-0.0"}}, {"uniqueid": "MTK1275:30IQTZXKALDCDURNCAOB597GCDTX0U", "current_trial": 255, "dateTime": 1513493468593, "trialdata": {"rt": -1, "stimulus": "<p id=\"stim\">9</p>", "key_press": -1, "trial_type": "single-stim", "trial_index": 255, "time_elapsed": 1201664, "internal_node_id": "0.0-191.0-1.0"}}, {"uniqueid": "MTK1275:30IQTZXKALDCDURNCAOB597GCDTX0U", "current_trial": 256, "dateTime": 1513493469597, "trialdata": {"rt": -1, "stimulus": "<p id=\"stim\">8</p>", "key_press": -1, "trial_type": "single-stim", "trial_index": 256, "time_elapsed": 1202667, "internal_node_id": "0.0-191.0-2.0"}}, {"uniqueid": "MTK1275:30IQTZXKALDCDURNCAOB597GCDTX0U", "current_trial": 257, "dateTime": 1513493470599, "trialdata": {"rt": -1, "stimulus": "<p id=\"stim\">7</p>", "key_press": -1, "trial_type": "single-stim", "trial_index": 257, "time_elapsed": 1203670, "internal_node_id": "0.0-191.0-3.0"}}, {"uniqueid": "MTK1275:30IQTZXKALDCDURNCAOB597GCDTX0U", "current_trial": 258, "dateTime": 1513493471601, "trialdata": {"rt": -1, "stimulus": "<p id=\"stim\">6</p>", "key_press": -1, "trial_type": "single-stim", "trial_index": 258, "time_elapsed": 1204672, "internal_node_id": "0.0-191.0-4.0"}}, {"uniqueid": "MTK1275:30IQTZXKALDCDURNCAOB597GCDTX0U", "current_trial": 259, "dateTime": 1513493472604, "trialdata": {"rt": -1, "stimulus": "<p id=\"stim\">5</p>", "key_press": -1, "trial_type": "single-stim", "trial_index": 259, "time_elapsed": 1205675, "internal_node_id": "0.0-191.0-5.0"}}, {"uniqueid": "MTK1275:30IQTZXKALDCDURNCAOB597GCDTX0U", "current_trial": 260, "dateTime": 1513493473607, "trialdata": {"rt": -1, "stimulus": "<p id=\"stim\">4</p>", "key_press": -1, "trial_type": "single-stim", "trial_index": 260, "time_elapsed": 1206678, "internal_node_id": "0.0-191.0-6.0"}}, {"uniqueid": "MTK1275:30IQTZXKALDCDURNCAOB597GCDTX0U", "current_trial": 261, "dateTime": 1513493474610, "trialdata": {"rt": -1, "stimulus": "<p id=\"stim\">3</p>", "key_press": -1, "trial_type": "single-stim", "trial_index": 261, "time_elapsed": 1207680, "internal_node_id": "0.0-191.0-7.0"}}, {"uniqueid": "MTK1275:30IQTZXKALDCDURNCAOB597GCDTX0U", "current_trial": 262, "dateTime": 1513493475612, "trialdata": {"rt": -1, "stimulus": "<p id=\"stim\">2</p>", "key_press": -1, "trial_type": "single-stim", "trial_index": 262, "time_elapsed": 1208683, "internal_node_id": "0.0-191.0-8.0"}}, {"uniqueid": "MTK1275:30IQTZXKALDCDURNCAOB597GCDTX0U", "current_trial": 263, "dateTime": 1513493476616, "trialdata": {"rt": -1, "stimulus": "<p id=\"stim\">1</p>", "key_press": -1, "trial_type": "single-stim", "trial_index": 263, "time_elapsed": 1209686, "internal_node_id": "0.0-191.0-9.0"}}, {"uniqueid": "MTK1275:30IQTZXKALDCDURNCAOB597GCDTX0U", "current_trial": 264, "dateTime": 1513493478118, "trialdata": {"rt": -1, "stimulus": "<p id=\"stim\">+</p>", "key_press": -1, "type": "FIXATION", "trial_type": "single-stim", "trial_index": 264, "time_elapsed": 1211189, "internal_node_id": "0.0-192.0-0.0"}}, {"uniqueid": "MTK1275:30IQTZXKALDCDURNCAOB597GCDTX0U", "current_trial": 265, "dateTime": 1513493479944, "trialdata": {"rt": -1000, "stimulus": "/static/audio/wordpool/TUTU.wav", "key_press": -1, "type": "PRES_AUD", "word": "tutu", "wordID": 1523, "conditions": [12, 800, "a", 12000], "trial": 7, "serialpos": 0, "trial_type": "single-audio", "trial_index": 265, "time_elapsed": 1213015, "internal_node_id": "0.0-193.0"}}, {"uniqueid": "MTK1275:30IQTZXKALDCDURNCAOB597GCDTX0U", "current_trial": 266, "dateTime": 1513493481709, "trialdata": {"rt": -1000, "stimulus": "/static/audio/wordpool/SHORTCAKE.wav", "key_press": -1, "type": "PRES_AUD", "word": "shortcake", "wordID": 1291, "conditions": [12, 800, "a", 12000], "trial": 7, "serialpos": 1, "trial_type": "single-audio", "trial_index": 266, "time_elapsed": 1214780, "internal_node_id": "0.0-194.0"}}, {"uniqueid": "MTK1275:30IQTZXKALDCDURNCAOB597GCDTX0U", "current_trial": 267, "dateTime": 1513493483598, "trialdata": {"rt": -1000, "stimulus": "/static/audio/wordpool/BEEF.wav", "key_press": -1, "type": "PRES_AUD", "word": "beef", "wordID": 112, "conditions": [12, 800, "a", 12000], "trial": 7, "serialpos": 2, "trial_type": "single-audio", "trial_index": 267, "time_elapsed": 1216669, "internal_node_id": "0.0-195.0"}}, {"uniqueid": "MTK1275:30IQTZXKALDCDURNCAOB597GCDTX0U", "current_trial": 268, "dateTime": 1513493485496, "trialdata": {"rt": -1000, "stimulus": "/static/audio/wordpool/PORK.wav", "key_press": -1, "type": "PRES_AUD", "word": "pork", "wordID": 1107, "conditions": [12, 800, "a", 12000], "trial": 7, "serialpos": 3, "trial_type": "single-audio", "trial_index": 268, "time_elapsed": 1218567, "internal_node_id": "0.0-196.0"}}, {"uniqueid": "MTK1275:30IQTZXKALDCDURNCAOB597GCDTX0U", "current_trial": 269, "dateTime": 1513493487443, "trialdata": {"rt": -1000, "stimulus": "/static/audio/wordpool/BANJO.wav", "key_press": -1, "type": "PRES_AUD", "word": "banjo", "wordID": 81, "conditions": [12, 800, "a", 12000], "trial": 7, "serialpos": 4, "trial_type": "single-audio", "trial_index": 269, "time_elapsed": 1220514, "internal_node_id": "0.0-197.0"}}, {"uniqueid": "MTK1275:30IQTZXKALDCDURNCAOB597GCDTX0U", "current_trial": 270, "dateTime": 1513493489292, "trialdata": {"rt": -1000, "stimulus": "/static/audio/wordpool/SHIRT.wav", "key_press": -1, "type": "PRES_AUD", "word": "shirt", "wordID": 1286, "conditions": [12, 800, "a", 12000], "trial": 7, "serialpos": 5, "trial_type": "single-audio", "trial_index": 270, "time_elapsed": 1222363, "internal_node_id": "0.0-198.0"}}, {"uniquei