{"condition": 0, "counterbalance": 2890, "assignmentId": "3ZSANO2JCGEVEHKELI1998DS3QMFSU", "workerId": "MTK1101", "hitId": "30EMX9PEVKQ47JEYWRN4019DVBOSKH", "currenttrial": 626, "bonus": 0, "data": [{"uniqueid": "MTK1101:3ZSANO2JCGEVEHKELI1998DS3QMFSU", "current_trial": 0, "dateTime": 1513107007616, "trialdata": {"rt": 29169, "key_press": 32, "type": "INSTRUCTIONS", "trial_type": "text", "trial_index": 0, "time_elapsed": 29174, "internal_node_id": "0.0-0.0"}}, {"uniqueid": "MTK1101:3ZSANO2JCGEVEHKELI1998DS3QMFSU", "current_trial": 1, "dateTime": 1513107021013, "trialdata": {"rt": 13392, "key_press": 32, "type": "INSTRUCTIONS", "trial_type": "text", "trial_index": 1, "time_elapsed": 42572, "internal_node_id": "0.0-1.0"}}, {"uniqueid": "MTK1101:3ZSANO2JCGEVEHKELI1998DS3QMFSU", "current_trial": 2, "dateTime": 1513107024539, "trialdata": {"rt": [3479], "responses": ["ocean"], "type": "AUDIO_TEST", "trial_type": "audio-test", "trial_index": 2, "time_elapsed": 46098, "internal_node_id": "0.0-2.0"}}, {"uniqueid": "MTK1101:3ZSANO2JCGEVEHKELI1998DS3QMFSU", "current_trial": 3, "dateTime": 1513107028674, "trialdata": {"rt": [4125], "responses": ["crystal"], "type": "AUDIO_TEST", "trial_type": "audio-test", "trial_index": 3, "time_elapsed": 50233, "internal_node_id": "0.0-3.0"}}, {"uniqueid": "MTK1101:3ZSANO2JCGEVEHKELI1998DS3QMFSU", "current_trial": 4, "dateTime": 1513107031738, "trialdata": {"rt": [3054], "responses": ["spice"], "type": "AUDIO_TEST", "trial_type": "audio-test", "trial_index": 4, "time_elapsed": 53297, "internal_node_id": "0.0-4.0"}}, {"uniqueid": "MTK1101:3ZSANO2JCGEVEHKELI1998DS3QMFSU", "current_trial": 5, "dateTime": 1513107046142, "trialdata": {"rt": 13635, "responses": "{\"Q0\":\"4:00 am\",\"Q1\":\"12:30 pm\",\"Q2\":\"4\"}", "type": "SLEEP_SURVEY", "trial_type": "survey-text", "trial_index": 5, "time_elapsed": 67701, "internal_node_id": "0.0-5.0"}}, {"uniqueid": "MTK1101:3ZSANO2JCGEVEHKELI1998DS3QMFSU", "current_trial": 6, "dateTime": 1513107085244, "trialdata": {"rt": 38101, "key_press": 32, "type": "INSTRUCTIONS", "trial_type": "text", "trial_index": 6, "time_elapsed": 106803, "internal_node_id": "0.0-6.0"}}, {"uniqueid": "MTK1101:3ZSANO2JCGEVEHKELI1998DS3QMFSU", "current_trial": 7, "dateTime": 1513107096230, "trialdata": {"rt": 10481, "key_press": 32, "type": "INSTRUCTIONS", "trial_type": "text", "trial_index": 7, "time_elapsed": 117789, "internal_node_id": "0.0-7.0"}}, {"uniqueid": "MTK1101:3ZSANO2JCGEVEHKELI1998DS3QMFSU", "current_trial": 8, "dateTime": 1513107101833, "trialdata": {"rt": 5103, "key_press": 32, "type": "INSTRUCTIONS", "trial_type": "text", "trial_index": 8, "time_elapsed": 123392, "internal_node_id": "0.0-8.0"}}, {"uniqueid": "MTK1101:3ZSANO2JCGEVEHKELI1998DS3QMFSU", "current_trial": 9, "dateTime": 1513107120864, "trialdata": {"rt": [3460, 5278, 7387, 9249, 11492, 13407, 16371], "responses": ["17", "8", "8", "10", "12", "14", "12"], "num1": [9, 1, 4, 1, 4, 4, 6, 5], "num2": [4, 1, 2, 2, 1, 3, 1, 3], "num3": [6, 6, 2, 7, 7, 7, 5, 9], "type": "DISTRACTOR", "conditions": [18, 1200, "v", 18000], "trial": 0, "trial_type": "math-distractor", "trial_index": 9, "time_elapsed": 142423, "internal_node_id": "0.0-9.0"}}, {"uniqueid": "MTK1101:3ZSANO2JCGEVEHKELI1998DS3QMFSU", "current_trial": 10, "dateTime": 1513107123876, "trialdata": {"rt": -1, "stimulus": "<p id=\"stim\">10</p>", "key_press": -1, "trial_type": "single-stim", "trial_index": 10, "time_elapsed": 145435, "internal_node_id": "0.0-10.0-0.0"}}, {"uniqueid": "MTK1101:3ZSANO2JCGEVEHKELI1998DS3QMFSU", "current_trial": 11, "dateTime": 1513107124879, "trialdata": {"rt": -1, "stimulus": "<p id=\"stim\">9</p>", "key_press": -1, "trial_type": "single-stim", "trial_index": 11, "time_elapsed": 146438, "internal_node_id": "0.0-10.0-1.0"}}, {"uniqueid": "MTK1101:3ZSANO2JCGEVEHKELI1998DS3QMFSU", "current_trial": 12, "dateTime": 1513107125880, "trialdata": {"rt": -1, "stimulus": "<p id=\"stim\">8</p>", "key_press": -1, "trial_type": "single-stim", "trial_index": 12, "time_elapsed": 147439, "internal_node_id": "0.0-10.0-2.0"}}, {"uniqueid": "MTK1101:3ZSANO2JCGEVEHKELI1998DS3QMFSU", "current_trial": 13, "dateTime": 1513107126881, "trialdata": {"rt": -1, "stimulus": "<p id=\"stim\">7</p>", "key_press": -1, "trial_type": "single-stim", "trial_index": 13, "time_elapsed": 148440, "internal_node_id": "0.0-10.0-3.0"}}, {"uniqueid": "MTK1101:3ZSANO2JCGEVEHKELI1998DS3QMFSU", "current_trial": 14, "dateTime": 1513107127883, "trialdata": {"rt": -1, "stimulus": "<p id=\"stim\">6</p>", "key_press": -1, "trial_type": "single-stim", "trial_index": 14, "time_elapsed": 149442, "internal_node_id": "0.0-10.0-4.0"}}, {"uniqueid": "MTK1101:3ZSANO2JCGEVEHKELI1998DS3QMFSU", "current_trial": 15, "dateTime": 1513107128889, "trialdata": {"rt": -1, "stimulus": "<p id=\"stim\">5</p>", "key_press": -1, "trial_type": "single-stim", "trial_index": 15, "time_elapsed": 150448, "internal_node_id": "0.0-10.0-5.0"}}, {"uniqueid": "MTK1101:3ZSANO2JCGEVEHKELI1998DS3QMFSU", "current_trial": 16, "dateTime": 1513107129891, "trialdata": {"rt": -1, "stimulus": "<p id=\"stim\">4</p>", "key_press": -1, "trial_type": "single-stim", "trial_index": 16, "time_elapsed": 151450, "internal_node_id": "0.0-10.0-6.0"}}, {"uniqueid": "MTK1101:3ZSANO2JCGEVEHKELI1998DS3QMFSU", "current_trial": 17, "dateTime": 1513107130894, "trialdata": {"rt": -1, "stimulus": "<p id=\"stim\">3</p>", "key_press": -1, "trial_type": "single-stim", "trial_index": 17, "time_elapsed": 152453, "internal_node_id": "0.0-10.0-7.0"}}, {"uniqueid": "MTK1101:3ZSANO2JCGEVEHKELI1998DS3QMFSU", "current_trial": 18, "dateTime": 1513107131897, "trialdata": {"rt": -1, "stimulus": "<p id=\"stim\">2</p>", "key_press": -1, "trial_type": "single-stim", "trial_index": 18, "time_elapsed": 153456, "internal_node_id": "0.0-10.0-8.0"}}, {"uniqueid": "MTK1101:3ZSANO2JCGEVEHKELI1998DS3QMFSU", "current_trial": 19, "dateTime": 1513107132903, "trialdata": {"rt": -1, "stimulus": "<p id=\"stim\">1</p>", "key_press": -1, "trial_type": "single-stim", "trial_index": 19, "time_elapsed": 154462, "internal_node_id": "0.0-10.0-9.0"}}, {"uniqueid": "MTK1101:3ZSANO2JCGEVEHKELI1998DS3QMFSU", "current_trial": 20, "dateTime": 1513107134406, "trialdata": {"rt": -1, "stimulus": "<p id=\"stim\">+</p>", "key_press": -1, "type": "FIXATION", "trial_type": "single-stim", "trial_index": 20, "time_elapsed": 155965, "internal_node_id": "0.0-11.0-0.0"}}, {"uniqueid": "MTK1101:3ZSANO2JCGEVEHKELI1998DS3QMFSU", "current_trial": 21, "dateTime": 1513107135608, "trialdata": {"rt": -1, "stimulus": "<p id=\"stim\">GIRL</p>", "key_press": -1, "type": "PRES_VIS", "word": "girl", "wordID": 636, "conditions": [18, 1200, "v", 18000], "trial": 0, "serialpos": 0, "trial_type": "single-stim", "trial_index": 21, "time_elapsed": 157167, "internal_node_id": "0.0-12.0"}}, {"uniqueid": "MTK1101:3ZSANO2JCGEVEHKELI1998DS3QMFSU", "current_trial": 22, "dateTime": 1513107137785, "trialdata": {"rt": -1, "stimulus": "<p id=\"stim\">CARRIAGE</p>", "key_press": -1, "type": "PRES_VIS", "word": "carriage", "wordID": 247, "conditions": [18, 1200, "v", 18000], "trial": 0, "serialpos": 1, "trial_type": "single-stim", "trial_index": 22, "time_elapsed": 159344, "internal_node_id": "0.0-13.0"}}, {"uniqueid": "MTK1101:3ZSANO2JCGEVEHKELI1998DS3QMFSU", "current_trial": 23, "dateTime": 1513107140041, "trialdata": {"rt": -1, "stimulus": "<p id=\"stim\">RABBIT</p>", "key_press": -1, "type": "PRES_VIS", "word": "rabbit", "wordID": 1151, "conditions": [18, 1200, "v", 18000], "trial": 0, "serialpos": 2, "trial_type": "single-stim", "trial_index": 23, "time_elapsed": 161600, "internal_node_id": "0.0-14.0"}}, {"uniqueid": "MTK1101:3ZSANO2JCGEVEHKELI1998DS3QMFSU", "current_trial": 24, "dateTime": 1513107142101, "trialdata": {"rt": -1, "stimulus": "<p id=\"stim\">RIFLE</p>", "key_press": -1, "type": "PRES_VIS", "word": "rifle", "wordID": 1191, "conditions": [18, 1200, "v", 18000], "trial": 0, "serialpos": 3, "trial_type": "single-stim", "trial_index": 24, "time_elapsed": 163660, "internal_node_id": "0.0-15.0"}}, {"uniqueid": "MTK1101:3ZSANO2JCGEVEHKELI1998DS3QMFSU", "current_trial": 25, "dateTime": 1513107144138, "trialdata": {"rt": -1, "stimulus": "<p id=\"stim\">YARN</p>", "key_press": -1, "type": "PRES_VIS", "word": "yarn", "wordID": 1630, "conditions": [18, 1200, "v", 18000], "trial": 0, "serialpos": 4, "trial_type": "single-stim", "trial_index": 25, "time_elapsed": 165697, "internal_node_id": "0.0-16.0"}}, {"uniqueid": "MTK1101:3ZSANO2JCGEVEHKELI1998DS3QMFSU", "current_trial": 26, "dateTime": 1513107146511, "trialdata": {"rt": -1, "stimulus": "<p id=\"stim\">PRIMATE</p>", "key_press": -1, "type": "PRES_VIS", "word": "primate", "wordID": 1122, "conditions": [18, 1200, "v", 18000], "trial": 0, "serialpos": 5, "trial_type": "single-stim", "trial_index": 26, "time_elapsed": 168070, "internal_node_id": "0.0-17.0"}}, {"uniqueid": "MTK1101:3ZSANO2JCGEVEHKELI1998DS3QMFSU", "current_trial": 27, "dateTime": 1513107148853, "trialdata": {"rt": -1, "stimulus": "<p id=\"stim\">SPONGE</p>", "key_press": -1, "type": "PRES_VIS", "word": "sponge", "wordID": 1354, "conditions": [18, 1200, "v", 18000], "trial": 0, "serialpos": 6, "trial_type": "single-stim", "trial_index": 27, "time_elapsed": 170412, "internal_node_id": "0.0-18.0"}}, {"uniqueid": "MTK1101:3ZSANO2JCGEVEHKELI1998DS3QMFSU", "current_trial": 28, "dateTime": 1513107151126, "trialdata": {"rt": -1, "stimulus": "<p id=\"stim\">HANDBAG</p>", "key_press": -1, "type": "PRES_VIS", "word": "handbag", "wordID": 683, "conditions": [18, 1200, "v", 18000], "trial": 0, "serialpos": 7, "trial_type": "single-stim", "trial_index": 28, "time_elapsed": 172685, "internal_node_id": "0.0-19.0"}}, {"uniqueid": "MTK1101:3ZSANO2JCGEVEHKELI1998DS3QMFSU", "current_trial": 29, "dateTime": 1513107153253, "trialdata": {"rt": -1, "stimulus": "<p id=\"stim\">GLASS</p>", "key_press": -1, "type": "PRES_VIS", "word": "glass", "wordID": 638, "conditions": [18, 1200, "v", 18000], "trial": 0, "serialpos": 8, "trial_type": "single-stim", "trial_index": 29, "time_elapsed": 174812, "internal_node_id": "0.0-20.0"}}, {"uniqueid": "MTK1101:3ZSANO2JCGEVEHKELI1998DS3QMFSU", "current_trial": 30, "dateTime": 1513107155271, "trialdata": {"rt": -1, "stimulus": "<p id=\"stim\">CONVICT</p>", "key_press": -1, "type": "PRES_VIS", "word": "convict", "wordID": 370, "conditions": [18, 1200, "v", 18000], "trial": 0, "serialpos": 9, "trial_type": "single-stim", "trial_index": 30, "time_elapsed": 176830, "internal_node_id": "0.0-21.0"}}, {"uniqueid": "MTK1101:3ZSANO2JCGEVEHKELI1998DS3QMFSU", "current_trial": 31, "dateTime": 1513107157616, "trialdata": {"rt": -1, "stimulus": "<p id=\"stim\">PLAID</p>", "key_press": -1, "type": "PRES_VIS", "word": "plaid", "wordID": 1079, "conditions": [18, 1200, "v", 18000], "trial": 0, "serialpos": 10, "trial_type": "single-stim", "trial_index": 31, "time_elapsed": 179175, "internal_node_id": "0.0-22.0"}}, {"uniqueid": "MTK1101:3ZSANO2JCGEVEHKELI1998DS3QMFSU", "current_trial": 32, "dateTime": 1513107159949, "trialdata": {"rt": -1, "stimulus": "<p id=\"stim\">DIVER</p>", "key_press": -1, "type": "PRES_VIS", "word": "diver", "wordID": 475, "conditions": [18, 1200, "v", 18000], "trial": 0, "serialpos": 11, "trial_type": "single-stim", "trial_index": 32, "time_elapsed": 181507, "internal_node_id": "0.0-23.0"}}, {"uniqueid": "MTK1101:3ZSANO2JCGEVEHKELI1998DS3QMFSU", "current_trial": 33, "dateTime": 1513107162177, "trialdata": {"rt": -1, "stimulus": "<p id=\"stim\">BULLET</p>", "key_press": -1, "type": "PRES_VIS", "word": "bullet", "wordID": 193, "conditions": [18, 1200, "v", 18000], "trial": 0, "serialpos": 12, "trial_type": "single-stim", "trial_index": 33, "time_elapsed": 183736, "internal_node_id": "0.0-24.0"}}, {"uniqueid": "MTK1101:3ZSANO2JCGEVEHKELI1998DS3QMFSU", "current_trial": 34, "dateTime": 1513107164207, "trialdata": {"rt": -1, "stimulus": "<p id=\"stim\">HONEY</p>", "key_press": -1, "type": "PRES_VIS", "word": "honey", "wordID": 712, "conditions": [18, 1200, "v", 18000], "trial": 0, "serialpos": 13, "trial_type": "single-stim", "trial_index": 34, "time_elapsed": 185766, "internal_node_id": "0.0-25.0"}}, {"uniqueid": "MTK1101:3ZSANO2JCGEVEHKELI1998DS3QMFSU", "current_trial": 35, "dateTime": 1513107166246, "trialdata": {"rt": -1, "stimulus": "<p id=\"stim\">GANGSTER</p>", "key_press": -1, "type": "PRES_VIS", "word": "gangster", "wordID": 619, "conditions": [18, 1200, "v", 18000], "trial": 0, "serialpos": 14, "trial_type": "single-stim", "trial_index": 35, "time_elapsed": 187805, "internal_node_id": "0.0-26.0"}}, {"uniqueid": "MTK1101:3ZSANO2JCGEVEHKELI1998DS3QMFSU", "current_trial": 36, "dateTime": 1513107168568, "trialdata": {"rt": -1, "stimulus": "<p id=\"stim\">LETTUCE</p>", "key_press": -1, "type": "PRES_VIS", "word": "lettuce", "wordID": 813, "conditions": [18, 1200, "v", 18000], "trial": 0, "serialpos": 15, "trial_type": "single-stim", "trial_index": 36, "time_elapsed": 190127, "internal_node_id": "0.0-27.0"}}, {"uniqueid": "MTK1101:3ZSANO2JCGEVEHKELI1998DS3QMFSU", "current_trial": 37, "dateTime": 1513107170892, "trialdata": {"rt": -1, "stimulus": "<p id=\"stim\">PARROT</p>", "key_press": -1, "type": "PRES_VIS", "word": "parrot", "wordID": 1014, "conditions": [18, 1200, "v", 18000], "trial": 0, "serialpos": 16, "trial_type": "single-stim", "trial_index": 37, "time_elapsed": 192451, "internal_node_id": "0.0-28.0"}}, {"uniqueid": "MTK1101:3ZSANO2JCGEVEHKELI1998DS3QMFSU", "current_trial": 38, "dateTime": 1513107172923, "trialdata": {"rt": -1, "stimulus": "<p id=\"stim\">PANTHER</p>", "key_press": -1, "type": "PRES_VIS", "word": "panther", "wordID": 1008, "conditions": [18, 1200, "v", 18000], "trial": 0, "serialpos": 17, "trial_type": "single-stim", "trial_index": 38, "time_elapsed": 194482, "internal_node_id": "0.0-29.0"}}, {"uniqueid": "MTK1101:3ZSANO2JCGEVEHKELI1998DS3QMFSU", "current_trial": 39, "dateTime": 1513107175127, "trialdata": {"rt": -1, "stimulus": "", "key_press": -1, "type": "PRE_RECALL_DELAY", "trial_type": "single-stim", "trial_index": 39, "time_elapsed": 196686, "internal_node_id": "0.0-30.0-0.0"}}, {"uniqueid": "MTK1101:3ZSANO2JCGEVEHKELI1998DS3QMFSU", "current_trial": 40, "dateTime": 1513107175635, "trialdata": {"rt": -1000, "stimulus": "/static/audio/400Hz.wav", "key_press": -1, "type": "PRE_RECALL_ALERT", "trial_type": "single-audio", "trial_index": 40, "time_elapsed": 197194, "internal_node_id": "0.0-31.0"}}, {"uniqueid": "MTK1101:3ZSANO2JCGEVEHKELI1998DS3QMFSU", "current_trial": 41, "dateTime": 1513107235656, "trialdata": {"rt": [2219, 4327, 5358, 7965, 12492, 23453, 32513, 50500], "recwords": ["girl", "panther", "lettuce", "jail", "sponge", "pottery", "recognize", "recall"], "type": "FREE_RECALL", "conditions": [18, 1200, "v", 18000], "trial": 0, "trial_type": "free-recall", "trial_index": 41, "time_elapsed": 257206, "internal_node_id": "0.0-32.0-0.0"}}, {"uniqueid": "MTK1101:3ZSANO2JCGEVEHKELI1998DS3QMFSU", "current_trial": 42, "dateTime": 1513107239140, "trialdata": {"rt": 1480, "key_press": 32, "type": "INSTRUCTIONS", "trial_type": "text", "trial_index": 42, "time_elapsed": 260699, "internal_node_id": "0.0-33.0"}}, {"uniqueid": "MTK1101:3ZSANO2JCGEVEHKELI1998DS3QMFSU", "current_trial": 43, "dateTime": 1513107259148, "trialdata": {"rt": [2657, 4337, 8685, 11548, 13156, 15245, 16967], "responses": ["19", "12", "18", "16", "11", "10", "16"], "num1": [9, 8, 6, 7, 2, 3, 9, 1], "num2": [1, 3, 9, 8, 8, 2, 2, 9], "num3": [9, 1, 3, 1, 1, 5, 5, 8], "type": "DISTRACTOR", "conditions": [18, 1200, "a", 18000], "trial": 1, "trial_type": "math-distractor", "trial_index": 43, "time_elapsed": 280707, "internal_node_id": "0.0-34.0"}}, {"uniqueid": "MTK1101:3ZSANO2JCGEVEHKELI1998DS3QMFSU", "current_trial": 44, "dateTime": 1513107262155, "trialdata": {"rt": -1, "stimulus": "<p id=\"stim\">10</p>", "key_press": -1, "trial_type": "single-stim", "trial_index": 44, "time_elapsed": 283714, "internal_node_id": "0.0-35.0-0.0"}}, {"uniqueid": "MTK1101:3ZSANO2JCGEVEHKELI1998DS3QMFSU", "current_trial": 45, "dateTime": 1513107263156, "trialdata": {"rt": -1, "stimulus": "<p id=\"stim\">9</p>", "key_press": -1, "trial_type": "single-stim", "trial_index": 45, "time_elapsed": 284715, "internal_node_id": "0.0-35.0-1.0"}}, {"uniqueid": "MTK1101:3ZSANO2JCGEVEHKELI1998DS3QMFSU", "current_trial": 46, "dateTime": 1513107264158, "trialdata": {"rt": -1, "stimulus": "<p id=\"stim\">8</p>", "key_press": -1, "trial_type": "single-stim", "trial_index": 46, "time_elapsed": 285717, "internal_node_id": "0.0-35.0-2.0"}}, {"uniqueid": "MTK1101:3ZSANO2JCGEVEHKELI1998DS3QMFSU", "current_trial": 47, "dateTime": 1513107265160, "trialdata": {"rt": -1, "stimulus": "<p id=\"stim\">7</p>", "key_press": -1, "trial_type": "single-stim", "trial_index": 47, "time_elapsed": 286719, "internal_node_id": "0.0-35.0-3.0"}}, {"uniqueid": "MTK1101:3ZSANO2JCGEVEHKELI1998DS3QMFSU", "current_trial": 48, "dateTime": 1513107266161, "trialdata": {"rt": -1, "stimulus": "<p id=\"stim\">6</p>", "key_press": -1, "trial_type": "single-stim", "trial_index": 48, "time_elapsed": 287720, "internal_node_id": "0.0-35.0-4.0"}}, {"uniqueid": "MTK1101:3ZSANO2JCGEVEHKELI1998DS3QMFSU", "current_trial": 49, "dateTime": 1513107267164, "trialdata": {"rt": -1, "stimulus": "<p id=\"stim\">5</p>", "key_press": -1, "trial_type": "single-stim", "trial_index": 49, "time_elapsed": 288723, "internal_node_id": "0.0-35.0-5.0"}}, {"uniqueid": "MTK1101:3ZSANO2JCGEVEHKELI1998DS3QMFSU", "current_trial": 50, "dateTime": 1513107268166, "trialdata": {"rt": -1, "stimulus": "<p id=\"stim\">4</p>", "key_press": -1, "trial_type": "single-stim", "trial_index": 50, "time_elapsed": 289725, "internal_node_id": "0.0-35.0-6.0"}}, {"uniqueid": "MTK1101:3ZSANO2JCGEVEHKELI1998DS3QMFSU", "current_trial": 51, "dateTime": 1513107269169, "trialdata": {"rt": -1, "stimulus": "<p id=\"stim\">3</p>", "key_press": -1, "trial_type": "single-stim", "trial_index": 51, "time_elapsed": 290728, "internal_node_id": "0.0-35.0-7.0"}}, {"uniqueid": "MTK1101:3ZSANO2JCGEVEHKELI1998DS3QMFSU", "current_trial": 52, "dateTime": 1513107270171, "trialdata": {"rt": -1, "stimulus": "<p id=\"stim\">2</p>", "key_press": -1, "trial_type": "single-stim", "trial_index": 52, "time_elapsed": 291730, "internal_node_id": "0.0-35.0-8.0"}}, {"uniqueid": "MTK1101:3ZSANO2JCGEVEHKELI1998DS3QMFSU", "current_trial": 53, "dateTime": 1513107271173, "trialdata": {"rt": -1, "stimulus": "<p id=\"stim\">1</p>", "key_press": -1, "trial_type": "single-stim", "trial_index": 53, "time_elapsed": 292732, "internal_node_id": "0.0-35.0-9.0"}}, {"uniqueid": "MTK1101:3ZSANO2JCGEVEHKELI1998DS3QMFSU", "current_trial": 54, "dateTime": 1513107272677, "trialdata": {"rt": -1, "stimulus": "<p id=\"stim\">+</p>", "key_press": -1, "type": "FIXATION", "trial_type": "single-stim", "trial_index": 54, "time_elapsed": 294236, "internal_node_id": "0.0-36.0-0.0"}}, {"uniqueid": "MTK1101:3ZSANO2JCGEVEHKELI1998DS3QMFSU", "current_trial": 55, "dateTime": 1513107274926, "trialdata": {"rt": -1000, "stimulus": "/static/audio/wordpool/LABEL.wav", "key_press": -1, "type": "PRES_AUD", "word": "label", "wordID": 789, "conditions": [18, 1200, "a", 18000], "trial": 1, "serialpos": 0, "trial_type": "single-audio", "trial_index": 55, "time_elapsed": 296485, "internal_node_id": "0.0-37.0"}}, {"uniqueid": "MTK1101:3ZSANO2JCGEVEHKELI1998DS3QMFSU", "current_trial": 56, "dateTime": 1513107277305, "trialdata": {"rt": -1000, "stimulus": "/static/audio/wordpool/FLEET.wav", "key_press": -1, "type": "PRES_AUD", "word": "fleet", "wordID": 577, "conditions": [18, 1200, "a", 18000], "trial": 1, "serialpos": 1, "trial_type": "single-audio", "trial_index": 56, "time_elapsed": 298863, "internal_node_id": "0.0-38.0"}}, {"uniqueid": "MTK1101:3ZSANO2JCGEVEHKELI1998DS3QMFSU", "current_trial": 57, "dateTime": 1513107279529, "trialdata": {"rt": -1000, "stimulus": "/static/audio/wordpool/BODY.wav", "key_press": -1, "type": "PRES_AUD", "word": "body", "wordID": 144, "conditions": [18, 1200, "a", 18000], "trial": 1, "serialpos": 2, "trial_type": "single-audio", "trial_index": 57, "time_elapsed": 301086, "internal_node_id": "0.0-39.0"}}, {"uniqueid": "MTK1101:3ZSANO2JCGEVEHKELI1998DS3QMFSU", "current_trial": 58, "dateTime": 1513107281671, "trialdata": {"rt": -1000, "stimulus": "/static/audio/wordpool/INFANT.wav", "key_press": -1, "type": "PRES_AUD", "word": "infant", "wordID": 736, "conditions": [18, 1200, "a", 18000], "trial": 1, "serialpos": 3, "trial_type": "single-audio", "trial_index": 58, "time_elapsed": 303229, "internal_node_id": "0.0-40.0"}}, {"uniqueid": "MTK1101:3ZSANO2JCGEVEHKELI1998DS3QMFSU", "current_trial": 59, "dateTime": 1513107283931, "trialdata": {"rt": -1000, "stimulus": "/static/audio/wordpool/TEMPLE.wav", "key_press": -1, "type": "PRES_AUD", "word": "temple", "wordID": 1447, "conditions": [18, 1200, "a", 18000], "trial": 1, "serialpos": 4, "trial_type": "single-audio", "trial_index": 59, "time_elapsed": 305489, "internal_node_id": "0.0-41.0"}}, {"uniqueid": "MTK1101:3ZSANO2JCGEVEHKELI1998DS3QMFSU", "current_trial": 60, "dateTime": 1513107286123, "trialdata": {"rt": -1000, "stimulus": "/static/audio/wordpool/BOUQUET.wav", "key_press": -1, "type": "PRES_AUD", "word": "bouquet", "wordID": 156, "conditions": [18, 1200, "a", 18000], "trial": 1, "serialpos": 5, "trial_type": "single-audio", "trial_index": 60, "time_elapsed": 307681, "internal_node_id": "0.0-42.0"}}, {"uniqueid": "MTK1101:3ZSANO2JCGEVEHKELI1998DS3QMFSU", "current_trial": 61, "dateTime": 1513107288173, "trialdata": {"rt": -1000, "stimulus": "/static/audio/wordpool/MISTER.wav", "key_press": -1, "type": "PRES_AUD", "word": "mister", "wordID": 900, "conditions": [18, 1200, "a", 18000], "trial": 1, "serialpos": 6, "trial_type": "single-audio", "trial_index": 61, "time_elapsed": 309732, "internal_node_id": "0.0-43.0"}}, {"uniqueid": "MTK1101:3ZSANO2JCGEVEHKELI1998DS3QMFSU", "current_trial": 62, "dateTime": 1513107290381, "trialdata": {"rt": -1000, "stimulus": "/static/audio/wordpool/PAPER.wav", "key_press": -1, "type": "PRES_AUD", "word": "paper", "wordID": 1010, "conditions": [18, 1200, "a", 18000], "trial": 1, "serialpos": 7, "trial_type": "single-audio", "trial_index": 62, "time_elapsed": 311940, "internal_node_id": "0.0-44.0"}}, {"uniqueid": "MTK1101:3ZSANO2JCGEVEHKELI1998DS3QMFSU", "current_trial": 63, "dateTime": 1513107292586, "trialdata": {"rt": -1000, "stimulus": "/static/audio/wordpool/CRAB.wav", "key_press": -1, "type": "PRES_AUD", "word": "crab", "wordID": 396, "conditions": [18, 1200, "a", 18000], "trial": 1, "serialpos": 8, "trial_type": "single-audio", "trial_index": 63, "time_elapsed": 314145, "internal_node_id": "0.0-45.0"}}, {"uniqueid": "MTK1101:3ZSANO2JCGEVEHKELI1998DS3QMFSU", "current_trial": 64, "dateTime": 1513107294799, "trialdata": {"rt": -1000, "stimulus": "/static/audio/wordpool/TRUCK.wav", "key_press": -1, "type": "PRES_AUD", "word": "truck", "wordID": 1511, "conditions": [18, 1200, "a", 18000], "trial": 1, "serialpos": 9, "trial_type": "single-audio", "trial_index": 64, "time_elapsed": 316358, "internal_node_id": "0.0-46.0"}}, {"uniqueid": "MTK1101:3ZSANO2JCGEVEHKELI1998DS3QMFSU", "current_trial": 65, "dateTime": 1513107296879, "trialdata": {"rt": -1000, "stimulus": "/static/audio/wordpool/FRAME.wav", "key_press": -1, "type": "PRES_AUD", "word": "frame", "wordID": 599, "conditions": [18, 1200, "a", 18000], "trial": 1, "serialpos": 10, "trial_type": "single-audio", "trial_index": 65, "time_elapsed": 318437, "internal_node_id": "0.0-47.0"}}, {"uniqueid": "MTK1101:3ZSANO2JCGEVEHKELI1998DS3QMFSU", "current_trial": 66, "dateTime": 1513107298979, "trialdata": {"rt": -1000, "stimulus": "/static/audio/wordpool/BRACES.wav", "key_press": -1, "type": "PRES_AUD", "word": "braces", "wordID": 163, "conditions": [18, 1200, "a", 18000], "trial": 1, "serialpos": 11, "trial_type": "single-audio", "trial_index": 66, "time_elapsed": 320537, "internal_node_id": "0.0-48.0"}}, {"uniqueid": "MTK1101:3ZSANO2JCGEVEHKELI1998DS3QMFSU", "current_trial": 67, "dateTime": 1513107301232, "trialdata": {"rt": -1000, "stimulus": "/static/audio/wordpool/SWORD.wav", "key_press": -1, "type": "PRES_AUD", "word": "sword", "wordID": 1422, "conditions": [18, 1200, "a", 18000], "trial": 1, "serialpos": 12, "trial_type": "single-audio", "trial_index": 67, "time_elapsed": 322791, "internal_node_id": "0.0-49.0"}}, {"uniqueid": "MTK1101:3ZSANO2JCGEVEHKELI1998DS3QMFSU", "current_trial": 68, "dateTime": 1513107303639, "trialdata": {"rt": -1000, "stimulus": "/static/audio/wordpool/MOTEL.wav", "key_press": -1, "type": "PRES_AUD", "word": "motel", "wordID": 918, "conditions": [18, 1200, "a", 18000], "trial": 1, "serialpos": 13, "trial_type": "single-audio", "trial_index": 68, "time_elapsed": 325191, "internal_node_id": "0.0-50.0"}}, {"uniqueid": "MTK1101:3ZSANO2JCGEVEHKELI1998DS3QMFSU", "current_trial": 69, "dateTime": 1513107305929, "trialdata": {"rt": -1000, "stimulus": "/static/audio/wordpool/MARS.wav", "key_press": -1, "type": "PRES_AUD", "word": "mars", "wordID": 872, "conditions": [18, 1200, "a", 18000], "trial": 1, "serialpos": 14, "trial_type": "single-audio", "trial_index": 69, "time_elapsed": 327487, "internal_node_id": "0.0-51.0"}}, {"uniqueid": "MTK1101:3ZSANO2JCGEVEHKELI1998DS3QMFSU", "current_trial": 70, "dateTime": 1513107308149, "trialdata": {"rt": -1000, "stimulus": "/static/audio/wordpool/LODGE.wav", "key_press": -1, "type": "PRES_AUD", "word": "lodge", "wordID": 838, "conditions": [18, 1200, "a", 18000], "trial": 1, "serialpos": 15, "trial_type": "single-audio", "trial_index": 70, "time_elapsed": 329708, "internal_node_id": "0.0-52.0"}}, {"uniqueid": "MTK1101:3ZSANO2JCGEVEHKELI1998DS3QMFSU", "current_trial": 71, "dateTime": 1513107310232, "trialdata": {"rt": -1000, "stimulus": "/static/audio/wordpool/BROTHER.wav", "key_press": -1, "type": "PRES_AUD", "word": "brother", "wordID": 178, "conditions": [18, 1200, "a", 18000], "trial": 1, "serialpos": 16, "trial_type": "single-audio", "trial_index": 71, "time_elapsed": 331791, "internal_node_id": "0.0-53.0"}}, {"uniqueid": "MTK1101:3ZSANO2JCGEVEHKELI1998DS3QMFSU", "current_trial": 72, "dateTime": 1513107312516, "trialdata": {"rt": -1000, "stimulus": "/static/audio/wordpool/KNAPSACK.wav", "key_press": -1, "type": "PRES_AUD", "word": "knapsack", "wordID": 782, "conditions": [18, 1200, "a", 18000], "trial": 1, "serialpos": 17, "trial_type": "single-audio", "trial_index": 72, "time_elapsed": 334075, "internal_node_id": "0.0-54.0"}}, {"uniqueid": "MTK1101:3ZSANO2JCGEVEHKELI1998DS3QMFSU", "current_trial": 73, "dateTime": 1513107313838, "trialdata": {"rt": -1, "stimulus": "", "key_press": -1, "type": "PRE_RECALL_DELAY", "trial_type": "single-stim", "trial_index": 73, "time_elapsed": 335396, "internal_node_id": "0.0-55.0-0.0"}}, {"uniqueid": "MTK1101:3ZSANO2JCGEVEHKELI1998DS3QMFSU", "current_trial": 74, "dateTime": 1513107314343, "trialdata": {"rt": -1000, "stimulus": "/static/audio/400Hz.wav", "key_press": -1, "type": "PRE_RECALL_ALERT", "trial_type": "single-audio", "trial_index": 74, "time_elapsed": 335902, "internal_node_id": "0.0-56.0"}}, {"uniqueid": "MTK1101:3ZSANO2JCGEVEHKELI1998DS3QMFSU", "current_trial": 75, "dateTime": 1513107374359, "trialdata": {"rt": [3084, 4061, 7374, 17586, 32758, 41337, 45888], "recwords": ["brother", "apple", "sword", "leer", "speaker", "temple", "fleeting"], "type": "FREE_RECALL", "conditions": [18, 1200, "a", 18000], "trial": 1, "trial_type": "free-recall", "trial_index": 75, "time_elapsed": 395912, "internal_node_id": "0.0-57.0-0.0"}}, {"uniqueid": "MTK1101:3ZSANO2JCGEVEHKELI1998DS3QMFSU", "current_trial": 76, "dateTime": 1513107378478, "trialdata": {"rt": 2102, "key_press": 32, "type": "INSTRUCTIONS", "trial_type": "text", "trial_index": 76, "time_elapsed": 400024, "internal_node_id": "0.0-58.0"}}, {"uniqueid": "MTK1101:3ZSANO2JCGEVEHKELI1998DS3QMFSU", "current_trial": 77, "dateTime": 1513107403486, "trialdata": {"rt": [2721, 4354, 6287, 8986, 11015, 14141, 17032, 19157], "responses": ["16", "11", "13", "18", "19", "15", "23", "13"], "num1": [2, 2, 5, 5, 4, 1, 9, 5, 3], "num2": [9, 7, 6, 8, 6, 8, 6, 7, 3], "num3": [5, 2, 2, 5, 9, 6, 8, 1, 9], "type": "DISTRACTOR", "conditions": [24, 1600, "a", 24000], "trial": 2, "trial_type": "math-distractor", "trial_index": 77, "time_elapsed": 425045, "internal_node_id": "0.0-59.0"}}, {"uniqueid": "MTK1101:3ZSANO2JCGEVEHKELI1998DS3QMFSU", "current_trial": 78, "dateTime": 1513107406490, "trialdata": {"rt": -1, "stimulus": "<p id=\"stim\">10</p>", "key_press": -1, "trial_type": "single-stim", "trial_index": 78, "time_elapsed": 428049, "internal_node_id": "0.0-60.0-0.0"}}, {"uniqueid": "MTK1101:3ZSANO2JCGEVEHKELI1998DS3QMFSU", "current_trial": 79, "dateTime": 1513107407490, "trialdata": {"rt": -1, "stimulus": "<p id=\"stim\">9</p>", "key_press": -1, "trial_type": "single-stim", "trial_index": 79, "time_elapsed": 429049, "internal_node_id": "0.0-60.0-1.0"}}, {"uniqueid": "MTK1101:3ZSANO2JCGEVEHKELI1998DS3QMFSU", "current_trial": 80, "dateTime": 1513107408492, "trialdata": {"rt": -1, "stimulus": "<p id=\"stim\">8</p>", "key_press": -1, "trial_type": "single-stim", "trial_index": 80, "time_elapsed": 430051, "internal_node_id": "0.0-60.0-2.0"}}, {"uniqueid": "MTK1101:3ZSANO2JCGEVEHKELI1998DS3QMFSU", "current_trial": 81, "dateTime": 1513107409496, "trialdata": {"rt": -1, "stimulus": "<p id=\"stim\">7</p>", "key_press": -1, "trial_type": "single-stim", "trial_index": 81, "time_elapsed": 431055, "internal_node_id": "0.0-60.0-3.0"}}, {"uniqueid": "MTK1101:3ZSANO2JCGEVEHKELI1998DS3QMFSU", "current_trial": 82, "dateTime": 1513107410498, "trialdata": {"rt": -1, "stimulus": "<p id=\"stim\">6</p>", "key_press": -1, "trial_type": "single-stim", "trial_index": 82, "time_elapsed": 432057, "internal_node_id": "0.0-60.0-4.0"}}, {"uniqueid": "MTK1101:3ZSANO2JCGEVEHKELI1998DS3QMFSU", "current_trial": 83, "dateTime": 1513107411500, "trialdata": {"rt": -1, "stimulus": "<p id=\"stim\">5</p>", "key_press": -1, "trial_type": "single-stim", "trial_index": 83, "time_elapsed": 433059, "internal_node_id": "0.0-60.0-5.0"}}, {"uniqueid": "MTK1101:3ZSANO2JCGEVEHKELI1998DS3QMFSU", "current_trial": 84, "dateTime": 1513107412507, "trialdata": {"rt": -1, "stimulus": "<p id=\"stim\">4</p>", "key_press": -1, "trial_type": "single-stim", "trial_index": 84, "time_elapsed": 434062, "internal_node_id": "0.0-60.0-6.0"}}, {"uniqueid": "MTK1101:3ZSANO2JCGEVEHKELI1998DS3QMFSU", "current_trial": 85, "dateTime": 1513107413510, "trialdata": {"rt": -1, "stimulus": "<p id=\"stim\">3</p>", "key_press": -1, "trial_type": "single-stim", "trial_index": 85, "time_elapsed": 435069, "internal_node_id": "0.0-60.0-7.0"}}, {"uniqueid": "MTK1101:3ZSANO2JCGEVEHKELI1998DS3QMFSU", "current_trial": 86, "dateTime": 1513107414510, "trialdata": {"rt": -1, "stimulus": "<p id=\"stim\">2</p>", "key_press": -1, "trial_type": "single-stim", "trial_index": 86, "time_elapsed": 436069, "internal_node_id": "0.0-60.0-8.0"}}, {"uniqueid": "MTK1101:3ZSANO2JCGEVEHKELI1998DS3QMFSU", "current_trial": 87, "dateTime": 1513107415511, "trialdata": {"rt": -1, "stimulus": "<p id=\"stim\">1</p>", "key_press": -1, "trial_type": "single-stim", "trial_index": 87, "time_elapsed": 437070, "internal_node_id": "0.0-60.0-9.0"}}, {"uniqueid": "MTK1101:3ZSANO2JCGEVEHKELI1998DS3QMFSU", "current_trial": 88, "dateTime": 1513107417012, "trialdata": {"rt": -1, "stimulus": "<p id=\"stim\">+</p>", "key_press": -1, "type": "FIXATION", "trial_type": "single-stim", "trial_index": 88, "time_elapsed": 438571, "internal_node_id": "0.0-61.0-0.0"}}, {"uniqueid": "MTK1101:3ZSANO2JCGEVEHKELI1998DS3QMFSU", "current_trial": 89, "dateTime": 1513107419653, "trialdata": {"rt": -1000, "stimulus": "/static/audio/wordpool/CIGAR.wav", "key_press": -1, "type": "PRES_AUD", "word": "cigar", "wordID": 307, "conditions": [24, 1600, "a", 24000], "trial": 2, "serialpos": 0, "trial_type": "single-audio", "trial_index": 89, "time_elapsed": 441211, "internal_node_id": "0.0-62.0"}}, {"uniqueid": "MTK1101:3ZSANO2JCGEVEHKELI1998DS3QMFSU", "current_trial": 90, "dateTime": 1513107422155, "trialdata": {"rt": -1000, "stimulus": "/static/audio/wordpool/RADISH.wav", "key_press": -1, "type": "PRES_AUD", "word": "radish", "wordID": 1157, "conditions": [24, 1600, "a", 24000], "trial": 2, "serialpos": 1, "trial_type": "single-audio", "trial_index": 90, "time_elapsed": 443714, "internal_node_id": "0.0-63.0"}}, {"uniqueid": "MTK1101:3ZSANO2JCGEVEHKELI1998DS3QMFSU", "current_trial": 91, "dateTime": 1513107424563, "trialdata": {"rt": -1000, "stimulus": "/static/audio/wordpool/COD.wav", "key_press": -1, "type": "PRES_AUD", "word": "cod", "wordID": 339, "conditions": [24, 1600, "a", 24000], "trial": 2, "serialpos": 2, "trial_type": "single-audio", "trial_index": 91, "time_elapsed": 446122, "internal_node_id": "0.0-64.0"}}, {"uniqueid": "MTK1101:3ZSANO2JCGEVEHKELI1998DS3QMFSU", "current_trial": 92, "dateTime": 1513107427237, "trialdata": {"rt": -1000, "stimulus": "/static/audio/wordpool/EUROPE.wav", "key_press": -1, "type": "PRES_AUD", "word": "europe", "wordID": 540, "conditions": [24, 1600, "a", 24000], "trial": 2, "serialpos": 3, "trial_type": "single-audio", "trial_index": 92, "time_elapsed": 448796, "internal_node_id": "0.0-65.0"}}, {"uniqueid": "MTK1101:3ZSANO2JCGEVEHKELI1998DS3QMFSU", "current_trial": 93, "dateTime": 1513107429948, "trialdata": {"rt": -1000, "stimulus": "/static/audio/wordpool/MAILMAN.wav", "key_press": -1, "type": "PRES_AUD", "word": "mailman", "wordID": 857, "conditions": [24, 1600, "a", 24000], "trial": 2, "serialpos": 4, "trial_type": "single-audio", "trial_index": 93, "time_elapsed": 451507, "internal_node_id": "0.0-66.0"}}, {"uniqueid": "MTK1101:3ZSANO2JCGEVEHKELI1998DS3QMFSU", "current_trial": 94, "dateTime": 1513107432362, "trialdata": {"rt": -1000, "stimulus": "/static/audio/wordpool/WITNESS.wav", "key_press": -1, "type": "PRES_AUD", "word": "witness", "wordID": 1617, "conditions": [24, 1600, "a", 24000], "trial": 2, "serialpos": 5, "trial_type": "single-audio", "trial_index": 94, "time_elapsed": 453921, "internal_node_id": "0.0-67.0"}}, {"uniqueid": "MTK1101:3ZSANO2JCGEVEHKELI1998DS3QMFSU", "current_trial": 95, "dateTime": 1513107435145, "trialdata": {"rt": -1000, "stimulus": "/static/audio/wordpool/MONSTER.wav", "key_press": -1, "type": "PRES_AUD", "word": "monster", "wordID": 911, "conditions": [24, 1600, "a", 24000], "trial": 2, "serialpos": 6, "trial_type": "single-audio", "trial_index": 95, "time_elapsed": 456704, "internal_node_id": "0.0-68.0"}}, {"uniqueid": "MTK1101:3ZSANO2JCGEVEHKELI1998DS3QMFSU", "current_trial": 96, "dateTime": 1513107437885, "trialdata": {"rt": -1000, "stimulus": "/static/audio/wordpool/SUPPER.wav", "key_press": -1, "type": "PRES_AUD", "word": "supper", "wordID": 1410, "conditions": [24, 1600, "a", 24000], "trial": 2, "serialpos": 7, "trial_type": "single-audio", "trial_index": 96, "time_elapsed": 459444, "internal_node_id": "0.0-69.0"}}, {"uniqueid": "MTK1101:3ZSANO2JCGEVEHKELI1998DS3QMFSU", "current_trial": 97, "dateTime": 1513107440395, "trialdata": {"rt": -1000, "stimulus": "/static/audio/wordpool/PASSAGE.wav", "key_press": -1, "type": "PRES_AUD", "word": "passage", "wordID": 1018, "conditions": [24, 1600, "a", 24000], "trial": 2, "serialpos": 8, "trial_type": "single-audio", "trial_index": 97, "time_elapsed": 461954, "internal_node_id": "0.0-70.0"}}, {"uniqueid": "MTK1101:3ZSANO2JCGEVEHKELI1998DS3QMFSU", "current_trial": 98, "dateTime": 1513107443127, "trialdata": {"rt": -1000, "stimulus": "/static/audio/wordpool/ONION.wav", "key_press": -1, "type": "PRES_AUD", "word": "onion", "wordID": 976, "conditions": [24, 1600, "a", 24000], "trial": 2, "serialpos": 9, "trial_type": "single-audio", "trial_index": 98, "time_elapsed": 464686, "internal_node_id": "0.0-71.0"}}, {"uniqueid": "MTK1101:3ZSANO2JCGEVEHKELI1998DS3QMFSU", "current_trial": 99, "dateTime": 1513107445637, "trialdata": {"rt": -1000, "stimulus": "/static/audio/wordpool/LAGOON.wav", "key_press": -1, "type": "PRES_AUD", "word": "lagoon", "wordID": 794, "conditions": [24, 1600, "a", 24000], "trial": 2, "serialpos": 10, "trial_type": "single-audio", "trial_index": 99, "time_elapsed": 467196, "internal_node_id": "0.0-72.0"}}, {"uniqueid": "MTK1101:3ZSANO2JCGEVEHKELI1998DS3QMFSU", "current_trial": 100, "dateTime": 1513107448307, "trialdata": {"rt": -1000, "stimulus": "/static/audio/wordpool/RIVER.wav", "key_press": -1, "type": "PRES_AUD", "word": "river", "wordID": 1193, "conditions": [24, 1600, "a", 24000], "trial": 2, "serialpos": 11, "trial_type": "single-audio", "trial_index": 100, "time_elapsed": 469865, "internal_node_id": "0.0-73.0"}}, {"uniqueid": "MTK1101:3ZSANO2JCGEVEHKELI1998DS3QMFSU", "current_trial": 101, "dateTime": 1513107450874, "trialdata": {"rt": -1000, "stimulus": "/static/audio/wordpool/LIVER.wav", "key_press": -1, "type": "PRES_AUD", "word": "liver", "wordID": 832, "conditions": [24, 1600, "a", 24000], "trial": 2, "serialpos": 12, "trial_type": "single-audio", "trial_index": 101, "time_elapsed": 472433, "internal_node_id": "0.0-74.0"}}, {"uniqueid": "MTK1101:3ZSANO2JCGEVEHKELI1998DS3QMFSU", "current_trial": 102, "dateTime": 1513107453456, "trialdata": {"rt": -1000, "stimulus": "/static/audio/wordpool/MARROW.wav", "key_press": -1, "type": "PRES_AUD", "word": "marrow", "wordID": 871, "conditions": [24, 1600, "a", 24000], "trial": 2, "serialpos": 13, "trial_type": "single-audio", "trial_index": 102, "time_elapsed": 475015, "internal_node_id": "0.0-75.0"}}, {"uniqueid": "MTK1101:3ZSANO2JCGEVEHKELI1998DS3QMFSU", "current_trial": 103, "dateTime": 1513107456051, "trialdata": {"rt": -1000, "stimulus": "/static/audio/wordpool/LEG.wav", "key_press": -1, "type": "PRES_AUD", "word": "leg", "wordID": 808, "conditions": [24, 1600, "a", 24000], "trial": 2, "serialpos": 14, "trial_type": "single-audio", "trial_index": 103, "time_elapsed": 477610, "internal_node_id": "0.0-76.0"}}, {"uniqueid": "MTK1101:3ZSANO2JCGEVEHKELI1998DS3QMFSU", "current_trial": 104, "dateTime": 1513107458713, "trialdata": {"rt": -1000, "stimulus": "/static/audio/wordpool/SPOUSE.wav", "key_press": -1, "type": "PRES_AUD", "word": "spouse", "wordID": 1357, "conditions": [24, 1600, "a", 24000], "trial": 2, "serialpos": 15, "trial_type": "single-audio", "trial_index": 104, "time_elapsed": 480272, "internal_node_id": "0.0-77.0"}}, {"uniqueid": "MTK1101:3ZSANO2JCGEVEHKELI1998DS3QMFSU", "current_trial": 105, "dateTime": 1513107461463, "trialdata": {"rt": -1000, "stimulus": "/static/audio/wordpool/DAUGHTER.wav", "key_press": -1, "type": "PRES_AUD", "word": "daughter", "wordID": 441, "conditions": [24, 1600, "a", 24000], "trial": 2, "serialpos": 16, "trial_type": "single-audio", "trial_index": 105, "time_elapsed": 483022, "internal_node_id": "0.0-78.0"}}, {"uniqueid": "MTK1101:3ZSANO2JCGEVEHKELI1998DS3QMFSU", "current_trial": 106, "dateTime": 1513107464062, "trialdata": {"rt": -1000, "stimulus": "/static/audio/wordpool/CLAMP.wav", "key_press": -1, "type": "PRES_AUD", "word": "clamp", "wordID": 315, "conditions": [24, 1600, "a", 24000], "trial": 2, "serialpos": 17, "trial_type": "single-audio", "trial_index": 106, "time_elapsed": 485620, "internal_node_id": "0.0-79.0"}}, {"uniqueid": "MTK1101:3ZSANO2JCGEVEHKELI1998DS3QMFSU", "current_trial": 107, "dateTime": 1513107466752, "trialdata": {"rt": -1000, "stimulus": "/static/audio/wordpool/PUDDLE.wav", "key_press": -1, "type": "PRES_AUD", "word": "puddle", "wordID": 1139, "conditions": [24, 1600, "a", 24000], "trial": 2, "serialpos": 18, "trial_type": "single-audio", "trial_index": 107, "time_elapsed": 488311, "internal_node_id": "0.0-80.0"}}, {"uniqueid": "MTK1101:3ZSANO2JCGEVEHKELI1998DS3QMFSU", "current_trial": 108, "dateTime": 1513107469534, "trialdata": {"rt": -1000, "stimulus": "/static/audio/wordpool/SHRUB.wav", "key_press": -1, "type": "PRES_AUD", "word": "shrub", "wordID": 1298, "conditions": [24, 1600, "a", 24000], "trial": 2, "serialpos": 19, "trial_type": "single-audio", "trial_index": 108, "time_elapsed": 491092, "internal_node_id": "0.0-81.0"}}, {"uniqueid": "MTK1101:3ZSANO2JCGEVEHKELI1998DS3QMFSU", "current_trial": 109, "dateTime": 1513107472183, "trialdata": {"rt": -1000, "stimulus": "/static/audio/wordpool/SPOON.wav", "key_press": -1, "type": "PRES_AUD", "word": "spoon", "wordID": 1356, "conditions": [24, 1600, "a", 24000], "trial": 2, "serialpos": 20, "trial_type": "single-audio", "trial_index": 109, "time_elapsed": 493741, "internal_node_id": "0.0-82.0"}}, {"uniqueid": "MTK1101:3ZSANO2JCGEVEHKELI1998DS3QMFSU", "current_trial": 110, "dateTime": 1513107474869, "trialdata": {"rt": -1000, "stimulus": "/static/audio/wordpool/BLACKBOARD.wav", "key_press": -1, "type": "PRES_AUD", "word": "blackboard", "wordID": 132, "conditions": [24, 1600, "a", 24000], "trial": 2, "serialpos": 21, "trial_type": "single-audio", "trial_index": 110, "time_elapsed": 496428, "internal_node_id": "0.0-83.0"}}, {"uniqueid": "MTK1101:3ZSANO2JCGEVEHKELI1998DS3QMFSU", "current_trial": 111, "dateTime": 1513107477489, "trialdata": {"rt": -1000, "stimulus": "/static/audio/wordpool/FLAG.wav", "key_press": -1, "type": "PRES_AUD", "word": "flag", "wordID": 572, "conditions": [24, 1600, "a", 24000], "trial": 2, "serialpos": 22, "trial_type": "single-audio", "trial_index": 111, "time_elapsed": 499048, "internal_node_id": "0.0-84.0"}}, {"uniqueid": "MTK1101:3ZSANO2JCGEVEHKELI1998DS3QMFSU", "current_trial": 112, "dateTime": 1513107480269, "trialdata": {"rt": -1000, "stimulus": "/static/audio/wordpool/WRIST.wav", "key_press": -1, "type": "PRES_AUD", "word": "wrist", "wordID": 1625, "conditions": [24, 1600, "a", 24000], "trial": 2, "serialpos": 23, "trial_type": "single-audio", "trial_index": 112, "time_elapsed": 501827, "internal_node_id": "0.0-85.0"}}, {"uniqueid": "MTK1101:3ZSANO2JCGEVEHKELI1998DS3QMFSU", "current_trial": 113, "dateTime": 1513107481572, "trialdata": {"rt": -1, "stimulus": "", "key_press": -1, "type": "PRE_RECALL_DELAY", "trial_type": "single-stim", "trial_index": 113, "time_elapsed": 503131, "internal_node_id": "0.0-86.0-0.0"}}, {"uniqueid": "MTK1101:3ZSANO2JCGEVEHKELI1998DS3QMFSU", "current_trial": 114, "dateTime": 1513107482074, "trialdata": {"rt": -1000, "stimulus": "/static/audio/400Hz.wav", "key_press": -1, "type": "PRE_RECALL_ALERT", "trial_type": "single-audio", "trial_index": 114, "time_elapsed": 503633, "internal_node_id": "0.0-87.0"}}, {"uniqueid": "MTK1101:3ZSANO2JCGEVEHKELI1998DS3QMFSU", "current_trial": 115, "dateTime": 1513107542081, "trialdata": {"rt": [2598, 3573, 7450, 8124, 8820, 11259, 14117, 22063, 35699, 55701], "recwords": ["risk", "butter", "marrow", "bone", "leg", "doctor", "climt", "shoestring", "gas", "pool"], "type": "FREE_RECALL", "conditions": [24, 1600, "a", 24000], "trial": 2, "trial_type": "free-recall", "trial_index": 115, "time_elapsed": 563636, "internal_node_id": "0.0-88.0-0.0"}}, {"uniqueid": "MTK1101:3ZSANO2JCGEVEHKELI1998DS3QMFSU", "current_trial": 116, "dateTime": 1513107546677, "trialdata": {"rt": 2595, "key_press": 32, "type": "INSTRUCTIONS", "trial_type": "text", "trial_index": 116, "time_elapsed": 568236, "internal_node_id": "0.0-89.0"}}, {"uniqueid": "MTK1101:3ZSANO2JCGEVEHKELI1998DS3QMFSU", "current_trial": 117, "dateTime": 1513107560685, "trialdata": {"rt": [4342, 6005, 7502, 9777], "responses": ["16", "12", "14", "18"], "num1": [8, 4, 7, 5, 5], "num2": [7, 7, 3, 8, 4], "num3": [1, 1, 4, 8, 7], "type": "DISTRACTOR", "conditions": [24, 800, "v", 12000], "trial": 3, "trial_type": "math-distractor", "trial_index": 117, "time_elapsed": 582243, "internal_node_id": "0.0-90.0"}}, {"uniqueid": "MTK1101:3ZSANO2JCGEVEHKELI1998DS3QMFSU", "current_trial": 118, "dateTime": 1513107563690, "trialdata": {"rt": -1, "stimulus": "<p id=\"stim\">10</p>", "key_press": -1, "trial_type": "single-stim", "trial_index": 118, "time_elapsed": 585249, "internal_node_id": "0.0-91.0-0.0"}}, {"uniqueid": "MTK1101:3ZSANO2JCGEVEHKELI1998DS3QMFSU", "current_trial": 119, "dateTime": 1513107564693, "trialdata": {"rt": -1, "stimulus": "<p id=\"stim\">9</p>", "key_press": -1, "trial_type": "single-stim", "trial_index": 119, "time_elapsed": 586252, "internal_node_id": "0.0-91.0-1.0"}}, {"uniqueid": "MTK1101:3ZSANO2JCGEVEHKELI1998DS3QMFSU", "current_trial": 120, "dateTime": 1513107565704, "trialdata": {"rt": -1, "stimulus": "<p id=\"stim\">8</p>", "key_press": -1, "trial_type": "single-stim", "trial_index": 120, "time_elapsed": 587263, "internal_node_id": "0.0-91.0-2.0"}}, {"uniqueid": "MTK1101:3ZSANO2JCGEVEHKELI1998DS3QMFSU", "current_trial": 121, "dateTime": 1513107566704, "trialdata": {"rt": -1, "stimulus": "<p id=\"stim\">7</p>", "key_press": -1, "trial_type": "single-stim", "trial_index": 121, "time_elapsed": 588263, "internal_node_id": "0.0-91.0-3.0"}}, {"uniqueid": "MTK1101:3ZSANO2JCGEVEHKELI1998DS3QMFSU", "current_trial": 122, "dateTime": 1513107567708, "trialdata": {"rt": -1, "stimulus": "<p id=\"stim\">6</p>", "key_press": -1, "trial_type": "single-stim", "trial_index": 122, "time_elapsed": 589267, "internal_node_id": "0.0-91.0-4.0"}}, {"uniqueid": "MTK1101:3ZSANO2JCGEVEHKELI1998DS3QMFSU", "current_trial": 123, "dateTime": 1513107568709, "trialdata": {"rt": -1, "stimulus": "<p id=\"stim\">5</p>", "key_press": -1, "trial_type": "single-stim", "trial_index": 123, "time_elapsed": 590268, "internal_node_id": "0.0-91.0-5.0"}}, {"uniqueid": "MTK1101:3ZSANO2JCGEVEHKELI1998DS3QMFSU", "current_trial": 124, "dateTime": 1513107569710, "trialdata": {"rt": -1, "stimulus": "<p id=\"stim\">4</p>", "key_press": -1, "trial_type": "single-stim", "trial_index": 124, "time_elapsed": 591269, "internal_node_id": "0.0-91.0-6.0"}}, {"uniqueid": "MTK1101:3ZSANO2JCGEVEHKELI1998DS3QMFSU", "current_trial": 125, "dateTime": 1513107570711, "trialdata": {"rt": -1, "stimulus": "<p id=\"stim\">3</p>", "key_press": -1, "trial_type": "single-stim", "trial_index": 125, "time_elapsed": 592270, "internal_node_id": "0.0-91.0-7.0"}}, {"uniqueid": "MTK1101:3ZSANO2JCGEVEHKELI1998DS3QMFSU", "current_trial": 126, "dateTime": 1513107571712, "trialdata": {"rt": -1, "stimulus": "<p id=\"stim\">2</p>", "key_press": -1, "trial_type": "single-stim", "trial_index": 126, "time_elapsed": 593271, "internal_node_id": "0.0-91.0-8.0"}}, {"uniqueid": "MTK1101:3ZSANO2JCGEVEHKELI1998DS3QMFSU", "current_trial": 127, "dateTime": 1513107572715, "trialdata": {"rt": -1, "stimulus": "<p id=\"stim\">1</p>", "key_press": -1, "trial_type": "single-stim", "trial_index": 127, "time_elapsed": 594274, "internal_node_id": "0.0-91.0-9.0"}}, {"uniqueid": "MTK1101:3ZSANO2JCGEVEHKELI1998DS3QMFSU", "current_trial": 128, "dateTime": 1513107574219, "trialdata": {"rt": -1, "stimulus": "<p id=\"stim\">+</p>", "key_press": -1, "type": "FIXATION", "trial_type": "single-stim", "trial_index": 128, "time_elapsed": 595778, "internal_node_id": "0.0-92.0-0.0"}}, {"uniqueid": "MTK1101:3ZSANO2JCGEVEHKELI1998DS3QMFSU", "current_trial": 129, "dateTime": 1513107575021, "trialdata": {"rt": -1, "stimulus": "<p id=\"stim\">PRINCESS</p>", "key_press": -1, "type": "PRES_VIS", "word": "princess", "wordID": 1124, "conditions": [24, 800, "v", 12000], "trial": 3, "serialpos": 0, "trial_type": "single-stim", "trial_index": 129, "time_elapsed": 596580, "internal_node_id": "0.0-93.0"}}, {"uniqueid": "MTK1101:3ZSANO2JCGEVEHKELI1998DS3QMFSU", "current_trial": 130, "dateTime": 1513107576891, "trialdata": {"rt": -1, "stimulus": "<p id=\"stim\">CROWN</p>", "key_press": -1, "type": "PRES_VIS", "word": "crown", "wordID": 414, "conditions": [24, 800, "v", 12000], "trial": 3, "serialpos": 1, "trial_type": "single-stim", "trial_index": 130, "time_elapsed": 598450, "internal_node_id": "0.0-94.0"}}, {"uniqueid": "MTK1101:3ZSANO2JCGEVEHKELI1998DS3QMFSU", "current_trial": 131, "dateTime": 1513107578686, "trialdata": {"rt": -1, "stimulus": "<p id=\"stim\">KITCHEN</p>", "key_press": -1, "type": "PRES_VIS", "word": "kitchen", "wordID": 777, "conditions": [24, 800, "v", 12000], "trial": 3, "serialpos": 2, "trial_type": "single-stim", "trial_index": 131, "time_elapsed": 600245, "internal_node_id": "0.0-95.0"}}, {"uniqueid": "MTK1101:3ZSANO2JCGEVEHKELI1998DS3QMFSU", "current_trial": 132, "dateTime": 1513107580339, "trialdata": {"rt": -1, "stimulus": "<p id=\"stim\">WAITER</p>", "key_press": -1, "type": "PRES_VIS", "word": "waiter", "wordID": 1579, "conditions": [24, 800, "v", 12000], "trial": 3, "serialpos": 3, "trial_type": "single-stim", "trial_index": 132, "time_elapsed": 601898, "internal_node_id": "0.0-96.0"}}, {"uniqueid": "MTK1101:3ZSANO2JCGEVEHKELI1998DS3QMFSU", "current_trial": 133, "dateTime": 1513107581960, "trialdata": {"rt": -1, "stimulus": "<p id=\"stim\">JELLY</p>", "key_press": -1, "type": "PRES_VIS", "word": "jelly", "wordID": 754, "conditions": [24, 800, "v", 12000], "trial": 3, "serialpos": 4, "trial_type": "single-stim", "trial_index": 133, "time_elapsed": 603519, "internal_node_id": "0.0-97.0"}}, {"uniqueid": "MTK1101:3ZSANO2JCGEVEHKELI1998DS3QMFSU", "current_trial": 134, "dateTime": 1513107583631, "trialdata": {"rt": -1, "stimulus": "<p id=\"stim\">FLUTE</p>", "key_press": -1, "type": "PRES_VIS", "word": "flute", "wordID": 584, "conditions": [24, 800, "v", 12000], "trial": 3, "serialpos": 5, "trial_type": "single-stim", "trial_index": 134, "time_elapsed": 605190, "internal_node_id": "0.0-98.0"}}, {"uniqueid": "MTK1101:3ZSANO2JCGEVEHKELI1998DS3QMFSU", "current_trial": 135, "dateTime": 1513107585480, "trialdata": {"rt": -1, "stimulus": "<p id=\"stim\">COBRA</p>", "key_press": -1, "type": "PRES_VIS", "word": "cobra", "wordID": 335, "conditions": [24, 800, "v", 12000], "trial": 3, "serialpos": 6, "trial_type": "single-stim", "trial_index": 135, "time_elapsed": 607039, "internal_node_id": "0.0-99.0"}}, {"uniqueid": "MTK1101:3ZSANO2JCGEVEHKELI1998DS3QMFSU", "current_trial": 136, "dateTime": 1513107587433, "trialdata": {"rt": -1, "stimulus": "<p id=\"stim\">FLASHLIGHT</p>", "key_press": -1, "type": "PRES_VIS", "word": "flashlight", "wordID": 574, "conditions": [24, 800, "v", 12000], "trial": 3, "serialpos": 7, "trial_type": "single-stim", "trial_index": 136, "time_elapsed": 608992, "internal_node_id": "0.0-100.0"}}, {"uniqueid": "MTK1101:3ZSANO2JCGEVEHKELI1998DS3QMFSU", "current_trial": 137, "dateTime": 1513107589036, "trialdata": {"rt": -1, "stimulus": "<p id=\"stim\">RUG</p>", "key_press": -1, "type": "PRES_VIS", "word": "rug", "wordID": 1214, "conditions": [24, 800, "v", 12000], "trial": 3, "serialpos": 8, "trial_type": "single-stim", "trial_index": 137, "time_elapsed": 610595, "internal_node_id": "0.0-101.0"}}, {"uniqueid": "MTK1101:3ZSANO2JCGEVEHKELI1998DS3QMFSU", "current_trial": 138, "dateTime": 1513107590717, "trialdata": {"rt": -1, "stimulus": "<p id=\"stim\">WORLD</p>", "key_press": -1, "type": "PRES_VIS", "word": "world", "wordID": 1621, "conditions": [24, 800, "v", 12000], "trial": 3, "serialpos": 9, "trial_type": "single-stim", "trial_index": 138, "time_elapsed": 612276, "internal_node_id": "0.0-102.0"}}, {"uniqueid": "MTK1101:3ZSANO2JCGEVEHKELI1998DS3QMFSU", "current_trial": 139, "dateTime": 1513107592522, "trialdata": {"rt": -1, "stimulus": "<p id=\"stim\">COUNTRY</p>", "key_press": -1, "type": "PRES_VIS", "word": "country", "wordID": 387, "conditions": [24, 800, "v", 12000], "trial": 3, "serialpos": 10, "trial_type": "single-stim", "trial_index": 139, "time_elapsed": 614081, "internal_node_id": "0.0-103.0"}}, {"uniqueid": "MTK1101:3ZSANO2JCGEVEHKELI1998DS3QMFSU", "current_trial": 140, "dateTime": 1513107594480, "trialdata": {"rt": -1, "stimulus": "<p id=\"stim\">DINER</p>", "key_press": -1, "type": "PRES_VIS", "word": "diner", "wordID": 466, "conditions": [24, 800, "v", 12000], "trial": 3, "serialpos": 11, "trial_type": "single-stim", "trial_index": 140, "time_elapsed": 616039, "internal_node_id": "0.0-104.0"}}, {"uniqueid": "MTK1101:3ZSANO2JCGEVEHKELI1998DS3QMFSU", "current_trial": 141, "dateTime": 1513107596300, "trialdata": {"rt": -1, "stimulus": "<p id=\"stim\">MATTRESS</p>", "key_press": -1, "type": "PRES_VIS", "word": "mattress", "wordID": 878, "conditions": [24, 800, "v", 12000], "trial": 3, "serialpos": 12, "trial_type": "single-stim", "trial_index": 141, "time_elapsed": 617859, "internal_node_id": "0.0-105.0"}}, {"uniqueid": "MTK1101:3ZSANO2JCGEVEHKELI1998DS3QMFSU", "current_trial": 142, "dateTime": 1513107598134, "trialdata": {"rt": -1, "stimulus": "<p id=\"stim\">SHELTER</p>", "key_press": -1, "type": "PRES_VIS", "word": "shelter", "wordID": 1281, "conditions": [24, 800, "v", 12000], "trial": 3, "serialpos": 13, "trial_type": "single-stim", "trial_index": 142, "time_elapsed": 619693, "internal_node_id": "0.0-106.0"}}, {"uniqueid": "MTK1101:3ZSANO2JCGEVEHKELI1998DS3QMFSU", "current_trial": 143, "dateTime": 1513107599865, "trialdata": {"rt": -1, "stimulus": "<p id=\"stim\">PADDING</p>", "key_press": -1, "type": "PRES_VIS", "word": "padding", "wordID": 998, "conditions": [24, 800, "v", 12000], "trial": 3, "serialpos": 14, "trial_type": "single-stim", "trial_index": 143, "time_elapsed": 621424, "internal_node_id": "0.0-107.0"}}, {"uniqueid": "MTK1101:3ZSANO2JCGEVEHKELI1998DS3QMFSU", "current_trial": 144, "dateTime": 1513107601525, "trialdata": {"rt": -1, "stimulus": "<p id=\"stim\">COUCH</p>", "key_press": -1, "type": "PRES_VIS", "word": "couch", "wordID": 385, "conditions": [24, 800, "v", 12000], "trial": 3, "serialpos": 15, "trial_type": "single-stim", "trial_index": 144, "time_elapsed": 623084, "internal_node_id": "0.0-108.0"}}, {"uniqueid": "MTK1101:3ZSANO2JCGEVEHKELI1998DS3QMFSU", "current_trial": 145, "dateTime": 1513107603302, "trialdata": {"rt": -1, "stimulus": "<p id=\"stim\">PORTRAIT</p>", "key_press": -1, "type": "PRES_VIS", "word": "portrait", "wordID": 1110, "conditions": [24, 800, "v", 12000], "trial": 3, "serialpos": 16, "trial_type": "single-stim", "trial_index": 145, "time_elapsed": 624861, "internal_node_id": "0.0-109.0"}}, {"uniqueid": "MTK1101:3ZSANO2JCGEVEHKELI1998DS3QMFSU", "current_trial": 146, "dateTime": 1513107605020, "trialdata": {"rt": -1, "stimulus": "<p id=\"stim\">BEAVER</p>", "key_press": -1, "type": "PRES_VIS", "word": "beaver", "wordID": 108, "conditions": [24, 800, "v", 12000], "trial": 3, "serialpos": 17, "trial_type": "single-stim", "trial_index": 146, "time_elapsed": 626579, "internal_node_id": "0.0-110.0"}}, {"uniqueid": "MTK1101:3ZSANO2JCGEVEHKELI1998DS3QMFSU", "current_trial": 147, "dateTime": 1513107606782, "trialdata": {"rt": -1, "stimulus": "<p id=\"stim\">PEPPER</p>", "key_press": -1, "type": "PRES_VIS", "word": "pepper", "wordID": 1046, "conditions": [24, 800, "v", 12000], "trial": 3, "serialpos": 18, "trial_type": "single-stim", "trial_index": 147, "time_elapsed": 628341, "internal_node_id": "0.0-111.0"}}, {"uniqueid": "MTK1101:3ZSANO2JCGEVEHKELI1998DS3QMFSU", "current_trial": 148, "dateTime": 1513107608699, "trialdata": {"rt": -1, "stimulus": "<p id=\"stim\">PARSLEY</p>", "key_press": -1, "type": "PRES_VIS", "word": "parsley", "wordID": 1015, "conditions": [24, 800, "v", 12000], "trial": 3, "serialpos": 19, "trial_type": "single-stim", "trial_index": 148, "time_elapsed": 630257, "internal_node_id": "0.0-112.0"}}, {"uniqueid": "MTK1101:3ZSANO2JCGEVEHKELI1998DS3QMFSU", "current_trial": 149, "dateTime": 1513107610502, "trialdata": {"rt": -1, "stimulus": "<p id=\"stim\">SMOG</p>", "key_press": -1, "type": "PRES_VIS", "word": "smog", "wordID": 1329, "conditions": [24, 800, "v", 12000], "trial": 3, "serialpos": 20, "trial_type": "single-stim", "trial_index": 149, "time_elapsed": 632061, "internal_node_id": "0.0-113.0"}}, {"uniqueid": "MTK1101:3ZSANO2JCGEVEHKELI1998DS3QMFSU", "current_trial": 150, "dateTime": 1513107612400, "trialdata": {"rt": -1, "stimulus": "<p id=\"stim\">TORTOISE</p>", "key_press": -1, "type": "PRES_VIS", "word": "tortoise", "wordID": 1485, "conditions": [24, 800, "v", 12000], "trial": 3, "serialpos": 21, "trial_type": "single-stim", "trial_index": 150, "time_elapsed": 633959, "internal_node_id": "0.0-114.0"}}, {"uniqueid": "MTK1101:3ZSANO2JCGEVEHKELI1998DS3QMFSU", "current_trial": 151, "dateTime": 1513107614191, "trialdata": {"rt": -1, "stimulus": "<p id=\"stim\">CRAYON</p>", "key_press": -1, "type": "PRES_VIS", "word": "crayon", "wordID": 400, "conditions": [24, 800, "v", 12000], "trial": 3, "serialpos": 22, "trial_type": "single-stim", "trial_index": 151, "time_elapsed": 635750, "internal_node_id": "0.0-115.0"}}, {"uniqueid": "MTK1101:3ZSANO2JCGEVEHKELI1998DS3QMFSU", "current_trial": 152, "dateTime": 1513107616035, "trialdata": {"rt": -1, "stimulus": "<p id=\"stim\">PADDLE</p>", "key_press": -1, "type": "PRES_VIS", "word": "paddle", "wordID": 999, "conditions": [24, 800, "v", 12000], "trial": 3, "serialpos": 23, "trial_type": "single-stim", "trial_index": 152, "time_elapsed": 637594, "internal_node_id": "0.0-116.0"}}, {"uniqueid": "MTK1101:3ZSANO2JCGEVEHKELI1998DS3QMFSU", "current_trial": 153, "dateTime": 1513107618141, "trialdata": {"rt": -1, "stimulus": "", "key_press": -1, "type": "PRE_RECALL_DELAY", "trial_type": "single-stim", "trial_index": 153, "time_elapsed": 639696, "internal_node_id": "0.0-117.0-0.0"}}, {"uniqueid": "MTK1101:3ZSANO2JCGEVEHKELI1998DS3QMFSU", "current_trial": 154, "dateTime": 1513107618645, "trialdata": {"rt": -1000, "stimulus": "/static/audio/400Hz.wav", "key_press": -1, "type": "PRE_RECALL_ALERT", "trial_type": "single-audio", "trial_index": 154, "time_elapsed": 640204, "internal_node_id": "0.0-118.0"}}, {"uniqueid": "MTK1101:3ZSANO2JCGEVEHKELI1998DS3QMFSU", "current_trial": 155, "dateTime": 1513107678676, "trialdata": {"rt": [2184, 3567, 5058, 5854, 16397, 24070, 29293, 32573, 33486, 36903, 38119, 44002, 50132, 59416], "recwords": ["paddle", "tortoise", "princess", "crown", "spoon", "turquoise", "monkey", "fork", "knife", "castle", "sword", "river", "partridge", "sucessful"], "type": "FREE_RECALL", "conditions": [24, 800, "v", 12000], "trial": 3, "trial_type": "free-recall", "trial_index": 155, "time_elapsed": 700223, "internal_node_id": "0.0-119.0-0.0"}}, {"uniqueid": "MTK1101:3ZSANO2JCGEVEHKELI1998DS3QMFSU", "current_trial": 156, "dateTime": 1513108983384, "trialdata": {"rt": 1302696, "key_press": 32, "type": "INSTRUCTIONS", "trial_type": "text", "trial_index": 156, "time_elapsed": 2004939, "internal_node_id": "0.0-120.0"}}, {"uniqueid": "MTK1101:3ZSANO2JCGEVEHKELI1998DS3QMFSU", "current_trial": 157, "dateTime": 1513108997396, "trialdata": {"rt": [5129, 8000, 10017, 11537], "responses": ["18", "22", "13", "6"], "num1": [5, 9, 2, 2, 2], "num2": [9, 4, 9, 2, 3], "num3": [4, 9, 2, 2, 6], "type": "DISTRACTOR", "conditions": [24, 800, "a", 12000], "trial": 4, "trial_type": "math-distractor", "trial_index": 157, "time_elapsed": 2018955, "internal_node_id": "0.0-121.0"}}, {"uniqueid": "MTK1101:3ZSANO2JCGEVEHKELI1998DS3QMFSU", "current_trial": 158, "dateTime": 1513109000402, "trialdata": {"rt": -1, "stimulus": "<p id=\"stim\">10</p>", "key_press": -1, "trial_type": "single-stim", "trial_index": 158, "time_elapsed": 2021961, "internal_node_id": "0.0-122.0-0.0"}}, {"uniqueid": "MTK1101:3ZSANO2JCGEVEHKELI1998DS3QMFSU", "current_trial": 159, "dateTime": 1513109001406, "trialdata": {"rt": -1, "stimulus": "<p id=\"stim\">9</p>", "key_press": -1, "trial_type": "single-stim", "trial_index": 159, "time_elapsed": 2022965, "internal_node_id": "0.0-122.0-1.0"}}, {"uniqueid": "MTK1101:3ZSANO2JCGEVEHKELI1998DS3QMFSU", "current_trial": 160, "dateTime": 1513109002410, "trialdata": {"rt": -1, "stimulus": "<p id=\"stim\">8</p>", "key_press": -1, "trial_type": "single-stim", "trial_index": 160, "time_elapsed": 2023968, "internal_node_id": "0.0-122.0-2.0"}}, {"uniqueid": "MTK1101:3ZSANO2JCGEVEHKELI1998DS3QMFSU", "current_trial": 161, "dateTime": 1513109003413, "trialdata": {"rt": -1, "stimulus": "<p id=\"stim\">7</p>", "key_press": -1, "trial_type": "single-stim", "trial_index": 161, "time_elapsed": 2024972, "internal_node_id": "0.0-122.0-3.0"}}, {"uniqueid": "MTK1101:3ZSANO2JCGEVEHKELI1998DS3QMFSU", "current_trial": 162, "dateTime": 1513109004416, "trialdata": {"rt": -1, "stimulus": "<p id=\"stim\">6</p>", "key_press": -1, "trial_type": "single-stim", "trial_index": 162, "time_elapsed": 2025975, "internal_node_id": "0.0-122.0-4.0"}}, {"uniqueid": "MTK1101:3ZSANO2JCGEVEHKELI1998DS3QMFSU", "current_trial": 163, "dateTime": 1513109005417, "trialdata": {"rt": -1, "stimulus": "<p id=\"stim\">5</p>", "key_press": -1, "trial_type": "single-stim", "trial_index": 163, "time_elapsed": 2026976, "internal_node_id": "0.0-122.0-5.0"}}, {"uniqueid": "MTK1101:3ZSANO2JCGEVEHKELI1998DS3QMFSU", "current_trial": 164, "dateTime": 1513109006417, "trialdata": {"rt": -1, "stimulus": "<p id=\"stim\">4</p>", "key_press": -1, "trial_type": "single-stim", "trial_index": 164, "time_elapsed": 2027976, "internal_node_id": "0.0-122.0-6.0"}}, {"uniqueid": "MTK1101:3ZSANO2JCGEVEHKELI1998DS3QMFSU", "current_trial": 165, "dateTime": 1513109007419, "trialdata": {"rt": -1, "stimulus": "<p id=\"stim\">3</p>", "key_press": -1, "trial_type": "single-stim", "trial_index": 165, "time_elapsed": 2028978, "internal_node_id": "0.0-122.0-7.0"}}, {"uniqueid": "MTK1101:3ZSANO2JCGEVEHKELI1998DS3QMFSU", "current_trial": 166, "dateTime": 1513109008419, "trialdata": {"rt": -1, "stimulus": "<p id=\"stim\">2</p>", "key_press": -1, "trial_type": "single-stim", "trial_index": 166, "time_elapsed": 2029978, "internal_node_id": "0.0-122.0-8.0"}}, {"uniqueid": "MTK1101:3ZSANO2JCGEVEHKELI1998DS3QMFSU", "current_trial": 167, "dateTime": 1513109009421, "trialdata": {"rt": -1, "stimulus": "<p id=\"stim\">1</p>", "key_press": -1, "trial_type": "single-stim", "trial_index": 167, "time_elapsed": 2030980, "internal_node_id": "0.0-122.0-9.0"}}, {"uniqueid": "MTK1101:3ZSANO2JCGEVEHKELI1998DS3QMFSU", "current_trial": 168, "dateTime": 1513109010928, "trialdata": {"rt": -1, "stimulus": "<p id=\"stim\">+</p>", "key_press": -1, "type": "FIXATION", "trial_type": "single-stim", "trial_index": 168, "time_elapsed": 2032487, "internal_node_id": "0.0-123.0-0.0"}}, {"uniqueid": "MTK1101:3ZSANO2JCGEVEHKELI1998DS3QMFSU", "current_trial": 169, "dateTime": 1513109012802, "trialdata": {"rt": -1000, "stimulus": "/static/audio/wordpool/ROOSTER.wav", "key_press": -1, "type": "PRES_AUD", "word": "rooster", "wordID": 1208, "conditions": [24, 800, "a", 12000], "trial": 4, "serialpos": 0, "trial_type": "single-audio", "trial_index": 169, "time_elapsed": 2034361, "internal_node_id": "0.0-124.0"}}, {"uniqueid": "MTK1101:3ZSANO2JCGEVEHKELI1998DS3QMFSU", "current_trial": 170, "dateTime": 1513109014576, "trialdata": {"rt": 132.00000000006185, "stimulus": "/static/audio/wordpool/BRICK.wav", "key_press": 175, "type": "PRES_AUD", "word": "brick", "wordID": 171, "conditions": [24, 800, "a", 12000], "trial": 4, "serialpos": 1, "trial_type": "single-audio", "trial_index": 170, "time_elapsed": 2036128, "internal_node_id": "0.0-125.0"}}, {"uniqueid": "MTK1101:3ZSANO2JCGEVEHKELI1998DS3QMFSU", "current_trial": 171, "dateTime": 1513109016528, "trialdata": {"rt": -1000, "stimulus": "/static/audio/wordpool/FREEZER.wav", "key_press": -1, "type": "PRES_AUD", "word": "freezer", "wordID": 603, "conditions": [24, 800, "a", 12000], "trial": 4, "serialpos": 2, "trial_type": "single-audio", "trial_index": 171, "time_elapsed": 2038087, "internal_node_id": "0.0-126.0"}}, {"uniqueid": "MTK1101:3ZSANO2JCGEVEHKELI1998DS3QMFSU", "current_trial": 172, "dateTime": 1513109018432, "trialdata": {"rt": -1000, "stimulus": "/static/audio/wordpool/DRESS.wav", "key_press": -1, "type": "PRES_AUD", "word": "dress", "wordID": 494, "conditions": [24, 800, "a", 12000], "trial": 4, "serialpos": 3, "trial_type": "single-audio", "trial_index": 172, "time_elapsed": 2039991, "internal_node_id": "0.0-127.0"}}, {"uniqueid": "MTK1101:3ZSANO2JCGEVEHKELI1998DS3QMFSU", "current_trial": 173, "dateTime": 1513109020287, "trialdata": {"rt": -1000, "stimulus": "/static/audio/wordpool/WARDROBE.wav", "key_press": -1, "type": "PRES_AUD", "word": "wardrobe", "wordID": 1586, "conditions": [24, 800, "a", 12000], "trial": 4, "serialpos": 4, "trial_type": "single-audio", "trial_index": 173, "time_elapsed": 2041845, "internal_node_id": "0.0-128.0"}}, {"uniqueid": "MTK1101:3ZSANO2JCGEVEHKELI1998DS3QMFSU", "current_trial": 174, "dateTime": 1513109021943, "trialdata": {"rt": -1000, "stimulus": "/static/audio/wordpool/TILE.wav", "key_press": -1, "type": "PRES_AUD", "word": "tile", "wordID": 1467, "conditions": [24, 800, "a", 12000], "trial": 4, "serialpos": 5, "trial_type": "single-audio", "trial_index": 174, "time_elapsed": 2043502, "internal_node_id": "0.0-129.0"}}, {"uniqueid": "MTK1101:3ZSANO2JCGEVEHKELI1998DS3QMFSU", "current_trial": 175, "dateTime": 1513109023714, "trialdata": {"rt": -1000, "stimulus": "/static/audio/wordpool/FOOT.wav", "key_press": -1, "type": "PRES_AUD", "word": "foot", "wordID": 589, "conditions": [24, 800, "a", 12000], "trial": 4, "serialpos": 6, "trial_type": "single-audio", "trial_index": 175, "time_elapsed": 2045273, "internal_node_id": "0.0-130.0"}}, {"uniqueid": "MTK1101:3ZSANO2JCGEVEHKELI1998DS3QMFSU", "current_trial": 176, "dateTime": 1513109025499, "trialdata": {"rt": -1000, "stimulus": "/static/audio/wordpool/SKETCH.wav", "key_press": -1, "type": "PRES_AUD", "word": "sketch", "wordID": 1314, "conditions": [24, 800, "a", 12000], "trial": 4, "serialpos": 7, "trial_type": "single-audio", "trial_index": 176, "time_elapsed": 2047057, "internal_node_id": "0.0-131.0"}}, {"uniqueid": "MTK1101:3ZSANO2JCGEVEHKELI1998DS3QMFSU", "current_trial": 177, "dateTime": 1513109027132, "trialdata": {"rt": -1000, "stimulus": "/static/audio/wordpool/SPARROW.wav", "key_press": -1, "type": "PRES_AUD", "word": "sparrow", "wordID": 1346, "conditions": [24, 800, "a", 12000], "trial": 4, "serialpos": 8, "trial_type": "single-audio", "trial_index": 177, "time_elapsed": 2048691, "internal_node_id": "0.0-132.0"}}, {"uniqueid": "MTK1101:3ZSANO2JCGEVEHKELI1998DS3QMFSU", "current_trial": 178, "dateTime": 1513109028759, "trialdata": {"rt": -1000, "stimulus": "/static/audio/wordpool/HAWK.wav", "key_press": -1, "type": "PRES_AUD", "word": "hawk", "wordID": 691, "conditions": [24, 800, "a", 12000], "trial": 4, "serialpos": 9, "trial_type": "single-audio", "trial_index": 178, "time_elapsed": 2050318, "internal_node_id": "0.0-133.0"}}, {"uniqueid": "MTK1101:3ZSANO2JCGEVEHKELI1998DS3QMFSU", "current_trial": 179, "dateTime": 1513109030414, "trialdata": {"rt": -1000, "stimulus": "/static/audio/wordpool/KIDNEY.wav", "key_press": -1, "type": "PRES_AUD", "word": "kidney", "wordID": 775, "conditions": [24, 800, "a", 12000], "trial": 4, "serialpos": 10, "trial_type": "single-audio", "trial_index": 179, "time_elapsed": 2051972, "internal_node_id": "0.0-134.0"}}, {"uniqueid": "MTK1101:3ZSANO2JCGEVEHKELI1998DS3QMFSU", "current_trial": 180, "dateTime": 1513109032261, "trialdata": {"rt": -1000, "stimulus": "/static/audio/wordpool/SUNSET.wav", "key_press": -1, "type": "PRES_AUD", "word": "sunset", "wordID": 1407, "conditions": [24, 800, "a", 12000], "trial": 4, "serialpos": 11, "trial_type": "single-audio", "trial_index": 180, "time_elapsed": 2053819, "internal_node_id": "0.0-135.0"}}, {"uniqueid": "MTK1101:3ZSANO2JCGEVEHKELI1998DS3QMFSU", "current_trial": 181, "dateTime": 1513109033888, "trialdata": {"rt": -1000, "stimulus": "/static/audio/wordpool/HOOK.wav", "key_press": -1, "type": "PRES_AUD", "word": "hook", "wordID": 714, "conditions": [24, 800, "a", 12000], "trial": 4, "serialpos": 12, "trial_type": "single-audio", "trial_index": 181, "time_elapsed": 2055447, "internal_node_id": "0.0-136.0"}}, {"uniqueid": "MTK1101:3ZSANO2JCGEVEHKELI1998DS3QMFSU", "current_trial": 182, "dateTime": 1513109035732, "trialdata": {"rt": -1000, "stimulus": "/static/audio/wordpool/SOFTBALL.wav", "key_press": -1, "type": "PRES_AUD", "word": "softball", "wordID": 1342, "conditions": [24, 800, "a", 12000], "trial": 4, "serialpos": 13, "trial_type": "single-audio", "trial_index": 182, "time_elapsed": 2057290, "internal_node_id": "0.0-137.0"}}, {"uniqueid": "MTK1101:3ZSANO2JCGEVEHKELI1998DS3QMFSU", "current_trial": 183, "dateTime": 1513109037358, "trialdata": {"rt": -1000, "stimulus": "/static/audio/wordpool/SNAIL.wav", "key_press": -1, "type": "PRES_AUD", "word": "snail", "wordID": 1331, "conditions": [24, 800, "a", 12000], "trial": 4, "serialpos": 14, "trial_type": "single-audio", "trial_index": 183, "time_elapsed": 2058917, "internal_node_id": "0.0-138.0"}}, {"uniqueid": "MTK1101:3ZSANO2JCGEVEHKELI1998DS3QMFSU", "current_trial": 184, "dateTime": 1513109039319, "trialdata": {"rt": -1000, "stimulus": "/static/audio/wordpool/BREAST.wav", "key_press": -1, "type": "PRES_AUD", "word": "breast", "wordID": 170, "conditions": [24, 800, "a", 12000], "trial": 4, "serialpos": 15, "trial_type": "single-audio", "trial_index": 184, "time_elapsed": 2060878, "internal_node_id": "0.0-139.0"}}, {"uniqueid": "MTK1101:3ZSANO2JCGEVEHKELI1998DS3QMFSU", "current_trial": 185, "dateTime": 1513109041078, "trialdata": {"rt": -1000, "stimulus": "/static/audio/wordpool/SPHINX.wav", "key_press": -1, "type": "PRES_AUD", "word": "sphinx", "wordID": 1348, "conditions": [24, 800, "a", 12000], "trial": 4, "serialpos": 16, "trial_type": "single-audio", "trial_index": 185, "time_elapsed": 2062637, "internal_node_id": "0.0-140.0"}}, {"uniqueid": "MTK1101:3ZSANO2JCGEVEHKELI1998DS3QMFSU", "current_trial": 186, "dateTime": 1513109042707, "trialdata": {"rt": -1000, "stimulus": "/static/audio/wordpool/RECEIPT.wav", "key_press": -1, "type": "PRES_AUD", "word": "receipt", "wordID": 1172, "conditions": [24, 800, "a", 12000], "trial": 4, "serialpos": 17, "trial_type": "single-audio", "trial_index": 186, "time_elapsed": 2064266, "internal_node_id": "0.0-141.0"}}, {"uniqueid": "MTK1101:3ZSANO2JCGEVEHKELI1998DS3QMFSU", "current_trial": 187, "dateTime": 1513109044708, "trialdata": {"rt": -1000, "stimulus": "/static/audio/wordpool/LIZARD.wav", "key_press": -1, "type": "PRES_AUD", "word": "lizard", "wordID": 833, "conditions": [24, 800, "a", 12000], "trial": 4, "serialpos": 18, "trial_type": "single-audio", "trial_index": 187, "time_elapsed": 2066266, "internal_node_id": "0.0-142.0"}}, {"uniqueid": "MTK1101:3ZSANO2JCGEVEHKELI1998DS3QMFSU", "current_trial": 188, "dateTime": 1513109046391, "trialdata": {"rt": -1000, "stimulus": "/static/audio/wordpool/GOBLIN.wav", "key_press": -1, "type": "PRES_AUD", "word": "goblin", "wordID": 644, "conditions": [24, 800, "a", 12000], "trial": 4, "serialpos": 19, "trial_type": "single-audio", "trial_index": 188, "time_elapsed": 2067950, "internal_node_id": "0.0-143.0"}}, {"uniqueid": "MTK1101:3ZSANO2JCGEVEHKELI1998DS3QMFSU", "current_trial": 189, "dateTime": 1513109048113, "trialdata": {"rt": -1000, "stimulus": "/static/audio/wordpool/DRAGON.wav", "key_press": -1, "type": "PRES_AUD", "word": "dragon", "wordID": 491, "conditions": [24, 800, "a", 12000], "trial": 4, "serialpos": 20, "trial_type": "single-audio", "trial_index": 189, "time_elapsed": 2069672, "internal_node_id": "0.0-144.0"}}, {"uniqueid": "MTK1101:3ZSANO2JCGEVEHKELI1998DS3QMFSU", "current_trial": 190, "dateTime": 1513109050056, "trialdata": {"rt": -1000, "stimulus": "/static/audio/wordpool/CATCHER.wav", "key_press": -1, "type": "PRES_AUD", "word": "catcher", "wordID": 257, "conditions": [24, 800, "a", 12000], "trial": 4, "serialpos": 21, "trial_type": "single-audio", "trial_index": 190, "time_elapsed": 2071615, "internal_node_id": "0.0-145.0"}}, {"uniqueid": "MTK1101:3ZSANO2JCGEVEHKELI1998DS3QMFSU", "current_trial": 191, "dateTime": 1513109051806, "trialdata": {"rt": -1000, "stimulus": "/static/audio/wordpool/DRILL.wav", "key_press": -1, "type": "PRES_AUD", "word": "drill", "wordID": 496, "conditions": [24, 800, "a", 12000], "trial": 4, "serialpos": 22, "trial_type": "single-audio", "trial_index": 191, "time_elapsed": 2073364, "internal_node_id": "0.0-146.0"}}, {"uniqueid": "MTK1101:3ZSANO2JCGEVEHKELI1998DS3QMFSU", "current_trial": 192, "dateTime": 1513109053682, "trialdata": {"rt": -1000, "stimulus": "/static/audio/wordpool/SNAKE.wav", "key_press": -1, "type": "PRES_AUD", "word": "snake", "wordID": 1332, "conditions": [24, 800, "a", 12000], "trial": 4, "serialpos": 23, "trial_type": "single-audio", "trial_index": 192, "time_elapsed": 2075241, "internal_node_id": "0.0-147.0"}}, {"uniqueid": "MTK1101:3ZSANO2JCGEVEHKELI1998DS3QMFSU", "current_trial": 193, "dateTime": 1513109055039, "trialdata": {"rt": -1, "stimulus": "", "key_press": -1, "type": "PRE_RECALL_DELAY", "trial_type": "single-stim", "trial_index": 193, "time_elapsed": 2076598, "internal_node_id": "0.0-148.0-0.0"}}, {"uniqueid": "MTK1101:3ZSANO2JCGEVEHKELI1998DS3QMFSU", "current_trial": 194, "dateTime": 1513109055547, "trialdata": {"rt": -1000, "stimulus": "/static/audio/400Hz.wav", "key_press": -1, "type": "PRE_RECALL_ALERT", "trial_type": "single-audio", "trial_index": 194, "time_elapsed": 2077105, "internal_node_id": "0.0-149.0"}}, {"uniqueid": "MTK1101:3ZSANO2JCGEVEHKELI1998DS3QMFSU", "current_trial": 195, "dateTime": 1513109115570, "trialdata": {"rt": [1399, 2234, 2970, 4048, 4997, 6496, 7353, 8960, 10565, 12341, 15334, 27478, 28511, 36686, 45400, 49857, 54962], "recwords": ["snake", "breast", "goblin", "dragon", "fire", "apple", "ladder", "dress", "sketch", "scathe", "lion", "milk", "allegory", "scrunch", "viscious", "polenta", "wardrobe"], "type": "FREE_RECALL", "conditions": [24, 800, "a", 12000], "trial": 4, "trial_type": "free-recall", "trial_index": 195, "time_elapsed": 2137117, "internal_node_id": "0.0-150.0-0.0"}}, {"uniqueid": "MTK1101:3ZSANO2JCGEVEHKELI1998DS3QMFSU", "current_trial": 196, "dateTime": 1513109118240, "trialdata": {"rt": 667, "key_press": 32, "type": "INSTRUCTIONS", "trial_type": "text", "trial_index": 196, "time_elapsed": 2139799, "internal_node_id": "0.0-151.0"}}, {"uniqueid": "MTK1101:3ZSANO2JCGEVEHKELI1998DS3QMFSU", "current_trial": 197, "dateTime": 1513109132290, "trialdata": {"rt": [1784, 3303, 5019, 7389, 9959, 11774], "responses": ["12", "19", "14", "16", "8", "19"], "num1": [4, 2, 3, 6, 2, 9, 5], "num2": [3, 8, 3, 1, 2, 7, 6], "num3": [5, 9, 8, 9, 4, 3, 2], "type": "DISTRACTOR", "conditions": [12, 800, "v", 12000], "trial": 5, "trial_type": "math-distractor", "trial_index": 197, "time_elapsed": 2153849, "internal_node_id": "0.0-152.0"}}, {"uniqueid": "MTK1101:3ZSANO2JCGEVEHKELI1998DS3QMFSU", "current_trial": 198, "dateTime": 1513109135292, "trialdata": {"rt": -1, "stimulus": "<p id=\"stim\">10</p>", "key_press": -1, "trial_type": "single-stim", "trial_index": 198, "time_elapsed": 2156851, "internal_node_id": "0.0-153.0-0.0"}}, {"uniqueid": "MTK1101:3ZSANO2JCGEVEHKELI1998DS3QMFSU", "current_trial": 199, "dateTime": 1513109136293, "trialdata": {"rt": -1, "stimulus": "<p id=\"stim\">9</p>", "key_press": -1, "trial_type": "single-stim", "trial_index": 199, "time_elapsed": 2157852, "internal_node_id": "0.0-153.0-1.0"}}, {"uniqueid": "MTK1101:3ZSANO2JCGEVEHKELI1998DS3QMFSU", "current_trial": 200, "dateTime": 1513109137296, "trialdata": {"rt": -1, "stimulus": "<p id=\"stim\">8</p>", "key_press": -1, "trial_type": "single-stim", "trial_index": 200, "time_elapsed": 2158855, "internal_node_id": "0.0-153.0-2.0"}}, {"uniqueid": "MTK1101:3ZSANO2JCGEVEHKELI1998DS3QMFSU", "current_trial": 201, "dateTime": 1513109138296, "trialdata": {"rt": -1, "stimulus": "<p id=\"stim\">7</p>", "key_press": -1, "trial_type": "single-stim", "trial_index": 201, "time_elapsed": 2159855, "internal_node_id": "0.0-153.0-3.0"}}, {"uniqueid": "MTK1101:3ZSANO2JCGEVEHKELI1998DS3QMFSU", "current_trial": 202, "dateTime": 1513109139297, "trialdata": {"rt": -1, "stimulus": "<p id=\"stim\">6</p>", "key_press": -1, "trial_type": "single-stim", "trial_index": 202, "time_elapsed": 2160856, "internal_node_id": "0.0-153.0-4.0"}}, {"uniqueid": "MTK1101:3ZSANO2JCGEVEHKELI1998DS3QMFSU", "current_trial": 203, "dateTime": 1513109140300, "trialdata": {"rt": -1, "stimulus": "<p id=\"stim\">5</p>", "key_press": -1, "trial_type": "single-stim", "trial_index": 203, "time_elapsed": 2161859, "internal_node_id": "0.0-153.0-5.0"}}, {"uniqueid": "MTK1101:3ZSANO2JCGEVEHKELI1998DS3QMFSU", "current_trial": 204, "dateTime": 1513109141303, "trialdata": {"rt": -1, "stimulus": "<p id=\"stim\">4</p>", "key_press": -1, "trial_type": "single-stim", "trial_index": 204, "time_elapsed": 2162862, "internal_node_id": "0.0-153.0-6.0"}}, {"uniqueid": "MTK1101:3ZSANO2JCGEVEHKELI1998DS3QMFSU", "current_trial": 205, "dateTime": 1513109142303, "trialdata": {"rt": -1, "stimulus": "<p id=\"stim\">3</p>", "key_press": -1, "trial_type": "single-stim", "trial_index": 205, "time_elapsed": 2163862, "internal_node_id": "0.0-153.0-7.0"}}, {"uniqueid": "MTK1101:3ZSANO2JCGEVEHKELI1998DS3QMFSU", "current_trial": 206, "dateTime": 1513109143303, "trialdata": {"rt": -1, "stimulus": "<p id=\"stim\">2</p>", "key_press": -1, "trial_type": "single-stim", "trial_index": 206, "time_elapsed": 2164862, "internal_node_id": "0.0-153.0-8.0"}}, {"uniqueid": "MTK1101:3ZSANO2JCGEVEHKELI1998DS3QMFSU", "current_trial": 207, "dateTime": 1513109144307, "trialdata": {"rt": -1, "stimulus": "<p id=\"stim\">1</p>", "key_press": -1, "trial_type": "single-stim", "trial_index": 207, "time_elapsed": 2165866, "internal_node_id": "0.0-153.0-9.0"}}, {"uniqueid": "MTK1101:3ZSANO2JCGEVEHKELI1998DS3QMFSU", "current_trial": 208, "dateTime": 1513109145809, "trialdata": {"rt": -1, "stimulus": "<p id=\"stim\">+</p>", "key_press": -1, "type": "FIXATION", "trial_type": "single-stim", "trial_index": 208, "time_elapsed": 2167368, "internal_node_id": "0.0-154.0-0.0"}}, {"uniqueid": "MTK1101:3ZSANO2JCGEVEHKELI1998DS3QMFSU", "current_trial": 209, "dateTime": 1513109146613, "trialdata": {"rt": -1, "stimulus": "<p id=\"stim\">FOX</p>", "key_press": -1, "type": "PRES_VIS", "word": "fox", "wordID": 597, "conditions": [12, 800, "v", 12000], "trial": 5, "serialpos": 0, "trial_type": "single-stim", "trial_index": 209, "time_elapsed": 2168172, "internal_node_id": "0.0-155.0"}}, {"uniqueid": "MTK1101:3ZSANO2JCGEVEHKELI1998DS3QMFSU", "current_trial": 210, "dateTime": 1513109148419, "trialdata": {"rt": -1, "stimulus": "<p id=\"stim\">POSSUM</p>", "key_press": -1, "type": "PRES_VIS", "word": "possum", "wordID": 1111, "conditions": [12, 800, "v", 12000], "trial": 5, "serialpos": 1, "trial_type": "single-stim", "trial_index": 210, "time_elapsed": 2169978, "internal_node_id": "0.0-156.0"}}, {"uniqueid": "MTK1101:3ZSANO2JCGEVEHKELI1998DS3QMFSU", "current_trial": 211, "dateTime": 1513109150400, "trialdata": {"rt": -1, "stimulus": "<p id=\"stim\">SHELF</p>", "key_press": -1, "type": "PRES_VIS", "word": "shelf", "wordID": 1279, "conditions": [12, 800, "v", 12000], "trial": 5, "serialpos": 2, "trial_type": "single-stim", "trial_index": 211, "time_elapsed": 2171959, "internal_node_id": "0.0-157.0"}}, {"uniqueid": "MTK1101:3ZSANO2JCGEVEHKELI1998DS3QMFSU", "current_trial": 212, "dateTime": 1513109152396, "trialdata": {"rt": -1, "stimulus": "<p id=\"stim\">BEAKER</p>", "key_press": -1, "type": "PRES_VIS", "word": "beaker", "wordID": 103, "conditions": [12, 800, "v", 12000], "trial": 5, "serialpos": 3, "trial_type": "single-stim", "trial_index": 212, "time_elapsed": 2173955, "internal_node_id": "0.0-158.0"}}, {"uniqueid": "MTK1101:3ZSANO2JCGEVEHKELI1998DS3QMFSU", "current_trial": 213, "dateTime": 1513109154271, "trialdata": {"rt": -1, "stimulus": "<p id=\"stim\">VIRUS</p>", "key_press": -1, "type": "PRES_VIS", "word": "virus", "wordID": 1571, "conditions": [12, 800, "v", 12000], "trial": 5, "serialpos": 4, "trial_type": "single-stim", "trial_index": 213, "time_elapsed": 2175830, "internal_node_id": "0.0-159.0"}}, {"uniqueid": "MTK1101:3ZSANO2JCGEVEHKELI1998DS3QMFSU", "current_trial": 214, "dateTime": 1513109156258, "trialdata": {"rt": -1, "stimulus": "<p id=\"stim\">PEANUT</p>", "key_press": -1, "type": "PRES_VIS", "word": "peanut", "wordID": 1031, "conditions": [12, 800, "v", 12000], "trial": 5, "serialpos": 5, "trial_type": "single-stim", "trial_index": 214, "time_elapsed": 2177817, "internal_node_id": "0.0-160.0"}}, {"uniqueid": "MTK1101:3ZSANO2JCGEVEHKELI1998DS3QMFSU", "current_trial": 215, "dateTime": 1513109158100, "trialdata": {"rt": -1, "stimulus": "<p id=\"stim\">BRIEFCASE</p>", "key_press": -1, "type": "PRES_VIS", "word": "briefcase", "wordID": 174, "conditions": [12, 800, "v", 12000], "trial": 5, "serialpos": 6, "trial_type": "single-stim", "trial_index": 215, "time_elapsed": 2179659, "internal_node_id": "0.0-161.0"}}, {"uniqueid": "MTK1101:3ZSANO2JCGEVEHKELI1998DS3QMFSU", "current_trial": 216, "dateTime": 1513109160086, "trialdata": {"rt": -1, "stimulus": "<p id=\"stim\">GLOVE</p>", "key_press": -1, "type": "PRES_VIS", "word": "glove", "wordID": 641, "conditions": [12, 800, "v", 12000], "trial": 5, "serialpos": 7, "trial_type": "single-stim", "trial_index": 216, "time_elapsed": 2181645, "internal_node_id": "0.0-162.0"}}, {"uniqueid": "MTK1101:3ZSANO2JCGEVEHKELI1998DS3QMFSU", "current_trial": 217, "dateTime": 1513109161779, "trialdata": {"rt": -1, "stimulus": "<p id=\"stim\">FLASK</p>", "key_press": -1, "type": "PRES_VIS", "word": "flask", "wordID": 575, "conditions": [12, 800, "v", 12000], "trial": 5, "serialpos": 8, "trial_type": "single-stim", "trial_index": 217, "time_elapsed": 2183338, "internal_node_id": "0.0-163.0"}}, {"uniqueid": "MTK1101:3ZSANO2JCGEVEHKELI1998DS3QMFSU", "current_trial": 218, "dateTime": 1513109163525, "trialdata": {"rt": -1, "stimulus": "<p id=\"stim\">ROBBER</p>", "key_press": -1, "type": "PRES_VIS", "word": "robber", "wordID": 1196, "conditions": [12, 800, "v", 12000], "trial": 5, "serialpos": 9, "trial_type": "single-stim", "trial_index": 218, "time_elapsed": 2185084, "internal_node_id": "0.0-164.0"}}, {"uniqueid": "MTK1101:3ZSANO2JCGEVEHKELI1998DS3QMFSU", "current_trial": 219, "dateTime": 1513109165525, "trialdata": {"rt": -1, "stimulus": "<p id=\"stim\">OMELET</p>", "key_press": -1, "type": "PRES_VIS", "word": "omelet", "wordID": 975, "conditions": [12, 800, "v", 12000], "trial": 5, "serialpos": 10, "trial_type": "single-stim", "trial_index": 219, "time_elapsed": 2187084, "internal_node_id": "0.0-165.0"}}, {"uniqueid": "MTK1101:3ZSANO2JCGEVEHKELI1998DS3QMFSU", "current_trial": 220, "dateTime": 1513109167424, "trialdata": {"rt": -1, "stimulus": "<p id=\"stim\">SUNRISE</p>", "key_press": -1, "type": "PRES_VIS", "word": "sunrise", "wordID": 1406, "conditions": [12, 800, "v", 12000], "trial": 5, "serialpos": 11, "trial_type": "single-stim", "trial_index": 220, "time_elapsed": 2188983, "internal_node_id": "0.0-166.0"}}, {"uniqueid": "MTK1101:3ZSANO2JCGEVEHKELI1998DS3QMFSU", "current_trial": 221, "dateTime": 1513109169839, "trialdata": {"rt": -1, "stimulus": "", "key_press": -1, "type": "PRE_RECALL_DELAY", "trial_type": "single-stim", "trial_index": 221, "time_elapsed": 2191398, "internal_node_id": "0.0-167.0-0.0"}}, {"uniqueid": "MTK1101:3ZSANO2JCGEVEHKELI1998DS3QMFSU", "current_trial": 222, "dateTime": 1513109170349, "trialdata": {"rt": -1000, "stimulus": "/static/audio/400Hz.wav", "key_press": -1, "type": "PRE_RECALL_ALERT", "trial_type": "single-audio", "trial_index": 222, "time_elapsed": 2191908, "internal_node_id": "0.0-168.0"}}, {"uniqueid": "MTK1101:3ZSANO2JCGEVEHKELI1998DS3QMFSU", "current_trial": 223, "dateTime": 1513109230366, "trialdata": {"rt": [1859, 3544, 4732, 10209, 17154, 44520, 59508], "recwords": ["omelete", "sunrise", "beaver", "mission", "opposum", "turtle", "sneeze"], "type": "FREE_RECALL", "conditions": [12, 800, "v", 12000], "trial": 5, "trial_type": "free-recall", "trial_index": 223, "time_elapsed": 2251916, "internal_node_id": "0.0-169.0-0.0"}}, {"uniqueid": "MTK1101:3ZSANO2JCGEVEHKELI1998DS3QMFSU", "current_trial": 224, "dateTime": 1513109289370, "trialdata": {"rt": 56998, "key_press": 32, "type": "INSTRUCTIONS", "trial_type": "text", "trial_index": 224, "time_elapsed": 2310929, "internal_node_id": "0.0-170.0"}}, {"uniqueid": "MTK1101:3ZSANO2JCGEVEHKELI1998DS3QMFSU", "current_trial": 225, "dateTime": 1513109315380, "trialdata": {"rt": [2641, 5602, 8345, 9837, 12802, 15519, 17666, 19664, 21977], "responses": ["11", "16", "14", "16", "21", "22", "20", "20", "22"], "num1": [1, 2, 6, 7, 5, 8, 8, 8, 8, 6], "num2": [8, 7, 3, 3, 9, 8, 9, 4, 7, 3], "num3": [2, 7, 5, 6, 7, 6, 3, 8, 8, 8], "type": "DISTRACTOR", "conditions": [24, 800, "v", 24000], "trial": 6, "trial_type": "math-distractor", "trial_index": 225, "time_elapsed": 2336935, "internal_node_id": "0.0-171.0"}}, {"uniqueid": "MTK1101:3ZSANO2JCGEVEHKELI1998DS3QMFSU", "current_trial": 226, "dateTime": 1513109318388, "trialdata": {"rt": -1, "stimulus": "<p id=\"stim\">10</p>", "key_press": -1, "trial_type": "single-stim", "trial_index": 226, "time_elapsed": 2339947, "internal_node_id": "0.0-172.0-0.0"}}, {"uniqueid": "MTK1101:3ZSANO2JCGEVEHKELI1998DS3QMFSU", "current_trial": 227, "dateTime": 1513109319389, "trialdata": {"rt": -1, "stimulus": "<p id=\"stim\">9</p>", "key_press": -1, "trial_type": "single-stim", "trial_index": 227, "time_elapsed": 2340948, "internal_node_id": "0.0-172.0-1.0"}}, {"uniqueid": "MTK1101:3ZSANO2JCGEVEHKELI1998DS3QMFSU", "current_trial": 228, "dateTime": 1513109320393, "trialdata": {"rt": -1, "stimulus": "<p id=\"stim\">8</p>", "key_press": -1, "trial_type": "single-stim", "trial_index": 228, "time_elapsed": 2341952, "internal_node_id": "0.0-172.0-2.0"}}, {"uniqueid": "MTK1101:3ZSANO2JCGEVEHKELI1998DS3QMFSU", "current_trial": 229, "dateTime": 1513109321394, "trialdata": {"rt": -1, "stimulus": "<p id=\"stim\">7</p>", "key_press": -1, "trial_type": "single-stim", "trial_index": 229, "time_elapsed": 2342953, "internal_node_id": "0.0-172.0-3.0"}}, {"uniqueid": "MTK1101:3ZSANO2JCGEVEHKELI1998DS3QMFSU", "current_trial": 230, "dateTime": 1513109322396, "trialdata": {"rt": -1, "stimulus": "<p id=\"stim\">6</p>", "key_press": -1, "trial_type": "single-stim", "trial_index": 230, "time_elapsed": 2343955, "internal_node_id": "0.0-172.0-4.0"}}, {"uniqueid": "MTK1101:3ZSANO2JCGEVEHKELI1998DS3QMFSU", "current_trial": 231, "dateTime": 1513109323398, "trialdata": {"rt": -1, "stimulus": "<p id=\"stim\">5</p>", "key_press": -1, "trial_type": "single-stim", "trial_index": 231, "time_elapsed": 2344957, "internal_node_id": "0.0-172.0-5.0"}}, {"uniqueid": "MTK1101:3ZSANO2JCGEVEHKELI1998DS3QMFSU", "current_trial": 232, "dateTime": 1513109324401, "trialdata": {"rt": -1, "stimulus": "<p id=\"stim\">4</p>", "key_press": -1, "trial_type": "single-stim", "trial_index": 232, "time_elapsed": 2345960, "internal_node_id": "0.0-172.0-6.0"}}, {"uniqueid": "MTK1101:3ZSANO2JCGEVEHKELI1998DS3QMFSU", "current_trial": 233, "dateTime": 1513109325404, "trialdata": {"rt": -1, "stimulus": "<p id=\"stim\">3</p>", "key_press": -1, "trial_type": "single-stim", "trial_index": 233, "time_elapsed": 2346963, "internal_node_id": "0.0-172.0-7.0"}}, {"uniqueid": "MTK1101:3ZSANO2JCGEVEHKELI1998DS3QMFSU", "current_trial": 234, "dateTime": 1513109326407, "trialdata": {"rt": -1, "stimulus": "<p id=\"stim\">2</p>", "key_press": -1, "trial_type": "single-stim", "trial_index": 234, "time_elapsed": 2347966, "internal_node_id": "0.0-172.0-8.0"}}, {"uniqueid": "MTK1101:3ZSANO2JCGEVEHKELI1998DS3QMFSU", "current_trial": 235, "dateTime": 1513109327408, "trialdata": {"rt": -1, "stimulus": "<p id=\"stim\">1</p>", "key_press": -1, "trial_type": "single-stim", "trial_index": 235, "time_elapsed": 2348967, "internal_node_id": "0.0-172.0-9.0"}}, {"uniqueid": "MTK1101:3ZSANO2JCGEVEHKELI1998DS3QMFSU", "current_trial": 236, "dateTime": 1513109328911, "trialdata": {"rt": -1, "stimulus": "<p id=\"stim\">+</p>", "key_press": -1, "type": "FIXATION", "trial_type": "single-stim", "trial_index": 236, "time_elapsed": 2350470, "internal_node_id": "0.0-173.0-0.0"}}, {"uniqueid": "MTK1101:3ZSANO2JCGEVEHKELI1998DS3QMFSU", "current_trial": 237, "dateTime": 1513109329718, "trialdata": {"rt": -1, "stimulus": "<p id=\"stim\">COMET</p>", "key_press": -1, "type": "PRES_VIS", "word": "comet", "wordID": 352, "conditions": [24, 800, "v", 24000], "trial": 6, "serialpos": 0, "trial_type": "single-stim", "trial_index": 237, "time_elapsed": 2351277, "internal_node_id": "0.0-174.0"}}, {"uniqueid": "MTK1101:3ZSANO2JCGEVEHKELI1998DS3QMFSU", "current_trial": 238, "dateTime": 1513109331720, "trialdata": {"rt": -1, "stimulus": "<p id=\"stim\">BARLEY</p>", "key_press": -1, "type": "PRES_VIS", "word": "barley", "wordID": 87, "conditions": [24, 800, "v", 24000], "trial": 6, "serialpos": 1, "trial_type": "single-stim", "trial_index": 238, "time_elapsed": 2353279, "internal_node_id": "0.0-175.0"}}, {"uniqueid": "MTK1101:3ZSANO2JCGEVEHKELI1998DS3QMFSU", "current_trial": 239, "dateTime": 1513109333353, "trialdata": {"rt": -1, "stimulus": "<p id=\"stim\">LADY</p>", "key_press": -1, "type": "PRES_VIS", "word": "lady", "wordID": 793, "conditions": [24, 800, "v", 24000], "trial": 6, "serialpos": 2, "trial_type": "single-stim", "trial_index": 239, "time_elapsed": 2354912, "internal_node_id": "0.0-176.0"}}, {"uniqueid": "MTK1101:3ZSANO2JCGEVEHKELI1998DS3QMFSU", "current_trial": 240, "dateTime": 1513109335287, "trialdata": {"rt": -1, "stimulus": "<p id=\"stim\">SCISSORS</p>", "key_press": -1, "type": "PRES_VIS", "word": "scissors", "wordID": 1249, "conditions": [24, 800, "v", 24000], "trial": 6, "serialpos": 3, "trial_type": "single-stim", "trial_index": 240, "time_elapsed": 2356846, "internal_node_id": "0.0-177.0"}}, {"uniqueid": "MTK1101:3ZSANO2JCGEVEHKELI1998DS3QMFSU", "current_trial": 241, "dateTime": 1513109337243, "trialdata": {"rt": -1, "stimulus": "<p id=\"stim\">PLIERS</p>", "key_press": -1, "type": "PRES_VIS", "word": "pliers", "wordID": 1088, "conditions": [24, 800, "v", 24000], "trial": 6, "serialpos": 4, "trial_type": "single-stim", "trial_index": 241, "time_elapsed": 2358802, "internal_node_id": "0.0-178.0"}}, {"uniqueid": "MTK1101:3ZSANO2JCGEVEHKELI1998DS3QMFSU", "current_trial": 242, "dateTime": 1513109339160, "trialdata": {"rt": -1, "stimulus": "<p id=\"stim\">MATCH</p>", "key_press": -1, "type": "PRES_VIS", "word": "match", "wordID": 877, "conditions": [24, 800, "v", 24000], "trial": 6, "serialpos": 5, "trial_type": "single-stim", "trial_index": 242, "time_elapsed": 2360718, "internal_node_id": "0.0-179.0"}}, {"uniqueid": "MTK1101:3ZSANO2JCGEVEHKELI1998DS3QMFSU", "current_trial": 243, "dateTime": 1513109341119, "trialdata": {"rt": -1, "stimulus": "<p id=\"stim\">WOMAN</p>", "key_press": -1, "type": "PRES_VIS", "word": "woman", "wordID": 1619, "conditions": [24, 800, "v", 24000], "trial": 6, "serialpos": 6, "trial_type": "single-stim", "trial_index": 243, "time_elapsed": 2362678, "internal_node_id": "0.0-180.0"}}, {"uniqueid": "MTK1101:3ZSANO2JCGEVEHKELI1998DS3QMFSU", "current_trial": 244, "dateTime": 1513109343083, "trialdata": {"rt": -1, "stimulus": "<p id=\"stim\">FRECKLE</p>", "key_press": -1, "type": "PRES_VIS", "word": "freckle", "wordID": 601, "conditions": [24, 800, "v", 24000], "trial": 6, "serialpos": 7, "trial_type": "single-stim", "trial_index": 244, "time_elapsed": 2364642, "internal_node_id": "0.0-181.0"}}, {"uniqueid": "MTK1101:3ZSANO2JCGEVEHKELI1998DS3QMFSU", "current_trial": 245, "dateTime": 1513109344875, "trialdata": {"rt": -1, "stimulus": "<p id=\"stim\">QUARTER</p>", "key_press": -1, "type": "PRES_VIS", "word": "quarter", "wordID": 1147, "conditions": [24, 800, "v", 24000], "trial": 6, "serialpos": 8, "trial_type": "single-stim", "trial_index": 245, "time_elapsed": 2366434, "internal_node_id": "0.0-182.0"}}, {"uniqueid": "MTK1101:3ZSANO2JCGEVEHKELI1998DS3QMFSU", "current_trial": 246, "dateTime": 1513109346866, "trialdata": {"rt": -1, "stimulus": "<p id=\"stim\">PLUTO</p>", "key_press": -1, "type": "PRES_VIS", "word": "pluto", "wordID": 1091, "conditions": [24, 800, "v", 24000], "trial": 6, "serialpos": 9, "trial_type": "single-stim", "trial_index": 246, "time_elapsed": 2368425, "internal_node_id": "0.0-183.0"}}, {"uniqueid": "MTK1101:3ZSANO2JCGEVEHKELI1998DS3QMFSU", "current_trial": 247, "dateTime": 1513109348715, "trialdata": {"rt": -1, "stimulus": "<p id=\"stim\">JAPAN</p>", "key_press": -1, "type": "PRES_VIS", "word": "japan", "wordID": 748, "conditions": [24, 800, "v", 24000], "trial": 6, "serialpos": 10, "trial_type": "single-stim", "trial_index": 247, "time_elapsed": 2370274, "internal_node_id": "0.0-184.0"}}, {"uniqueid": "MTK1101:3ZSANO2JCGEVEHKELI1998DS3QMFSU", "current_trial": 248, "dateTime": 1513109350557, "trialdata": {"rt": -1, "stimulus": "<p id=\"stim\">MESSAGE</p>", "key_press": -1, "type": "PRES_VIS", "word": "message", "wordID": 887, "conditions": [24, 800, "v", 24000], "trial": 6, "serialpos": 11, "trial_type": "single-stim", "trial_index": 248, "time_elapsed": 2372116, "internal_node_id": "0.0-185.0"}}, {"uniqueid": "MTK1101:3ZSANO2JCGEVEHKELI1998DS3QMFSU", "current_trial": 249, "dateTime": 1513109352354, "trialdata": {"rt": -1, "stimulus": "<p id=\"stim\">POISON</p>", "key_press": -1, "type": "PRES_VIS", "word": "poison", "wordID": 1095, "conditions": [24, 800, "v", 24000], "trial": 6, "serialpos": 12, "trial_type": "single-stim", "trial_index": 249, "time_elapsed": 2373913, "internal_node_id": "0.0-186.0"}}, {"uniqueid": "MTK1101:3ZSANO2JCGEVEHKELI1998DS3QMFSU", "current_trial": 250, "dateTime": 1513109354111, "trialdata": {"rt": -1, "stimulus": "<p id=\"stim\">ACTOR</p>", "key_press": -1, "type": "PRES_VIS", "word": "actor", "wordID": 4, "conditions": [24, 800, "v", 24000], "trial": 6, "serialpos": 13, "trial_type": "single-stim", "trial_index": 250, "time_elapsed": 2375670, "internal_node_id": "0.0-187.0"}}, {"uniqueid": "MTK1101:3ZSANO2JCGEVEHKELI1998DS3QMFSU", "current_trial": 251, "dateTime": 1513109355793, "trialdata": {"rt": -1, "stimulus": "<p id=\"stim\">IGLOO</p>", "key_press": -1, "type": "PRES_VIS", "word": "igloo", "wordID": 733, "conditions": [24, 800, "v", 24000], "trial": 6, "serialpos": 14, "trial_type": "single-stim", "trial_index": 251, "time_elapsed": 2377352, "internal_node_id": "0.0-188.0"}}, {"uniqueid": "MTK1101:3ZSANO2JCGEVEHKELI1998DS3QMFSU", "current_trial": 252, "dateTime": 1513109357417, "trialdata": {"rt": -1, "stimulus": "<p id=\"stim\">TROMBONE</p>", "key_press": -1, "type": "PRES_VIS", "word": "trombone", "wordID": 1507, "conditions": [24, 800, "v", 24000], "trial": 6, "serialpos": 15, "trial_type": "single-stim", "trial_index": 252, "time_elapsed": 2378976, "internal_node_id": "0.0-189.0"}}, {"uniqueid": "MTK1101:3ZSANO2JCGEVEHKELI1998DS3QMFSU", "current_trial": 253, "dateTime": 1513109359230, "trialdata": {"rt": -1, "stimulus": "<p id=\"stim\">PIANO</p>", "key_press": -1, "type": "PRES_VIS", "word": "piano", "wordID": 1056, "conditions": [24, 800, "v", 24000], "trial": 6, "serialpos": 16, "trial_type": "single-stim", "trial_index": 253, "time_elapsed": 2380789, "internal_node_id": "0.0-190.0"}}, {"uniqueid": "MTK1101:3ZSANO2JCGEVEHKELI1998DS3QMFSU", "current_trial": 254, "dateTime": 1513109360931, "trialdata": {"rt": -1, "stimulus": "<p id=\"stim\">ACTRESS</p>", "key_press": -1, "type": "PRES_VIS", "word": "actress", "wordID": 5, "conditions": [24, 800, "v", 24000], "trial": 6, "serialpos": 17, "trial_type": "single-stim", "trial_index": 254, "time_elapsed": 2382490, "internal_node_id": "0.0-191.0"}}, {"uniqueid": "MTK1101:3ZSANO2JCGEVEHKELI1998DS3QMFSU", "current_trial": 255, "dateTime": 1513109362665, "trialdata": {"rt": -1, "stimulus": "<p id=\"stim\">SCALLOP</p>", "key_press": -1, "type": "PRES_VIS", "word": "scallop", "wordID": 1241, "conditions": [24, 800, "v", 24000], "trial": 6, "serialpos": 18, "trial_type": "single-stim", "trial_index": 255, "time_elapsed": 2384224, "internal_node_id": "0.0-192.0"}}, {"uniqueid": "MTK1101:3ZSANO2JCGEVEHKELI1998DS3QMFSU", "current_trial": 256, "dateTime": 1513109364535, "trialdata": {"rt": -1, "stimulus": "<p id=\"stim\">PENGUIN</p>", "key_press": -1, "type": "PRES_VIS", "word": "penguin", "wordID": 1043, "conditions": [24, 800, "v", 24000], "trial": 6, "serialpos": 19, "trial_type": "single-stim", "trial_index": 256, "time_elapsed": 2386094, "internal_node_id": "0.0-193.0"}}, {"uniqueid": "MTK1101:3ZSANO2JCGEVEHKELI1998DS3QMFSU", "current_trial": 257, "dateTime": 1513109366344, "trialdata": {"rt": -1, "stimulus": "<p id=\"stim\">BLOUSE</p>", "key_press": -1, "type": "PRES_VIS", "word": "blouse", "wordID": 138, "conditions": [24, 800, "v", 24000], "trial": 6, "serialpos": 20, "trial_type": "single-stim", "trial_index": 257, "time_elapsed": 2387903, "internal_node_id": "0.0-194.0"}}, {"uniqueid": "MTK1101:3ZSANO2JCGEVEHKELI1998DS3QMFSU", "current_trial": 258, "dateTime": 1513109368289, "trialdata": {"rt": -1, "stimulus": "<p id=\"stim\">SNACK</p>", "key_press": -1, "type": "PRES_VIS", "word": "snack", "wordID": 1330, "conditions": [24, 800, "v", 24000], "trial": 6, "serialpos": 21, "trial_type": "single-stim", "trial_index": 258, "time_elapsed": 2389848, "internal_node_id": "0.0-195.0"}}, {"uniqueid": "MTK1101:3ZSANO2JCGEVEHKELI1998DS3QMFSU", "current_trial": 259, "dateTime": 1513109369925, "trialdata": {"rt": -1, "stimulus": "<p id=\"stim\">HELMET</p>", "key_press": -1, "type": "PRES_VIS", "word": "helmet", "wordID": 701, "conditions": [24, 800, "v", 24000], "trial": 6, "serialpos": 22, "trial_type": "single-stim", "trial_index": 259, "time_elapsed": 2391484, "internal_node_id": "0.0-196.0"}}, {"uniqueid": "MTK1101:3ZSANO2JCGEVEHKELI1998DS3QMFSU", "current_trial": 260, "dateTime": 1513109371637, "trialdata": {"rt": -1, "stimulus": "<p id=\"stim\">SHORTCAKE</p>", "key_press": -1, "type": "PRES_VIS", "word": "shortcake", "wordID": 1291, "conditions": [24, 800, "v", 24000], "trial": 6, "serialpos": 23, "trial_type": "single-stim", "trial_index": 260, "time_elapsed": 2393196, "internal_node_id": "0.0-197.0"}}, {"uniqueid": "MTK1101:3ZSANO2JCGEVEHKELI1998DS3QMFSU", "current_trial": 261, "dateTime": 1513109373874, "trialdata": {"rt": -1, "stimulus": "", "key_press": -1, "type": "PRE_RECALL_DELAY", "trial_type": "single-stim", "trial_index": 261, "time_elapsed": 2395433, "internal_node_id": "0.0-198.0-0.0"}}, {"uniqueid": "MTK1101:3ZSANO2JCGEVEHKELI1998DS3QMFSU", "current_trial": 262, "dateTime": 1513109374382, "trialdata": {"rt": -1000, "stimulus": "/static/audio/400Hz.wav", "key_press": -1, "type": "PRE_RECALL_ALERT", "trial_type": "single-audio", "trial_index": 262, "time_elapsed": 2395941, "internal_node_id": "0.0-199.0"}}, {"uniqueid": "MTK1101:3ZSANO2JCGEVEHKELI1998DS3QMFSU", "current_trial": 263, "dateTime": 1513109434397, "trialdata": {"rt": [1484, 3041, 11454, 17681, 24923, 32136, 44329, 50665], "recwords": ["helmet", "shortcake", "comet", "sparrow", "venus", "survey", "orange", "tower"], "type": "FREE_RECALL", "conditions": [24, 800, "v", 24000], "trial": 6, "trial_type": "free-recall", "trial_index": 263, "time_elapsed": 2455948, "internal_node_id": "0.0-200.0-0.0"}}, {"uniqueid": "MTK1101:3ZSANO2JCGEVEHKELI1998DS3QMFSU", "current_trial": 264, "dateTime": 1513109480278, "trialdata": {"rt": 43874, "key_press": 32, "type": "INSTRUCTIONS", "trial_type": "text", "trial_index": 264, "time_elapsed": 2501837, "internal_node_id": "0.0-201.0"}}, {"uniqueid": "MTK1101:3ZSANO2JCGEVEHKELI1998DS3QMFSU", "current_trial": 265, "dateTime": 1513109506284, "trialdata": {"rt": [2333, 4923, 8552, 11520, 13821, 16099, 18159, 20601, 22362], "responses": ["10", "17", "25", "17", "15", "10", "15", "19", "11"], "num1": [1, 4, 8, 9, 7, 2, 1, 3, 4, 3], "num2": [1, 5, 8, 6, 6, 5, 8, 9, 1, 8], "num3": [8, 8, 9, 2, 2, 3, 6, 7, 6, 6], "type": "DISTRACTOR", "conditions": [12, 800, "a", 24000], "trial": 7, "trial_type": "math-distractor", "trial_index": 265, "time_elapsed": 2527843, "internal_node_id": "0.0-202.0"}}, {"uniqueid": "MTK1101:3ZSANO2JCGEVEHKELI1998DS3QMFSU", "current_trial": 266, "dateTime": 1513109509290, "trialdata": {"rt": -1, "stimulus": "<p id=\"stim\">10</p>", "key_press": -1, "trial_type": "single-stim", "trial_index": 266, "time_elapsed": 2530849, "internal_node_id": "0.0-203.0-0.0"}}, {"uniqueid": "MTK1101:3ZSANO2JCGEVEHKELI1998DS3QMFSU", "current_trial": 267, "dateTime": 1513109510292, "trialdata": {"rt": -1, "stimulus": "<p id=\"stim\">9</p>", "key_press": -1, "trial_type": "single-stim", "trial_index": 267, "time_elapsed": 2531851, "internal_node_id": "0.0-203.0-1.0"}}, {"uniqueid": "MTK1101:3ZSANO2JCGEVEHKELI1998DS3QMFSU", "current_trial": 268, "dateTime": 1513109511295, "trialdata": {"rt":