{"assignmentId": "35K3O9HUACKU4YFWKNH4KR9D51REFD", "workerId": "MTK1647", "questiondata": {"origin": "United States", "strat-rehearsal": "46", "marital": "Single", "education": "Some college", "ethnicity": "Not Hispanic", "color_depth": 24, "distracted": "No", "wrote-notes": "Yes", "strat-other": "", "screen_width": 1366, "avail_screen_width": 1366, "avail_screen_height": 738, "strat-image": "46", "language": "english", "gender": "Female", "age": "32", "gender_other": "", "race": ["White"], "strat-categorize": "85", "pixel_depth": 24, "strat-spatial": "4", "strat-story": "46", "race_other": "", "screen_height": 768}, "bonus": 0, "hitId": "3Z33IC0JC0T0IFCBMP1KLFF4KHL9VH", "counterbalance": 2986, "useragent": "Mozilla/5.0 (Windows NT 6.1; Win64; x64) AppleWebKit/537.36 (KHTML, like Gecko) Chrome/63.0.3239.132 Safari/537.36", "eventdata": [{"eventtype": "initialized", "interval": 0, "value": null, "timestamp": 1516121695630}, {"eventtype": "window_resize", "interval": 0, "value": [1366, 722], "timestamp": 1516121695630}, {"eventtype": "focus", "interval": 394258, "value": "off", "timestamp": 1516122089888}, {"eventtype": "focus", "interval": 10692, "value": "on", "timestamp": 1516122100580}, {"eventtype": "focus", "interval": 1181324, "value": "off", "timestamp": 1516123281904}, {"eventtype": "focus", "interval": 8623, "value": "on", "timestamp": 1516123290527}, {"eventtype": "focus", "interval": 708320, "value": "off", "timestamp": 1516123998847}, {"eventtype": "focus", "interval": 6079, "value": "on", "timestamp": 1516124004926}], "data": [{"current_trial": 0, "trialdata": {"rt": 2020, "trial_type": "text", "internal_node_id": "0.0-0.0", "time_elapsed": 2024, "key_press": 32, "type": "INSTRUCTIONS", "trial_index": 0}, "uniqueid": "MTK1647:35K3O9HUACKU4YFWKNH4KR9D51REFD", "dateTime": 1516121720579}, {"current_trial": 1, "trialdata": {"rt": 24564, "trial_type": "text", "internal_node_id": "0.0-1.0", "time_elapsed": 26594, "key_press": 32, "type": "INSTRUCTIONS", "trial_index": 1}, "uniqueid": "MTK1647:35K3O9HUACKU4YFWKNH4KR9D51REFD", "dateTime": 1516121745147}, {"current_trial": 2, "trialdata": {"rt": [9179], "trial_type": "audio-test", "responses": ["ocean"], "internal_node_id": "0.0-2.0", "time_elapsed": 35799, "type": "AUDIO_TEST", "trial_index": 2}, "uniqueid": "MTK1647:35K3O9HUACKU4YFWKNH4KR9D51REFD", "dateTime": 1516121754352}, {"current_trial": 3, "trialdata": {"rt": [6475], "trial_type": "audio-test", "responses": ["crystal"], "internal_node_id": "0.0-3.0", "time_elapsed": 42285, "type": "AUDIO_TEST", "trial_index": 3}, "uniqueid": "MTK1647:35K3O9HUACKU4YFWKNH4KR9D51REFD", "dateTime": 1516121760838}, {"current_trial": 4, "trialdata": {"rt": [7499], "trial_type": "audio-test", "responses": ["spice"], "internal_node_id": "0.0-4.0", "time_elapsed": 49796, "type": "AUDIO_TEST", "trial_index": 4}, "uniqueid": "MTK1647:35K3O9HUACKU4YFWKNH4KR9D51REFD", "dateTime": 1516121768349}, {"current_trial": 5, "trialdata": {"rt": 22235, "trial_type": "survey-text", "responses": "{\"Q0\":\"12:30\",\"Q1\":\"9:00\",\"Q2\":\"5\"}", "internal_node_id": "0.0-5.0", "time_elapsed": 72788, "type": "SLEEP_SURVEY", "trial_index": 5}, "uniqueid": "MTK1647:35K3O9HUACKU4YFWKNH4KR9D51REFD", "dateTime": 1516121791341}, {"current_trial": 6, "trialdata": {"rt": 130545, "trial_type": "text", "internal_node_id": "0.0-6.0", "time_elapsed": 204336, "key_press": 32, "type": "INSTRUCTIONS", "trial_index": 6}, "uniqueid": "MTK1647:35K3O9HUACKU4YFWKNH4KR9D51REFD", "dateTime": 1516121922890}, {"current_trial": 7, "trialdata": {"rt": 17327, "trial_type": "text", "internal_node_id": "0.0-7.0", "time_elapsed": 222167, "key_press": 32, "type": "INSTRUCTIONS", "trial_index": 7}, "uniqueid": "MTK1647:35K3O9HUACKU4YFWKNH4KR9D51REFD", "dateTime": 1516121940720}, {"current_trial": 8, "trialdata": {"rt": 86915, "trial_type": "text", "internal_node_id": "0.0-8.0", "time_elapsed": 309585, "key_press": 32, "type": "INSTRUCTIONS", "trial_index": 8}, "uniqueid": "MTK1647:35K3O9HUACKU4YFWKNH4KR9D51REFD", "dateTime": 1516122028139}, {"current_trial": 9, "trialdata": {"rt": [5081, 8248, 11504, 15007], "trial_type": "math-distractor", "key_times": [4358, 4436, 5081, 7854, 7932, 8248, 11137, 11288, 11504, 14265, 14627, 15007], "responses": ["21", "10", "11", "16"], "num2": [9, 3, 3, 9, 6], "num3": [3, 3, 3, 1, 8], "conditions": [18, 1200, "a", 18000], "internal_node_id": "0.0-9.0", "key_presses": [50, 49, 13, 49, 48, 13, 49, 49, 13, 49, 54, 13], "trial": 0, "time_elapsed": 328599, "type": "DISTRACTOR", "trial_index": 9, "num1": [9, 4, 5, 6, 2]}, "uniqueid": "MTK1647:35K3O9HUACKU4YFWKNH4KR9D51REFD", "dateTime": 1516122047153}, {"current_trial": 10, "trialdata": {"rt": -1, "trial_type": "single-stim", "stimulus": "<p id=\"stim\">10</p>", "internal_node_id": "0.0-10.0-0.0", "time_elapsed": 331605, "key_press": -1, "trial_index": 10}, "uniqueid": "MTK1647:35K3O9HUACKU4YFWKNH4KR9D51REFD", "dateTime": 1516122050158}, {"current_trial": 11, "trialdata": {"rt": -1, "trial_type": "single-stim", "stimulus": "<p id=\"stim\">9</p>", "internal_node_id": "0.0-10.0-1.0", "time_elapsed": 332608, "key_press": -1, "trial_index": 11}, "uniqueid": "MTK1647:35K3O9HUACKU4YFWKNH4KR9D51REFD", "dateTime": 1516122051162}, {"current_trial": 12, "trialdata": {"rt": -1, "trial_type": "single-stim", "stimulus": "<p id=\"stim\">8</p>", "internal_node_id": "0.0-10.0-2.0", "time_elapsed": 333612, "key_press": -1, "trial_index": 12}, "uniqueid": "MTK1647:35K3O9HUACKU4YFWKNH4KR9D51REFD", "dateTime": 1516122052166}, {"current_trial": 13, "trialdata": {"rt": -1, "trial_type": "single-stim", "stimulus": "<p id=\"stim\">7</p>", "internal_node_id": "0.0-10.0-3.0", "time_elapsed": 334614, "key_press": -1, "trial_index": 13}, "uniqueid": "MTK1647:35K3O9HUACKU4YFWKNH4KR9D51REFD", "dateTime": 1516122053168}, {"current_trial": 14, "trialdata": {"rt": -1, "trial_type": "single-stim", "stimulus": "<p id=\"stim\">6</p>", "internal_node_id": "0.0-10.0-4.0", "time_elapsed": 335616, "key_press": -1, "trial_index": 14}, "uniqueid": "MTK1647:35K3O9HUACKU4YFWKNH4KR9D51REFD", "dateTime": 1516122054170}, {"current_trial": 15, "trialdata": {"rt": -1, "trial_type": "single-stim", "stimulus": "<p id=\"stim\">5</p>", "internal_node_id": "0.0-10.0-5.0", "time_elapsed": 336619, "key_press": -1, "trial_index": 15}, "uniqueid": "MTK1647:35K3O9HUACKU4YFWKNH4KR9D51REFD", "dateTime": 1516122055172}, {"current_trial": 16, "trialdata": {"rt": -1, "trial_type": "single-stim", "stimulus": "<p id=\"stim\">4</p>", "internal_node_id": "0.0-10.0-6.0", "time_elapsed": 337620, "key_press": -1, "trial_index": 16}, "uniqueid": "MTK1647:35K3O9HUACKU4YFWKNH4KR9D51REFD", "dateTime": 1516122056174}, {"current_trial": 17, "trialdata": {"rt": -1, "trial_type": "single-stim", "stimulus": "<p id=\"stim\">3</p>", "internal_node_id": "0.0-10.0-7.0", "time_elapsed": 338624, "key_press": -1, "trial_index": 17}, "uniqueid": "MTK1647:35K3O9HUACKU4YFWKNH4KR9D51REFD", "dateTime": 1516122057178}, {"current_trial": 18, "trialdata": {"rt": -1, "trial_type": "single-stim", "stimulus": "<p id=\"stim\">2</p>", "internal_node_id": "0.0-10.0-8.0", "time_elapsed": 339626, "key_press": -1, "trial_index": 18}, "uniqueid": "MTK1647:35K3O9HUACKU4YFWKNH4KR9D51REFD", "dateTime": 1516122058180}, {"current_trial": 19, "trialdata": {"rt": -1, "trial_type": "single-stim", "stimulus": "<p id=\"stim\">1</p>", "internal_node_id": "0.0-10.0-9.0", "time_elapsed": 340628, "key_press": -1, "trial_index": 19}, "uniqueid": "MTK1647:35K3O9HUACKU4YFWKNH4KR9D51REFD", "dateTime": 1516122059182}, {"current_trial": 20, "trialdata": {"rt": -1, "trial_type": "single-stim", "stimulus": "<p id=\"stim\">+</p>", "internal_node_id": "0.0-11.0-0.0", "time_elapsed": 342131, "key_press": -1, "type": "FIXATION", "trial_index": 20}, "uniqueid": "MTK1647:35K3O9HUACKU4YFWKNH4KR9D51REFD", "dateTime": 1516122060684}, {"current_trial": 21, "trialdata": {"rt": -1000, "trial_type": "single-audio", "word": "saddle", "stimulus": "/static/audio/wordpool/SADDLE.wav", "conditions": [18, 1200, "a", 18000], "internal_node_id": "0.0-12.0", "trial": 0, "time_elapsed": 344257, "serialpos": 0, "key_press": -1, "wordID": 1220, "type": "PRES_AUD", "trial_index": 21}, "uniqueid": "MTK1647:35K3O9HUACKU4YFWKNH4KR9D51REFD", "dateTime": 1516122062810}, {"current_trial": 22, "trialdata": {"rt": -1000, "trial_type": "single-audio", "word": "pimple", "stimulus": "/static/audio/wordpool/PIMPLE.wav", "conditions": [18, 1200, "a", 18000], "internal_node_id": "0.0-13.0", "trial": 0, "time_elapsed": 346389, "serialpos": 1, "key_press": -1, "wordID": 1070, "type": "PRES_AUD", "trial_index": 22}, "uniqueid": "MTK1647:35K3O9HUACKU4YFWKNH4KR9D51REFD", "dateTime": 1516122064943}, {"current_trial": 23, "trialdata": {"rt": -1000, "trial_type": "single-audio", "word": "poet", "stimulus": "/static/audio/wordpool/POET.wav", "conditions": [18, 1200, "a", 18000], "internal_node_id": "0.0-14.0", "trial": 0, "time_elapsed": 348491, "serialpos": 2, "key_press": -1, "wordID": 1094, "type": "PRES_AUD", "trial_index": 23}, "uniqueid": "MTK1647:35K3O9HUACKU4YFWKNH4KR9D51REFD", "dateTime": 1516122067044}, {"current_trial": 24, "trialdata": {"rt": -1000, "trial_type": "single-audio", "word": "paper", "stimulus": "/static/audio/wordpool/PAPER.wav", "conditions": [18, 1200, "a", 18000], "internal_node_id": "0.0-15.0", "trial": 0, "time_elapsed": 350569, "serialpos": 3, "key_press": -1, "wordID": 1010, "type": "PRES_AUD", "trial_index": 24}, "uniqueid": "MTK1647:35K3O9HUACKU4YFWKNH4KR9D51REFD", "dateTime": 1516122069123}, {"current_trial": 25, "trialdata": {"rt": -1000, "trial_type": "single-audio", "word": "champagne", "stimulus": "/static/audio/wordpool/CHAMPAGNE.wav", "conditions": [18, 1200, "a", 18000], "internal_node_id": "0.0-16.0", "trial": 0, "time_elapsed": 352853, "serialpos": 4, "key_press": -1, "wordID": 277, "type": "PRES_AUD", "trial_index": 25}, "uniqueid": "MTK1647:35K3O9HUACKU4YFWKNH4KR9D51REFD", "dateTime": 1516122071406}, {"current_trial": 26, "trialdata": {"rt": -1000, "trial_type": "single-audio", "word": "leopard", "stimulus": "/static/audio/wordpool/LEOPARD.wav", "conditions": [18, 1200, "a", 18000], "internal_node_id": "0.0-17.0", "trial": 0, "time_elapsed": 355186, "serialpos": 5, "key_press": -1, "wordID": 811, "type": "PRES_AUD", "trial_index": 26}, "uniqueid": "MTK1647:35K3O9HUACKU4YFWKNH4KR9D51REFD", "dateTime": 1516122073739}, {"current_trial": 27, "trialdata": {"rt": -1000, "trial_type": "single-audio", "word": "chest", "stimulus": "/static/audio/wordpool/CHEST.wav", "conditions": [18, 1200, "a", 18000], "internal_node_id": "0.0-18.0", "trial": 0, "time_elapsed": 357223, "serialpos": 6, "key_press": -1, "wordID": 294, "type": "PRES_AUD", "trial_index": 27}, "uniqueid": "MTK1647:35K3O9HUACKU4YFWKNH4KR9D51REFD", "dateTime": 1516122075776}, {"current_trial": 28, "trialdata": {"rt": -1000, "trial_type": "single-audio", "word": "drug", "stimulus": "/static/audio/wordpool/DRUG.wav", "conditions": [18, 1200, "a", 18000], "internal_node_id": "0.0-19.0", "trial": 0, "time_elapsed": 359246, "serialpos": 7, "key_press": -1, "wordID": 500, "type": "PRES_AUD", "trial_index": 28}, "uniqueid": "MTK1647:35K3O9HUACKU4YFWKNH4KR9D51REFD", "dateTime": 1516122077799}, {"current_trial": 29, "trialdata": {"rt": -1000, "trial_type": "single-audio", "word": "convict", "stimulus": "/static/audio/wordpool/CONVICT.wav", "conditions": [18, 1200, "a", 18000], "internal_node_id": "0.0-20.0", "trial": 0, "time_elapsed": 361283, "serialpos": 8, "key_press": -1, "wordID": 370, "type": "PRES_AUD", "trial_index": 29}, "uniqueid": "MTK1647:35K3O9HUACKU4YFWKNH4KR9D51REFD", "dateTime": 1516122079836}, {"current_trial": 30, "trialdata": {"rt": -1000, "trial_type": "single-audio", "word": "fireplace", "stimulus": "/static/audio/wordpool/FIREPLACE.wav", "conditions": [18, 1200, "a", 18000], "internal_node_id": "0.0-21.0", "trial": 0, "time_elapsed": 363338, "serialpos": 9, "key_press": -1, "wordID": 569, "type": "PRES_AUD", "trial_index": 30}, "uniqueid": "MTK1647:35K3O9HUACKU4YFWKNH4KR9D51REFD", "dateTime": 1516122081891}, {"current_trial": 31, "trialdata": {"rt": -1000, "trial_type": "single-audio", "word": "girl", "stimulus": "/static/audio/wordpool/GIRL.wav", "conditions": [18, 1200, "a", 18000], "internal_node_id": "0.0-22.0", "trial": 0, "time_elapsed": 365601, "serialpos": 10, "key_press": -1, "wordID": 636, "type": "PRES_AUD", "trial_index": 31}, "uniqueid": "MTK1647:35K3O9HUACKU4YFWKNH4KR9D51REFD", "dateTime": 1516122084154}, {"current_trial": 32, "trialdata": {"rt": -1000, "trial_type": "single-audio", "word": "silk", "stimulus": "/static/audio/wordpool/SILK.wav", "conditions": [18, 1200, "a", 18000], "internal_node_id": "0.0-23.0", "trial": 0, "time_elapsed": 367965, "serialpos": 11, "key_press": -1, "wordID": 1306, "type": "PRES_AUD", "trial_index": 32}, "uniqueid": "MTK1647:35K3O9HUACKU4YFWKNH4KR9D51REFD", "dateTime": 1516122086518}, {"current_trial": 33, "trialdata": {"rt": -1000, "trial_type": "single-audio", "word": "popcorn", "stimulus": "/static/audio/wordpool/POPCORN.wav", "conditions": [18, 1200, "a", 18000], "internal_node_id": "0.0-24.0", "trial": 0, "time_elapsed": 370070, "serialpos": 12, "key_press": -1, "wordID": 1103, "type": "PRES_AUD", "trial_index": 33}, "uniqueid": "MTK1647:35K3O9HUACKU4YFWKNH4KR9D51REFD", "dateTime": 1516122088623}, {"current_trial": 34, "trialdata": {"rt": -1000, "trial_type": "single-audio", "word": "star", "stimulus": "/static/audio/wordpool/STAR.wav", "conditions": [18, 1200, "a", 18000], "internal_node_id": "0.0-25.0", "trial": 0, "time_elapsed": 372329, "serialpos": 13, "key_press": -1, "wordID": 1372, "type": "PRES_AUD", "trial_index": 34}, "uniqueid": "MTK1647:35K3O9HUACKU4YFWKNH4KR9D51REFD", "dateTime": 1516122090884}, {"current_trial": 35, "trialdata": {"rt": -1000, "trial_type": "single-audio", "word": "preacher", "stimulus": "/static/audio/wordpool/PREACHER.wav", "conditions": [18, 1200, "a", 18000], "internal_node_id": "0.0-26.0", "trial": 0, "time_elapsed": 374524, "serialpos": 14, "key_press": -1, "wordID": 1118, "type": "PRES_AUD", "trial_index": 35}, "uniqueid": "MTK1647:35K3O9HUACKU4YFWKNH4KR9D51REFD", "dateTime": 1516122093077}, {"current_trial": 36, "trialdata": {"rt": -1000, "trial_type": "single-audio", "word": "marrow", "stimulus": "/static/audio/wordpool/MARROW.wav", "conditions": [18, 1200, "a", 18000], "internal_node_id": "0.0-27.0", "trial": 0, "time_elapsed": 376838, "serialpos": 15, "key_press": -1, "wordID": 871, "type": "PRES_AUD", "trial_index": 36}, "uniqueid": "MTK1647:35K3O9HUACKU4YFWKNH4KR9D51REFD", "dateTime": 1516122095392}, {"current_trial": 37, "trialdata": {"rt": -1000, "trial_type": "single-audio", "word": "napkin", "stimulus": "/static/audio/wordpool/NAPKIN.wav", "conditions": [18, 1200, "a", 18000], "internal_node_id": "0.0-28.0", "trial": 0, "time_elapsed": 379111, "serialpos": 16, "key_press": -1, "wordID": 936, "type": "PRES_AUD", "trial_index": 37}, "uniqueid": "MTK1647:35K3O9HUACKU4YFWKNH4KR9D51REFD", "dateTime": 1516122097664}, {"current_trial": 38, "trialdata": {"rt": -1000, "trial_type": "single-audio", "word": "shelter", "stimulus": "/static/audio/wordpool/SHELTER.wav", "conditions": [18, 1200, "a", 18000], "internal_node_id": "0.0-29.0", "trial": 0, "time_elapsed": 381289, "serialpos": 17, "key_press": -1, "wordID": 1281, "type": "PRES_AUD", "trial_index": 38}, "uniqueid": "MTK1647:35K3O9HUACKU4YFWKNH4KR9D51REFD", "dateTime": 1516122099842}, {"current_trial": 39, "trialdata": {"rt": -1, "trial_type": "single-stim", "stimulus": "", "internal_node_id": "0.0-30.0-0.0", "time_elapsed": 382500, "key_press": -1, "type": "PRE_RECALL_DELAY", "trial_index": 39}, "uniqueid": "MTK1647:35K3O9HUACKU4YFWKNH4KR9D51REFD", "dateTime": 1516122101053}, {"current_trial": 40, "trialdata": {"rt": -1000, "trial_type": "single-audio", "stimulus": "/static/audio/400Hz.wav", "internal_node_id": "0.0-31.0", "time_elapsed": 383002, "key_press": -1, "type": "PRE_RECALL_ALERT", "trial_index": 40}, "uniqueid": "MTK1647:35K3O9HUACKU4YFWKNH4KR9D51REFD", "dateTime": 1516122101555}, {"current_trial": 41, "trialdata": {"rt": [6666, 10868, 13829, 19985, 32308, 45359], "recwords": ["napkin", "preacher", "chest", "shelter", "", "fireplace"], "key_times": [2511, 2851, 3136, 3689, 3953, 3990, 6666, 8425, 8722, 8847, 9078, 9732, 9932, 10050, 10112, 10868, 11348, 11454, 11621, 11837, 12119, 12524, 12669, 12839, 13476, 13829, 15099, 15434, 16008, 16203, 16341, 16642, 16905, 16972, 17448, 17584, 17717, 17924, 18650, 18874, 18937, 19985, 23666, 23861, 24041, 24219, 32308, 39000, 39260, 39386, 39507, 39823, 39933, 40864, 40943, 41032, 41514, 41688, 41832, 42254, 42406, 43032, 43160, 44297, 44606, 44685, 45359], "trial_type": "free-recall", "conditions": [18, 1200, "a", 18000], "internal_node_id": "0.0-32.0-0.0", "key_presses": [78, 65, 80, 75, 73, 78, 188, 80, 82, 69, 65, 67, 72, 69, 82, 188, 67, 72, 69, 65, 83, 8, 8, 83, 84, 188, 83, 72, 69, 76, 84, 72, 69, 82, 8, 8, 8, 8, 84, 69, 82, 188, 38, 38, 38, 38, 13, 70, 73, 82, 69, 80, 76, 67, 67, 69, 8, 8, 8, 67, 69, 8, 8, 65, 67, 69, 188], "trial": 0, "time_elapsed": 443011, "type": "FREE_RECALL", "trial_index": 41}, "uniqueid": "MTK1647:35K3O9HUACKU4YFWKNH4KR9D51REFD", "dateTime": 1516122161569}, {"current_trial": 42, "trialdata": {"rt": 12115, "trial_type": "text", "internal_node_id": "0.0-33.0", "time_elapsed": 457133, "key_press": 32, "type": "INSTRUCTIONS", "trial_index": 42}, "uniqueid": "MTK1647:35K3O9HUACKU4YFWKNH4KR9D51REFD", "dateTime": 1516122175686}, {"current_trial": 43, "trialdata": {"rt": [4516, 16221], "trial_type": "math-distractor", "key_times": [3880, 4516, 15542, 15646, 16221], "responses": ["8", "17"], "num2": [2, 8, 7], "num3": [2, 6, 2], "conditions": [18, 1200, "a", 18000], "internal_node_id": "0.0-34.0", "key_presses": [56, 13, 49, 55, 13], "trial": 1, "time_elapsed": 477140, "type": "DISTRACTOR", "trial_index": 43, "num1": [4, 3, 1]}, "uniqueid": "MTK1647:35K3O9HUACKU4YFWKNH4KR9D51REFD", "dateTime": 1516122195693}, {"current_trial": 44, "trialdata": {"rt": -1, "trial_type": "single-stim", "stimulus": "<p id=\"stim\">10</p>", "internal_node_id": "0.0-35.0-0.0", "time_elapsed": 480143, "key_press": -1, "trial_index": 44}, "uniqueid": "MTK1647:35K3O9HUACKU4YFWKNH4KR9D51REFD", "dateTime": 1516122198696}, {"current_trial": 45, "trialdata": {"rt": -1, "trial_type": "single-stim", "stimulus": "<p id=\"stim\">9</p>", "internal_node_id": "0.0-35.0-1.0", "time_elapsed": 481145, "key_press": -1, "trial_index": 45}, "uniqueid": "MTK1647:35K3O9HUACKU4YFWKNH4KR9D51REFD", "dateTime": 1516122199699}, {"current_trial": 46, "trialdata": {"rt": -1, "trial_type": "single-stim", "stimulus": "<p id=\"stim\">8</p>", "internal_node_id": "0.0-35.0-2.0", "time_elapsed": 482147, "key_press": -1, "trial_index": 46}, "uniqueid": "MTK1647:35K3O9HUACKU4YFWKNH4KR9D51REFD", "dateTime": 1516122200701}, {"current_trial": 47, "trialdata": {"rt": -1, "trial_type": "single-stim", "stimulus": "<p id=\"stim\">7</p>", "internal_node_id": "0.0-35.0-3.0", "time_elapsed": 483149, "key_press": -1, "trial_index": 47}, "uniqueid": "MTK1647:35K3O9HUACKU4YFWKNH4KR9D51REFD", "dateTime": 1516122201703}, {"current_trial": 48, "trialdata": {"rt": -1, "trial_type": "single-stim", "stimulus": "<p id=\"stim\">6</p>", "internal_node_id": "0.0-35.0-4.0", "time_elapsed": 484152, "key_press": -1, "trial_index": 48}, "uniqueid": "MTK1647:35K3O9HUACKU4YFWKNH4KR9D51REFD", "dateTime": 1516122202705}, {"current_trial": 49, "trialdata": {"rt": -1, "trial_type": "single-stim", "stimulus": "<p id=\"stim\">5</p>", "internal_node_id": "0.0-35.0-5.0", "time_elapsed": 485153, "key_press": -1, "trial_index": 49}, "uniqueid": "MTK1647:35K3O9HUACKU4YFWKNH4KR9D51REFD", "dateTime": 1516122203707}, {"current_trial": 50, "trialdata": {"rt": -1, "trial_type": "single-stim", "stimulus": "<p id=\"stim\">4</p>", "internal_node_id": "0.0-35.0-6.0", "time_elapsed": 486155, "key_press": -1, "trial_index": 50}, "uniqueid": "MTK1647:35K3O9HUACKU4YFWKNH4KR9D51REFD", "dateTime": 1516122204709}, {"current_trial": 51, "trialdata": {"rt": -1, "trial_type": "single-stim", "stimulus": "<p id=\"stim\">3</p>", "internal_node_id": "0.0-35.0-7.0", "time_elapsed": 487158, "key_press": -1, "trial_index": 51}, "uniqueid": "MTK1647:35K3O9HUACKU4YFWKNH4KR9D51REFD", "dateTime": 1516122205711}, {"current_trial": 52, "trialdata": {"rt": -1, "trial_type": "single-stim", "stimulus": "<p id=\"stim\">2</p>", "internal_node_id": "0.0-35.0-8.0", "time_elapsed": 488161, "key_press": -1, "trial_index": 52}, "uniqueid": "MTK1647:35K3O9HUACKU4YFWKNH4KR9D51REFD", "dateTime": 1516122206714}, {"current_trial": 53, "trialdata": {"rt": -1, "trial_type": "single-stim", "stimulus": "<p id=\"stim\">1</p>", "internal_node_id": "0.0-35.0-9.0", "time_elapsed": 489162, "key_press": -1, "trial_index": 53}, "uniqueid": "MTK1647:35K3O9HUACKU4YFWKNH4KR9D51REFD", "dateTime": 1516122207715}, {"current_trial": 54, "trialdata": {"rt": -1, "trial_type": "single-stim", "stimulus": "<p id=\"stim\">+</p>", "internal_node_id": "0.0-36.0-0.0", "time_elapsed": 490665, "key_press": -1, "type": "FIXATION", "trial_index": 54}, "uniqueid": "MTK1647:35K3O9HUACKU4YFWKNH4KR9D51REFD", "dateTime": 1516122209218}, {"current_trial": 55, "trialdata": {"rt": -1000, "trial_type": "single-audio", "word": "cobra", "stimulus": "/static/audio/wordpool/COBRA.wav", "conditions": [18, 1200, "a", 18000], "internal_node_id": "0.0-37.0", "trial": 1, "time_elapsed": 492755, "serialpos": 0, "key_press": -1, "wordID": 335, "type": "PRES_AUD", "trial_index": 55}, "uniqueid": "MTK1647:35K3O9HUACKU4YFWKNH4KR9D51REFD", "dateTime": 1516122211308}, {"current_trial": 56, "trialdata": {"rt": -1000, "trial_type": "single-audio", "word": "rust", "stimulus": "/static/audio/wordpool/RUST.wav", "conditions": [18, 1200, "a", 18000], "internal_node_id": "0.0-38.0", "trial": 1, "time_elapsed": 494972, "serialpos": 1, "key_press": -1, "wordID": 1218, "type": "PRES_AUD", "trial_index": 56}, "uniqueid": "MTK1647:35K3O9HUACKU4YFWKNH4KR9D51REFD", "dateTime": 1516122213525}, {"current_trial": 57, "trialdata": {"rt": -1000, "trial_type": "single-audio", "word": "stream", "stimulus": "/static/audio/wordpool/STREAM.wav", "conditions": [18, 1200, "a", 18000], "internal_node_id": "0.0-39.0", "trial": 1, "time_elapsed": 497204, "serialpos": 2, "key_press": -1, "wordID": 1391, "type": "PRES_AUD", "trial_index": 57}, "uniqueid": "MTK1647:35K3O9HUACKU4YFWKNH4KR9D51REFD", "dateTime": 1516122215757}, {"current_trial": 58, "trialdata": {"rt": -1000, "trial_type": "single-audio", "word": "tractor", "stimulus": "/static/audio/wordpool/TRACTOR.wav", "conditions": [18, 1200, "a", 18000], "internal_node_id": "0.0-40.0", "trial": 1, "time_elapsed": 499573, "serialpos": 3, "key_press": -1, "wordID": 1492, "type": "PRES_AUD", "trial_index": 58}, "uniqueid": "MTK1647:35K3O9HUACKU4YFWKNH4KR9D51REFD", "dateTime": 1516122218126}, {"current_trial": 59, "trialdata": {"rt": -1000, "trial_type": "single-audio", "word": "basement", "stimulus": "/static/audio/wordpool/BASEMENT.wav", "conditions": [18, 1200, "a", 18000], "internal_node_id": "0.0-41.0", "trial": 1, "time_elapsed": 501947, "serialpos": 4, "key_press": -1, "wordID": 93, "type": "PRES_AUD", "trial_index": 59}, "uniqueid": "MTK1647:35K3O9HUACKU4YFWKNH4KR9D51REFD", "dateTime": 1516122220501}, {"current_trial": 60, "trialdata": {"rt": -1000, "trial_type": "single-audio", "word": "gavel", "stimulus": "/static/audio/wordpool/GAVEL.wav", "conditions": [18, 1200, "a", 18000], "internal_node_id": "0.0-42.0", "trial": 1, "time_elapsed": 504025, "serialpos": 5, "key_press": -1, "wordID": 626, "type": "PRES_AUD", "trial_index": 60}, "uniqueid": "MTK1647:35K3O9HUACKU4YFWKNH4KR9D51REFD", "dateTime": 1516122222579}, {"current_trial": 61, "trialdata": {"rt": -1000, "trial_type": "single-audio", "word": "breast", "stimulus": "/static/audio/wordpool/BREAST.wav", "conditions": [18, 1200, "a", 18000], "internal_node_id": "0.0-43.0", "trial": 1, "time_elapsed": 506362, "serialpos": 6, "key_press": -1, "wordID": 170, "type": "PRES_AUD", "trial_index": 61}, "uniqueid": "MTK1647:35K3O9HUACKU4YFWKNH4KR9D51REFD", "dateTime": 1516122224916}, {"current_trial": 62, "trialdata": {"rt": -1000, "trial_type": "single-audio", "word": "canyon", "stimulus": "/static/audio/wordpool/CANYON.wav", "conditions": [18, 1200, "a", 18000], "internal_node_id": "0.0-44.0", "trial": 1, "time_elapsed": 508401, "serialpos": 7, "key_press": -1, "wordID": 234, "type": "PRES_AUD", "trial_index": 62}, "uniqueid": "MTK1647:35K3O9HUACKU4YFWKNH4KR9D51REFD", "dateTime": 1516122226954}, {"current_trial": 63, "trialdata": {"rt": -1000, "trial_type": "single-audio", "word": "rifle", "stimulus": "/static/audio/wordpool/RIFLE.wav", "conditions": [18, 1200, "a", 18000], "internal_node_id": "0.0-45.0", "trial": 1, "time_elapsed": 510787, "serialpos": 8, "key_press": -1, "wordID": 1191, "type": "PRES_AUD", "trial_index": 63}, "uniqueid": "MTK1647:35K3O9HUACKU4YFWKNH4KR9D51REFD", "dateTime": 1516122229340}, {"current_trial": 64, "trialdata": {"rt": -1000, "trial_type": "single-audio", "word": "casket", "stimulus": "/static/audio/wordpool/CASKET.wav", "conditions": [18, 1200, "a", 18000], "internal_node_id": "0.0-46.0", "trial": 1, "time_elapsed": 513106, "serialpos": 9, "key_press": -1, "wordID": 254, "type": "PRES_AUD", "trial_index": 64}, "uniqueid": "MTK1647:35K3O9HUACKU4YFWKNH4KR9D51REFD", "dateTime": 1516122231659}, {"current_trial": 65, "trialdata": {"rt": -1000, "trial_type": "single-audio", "word": "comet", "stimulus": "/static/audio/wordpool/COMET.wav", "conditions": [18, 1200, "a", 18000], "internal_node_id": "0.0-47.0", "trial": 1, "time_elapsed": 515436, "serialpos": 10, "key_press": -1, "wordID": 352, "type": "PRES_AUD", "trial_index": 65}, "uniqueid": "MTK1647:35K3O9HUACKU4YFWKNH4KR9D51REFD", "dateTime": 1516122233989}, {"current_trial": 66, "trialdata": {"rt": -1000, "trial_type": "single-audio", "word": "flag", "stimulus": "/static/audio/wordpool/FLAG.wav", "conditions": [18, 1200, "a", 18000], "internal_node_id": "0.0-48.0", "trial": 1, "time_elapsed": 517590, "serialpos": 11, "key_press": -1, "wordID": 572, "type": "PRES_AUD", "trial_index": 66}, "uniqueid": "MTK1647:35K3O9HUACKU4YFWKNH4KR9D51REFD", "dateTime": 1516122236144}, {"current_trial": 67, "trialdata": {"rt": -1000, "trial_type": "single-audio", "word": "piano", "stimulus": "/static/audio/wordpool/PIANO.wav", "conditions": [18, 1200, "a", 18000], "internal_node_id": "0.0-49.0", "trial": 1, "time_elapsed": 519712, "serialpos": 12, "key_press": -1, "wordID": 1056, "type": "PRES_AUD", "trial_index": 67}, "uniqueid": "MTK1647:35K3O9HUACKU4YFWKNH4KR9D51REFD", "dateTime": 1516122238265}, {"current_trial": 68, "trialdata": {"rt": -1000, "trial_type": "single-audio", "word": "crutch", "stimulus": "/static/audio/wordpool/CRUTCH.wav", "conditions": [18, 1200, "a", 18000], "internal_node_id": "0.0-50.0", "trial": 1, "time_elapsed": 522060, "serialpos": 13, "key_press": -1, "wordID": 416, "type": "PRES_AUD", "trial_index": 68}, "uniqueid": "MTK1647:35K3O9HUACKU4YFWKNH4KR9D51REFD", "dateTime": 1516122240619}, {"current_trial": 69, "trialdata": {"rt": -1000, "trial_type": "single-audio", "word": "dust", "stimulus": "/static/audio/wordpool/DUST.wav", "conditions": [18, 1200, "a", 18000], "internal_node_id": "0.0-51.0", "trial": 1, "time_elapsed": 524119, "serialpos": 14, "key_press": -1, "wordID": 507, "type": "PRES_AUD", "trial_index": 69}, "uniqueid": "MTK1647:35K3O9HUACKU4YFWKNH4KR9D51REFD", "dateTime": 1516122242672}, {"current_trial": 70, "trialdata": {"rt": -1000, "trial_type": "single-audio", "word": "hostess", "stimulus": "/static/audio/wordpool/HOSTESS.wav", "conditions": [18, 1200, "a", 18000], "internal_node_id": "0.0-52.0", "trial": 1, "time_elapsed": 526198, "serialpos": 15, "key_press": -1, "wordID": 722, "type": "PRES_AUD", "trial_index": 70}, "uniqueid": "MTK1647:35K3O9HUACKU4YFWKNH4KR9D51REFD", "dateTime": 1516122244751}, {"current_trial": 71, "trialdata": {"rt": -1000, "trial_type": "single-audio", "word": "trout", "stimulus": "/static/audio/wordpool/TROUT.wav", "conditions": [18, 1200, "a", 18000], "internal_node_id": "0.0-53.0", "trial": 1, "time_elapsed": 528458, "serialpos": 16, "key_press": -1, "wordID": 1510, "type": "PRES_AUD", "trial_index": 71}, "uniqueid": "MTK1647:35K3O9HUACKU4YFWKNH4KR9D51REFD", "dateTime": 1516122247012}, {"current_trial": 72, "trialdata": {"rt": -1000, "trial_type": "single-audio", "word": "pigment", "stimulus": "/static/audio/wordpool/PIGMENT.wav", "conditions": [18, 1200, "a", 18000], "internal_node_id": "0.0-54.0", "trial": 1, "time_elapsed": 530842, "serialpos": 17, "key_press": -1, "wordID": 1065, "type": "PRES_AUD", "trial_index": 72}, "uniqueid": "MTK1647:35K3O9HUACKU4YFWKNH4KR9D51REFD", "dateTime": 1516122249395}, {"current_trial": 73, "trialdata": {"rt": -1, "trial_type": "single-stim", "stimulus": "", "internal_node_id": "0.0-55.0-0.0", "time_elapsed": 532099, "key_press": -1, "type": "PRE_RECALL_DELAY", "trial_index": 73}, "uniqueid": "MTK1647:35K3O9HUACKU4YFWKNH4KR9D51REFD", "dateTime": 1516122250652}, {"current_trial": 74, "trialdata": {"rt": -1000, "trial_type": "single-audio", "stimulus": "/static/audio/400Hz.wav", "internal_node_id": "0.0-56.0", "time_elapsed": 532601, "key_press": -1, "type": "PRE_RECALL_ALERT", "trial_index": 74}, "uniqueid": "MTK1647:35K3O9HUACKU4YFWKNH4KR9D51REFD", "dateTime": 1516122251154}, {"current_trial": 75, "trialdata": {"rt": [6666, 7962, 10762, 12961, 15431, 20151, 23966, 28088, 29487, 34042, 35609, 38079, 44653, 47815], "recwords": ["rust", "cobra", "pigment", "tractor", "breast", "canyon", "frightful", "casket", "comet", "crunch", "piano", "gavel", "trout", "hostess"], "key_times": [5504, 5638, 5728, 5880, 6666, 6999, 7137, 7346, 7639, 7769, 7962, 8499, 8779, 9236, 9396, 9808, 9968, 10082, 10762, 11538, 11704, 11896, 12168, 12365, 12504, 12620, 12961, 14001, 14151, 14272, 14398, 14696, 14909, 15431, 17129, 17300, 17811, 17987, 18140, 18848, 19183, 19321, 19459, 19856, 20151, 20623, 20778, 20926, 21159, 21254, 21374, 21737, 22127, 22242, 22396, 22588, 23966, 26700, 26932, 27005, 27211, 27474, 27665, 28088, 28626, 28785, 28946, 29114, 29235, 29487, 32466, 32701, 32987, 33281, 33474, 33628, 34042, 34523, 34721, 34864, 34966, 35202, 35609, 36663, 36853, 37061, 37223, 37388, 38079, 43829, 44048, 44244, 44312, 44448, 44653, 45496, 45696, 45780, 45917, 46092, 46332, 46452, 47815], "trial_type": "free-recall", "conditions": [18, 1200, "a", 18000], "internal_node_id": "0.0-57.0-0.0", "key_presses": [82, 85, 83, 84, 188, 67, 79, 66, 82, 65, 188, 80, 73, 71, 77, 69, 78, 84, 188, 84, 82, 65, 67, 84, 79, 82, 188, 66, 82, 69, 65, 83, 84, 188, 67, 79, 8, 65, 78, 84, 8, 89, 79, 78, 188, 70, 82, 73, 71, 72, 84, 71, 8, 70, 85, 76, 188, 67, 65, 83, 75, 69, 84, 188, 67, 79, 77, 69, 84, 188, 67, 82, 85, 78, 67, 72, 188, 80, 73, 65, 78, 79, 188, 71, 65, 86, 69, 76, 188, 84, 82, 79, 85, 84, 188, 72, 79, 83, 84, 69, 83, 83, 188], "trial": 1, "time_elapsed": 592610, "type": "FREE_RECALL", "trial_index": 75}, "uniqueid": "MTK1647:35K3O9HUACKU4YFWKNH4KR9D51REFD", "dateTime": 1516122311168}, {"current_trial": 76, "trialdata": {"rt": 2410, "trial_type": "text", "internal_node_id": "0.0-58.0", "time_elapsed": 597028, "key_press": 32, "type": "INSTRUCTIONS", "trial_index": 76}, "uniqueid": "MTK1647:35K3O9HUACKU4YFWKNH4KR9D51REFD", "dateTime": 1516122315581}, {"current_trial": 77, "trialdata": {"rt": [2133, 5986, 8603], "trial_type": "math-distractor", "key_times": [1513, 1565, 2133, 5558, 5663, 5986, 8026, 8204, 8603], "responses": ["12", "10", "18"], "num2": [5, 4, 4, 9], "num3": [2, 5, 7, 7], "conditions": [12, 800, "a", 12000], "internal_node_id": "0.0-59.0", "key_presses": [49, 50, 13, 49, 48, 13, 49, 56, 13], "trial": 2, "time_elapsed": 610034, "type": "DISTRACTOR", "trial_index": 77, "num1": [5, 1, 7, 5]}, "uniqueid": "MTK1647:35K3O9HUACKU4YFWKNH4KR9D51REFD", "dateTime": 1516122328587}, {"current_trial": 78, "trialdata": {"rt": -1, "trial_type": "single-stim", "stimulus": "<p id=\"stim\">10</p>", "internal_node_id": "0.0-60.0-0.0", "time_elapsed": 613037, "key_press": -1, "trial_index": 78}, "uniqueid": "MTK1647:35K3O9HUACKU4YFWKNH4KR9D51REFD", "dateTime": 1516122331590}, {"current_trial": 79, "trialdata": {"rt": -1, "trial_type": "single-stim", "stimulus": "<p id=\"stim\">9</p>", "internal_node_id": "0.0-60.0-1.0", "time_elapsed": 614039, "key_press": -1, "trial_index": 79}, "uniqueid": "MTK1647:35K3O9HUACKU4YFWKNH4KR9D51REFD", "dateTime": 1516122332592}, {"current_trial": 80, "trialdata": {"rt": -1, "trial_type": "single-stim", "stimulus": "<p id=\"stim\">8</p>", "internal_node_id": "0.0-60.0-2.0", "time_elapsed": 615041, "key_press": -1, "trial_index": 80}, "uniqueid": "MTK1647:35K3O9HUACKU4YFWKNH4KR9D51REFD", "dateTime": 1516122333594}, {"current_trial": 81, "trialdata": {"rt": -1, "trial_type": "single-stim", "stimulus": "<p id=\"stim\">7</p>", "internal_node_id": "0.0-60.0-3.0", "time_elapsed": 616043, "key_press": -1, "trial_index": 81}, "uniqueid": "MTK1647:35K3O9HUACKU4YFWKNH4KR9D51REFD", "dateTime": 1516122334596}, {"current_trial": 82, "trialdata": {"rt": -1, "trial_type": "single-stim", "stimulus": "<p id=\"stim\">6</p>", "internal_node_id": "0.0-60.0-4.0", "time_elapsed": 617045, "key_press": -1, "trial_index": 82}, "uniqueid": "MTK1647:35K3O9HUACKU4YFWKNH4KR9D51REFD", "dateTime": 1516122335598}, {"current_trial": 83, "trialdata": {"rt": -1, "trial_type": "single-stim", "stimulus": "<p id=\"stim\">5</p>", "internal_node_id": "0.0-60.0-5.0", "time_elapsed": 618047, "key_press": -1, "trial_index": 83}, "uniqueid": "MTK1647:35K3O9HUACKU4YFWKNH4KR9D51REFD", "dateTime": 1516122336600}, {"current_trial": 84, "trialdata": {"rt": -1, "trial_type": "single-stim", "stimulus": "<p id=\"stim\">4</p>", "internal_node_id": "0.0-60.0-6.0", "time_elapsed": 619049, "key_press": -1, "trial_index": 84}, "uniqueid": "MTK1647:35K3O9HUACKU4YFWKNH4KR9D51REFD", "dateTime": 1516122337602}, {"current_trial": 85, "trialdata": {"rt": -1, "trial_type": "single-stim", "stimulus": "<p id=\"stim\">3</p>", "internal_node_id": "0.0-60.0-7.0", "time_elapsed": 620051, "key_press": -1, "trial_index": 85}, "uniqueid": "MTK1647:35K3O9HUACKU4YFWKNH4KR9D51REFD", "dateTime": 1516122338604}, {"current_trial": 86, "trialdata": {"rt": -1, "trial_type": "single-stim", "stimulus": "<p id=\"stim\">2</p>", "internal_node_id": "0.0-60.0-8.0", "time_elapsed": 621053, "key_press": -1, "trial_index": 86}, "uniqueid": "MTK1647:35K3O9HUACKU4YFWKNH4KR9D51REFD", "dateTime": 1516122339606}, {"current_trial": 87, "trialdata": {"rt": -1, "trial_type": "single-stim", "stimulus": "<p id=\"stim\">1</p>", "internal_node_id": "0.0-60.0-9.0", "time_elapsed": 622055, "key_press": -1, "trial_index": 87}, "uniqueid": "MTK1647:35K3O9HUACKU4YFWKNH4KR9D51REFD", "dateTime": 1516122340608}, {"current_trial": 88, "trialdata": {"rt": -1, "trial_type": "single-stim", "stimulus": "<p id=\"stim\">+</p>", "internal_node_id": "0.0-61.0-0.0", "time_elapsed": 623557, "key_press": -1, "type": "FIXATION", "trial_index": 88}, "uniqueid": "MTK1647:35K3O9HUACKU4YFWKNH4KR9D51REFD", "dateTime": 1516122342110}, {"current_trial": 89, "trialdata": {"rt": -1000, "trial_type": "single-audio", "word": "flower", "stimulus": "/static/audio/wordpool/FLOWER.wav", "conditions": [12, 800, "a", 12000], "internal_node_id": "0.0-62.0", "trial": 2, "time_elapsed": 625499, "serialpos": 0, "key_press": -1, "wordID": 583, "type": "PRES_AUD", "trial_index": 89}, "uniqueid": "MTK1647:35K3O9HUACKU4YFWKNH4KR9D51REFD", "dateTime": 1516122344052}, {"current_trial": 90, "trialdata": {"rt": -1000, "trial_type": "single-audio", "word": "headband", "stimulus": "/static/audio/wordpool/HEADBAND.wav", "conditions": [12, 800, "a", 12000], "internal_node_id": "0.0-63.0", "trial": 2, "time_elapsed": 627102, "serialpos": 1, "key_press": -1, "wordID": 695, "type": "PRES_AUD", "trial_index": 90}, "uniqueid": "MTK1647:35K3O9HUACKU4YFWKNH4KR9D51REFD", "dateTime": 1516122345655}, {"current_trial": 91, "trialdata": {"rt": -1000, "trial_type": "single-audio", "word": "brick", "stimulus": "/static/audio/wordpool/BRICK.wav", "conditions": [12, 800, "a", 12000], "internal_node_id": "0.0-64.0", "trial": 2, "time_elapsed": 628723, "serialpos": 2, "key_press": -1, "wordID": 171, "type": "PRES_AUD", "trial_index": 91}, "uniqueid": "MTK1647:35K3O9HUACKU4YFWKNH4KR9D51REFD", "dateTime": 1516122347276}, {"current_trial": 92, "trialdata": {"rt": -1000, "trial_type": "single-audio", "word": "ointment", "stimulus": "/static/audio/wordpool/OINTMENT.wav", "conditions": [12, 800, "a", 12000], "internal_node_id": "0.0-65.0", "trial": 2, "time_elapsed": 630724, "serialpos": 3, "key_press": -1, "wordID": 973, "type": "PRES_AUD", "trial_index": 92}, "uniqueid": "MTK1647:35K3O9HUACKU4YFWKNH4KR9D51REFD", "dateTime": 1516122349277}, {"current_trial": 93, "trialdata": {"rt": -1000, "trial_type": "single-audio", "word": "poison", "stimulus": "/static/audio/wordpool/POISON.wav", "conditions": [12, 800, "a", 12000], "internal_node_id": "0.0-66.0", "trial": 2, "time_elapsed": 632629, "serialpos": 4, "key_press": -1, "wordID": 1095, "type": "PRES_AUD", "trial_index": 93}, "uniqueid": "MTK1647:35K3O9HUACKU4YFWKNH4KR9D51REFD", "dateTime": 1516122351182}, {"current_trial": 94, "trialdata": {"rt": -1000, "trial_type": "single-audio", "word": "scotch", "stimulus": "/static/audio/wordpool/SCOTCH.wav", "conditions": [12, 800, "a", 12000], "internal_node_id": "0.0-67.0", "trial": 2, "time_elapsed": 634573, "serialpos": 5, "key_press": -1, "wordID": 1250, "type": "PRES_AUD", "trial_index": 94}, "uniqueid": "MTK1647:35K3O9HUACKU4YFWKNH4KR9D51REFD", "dateTime": 1516122353129}, {"current_trial": 95, "trialdata": {"rt": -1000, "trial_type": "single-audio", "word": "shirt", "stimulus": "/static/audio/wordpool/SHIRT.wav", "conditions": [12, 800, "a", 12000], "internal_node_id": "0.0-68.0", "trial": 2, "time_elapsed": 636468, "serialpos": 6, "key_press": -1, "wordID": 1286, "type": "PRES_AUD", "trial_index": 95}, "uniqueid": "MTK1647:35K3O9HUACKU4YFWKNH4KR9D51REFD", "dateTime": 1516122355021}, {"current_trial": 96, "trialdata": {"rt": -1000, "trial_type": "single-audio", "word": "dresser", "stimulus": "/static/audio/wordpool/DRESSER.wav", "conditions": [12, 800, "a", 12000], "internal_node_id": "0.0-69.0", "trial": 2, "time_elapsed": 638218, "serialpos": 7, "key_press": -1, "wordID": 495, "type": "PRES_AUD", "trial_index": 96}, "uniqueid": "MTK1647:35K3O9HUACKU4YFWKNH4KR9D51REFD", "dateTime": 1516122356772}, {"current_trial": 97, "trialdata": {"rt": -1000, "trial_type": "single-audio", "word": "partner", "stimulus": "/static/audio/wordpool/PARTNER.wav", "conditions": [12, 800, "a", 12000], "internal_node_id": "0.0-70.0", "trial": 2, "time_elapsed": 640139, "serialpos": 8, "key_press": -1, "wordID": 1016, "type": "PRES_AUD", "trial_index": 97}, "uniqueid": "MTK1647:35K3O9HUACKU4YFWKNH4KR9D51REFD", "dateTime": 1516122358693}, {"current_trial": 98, "trialdata": {"rt": -1000, "trial_type": "single-audio", "word": "beast", "stimulus": "/static/audio/wordpool/BEAST.wav", "conditions": [12, 800, "a", 12000], "internal_node_id": "0.0-71.0", "trial": 2, "time_elapsed": 641999, "serialpos": 9, "key_press": -1, "wordID": 107, "type": "PRES_AUD", "trial_index": 98}, "uniqueid": "MTK1647:35K3O9HUACKU4YFWKNH4KR9D51REFD", "dateTime": 1516122360552}, {"current_trial": 99, "trialdata": {"rt": -1000, "trial_type": "single-audio", "word": "suitcase", "stimulus": "/static/audio/wordpool/SUITCASE.wav", "conditions": [12, 800, "a", 12000], "internal_node_id": "0.0-72.0", "trial": 2, "time_elapsed": 643718, "serialpos": 10, "key_press": -1, "wordID": 1402, "type": "PRES_AUD", "trial_index": 99}, "uniqueid": "MTK1647:35K3O9HUACKU4YFWKNH4KR9D51REFD", "dateTime": 1516122362271}, {"current_trial": 100, "trialdata": {"rt": -1000, "trial_type": "single-audio", "word": "knapsack", "stimulus": "/static/audio/wordpool/KNAPSACK.wav", "conditions": [12, 800, "a", 12000], "internal_node_id": "0.0-73.0", "trial": 2, "time_elapsed": 645399, "serialpos": 11, "key_press": -1, "wordID": 782, "type": "PRES_AUD", "trial_index": 100}, "uniqueid": "MTK1647:35K3O9HUACKU4YFWKNH4KR9D51REFD", "dateTime": 1516122363952}, {"current_trial": 101, "trialdata": {"rt": -1, "trial_type": "single-stim", "stimulus": "", "internal_node_id": "0.0-74.0-0.0", "time_elapsed": 646770, "key_press": -1, "type": "PRE_RECALL_DELAY", "trial_index": 101}, "uniqueid": "MTK1647:35K3O9HUACKU4YFWKNH4KR9D51REFD", "dateTime": 1516122365323}, {"current_trial": 102, "trialdata": {"rt": -1000, "trial_type": "single-audio", "stimulus": "/static/audio/400Hz.wav", "internal_node_id": "0.0-75.0", "time_elapsed": 647272, "key_press": -1, "type": "PRE_RECALL_ALERT", "trial_index": 102}, "uniqueid": "MTK1647:35K3O9HUACKU4YFWKNH4KR9D51REFD", "dateTime": 1516122365825}, {"current_trial": 103, "trialdata": {"rt": [5383, 6870, 10083, 15141, 18900, 21273, 32114, 37655], "recwords": ["flower", "beast", "knapsack", "scotch", "headband", "brick", "ointment", "poison"], "key_times": [4150, 4259, 4434, 4826, 5026, 5088, 5383, 5908, 6062, 6224, 6367, 6612, 6870, 7499, 7593, 7761, 7938, 9139, 9238, 9792, 9886, 10083, 11982, 12192, 12350, 12491, 12623, 13637, 14210, 14389, 15141, 17174, 17400, 17489, 17719, 17993, 18088, 18193, 18649, 18900, 19323, 19549, 19749, 20362, 20479, 21273, 28854, 28910, 29152, 29240, 29410, 29498, 29710, 30225, 30732, 31093, 32114, 32845, 33335, 33434, 33660, 33765, 34015, 34025, 34498, 34639, 34893, 35012, 35145, 35265, 35861, 35929, 36134, 36198, 36366, 37655], "trial_type": "free-recall", "conditions": [12, 800, "a", 12000], "internal_node_id": "0.0-76.0-0.0", "key_presses": [70, 76, 79, 87, 69, 82, 188, 66, 69, 65, 83, 84, 188, 75, 78, 65, 80, 83, 65, 67, 75, 188, 83, 67, 79, 84, 72, 8, 67, 72, 188, 72, 69, 65, 68, 66, 65, 78, 68, 188, 66, 82, 73, 67, 75, 188, 79, 73, 78, 84, 77, 69, 84, 8, 78, 84, 188, 80, 73, 79, 83, 79, 77, 78, 8, 8, 8, 8, 8, 8, 79, 73, 83, 79, 78, 188], "trial": 2, "time_elapsed": 707279, "type": "FREE_RECALL", "trial_index": 103}, "uniqueid": "MTK1647:35K3O9HUACKU4YFWKNH4KR9D51REFD", "dateTime": 1516122425837}, {"current_trial": 104, "trialdata": {"rt": 1490, "trial_type": "text", "internal_node_id": "0.0-77.0", "time_elapsed": 710776, "key_press": 32, "type": "INSTRUCTIONS", "trial_index": 104}, "uniqueid": "MTK1647:35K3O9HUACKU4YFWKNH4KR9D51REFD", "dateTime": 1516122429329}, {"current_trial": 105, "trialdata": {"rt": [4469, 11174, 16127, 19111], "trial_type": "math-distractor", "key_times": [3837, 3874, 4469, 10638, 10943, 11174, 15600, 15930, 16127, 18881, 18954, 19111, 23560, 23746], "responses": ["12", "15", "14", "12"], "num2": [2, 5, 6, 1, 8], "num3": [2, 7, 7, 7, 6], "conditions": [24, 1600, "a", 24000], "internal_node_id": "0.0-78.0", "key_presses": [49, 50, 13, 49, 53, 13, 49, 52, 13, 49, 50, 13, 49, 54], "trial": 3, "time_elapsed": 736782, "type": "DISTRACTOR", "trial_index": 105, "num1": [8, 3, 1, 4, 2]}, "uniqueid": "MTK1647:35K3O9HUACKU4YFWKNH4KR9D51REFD", "dateTime": 1516122455336}, {"current_trial": 106, "trialdata": {"rt": -1, "trial_type": "single-stim", "stimulus": "<p id=\"stim\">10</p>", "internal_node_id": "0.0-79.0-0.0", "time_elapsed": 739785, "key_press": -1, "trial_index": 106}, "uniqueid": "MTK1647:35K3O9HUACKU4YFWKNH4KR9D51REFD", "dateTime": 1516122458339}, {"current_trial": 107, "trialdata": {"rt": -1, "trial_type": "single-stim", "stimulus": "<p id=\"stim\">9</p>", "internal_node_id": "0.0-79.0-1.0", "time_elapsed": 740788, "key_press": -1, "trial_index": 107}, "uniqueid": "MTK1647:35K3O9HUACKU4YFWKNH4KR9D51REFD", "dateTime": 1516122459341}, {"current_trial": 108, "trialdata": {"rt": -1, "trial_type": "single-stim", "stimulus": "<p id=\"stim\">8</p>", "internal_node_id": "0.0-79.0-2.0", "time_elapsed": 741789, "key_press": -1, "trial_index": 108}, "uniqueid": "MTK1647:35K3O9HUACKU4YFWKNH4KR9D51REFD", "dateTime": 1516122460343}, {"current_trial": 109, "trialdata": {"rt": -1, "trial_type": "single-stim", "stimulus": "<p id=\"stim\">7</p>", "internal_node_id": "0.0-79.0-3.0", "time_elapsed": 742792, "key_press": -1, "trial_index": 109}, "uniqueid": "MTK1647:35K3O9HUACKU4YFWKNH4KR9D51REFD", "dateTime": 1516122461345}, {"current_trial": 110, "trialdata": {"rt": -1, "trial_type": "single-stim", "stimulus": "<p id=\"stim\">6</p>", "internal_node_id": "0.0-79.0-4.0", "time_elapsed": 743794, "key_press": -1, "trial_index": 110}, "uniqueid": "MTK1647:35K3O9HUACKU4YFWKNH4KR9D51REFD", "dateTime": 1516122462347}, {"current_trial": 111, "trialdata": {"rt": -1, "trial_type": "single-stim", "stimulus": "<p id=\"stim\">5</p>", "internal_node_id": "0.0-79.0-5.0", "time_elapsed": 744796, "key_press": -1, "trial_index": 111}, "uniqueid": "MTK1647:35K3O9HUACKU4YFWKNH4KR9D51REFD", "dateTime": 1516122463349}, {"current_trial": 112, "trialdata": {"rt": -1, "trial_type": "single-stim", "stimulus": "<p id=\"stim\">4</p>", "internal_node_id": "0.0-79.0-6.0", "time_elapsed": 745798, "key_press": -1, "trial_index": 112}, "uniqueid": "MTK1647:35K3O9HUACKU4YFWKNH4KR9D51REFD", "dateTime": 1516122464351}, {"current_trial": 113, "trialdata": {"rt": -1, "trial_type": "single-stim", "stimulus": "<p id=\"stim\">3</p>", "internal_node_id": "0.0-79.0-7.0", "time_elapsed": 746800, "key_press": -1, "trial_index": 113}, "uniqueid": "MTK1647:35K3O9HUACKU4YFWKNH4KR9D51REFD", "dateTime": 1516122465353}, {"current_trial": 114, "trialdata": {"rt": -1, "trial_type": "single-stim", "stimulus": "<p id=\"stim\">2</p>", "internal_node_id": "0.0-79.0-8.0", "time_elapsed": 747802, "key_press": -1, "trial_index": 114}, "uniqueid": "MTK1647:35K3O9HUACKU4YFWKNH4KR9D51REFD", "dateTime": 1516122466355}, {"current_trial": 115, "trialdata": {"rt": -1, "trial_type": "single-stim", "stimulus": "<p id=\"stim\">1</p>", "internal_node_id": "0.0-79.0-9.0", "time_elapsed": 748804, "key_press": -1, "trial_index": 115}, "uniqueid": "MTK1647:35K3O9HUACKU4YFWKNH4KR9D51REFD", "dateTime": 1516122467357}, {"current_trial": 116, "trialdata": {"rt": -1, "trial_type": "single-stim", "stimulus": "<p id=\"stim\">+</p>", "internal_node_id": "0.0-80.0-0.0", "time_elapsed": 750306, "key_press": -1, "type": "FIXATION", "trial_index": 116}, "uniqueid": "MTK1647:35K3O9HUACKU4YFWKNH4KR9D51REFD", "dateTime": 1516122468859}, {"current_trial": 117, "trialdata": {"rt": -1000, "trial_type": "single-audio", "word": "fragrance", "stimulus": "/static/audio/wordpool/FRAGRANCE.wav", "conditions": [24, 1600, "a", 24000], "internal_node_id": "0.0-81.0", "trial": 3, "time_elapsed": 753065, "serialpos": 0, "key_press": -1, "wordID": 598, "type": "PRES_AUD", "trial_index": 117}, "uniqueid": "MTK1647:35K3O9HUACKU4YFWKNH4KR9D51REFD", "dateTime": 1516122471618}, {"current_trial": 118, "trialdata": {"rt": -1000, "trial_type": "single-audio", "word": "orchid", "stimulus": "/static/audio/wordpool/ORCHID.wav", "conditions": [24, 1600, "a", 24000], "internal_node_id": "0.0-82.0", "trial": 3, "time_elapsed": 755712, "serialpos": 1, "key_press": -1, "wordID": 981, "type": "PRES_AUD", "trial_index": 118}, "uniqueid": "MTK1647:35K3O9HUACKU4YFWKNH4KR9D51REFD", "dateTime": 1516122474265}, {"current_trial": 119, "trialdata": {"rt": -1000, "trial_type": "single-audio", "word": "buggy", "stimulus": "/static/audio/wordpool/BUGGY.wav", "conditions": [24, 1600, "a", 24000], "internal_node_id": "0.0-83.0", "trial": 3, "time_elapsed": 758126, "serialpos": 2, "key_press": -1, "wordID": 187, "type": "PRES_AUD", "trial_index": 119}, "uniqueid": "MTK1647:35K3O9HUACKU4YFWKNH4KR9D51REFD", "dateTime": 1516122476679}, {"current_trial": 120, "trialdata": {"rt": -1000, "trial_type": "single-audio", "word": "lava", "stimulus": "/static/audio/wordpool/LAVA.wav", "conditions": [24, 1600, "a", 24000], "internal_node_id": "0.0-84.0", "trial": 3, "time_elapsed": 760606, "serialpos": 3, "key_press": -1, "wordID": 803, "type": "PRES_AUD", "trial_index": 120}, "uniqueid": "MTK1647:35K3O9HUACKU4YFWKNH4KR9D51REFD", "dateTime": 1516122479159}, {"current_trial": 121, "trialdata": {"rt": -1000, "trial_type": "single-audio", "word": "blueprint", "stimulus": "/static/audio/wordpool/BLUEPRINT.wav", "conditions": [24, 1600, "a", 24000], "internal_node_id": "0.0-85.0", "trial": 3, "time_elapsed": 763079, "serialpos": 4, "key_press": -1, "wordID": 141, "type": "PRES_AUD", "trial_index": 121}, "uniqueid": "MTK1647:35K3O9HUACKU4YFWKNH4KR9D51REFD", "dateTime": 1516122481633}, {"current_trial": 122, "trialdata": {"rt": -1000, "trial_type": "single-audio", "word": "seagull", "stimulus": "/static/audio/wordpool/SEAGULL.wav", "conditions": [24, 1600, "a", 24000], "internal_node_id": "0.0-86.0", "trial": 3, "time_elapsed": 765867, "serialpos": 5, "key_press": -1, "wordID": 1260, "type": "PRES_AUD", "trial_index": 122}, "uniqueid": "MTK1647:35K3O9HUACKU4YFWKNH4KR9D51REFD", "dateTime": 1516122484421}, {"current_trial": 123, "trialdata": {"rt": -1000, "trial_type": "single-audio", "word": "crater", "stimulus": "/static/audio/wordpool/CRATER.wav", "conditions": [24, 1600, "a", 24000], "internal_node_id": "0.0-87.0", "trial": 3, "time_elapsed": 768420, "serialpos": 6, "key_press": -1, "wordID": 399, "type": "PRES_AUD", "trial_index": 123}, "uniqueid": "MTK1647:35K3O9HUACKU4YFWKNH4KR9D51REFD", "dateTime": 1516122486973}, {"current_trial": 124, "trialdata": {"rt": -1000, "trial_type": "single-audio", "word": "backbone", "stimulus": "/static/audio/wordpool/BACKBONE.wav", "conditions": [24, 1600, "a", 24000], "internal_node_id": "0.0-88.0", "trial": 3, "time_elapsed": 771129, "serialpos": 7, "key_press": -1, "wordID": 65, "type": "PRES_AUD", "trial_index": 124}, "uniqueid": "MTK1647:35K3O9HUACKU4YFWKNH4KR9D51REFD", "dateTime": 1516122489682}, {"current_trial": 125, "trialdata": {"rt": -1000, "trial_type": "single-audio", "word": "fruit", "stimulus": "/static/audio/wordpool/FRUIT.wav", "conditions": [24, 1600, "a", 24000], "internal_node_id": "0.0-89.0", "trial": 3, "time_elapsed": 773823, "serialpos": 8, "key_press": -1, "wordID": 609, "type": "PRES_AUD", "trial_index": 125}, "uniqueid": "MTK1647:35K3O9HUACKU4YFWKNH4KR9D51REFD", "dateTime": 1516122492376}, {"current_trial": 126, "trialdata": {"rt": -1000, "trial_type": "single-audio", "word": "citrus", "stimulus": "/static/audio/wordpool/CITRUS.wav", "conditions": [24, 1600, "a", 24000], "internal_node_id": "0.0-90.0", "trial": 3, "time_elapsed": 776445, "serialpos": 9, "key_press": -1, "wordID": 312, "type": "PRES_AUD", "trial_index": 126}, "uniqueid": "MTK1647:35K3O9HUACKU4YFWKNH4KR9D51REFD", "dateTime": 1516122494998}, {"current_trial": 127, "trialdata": {"rt": -1000, "trial_type": "single-audio", "word": "college", "stimulus": "/static/audio/wordpool/COLLEGE.wav", "conditions": [24, 1600, "a", 24000], "internal_node_id": "0.0-91.0", "trial": 3, "time_elapsed": 779181, "serialpos": 10, "key_press": -1, "wordID": 345, "type": "PRES_AUD", "trial_index": 127}, "uniqueid": "MTK1647:35K3O9HUACKU4YFWKNH4KR9D51REFD", "dateTime": 1516122497734}, {"current_trial": 128, "trialdata": {"rt": -1000, "trial_type": "single-audio", "word": "cellar", "stimulus": "/static/audio/wordpool/CELLAR.wav", "conditions": [24, 1600, "a", 24000], "internal_node_id": "0.0-92.0", "trial": 3, "time_elapsed": 781876, "serialpos": 11, "key_press": -1, "wordID": 266, "type": "PRES_AUD", "trial_index": 128}, "uniqueid": "MTK1647:35K3O9HUACKU4YFWKNH4KR9D51REFD", "dateTime": 1516122500429}, {"current_trial": 129, "trialdata": {"rt": -1000, "trial_type": "single-audio", "word": "panther", "stimulus": "/static/audio/wordpool/PANTHER.wav", "conditions": [24, 1600, "a", 24000], "internal_node_id": "0.0-93.0", "trial": 3, "time_elapsed": 784508, "serialpos": 12, "key_press": -1, "wordID": 1008, "type": "PRES_AUD", "trial_index": 129}, "uniqueid": "MTK1647:35K3O9HUACKU4YFWKNH4KR9D51REFD", "dateTime": 1516122503062}, {"current_trial": 130, "trialdata": {"rt": -1000, "trial_type": "single-audio", "word": "shrub", "stimulus": "/static/audio/wordpool/SHRUB.wav", "conditions": [24, 1600, "a", 24000], "internal_node_id": "0.0-94.0", "trial": 3, "time_elapsed": 787011, "serialpos": 13, "key_press": -1, "wordID": 1298, "type": "PRES_AUD", "trial_index": 130}, "uniqueid": "MTK1647:35K3O9HUACKU4YFWKNH4KR9D51REFD", "dateTime": 1516122505565}, {"current_trial": 131, "trialdata": {"rt": -1000, "trial_type": "single-audio", "word": "brandy", "stimulus": "/static/audio/wordpool/BRANDY.wav", "conditions": [24, 1600, "a", 24000], "internal_node_id": "0.0-95.0", "trial": 3, "time_elapsed": 789653, "serialpos": 14, "key_press": -1, "wordID": 168, "type": "PRES_AUD", "trial_index": 131}, "uniqueid": "MTK1647:35K3O9HUACKU4YFWKNH4KR9D51REFD", "dateTime": 1516122508207}, {"current_trial": 132, "trialdata": {"rt": -1000, "trial_type": "single-audio", "word": "blouse", "stimulus": "/static/audio/wordpool/BLOUSE.wav", "conditions": [24, 1600, "a", 24000], "internal_node_id": "0.0-96.0", "trial": 3, "time_elapsed": 792388, "serialpos": 15, "key_press": -1, "wordID": 138, "type": "PRES_AUD", "trial_index": 132}, "uniqueid": "MTK1647:35K3O9HUACKU4YFWKNH4KR9D51REFD", "dateTime": 1516122510942}, {"current_trial": 133, "trialdata": {"rt": -1000, "trial_type": "single-audio", "word": "motel", "stimulus": "/static/audio/wordpool/MOTEL.wav", "conditions": [24, 1600, "a", 24000], "internal_node_id": "0.0-97.0", "trial": 3, "time_elapsed": 795141, "serialpos": 16, "key_press": -1, "wordID": 918, "type": "PRES_AUD", "trial_index": 133}, "uniqueid": "MTK1647:35K3O9HUACKU4YFWKNH4KR9D51REFD", "dateTime": 1516122513694}, {"current_trial": 134, "trialdata": {"rt": -1000, "trial_type": "single-audio", "word": "pistol", "stimulus": "/static/audio/wordpool/PISTOL.wav", "conditions": [24, 1600, "a", 24000], "internal_node_id": "0.0-98.0", "trial": 3, "time_elapsed": 797865, "serialpos": 17, "key_press": -1, "wordID": 1074, "type": "PRES_AUD", "trial_index": 134}, "uniqueid": "MTK1647:35K3O9HUACKU4YFWKNH4KR9D51REFD", "dateTime": 1516122516418}, {"current_trial": 135, "trialdata": {"rt": -1000, "trial_type": "single-audio", "word": "garden", "stimulus": "/static/audio/wordpool/GARDEN.wav", "conditions": [24, 1600, "a", 24000], "internal_node_id": "0.0-99.0", "trial": 3, "time_elapsed": 800354, "serialpos": 18, "key_press": -1, "wordID": 622, "type": "PRES_AUD", "trial_index": 135}, "uniqueid": "MTK1647:35K3O9HUACKU4YFWKNH4KR9D51REFD", "dateTime": 1516122518907}, {"current_trial": 136, "trialdata": {"rt": -1000, "trial_type": "single-audio", "word": "flute", "stimulus": "/static/audio/wordpool/FLUTE.wav", "conditions": [24, 1600, "a", 24000], "internal_node_id": "0.0-100.0", "trial": 3, "time_elapsed": 802767, "serialpos": 19, "key_press": -1, "wordID": 584, "type": "PRES_AUD", "trial_index": 136}, "uniqueid": "MTK1647:35K3O9HUACKU4YFWKNH4KR9D51REFD", "dateTime": 1516122521320}, {"current_trial": 137, "trialdata": {"rt": -1000, "trial_type": "single-audio", "word": "fiddle", "stimulus": "/static/audio/wordpool/FIDDLE.wav", "conditions": [24, 1600, "a", 24000], "internal_node_id": "0.0-101.0", "trial": 3, "time_elapsed": 805370, "serialpos": 20, "key_press": -1, "wordID": 560, "type": "PRES_AUD", "trial_index": 137}, "uniqueid": "MTK1647:35K3O9HUACKU4YFWKNH4KR9D51REFD", "dateTime": 1516122523923}, {"current_trial": 138, "trialdata": {"rt": -1000, "trial_type": "single-audio", "word": "witness", "stimulus": "/static/audio/wordpool/WITNESS.wav", "conditions": [24, 1600, "a", 24000], "internal_node_id": "0.0-102.0", "trial": 3, "time_elapsed": 807819, "serialpos": 21, "key_press": -1, "wordID": 1617, "type": "PRES_AUD", "trial_index": 138}, "uniqueid": "MTK1647:35K3O9HUACKU4YFWKNH4KR9D51REFD", "dateTime": 1516122526372}, {"current_trial": 139, "trialdata": {"rt": -1000, "trial_type": "single-audio", "word": "dentist", "stimulus": "/static/audio/wordpool/DENTIST.wav", "conditions": [24, 1600, "a", 24000], "internal_node_id": "0.0-103.0", "trial": 3, "time_elapsed": 810592, "serialpos": 22, "key_press": -1, "wordID": 446, "type": "PRES_AUD", "trial_index": 139}, "uniqueid": "MTK1647:35K3O9HUACKU4YFWKNH4KR9D51REFD", "dateTime": 1516122529146}, {"current_trial": 140, "trialdata": {"rt": -1000, "trial_type": "single-audio", "word": "county", "stimulus": "/static/audio/wordpool/COUNTY.wav", "conditions": [24, 1600, "a", 24000], "internal_node_id": "0.0-104.0", "trial": 3, "time_elapsed": 813353, "serialpos": 23, "key_press": -1, "wordID": 388, "type": "PRES_AUD", "trial_index": 140}, "uniqueid": "MTK1647:35K3O9HUACKU4YFWKNH4KR9D51REFD", "dateTime": 1516122531907}, {"current_trial": 141, "trialdata": {"rt": -1, "trial_type": "single-stim", "stimulus": "", "internal_node_id": "0.0-105.0-0.0", "time_elapsed": 814670, "key_press": -1, "type": "PRE_RECALL_DELAY", "trial_index": 141}, "uniqueid": "MTK1647:35K3O9HUACKU4YFWKNH4KR9D51REFD", "dateTime": 1516122533223}, {"current_trial": 142, "trialdata": {"rt": -1000, "trial_type": "single-audio", "stimulus": "/static/audio/400Hz.wav", "internal_node_id": "0.0-106.0", "time_elapsed": 815172, "key_press": -1, "type": "PRE_RECALL_ALERT", "trial_index": 142}, "uniqueid": "MTK1647:35K3O9HUACKU4YFWKNH4KR9D51REFD", "dateTime": 1516122533725}, {"current_trial": 143, "trialdata": {"rt": [5381, 7585, 11302, 12470, 19814, 22268, 24268, 26263, 29311, 32597, 34659, 38709, 41601, 45916, 51359], "recwords": ["county", "dentist", "pistol", "motel", "fragrance", "orchid", "flute", "fiddle", "witness", "county", "citrus", "crater", "seagull", "blueprint", "lava"], "key_times": [3608, 3907, 4028, 4264, 4465, 4506, 5381, 6205, 6435, 6629, 6760, 7055, 7198, 7330, 7585, 7892, 8111, 8519, 8701, 8955, 9558, 9711, 10024, 10098, 10600, 10789, 10976, 11302, 11600, 11792, 11930, 12133, 12254, 12470, 12476, 13818, 17792, 17968, 18187, 18488, 18678, 18818, 18944, 19282, 19471, 19814, 20405, 20822, 21361, 21502, 21624, 21802, 22268, 23477, 23571, 23810, 23979, 24068, 24268, 25127, 25314, 25736, 25877, 26008, 26065, 26263, 28023, 28290, 28403, 28535, 28653, 28854, 29007, 29311, 30903, 31099, 31198, 31450, 31646, 31709, 32597, 33025, 33470, 33774, 33953, 34223, 34401, 34659, 37198, 37594, 37744, 37929, 38083, 38225, 38709, 38972, 39077, 39289, 39620, 39934, 40198, 40316, 41601, 44191, 44292, 44514, 44730, 44946, 45172, 45352, 45533, 45575, 45916, 50103, 50313, 50619, 50719, 51359], "trial_type": "free-recall", "conditions": [24, 1600, "a", 24000], "internal_node_id": "0.0-107.0-0.0", "key_presses": [67, 79, 85, 78, 84, 89, 188, 68, 69, 78, 84, 73, 83, 84, 188, 80, 73, 84, 79, 76, 8, 8, 8, 83, 84, 79, 76, 188, 77, 79, 84, 69, 76, 188, 190, 8, 70, 82, 65, 71, 82, 65, 78, 67, 69, 188, 79, 82, 67, 72, 73, 68, 188, 70, 76, 85, 84, 69, 188, 70, 73, 68, 68, 76, 69, 188, 87, 73, 84, 78, 69, 83, 83, 188, 67, 79, 85, 78, 84, 89, 188, 67, 73, 84, 82, 85, 83, 188, 67, 82, 65, 84, 69, 82, 188, 83, 69, 65, 71, 85, 76, 76, 188, 66, 76, 85, 69, 80, 82, 73, 78, 84, 188, 76, 65, 86, 65, 188], "trial": 3, "time_elapsed": 875177, "type": "FREE_RECALL", "trial_index": 143}, "uniqueid": "MTK1647:35K3O9HUACKU4YFWKNH4KR9D51REFD", "dateTime": 1516122593732}, {"current_trial": 144, "trialdata": {"rt": 7465, "trial_type": "text", "internal_node_id": "0.0-108.0", "time_elapsed": 884647, "key_press": 32, "type": "INSTRUCTIONS", "trial_index": 144}, "uniqueid": "MTK1647:35K3O9HUACKU4YFWKNH4KR9D51REFD", "dateTime": 1516122603201}, {"current_trial": 145, "trialdata": {"rt": [5400, 8282], "trial_type": "math-distractor", "key_times": [4257, 4791, 5400, 7378, 7501, 8282], "responses": ["19", "11"], "num2": [8, 1, 2], "num3": [3, 5, 2], "conditions": [12, 1600, "a", 12000], "internal_node_id": "0.0-109.0", "key_presses": [49, 57, 13, 49, 49, 13], "trial": 4, "time_elapsed": 898654, "type": "DISTRACTOR", "trial_index": 145, "num1": [8, 5, 5]}, "uniqueid": "MTK1647:35K3O9HUACKU4YFWKNH4KR9D51REFD", "dateTime": 1516122617208}, {"current_trial": 146, "trialdata": {"rt": -1, "trial_type": "single-stim", "stimulus": "<p id=\"stim\">10</p>", "internal_node_id": "0.0-110.0-0.0", "time_elapsed": 901657, "key_press": -1, "trial_index": 146}, "uniqueid": "MTK1647:35K3O9HUACKU4YFWKNH4KR9D51REFD", "dateTime": 1516122620210}, {"current_trial": 147, "trialdata": {"rt": -1, "trial_type": "single-stim", "stimulus": "<p id=\"stim\">9</p>", "internal_node_id": "0.0-110.0-1.0", "time_elapsed": 902662, "key_press": -1, "trial_index": 147}, "uniqueid": "MTK1647:35K3O9HUACKU4YFWKNH4KR9D51REFD", "dateTime": 1516122621215}, {"current_trial": 148, "trialdata": {"rt": -1, "trial_type": "single-stim", "stimulus": "<p id=\"stim\">8</p>", "internal_node_id": "0.0-110.0-2.0", "time_elapsed": 903664, "key_press": -1, "trial_index": 148}, "uniqueid": "MTK1647:35K3O9HUACKU4YFWKNH4KR9D51REFD", "dateTime": 1516122622217}, {"current_trial": 149, "trialdata": {"rt": -1, "trial_type": "single-stim", "stimulus": "<p id=\"stim\">7</p>", "internal_node_id": "0.0-110.0-3.0", "time_elapsed": 904666, "key_press": -1, "trial_index": 149}, "uniqueid": "MTK1647:35K3O9HUACKU4YFWKNH4KR9D51REFD", "dateTime": 1516122623220}, {"current_trial": 150, "trialdata": {"rt": -1, "trial_type": "single-stim", "stimulus": "<p id=\"stim\">6</p>", "internal_node_id": "0.0-110.0-4.0", "time_elapsed": 905668, "key_press": -1, "trial_index": 150}, "uniqueid": "MTK1647:35K3O9HUACKU4YFWKNH4KR9D51REFD", "dateTime": 1516122624221}, {"current_trial": 151, "trialdata": {"rt": -1, "trial_type": "single-stim", "stimulus": "<p id=\"stim\">5</p>", "internal_node_id": "0.0-110.0-5.0", "time_elapsed": 906670, "key_press": -1, "trial_index": 151}, "uniqueid": "MTK1647:35K3O9HUACKU4YFWKNH4KR9D51REFD", "dateTime": 1516122625224}, {"current_trial": 152, "trialdata": {"rt": -1, "trial_type": "single-stim", "stimulus": "<p id=\"stim\">4</p>", "internal_node_id": "0.0-110.0-6.0", "time_elapsed": 907672, "key_press": -1, "trial_index": 152}, "uniqueid": "MTK1647:35K3O9HUACKU4YFWKNH4KR9D51REFD", "dateTime": 1516122626226}, {"current_trial": 153, "trialdata": {"rt": -1, "trial_type": "single-stim", "stimulus": "<p id=\"stim\">3</p>", "internal_node_id": "0.0-110.0-7.0", "time_elapsed": 908674, "key_press": -1, "trial_index": 153}, "uniqueid": "MTK1647:35K3O9HUACKU4YFWKNH4KR9D51REFD", "dateTime": 1516122627228}, {"current_trial": 154, "trialdata": {"rt": -1, "trial_type": "single-stim", "stimulus": "<p id=\"stim\">2</p>", "internal_node_id": "0.0-110.0-8.0", "time_elapsed": 909676, "key_press": -1, "trial_index": 154}, "uniqueid": "MTK1647:35K3O9HUACKU4YFWKNH4KR9D51REFD", "dateTime": 1516122628230}, {"current_trial": 155, "trialdata": {"rt": -1, "trial_type": "single-stim", "stimulus": "<p id=\"stim\">1</p>", "internal_node_id": "0.0-110.0-9.0", "time_elapsed": 910678, "key_press": -1, "trial_index": 155}, "uniqueid": "MTK1647:35K3O9HUACKU4YFWKNH4KR9D51REFD", "dateTime": 1516122629231}, {"current_trial": 156, "trialdata": {"rt": -1, "trial_type": "single-stim", "stimulus": "<p id=\"stim\">+</p>", "internal_node_id": "0.0-111.0-0.0", "time_elapsed": 912181, "key_press": -1, "type": "FIXATION", "trial_index": 156}, "uniqueid": "MTK1647:35K3O9HUACKU4YFWKNH4KR9D51REFD", "dateTime": 1516122630734}, {"current_trial": 157, "trialdata": {"rt": -1000, "trial_type": "single-audio", "word": "lily", "stimulus": "/static/audio/wordpool/LILY.wav", "conditions": [12, 1600, "a", 12000], "internal_node_id": "0.0-112.0", "trial": 4, "time_elapsed": 914634, "serialpos": 0, "key_press": -1, "wordID": 820, "type": "PRES_AUD", "trial_index": 157}, "uniqueid": "MTK1647:35K3O9HUACKU4YFWKNH4KR9D51REFD", "dateTime": 1516122633188}, {"current_trial": 158, "trialdata": {"rt": -1000, "trial_type": "single-audio", "word": "daisy", "stimulus": "/static/audio/wordpool/DAISY.wav", "conditions": [12, 1600, "a", 12000], "internal_node_id": "0.0-113.0", "trial": 4, "time_elapsed": 917129, "serialpos": 1, "key_press": -1, "wordID": 434, "type": "PRES_AUD", "trial_index": 158}, "uniqueid": "MTK1647:35K3O9HUACKU4YFWKNH4KR9D51REFD", "dateTime": 1516122635682}, {"current_trial": 159, "trialdata": {"rt": -1000, "trial_type": "single-audio", "word": "sidewalk", "stimulus": "/static/audio/wordpool/SIDEWALK.wav", "conditions": [12, 1600, "a", 12000], "internal_node_id": "0.0-114.0", "trial": 4, "time_elapsed": 919807, "serialpos": 2, "key_press": -1, "wordID": 1302, "type": "PRES_AUD", "trial_index": 159}, "uniqueid": "MTK1647:35K3O9HUACKU4YFWKNH4KR9D51REFD", "dateTime": 1516122638360}, {"current_trial": 160, "trialdata": {"rt": -1000, "trial_type": "single-audio", "word": "peach", "stimulus": "/static/audio/wordpool/PEACH.wav", "conditions": [12, 1600, "a", 12000], "internal_node_id": "0.0-115.0", "trial": 4, "time_elapsed": 922321, "serialpos": 3, "key_press": -1, "wordID": 1030, "type": "PRES_AUD", "trial_index": 160}, "uniqueid": "MTK1647:35K3O9HUACKU4YFWKNH4KR9D51REFD", "dateTime": 1516122640874}, {"current_trial": 161, "trialdata": {"rt": -1000, "trial_type": "single-audio", "word": "hedge", "stimulus": "/static/audio/wordpool/HEDGE.wav", "conditions": [12, 1600, "a", 12000], "internal_node_id": "0.0-116.0", "trial": 4, "time_elapsed": 925114, "serialpos": 4, "key_press": -1, "wordID": 698, "type": "PRES_AUD", "trial_index": 161}, "uniqueid": "MTK1647:35K3O9HUACKU4YFWKNH4KR9D51REFD", "dateTime": 1516122643667}, {"current_trial": 162, "trialdata": {"rt": -1000, "trial_type": "single-audio", "word": "ketchup", "stimulus": "/static/audio/wordpool/KETCHUP.wav", "conditions": [12, 1600, "a", 12000], "internal_node_id": "0.0-117.0", "trial": 4, "time_elapsed": 927656, "serialpos": 5, "key_press": -1, "wordID": 770, "type": "PRES_AUD", "trial_index": 162}, "uniqueid": "MTK1647:35K3O9HUACKU4YFWKNH4KR9D51REFD", "dateTime": 1516122646209}, {"current_trial": 163, "trialdata": {"rt": -1000, "trial_type": "single-audio", "word": "costume", "stimulus": "/static/audio/wordpool/COSTUME.wav", "conditions": [12, 1600, "a", 12000], "internal_node_id": "0.0-118.0", "trial": 4, "time_elapsed": 930275, "serialpos": 6, "key_press": -1, "wordID": 382, "type": "PRES_AUD", "trial_index": 163}, "uniqueid": "MTK1647:35K3O9HUACKU4YFWKNH4KR9D51REFD", "dateTime": 1516122648828}, {"current_trial": 164, "trialdata": {"rt": -1000, "trial_type": "single-audio", "word": "cocktail", "stimulus": "/static/audio/wordpool/COCKTAIL.wav", "conditions": [12, 1600, "a", 12000], "internal_node_id": "0.0-119.0", "trial": 4, "time_elapsed": 932951, "serialpos": 7, "key_press": -1, "wordID": 337, "type": "PRES_AUD", "trial_index": 164}, "uniqueid": "MTK1647:35K3O9HUACKU4YFWKNH4KR9D51REFD", "dateTime": 1516122651504}, {"current_trial": 165, "trialdata": {"rt": -1000, "trial_type": "single-audio", "word": "plaza", "stimulus": "/static/audio/wordpool/PLAZA.wav", "conditions": [12, 1600, "a", 12000], "internal_node_id": "0.0-120.0", "trial": 4, "time_elapsed": 935477, "serialpos": 8, "key_press": -1, "wordID": 1087, "type": "PRES_AUD", "trial_index": 165}, "uniqueid": "MTK1647:35K3O9HUACKU4YFWKNH4KR9D51REFD", "dateTime": 1516122654031}, {"current_trial": 166, "trialdata": {"rt": -1000, "trial_type": "single-audio", "word": "wife", "stimulus": "/static/audio/wordpool/WIFE.wav", "conditions": [12, 1600, "a", 12000], "internal_node_id": "0.0-121.0", "trial": 4, "time_elapsed": 938080, "serialpos": 9, "key_press": -1, "wordID": 1608, "type": "PRES_AUD", "trial_index": 166}, "uniqueid": "MTK1647:35K3O9HUACKU4YFWKNH4KR9D51REFD", "dateTime": 1516122656634}, {"current_trial": 167, "trialdata": {"rt": -1000, "trial_type": "single-audio", "word": "cashier", "stimulus": "/static/audio/wordpool/CASHIER.wav", "conditions": [12, 1600, "a", 12000], "internal_node_id": "0.0-122.0", "trial": 4, "time_elapsed": 940768, "serialpos": 10, "key_press": -1, "wordID": 253, "type": "PRES_AUD", "trial_index": 167}, "uniqueid": "MTK1647:35K3O9HUACKU4YFWKNH4KR9D51REFD", "dateTime": 1516122659321}, {"current_trial": 168, "trialdata": {"rt": -1000, "trial_type": "single-audio", "word": "table", "stimulus": "/static/audio/wordpool/TABLE.wav", "conditions": [12, 1600, "a", 12000], "internal_node_id": "0.0-123.0", "trial": 4, "time_elapsed": 943337, "serialpos": 11, "key_press": -1, "wordID": 1425, "type": "PRES_AUD", "trial_index": 168}, "uniqueid": "MTK1647:35K3O9HUACKU4YFWKNH4KR9D51REFD", "dateTime": 1516122661890}, {"current_trial": 169, "trialdata": {"rt": -1, "trial_type": "single-stim", "stimulus": "", "internal_node_id": "0.0-124.0-0.0", "time_elapsed": 944720, "key_press": -1, "type": "PRE_RECALL_DELAY", "trial_index": 169}, "uniqueid": "MTK1647:35K3O9HUACKU4YFWKNH4KR9D51REFD", "dateTime": 1516122663275}, {"current_trial": 170, "trialdata": {"rt": -1000, "trial_type": "single-audio", "stimulus": "/static/audio/400Hz.wav", "internal_node_id": "0.0-125.0", "time_elapsed": 945224, "key_press": -1, "type": "PRE_RECALL_ALERT", "trial_index": 170}, "uniqueid": "MTK1647:35K3O9HUACKU4YFWKNH4KR9D51REFD", "dateTime": 1516122663777}, {"current_trial": 171, "trialdata": {"rt": [6375, 8964, 11815, 13632, 16515, 19621, 21635, 24302, 28437, 29884, 33255, 36436], "recwords": ["louie", "daisy", "sidewalk", "peach", "waitress", "cashier", "wife", "table", "ketchup", "costume", "cocktail", "plaza"], "key_times": [4522, 5030, 5270, 5455, 5910, 6375, 7025, 7120, 7335, 7423, 7711, 8041, 8135, 8964, 10387, 10559, 10695, 10858, 11077, 11262, 11478, 11525, 11815, 12576, 12720, 12825, 13100, 13279, 13632, 14432, 14554, 14819, 14930, 15192, 15383, 15709, 15842, 16515, 16926, 17136, 17363, 17463, 17603, 17912, 18299, 18440, 18813, 18943, 19053, 19621, 20161, 20636, 20905, 20988, 21635, 23463, 23658, 23819, 24048, 24164, 24302, 26754, 26862, 27026, 27323, 27394, 27600, 27809, 28437, 28772, 28877, 29035, 29254, 29408, 29628, 29702, 29884, 31548, 31756, 32049, 32209, 32501, 32693, 32804, 32961, 33255, 33776, 33870, 33996, 34395, 34767, 34856, 35121, 36436], "trial_type": "free-recall", "conditions": [12, 1600, "a", 12000], "internal_node_id": "0.0-126.0-0.0", "key_presses": [76, 79, 85, 73, 69, 188, 68, 65, 73, 83, 84, 8, 89, 188, 83, 73, 68, 69, 87, 65, 76, 75, 188, 80, 69, 65, 67, 72, 188, 87, 65, 73, 84, 82, 69, 83, 83, 188, 67, 65, 83, 72, 69, 73, 8, 8, 73, 69, 82, 188, 87, 73, 70, 69, 188, 84, 65, 66, 76, 69, 188, 75, 69, 84, 67, 72, 85, 80, 188, 67, 79, 83, 84, 85, 77, 69, 188, 67, 79, 67, 75, 84, 65, 73, 76, 188, 80, 76, 65, 88, 8, 90, 65, 188], "trial": 4, "time_elapsed": 1005231, "type": "FREE_RECALL", "trial_index": 171}, "uniqueid": "MTK1647:35K3O9HUACKU4YFWKNH4KR9D51REFD", "dateTime": 1516122723791}, {"current_trial": 172, "trialdata": {"rt": 520, "trial_type": "text", "internal_node_id": "0.0-127.0", "time_elapsed": 1007759, "key_press": 32, "type": "INSTRUCTIONS", "trial_index": 172}, "uniqueid": "MTK1647:35K3O9HUACKU4YFWKNH4KR9D51REFD", "dateTime": 1516122726312}, {"current_trial": 173, "trialdata": {"rt": [4450, 9283, 14139, 17132, 19523, 22433], "trial_type": "math-distractor", "key_times": [3725, 3982, 4450, 9046, 9166, 9283, 13632, 13706, 14139, 16826, 16879, 17132, 19228, 19438, 19523, 22344, 22433], "responses": ["18", "11", "18", "13", "14", "6"], "num2": [8, 2, 7, 8, 5, 2, 9], "num3": [2, 3, 3, 4, 2, 3, 2], "conditions": [12, 1600, "a", 24000], "internal_node_id": "0.0-128.0", "key_presses": [49, 56, 13, 49, 49, 13, 49, 56, 13, 49, 51, 13, 49, 52, 13, 54, 13], "trial": 5, "time_elapsed": 1033766, "type": "DISTRACTOR", "trial_index": 173, "num1": [8, 6, 8, 1, 6, 1, 4]}, "uniqueid": "MTK1647:35K3O9HUACKU4YFWKNH4KR9D51REFD", "dateTime": 1516122752319}, {"current_trial": 174, "trialdata": {"rt": -1, "trial_type": "single-stim", "stimulus": "<p id=\"stim\">10</p>", "internal_node_id": "0.0-129.0-0.0", "time_elapsed": 1036770, "key_press": -1, "trial_index": 174}, "uniqueid": "MTK1647:35K3O9HUACKU4YFWKNH4KR9D51REFD", "dateTime": 1516122755323}, {"current_trial": 175, "trialdata": {"rt": -1, "trial_type": "single-stim", "stimulus": "<p id=\"stim\">9</p>", "internal_node_id": "0.0-129.0-1.0", "time_elapsed": 1037772, "key_press": -1, "trial_index": 175}, "uniqueid": "MTK1647:35K3O9HUACKU4YFWKNH4KR9D51REFD", "dateTime": 1516122756325}, {"current_trial": 176, "trialdata": {"rt": -1, "trial_type": "single-stim", "stimulus": "<p id=\"stim\">8</p>", "internal_node_id": "0.0-129.0-2.0", "time_elapsed": 1038774, "key_press": -1, "trial_index": 176}, "uniqueid": "MTK1647:35K3O9HUACKU4YFWKNH4KR9D51REFD", "dateTime": 1516122757327}, {"current_trial": 177, "trialdata": {"rt": -1, "trial_type": "single-stim", "stimulus": "<p id=\"stim\">7</p>", "internal_node_id": "0.0-129.0-3.0", "time_elapsed": 1039776, "key_press": -1, "trial_index": 177}, "uniqueid": "MTK1647:35K3O9HUACKU4YFWKNH4KR9D51REFD", "dateTime": 1516122758329}, {"current_trial": 178, "trialdata": {"rt": -1, "trial_type": "single-stim", "stimulus": "<p id=\"stim\">6</p>", "internal_node_id": "0.0-129.0-4.0", "time_elapsed": 1040778, "key_press": -1, "trial_index": 178}, "uniqueid": "MTK1647:35K3O9HUACKU4YFWKNH4KR9D51REFD", "dateTime": 1516122759331}, {"current_trial": 179, "trialdata": {"rt": -1, "trial_type": "single-stim", "stimulus": "<p id=\"stim\">5</p>", "internal_node_id": "0.0-129.0-5.0", "time_elapsed": 1041780, "key_press": -1, "trial_index": 179}, "uniqueid": "MTK1647:35K3O9HUACKU4YFWKNH4KR9D51REFD", "dateTime": 1516122760333}, {"current_trial": 180, "trialdata": {"rt": -1, "trial_type": "single-stim", "stimulus": "<p id=\"stim\">4</p>", "internal_node_id": "0.0-129.0-6.0", "time_elapsed": 1042782, "key_press": -1, "trial_index": 180}, "uniqueid": "MTK1647:35K3O9HUACKU4YFWKNH4KR9D51REFD", "dateTime": 1516122761335}, {"current_trial": 181, "trialdata": {"rt": -1, "trial_type": "single-stim", "stimulus": "<p id=\"stim\">3</p>", "internal_node_id": "0.0-129.0-7.0", "time_elapsed": 1043784, "key_press": -1, "trial_index": 181}, "uniqueid": "MTK1647:35K3O9HUACKU4YFWKNH4KR9D51REFD", "dateTime": 1516122762337}, {"current_trial": 182, "trialdata": {"rt": -1, "trial_type": "single-stim", "stimulus": "<p id=\"stim\">2</p>", "internal_node_id": "0.0-129.0-8.0", "time_elapsed": 1044786, "key_press": -1, "trial_index": 182}, "uniqueid": "MTK1647:35K3O9HUACKU4YFWKNH4KR9D51REFD", "dateTime": 1516122763339}, {"current_trial": 183, "trialdata": {"rt": -1, "trial_type": "single-stim", "stimulus": "<p id=\"stim\">1</p>", "internal_node_id": "0.0-129.0-9.0", "time_elapsed": 1045788, "key_press": -1, "trial_index": 183}, "uniqueid": "MTK1647:35K3O9HUACKU4YFWKNH4KR9D51REFD", "dateTime": 1516122764341}, {"current_trial": 184, "trialdata": {"rt": -1, "trial_type": "single-stim", "stimulus": "<p id=\"stim\">+</p>", "internal_node_id": "0.0-130.0-0.0", "time_elapsed": 1047290, "key_press": -1, "type": "FIXATION", "trial_index": 184}, "uniqueid": "MTK1647:35K3O9HUACKU4YFWKNH4KR9D51REFD", "dateTime": 1516122765843}, {"current_trial": 185, "trialdata": {"rt": -1000, "trial_type": "single-audio", "word": "tweezers", "stimulus": "/static/audio/wordpool/TWEEZERS.wav", "conditions": [12, 1600, "a", 24000], "internal_node_id": "0.0-131.0", "trial": 5, "time_elapsed": 1049856, "serialpos": 0, "key_press": -1, "wordID": 1525, "type": "PRES_AUD", "trial_index": 185}, "uniqueid": "MTK1647:35K3O9HUACKU4YFWKNH4KR9D51REFD", "dateTime": 1516122768409}, {"current_trial": 186, "trialdata": {"rt": -1000, "trial_type": "single-audio", "word": "rabbit", "stimulus": "/static/audio/wordpool/RABBIT.wav", "conditions": [12, 1600, "a", 24000], "internal_node_id": "0.0-132.0", "trial": 5, "time_elapsed": 1052348, "serialpos": 1, "key_press": -1, "wordID": 1151, "type": "PRES_AUD", "trial_index": 186}, "uniqueid": "MTK1647:35K3O9HUACKU4YFWKNH4KR9D51REFD", "dateTime": 1516122770901}, {"current_trial": 187, "trialdata": {"rt": -1000, "trial_type": "single-audio", "word": "tortoise", "stimulus": "/static/audio/wordpool/TORTOISE.wav", "conditions": [12, 1600, "a", 24000], "internal_node_id": "0.0-133.0", "trial": 5, "time_elapsed": 1055002, "serialpos": 2, "key_press": -1, "wordID": 1485, "type": "PRES_AUD", "trial_index": 187}, "uniqueid": "MTK1647:35K3O9HUACKU4YFWKNH4KR9D51REFD", "dateTime": 1516122773555}, {"current_trial": 188, "trialdata": {"rt": -1000, "trial_type": "single-audio", "word": "climber", "stimulus": "/static/audio/wordpool/CLIMBER.wav", "conditions": [12, 1600, "a", 24000], "internal_node_id": "0.0-134.0", "trial": 5, "time_elapsed": 1057442, "serialpos": 3, "key_press": -1, "wordID": 322, "type": "PRES_AUD", "trial_index": 188}, "uniqueid": "MTK1647:35K3O9HUACKU4YFWKNH4KR9D51REFD", "dateTime": 1516122775995}, {"current_trial": 189, "trialdata": {"rt": -1000, "trial_type": "single-audio", "word": "loft", "stimulus": "/static/audio/wordpool/LOFT.wav", "conditions": [12, 1600, "a", 24000], "internal_node_id": "0.0-135.0", "trial": 5, "time_elapsed": 1060001, "serialpos": 4, "key_press": -1, "wordID": 839, "type": "PRES_AUD", "trial_index": 189}, "uniqueid": "MTK1647:35K3O9HUACKU4YFWKNH4KR9D51REFD", "dateTime": 1516122778554}, {"current_trial": 190, "trialdata": {"rt": -1000, "trial_type": "single-audio", "word": "pigeon", "stimulus": "/static/audio/wordpool/PIGEON.wav", "conditions": [12, 1600, "a", 24000], "internal_node_id": "0.0-136.0", "trial": 5, "time_elapsed": 1062770, "serialpos": 5, "key_press": -1, "wordID": 1064, "type": "PRES_AUD", "trial_index": 190}, "uniqueid": "MTK1647:35K3O9HUACKU4YFWKNH4KR9D51REFD", "dateTime": 1516122781324}, {"current_trial": 191, "trialdata": {"rt": -1000, "trial_type": "single-audio", "word": "pliers", "stimulus": "/static/audio/wordpool/PLIERS.wav", "conditions": [12, 1600, "a", 24000], "internal_node_id": "0.0-137.0", "trial": 5, "time_elapsed": 1065389, "serialpos": 6, "key_press": -1, "wordID": 1088, "type": "PRES_AUD", "trial_index": 191}, "uniqueid": "MTK1647:35K3O9HUACKU4YFWKNH4KR9D51REFD", "dateTime": 1516122783943}, {"current_trial": 192, "trialdata": {"rt": -1000, "trial_type": "single-audio", "word": "freckle", "stimulus": "/static/audio/wordpool/FRECKLE.wav", "conditions": [12, 1600, "a", 24000], "internal_node_id": "0.0-138.0", "trial": 5, "time_elapsed": 1068025, "serialpos": 7, "key_press": -1, "wordID": 601, "type": "PRES_AUD", "trial_index": 192}, "uniqueid": "MTK1647:35K3O9HUACKU4YFWKNH4KR9D51REFD", "dateTime": 1516122786578}, {"current_trial": 193, "trialdata": {"rt": -1000, "trial_type": "single-audio", "word": "apron", "stimulus": "/static/audio/wordpool/APRON.wav", "conditions": [12, 1600, "a", 24000], "internal_node_id": "0.0-139.0", "trial": 5, "time_elapsed": 1070705, "serialpos": 8, "key_press": -1, "wordID": 34, "type": "PRES_AUD", "trial_index": 193}, "uniqueid": "MTK1647:35K3O9HUACKU4YFWKNH4KR9D51REFD", "dateTime": 1516122789258}, {"current_trial": 194, "trialdata": {"rt": -1000, "trial_type": "single-audio", "word": "turnip", "stimulus": "/static/audio/wordpool/TURNIP.wav", "conditions": [12, 1600, "a", 24000], "internal_node_id": "0.0-140.0", "trial": 5, "time_elapsed": 1073268, "serialpos": 9, "key_press": -1, "wordID": 1520, "type": "PRES_AUD", "trial_index": 194}, "uniqueid": "MTK1647:35K3O9HUACKU4YFWKNH4KR9D51REFD", "dateTime": 1516122791821}, {"current_trial": 195, "trialdata": {"rt": -1000, "trial_type": "single-audio", "word": "marker", "stimulus": "/static/audio/wordpool/MARKER.wav", "conditions": [12, 1600, "a", 24000], "internal_node_id": "0.0-141.0", "trial": 5, "time_elapsed": 1075929, "serialpos": 10, "key_press": -1, "wordID": 869, "type": "PRES_AUD", "trial_index": 195}, "uniqueid": "MTK1647:35K3O9HUACKU4YFWKNH4KR9D51REFD", "dateTime": 1516122794482}, {"current_trial": 196, "trialdata": {"rt": -1000, "trial_type": "single-audio", "word": "crib", "stimulus": "/static/audio/wordpool/CRIB.wav", "conditions": [12, 1600, "a", 24000], "internal_node_id": "0.0-142.0", "trial": 5, "time_elapsed": 1078465, "serialpos": 11, "key_press": -1, "wordID": 406, "type": "PRES_AUD", "trial_index": 196}, "uniqueid": "MTK1647:35K3O9HUACKU4YFWKNH4KR9D51REFD", "dateTime": 1516122797020}, {"current_trial": 197, "trialdata": {"rt": -1, "trial_type": "single-stim", "stimulus": "", "internal_node_id": "0.0-143.0-0.0", "time_elapsed": 1079698, "key_press": -1, "type": "PRE_RECALL_DELAY", "trial_index": 197}, "uniqueid": "MTK1647:35K3O9HUACKU4YFWKNH4KR9D51REFD", "dateTime": 1516122798252}, {"current_trial": 198, "trialdata": {"rt": -1000, "trial_type": "single-audio", "stimulus": "/static/audio/400Hz.wav", "internal_node_id": "0.0-144.0", "time_elapsed": 1080200, "key_press": -1, "type": "PRE_RECALL_ALERT", "trial_index": 198}, "uniqueid": "MTK1647:35K3O9HUACKU4YFWKNH4KR9D51REFD", "dateTime": 1516122798754}, {"current_trial": 199, "trialdata": {"rt": [10470, 13700, 15411, 17706, 19413, 29416, 33021, 35717, 42021], "recwords": ["tweezers", "rabbit", "marker", "turnip", "crib", "tortiouse", "loft", "pigeon", "pliers"], "key_times": [8333, 8773, 9017, 9123, 9390, 9644, 9706, 9870, 10470, 11047, 11207, 11717, 11836, 11998, 12097, 12528, 12764, 13135, 13248, 13700, 14053, 14149, 14317, 14528, 14858, 15071, 15183, 15235, 15411, 15988, 16242, 16356, 16543, 17275, 17474, 17706, 18471, 18724, 18874, 19134, 19413, 23697, 23871, 24065, 24112, 26873, 26993, 27244, 27349, 27808, 29416, 32096, 32251, 32666, 32801, 33021, 33664, 33846, 34365, 34752, 34999, 35207, 35717, 39343, 39406, 39692, 40057, 40927, 41115, 42021], "trial_type": "free-recall", "conditions": [12, 1600, "a", 24000], "internal_node_id": "0.0-145.0-0.0", "key_presses": [84, 87, 69, 69, 90, 69, 82, 83, 188, 82, 65, 66, 66, 66, 73, 8, 8, 73, 84, 188, 77, 65, 82, 72, 8, 75, 69, 82, 188, 84, 85, 82, 78, 73, 80, 188, 67, 82, 73, 66, 188, 84, 79, 82, 84, 73, 79, 85, 83, 69, 188, 76, 79, 70, 84, 188, 80, 73, 71, 69, 79, 78, 188, 80, 76, 73, 69, 82, 83, 13], "trial": 5, "time_elapsed": 1140207, "type": "FREE_RECALL", "trial_index": 199}, "uniqueid": "MTK1647:35K3O9HUACKU4YFWKNH4KR9D51REFD", "dateTime": 1516122858768}, {"current_trial": 200, "trialdata": {"rt": 1151, "trial_type": "text", "internal_node_id": "0.0-146.0", "time_elapsed": 1143368, "key_press": 32, "type": "INSTRUCTIONS", "trial_index": 200}, "uniqueid": "MTK1647:35K3O9HUACKU4YFWKNH4KR9D51REFD", "dateTime": 1516122861921}, {"current_trial": 201, "trialdata": {"rt": [7353, 9540], "trial_type": "math-distractor", "key_times": [5852, 6162, 7353, 9357, 9540], "responses": ["14", "6"], "num2": [5, 4, 2], "num3": [3, 1, 2], "conditions": [12, 800, "a", 12000], "internal_node_id": "0.0-147.0", "key_presses": [49, 52, 13, 54, 13], "trial": 6, "time_elapsed": 1157375, "type": "DISTRACTOR", "trial_index": 201, "num1": [6, 1, 3]}, "uniqueid": "MTK1647:35K3O9HUACKU4YFWKNH4KR9D51REFD", "dateTime": 1516122875929}, {"current_trial": 202, "trialdata": {"rt": -1, "trial_type": "single-stim", "stimulus": "<p id=\"stim\">10</p>", "internal_node_id": "0.0-148.0-0.0", "time_elapsed": 1160378, "key_press": -1, "trial_index": 202}, "uniqueid": "MTK1647:35K3O9HUACKU4YFWKNH4KR9D51REFD", "dateTime": 1516122878931}, {"current_trial": 203, "trialdata": {"rt": -1, "trial_type": "single-stim", "stimulus": "<p id=\"stim\">9</p>", "internal_node_id": "0.0-148.0-1.0", "time_elapsed": 1161380, "key_press": -1, "trial_index": 203}, "uniqueid": "MTK1647:35K3O9HUACKU4YFWKNH4KR9D51REFD", "dateTime": 1516122879933}, {"current_trial": 204, "trialdata": {"rt": -1, "trial_type": "single-stim", "stimulus": "<p id=\"stim\">8</p>", "internal_node_id": "0.0-148.0-2.0", "time_elapsed": 1162382, "key_press": -1, "trial_index": 204}, "uniqueid": "MTK1647:35K3O9HUACKU4YFWKNH4KR9D51REFD", "dateTime": 1516122880935}, {"current_trial": 205, "trialdata": {"rt": -1, "trial_type": "single-stim", "stimulus": "<p id=\"stim\">7</p>", "internal_node_id": "0.0-148.0-3.0", "time_elapsed": 1163384, "key_press": -1, "trial_index": 205}, "uniqueid": "MTK1647:35K3O9HUACKU4YFWKNH4KR9D51REFD", "dateTime": 1516122881937}, {"current_trial": 206, "trialdata": {"rt": -1, "trial_type": "single-stim", "stimulus": "<p id=\"stim\">6</p>", "internal_node_id": "0.0-148.0-4.0", "time_elapsed": 1164386, "key_press": -1, "trial_index": 206}, "uniqueid": "MTK1647:35K3O9HUACKU4YFWKNH4KR9D51REFD", "dateTime": 1516122882940}, {"current_trial": 207, "trialdata": {"rt": -1, "trial_type": "single-stim", "stimulus": "<p id=\"stim\">5</p>", "internal_node_id": "0.0-148.0-5.0", "time_elapsed": 1165388, "key_press": -1, "trial_index": 207}, "uniqueid": "MTK1647:35K3O9HUACKU4YFWKNH4KR9D51REFD", "dateTime": 1516122883943}, {"current_trial": 208, "trialdata": {"rt": -1, "trial_type": "single-stim", "stimulus": "<p id=\"stim\">4</p>", "internal_node_id": "0.0-148.0-6.0", "time_elapsed": 1166392, "key_press": -1, "trial_index": 208}, "uniqueid": "MTK1647:35K3O9HUACKU4YFWKNH4KR9D51REFD", "dateTime": 1516122884945}, {"current_trial": 209, "trialdata": {"rt": -1, "trial_type": "single-stim", "stimulus": "<p id=\"stim\">3</p>", "internal_node_id": "0.0-148.0-7.0", "time_elapsed": 1167394, "key_press": -1, "trial_index": 209}, "uniqueid": "MTK1647:35K3O9HUACKU4YFWKNH4KR9D51REFD", "dateTime": 1516122885947}, {"current_trial": 210, "trialdata": {"rt": -1, "trial_type": "single-stim", "stimulus": "<p id=\"stim\">2</p>", "internal_node_id": "0.0-148.0-8.0", "time_elapsed": 1168396, "key_press": -1, "trial_index": 210}, "uniqueid": "MTK1647:35K3O9HUACKU4YFWKNH4KR9D51REFD", "dateTime": 1516122886949}, {"current_trial": 211, "trialdata": {"rt": -1, "trial_type": "single-stim", "stimulus": "<p id=\"stim\">1</p>", "internal_node_id": "0.0-148.0-9.0", "time_elapsed": 1169398, "key_press": -1, "trial_index": 211}, "uniqueid": "MTK1647:35K3O9HUACKU4YFWKNH4KR9D51REFD", "dateTime": 1516122887951}, {"current_trial": 212, "trialdata": {"rt": -1, "trial_type": "single-stim", "stimulus": "<p id=\"stim\">+</p>", "internal_node_id": "0.0-149.0-0.0", "time_elapsed": 1170901, "key_press": -1, "type": "FIXATION", "trial_index": 212}, "uniqueid": "MTK1647:35K3O9HUACKU4YFWKNH4KR9D51REFD", "dateTime": 1516122889454}, {"current_trial": 213, "trialdata": {"rt": -1000, "trial_type": "single-audio", "word": "forehead", "stimulus": "/static/audio/wordpool/FOREHEAD.wav", "conditions": [12, 800, "a", 12000], "internal_node_id": "0.0-150.0", "trial": 6, "time_elapsed": 1172778, "serialpos": 0, "key_press": -1, "wordID": 591, "type": "PRES_AUD", "trial_index": 213}, "uniqueid": "MTK1647:35K3O9HUACKU4YFWKNH4KR9D51REFD", "dateTime": 1516122891331}, {"current_trial": 214, "trialdata": {"rt": -1000, "trial_type": "single-audio", "word": "muffin", "stimulus": "/static/audio/wordpool/MUFFIN.wav", "conditions": [12, 800, "a", 12000], "internal_node_id": "0.0-151.0", "trial": 6, "time_elapsed": 1174457, "serialpos": 1, "key_press": -1, "wordID": 928, "type": "PRES_AUD", "trial_index": 214}, "uniqueid": "MTK1647:35K3O9HUACKU4YFWKNH4KR9D51REFD", "dateTime": 1516122893010}, {"current_trial": 215, "trialdata": {"rt": -1000, "trial_type": "single-audio", "word": "kitchen", "stimulus": "/static/audio/wordpool/KITCHEN.wav", "conditions": [12, 800, "a", 12000], "internal_node_id": "0.0-152.0", "trial": 6, "time_elapsed": 1176232, "serialpos": 2, "key_press": -1, "wordID": 777, "type": "PRES_AUD", "trial_index": 215}, "uniqueid": "MTK1647:35K3O9HUACKU4YFWKNH4KR9D51REFD", "dateTime": 1516122894786}, {"current_trial": 216, "trialdata": {"rt": -1000, "trial_type": "single-audio", "word": "turkey", "stimulus": "/static/audio/wordpool/TURKEY.wav", "conditions": [12, 800, "a", 12000], "internal_node_id": "0.0-153.0", "trial": 6, "time_elapsed": 1178225, "serialpos": 3, "key_press": -1, "wordID": 1519, "type": "PRES_AUD", "trial_index": 216}, "uniqueid": "MTK1647:35K3O9HUACKU4YFWKNH4KR9D51REFD", "dateTime": 1516122896779}, {"current_trial": 217, "trialdata": {"rt": -1000, "trial_type": "single-audio", "word": "chemist", "stimulus": "/static/audio/wordpool/CHEMIST.wav", "conditions": [12, 800, "a", 12000], "internal_node_id": "0.0-154.0", "trial": 6, "time_elapsed": 1179919, "serialpos": 4, "key_press": -1, "wordID": 291, "type": "PRES_AUD", "trial_index": 217}, "uniqueid": "MTK1647:35K3O9HUACKU4YFWKNH4KR9D51REFD", "dateTime": 1516122898472}, {"current_trial": 218, "trialdata": {"rt": -1000, "trial_type": "single-audio", "word": "europe", "stimulus": "/static/audio/wordpool/EUROPE.wav", "conditions": [12, 800, "a", 12000], "internal_node_id": "0.0-155.0", "trial": 6, "time_elapsed": 1181673, "serialpos": 5, "key_press": -1, "wordID": 540, "type": "PRES_AUD", "trial_index": 218}, "uniqueid": "MTK1647:35K3O9HUACKU4YFWKNH4KR9D51REFD", "dateTime": 1516122900227}, {"current_trial": 219, "trialdata": {"rt": -1000, "trial_type": "single-audio", "word": "asia", "stimulus": "/static/audio/wordpool/ASIA.wav", "conditions": [12, 800, "a", 12000], "internal_node_id": "0.0-156.0", "trial": 6, "time_elapsed": 1183401, "serialpos": 6, "key_press": -1, "wordID": 45, "type": "PRES_AUD", "trial_index": 219}, "uniqueid": "MTK1647:35K3O9HUACKU4YFWKNH4KR9D51REFD", "dateTime": 1516122901954}, {"current_trial": 220, "trialdata": {"rt": -1000, "trial_type": "single-audio", "word": "twig", "stimulus": "/static/audio/wordpool/TWIG.wav", "conditions": [12, 800, "a", 12000], "internal_node_id": "0.0-157.0", "trial": 6, "time_elapsed": 1185101, "serialpos": 7, "key_press": -1, "wordID": 1526, "type": "PRES_AUD", "trial_index": 220}, "uniqueid": "MTK1647:35K3O9HUACKU4YFWKNH4KR9D51REFD", "dateTime": 1516122903654}, {"current_trial": 221, "trialdata": {"rt": -1000, "trial_type": "single-audio", "word": "diner", "stimulus": "/static/audio/wordpool/DINER.wav", "conditions": [12, 800, "a", 12000], "internal_node_id": "0.0-158.0", "trial": 6, "time_elapsed": 1187009, "serialpos": 8, "key_press": -1, "wordID": 466, "type": "PRES_AUD", "trial_index": 221}, "uniqueid": "MTK1647:35K3O9HUACKU4YFWKNH4KR9D51REFD", "dateTime": 1516122905562}, {"current_trial": 222, "trialdata": {"rt": -1000, "trial_type": "single-audio", "word": "cupboard", "stimulus": "/static/audio/wordpool/CUPBOARD.wav", "conditions": [12, 800, "a", 12000], "internal_node_id": "0.0-159.0", "trial": 6, "time_elapsed": 1188904, "serialpos": 9, "key_press": -1, "wordID": 424, "type": "PRES_AUD", "trial_index": 222}, "uniqueid": "MTK1647:35K3O9HUACKU4YFWKNH4KR9D51REFD", "dateTime": 1516122907457}, {"current_trial": 223, "trialdata": {"rt": -1000, "trial_type": "single-audio", "word": "seal", "stimulus": "/static/audio/wordpool/SEAL.wav", "conditions": [12, 800, "a", 12000], "internal_node_id": "0.0-160.0", "trial": 6, "time_elapsed": 1190683, "serialpos": 10, "key_press": -1, "wordID": 1261, "type": "PRES_AUD", "trial_index": 223}, "uniqueid": "MTK1647:35K3O9HUACKU4YFWKNH4KR9D51REFD", "dateTime": 1516122909236}, {"current_trial": 224, "trialdata": {"rt": -1000, "trial_type": "single-audio", "word": "relish", "stimulus": "/static/audio/wordpool/RELISH.wav", "conditions": [12, 800, "a", 12000], "internal_node_id": "0.0-161.0", "trial": 6, "time_elapsed": 1192460, "serialpos": 11, "key_press": -1, "wordID": 1182, "type": "PRES_AUD", "trial_index": 224}, "uniqueid": "MTK1647:35K3O9HUACKU4YFWKNH4KR9D51REFD", "dateTime": 1516122911013}, {"current_trial": 225, "trialdata": {"rt": -1, "trial_type": "single-stim", "stimulus": "", "internal_node_id": "0.0-162.0-0.0", "time_elapsed": 1193848, "key_press": -1, "type": "PRE_RECALL_DELAY", "trial_index": 225}, "uniqueid": "MTK1647:35K3O9HUACKU4YFWKNH4KR9D51REFD", "dateTime": 1516122912401}, {"current_trial": 226, "trialdata": {"rt": -1000, "trial_type": "single-audio", "stimulus": "/static/audio/400Hz.wav", "internal_node_id": "0.0-163.0", "time_elapsed": 1194350, "key_press": -1, "type": "PRE_RECALL_ALERT", "trial_index": 226}, "uniqueid": "MTK1647:35K3O9HUACKU4YFWKNH4KR9D51REFD", "dateTime": 1516122912903}, {"current_trial": 227, "trialdata": {"rt": [5772, 8554, 13019, 14656, 17821, 18572, 25059, 27337, 31786], "recwords": ["forehead", "muffin", "kitchen", "chemist", "europe", "asia", "diner", "cupboard", "relish"], "key_times": [4073, 4253, 4332, 4442, 5133, 5286, 5431, 5542, 5772, 6111, 6338, 6777, 6898, 7032, 8000, 8554, 11373, 11532, 11827, 12131, 12236, 12399, 12473, 13019, 13574, 13697, 13843, 13917, 14097, 14211, 14359, 14656, 15865, 16142, 16491, 17024, 17097, 17564, 17821, 18006, 18127, 18327, 18369, 18572, 24363, 24505, 24694, 24752, 24825, 25059, 25761, 25937, 26170, 26439, 26657, 26786, 27006, 27178, 27337, 27881, 28114, 28289, 28479, 28683, 29401, 29926, 30057, 30157, 30620, 31786], "trial_type": "free-recall", "conditions": [12, 800, "a", 12000], "internal_node_id": "0.0-164.0-0.0", "key_presses": [70, 79, 82, 69, 72, 69, 65, 68, 188, 77, 85, 70, 70, 73, 78, 188, 75, 73, 84, 67, 72, 69, 78, 188, 67, 72, 69, 77, 73, 83, 84, 188, 69, 85, 82, 79, 80, 69, 188, 65, 83, 73, 65, 188, 68, 73, 78, 69, 82, 188, 67, 85, 80, 66, 79, 65, 82, 68, 188, 82, 69, 76, 73, 67, 83, 8, 8, 83, 72, 13], "trial": 6, "time_elapsed": 1254355, "type": "FREE_RECALL", "trial_index": 227}, "uniqueid": "MTK1647:35K3O9HUACKU4YFWKNH4KR9D51REFD", "dateTime": 1516122972918}, {"current_trial": 228, "trialdata": {"rt": 2710, "trial_type": "text", "internal_node_id": "0.0-165.0", "time_elapsed": 1259077, "key_press": 32, "type": "INSTRUCTIONS", "trial_index": 228}, "uniqueid": "MTK1647:35K3O9HUACKU4YFWKNH4KR9D51REFD", "dateTime": 1516122977630}, {"current_trial": 229, "trialdata": {"rt": [4668, 7258, 11023, 16419, 21073], "trial_type": "math-distractor", "key_times": [3719, 4084, 4668, 6903, 7258, 9011, 9430, 9941, 10517, 11023, 15756, 15840, 16419, 20377, 20481, 21073], "responses": ["15", "9", "15", "16", "13"], "num2": [6, 7, 4, 4, 8, 7], "num3": [2, 1, 4, 5, 2, 4], "conditions": [12, 1600, "a", 24000], "internal_node_id": "0.0-166.0", "key_presses": [49, 53, 13, 57, 13, 49, 54, 8, 53, 13, 49, 54, 13, 49, 51, 13], "trial": 7, "time_elapsed": 1285083, "type": "DISTRACTOR", "trial_index": 229, "num1": [7, 1, 6, 7, 3, 2]}, "uniqueid": "MTK1647:35K3O9HUACKU4YFWKNH4KR9D51REFD", "dateTime": 1516123003636}, {"current_trial": 230, "trialdata": {"rt": -1, "trial_type": "single-stim", "stimulus": "<p id=\"stim\">10</p>", "internal_node_id": "0.0-167.0-0.0", "time_elapsed": 1288086, "key_press": -1, "trial_index": 230}, "uniqueid": "MTK1647:35K3O9HUACKU4YFWKNH4KR9D51REFD", "dateTime": 1516123006639}, {"current_trial": 231, "trialdata": {"rt": -1, "trial_type": "single-stim", "stimulus": "<p id=\"stim\">9</p>", "internal_node_id": "0.0-167.0-1.0", "time_elapsed": 1289088, "key_press": -1, "trial_index": 231}, "uniqueid": "MTK1647:35K3O9HUACKU4YFWKNH4KR9D51REFD", "dateTime": 1516123007641}, {"current_trial": 232, "trialdata": {"rt": -1, "trial_type": "single-stim", "stimulus": "<p id=\"stim\">8</p>", "internal_node_id": "0.0-167.0-2.0", "time_elapsed": 1290090, "key_press": -1, "trial_index": 232}, "uniqueid": "MTK1647:35K3O9HUACKU4YFWKNH4KR9D51REFD", "dateTime": 1516123008643}, {"current_trial": 233, "trialdata": {"rt": -1, "trial_type": "single-stim", "stimulus": "<p id=\"stim\">7</p>", "internal_node_id": "0.0-167.0-3.0", "time_elapsed": 1291092, "key_press": -1, "trial_index": 233}, "uniqueid": "MTK1647:35K3O9HUACKU4YFWKNH4KR9D51REFD", "dateTime": 1516123009645}, {"current_trial": 234, "trialdata": {"rt": -1, "trial_type": "single-stim", "stimulus": "<p id=\"stim\">6</p>", "internal_node_id": "0.0-167.0-4.0", "time_elapsed": 1292094, "key_press": -1, "trial_index": 234}, "uniqueid": "MTK1647:35K3O9HUACKU4YFWKNH4KR9D51REFD", "dateTime": 1516123010647}, {"current_trial": 235, "trialdata": {"rt": -1, "trial_type": "single-stim", "stimulus": "<p id=\"stim\">5</p>", "internal_node_id": "0.0-167.0-5.0", "time_elapsed": 1293096, "key_press": -1, "trial_index": 235}, "uniqueid": "MTK1647:35K3O9HUACKU4YFWKNH4KR9D51REFD", "dateTime": 1516123011649}, {"current_trial": 236, "trialdata": {"rt": -1, "trial_type": "single-stim", "stimulus": "<p id=\"stim\">4</p>", "internal_node_id": "0.0-167.0-6.0", "time_elapsed": 1294098, "key_press": -1, "trial_index": 236}, "uniqueid": "MTK1647:35K3O9HUACKU4YFWKNH4KR9D51REFD", "dateTime": 1516123012651}, {"current_trial": 237, "trialdata": {"rt": -1, "trial_type": "single-stim", "stimulus": "<p id=\"stim\">3</p>", "internal_node_id": "0.0-167.0-7.0", "time_elapsed": 1295100, "key_press": -1, "trial_index": 237}, "uniqueid": "MTK1647:35K3O9HUACKU4YFWKNH4KR9D51REFD", "dateTime": 1516123013653}, {"current_trial": 238, "trialdata": {"rt": -1, "trial_type": "single-stim", "stimulus": "<p id=\"stim\">2</p>", "internal_node_id": "0.0-167.0-8.0", "time_elapsed": 1296102, "key_press": -1, "trial_index": 238}, "uniqueid": "MTK1647:35K3O9HUACKU4YFWKNH4KR9D51REFD", "dateTime": 1516123014655}, {"current_trial": 239, "trialdata": {"rt": -1, "trial_type": "single-stim", "stimulus": "<p id=\"stim\">1</p>", "internal_node_id": "0.0-167.0-9.0", "time_elapsed": 1297104, "key_press": -1, "trial_index": 239}, "uniqueid": "MTK1647:35K3O9HUACKU4YFWKNH4KR9D51REFD", "dateTime": 1516123015658}, {"current_trial": 240, "trialdata": {"rt": -1, "trial_type": "single-stim", "stimulus": "<p id=\"stim\">+</p>", "internal_node_id": "0.0-168.0-0.0", "time_elapsed": 1298606, "key_press": -1, "type": "FIXATION", "trial_index": 240}, "uniqueid": "MTK1647:35K3O9HUACKU4YFWKNH4KR9D51REFD", "dateTime": 1516123017160}, {"current_trial": 241, "trialdata": {"rt": -1000, "trial_type": "single-audio", "word": "neutron", "stimulus": "/static/audio/wordpool/NEUTRON.wav", "conditions": [12, 1600, "a", 24000], "internal_node_id": "0.0-169.0", "trial": 7, "time_elapsed": 1301384, "serialpos": 0, "key_press": -1, "wordID": 946, "type": "PRES_AUD", "trial_index": 241}, "uniqueid": "MTK1647:35K3O9HUACKU4YFWKNH4KR9D51REFD", "dateTime": 1516123019937}, {"current_trial": 242, "trialdata": {"rt": -1000, "trial_type": "single-audio", "word": "bug", "stimulus": "/static/audio/wordpool/BUG.wav", "conditions": [12, 1600, "a", 24000], "internal_node_id": "0.0-170.0", "trial": 7, "time_elapsed": 1304144, "serialpos": 1, "key_press": -1, "wordID": 186, "type": "PRES_AUD", "trial_index": 242}, "uniqueid": "MTK1647:35K3O9HUACKU4YFWKNH4KR9D51REFD", "dateTime": 1516123022698}, {"current_trial": 243, "trialdata": {"rt": -1000, "trial_type": "single-audio", "word": "virus", "stimulus": "/static/audio/wordpool/VIRUS.wav", "conditions": [12, 1600, "a", 24000], "internal_node_id": "0.0-171.0", "trial": 7, "time_elapsed": 1306731, "serialpos": 2, "key_press": -1, "wordID": 1571, "type": "PRES_AUD", "trial_index": 243}, "uniqueid": "MTK1647:35K3O9HUACKU4YFWKNH4KR9D51REFD", "dateTime": 1516123025285}, {"current_trial": 244, "trialdata": {"rt": -1000, "trial_type": "single-audio", "word": "cousin", "stimulus": "/static/audio/wordpool/COUSIN.wav", "conditions": [12, 1600, "a", 24000], "internal_node_id": "0.0-172.0", "trial": 7, "time_elapsed": 1309451, "serialpos": 3, "key_press": -1, "wordID": 391, "type": "PRES_AUD", "trial_index": 244}, "uniqueid": "MTK1647:35K3O9HUACKU4YFWKNH4KR9D51REFD", "dateTime": 1516123028007}, {"current_trial": 245, "trialdata": {"rt": -1000, "trial_type": "single-audio", "word": "denim", "stimulus": "/static/audio/wordpool/DENIM.wav", "conditions": [12, 1600, "a", 24000], "internal_node_id": "0.0-173.0", "trial": 7, "time_elapsed": 1312246, "serialpos": 4, "key_press": -1, "wordID": 445, "type": "PRES_AUD", "trial_index": 245}, "uniqueid": "MTK1647:35K3O9HUACKU4YFWKNH4KR9D51REFD", "dateTime": 1516123030799}, {"current_trial": 246, "trialdata": {"rt": -1000, "trial_type": "single-audio", "word": "bubble", "stimulus": "/static/audio/wordpool/BUBBLE.wav", "conditions": [12, 1600, "a", 24000], "internal_node_id": "0.0-174.0", "trial": 7, "time_elapsed": 1315024, "serialpos": 5, "key_press": -1, "wordID": 182, "type": "PRES_AUD", "trial_index": 246}, "uniqueid": "MTK1647:35K3O9HUACKU4YFWKNH4KR9D51REFD", "dateTime": 1516123033577}, {"current_trial": 247, "trialdata": {"rt": -1000, "trial_type": "single-audio", "word": "empire", "stimulus": "/static/audio/wordpool/EMPIRE.wav", "conditions": [12, 1600, "a", 24000], "internal_node_id": "0.0-175.0", "trial": 7, "time_elapsed": 1317676, "serialpos": 6, "key_press": -1, "wordID": 529, "type": "PRES_AUD", "trial_index": 247}, "uniqueid": "MTK1647:35K3O9HUACKU4YFWKNH4KR9D51REFD", "dateTime": 1516123036229}, {"current_trial": 248, "trialdata": {"rt": -1000, "trial_type": "single-audio", "word": "lace", "stimulus": "/static/audio/wordpool/LACE.wav