{"assignmentId": "3G5W44VEU8P34Y31RTYP07MUQ2CGK1", "workerId": "MTK1610", "questiondata": {"origin": "United States", "strat-rehearsal": "30", "marital": "Single", "education": "Master's degree", "ethnicity": "Hispanic", "color_depth": 24, "distracted": "No", "wrote-notes": "No", "strat-other": "Repeating the words as I heard them said.", "screen_width": 1920, "avail_screen_width": 1920, "avail_screen_height": 1040, "strat-image": "0", "language": "English", "gender": "Female", "age": "58", "gender_other": "", "race": ["Black"], "strat-categorize": "100", "pixel_depth": 24, "strat-spatial": "0", "strat-story": "0", "race_other": "", "screen_height": 1080}, "bonus": 0, "hitId": "3XUY87HIVPLWZC1WX64Y352BTMJMMD", "counterbalance": 1991, "useragent": "Mozilla/5.0 (Windows NT 10.0; Win64; x64) AppleWebKit/537.36 (KHTML, like Gecko) Chrome/63.0.3239.132 Safari/537.36", "eventdata": [{"eventtype": "initialized", "interval": 0, "value": null, "timestamp": 1516043842509}, {"eventtype": "window_resize", "interval": 1, "value": [1920, 1033], "timestamp": 1516043842510}, {"eventtype": "focus", "interval": 59509, "value": "off", "timestamp": 1516043902019}, {"eventtype": "focus", "interval": 17078, "value": "on", "timestamp": 1516043919097}], "data": [{"current_trial": 0, "trialdata": {"rt": 3356, "trial_type": "text", "internal_node_id": "0.0-0.0", "time_elapsed": 3362, "key_press": 13, "type": "INSTRUCTIONS", "trial_index": 0}, "uniqueid": "MTK1610:3G5W44VEU8P34Y31RTYP07MUQ2CGK1", "dateTime": 1516043865657}, {"current_trial": 1, "trialdata": {"rt": 27527, "trial_type": "text", "internal_node_id": "0.0-1.0", "time_elapsed": 30896, "key_press": 13, "type": "INSTRUCTIONS", "trial_index": 1}, "uniqueid": "MTK1610:3G5W44VEU8P34Y31RTYP07MUQ2CGK1", "dateTime": 1516043893188}, {"current_trial": 2, "trialdata": {"rt": [34243], "trial_type": "audio-test", "responses": ["ocean"], "internal_node_id": "0.0-2.0", "time_elapsed": 65169, "type": "AUDIO_TEST", "trial_index": 2}, "uniqueid": "MTK1610:3G5W44VEU8P34Y31RTYP07MUQ2CGK1", "dateTime": 1516043927462}, {"current_trial": 3, "trialdata": {"rt": [12835], "trial_type": "audio-test", "responses": ["crystal"], "internal_node_id": "0.0-3.0", "time_elapsed": 78018, "type": "AUDIO_TEST", "trial_index": 3}, "uniqueid": "MTK1610:3G5W44VEU8P34Y31RTYP07MUQ2CGK1", "dateTime": 1516043940310}, {"current_trial": 4, "trialdata": {"rt": [8043], "trial_type": "audio-test", "responses": ["spice"], "internal_node_id": "0.0-4.0", "time_elapsed": 86074, "type": "AUDIO_TEST", "trial_index": 4}, "uniqueid": "MTK1610:3G5W44VEU8P34Y31RTYP07MUQ2CGK1", "dateTime": 1516043948366}, {"current_trial": 5, "trialdata": {"rt": 38497, "trial_type": "survey-text", "responses": "{\"Q0\":\"12 midnight\",\"Q1\":\"8:30 AM\",\"Q2\":\"5\"}", "internal_node_id": "0.0-5.0", "time_elapsed": 125334, "type": "SLEEP_SURVEY", "trial_index": 5}, "uniqueid": "MTK1610:3G5W44VEU8P34Y31RTYP07MUQ2CGK1", "dateTime": 1516043987626}, {"current_trial": 6, "trialdata": {"rt": 62802, "trial_type": "text", "internal_node_id": "0.0-6.0", "time_elapsed": 189141, "key_press": 13, "type": "INSTRUCTIONS", "trial_index": 6}, "uniqueid": "MTK1610:3G5W44VEU8P34Y31RTYP07MUQ2CGK1", "dateTime": 1516044051433}, {"current_trial": 7, "trialdata": {"rt": 32402, "trial_type": "text", "internal_node_id": "0.0-7.0", "time_elapsed": 222046, "key_press": 13, "type": "INSTRUCTIONS", "trial_index": 7}, "uniqueid": "MTK1610:3G5W44VEU8P34Y31RTYP07MUQ2CGK1", "dateTime": 1516044084338}, {"current_trial": 8, "trialdata": {"rt": 17473, "trial_type": "text", "internal_node_id": "0.0-8.0", "time_elapsed": 240022, "key_press": 13, "type": "INSTRUCTIONS", "trial_index": 8}, "uniqueid": "MTK1610:3G5W44VEU8P34Y31RTYP07MUQ2CGK1", "dateTime": 1516044102314}, {"current_trial": 9, "trialdata": {"rt": [5153, 13081], "trial_type": "math-distractor", "key_times": [4010, 4177, 5153, 11674, 12025, 13081], "responses": ["11", "15"], "num2": [9, 7, 9], "num3": [1, 2, 1], "conditions": [18, 1200, "a", 18000], "internal_node_id": "0.0-9.0", "key_presses": [49, 49, 13, 49, 53, 13], "trial": 0, "time_elapsed": 259051, "type": "DISTRACTOR", "trial_index": 9, "num1": [1, 6, 2]}, "uniqueid": "MTK1610:3G5W44VEU8P34Y31RTYP07MUQ2CGK1", "dateTime": 1516044121344}, {"current_trial": 10, "trialdata": {"rt": -1, "trial_type": "single-stim", "stimulus": "<p id=\"stim\">10</p>", "internal_node_id": "0.0-10.0-0.0", "time_elapsed": 262062, "key_press": -1, "trial_index": 10}, "uniqueid": "MTK1610:3G5W44VEU8P34Y31RTYP07MUQ2CGK1", "dateTime": 1516044124355}, {"current_trial": 11, "trialdata": {"rt": -1, "trial_type": "single-stim", "stimulus": "<p id=\"stim\">9</p>", "internal_node_id": "0.0-10.0-1.0", "time_elapsed": 263068, "key_press": -1, "trial_index": 11}, "uniqueid": "MTK1610:3G5W44VEU8P34Y31RTYP07MUQ2CGK1", "dateTime": 1516044125361}, {"current_trial": 12, "trialdata": {"rt": -1, "trial_type": "single-stim", "stimulus": "<p id=\"stim\">8</p>", "internal_node_id": "0.0-10.0-2.0", "time_elapsed": 264074, "key_press": -1, "trial_index": 12}, "uniqueid": "MTK1610:3G5W44VEU8P34Y31RTYP07MUQ2CGK1", "dateTime": 1516044126366}, {"current_trial": 13, "trialdata": {"rt": -1, "trial_type": "single-stim", "stimulus": "<p id=\"stim\">7</p>", "internal_node_id": "0.0-10.0-3.0", "time_elapsed": 265079, "key_press": -1, "trial_index": 13}, "uniqueid": "MTK1610:3G5W44VEU8P34Y31RTYP07MUQ2CGK1", "dateTime": 1516044127372}, {"current_trial": 14, "trialdata": {"rt": -1, "trial_type": "single-stim", "stimulus": "<p id=\"stim\">6</p>", "internal_node_id": "0.0-10.0-4.0", "time_elapsed": 266084, "key_press": -1, "trial_index": 14}, "uniqueid": "MTK1610:3G5W44VEU8P34Y31RTYP07MUQ2CGK1", "dateTime": 1516044128377}, {"current_trial": 15, "trialdata": {"rt": -1, "trial_type": "single-stim", "stimulus": "<p id=\"stim\">5</p>", "internal_node_id": "0.0-10.0-5.0", "time_elapsed": 267093, "key_press": -1, "trial_index": 15}, "uniqueid": "MTK1610:3G5W44VEU8P34Y31RTYP07MUQ2CGK1", "dateTime": 1516044129386}, {"current_trial": 16, "trialdata": {"rt": -1, "trial_type": "single-stim", "stimulus": "<p id=\"stim\">4</p>", "internal_node_id": "0.0-10.0-6.0", "time_elapsed": 268099, "key_press": -1, "trial_index": 16}, "uniqueid": "MTK1610:3G5W44VEU8P34Y31RTYP07MUQ2CGK1", "dateTime": 1516044130391}, {"current_trial": 17, "trialdata": {"rt": -1, "trial_type": "single-stim", "stimulus": "<p id=\"stim\">3</p>", "internal_node_id": "0.0-10.0-7.0", "time_elapsed": 269103, "key_press": -1, "trial_index": 17}, "uniqueid": "MTK1610:3G5W44VEU8P34Y31RTYP07MUQ2CGK1", "dateTime": 1516044131396}, {"current_trial": 18, "trialdata": {"rt": -1, "trial_type": "single-stim", "stimulus": "<p id=\"stim\">2</p>", "internal_node_id": "0.0-10.0-8.0", "time_elapsed": 270107, "key_press": -1, "trial_index": 18}, "uniqueid": "MTK1610:3G5W44VEU8P34Y31RTYP07MUQ2CGK1", "dateTime": 1516044132400}, {"current_trial": 19, "trialdata": {"rt": -1, "trial_type": "single-stim", "stimulus": "<p id=\"stim\">1</p>", "internal_node_id": "0.0-10.0-9.0", "time_elapsed": 271112, "key_press": -1, "trial_index": 19}, "uniqueid": "MTK1610:3G5W44VEU8P34Y31RTYP07MUQ2CGK1", "dateTime": 1516044133404}, {"current_trial": 20, "trialdata": {"rt": -1, "trial_type": "single-stim", "stimulus": "<p id=\"stim\">+</p>", "internal_node_id": "0.0-11.0-0.0", "time_elapsed": 272617, "key_press": -1, "type": "FIXATION", "trial_index": 20}, "uniqueid": "MTK1610:3G5W44VEU8P34Y31RTYP07MUQ2CGK1", "dateTime": 1516044134910}, {"current_trial": 21, "trialdata": {"rt": -1000, "trial_type": "single-audio", "word": "tile", "stimulus": "/static/audio/wordpool/TILE.wav", "conditions": [18, 1200, "a", 18000], "internal_node_id": "0.0-12.0", "trial": 0, "time_elapsed": 274983, "serialpos": 0, "key_press": -1, "wordID": 1467, "type": "PRES_AUD", "trial_index": 21}, "uniqueid": "MTK1610:3G5W44VEU8P34Y31RTYP07MUQ2CGK1", "dateTime": 1516044137276}, {"current_trial": 22, "trialdata": {"rt": -1000, "trial_type": "single-audio", "word": "spool", "stimulus": "/static/audio/wordpool/SPOOL.wav", "conditions": [18, 1200, "a", 18000], "internal_node_id": "0.0-13.0", "trial": 0, "time_elapsed": 277090, "serialpos": 1, "key_press": -1, "wordID": 1355, "type": "PRES_AUD", "trial_index": 22}, "uniqueid": "MTK1610:3G5W44VEU8P34Y31RTYP07MUQ2CGK1", "dateTime": 1516044139382}, {"current_trial": 23, "trialdata": {"rt": -1000, "trial_type": "single-audio", "word": "pudding", "stimulus": "/static/audio/wordpool/PUDDING.wav", "conditions": [18, 1200, "a", 18000], "internal_node_id": "0.0-14.0", "trial": 0, "time_elapsed": 279344, "serialpos": 2, "key_press": -1, "wordID": 1138, "type": "PRES_AUD", "trial_index": 23}, "uniqueid": "MTK1610:3G5W44VEU8P34Y31RTYP07MUQ2CGK1", "dateTime": 1516044141636}, {"current_trial": 24, "trialdata": {"rt": -1000, "trial_type": "single-audio", "word": "banker", "stimulus": "/static/audio/wordpool/BANKER.wav", "conditions": [18, 1200, "a", 18000], "internal_node_id": "0.0-15.0", "trial": 0, "time_elapsed": 281623, "serialpos": 3, "key_press": -1, "wordID": 83, "type": "PRES_AUD", "trial_index": 24}, "uniqueid": "MTK1610:3G5W44VEU8P34Y31RTYP07MUQ2CGK1", "dateTime": 1516044143916}, {"current_trial": 25, "trialdata": {"rt": -1000, "trial_type": "single-audio", "word": "shovel", "stimulus": "/static/audio/wordpool/SHOVEL.wav", "conditions": [18, 1200, "a", 18000], "internal_node_id": "0.0-16.0", "trial": 0, "time_elapsed": 283956, "serialpos": 4, "key_press": -1, "wordID": 1294, "type": "PRES_AUD", "trial_index": 25}, "uniqueid": "MTK1610:3G5W44VEU8P34Y31RTYP07MUQ2CGK1", "dateTime": 1516044146248}, {"current_trial": 26, "trialdata": {"rt": -1000, "trial_type": "single-audio", "word": "fragrance", "stimulus": "/static/audio/wordpool/FRAGRANCE.wav", "conditions": [18, 1200, "a", 18000], "internal_node_id": "0.0-17.0", "trial": 0, "time_elapsed": 286166, "serialpos": 5, "key_press": -1, "wordID": 598, "type": "PRES_AUD", "trial_index": 26}, "uniqueid": "MTK1610:3G5W44VEU8P34Y31RTYP07MUQ2CGK1", "dateTime": 1516044148459}, {"current_trial": 27, "trialdata": {"rt": -1000, "trial_type": "single-audio", "word": "county", "stimulus": "/static/audio/wordpool/COUNTY.wav", "conditions": [18, 1200, "a", 18000], "internal_node_id": "0.0-18.0", "trial": 0, "time_elapsed": 288500, "serialpos": 6, "key_press": -1, "wordID": 388, "type": "PRES_AUD", "trial_index": 27}, "uniqueid": "MTK1610:3G5W44VEU8P34Y31RTYP07MUQ2CGK1", "dateTime": 1516044150792}, {"current_trial": 28, "trialdata": {"rt": -1000, "trial_type": "single-audio", "word": "scallop", "stimulus": "/static/audio/wordpool/SCALLOP.wav", "conditions": [18, 1200, "a", 18000], "internal_node_id": "0.0-19.0", "trial": 0, "time_elapsed": 290685, "serialpos": 7, "key_press": -1, "wordID": 1241, "type": "PRES_AUD", "trial_index": 28}, "uniqueid": "MTK1610:3G5W44VEU8P34Y31RTYP07MUQ2CGK1", "dateTime": 1516044152978}, {"current_trial": 29, "trialdata": {"rt": -1000, "trial_type": "single-audio", "word": "stream", "stimulus": "/static/audio/wordpool/STREAM.wav", "conditions": [18, 1200, "a", 18000], "internal_node_id": "0.0-20.0", "trial": 0, "time_elapsed": 293037, "serialpos": 8, "key_press": -1, "wordID": 1391, "type": "PRES_AUD", "trial_index": 29}, "uniqueid": "MTK1610:3G5W44VEU8P34Y31RTYP07MUQ2CGK1", "dateTime": 1516044155330}, {"current_trial": 30, "trialdata": {"rt": -1000, "trial_type": "single-audio", "word": "tuba", "stimulus": "/static/audio/wordpool/TUBA.wav", "conditions": [18, 1200, "a", 18000], "internal_node_id": "0.0-21.0", "trial": 0, "time_elapsed": 295071, "serialpos": 9, "key_press": -1, "wordID": 1514, "type": "PRES_AUD", "trial_index": 30}, "uniqueid": "MTK1610:3G5W44VEU8P34Y31RTYP07MUQ2CGK1", "dateTime": 1516044157364}, {"current_trial": 31, "trialdata": {"rt": -1000, "trial_type": "single-audio", "word": "helmet", "stimulus": "/static/audio/wordpool/HELMET.wav", "conditions": [18, 1200, "a", 18000], "internal_node_id": "0.0-22.0", "trial": 0, "time_elapsed": 297192, "serialpos": 10, "key_press": -1, "wordID": 701, "type": "PRES_AUD", "trial_index": 31}, "uniqueid": "MTK1610:3G5W44VEU8P34Y31RTYP07MUQ2CGK1", "dateTime": 1516044159484}, {"current_trial": 32, "trialdata": {"rt": -1000, "trial_type": "single-audio", "word": "primate", "stimulus": "/static/audio/wordpool/PRIMATE.wav", "conditions": [18, 1200, "a", 18000], "internal_node_id": "0.0-23.0", "trial": 0, "time_elapsed": 299444, "serialpos": 11, "key_press": -1, "wordID": 1122, "type": "PRES_AUD", "trial_index": 32}, "uniqueid": "MTK1610:3G5W44VEU8P34Y31RTYP07MUQ2CGK1", "dateTime": 1516044161736}, {"current_trial": 33, "trialdata": {"rt": -1000, "trial_type": "single-audio", "word": "tablet", "stimulus": "/static/audio/wordpool/TABLET.wav", "conditions": [18, 1200, "a", 18000], "internal_node_id": "0.0-24.0", "trial": 0, "time_elapsed": 301737, "serialpos": 12, "key_press": -1, "wordID": 1426, "type": "PRES_AUD", "trial_index": 33}, "uniqueid": "MTK1610:3G5W44VEU8P34Y31RTYP07MUQ2CGK1", "dateTime": 1516044164030}, {"current_trial": 34, "trialdata": {"rt": -1000, "trial_type": "single-audio", "word": "drug", "stimulus": "/static/audio/wordpool/DRUG.wav", "conditions": [18, 1200, "a", 18000], "internal_node_id": "0.0-25.0", "trial": 0, "time_elapsed": 303982, "serialpos": 13, "key_press": -1, "wordID": 500, "type": "PRES_AUD", "trial_index": 34}, "uniqueid": "MTK1610:3G5W44VEU8P34Y31RTYP07MUQ2CGK1", "dateTime": 1516044166274}, {"current_trial": 35, "trialdata": {"rt": -1000, "trial_type": "single-audio", "word": "crevice", "stimulus": "/static/audio/wordpool/CREVICE.wav", "conditions": [18, 1200, "a", 18000], "internal_node_id": "0.0-26.0", "trial": 0, "time_elapsed": 306171, "serialpos": 14, "key_press": -1, "wordID": 404, "type": "PRES_AUD", "trial_index": 35}, "uniqueid": "MTK1610:3G5W44VEU8P34Y31RTYP07MUQ2CGK1", "dateTime": 1516044168464}, {"current_trial": 36, "trialdata": {"rt": -1000, "trial_type": "single-audio", "word": "hatchet", "stimulus": "/static/audio/wordpool/HATCHET.wav", "conditions": [18, 1200, "a", 18000], "internal_node_id": "0.0-27.0", "trial": 0, "time_elapsed": 308437, "serialpos": 15, "key_press": -1, "wordID": 690, "type": "PRES_AUD", "trial_index": 36}, "uniqueid": "MTK1610:3G5W44VEU8P34Y31RTYP07MUQ2CGK1", "dateTime": 1516044170729}, {"current_trial": 37, "trialdata": {"rt": -1000, "trial_type": "single-audio", "word": "inmate", "stimulus": "/static/audio/wordpool/INMATE.wav", "conditions": [18, 1200, "a", 18000], "internal_node_id": "0.0-28.0", "trial": 0, "time_elapsed": 310532, "serialpos": 16, "key_press": -1, "wordID": 737, "type": "PRES_AUD", "trial_index": 37}, "uniqueid": "MTK1610:3G5W44VEU8P34Y31RTYP07MUQ2CGK1", "dateTime": 1516044172825}, {"current_trial": 38, "trialdata": {"rt": -1000, "trial_type": "single-audio", "word": "trench", "stimulus": "/static/audio/wordpool/TRENCH.wav", "conditions": [18, 1200, "a", 18000], "internal_node_id": "0.0-29.0", "trial": 0, "time_elapsed": 312552, "serialpos": 17, "key_press": -1, "wordID": 1502, "type": "PRES_AUD", "trial_index": 38}, "uniqueid": "MTK1610:3G5W44VEU8P34Y31RTYP07MUQ2CGK1", "dateTime": 1516044174845}, {"current_trial": 39, "trialdata": {"rt": -1, "trial_type": "single-stim", "stimulus": "", "internal_node_id": "0.0-30.0-0.0", "time_elapsed": 313942, "key_press": -1, "type": "PRE_RECALL_DELAY", "trial_index": 39}, "uniqueid": "MTK1610:3G5W44VEU8P34Y31RTYP07MUQ2CGK1", "dateTime": 1516044176235}, {"current_trial": 40, "trialdata": {"rt": -1000, "trial_type": "single-audio", "stimulus": "/static/audio/400Hz.wav", "internal_node_id": "0.0-31.0", "time_elapsed": 314449, "key_press": -1, "type": "PRE_RECALL_ALERT", "trial_index": 40}, "uniqueid": "MTK1610:3G5W44VEU8P34Y31RTYP07MUQ2CGK1", "dateTime": 1516044176742}, {"current_trial": 41, "trialdata": {"rt": [4244, 6869, 9364, 11309, 17196, 48069], "recwords": ["helmet", "inmate'", "tablet", "drug", "shovel", "primate"], "key_times": [2431, 2741, 2933, 3381, 3573, 3789, 4244, 4981, 5286, 5877, 6093, 6237, 6469, 6861, 6869, 7653, 7933, 8173, 8349, 8669, 8981, 9364, 9805, 10254, 10718, 10933, 11309, 15839, 15981, 16126, 16478, 16781, 16918, 17196, 46560, 46798, 46991, 47231, 47375, 47503, 47775, 48069], "trial_type": "free-recall", "conditions": [18, 1200, "a", 18000], "internal_node_id": "0.0-32.0-0.0", "key_presses": [72, 69, 76, 77, 69, 84, 13, 73, 78, 77, 65, 84, 69, 222, 13, 84, 65, 66, 76, 69, 84, 13, 68, 82, 85, 71, 13, 83, 72, 79, 86, 69, 76, 13, 80, 82, 73, 77, 65, 84, 69, 13], "trial": 0, "time_elapsed": 374465, "type": "FREE_RECALL", "trial_index": 41}, "uniqueid": "MTK1610:3G5W44VEU8P34Y31RTYP07MUQ2CGK1", "dateTime": 1516044236778}, {"current_trial": 42, "trialdata": {"rt": 2802, "trial_type": "text", "internal_node_id": "0.0-33.0", "time_elapsed": 379291, "key_press": 13, "type": "INSTRUCTIONS", "trial_index": 42}, "uniqueid": "MTK1610:3G5W44VEU8P34Y31RTYP07MUQ2CGK1", "dateTime": 1516044241584}, {"current_trial": 43, "trialdata": {"rt": [6569, 13270, 17265], "trial_type": "math-distractor", "key_times": [5008, 5376, 6569, 11929, 12160, 13270, 16752, 17265], "responses": ["26", "19", "7"], "num2": [8, 8, 5, 5], "num3": [9, 6, 1, 5], "conditions": [18, 1200, "a", 18000], "internal_node_id": "0.0-34.0", "key_presses": [50, 54, 13, 49, 57, 13, 55, 13], "trial": 1, "time_elapsed": 399304, "type": "DISTRACTOR", "trial_index": 43, "num1": [9, 5, 1, 4]}, "uniqueid": "MTK1610:3G5W44VEU8P34Y31RTYP07MUQ2CGK1", "dateTime": 1516044261596}, {"current_trial": 44, "trialdata": {"rt": -1, "trial_type": "single-stim", "stimulus": "<p id=\"stim\">10</p>", "internal_node_id": "0.0-35.0-0.0", "time_elapsed": 402309, "key_press": -1, "trial_index": 44}, "uniqueid": "MTK1610:3G5W44VEU8P34Y31RTYP07MUQ2CGK1", "dateTime": 1516044264602}, {"current_trial": 45, "trialdata": {"rt": -1, "trial_type": "single-stim", "stimulus": "<p id=\"stim\">9</p>", "internal_node_id": "0.0-35.0-1.0", "time_elapsed": 403314, "key_press": -1, "trial_index": 45}, "uniqueid": "MTK1610:3G5W44VEU8P34Y31RTYP07MUQ2CGK1", "dateTime": 1516044265607}, {"current_trial": 46, "trialdata": {"rt": -1, "trial_type": "single-stim", "stimulus": "<p id=\"stim\">8</p>", "internal_node_id": "0.0-35.0-2.0", "time_elapsed": 404320, "key_press": -1, "trial_index": 46}, "uniqueid": "MTK1610:3G5W44VEU8P34Y31RTYP07MUQ2CGK1", "dateTime": 1516044266612}, {"current_trial": 47, "trialdata": {"rt": -1, "trial_type": "single-stim", "stimulus": "<p id=\"stim\">7</p>", "internal_node_id": "0.0-35.0-3.0", "time_elapsed": 405324, "key_press": -1, "trial_index": 47}, "uniqueid": "MTK1610:3G5W44VEU8P34Y31RTYP07MUQ2CGK1", "dateTime": 1516044267616}, {"current_trial": 48, "trialdata": {"rt": -1, "trial_type": "single-stim", "stimulus": "<p id=\"stim\">6</p>", "internal_node_id": "0.0-35.0-4.0", "time_elapsed": 406327, "key_press": -1, "trial_index": 48}, "uniqueid": "MTK1610:3G5W44VEU8P34Y31RTYP07MUQ2CGK1", "dateTime": 1516044268620}, {"current_trial": 49, "trialdata": {"rt": -1, "trial_type": "single-stim", "stimulus": "<p id=\"stim\">5</p>", "internal_node_id": "0.0-35.0-5.0", "time_elapsed": 407331, "key_press": -1, "trial_index": 49}, "uniqueid": "MTK1610:3G5W44VEU8P34Y31RTYP07MUQ2CGK1", "dateTime": 1516044269624}, {"current_trial": 50, "trialdata": {"rt": -1, "trial_type": "single-stim", "stimulus": "<p id=\"stim\">4</p>", "internal_node_id": "0.0-35.0-6.0", "time_elapsed": 408337, "key_press": -1, "trial_index": 50}, "uniqueid": "MTK1610:3G5W44VEU8P34Y31RTYP07MUQ2CGK1", "dateTime": 1516044270630}, {"current_trial": 51, "trialdata": {"rt": -1, "trial_type": "single-stim", "stimulus": "<p id=\"stim\">3</p>", "internal_node_id": "0.0-35.0-7.0", "time_elapsed": 409341, "key_press": -1, "trial_index": 51}, "uniqueid": "MTK1610:3G5W44VEU8P34Y31RTYP07MUQ2CGK1", "dateTime": 1516044271634}, {"current_trial": 52, "trialdata": {"rt": -1, "trial_type": "single-stim", "stimulus": "<p id=\"stim\">2</p>", "internal_node_id": "0.0-35.0-8.0", "time_elapsed": 410346, "key_press": -1, "trial_index": 52}, "uniqueid": "MTK1610:3G5W44VEU8P34Y31RTYP07MUQ2CGK1", "dateTime": 1516044272639}, {"current_trial": 53, "trialdata": {"rt": -1, "trial_type": "single-stim", "stimulus": "<p id=\"stim\">1</p>", "internal_node_id": "0.0-35.0-9.0", "time_elapsed": 411351, "key_press": -1, "trial_index": 53}, "uniqueid": "MTK1610:3G5W44VEU8P34Y31RTYP07MUQ2CGK1", "dateTime": 1516044273644}, {"current_trial": 54, "trialdata": {"rt": -1, "trial_type": "single-stim", "stimulus": "<p id=\"stim\">+</p>", "internal_node_id": "0.0-36.0-0.0", "time_elapsed": 412855, "key_press": -1, "type": "FIXATION", "trial_index": 54}, "uniqueid": "MTK1610:3G5W44VEU8P34Y31RTYP07MUQ2CGK1", "dateTime": 1516044275147}, {"current_trial": 55, "trialdata": {"rt": -1000, "trial_type": "single-audio", "word": "paddle", "stimulus": "/static/audio/wordpool/PADDLE.wav", "conditions": [18, 1200, "a", 18000], "internal_node_id": "0.0-37.0", "trial": 1, "time_elapsed": 414976, "serialpos": 0, "key_press": -1, "wordID": 999, "type": "PRES_AUD", "trial_index": 55}, "uniqueid": "MTK1610:3G5W44VEU8P34Y31RTYP07MUQ2CGK1", "dateTime": 1516044277269}, {"current_trial": 56, "trialdata": {"rt": -1000, "trial_type": "single-audio", "word": "badge", "stimulus": "/static/audio/wordpool/BADGE.wav", "conditions": [18, 1200, "a", 18000], "internal_node_id": "0.0-38.0", "trial": 1, "time_elapsed": 417346, "serialpos": 1, "key_press": -1, "wordID": 67, "type": "PRES_AUD", "trial_index": 56}, "uniqueid": "MTK1610:3G5W44VEU8P34Y31RTYP07MUQ2CGK1", "dateTime": 1516044279638}, {"current_trial": 57, "trialdata": {"rt": -1000, "trial_type": "single-audio", "word": "compass", "stimulus": "/static/audio/wordpool/COMPASS.wav", "conditions": [18, 1200, "a", 18000], "internal_node_id": "0.0-39.0", "trial": 1, "time_elapsed": 419494, "serialpos": 2, "key_press": -1, "wordID": 357, "type": "PRES_AUD", "trial_index": 57}, "uniqueid": "MTK1610:3G5W44VEU8P34Y31RTYP07MUQ2CGK1", "dateTime": 1516044281787}, {"current_trial": 58, "trialdata": {"rt": -1000, "trial_type": "single-audio", "word": "friend", "stimulus": "/static/audio/wordpool/FRIEND.wav", "conditions": [18, 1200, "a", 18000], "internal_node_id": "0.0-40.0", "trial": 1, "time_elapsed": 421511, "serialpos": 3, "key_press": -1, "wordID": 605, "type": "PRES_AUD", "trial_index": 58}, "uniqueid": "MTK1610:3G5W44VEU8P34Y31RTYP07MUQ2CGK1", "dateTime": 1516044283804}, {"current_trial": 59, "trialdata": {"rt": -1000, "trial_type": "single-audio", "word": "rattle", "stimulus": "/static/audio/wordpool/RATTLE.wav", "conditions": [18, 1200, "a", 18000], "internal_node_id": "0.0-41.0", "trial": 1, "time_elapsed": 423703, "serialpos": 4, "key_press": -1, "wordID": 1169, "type": "PRES_AUD", "trial_index": 59}, "uniqueid": "MTK1610:3G5W44VEU8P34Y31RTYP07MUQ2CGK1", "dateTime": 1516044285996}, {"current_trial": 60, "trialdata": {"rt": -1000, "trial_type": "single-audio", "word": "pimple", "stimulus": "/static/audio/wordpool/PIMPLE.wav", "conditions": [18, 1200, "a", 18000], "internal_node_id": "0.0-42.0", "trial": 1, "time_elapsed": 425738, "serialpos": 5, "key_press": -1, "wordID": 1070, "type": "PRES_AUD", "trial_index": 60}, "uniqueid": "MTK1610:3G5W44VEU8P34Y31RTYP07MUQ2CGK1", "dateTime": 1516044288031}, {"current_trial": 61, "trialdata": {"rt": -1000, "trial_type": "single-audio", "word": "canyon", "stimulus": "/static/audio/wordpool/CANYON.wav", "conditions": [18, 1200, "a", 18000], "internal_node_id": "0.0-43.0", "trial": 1, "time_elapsed": 428079, "serialpos": 6, "key_press": -1, "wordID": 234, "type": "PRES_AUD", "trial_index": 61}, "uniqueid": "MTK1610:3G5W44VEU8P34Y31RTYP07MUQ2CGK1", "dateTime": 1516044290372}, {"current_trial": 62, "trialdata": {"rt": -1000, "trial_type": "single-audio", "word": "table", "stimulus": "/static/audio/wordpool/TABLE.wav", "conditions": [18, 1200, "a", 18000], "internal_node_id": "0.0-44.0", "trial": 1, "time_elapsed": 430095, "serialpos": 7, "key_press": -1, "wordID": 1425, "type": "PRES_AUD", "trial_index": 62}, "uniqueid": "MTK1610:3G5W44VEU8P34Y31RTYP07MUQ2CGK1", "dateTime": 1516044292388}, {"current_trial": 63, "trialdata": {"rt": -1000, "trial_type": "single-audio", "word": "mailman", "stimulus": "/static/audio/wordpool/MAILMAN.wav", "conditions": [18, 1200, "a", 18000], "internal_node_id": "0.0-45.0", "trial": 1, "time_elapsed": 432247, "serialpos": 8, "key_press": -1, "wordID": 857, "type": "PRES_AUD", "trial_index": 63}, "uniqueid": "MTK1610:3G5W44VEU8P34Y31RTYP07MUQ2CGK1", "dateTime": 1516044294539}, {"current_trial": 64, "trialdata": {"rt": -1000, "trial_type": "single-audio", "word": "switch", "stimulus": "/static/audio/wordpool/SWITCH.wav", "conditions": [18, 1200, "a", 18000], "internal_node_id": "0.0-46.0", "trial": 1, "time_elapsed": 434474, "serialpos": 9, "key_press": -1, "wordID": 1421, "type": "PRES_AUD", "trial_index": 64}, "uniqueid": "MTK1610:3G5W44VEU8P34Y31RTYP07MUQ2CGK1", "dateTime": 1516044296767}, {"current_trial": 65, "trialdata": {"rt": -1000, "trial_type": "single-audio", "word": "liver", "stimulus": "/static/audio/wordpool/LIVER.wav", "conditions": [18, 1200, "a", 18000], "internal_node_id": "0.0-47.0", "trial": 1, "time_elapsed": 436786, "serialpos": 10, "key_press": -1, "wordID": 832, "type": "PRES_AUD", "trial_index": 65}, "uniqueid": "MTK1610:3G5W44VEU8P34Y31RTYP07MUQ2CGK1", "dateTime": 1516044299079}, {"current_trial": 66, "trialdata": {"rt": -1000, "trial_type": "single-audio", "word": "highway", "stimulus": "/static/audio/wordpool/HIGHWAY.wav", "conditions": [18, 1200, "a", 18000], "internal_node_id": "0.0-48.0", "trial": 1, "time_elapsed": 438912, "serialpos": 11, "key_press": -1, "wordID": 706, "type": "PRES_AUD", "trial_index": 66}, "uniqueid": "MTK1610:3G5W44VEU8P34Y31RTYP07MUQ2CGK1", "dateTime": 1516044301205}, {"current_trial": 67, "trialdata": {"rt": -1000, "trial_type": "single-audio", "word": "glove", "stimulus": "/static/audio/wordpool/GLOVE.wav", "conditions": [18, 1200, "a", 18000], "internal_node_id": "0.0-49.0", "trial": 1, "time_elapsed": 441168, "serialpos": 12, "key_press": -1, "wordID": 641, "type": "PRES_AUD", "trial_index": 67}, "uniqueid": "MTK1610:3G5W44VEU8P34Y31RTYP07MUQ2CGK1", "dateTime": 1516044303460}, {"current_trial": 68, "trialdata": {"rt": -1000, "trial_type": "single-audio", "word": "jury", "stimulus": "/static/audio/wordpool/JURY.wav", "conditions": [18, 1200, "a", 18000], "internal_node_id": "0.0-50.0", "trial": 1, "time_elapsed": 443250, "serialpos": 13, "key_press": -1, "wordID": 765, "type": "PRES_AUD", "trial_index": 68}, "uniqueid": "MTK1610:3G5W44VEU8P34Y31RTYP07MUQ2CGK1", "dateTime": 1516044305557}, {"current_trial": 69, "trialdata": {"rt": -1000, "trial_type": "single-audio", "word": "snack", "stimulus": "/static/audio/wordpool/SNACK.wav", "conditions": [18, 1200, "a", 18000], "internal_node_id": "0.0-51.0", "trial": 1, "time_elapsed": 445337, "serialpos": 14, "key_press": -1, "wordID": 1330, "type": "PRES_AUD", "trial_index": 69}, "uniqueid": "MTK1610:3G5W44VEU8P34Y31RTYP07MUQ2CGK1", "dateTime": 1516044307629}, {"current_trial": 70, "trialdata": {"rt": -1000, "trial_type": "single-audio", "word": "nightgown", "stimulus": "/static/audio/wordpool/NIGHTGOWN.wav", "conditions": [18, 1200, "a", 18000], "internal_node_id": "0.0-52.0", "trial": 1, "time_elapsed": 447362, "serialpos": 15, "key_press": -1, "wordID": 952, "type": "PRES_AUD", "trial_index": 70}, "uniqueid": "MTK1610:3G5W44VEU8P34Y31RTYP07MUQ2CGK1", "dateTime": 1516044309654}, {"current_trial": 71, "trialdata": {"rt": -1000, "trial_type": "single-audio", "word": "cafe", "stimulus": "/static/audio/wordpool/CAFE.wav", "conditions": [18, 1200, "a", 18000], "internal_node_id": "0.0-53.0", "trial": 1, "time_elapsed": 449541, "serialpos": 16, "key_press": -1, "wordID": 215, "type": "PRES_AUD", "trial_index": 71}, "uniqueid": "MTK1610:3G5W44VEU8P34Y31RTYP07MUQ2CGK1", "dateTime": 1516044311834}, {"current_trial": 72, "trialdata": {"rt": -1000, "trial_type": "single-audio", "word": "chest", "stimulus": "/static/audio/wordpool/CHEST.wav", "conditions": [18, 1200, "a", 18000], "internal_node_id": "0.0-54.0", "trial": 1, "time_elapsed": 451916, "serialpos": 17, "key_press": -1, "wordID": 294, "type": "PRES_AUD", "trial_index": 72}, "uniqueid": "MTK1610:3G5W44VEU8P34Y31RTYP07MUQ2CGK1", "dateTime": 1516044314208}, {"current_trial": 73, "trialdata": {"rt": -1, "trial_type": "single-stim", "stimulus": "", "internal_node_id": "0.0-55.0-0.0", "time_elapsed": 453173, "key_press": -1, "type": "PRE_RECALL_DELAY", "trial_index": 73}, "uniqueid": "MTK1610:3G5W44VEU8P34Y31RTYP07MUQ2CGK1", "dateTime": 1516044315466}, {"current_trial": 74, "trialdata": {"rt": -1000, "trial_type": "single-audio", "stimulus": "/static/audio/400Hz.wav", "internal_node_id": "0.0-56.0", "time_elapsed": 453686, "key_press": -1, "type": "PRE_RECALL_ALERT", "trial_index": 74}, "uniqueid": "MTK1610:3G5W44VEU8P34Y31RTYP07MUQ2CGK1", "dateTime": 1516044315979}, {"current_trial": 75, "trialdata": {"rt": [4462, 6990, 9671, 17718, 22519, 34856], "recwords": ["nightgown", "jury", "cafe", "switch", "canyon", "liver"], "key_times": [1776, 1965, 2086, 2230, 2406, 3550, 3771, 3895, 4206, 4462, 5110, 5447, 5743, 6039, 6990, 7662, 8111, 8415, 8647, 8846, 9215, 9671, 15224, 15663, 15910, 16215, 16431, 16615, 16999, 17167, 17718, 20807, 21015, 21159, 21623, 21823, 22183, 22519, 33874, 34072, 34208, 34440, 34543, 34856], "trial_type": "free-recall", "conditions": [18, 1200, "a", 18000], "internal_node_id": "0.0-57.0-0.0", "key_presses": [78, 73, 71, 72, 84, 71, 79, 87, 78, 13, 74, 85, 82, 89, 13, 71, 8, 67, 65, 70, 69, 13, 87, 8, 83, 87, 73, 84, 67, 72, 13, 67, 65, 78, 89, 79, 78, 13, 76, 73, 86, 69, 82, 13], "trial": 1, "time_elapsed": 513698, "type": "FREE_RECALL", "trial_index": 75}, "uniqueid": "MTK1610:3G5W44VEU8P34Y31RTYP07MUQ2CGK1", "dateTime": 1516044376005}, {"current_trial": 76, "trialdata": {"rt": 5116, "trial_type": "text", "internal_node_id": "0.0-58.0", "time_elapsed": 520833, "key_press": 13, "type": "INSTRUCTIONS", "trial_index": 76}, "uniqueid": "MTK1610:3G5W44VEU8P34Y31RTYP07MUQ2CGK1", "dateTime": 1516044383126}, {"current_trial": 77, "trialdata": {"rt": [3581, 7206, 12990, 15813, 18199, 22086], "trial_type": "math-distractor", "key_times": [2414, 2797, 3581, 6310, 6678, 7206, 11599, 12014, 12990, 14910, 15246, 15813, 17837, 18199, 21335, 21655, 22086], "responses": ["14", "18", "20", "12", "9", "15"], "num2": [6, 1, 7, 9, 4, 3, 1], "num3": [7, 9, 5, 2, 1, 6, 5], "conditions": [24, 800, "a", 24000], "internal_node_id": "0.0-59.0", "key_presses": [49, 52, 13, 49, 56, 13, 50, 48, 13, 49, 50, 13, 57, 13, 49, 53, 13], "trial": 2, "time_elapsed": 545844, "type": "DISTRACTOR", "trial_index": 77, "num1": [1, 8, 8, 1, 4, 6, 2]}, "uniqueid": "MTK1610:3G5W44VEU8P34Y31RTYP07MUQ2CGK1", "dateTime": 1516044408136}, {"current_trial": 78, "trialdata": {"rt": -1, "trial_type": "single-stim", "stimulus": "<p id=\"stim\">10</p>", "internal_node_id": "0.0-60.0-0.0", "time_elapsed": 548850, "key_press": -1, "trial_index": 78}, "uniqueid": "MTK1610:3G5W44VEU8P34Y31RTYP07MUQ2CGK1", "dateTime": 1516044411143}, {"current_trial": 79, "trialdata": {"rt": -1, "trial_type": "single-stim", "stimulus": "<p id=\"stim\">9</p>", "internal_node_id": "0.0-60.0-1.0", "time_elapsed": 549855, "key_press": -1, "trial_index": 79}, "uniqueid": "MTK1610:3G5W44VEU8P34Y31RTYP07MUQ2CGK1", "dateTime": 1516044412148}, {"current_trial": 80, "trialdata": {"rt": -1, "trial_type": "single-stim", "stimulus": "<p id=\"stim\">8</p>", "internal_node_id": "0.0-60.0-2.0", "time_elapsed": 550860, "key_press": -1, "trial_index": 80}, "uniqueid": "MTK1610:3G5W44VEU8P34Y31RTYP07MUQ2CGK1", "dateTime": 1516044413153}, {"current_trial": 81, "trialdata": {"rt": -1, "trial_type": "single-stim", "stimulus": "<p id=\"stim\">7</p>", "internal_node_id": "0.0-60.0-3.0", "time_elapsed": 551865, "key_press": -1, "trial_index": 81}, "uniqueid": "MTK1610:3G5W44VEU8P34Y31RTYP07MUQ2CGK1", "dateTime": 1516044414158}, {"current_trial": 82, "trialdata": {"rt": -1, "trial_type": "single-stim", "stimulus": "<p id=\"stim\">6</p>", "internal_node_id": "0.0-60.0-4.0", "time_elapsed": 552875, "key_press": -1, "trial_index": 82}, "uniqueid": "MTK1610:3G5W44VEU8P34Y31RTYP07MUQ2CGK1", "dateTime": 1516044415167}, {"current_trial": 83, "trialdata": {"rt": -1, "trial_type": "single-stim", "stimulus": "<p id=\"stim\">5</p>", "internal_node_id": "0.0-60.0-5.0", "time_elapsed": 553880, "key_press": -1, "trial_index": 83}, "uniqueid": "MTK1610:3G5W44VEU8P34Y31RTYP07MUQ2CGK1", "dateTime": 1516044416172}, {"current_trial": 84, "trialdata": {"rt": -1, "trial_type": "single-stim", "stimulus": "<p id=\"stim\">4</p>", "internal_node_id": "0.0-60.0-6.0", "time_elapsed": 554885, "key_press": -1, "trial_index": 84}, "uniqueid": "MTK1610:3G5W44VEU8P34Y31RTYP07MUQ2CGK1", "dateTime": 1516044417177}, {"current_trial": 85, "trialdata": {"rt": -1, "trial_type": "single-stim", "stimulus": "<p id=\"stim\">3</p>", "internal_node_id": "0.0-60.0-7.0", "time_elapsed": 555888, "key_press": -1, "trial_index": 85}, "uniqueid": "MTK1610:3G5W44VEU8P34Y31RTYP07MUQ2CGK1", "dateTime": 1516044418181}, {"current_trial": 86, "trialdata": {"rt": -1, "trial_type": "single-stim", "stimulus": "<p id=\"stim\">2</p>", "internal_node_id": "0.0-60.0-8.0", "time_elapsed": 556893, "key_press": -1, "trial_index": 86}, "uniqueid": "MTK1610:3G5W44VEU8P34Y31RTYP07MUQ2CGK1", "dateTime": 1516044419185}, {"current_trial": 87, "trialdata": {"rt": -1, "trial_type": "single-stim", "stimulus": "<p id=\"stim\">1</p>", "internal_node_id": "0.0-60.0-9.0", "time_elapsed": 557897, "key_press": -1, "trial_index": 87}, "uniqueid": "MTK1610:3G5W44VEU8P34Y31RTYP07MUQ2CGK1", "dateTime": 1516044420189}, {"current_trial": 88, "trialdata": {"rt": -1, "trial_type": "single-stim", "stimulus": "<p id=\"stim\">+</p>", "internal_node_id": "0.0-61.0-0.0", "time_elapsed": 559401, "key_press": -1, "type": "FIXATION", "trial_index": 88}, "uniqueid": "MTK1610:3G5W44VEU8P34Y31RTYP07MUQ2CGK1", "dateTime": 1516044421694}, {"current_trial": 89, "trialdata": {"rt": -1000, "trial_type": "single-audio", "word": "clothes", "stimulus": "/static/audio/wordpool/CLOTHES.wav", "conditions": [24, 800, "a", 24000], "internal_node_id": "0.0-62.0", "trial": 2, "time_elapsed": 561179, "serialpos": 0, "key_press": -1, "wordID": 326, "type": "PRES_AUD", "trial_index": 89}, "uniqueid": "MTK1610:3G5W44VEU8P34Y31RTYP07MUQ2CGK1", "dateTime": 1516044423472}, {"current_trial": 90, "trialdata": {"rt": -1000, "trial_type": "single-audio", "word": "wardrobe", "stimulus": "/static/audio/wordpool/WARDROBE.wav", "conditions": [24, 800, "a", 24000], "internal_node_id": "0.0-63.0", "trial": 2, "time_elapsed": 562873, "serialpos": 1, "key_press": -1, "wordID": 1586, "type": "PRES_AUD", "trial_index": 90}, "uniqueid": "MTK1610:3G5W44VEU8P34Y31RTYP07MUQ2CGK1", "dateTime": 1516044425165}, {"current_trial": 91, "trialdata": {"rt": -1000, "trial_type": "single-audio", "word": "piston", "stimulus": "/static/audio/wordpool/PISTON.wav", "conditions": [24, 800, "a", 24000], "internal_node_id": "0.0-64.0", "trial": 2, "time_elapsed": 564663, "serialpos": 2, "key_press": -1, "wordID": 1075, "type": "PRES_AUD", "trial_index": 91}, "uniqueid": "MTK1610:3G5W44VEU8P34Y31RTYP07MUQ2CGK1", "dateTime": 1516044426956}, {"current_trial": 92, "trialdata": {"rt": -1000, "trial_type": "single-audio", "word": "climber", "stimulus": "/static/audio/wordpool/CLIMBER.wav", "conditions": [24, 800, "a", 24000], "internal_node_id": "0.0-65.0", "trial": 2, "time_elapsed": 566425, "serialpos": 3, "key_press": -1, "wordID": 322, "type": "PRES_AUD", "trial_index": 92}, "uniqueid": "MTK1610:3G5W44VEU8P34Y31RTYP07MUQ2CGK1", "dateTime": 1516044428717}, {"current_trial": 93, "trialdata": {"rt": -1000, "trial_type": "single-audio", "word": "bison", "stimulus": "/static/audio/wordpool/BISON.wav", "conditions": [24, 800, "a", 24000], "internal_node_id": "0.0-66.0", "trial": 2, "time_elapsed": 568074, "serialpos": 4, "key_press": -1, "wordID": 130, "type": "PRES_AUD", "trial_index": 93}, "uniqueid": "MTK1610:3G5W44VEU8P34Y31RTYP07MUQ2CGK1", "dateTime": 1516044430367}, {"current_trial": 94, "trialdata": {"rt": -1000, "trial_type": "single-audio", "word": "notebook", "stimulus": "/static/audio/wordpool/NOTEBOOK.wav", "conditions": [24, 800, "a", 24000], "internal_node_id": "0.0-67.0", "trial": 2, "time_elapsed": 569690, "serialpos": 5, "key_press": -1, "wordID": 958, "type": "PRES_AUD", "trial_index": 94}, "uniqueid": "MTK1610:3G5W44VEU8P34Y31RTYP07MUQ2CGK1", "dateTime": 1516044431982}, {"current_trial": 95, "trialdata": {"rt": -1000, "trial_type": "single-audio", "word": "breast", "stimulus": "/static/audio/wordpool/BREAST.wav", "conditions": [24, 800, "a", 24000], "internal_node_id": "0.0-68.0", "trial": 2, "time_elapsed": 571470, "serialpos": 6, "key_press": -1, "wordID": 170, "type": "PRES_AUD", "trial_index": 95}, "uniqueid": "MTK1610:3G5W44VEU8P34Y31RTYP07MUQ2CGK1", "dateTime": 1516044433762}, {"current_trial": 96, "trialdata": {"rt": -1000, "trial_type": "single-audio", "word": "valve", "stimulus": "/static/audio/wordpool/VALVE.wav", "conditions": [24, 800, "a", 24000], "internal_node_id": "0.0-69.0", "trial": 2, "time_elapsed": 573162, "serialpos": 7, "key_press": -1, "wordID": 1545, "type": "PRES_AUD", "trial_index": 96}, "uniqueid": "MTK1610:3G5W44VEU8P34Y31RTYP07MUQ2CGK1", "dateTime": 1516044435454}, {"current_trial": 97, "trialdata": {"rt": -1000, "trial_type": "single-audio", "word": "guitar", "stimulus": "/static/audio/wordpool/GUITAR.wav", "conditions": [24, 800, "a", 24000], "internal_node_id": "0.0-70.0", "trial": 2, "time_elapsed": 575079, "serialpos": 8, "key_press": -1, "wordID": 669, "type": "PRES_AUD", "trial_index": 97}, "uniqueid": "MTK1610:3G5W44VEU8P34Y31RTYP07MUQ2CGK1", "dateTime": 1516044437371}, {"current_trial": 98, "trialdata": {"rt": -1000, "trial_type": "single-audio", "word": "chipmunk", "stimulus": "/static/audio/wordpool/CHIPMUNK.wav", "conditions": [24, 800, "a", 24000], "internal_node_id": "0.0-71.0", "trial": 2, "time_elapsed": 577072, "serialpos": 9, "key_press": -1, "wordID": 303, "type": "PRES_AUD", "trial_index": 98}, "uniqueid": "MTK1610:3G5W44VEU8P34Y31RTYP07MUQ2CGK1", "dateTime": 1516044439365}, {"current_trial": 99, "trialdata": {"rt": -1000, "trial_type": "single-audio", "word": "summit", "stimulus": "/static/audio/wordpool/SUMMIT.wav", "conditions": [24, 800, "a", 24000], "internal_node_id": "0.0-72.0", "trial": 2, "time_elapsed": 578859, "serialpos": 10, "key_press": -1, "wordID": 1404, "type": "PRES_AUD", "trial_index": 99}, "uniqueid": "MTK1610:3G5W44VEU8P34Y31RTYP07MUQ2CGK1", "dateTime": 1516044441151}, {"current_trial": 100, "trialdata": {"rt": -1000, "trial_type": "single-audio", "word": "necklace", "stimulus": "/static/audio/wordpool/NECKLACE.wav", "conditions": [24, 800, "a", 24000], "internal_node_id": "0.0-73.0", "trial": 2, "time_elapsed": 580677, "serialpos": 11, "key_press": -1, "wordID": 939, "type": "PRES_AUD", "trial_index": 100}, "uniqueid": "MTK1610:3G5W44VEU8P34Y31RTYP07MUQ2CGK1", "dateTime": 1516044442970}, {"current_trial": 101, "trialdata": {"rt": -1000, "trial_type": "single-audio", "word": "partner", "stimulus": "/static/audio/wordpool/PARTNER.wav", "conditions": [24, 800, "a", 24000], "internal_node_id": "0.0-74.0", "trial": 2, "time_elapsed": 582490, "serialpos": 12, "key_press": -1, "wordID": 1016, "type": "PRES_AUD", "trial_index": 101}, "uniqueid": "MTK1610:3G5W44VEU8P34Y31RTYP07MUQ2CGK1", "dateTime": 1516044444783}, {"current_trial": 102, "trialdata": {"rt": -1000, "trial_type": "single-audio", "word": "bathtub", "stimulus": "/static/audio/wordpool/BATHTUB.wav", "conditions": [24, 800, "a", 24000], "internal_node_id": "0.0-75.0", "trial": 2, "time_elapsed": 584275, "serialpos": 13, "key_press": -1, "wordID": 99, "type": "PRES_AUD", "trial_index": 102}, "uniqueid": "MTK1610:3G5W44VEU8P34Y31RTYP07MUQ2CGK1", "dateTime": 1516044446568}, {"current_trial": 103, "trialdata": {"rt": -1000, "trial_type": "single-audio", "word": "snail", "stimulus": "/static/audio/wordpool/SNAIL.wav", "conditions": [24, 800, "a", 24000], "internal_node_id": "0.0-76.0", "trial": 2, "time_elapsed": 586186, "serialpos": 14, "key_press": -1, "wordID": 1331, "type": "PRES_AUD", "trial_index": 103}, "uniqueid": "MTK1610:3G5W44VEU8P34Y31RTYP07MUQ2CGK1", "dateTime": 1516044448479}, {"current_trial": 104, "trialdata": {"rt": -1000, "trial_type": "single-audio", "word": "skirt", "stimulus": "/static/audio/wordpool/SKIRT.wav", "conditions": [24, 800, "a", 24000], "internal_node_id": "0.0-77.0", "trial": 2, "time_elapsed": 587993, "serialpos": 15, "key_press": -1, "wordID": 1318, "type": "PRES_AUD", "trial_index": 104}, "uniqueid": "MTK1610:3G5W44VEU8P34Y31RTYP07MUQ2CGK1", "dateTime": 1516044450285}, {"current_trial": 105, "trialdata": {"rt": -1000, "trial_type": "single-audio", "word": "dresser", "stimulus": "/static/audio/wordpool/DRESSER.wav", "conditions": [24, 800, "a", 24000], "internal_node_id": "0.0-78.0", "trial": 2, "time_elapsed": 589676, "serialpos": 16, "key_press": -1, "wordID": 495, "type": "PRES_AUD", "trial_index": 105}, "uniqueid": "MTK1610:3G5W44VEU8P34Y31RTYP07MUQ2CGK1", "dateTime": 1516044451969}, {"current_trial": 106, "trialdata": {"rt": -1000, "trial_type": "single-audio", "word": "pork", "stimulus": "/static/audio/wordpool/PORK.wav", "conditions": [24, 800, "a", 24000], "internal_node_id": "0.0-79.0", "trial": 2, "time_elapsed": 591560, "serialpos": 17, "key_press": -1, "wordID": 1107, "type": "PRES_AUD", "trial_index": 106}, "uniqueid": "MTK1610:3G5W44VEU8P34Y31RTYP07MUQ2CGK1", "dateTime": 1516044453853}, {"current_trial": 107, "trialdata": {"rt": -1000, "trial_type": "single-audio", "word": "brandy", "stimulus": "/static/audio/wordpool/BRANDY.wav", "conditions": [24, 800, "a", 24000], "internal_node_id": "0.0-80.0", "trial": 2, "time_elapsed": 593391, "serialpos": 18, "key_press": -1, "wordID": 168, "type": "PRES_AUD", "trial_index": 107}, "uniqueid": "MTK1610:3G5W44VEU8P34Y31RTYP07MUQ2CGK1", "dateTime": 1516044455684}, {"current_trial": 108, "trialdata": {"rt": -1000, "trial_type": "single-audio", "word": "kitchen", "stimulus": "/static/audio/wordpool/KITCHEN.wav", "conditions": [24, 800, "a", 24000], "internal_node_id": "0.0-81.0", "trial": 2, "time_elapsed": 595368, "serialpos": 19, "key_press": -1, "wordID": 777, "type": "PRES_AUD", "trial_index": 108}, "uniqueid": "MTK1610:3G5W44VEU8P34Y31RTYP07MUQ2CGK1", "dateTime": 1516044457661}, {"current_trial": 109, "trialdata": {"rt": -1000, "trial_type": "single-audio", "word": "cook", "stimulus": "/static/audio/wordpool/COOK.wav", "conditions": [24, 800, "a", 24000], "internal_node_id": "0.0-82.0", "trial": 2, "time_elapsed": 597350, "serialpos": 20, "key_press": -1, "wordID": 371, "type": "PRES_AUD", "trial_index": 109}, "uniqueid": "MTK1610:3G5W44VEU8P34Y31RTYP07MUQ2CGK1", "dateTime": 1516044459643}, {"current_trial": 110, "trialdata": {"rt": -1000, "trial_type": "single-audio", "word": "boyfriend", "stimulus": "/static/audio/wordpool/BOYFRIEND.wav", "conditions": [24, 800, "a", 24000], "internal_node_id": "0.0-83.0", "trial": 2, "time_elapsed": 599121, "serialpos": 21, "key_press": -1, "wordID": 161, "type": "PRES_AUD", "trial_index": 110}, "uniqueid": "MTK1610:3G5W44VEU8P34Y31RTYP07MUQ2CGK1", "dateTime": 1516044461414}, {"current_trial": 111, "trialdata": {"rt": -1000, "trial_type": "single-audio", "word": "lava", "stimulus": "/static/audio/wordpool/LAVA.wav", "conditions": [24, 800, "a", 24000], "internal_node_id": "0.0-84.0", "trial": 2, "time_elapsed": 601091, "serialpos": 22, "key_press": -1, "wordID": 803, "type": "PRES_AUD", "trial_index": 111}, "uniqueid": "MTK1610:3G5W44VEU8P34Y31RTYP07MUQ2CGK1", "dateTime": 1516044463384}, {"current_trial": 112, "trialdata": {"rt": -1000, "trial_type": "single-audio", "word": "scotch", "stimulus": "/static/audio/wordpool/SCOTCH.wav", "conditions": [24, 800, "a", 24000], "internal_node_id": "0.0-85.0", "trial": 2, "time_elapsed": 602721, "serialpos": 23, "key_press": -1, "wordID": 1250, "type": "PRES_AUD", "trial_index": 112}, "uniqueid": "MTK1610:3G5W44VEU8P34Y31RTYP07MUQ2CGK1", "dateTime": 1516044465014}, {"current_trial": 113, "trialdata": {"rt": -1, "trial_type": "single-stim", "stimulus": "", "internal_node_id": "0.0-86.0-0.0", "time_elapsed": 604072, "key_press": -1, "type": "PRE_RECALL_DELAY", "trial_index": 113}, "uniqueid": "MTK1610:3G5W44VEU8P34Y31RTYP07MUQ2CGK1", "dateTime": 1516044466364}, {"current_trial": 114, "trialdata": {"rt": -1000, "trial_type": "single-audio", "stimulus": "/static/audio/400Hz.wav", "internal_node_id": "0.0-87.0", "time_elapsed": 604575, "key_press": -1, "type": "PRE_RECALL_ALERT", "trial_index": 114}, "uniqueid": "MTK1610:3G5W44VEU8P34Y31RTYP07MUQ2CGK1", "dateTime": 1516044466868}, {"current_trial": 115, "trialdata": {"rt": [3442, 4978, 8298, 9571, 12162, 32468, 54371, 57924], "recwords": ["scotch", "lava", "boyfriend", "cook", "kitchen", "valve", "dresser", "skirt"], "key_times": [1861, 2154, 2338, 2538, 3010, 3138, 3442, 3954, 4146, 4314, 4762, 4978, 5491, 5707, 5899, 6290, 6995, 7186, 7330, 7555, 8058, 8298, 8874, 8978, 9130, 9362, 9571, 10043, 10443, 10627, 11002, 11171, 11363, 11514, 12162, 31285, 31532, 31699, 31948, 32163, 32468, 52077, 52325, 52548, 52773, 52908, 53133, 53260, 54371, 56676, 57012, 57253, 57445, 57669, 57924], "trial_type": "free-recall", "conditions": [24, 800, "a", 24000], "internal_node_id": "0.0-88.0-0.0", "key_presses": [83, 67, 79, 84, 67, 72, 32, 76, 65, 86, 65, 32, 66, 79, 89, 70, 82, 73, 69, 78, 68, 13, 67, 79, 79, 75, 32, 75, 73, 84, 67, 72, 69, 78, 13, 86, 65, 76, 86, 69, 13, 68, 82, 69, 83, 83, 69, 82, 13, 83, 75, 73, 82, 84, 13], "trial": 2, "time_elapsed": 664591, "type": "FREE_RECALL", "trial_index": 115}, "uniqueid": "MTK1610:3G5W44VEU8P34Y31RTYP07MUQ2CGK1", "dateTime": 1516044526898}, {"current_trial": 116, "trialdata": {"rt": 2546, "trial_type": "text", "internal_node_id": "0.0-89.0", "time_elapsed": 669156, "key_press": 13, "type": "INSTRUCTIONS", "trial_index": 116}, "uniqueid": "MTK1610:3G5W44VEU8P34Y31RTYP07MUQ2CGK1", "dateTime": 1516044531449}, {"current_trial": 117, "trialdata": {"rt": [], "trial_type": "math-distractor", "key_times": [11898], "responses": [], "num2": [8], "num3": [6], "conditions": [24, 1600, "a", 12000], "internal_node_id": "0.0-90.0", "key_presses": [50], "trial": 3, "time_elapsed": 683168, "type": "DISTRACTOR", "trial_index": 117, "num1": [8]}, "uniqueid": "MTK1610:3G5W44VEU8P34Y31RTYP07MUQ2CGK1", "dateTime": 1516044545460}, {"current_trial": 118, "trialdata": {"rt": -1, "trial_type": "single-stim", "stimulus": "<p id=\"stim\">10</p>", "internal_node_id": "0.0-91.0-0.0", "time_elapsed": 686174, "key_press": -1, "trial_index": 118}, "uniqueid": "MTK1610:3G5W44VEU8P34Y31RTYP07MUQ2CGK1", "dateTime": 1516044548466}, {"current_trial": 119, "trialdata": {"rt": -1, "trial_type": "single-stim", "stimulus": "<p id=\"stim\">9</p>", "internal_node_id": "0.0-91.0-1.0", "time_elapsed": 687178, "key_press": -1, "trial_index": 119}, "uniqueid": "MTK1610:3G5W44VEU8P34Y31RTYP07MUQ2CGK1", "dateTime": 1516044549471}, {"current_trial": 120, "trialdata": {"rt": -1, "trial_type": "single-stim", "stimulus": "<p id=\"stim\">8</p>", "internal_node_id": "0.0-91.0-2.0", "time_elapsed": 688183, "key_press": -1, "trial_index": 120}, "uniqueid": "MTK1610:3G5W44VEU8P34Y31RTYP07MUQ2CGK1", "dateTime": 1516044550476}, {"current_trial": 121, "trialdata": {"rt": -1, "trial_type": "single-stim", "stimulus": "<p id=\"stim\">7</p>", "internal_node_id": "0.0-91.0-3.0", "time_elapsed": 689186, "key_press": -1, "trial_index": 121}, "uniqueid": "MTK1610:3G5W44VEU8P34Y31RTYP07MUQ2CGK1", "dateTime": 1516044551479}, {"current_trial": 122, "trialdata": {"rt": -1, "trial_type": "single-stim", "stimulus": "<p id=\"stim\">6</p>", "internal_node_id": "0.0-91.0-4.0", "time_elapsed": 690190, "key_press": -1, "trial_index": 122}, "uniqueid": "MTK1610:3G5W44VEU8P34Y31RTYP07MUQ2CGK1", "dateTime": 1516044552483}, {"current_trial": 123, "trialdata": {"rt": -1, "trial_type": "single-stim", "stimulus": "<p id=\"stim\">5</p>", "internal_node_id": "0.0-91.0-5.0", "time_elapsed": 691195, "key_press": -1, "trial_index": 123}, "uniqueid": "MTK1610:3G5W44VEU8P34Y31RTYP07MUQ2CGK1", "dateTime": 1516044553488}, {"current_trial": 124, "trialdata": {"rt": -1, "trial_type": "single-stim", "stimulus": "<p id=\"stim\">4</p>", "internal_node_id": "0.0-91.0-6.0", "time_elapsed": 692200, "key_press": -1, "trial_index": 124}, "uniqueid": "MTK1610:3G5W44VEU8P34Y31RTYP07MUQ2CGK1", "dateTime": 1516044554492}, {"current_trial": 125, "trialdata": {"rt": -1, "trial_type": "single-stim", "stimulus": "<p id=\"stim\">3</p>", "internal_node_id": "0.0-91.0-7.0", "time_elapsed": 693205, "key_press": -1, "trial_index": 125}, "uniqueid": "MTK1610:3G5W44VEU8P34Y31RTYP07MUQ2CGK1", "dateTime": 1516044555497}, {"current_trial": 126, "trialdata": {"rt": -1, "trial_type": "single-stim", "stimulus": "<p id=\"stim\">2</p>", "internal_node_id": "0.0-91.0-8.0", "time_elapsed": 694208, "key_press": -1, "trial_index": 126}, "uniqueid": "MTK1610:3G5W44VEU8P34Y31RTYP07MUQ2CGK1", "dateTime": 1516044556501}, {"current_trial": 127, "trialdata": {"rt": -1, "trial_type": "single-stim", "stimulus": "<p id=\"stim\">1</p>", "internal_node_id": "0.0-91.0-9.0", "time_elapsed": 695212, "key_press": -1, "trial_index": 127}, "uniqueid": "MTK1610:3G5W44VEU8P34Y31RTYP07MUQ2CGK1", "dateTime": 1516044557505}, {"current_trial": 128, "trialdata": {"rt": -1, "trial_type": "single-stim", "stimulus": "<p id=\"stim\">+</p>", "internal_node_id": "0.0-92.0-0.0", "time_elapsed": 696717, "key_press": -1, "type": "FIXATION", "trial_index": 128}, "uniqueid": "MTK1610:3G5W44VEU8P34Y31RTYP07MUQ2CGK1", "dateTime": 1516044559009}, {"current_trial": 129, "trialdata": {"rt": -1000, "trial_type": "single-audio", "word": "stove", "stimulus": "/static/audio/wordpool/STOVE.wav", "conditions": [24, 1600, "a", 12000], "internal_node_id": "0.0-93.0", "trial": 3, "time_elapsed": 699471, "serialpos": 0, "key_press": -1, "wordID": 1387, "type": "PRES_AUD", "trial_index": 129}, "uniqueid": "MTK1610:3G5W44VEU8P34Y31RTYP07MUQ2CGK1", "dateTime": 1516044561763}, {"current_trial": 130, "trialdata": {"rt": -1000, "trial_type": "single-audio", "word": "football", "stimulus": "/static/audio/wordpool/FOOTBALL.wav", "conditions": [24, 1600, "a", 12000], "internal_node_id": "0.0-94.0", "trial": 3, "time_elapsed": 702035, "serialpos": 1, "key_press": -1, "wordID": 590, "type": "PRES_AUD", "trial_index": 130}, "uniqueid": "MTK1610:3G5W44VEU8P34Y31RTYP07MUQ2CGK1", "dateTime": 1516044564328}, {"current_trial": 131, "trialdata": {"rt": -1000, "trial_type": "single-audio", "word": "fungus", "stimulus": "/static/audio/wordpool/FUNGUS.wav", "conditions": [24, 1600, "a", 12000], "internal_node_id": "0.0-95.0", "trial": 3, "time_elapsed": 704458, "serialpos": 2, "key_press": -1, "wordID": 613, "type": "PRES_AUD", "trial_index": 131}, "uniqueid": "MTK1610:3G5W44VEU8P34Y31RTYP07MUQ2CGK1", "dateTime": 1516044566751}, {"current_trial": 132, "trialdata": {"rt": -1000, "trial_type": "single-audio", "word": "drink", "stimulus": "/static/audio/wordpool/DRINK.wav", "conditions": [24, 1600, "a", 12000], "internal_node_id": "0.0-96.0", "trial": 3, "time_elapsed": 706920, "serialpos": 3, "key_press": -1, "wordID": 497, "type": "PRES_AUD", "trial_index": 132}, "uniqueid": "MTK1610:3G5W44VEU8P34Y31RTYP07MUQ2CGK1", "dateTime": 1516044569213}, {"current_trial": 133, "trialdata": {"rt": -1000, "trial_type": "single-audio", "word": "author", "stimulus": "/static/audio/wordpool/AUTHOR.wav", "conditions": [24, 1600, "a", 12000], "internal_node_id": "0.0-97.0", "trial": 3, "time_elapsed": 709555, "serialpos": 4, "key_press": -1, "wordID": 60, "type": "PRES_AUD", "trial_index": 133}, "uniqueid": "MTK1610:3G5W44VEU8P34Y31RTYP07MUQ2CGK1", "dateTime": 1516044571848}, {"current_trial": 134, "trialdata": {"rt": -1000, "trial_type": "single-audio", "word": "survey", "stimulus": "/static/audio/wordpool/SURVEY.wav", "conditions": [24, 1600, "a", 12000], "internal_node_id": "0.0-98.0", "trial": 3, "time_elapsed": 712135, "serialpos": 5, "key_press": -1, "wordID": 1413, "type": "PRES_AUD", "trial_index": 134}, "uniqueid": "MTK1610:3G5W44VEU8P34Y31RTYP07MUQ2CGK1", "dateTime": 1516044574428}, {"current_trial": 135, "trialdata": {"rt": -1000, "trial_type": "single-audio", "word": "report", "stimulus": "/static/audio/wordpool/REPORT.wav", "conditions": [24, 1600, "a", 12000], "internal_node_id": "0.0-99.0", "trial": 3, "time_elapsed": 714640, "serialpos": 6, "key_press": -1, "wordID": 1183, "type": "PRES_AUD", "trial_index": 135}, "uniqueid": "MTK1610:3G5W44VEU8P34Y31RTYP07MUQ2CGK1", "dateTime": 1516044576933}, {"current_trial": 136, "trialdata": {"rt": -1000, "trial_type": "single-audio", "word": "cocoon", "stimulus": "/static/audio/wordpool/COCOON.wav", "conditions": [24, 1600, "a", 12000], "internal_node_id": "0.0-100.0", "trial": 3, "time_elapsed": 717122, "serialpos": 7, "key_press": -1, "wordID": 338, "type": "PRES_AUD", "trial_index": 136}, "uniqueid": "MTK1610:3G5W44VEU8P34Y31RTYP07MUQ2CGK1", "dateTime": 1516044579414}, {"current_trial": 137, "trialdata": {"rt": -1000, "trial_type": "single-audio", "word": "flesh", "stimulus": "/static/audio/wordpool/FLESH.wav", "conditions": [24, 1600, "a", 12000], "internal_node_id": "0.0-101.0", "trial": 3, "time_elapsed": 719548, "serialpos": 8, "key_press": -1, "wordID": 578, "type": "PRES_AUD", "trial_index": 137}, "uniqueid": "MTK1610:3G5W44VEU8P34Y31RTYP07MUQ2CGK1", "dateTime": 1516044581840}, {"current_trial": 138, "trialdata": {"rt": -1000, "trial_type": "single-audio", "word": "lady", "stimulus": "/static/audio/wordpool/LADY.wav", "conditions": [24, 1600, "a", 12000], "internal_node_id": "0.0-102.0", "trial": 3, "time_elapsed": 722126, "serialpos": 9, "key_press": -1, "wordID": 793, "type": "PRES_AUD", "trial_index": 138}, "uniqueid": "MTK1610:3G5W44VEU8P34Y31RTYP07MUQ2CGK1", "dateTime": 1516044584419}, {"current_trial": 139, "trialdata": {"rt": -1000, "trial_type": "single-audio", "word": "donor", "stimulus": "/static/audio/wordpool/DONOR.wav", "conditions": [24, 1600, "a", 12000], "internal_node_id": "0.0-103.0", "trial": 3, "time_elapsed": 724622, "serialpos": 10, "key_press": -1, "wordID": 484, "type": "PRES_AUD", "trial_index": 139}, "uniqueid": "MTK1610:3G5W44VEU8P34Y31RTYP07MUQ2CGK1", "dateTime": 1516044586915}, {"current_trial": 140, "trialdata": {"rt": -1000, "trial_type": "single-audio", "word": "fireplace", "stimulus": "/static/audio/wordpool/FIREPLACE.wav", "conditions": [24, 1600, "a", 12000], "internal_node_id": "0.0-104.0", "trial": 3, "time_elapsed": 727376, "serialpos": 11, "key_press": -1, "wordID": 569, "type": "PRES_AUD", "trial_index": 140}, "uniqueid": "MTK1610:3G5W44VEU8P34Y31RTYP07MUQ2CGK1", "dateTime": 1516044589668}, {"current_trial": 141, "trialdata": {"rt": -1000, "trial_type": "single-audio", "word": "bank", "stimulus": "/static/audio/wordpool/BANK.wav", "conditions": [24, 1600, "a", 12000], "internal_node_id": "0.0-105.0", "trial": 3, "time_elapsed": 729816, "serialpos": 12, "key_press": -1, "wordID": 82, "type": "PRES_AUD", "trial_index": 141}, "uniqueid": "MTK1610:3G5W44VEU8P34Y31RTYP07MUQ2CGK1", "dateTime": 1516044592109}, {"current_trial": 142, "trialdata": {"rt": -1000, "trial_type": "single-audio", "word": "orchid", "stimulus": "/static/audio/wordpool/ORCHID.wav", "conditions": [24, 1600, "a", 12000], "internal_node_id": "0.0-106.0", "trial": 3, "time_elapsed": 732375, "serialpos": 13, "key_press": -1, "wordID": 981, "type": "PRES_AUD", "trial_index": 142}, "uniqueid": "MTK1610:3G5W44VEU8P34Y31RTYP07MUQ2CGK1", "dateTime": 1516044594667}, {"current_trial": 143, "trialdata": {"rt": -1000, "trial_type": "single-audio", "word": "monster", "stimulus": "/static/audio/wordpool/MONSTER.wav", "conditions": [24, 1600, "a", 12000], "internal_node_id": "0.0-107.0", "trial": 3, "time_elapsed": 734891, "serialpos": 14, "key_press": -1, "wordID": 911, "type": "PRES_AUD", "trial_index": 143}, "uniqueid": "MTK1610:3G5W44VEU8P34Y31RTYP07MUQ2CGK1", "dateTime": 1516044597184}, {"current_trial": 144, "trialdata": {"rt": -1000, "trial_type": "single-audio", "word": "rooster", "stimulus": "/static/audio/wordpool/ROOSTER.wav", "conditions": [24, 1600, "a", 12000], "internal_node_id": "0.0-108.0", "trial": 3, "time_elapsed": 737521, "serialpos": 15, "key_press": -1, "wordID": 1208, "type": "PRES_AUD", "trial_index": 144}, "uniqueid": "MTK1610:3G5W44VEU8P34Y31RTYP07MUQ2CGK1", "dateTime": 1516044599813}, {"current_trial": 145, "trialdata": {"rt": -1000, "trial_type": "single-audio", "word": "uncle", "stimulus": "/static/audio/wordpool/UNCLE.wav", "conditions": [24, 1600, "a", 12000], "internal_node_id": "0.0-109.0", "trial": 3, "time_elapsed": 740063, "serialpos": 16, "key_press": -1, "wordID": 1535, "type": "PRES_AUD", "trial_index": 145}, "uniqueid": "MTK1610:3G5W44VEU8P34Y31RTYP07MUQ2CGK1", "dateTime": 1516044602355}, {"current_trial": 146, "trialdata": {"rt": -1000, "trial_type": "single-audio", "word": "widow", "stimulus": "/static/audio/wordpool/WIDOW.wav", "conditions": [24, 1600, "a", 12000], "internal_node_id": "0.0-110.0", "trial": 3, "time_elapsed": 742536, "serialpos": 17, "key_press": -1, "wordID": 1607, "type": "PRES_AUD", "trial_index": 146}, "uniqueid": "MTK1610:3G5W44VEU8P34Y31RTYP07MUQ2CGK1", "dateTime": 1516044604829}, {"current_trial": 147, "trialdata": {"rt": -1000, "trial_type": "single-audio", "word": "garden", "stimulus": "/static/audio/wordpool/GARDEN.wav", "conditions": [24, 1600, "a", 12000], "internal_node_id": "0.0-111.0", "trial": 3, "time_elapsed": 745142, "serialpos": 18, "key_press": -1, "wordID": 622, "type": "PRES_AUD", "trial_index": 147}, "uniqueid": "MTK1610:3G5W44VEU8P34Y31RTYP07MUQ2CGK1", "dateTime": 1516044607434}, {"current_trial": 148, "trialdata": {"rt": -1000, "trial_type": "single-audio", "word": "beaker", "stimulus": "/static/audio/wordpool/BEAKER.wav", "conditions": [24, 1600, "a", 12000], "internal_node_id": "0.0-112.0", "trial": 3, "time_elapsed": 747808, "serialpos": 19, "key_press": -1, "wordID": 103, "type": "PRES_AUD", "trial_index": 148}, "uniqueid": "MTK1610:3G5W44VEU8P34Y31RTYP07MUQ2CGK1", "dateTime": 1516044610100}, {"current_trial": 149, "trialdata": {"rt": -1000, "trial_type": "single-audio", "word": "chemist", "stimulus": "/static/audio/wordpool/CHEMIST.wav", "conditions": [24, 1600, "a", 12000], "internal_node_id": "0.0-113.0", "trial": 3, "time_elapsed": 750608, "serialpos": 20, "key_press": -1, "wordID": 291, "type": "PRES_AUD", "trial_index": 149}, "uniqueid": "MTK1610:3G5W44VEU8P34Y31RTYP07MUQ2CGK1", "dateTime": 1516044612900}, {"current_trial": 150, "trialdata": {"rt": -1000, "trial_type": "single-audio", "word": "glass", "stimulus": "/static/audio/wordpool/GLASS.wav", "conditions": [24, 1600, "a", 12000], "internal_node_id": "0.0-114.0", "trial": 3, "time_elapsed": 753082, "serialpos": 21, "key_press": -1, "wordID": 638, "type": "PRES_AUD", "trial_index": 150}, "uniqueid": "MTK1610:3G5W44VEU8P34Y31RTYP07MUQ2CGK1", "dateTime": 1516044615374}, {"current_trial": 151, "trialdata": {"rt": -1000, "trial_type": "single-audio", "word": "jelly", "stimulus": "/static/audio/wordpool/JELLY.wav", "conditions": [24, 1600, "a", 12000], "internal_node_id": "0.0-115.0", "trial": 3, "time_elapsed": 755498, "serialpos": 22, "key_press": -1, "wordID": 754, "type": "PRES_AUD", "trial_index": 151}, "uniqueid": "MTK1610:3G5W44VEU8P34Y31RTYP07MUQ2CGK1", "dateTime": 1516044617791}, {"current_trial": 152, "trialdata": {"rt": -1000, "trial_type": "single-audio", "word": "venus", "stimulus": "/static/audio/wordpool/VENUS.wav", "conditions": [24, 1600, "a", 12000], "internal_node_id": "0.0-116.0", "trial": 3, "time_elapsed": 757946, "serialpos": 23, "key_press": -1, "wordID": 1556, "type": "PRES_AUD", "trial_index": 152}, "uniqueid": "MTK1610:3G5W44VEU8P34Y31RTYP07MUQ2CGK1", "dateTime": 1516044620239}, {"current_trial": 153, "trialdata": {"rt": -1, "trial_type": "single-stim", "stimulus": "", "internal_node_id": "0.0-117.0-0.0", "time_elapsed": 759312, "key_press": -1, "type": "PRE_RECALL_DELAY", "trial_index": 153}, "uniqueid": "MTK1610:3G5W44VEU8P34Y31RTYP07MUQ2CGK1", "dateTime": 1516044621605}, {"current_trial": 154, "trialdata": {"rt": -1000, "trial_type": "single-audio", "stimulus": "/static/audio/400Hz.wav", "internal_node_id": "0.0-118.0", "time_elapsed": 759817, "key_press": -1, "type": "PRE_RECALL_ALERT", "trial_index": 154}, "uniqueid": "MTK1610:3G5W44VEU8P34Y31RTYP07MUQ2CGK1", "dateTime": 1516044622110}, {"current_trial": 155, "trialdata": {"rt": [2645, 4998, 6760, 9205, 13589], "recwords": ["venus", "chemist", "glass", "beaker", "cocoon"], "key_times": [1575, 1789, 1950, 2237, 2430, 2645, 3550, 3701, 3829, 4086, 4277, 4397, 4534, 4998, 5494, 5638, 5829, 6270, 6422, 6760, 7317, 7614, 7830, 8270, 8598, 8710, 9205, 11856, 12006, 12494, 12926, 13086, 13287, 13589], "trial_type": "free-recall", "conditions": [24, 1600, "a", 12000], "internal_node_id": "0.0-119.0-0.0", "key_presses": [86, 69, 78, 85, 83, 13, 67, 72, 69, 77, 73, 83, 84, 13, 71, 76, 65, 83, 83, 13, 66, 69, 65, 75, 69, 82, 13, 67, 79, 67, 79, 79, 78, 13], "trial": 3, "time_elapsed": 819829, "type": "FREE_RECALL", "trial_index": 155}, "uniqueid": "MTK1610:3G5W44VEU8P34Y31RTYP07MUQ2CGK1", "dateTime": 1516044682140}, {"current_trial": 156, "trialdata": {"rt": 2271, "trial_type": "text", "internal_node_id": "0.0-120.0", "time_elapsed": 824123, "key_press": 13, "type": "INSTRUCTIONS", "trial_index": 156}, "uniqueid": "MTK1610:3G5W44VEU8P34Y31RTYP07MUQ2CGK1", "dateTime": 1516044686415}, {"current_trial": 157, "trialdata": {"rt": [6318, 12309, 16782, 20525], "trial_type": "math-distractor", "key_times": [5509, 5846, 6318, 10991, 11767, 12309, 15734, 16447, 16782, 19343, 19550, 20525, 23816], "responses": ["18", "15", "16", "11"], "num2": [9, 4, 8, 1, 2], "num3": [5, 2, 7, 7, 2], "conditions": [12, 800, "a", 24000], "internal_node_id": "0.0-121.0", "key_presses": [49, 56, 13, 49, 53, 13, 49, 54, 13, 49, 49, 13, 49], "trial": 4, "time_elapsed": 850134, "type": "DISTRACTOR", "trial_index": 157, "num1": [4, 9, 1, 3, 9]}, "uniqueid": "MTK1610:3G5W44VEU8P34Y31RTYP07MUQ2CGK1", "dateTime": 1516044712427}, {"current_trial": 158, "trialdata": {"rt": -1, "trial_type": "single-stim", "stimulus": "<p id=\"stim\">10</p>", "internal_node_id": "0.0-122.0-0.0", "time_elapsed": 853139, "key_press": -1, "trial_index": 158}, "uniqueid": "MTK1610:3G5W44VEU8P34Y31RTYP07MUQ2CGK1", "dateTime": 1516044715432}, {"current_trial": 159, "trialdata": {"rt": -1, "trial_type": "single-stim", "stimulus": "<p id=\"stim\">9</p>", "internal_node_id": "0.0-122.0-1.0", "time_elapsed": 854145, "key_press": -1, "trial_index": 159}, "uniqueid": "MTK1610:3G5W44VEU8P34Y31RTYP07MUQ2CGK1", "dateTime": 1516044716437}, {"current_trial": 160, "trialdata": {"rt": -1, "trial_type": "single-stim", "stimulus": "<p id=\"stim\">8</p>", "internal_node_id": "0.0-122.0-2.0", "time_elapsed": 855149, "key_press": -1, "trial_index": 160}, "uniqueid": "MTK1610:3G5W44VEU8P34Y31RTYP07MUQ2CGK1", "dateTime": 1516044717442}, {"current_trial": 161, "trialdata": {"rt": -1, "trial_type": "single-stim", "stimulus": "<p id=\"stim\">7</p>", "internal_node_id": "0.0-122.0-3.0", "time_elapsed": 856155, "key_press": -1, "trial_index": 161}, "uniqueid": "MTK1610:3G5W44VEU8P34Y31RTYP07MUQ2CGK1", "dateTime": 1516044718447}, {"current_trial": 162, "trialdata": {"rt": -1, "trial_type": "single-stim", "stimulus": "<p id=\"stim\">6</p>", "internal_node_id": "0.0-122.0-4.0", "time_elapsed": 857159, "key_press": -1, "trial_index": 162}, "uniqueid": "MTK1610:3G5W44VEU8P34Y31RTYP07MUQ2CGK1", "dateTime": 1516044719451}, {"current_trial": 163, "trialdata": {"rt": -1, "trial_type": "single-stim", "stimulus": "<p id=\"stim\">5</p>", "internal_node_id": "0.0-122.0-5.0", "time_elapsed": 858163, "key_press": -1, "trial_index": 163}, "uniqueid": "MTK1610:3G5W44VEU8P34Y31RTYP07MUQ2CGK1", "dateTime": 1516044720456}, {"current_trial": 164, "trialdata": {"rt": -1, "trial_type": "single-stim", "stimulus": "<p id=\"stim\">4</p>", "internal_node_id": "0.0-122.0-6.0", "time_elapsed": 859167, "key_press": -1, "trial_index": 164}, "uniqueid": "MTK1610:3G5W44VEU8P34Y31RTYP07MUQ2CGK1", "dateTime": 1516044721459}, {"current_trial": 165, "trialdata": {"rt": -1, "trial_type": "single-stim", "stimulus": "<p id=\"stim\">3</p>", "internal_node_id": "0.0-122.0-7.0", "time_elapsed": 860172, "key_press": -1, "trial_index": 165}, "uniqueid": "MTK1610:3G5W44VEU8P34Y31RTYP07MUQ2CGK1", "dateTime": 1516044722464}, {"current_trial": 166, "trialdata": {"rt": -1, "trial_type": "single-stim", "stimulus": "<p id=\"stim\">2</p>", "internal_node_id": "0.0-122.0-8.0", "time_elapsed": 861176, "key_press": -1, "trial_index": 166}, "uniqueid": "MTK1610:3G5W44VEU8P34Y31RTYP07MUQ2CGK1", "dateTime": 1516044723468}, {"current_trial": 167, "trialdata": {"rt": -1, "trial_type": "single-stim", "stimulus": "<p id=\"stim\">1</p>", "internal_node_id": "0.0-122.0-9.0", "time_elapsed": 862180, "key_press": -1, "trial_index": 167}, "uniqueid": "MTK1610:3G5W44VEU8P34Y31RTYP07MUQ2CGK1", "dateTime": 1516044724472}, {"current_trial": 168, "trialdata": {"rt": -1, "trial_type": "single-stim", "stimulus": "<p id=\"stim\">+</p>", "internal_node_id": "0.0-123.0-0.0", "time_elapsed": 863684, "key_press": -1, "type": "FIXATION", "trial_index": 168}, "uniqueid": "MTK1610:3G5W44VEU8P34Y31RTYP07MUQ2CGK1", "dateTime": 1516044725976}, {"current_trial": 169, "trialdata": {"rt": -1000, "trial_type": "single-audio", "word": "sister", "stimulus": "/static/audio/wordpool/SISTER.wav", "conditions": [12, 800, "a", 24000], "internal_node_id": "0.0-124.0", "trial": 4, "time_elapsed": 865588, "serialpos": 0, "key_press": -1, "wordID": 1311, "type": "PRES_AUD", "trial_index": 169}, "uniqueid": "MTK1610:3G5W44VEU8P34Y31RTYP07MUQ2CGK1", "dateTime": 1516044727880}, {"current_trial": 170, "trialdata": {"rt": -1000, "trial_type": "single-audio", "word": "parsley", "stimulus": "/static/audio/wordpool/PARSLEY.wav", "conditions": [12, 800, "a", 24000], "internal_node_id": "0.0-125.0", "trial": 4, "time_elapsed": 867328, "serialpos": 1, "key_press": -1, "wordID": 1015, "type": "PRES_AUD", "trial_index": 170}, "uniqueid": "MTK1610:3G5W44VEU8P34Y31RTYP07MUQ2CGK1", "dateTime": 1516044729621}, {"current_trial": 171, "trialdata": {"rt": -1000, "trial_type": "single-audio", "word": "body", "stimulus": "/static/audio/wordpool/BODY.wav", "conditions": [12, 800, "a", 24000], "internal_node_id": "0.0-126.0", "trial": 4, "time_elapsed": 869028, "serialpos": 2, "key_press": -1, "wordID": 144, "type": "PRES_AUD", "trial_index": 171}, "uniqueid": "MTK1610:3G5W44VEU8P34Y31RTYP07MUQ2CGK1", "dateTime": 1516044731320}, {"current_trial": 172, "trialdata": {"rt": -1000, "trial_type": "single-audio", "word": "daughter", "stimulus": "/static/audio/wordpool/DAUGHTER.wav", "conditions": [12, 800, "a", 24000], "internal_node_id": "0.0-127.0", "trial": 4, "time_elapsed": 870697, "serialpos": 3, "key_press": -1, "wordID": 441, "type": "PRES_AUD", "trial_index": 172}, "uniqueid": "MTK1610:3G5W44VEU8P34Y31RTYP07MUQ2CGK1", "dateTime": 1516044732990}, {"current_trial": 173, "trialdata": {"rt": -1000, "trial_type": "single-audio", "word": "racket", "stimulus": "/static/audio/wordpool/RACKET.wav", "conditions": [12, 800, "a", 24000], "internal_node_id": "0.0-128.0", "trial": 4, "time_elapsed": 872669, "serialpos": 4, "key_press": -1, "wordID": 1154, "type": "PRES_AUD", "trial_index": 173}, "uniqueid": "MTK1610:3G5W44VEU8P34Y31RTYP07MUQ2CGK1", "dateTime": 1516044734962}, {"current_trial": 174, "trialdata": {"rt": -1000, "trial_type": "single-audio", "word": "grave", "stimulus": "/static/audio/wordpool/GRAVE.wav", "conditions": [12, 800, "a", 24000], "internal_node_id": "0.0-129.0", "trial": 4, "time_elapsed": 874584, "serialpos": 5, "key_press": -1, "wordID": 657, "type": "PRES_AUD", "trial_index": 174}, "uniqueid": "MTK1610:3G5W44VEU8P34Y31RTYP07MUQ2CGK1", "dateTime": 1516044736877}, {"current_trial": 175, "trialdata": {"rt": -1000, "trial_type": "single-audio", "word": "swamp", "stimulus": "/static/audio/wordpool/SWAMP.wav", "conditions": [12, 800, "a", 24000], "internal_node_id": "0.0-130.0", "trial": 4, "time_elapsed": 876566, "serialpos": 6, "key_press": -1, "wordID": 1415, "type": "PRES_AUD", "trial_index": 175}, "uniqueid": "MTK1610:3G5W44VEU8P34Y31RTYP07MUQ2CGK1", "dateTime": 1516044738859}, {"current_trial": 176, "trialdata": {"rt": -1000, "trial_type": "single-audio", "word": "ketchup", "stimulus": "/static/audio/wordpool/KETCHUP.wav", "conditions": [12, 800, "a", 24000], "internal_node_id": "0.0-131.0", "trial": 4, "time_elapsed": 878474, "serialpos": 7, "key_press": -1, "wordID": 770, "type": "PRES_AUD", "trial_index": 176}, "uniqueid": "MTK1610:3G5W44VEU8P34Y31RTYP07MUQ2CGK1", "dateTime": 1516044740767}, {"current_trial": 177, "trialdata": {"rt": -1000, "trial_type": "single-audio", "word": "juggler", "stimulus": "/static/audio/wordpool/JUGGLER.wav", "conditions": [12, 800, "a", 24000], "internal_node_id": "0.0-132.0", "trial": 4, "time_elapsed": 880405, "serialpos": 8, "key_press": -1, "wordID": 762, "type": "PRES_AUD", "trial_index": 177}, "uniqueid": "MTK1610:3G5W44VEU8P34Y31RTYP07MUQ2CGK1", "dateTime": 1516044742698}, {"current_trial": 178, "trialdata": {"rt": -1000, "trial_type": "single-audio", "word": "flask", "stimulus": "/static/audio/wordpool/FLASK.wav", "conditions": [12, 800, "a", 24000], "internal_node_id": "0.0-133.0", "trial": 4, "time_elapsed": 882113, "serialpos": 9, "key_press": -1, "wordID": 575, "type": "PRES_AUD", "trial_index": 178}, "uniqueid": "MTK1610:3G5W44VEU8P34Y31RTYP07MUQ2CGK1", "dateTime": 1516044744406}, {"current_trial": 179, "trialdata": {"rt": -1000, "trial_type": "single-audio", "word": "student", "stimulus": "/static/audio/wordpool/STUDENT.wav", "conditions": [12, 800, "a", 24000], "internal_node_id": "0.0-134.0", "trial": 4, "time_elapsed": 884007, "serialpos": 10, "key_press": -1, "wordID": 1394, "type": "PRES_AUD", "trial_index": 179}, "uniqueid": "MTK1610:3G5W44VEU8P34Y31RTYP07MUQ2CGK1", "dateTime": 1516044746299}, {"current_trial": 180, "trialdata": {"rt": -1000, "trial_type": "single-audio", "word": "college", "stimulus": "/static/audio/wordpool/COLLEGE.wav", "conditions": [12, 800, "a", 24000], "internal_node_id": "0.0-135.0", "trial": 4, "time_elapsed": 885993, "serialpos": 11, "key_press": -1, "wordID": 345, "type": "PRES_AUD", "trial_index": 180}, "uniqueid": "MTK1610:3G5W44VEU8P34Y31RTYP07MUQ2CGK1", "dateTime": 1516044748286}, {"current_trial": 181, "trialdata": {"rt": -1, "trial_type": "single-stim", "stimulus": "", "internal_node_id": "0.0-136.0-0.0", "time_elapsed": 887367, "key_press": -1, "type": "PRE_RECALL_DELAY", "trial_index": 181}, "uniqueid": "MTK1610:3G5W44VEU8P34Y31RTYP07MUQ2CGK1", "dateTime": 1516044749660}, {"current_trial": 182, "trialdata": {"rt": -1000, "trial_type": "single-audio", "stimulus": "/static/audio/400Hz.wav", "internal_node_id": "0.0-137.0", "time_elapsed": 887878, "key_press": -1, "type": "PRE_RECALL_ALERT", "trial_index": 182}, "uniqueid": "MTK1610:3G5W44VEU8P34Y31RTYP07MUQ2CGK1", "dateTime": 1516044750171}, {"current_trial": 183, "trialdata": {"rt": [3308, 5989, 8965, 28621, 33095], "recwords": ["student", "college", "juggler", "parsley", "sister"], "key_times": [1263, 1713, 1917, 2181, 2380, 2517, 2669, 3308, 4165, 4317, 4549, 4717, 5277, 5509, 5733, 5989, 6509, 6781, 7213, 7796, 8309, 8477, 8557, 8965, 25551, 25757, 25918, 26342, 26597, 27342, 27838, 28053, 28285, 28621, 31959, 32159, 32303, 32559, 32712, 32799, 33095], "trial_type": "free-recall", "conditions": [12, 800, "a", 24000], "internal_node_id": "0.0-138.0-0.0", "key_presses": [83, 84, 85, 68, 69, 78, 84, 13, 67, 79, 76, 76, 69, 71, 69, 13, 74, 85, 71, 71, 76, 69, 82, 13, 80, 65, 82, 83, 69, 8, 76, 69, 89, 13, 83, 73, 83, 84, 69, 82, 13], "trial": 4, "time_elapsed": 947889, "type": "FREE_RECALL", "trial_index": 183}, "uniqueid": "MTK1610:3G5W44VEU8P34Y31RTYP07MUQ2CGK1", "dateTime": 1516044810206}, {"current_trial": 184, "trialdata": {"rt": 1864, "trial_type": "text", "internal_node_id": "0.0-139.0", "time_elapsed": 951781, "key_press": 13, "type": "INSTRUCTIONS", "trial_index": 184}, "uniqueid": "MTK1610:3G5W44VEU8P34Y31RTYP07MUQ2CGK1", "dateTime": 1516044814073}, {"current_trial": 185, "trialdata": {"rt": [4552, 7392, 18729], "trial_type": "math-distractor", "key_times": [3953, 4185, 4552, 6336, 6904, 7392, 18178, 18361, 18729], "responses": ["12", "13", "22"], "num2": [6, 9, 6, 6], "num3": [1, 3, 9, 9], "conditions": [12, 800, "a", 24000], "internal_node_id": "0.0-140.0", "key_presses": [49, 50, 13, 49, 51, 13, 50, 50, 13], "trial": 5, "time_elapsed": 977793, "type": "DISTRACTOR", "trial_index": 185, "num1": [5, 1, 7, 5]}, "uniqueid": "MTK1610:3G5W44VEU8P34Y31RTYP07MUQ2CGK1", "dateTime": 1516044840086}, {"current_trial": 186, "trialdata": {"rt": -1, "trial_type": "single-stim", "stimulus": "<p id=\"stim\">10</p>", "internal_node_id": "0.0-141.0-0.0", "time_elapsed": 980799, "key_press": -1, "trial_index": 186}, "uniqueid": "MTK1610:3G5W44VEU8P34Y31RTYP07MUQ2CGK1", "dateTime": 1516044843092}, {"current_trial": 187, "trialdata": {"rt": -1, "trial_type": "single-stim", "stimulus": "<p id=\"stim\">9</p>", "internal_node_id": "0.0-141.0-1.0", "time_elapsed": 981803, "key_press": -1, "trial_index": 187}, "uniqueid": "MTK1610:3G5W44VEU8P34Y31RTYP07MUQ2CGK1", "dateTime": 1516044844095}, {"current_trial": 188, "trialdata": {"rt": -1, "trial_type": "single-stim", "stimulus": "<p id=\"stim\">8</p>", "internal_node_id": "0.0-141.0-2.0", "time_elapsed": 982808, "key_press": -1, "trial_index": 188}, "uniqueid": "MTK1610:3G5W44VEU8P34Y31RTYP07MUQ2CGK1", "dateTime": 1516044845100}, {"current_trial": 189, "trialdata": {"rt": -1, "trial_type": "single-stim", "stimulus": "<p id=\"stim\">7</p>", "internal_node_id": "0.0-141.0-3.0", "time_elapsed": 983812, "key_press": -1, "trial_index": 189}, "uniqueid": "MTK1610:3G5W44VEU8P34Y31RTYP07MUQ2CGK1", "dateTime": 1516044846105}, {"current_trial": 190, "trialdata": {"rt": -1, "trial_type": "single-stim", "stimulus": "<p id=\"stim\">6</p>", "internal_node_id": "0.0-141.0-4.0", "time_elapsed": 984817, "key_press": -1, "trial_index": 190}, "uniqueid": "MTK1610:3G5W44VEU8P34Y31RTYP07MUQ2CGK1", "dateTime": 1516044847110}, {"current_trial": 191, "trialdata": {"rt": -1, "trial_type": "single-stim", "stimulus": "<p id=\"stim\">5</p>", "internal_node_id": "0.0-141.0-5.0", "time_elapsed": 985822, "key_press": -1, "trial_index": 191}, "uniqueid": "MTK1610:3G5W44VEU8P34Y31RTYP07MUQ2CGK1", "dateTime": 1516044848115}, {"current_trial": 192, "trialdata": {"rt": -1, "trial_type": "single-stim", "stimulus": "<p id=\"stim\">4</p>", "internal_node_id": "0.0-141.0-6.0", "time_elapsed": 986827, "key_press": -1, "trial_index": 192}, "uniqueid": "MTK1610:3G5W44VEU8P34Y31RTYP07MUQ2CGK1", "dateTime": 1516044849119}, {"current_trial": 193, "trialdata": {"rt": -1, "trial_type": "single-stim", "stimulus": "<p id=\"stim\">3</p>", "internal_node_id": "0.0-141.0-7.0", "time_elapsed": 987832, "key_press": -1, "trial_index": 193}, "uniqueid": "MTK1610:3G5W44VEU8P34Y31RTYP07MUQ2CGK1", "dateTime": 1516044850124}, {"current_trial": 194, "trialdata": {"rt": -1, "trial_type": "single-stim", "stimulus": "<p id=\"stim\">2</p>", "internal_node_id": "0.0-141.0-8.0", "time_elapsed": 988837, "key_press": -1, "trial_index": 194}, "uniqueid": "MTK1610:3G5W44VEU8P34Y31RTYP07MUQ2CGK1", "dateTime": 1516044851129}, {"current_trial": 195, "trialdata": {"rt": -1, "trial_type": "single-stim", "stimulus": "<p id=\"stim\">1</p>", "internal_node_id": "0.0-141.0-9.0", "time_elapsed": 989841, "key_press": -1, "trial_index": 195}, "uniqueid": "MTK1610:3G5W44VEU8P34Y31RTYP07MUQ2CGK1", "dateTime": 1516044852133}, {"current_trial": 196, "trialdata": {"rt": -1, "trial_type": "single-stim", "stimulus": "<p id=\"stim\">+</p>", "internal_node_id": "0.0-142.0-0.0", "time_elapsed": 991346, "key_press": -1, "type": "FIXATION", "trial_index": 196}, "uniqueid": "MTK1610:3G5W44VEU8P34Y31RTYP07MUQ2CGK1", "dateTime": 1516044853639}, {"current_trial": 197, "trialdata": {"rt": -1000, "trial_type": "single-audio", "word": "dustpan", "stimulus": "/static/audio/wordpool/DUSTPAN.wav", "conditions": [12, 800, "a", 24000], "internal_node_id": "0.0-143.0", "trial": 5, "time_elapsed": 993310, "serialpos": 0, "key_press": -1, "wordID": 508, "type": "PRES_AUD", "trial_index": 197}, "uniqueid": "MTK1610:3G5W44VEU8P34Y31RTYP07MUQ2CGK1", "dateTime": 1516044855602}, {"current_trial": 198, "trialdata": {"rt": -1000, "trial_type": "single-audio", "word": "lapel", "stimulus": "/static/audio/wordpool/LAPEL.wav", "conditions": [12, 800, "a", 24000], "internal_node_id": "0.0-144.0", "trial": 5, "time_elapsed": 994955, "serialpos": 1, "key_press": -1, "wordID": 799, "type": "PRES_AUD", "trial_index": 198}, "uniqueid": "MTK1610:3G5W44VEU8P34Y31RTYP07MUQ2CGK1", "dateTime": 1516044857247}, {"current_trial": 199, "trialdata": {"rt": -1000, "trial_type": "single-audio", "word": "shorts", "stimulus": "/static/audio/wordpool/SHORTS.wav", "conditions": [12, 800, "a", 24000], "internal_node_id": "0.0-145.0", "trial": 5, "time_elapsed": 996625, "serialpos": 2, "key_press": -1, "wordID": 1292, "type": "PRES_AUD", "trial_index": 199}, "uniqueid": "MTK1610:3G5W44VEU8P34Y31RTYP07MUQ2CGK1", "dateTime": 1516044858918}, {"current_trial": 200, "trialdata": {"rt": -1000, "trial_type": "single-audio", "word": "stone", "stimulus": "/static/audio/wordpool/STONE.wav", "conditions": [12, 800, "a", 24000], "internal_node_id": "0.0-146.0", "trial": 5, "time_elapsed": 998623, "serialpos": 3, "key_press": -1, "wordID": 1384, "type": "PRES_AUD", "trial_index": 200}, "uniqueid": "MTK1610:3G5W44VEU8P34Y31RTYP07MUQ2CGK1", "dateTime": 1516044860916}, {"current_trial": 201, "trialdata": {"rt": -1000, "trial_type": "single-audio", "word": "arm", "stimulus": "/static/audio/wordpool/ARM.wav", "conditions": [12, 800, "a", 24000], "internal_node_id": "0.0-147.0", "trial": 5, "time_elapsed": 1000301, "serialpos": 4, "key_press": -1, "wordID": 37, "type": "PRES_AUD", "trial_index": 201}, "uniqueid": "MTK1610:3G5W44VEU8P34Y31RTYP07MUQ2CGK1", "dateTime": 1516044862593}, {"current_trial": 202, "trialdata": {"rt": -1000, "trial_type": "single-audio", "word": "cigar", "stimulus": "/static/audio/wordpool/CIGAR.wav", "conditions": [12, 800, "a", 24000], "internal_node_id": "0.0-148.0", "trial": 5, "time_elapsed": 1002003, "serialpos": 5, "key_press": -1, "wordID": 307, "type": "PRES_AUD", "trial_index": 202}, "uniqueid": "MTK1610:3G5W44VEU8P34Y31RTYP07MUQ2CGK1", "dateTime": 1516044864296}, {"current_trial": 203, "trialdata": {"rt": -1000, "trial_type": "single-audio", "word": "possum", "stimulus": "/static/audio/wordpool/POSSUM.wav", "conditions": [12, 800, "a", 24000], "internal_node_id": "0.0-149.0", "trial": 5, "time_elapsed": 1003896, "serialpos": 6, "key_press": -1, "wordID": 1111, "type": "PRES_AUD", "trial_index": 203}, "uniqueid": "MTK1610:3G5W44VEU8P34Y31RTYP07MUQ2CGK1", "dateTime": 1516044866189}, {"current_trial": 204, "trialdata": {"rt": -1000, "trial_type": "single-audio", "word": "panther", "stimulus": "/static/audio/wordpool/PANTHER.wav", "conditions": [12, 800, "a", 24000], "internal_node_id": "0.0-150.0", "trial": 5, "time_elapsed": 1005862, "serialpos": 7, "key_press": -1, "wordID": 1008, "type": "PRES_AUD", "trial_index": 204}, "uniqueid": "MTK1610:3G5W44VEU8P34Y31RTYP07MUQ2CGK1", "dateTime": 1516044868154}, {"current_trial": 205, "trialdata": {"rt": -1000, "trial_type": "single-audio", "word": "empire", "stimulus": "/static/audio/wordpool/EMPIRE.wav", "conditions": [12, 800, "a", 24000], "internal_node_id": "0.0-151.0", "trial": 5, "time_elapsed": 1007486, "serialpos": 8, "key_press": -1, "wordID": 529, "type": "PRES_AUD", "trial_index": 205}, "uniqueid": "MTK1610:3G5W44VEU8P34Y31RTYP07MUQ2CGK1", "dateTime": 1516044869782}, {"current_trial": 206, "trialdata": {"rt": -1000, "trial_type": "single-audio", "word": "lipstick", "stimulus": "/static/audio/wordpool/LIPSTICK.wav", "conditions": [12, 800, "a", 24000], "internal_node_id": "0.0-152.0", "trial": 5, "time_elapsed": 1009228, "serialpos": 9, "key_press": -1, "wordID": 828, "type": "PRES_AUD", "trial_index": 206}, "uniqueid": "MTK1610:3G5W44VEU8P34Y31RTYP07MUQ2CGK1", "dateTime": 1516044871521}, {"current_trial": 207, "trialdata": {"rt": -1000, "trial_type": "single-audio", "word": "garlic", "stimulus": "/static/audio/wordpool/GARLIC.wav", "conditions": [12, 800, "a", 24000], "internal_node_id": "0.0-153.0", "trial": 5, "time_elapsed": 1011232, "serialpos": 10, "key_press": -1, "wordID": 623, "type": "PRES_AUD", "trial_index": 207}, "uniqueid": "MTK1610:3G5W44VEU8P34Y31RTYP07MUQ2CGK1", "dateTime": 1516044873524}, {"current_trial": 208, "trialdata": {"rt": -1000, "trial_type": "single-audio", "word": "brick", "stimulus": "/static/audio/wordpool/BRICK.wav", "conditions": [12, 800, "a", 24000], "internal_node_id": "0.0-154.0", "trial": 5, "time_elapsed": 1013067, "serialpos": 11, "key_press": -1, "wordID": 171, "type": "PRES_AUD", "trial_index": 208}, "uniqueid": "MTK1610:3G5W44VEU8P34Y31RTYP07MUQ2CGK1", "dateTime": 1516044875360}, {"current_trial": 209, "trialdata": {"rt": -1, "trial_type": "single-stim", "stimulus": "", "internal_node_id": "0.0-155.0-0.0", "time_elapsed": 1014341, "key_press": -1, "type": "PRE_RECALL_DELAY", "trial_index": 209}, "uniqueid": "MTK1610:3G5W44VEU8P34Y31RTYP07MUQ2CGK1", "dateTime": 1516044876633}, {"current_trial": 210, "trialdata": {"rt": -1000, "trial_type": "single-audio", "stimulus": "/static/audio/400Hz.wav", "internal_node_id": "0.0-156.0", "time_elapsed": 1014850, "key_press": -1, "type": "PRE_RECALL_ALERT", "trial_index": 210}, "uniqueid": "MTK1610:3G5W44VEU8P34Y31RTYP07MUQ2CGK1", "dateTime": 1516044877143}, {"current_trial": 211, "trialdata": {"rt": [2198, 4989, 6789, 8975, 10797, 47766], "recwords": ["brick", "garlic", "empire", "panther", "possum", "garlic"], "key_times": [1127, 1421, 1669, 1830, 2006, 2198, 2974, 3317, 3518, 3862, 4046, 4214, 4989, 5510, 5662, 5870, 6110, 6294, 6454, 6789, 7366, 7542, 7694, 8119, 8246, 8374, 8453, 8975, 9461, 9702, 9910, 10078, 10278, 10533, 10797, 46081, 46345, 46560, 47000, 47344, 47520, 47766], "trial_type": "free-recall", "conditions": [12, 800, "a", 24000], "internal_node_id": "0.0-157.0-0.0", "key_presses": [66, 82, 73, 67, 75, 32, 71, 65, 82, 76, 73, 67, 13, 69, 77, 80, 73, 82, 69, 13, 80, 65, 78, 84, 72, 69, 82, 13, 80, 79, 83, 83, 85, 77, 13, 71, 65, 82, 76, 73, 67, 13], "trial": 5, "time_elapsed": 1074861, "type": "FREE_RECALL", "trial_index": 211}, "uniqueid": "MTK1610:3G5W44VEU8P34Y31RTYP07MUQ2CGK1", "dateTime": 1516044937177}, {"current_trial": 212, "trialdata": {"rt": 2073, "trial_type": "text", "internal_node_id": "0.0-158.0", "time_elapsed": 1078962, "key_press": 13, "type": "INSTRUCTIONS", "trial_index": 212}, "uniqueid": "MTK1610:3G5W44VEU8P34Y31RTYP07MUQ2CGK1", "dateTime": 1516044941254}, {"current_trial": 213, "trialdata": {"rt": [4328, 7568], "trial_type": "math-distractor", "key_times": [3626, 3952, 4328, 6504, 7234, 7568], "responses": ["12", "18"], "num2": [5, 8, 7], "num3": [1, 7, 9], "conditions": [24, 1600, "a", 12000], "internal_node_id": "0.0-159.0", "key_presses": [49, 50, 13, 49, 56, 13], "trial": 6, "time_elapsed": 1092972, "type": "DISTRACTOR", "trial_index": 213, "num1": [6, 3, 8]}, "uniqueid": "MTK1610:3G5W44VEU8P34Y31RTYP07MUQ2CGK1", "dateTime": 1516044955264}, {"current_trial": 214, "trialdata": {"rt": -1, "trial_type": "single-stim", "stimulus": "<p id=\"stim\">10</p>", "internal_node_id": "0.0-160.0-0.0", "time_elapsed": 1095976, "key_press": -1, "trial_index": 214}, "uniqueid": "MTK1610:3G5W44VEU8P34Y31RTYP07MUQ2CGK1", "dateTime": 1516044958269}, {"current_trial": 215, "trialdata": {"rt": -1, "trial_type": "single-stim", "stimulus": "<p id=\"stim\">9</p>", "internal_node_id": "0.0-160.0-1.0", "time_elapsed": 1096981, "key_press": -1, "trial_index": 215}, "uniqueid": "MTK1610:3G5W44VEU8P34Y31RTYP07MUQ2CGK1", "dateTime": 1516044959273}, {"current_trial": 216, "trialdata": {"rt": -1, "trial_type": "single-stim", "stimulus": "<p id=\"stim\">8</p>", "internal_node_id": "0.0-160.0-2.0", "time_elapsed": 1097985, "key_press": -1, "trial_index": 216}, "uniqueid": "MTK1610:3G5W44VEU8P34Y31RTYP07MUQ2CGK1", "dateTime": 1516044960277}, {"current_trial": 217, "trialdata": {"rt": -1, "trial_type": "single-stim", "stimulus": "<p id=\"stim\">7</p>", "internal_node_id": "0.0-160.0-3.0", "time_elapsed": 1098989, "key_press": -1, "trial_index": 217}, "uniqueid": "MTK1610:3G5W44VEU8P34Y31RTYP07MUQ2CGK1", "dateTime": 1516044961282}, {"current_trial": 218, "trialdata": {"rt": -1, "trial_type": "single-stim", "stimulus": "<p id=\"stim\">6</p>", "internal_node_id": "0.0-160.0-4.0", "time_elapsed": 1099993, "key_press": -1, "trial_index": 218}, "uniqueid": "MTK1610:3G5W44VEU8P34Y31RTYP07MUQ2CGK1", "dateTime": 1516044962286}, {"current_trial": 219, "trialdata": {"rt": -1, "trial_type": "single-stim", "stimulus": "<p id=\"stim\">5</p>", "internal_node_id": "0.0-160.0-5.0", "time_elapsed": 1100998, "key_press": -1, "trial_index": 219}, "uniqueid": "MTK1610:3G5W44VEU8P34Y31RTYP07MUQ2CGK1", "dateTime": 1516044963291}, {"current_trial": 220, "trialdata": {"rt": -1, "trial_type": "single-stim", "stimulus": "<p id=\"stim\">4</p>", "internal_node_id": "0.0-160.0-6.0", "time_elapsed": 1102003, "key_press": -1, "trial_index": 220}, "uniqueid": "MTK1610:3G5W44VEU8P34Y31RTYP07MUQ2CGK1", "dateTime": 1516044964296}, {"current_trial": 221, "trialdata": {"rt": -1, "trial_type": "single-stim", "stimulus": "<p id=\"stim\">3</p>", "internal_node_id": "0.0-160.0-7.0", "time_elapsed": 1103008, "key_press": -1, "trial_index": 221}, "uniqueid": "MTK1610:3G5W44VEU8P34Y31RTYP07MUQ2CGK1", "dateTime": 1516044965301}, {"current_trial": 222, "trialdata": {"rt": -1, "trial_type": "single-stim", "stimulus": "<p id=\"stim\">2</p>", "internal_node_id": "0.0-160.0-8.0", "time_elapsed": 1104014, "key_press": -1, "trial_index": 222}, "uniqueid": "MTK1610:3G5W44VEU8P34Y31RTYP07MUQ2CGK1", "dateTime": 1516044966306}, {"current_trial": 223, "trialdata": {"rt": -1, "trial_type": "single-stim", "stimulus": "<p id=\"stim\">1</p>", "internal_node_id": "0.0-160.0-9.0", "time_elapsed": 1105019, "key_press": -1, "trial_index": 223}, "uniqueid": "MTK1610:3G5W44VEU8P34Y31RTYP07MUQ2CGK1", "dateTime": 1516044967311}, {"current_trial": 224, "trialdata": {"rt": -1, "trial_type": "single-stim", "stimulus": "<p id=\"stim\">+</p>", "internal_node_id": "0.0-161.0-0.0", "time_elapsed": 1106523, "key_press": -1, "type": "FIXATION", "trial_index": 224}, "uniqueid": "MTK1610:3G5W44VEU8P34Y31RTYP07MUQ2CGK1", "dateTime": 1516044968816}, {"current_trial": 225, "trialdata": {"rt": -1000, "trial_type": "single-audio", "word": "creature", "stimulus": "/static/audio/wordpool/CREATURE.wav", "conditions": [24, 1600, "a", 12000], "internal_node_id": "0.0-162.0", "trial": 6, "time_elapsed": 1108959, "serialpos": 0, "key_press": -1, "wordID": 402, "type": "PRES_AUD", "trial_index": 225}, "uniqueid": "MTK1610:3G5W44VEU8P34Y31RTYP07MUQ2CGK1", "dateTime": 1516044971251}, {"current_trial": 226, "trialdata": {"rt": -1000, "trial_type": "single-audio", "word": "omelet", "stimulus": "/static/audio/wordpool/OMELET.wav", "conditions": [24, 1600, "a", 12000], "internal_node_id": "0.0-163.0", "trial": 6, "time_elapsed": 1111545, "serialpos": 1, "key_press": -1, "wordID": 975, "type": "PRES_AUD", "trial_index": 226}, "uniqueid": "MTK1610:3G5W44VEU8P34Y31RTYP07MUQ2CGK1", "dateTime": 1516044973838}, {"current_trial": 227, "trialdata": {"rt": -1000, "trial_type": "single-audio", "word": "staple", "stimulus": "/static/audio/wordpool/STAPLE.wav", "conditions": [24, 1600, "a", 12000], "internal_node_id": "0.0-164.0", "trial": 6, "time_elapsed": 1114345, "serialpos": 2, "key_press": -1, "wordID": 1370, "type": "PRES_AUD", "trial_index": 227}, "uniqueid": "MTK1610:3G5W44VEU8P34Y31RTYP07MUQ2CGK1", "dateTime": 1516044976637}, {"current_trial": 228, "trialdata": {"rt": -1000, "trial_type": "single-audio", "word": "costume", "stimulus": "/static/audio/wordpool/COSTUME.wav", "conditions": [24, 1600, "a", 12000], "internal_node_id": "0.0-165.0", "trial": 6, "time_elapsed": 1117106, "serialpos": 3, "key_press": -1, "wordID": 382, "type": "PRES_AUD", "trial_index": 228}, "uniqueid": "MTK1610:3G5W44VEU8P34Y31RTYP07MUQ2CGK1", "dateTime": 1516044979398}, {"current_trial": 229, "trialdata": {"rt": -1000, "trial_type": "single-audio", "word": "scarecrow", "stimulus": "/static/audio/wordpool/SCARECROW.wav", "conditions": [24, 1600, "a", 12000], "internal_node_id": "0.0-166.0", "trial": 6, "time_elapsed": 1119624, "serialpos": 4, "key_press": -1, "wordID": 1244, "type": "PRES_AUD", "trial_index": 229}, "uniqueid": "MTK1610:3G5W44VEU8P34Y31RTYP07MUQ2CGK1", "dateTime": 1516044981917}, {"current_trial": 230, "trialdata": {"rt": -1000, "trial_type": "single-audio", "word": "bacon", "stimulus": "/static/audio/wordpool/BACON.wav", "conditions": [24, 1600, "a", 12000], "internal_node_id": "0.0-167.0", "trial": 6, "time_elapsed": 1122390, "serialpos": 5, "key_press": -1, "wordID": 66, "type": "PRES_AUD", "trial_index": 230}, "uniqueid": "MTK1610:3G5W44VEU8P34Y31RTYP07MUQ2CGK1", "dateTime": 1516044984682}, {"current_trial": 231, "trialdata": {"rt": -1000, "trial_type": "single-audio", "word": "shark", "stimulus": "/static/audio/wordpool/SHARK.wav", "conditions": [24, 1600, "a", 12000], "internal_node_id": "0.0-168.0", "trial": 6, "time_elapsed": 1125009, "serialpos": 6, "key_press": -1, "wordID": 1274, "type": "PRES_AUD", "trial_index": 231}, "uniqueid": "MTK1610:3G5W44VEU8P34Y31RTYP07MUQ2CGK1", "dateTime": 1516044987302}, {"current_trial": 232, "trialdata": {"rt": -1000, "trial_type": "single-audio", "word": "sculpture", "stimulus": "/static/audio/wordpool/SCULPTURE.wav", "conditions": [24, 1600, "a", 12000], "internal_node_id": "0.0-169.0", "trial": 6, "time_elapsed": 1127650, "serialpos": 7, "key_press": -1, "wordID": 1257, "type": "PRES_AUD", "trial_index": 232}, "uniqueid": "MTK1610:3G5W44VEU8P34Y31RTYP07MUQ2CGK1", "dateTime": 1516044989942}, {"current_trial": 233, "trialdata": {"rt": -1000, "trial_type": "single-audio", "word": "plaid", "stimulus": "/static/audio/wordpool/PLAID.wav", "conditions": [24, 1600, "a", 12000], "internal_node_id": "0.0-170.0", "trial": 6, "time_elapsed": 1130156, "serialpos": 8, "key_press": -1, "wordID": 1079, "type": "PRES_AUD", "trial_index": 233}, "uniqueid": "MTK1610:3G5W44VEU8P34Y31RTYP07MUQ2CGK1", "dateTime": 1516044992449}, {"current_trial": 234, "trialdata": {"rt": -1000, "trial_type": "single-audio", "word": "mask", "stimulus": "/static/audio/wordpool/MASK.wav", "conditions": [24, 1600, "a", 12000], "internal_node_id": "0.0-171.0", "trial": 6, "time_elapsed": 1132671, "serialpos": 9, "key_press": -1, "wordID": 875, "type": "PRES_AUD", "trial_index": 234}, "uniqueid": "MTK1610:3G5W44VEU8P34Y31RTYP07MUQ2CGK1", "dateTime": 1516044994964}, {"current_trial": 235, "trialdata": {"rt": -1000, "trial_type": "single-audio", "word": "robber", "stimulus": "/static/audio/wordpool/ROBBER.wav", "conditions": [24, 1600, "a", 12000], "internal_node_id": "0.0-172.0", "trial": 6, "time_elapsed": 1135105, "serialpos": 10, "key_press": -1, "wordID": 1196, "type": "PRES_AUD", "trial_index": 235}, "uniqueid": "MTK1610:3G5W44VEU8P34Y31RTYP07MUQ2CGK1", "dateTime": 1516044997398}, {"current_trial": 236, "trialdata": {"rt": -1000, "trial_type": "single-audio", "word": "sunrise", "stimulus": "/static/audio/wordpool/SUNRISE.wav", "conditions": [24, 1600, "a", 12000], "internal_node_id": "0.0-173.0", "trial": 6, "time_elapsed": 1137874, "serialpos": 11, "key_press": -1, "wordID": 1406, "type": "PRES_AUD", "trial_index": 236}, "uniqueid": "MTK1610:3G5W44VEU8P34Y31RTYP07MUQ2CGK1", "dateTime": 1516045000167}, {"current_trial": 237, "trialdata": {"rt": -1000, "trial_type": "single-audio", "word": "shoulder", "stimulus": "/static/audio/wordpool/SHOULDER.wav", "conditions": [24, 1600, "a", 12000], "internal_node_id": "0.0-174.0", "trial": 6, "time_elapsed": 1140442, "serialpos": 12, "key_press": -1, "wordID": 1293, "type": "PRES_AUD", "trial_index": 237}, "uniqueid": "MTK1610:3G5W44VEU8P34Y31RTYP07MUQ2CGK1", "dateTime": 1516045002735}, {"current_trial": 238, "trialdata": {"rt": -1000, "trial_type": "single-audio", "word": "bucket", "stimulus": "/static/audio/wordpool/BUCKET.wav", "conditions": [24, 1600, "a", 12000], "internal_node_id": "0.0-175.0", "trial": 6, "time_elapsed": 1143126, "serialpos": 13, "key_press": -1, "wordID": 183, "type": "PRES_AUD", "trial_index": 238}, "uniqueid": "MTK1610:3G5W44VEU8P34Y31RTYP07MUQ2CGK1", "dateTime": 1516045005418}, {"current_trial": 239, "trialdata": {"rt": -1000, "trial_type": "single-audio", "word": "custard", "stimulus": "/static/audio/wordpool/CUSTARD.wav", "conditions": [24, 1600, "a", 12000], "internal_node_id": "0.0-176.0", "trial": 6, "time_elapsed": 1145827, "serialpos": 14, "key_press": -1, "wordID": 428, "type": "PRES_AUD", "trial_index": 239}, "uniqueid": "MTK1610:3G5W44VEU8P34Y31RTYP07MUQ2CGK1", "dateTime": 1516045008120}, {"current_trial": 240, "trialdata": {"rt": -1000, "trial_type": "single-audio", "word": "record", "stimulus": "/static/audio/wordpool/RECORD.wav", "conditions": [24, 1600, "a", 12000], "internal_node_id": "0.0-177.0", "trial": 6, "time_elapsed": 1148386, "serialpos": 15, "key_press": -1, "wordID": 1175, "type": "PRES_AUD", "trial_index": 240}, "uniqueid": "MTK1610:3G5W44VEU8P34Y31RTYP07MUQ2CGK1", "dateTime": 1516045010679}, {"current_trial": 241, "trialdata": {"rt": -1000, "trial_type": "single-audio", "word": "buggy", "stimulus": "/static/audio/wordpool/BUGGY.wav", "conditions": [24, 1600, "a", 12000], "internal_node_id": "0.0-178.0", "trial": 6, "time_elapsed": 1151137, "serialpos": 16, "key_press": -1, "wordID": 187, "type": "PRES_AUD", "trial_index": 241}, "uniqueid": "MTK1610:3G5W44VEU8P34Y31RTYP07MUQ2CGK1", "dateTime": 1516045013430}, {"current_trial": 242, "trialdata": {"rt": -1000, "trial_type": "single-audio", "word": "france", "stimulus": "/static/audio/wordpool/FRANCE.wav", "conditions": [24, 1600, "a", 12000], "internal_node_id": "0.0-179.0", "trial": 6, "time_elapsed": 1153651, "serialpos": 17, "key_press": -1, "wordID": 600, "type": "PRES_AUD", "trial_index": 242}, "uniqueid": "MTK1610:3G5W44VEU8P34Y31RTYP07MUQ2CGK1", "dateTime": 1516045015943}, {"current_trial": 243, "trialdata": {"rt": -1000, "trial_type": "single-audio", "word": "london", "stimulus": "/static/audio/wordpool/LONDON.wav", "conditions": [24, 1600, "a", 12000], "internal_node_id": "0.0-180.0", "trial": 6, "time_elapsed": 1156248, "serialpos": 18, "key_press": -1, "wordID": 842, "type": "PRES_AUD", "trial_index": 243}, "uniqueid": "MTK1610:3G5W44VEU8P34Y31RTYP07MUQ2CGK1", "dateTime": 1516045018540}, {"current_trial": 244, "trialdata": {"rt": -1000, "trial_type": "single-audio", "word": "jungle", "stimulus": "/static/audio/wordpool/JUNGLE.wav", "conditions": [24, 1600, "a", 12000], "internal_node_id": "0.0-181.0", "trial": 6, "time_elapsed": 1158756, "serialpos": 19, "key_press": -1, "wordID": 763, "type": "PRES_AUD", "trial_index": 244}, "uniqueid": "MTK1610:3G5W44VEU8P34Y31RTYP07MUQ2CGK1", "dateTime": 1516045021049}, {"current_trial": 245, "trialdata": {"rt": -1000, "trial_type": "single-audio", "word": "temple", "stimulus": "/static/audio/wordpool/TEMPLE.wav", "conditions": [24, 1600, "a", 12000], "internal_node_id": "0.0-182.0", "trial": 6, "time_elapsed": 1161266, "serialpos": 20, "key_press": -1, "wordID": 1447, "type": "PRES_AUD", "trial_index": 245}, "uniqueid": "MTK1610:3G5W44VEU8P34Y31RTYP07MUQ2CGK1", "dateTime": 1516045023559}, {"current_trial": 246, "trialdata": {"rt": -1000, "trial_type": "single-audio", "word": "worker", "stimulus": "/static/audio/wordpool/WORKER.wav", "conditions": [24, 1600, "a", 12000], "internal_node_id": "0.0-183.0", "trial": 6, "time_elapsed": 1163842, "serialpos": 21, "key_press": -1, "wordID": 1620, "type": "PRES_AUD", "trial_index": 246}, "uniqueid": "MTK1610:3G5W44VEU8P34Y31RTYP07MUQ2CGK1", "dateTime": 1516045026134}, {"current_trial": 247, "trialdata": {"rt": -1000, "trial_type": "single-audio", "word": "pastry", "stimulus": "/static/audio/wordpool/PASTRY.wav", "conditions": [24, 1600, "a", 12000], "internal_node_id": "0.0-184.0", "trial": 6, "time_elapsed": 1166617, "serialpos": 22, "key_press": -1, "wordID": 1021, "type": "PRES_AUD", "trial_index": 247}, "uniqueid": "MTK1610:3G5W44VEU8P34Y31RTYP07MUQ2CGK1", "dateTime": 1516045028910}, {"current_trial": 248, "trialdata": {"rt": -1000, "trial_type": "single-audio", "word": "bug", "stimulus": "/static/audio/wordpool/BUG.wav", "conditions": [24, 1600, "a", 12000], "internal_node_id": "0.0-185.0", "trial": 6, "time_elapsed": 1169411, "serialpos": 23, "key_press": -1, "wordID": 186, "type": "PRES_AUD", "trial_index": 248}, "uniqueid": "MTK1610:3G5W44VEU8P34Y31RTYP07MUQ2CGK1", "dateTime": 1516045031703}, {"current_trial": 249, "trialdata": {"rt": -1, "trial_type": "single-stim", "stimulus": "", "internal_node_id": "0.0-186.0-0.0", "time_elapsed": 1170760, "key_press": -1, "type": "PRE_RECALL_DELAY", "trial_index": 249}, "uniqueid": "MTK1610:3G5W44VEU8P34Y31RTYP07MUQ2CGK1", "dateTime": 1516045033053}, {"current_trial": 250, "trialdata": {"rt": -1000, "trial_type": "single-audio", "stimulus": "/static/audio/400Hz.wav", "internal_node_id": "0.0-187.0", "time_elapsed": 1171267, "key_press": -1, "type": "PRE_RECALL_ALERT", "trial_index": 250}, "uniqueid": "MTK1610:3G5W44VEU8P34Y31RTYP07MUQ2CGK1", "dateTime": 1516045033560}, {"current_trial": 251, "trialdata": {"rt": [1857, 5865, 7809, 9617, 11562, 16073, 27785], "recwords": ["bug", "pastry", "london", "france", "buggy", "temple", "bacon"], "key_times": [1179, 1329, 1618, 1857, 3226, 4185, 4634, 4801, 4962, 5097, 5353, 5585, 5865, 6610, 6802, 6978, 7218, 7346, 7522, 7809, 8227, 8466, 8658, 8801, 9090, 9323, 9617, 10250, 10434, 10746, 10882, 11114, 11562, 14626, 14834, 15002, 15250, 15698, 15842, 16073, 26748, 26963, 27227, 27370, 27546, 27785], "trial_type": "free-recall", "conditions": [24, 1600, "a", 12000], "internal_node_id": "0.0-188.0-0.0", "key_presses": [66, 85, 71, 13, 66, 8, 80, 65, 83, 84, 82, 89, 13, 76, 79, 78, 68, 79, 78, 13, 70, 82, 65, 78, 67, 69, 13, 66, 85, 71, 71, 89, 13, 84, 69, 77, 80, 76, 69, 13, 66, 65, 67, 79, 78, 13], "trial": 6, "time_elapsed": 1231278, "type": "FREE_RECALL", "trial_index": 251}, "uniqueid": "MTK1610:3G5W44VEU8P34Y31RTYP07MUQ2CGK1", "dateTime": 1516045093601}, {"current_trial": 252, "trialdata": {"rt": 1279, "trial_type": "text", "internal_node_id": "0.0-189.0", "time_elapsed": 1234590, "key_press": 13, "type": "INSTRUCTIONS", "trial_index": 252}, "uniqueid": "MTK1610:3G5W44VEU8P34Y31RTYP07MUQ2CGK1", "dateTime": 1516045096883}, {"current_trial": 253, "trialdata": {"rt": [5879, 10102], "trial_type": "math-distractor", "key_times": [4728, 5119, 5879, 8880, 9392, 10102], "responses": ["20", "13"], "num2": [4, 1, 7], "num3": [8, 8, 1], "conditions": [12, 800, "a", 12000], "internal_node_id": "0.0-190.0", "key_presses": [50, 48, 13, 49, 51, 13], "trial": 7, "time_elapsed": 1248604, "type": "DISTRACTOR", "trial_index": 253, "num1": [8, 4, 4]}, "uniqueid": "MTK1610:3G5W44VEU8P34Y31RTYP07MUQ2CGK1", "dateTime": 1516045110897}, {"current_trial": 254, "trialdata": {"rt": -1, "trial_type": "single-stim", "stimulus": "<p id=\"stim\">10</p>", "internal_node_id": "0.0-191.0-0.0", "time_elapsed": 1251609, "key_press": -1, "trial_index": 254}, "uniqueid": "MTK1610:3G5W44VEU8P34Y31RTYP07MUQ2CGK1", "dateTime": 1516045113902}, {"current_trial": 255, "trialdata": {"rt": -1, "trial_type": "single-stim", "stimulus": "<p id=\"stim\">9</p>", "internal_node_id": "0.0-191.0-1.0", "time_elapsed": 1252614, "key_press": -1, "trial_index": 255}, "uniqueid": "MTK1610:3G5W44VEU8P34Y31RTYP07MUQ2CGK1", "dateTime": 1516045114907}, {"current_trial": 256, "trialdata": {"rt": -1, "trial_type": "single-st