{"assignmentId": "3WEV0KO0ONZYGX6IUC6JL8A7T1WDSL", "workerId": "MTK1581", "questiondata": {"avail_screen_height": 984, "color_depth": 24, "screen_width": 1280, "pixel_depth": 24, "avail_screen_width": 1280, "screen_height": 1024}, "bonus": 0, "hitId": "31YWE12TE0JO8LTD774IV4LJ5YS7XL", "counterbalance": 1814, "useragent": "Mozilla/5.0 (Windows NT 10.0; Win64; x64) AppleWebKit/537.36 (KHTML, like Gecko) Chrome/58.0.3029.110 Safari/537.36 Edge/16.16299", "eventdata": [{"eventtype": "initialized", "interval": 0, "value": null, "timestamp": 1516037601474}, {"eventtype": "window_resize", "interval": 1, "value": [1280, 907], "timestamp": 1516037601475}, {"eventtype": "focus", "interval": 381, "value": "on", "timestamp": 1516037601856}, {"eventtype": "focus", "interval": 10378, "value": "off", "timestamp": 1516037612234}, {"eventtype": "focus", "interval": 58651, "value": "on", "timestamp": 1516037670885}, {"eventtype": "window_resize", "interval": 86339, "value": [1347, 955], "timestamp": 1516037757224}, {"eventtype": "window_resize", "interval": 636, "value": [1422, 1008], "timestamp": 1516037757860}, {"eventtype": "window_resize", "interval": 650, "value": [1347, 955], "timestamp": 1516037758510}, {"eventtype": "window_resize", "interval": 354, "value": [1280, 907], "timestamp": 1516037758864}, {"eventtype": "window_resize", "interval": 21331, "value": [1506, 1067], "timestamp": 1516037780195}, {"eventtype": "window_resize", "interval": 462, "value": [1829, 1296], "timestamp": 1516037780657}, {"eventtype": "window_resize", "interval": 401, "value": [2844, 2016], "timestamp": 1516037781058}, {"eventtype": "window_resize", "interval": 855, "value": [6400, 4535], "timestamp": 1516037781913}, {"eventtype": "window_resize", "interval": 893, "value": [2327, 1649], "timestamp": 1516037782806}, {"eventtype": "window_resize", "interval": 518, "value": [1422, 1008], "timestamp": 1516037783324}, {"eventtype": "window_resize", "interval": 416, "value": [1164, 825], "timestamp": 1516037783740}, {"eventtype": "window_resize", "interval": 61672, "value": [1219, 864], "timestamp": 1516037845412}, {"eventtype": "focus", "interval": 2803590, "value": "off", "timestamp": 1516040649002}, {"eventtype": "focus", "interval": 6029, "value": "on", "timestamp": 1516040655031}, {"eventtype": "focus", "interval": 86523, "value": "off", "timestamp": 1516040741554}, {"eventtype": "focus", "interval": 8303, "value": "on", "timestamp": 1516040749857}], "data": [{"current_trial": 0, "trialdata": {"rt": 39845, "trial_type": "text", "internal_node_id": "0.0-0.0", "time_elapsed": 39847, "key_press": 32, "type": "INSTRUCTIONS", "trial_index": 0}, "uniqueid": "MTK1581:3WEV0KO0ONZYGX6IUC6JL8A7T1WDSL", "dateTime": 1516037672433}, {"current_trial": 1, "trialdata": {"rt": 70603, "trial_type": "text", "internal_node_id": "0.0-1.0", "time_elapsed": 110453, "key_press": 32, "type": "INSTRUCTIONS", "trial_index": 1}, "uniqueid": "MTK1581:3WEV0KO0ONZYGX6IUC6JL8A7T1WDSL", "dateTime": 1516037743037}, {"current_trial": 2, "trialdata": {"rt": [47439], "trial_type": "audio-test", "responses": ["ocean"], "internal_node_id": "0.0-2.0", "time_elapsed": 157965, "type": "AUDIO_TEST", "trial_index": 2}, "uniqueid": "MTK1581:3WEV0KO0ONZYGX6IUC6JL8A7T1WDSL", "dateTime": 1516037790549}, {"current_trial": 3, "trialdata": {"rt": [10899], "trial_type": "audio-test", "responses": ["crystal"], "internal_node_id": "0.0-3.0", "time_elapsed": 168891, "type": "AUDIO_TEST", "trial_index": 3}, "uniqueid": "MTK1581:3WEV0KO0ONZYGX6IUC6JL8A7T1WDSL", "dateTime": 1516037801475}, {"current_trial": 4, "trialdata": {"rt": [7473], "trial_type": "audio-test", "responses": ["spice"], "internal_node_id": "0.0-4.0", "time_elapsed": 176372, "type": "AUDIO_TEST", "trial_index": 4}, "uniqueid": "MTK1581:3WEV0KO0ONZYGX6IUC6JL8A7T1WDSL", "dateTime": 1516037808956}, {"current_trial": 5, "trialdata": {"rt": 32301, "trial_type": "survey-text", "responses": "{\"Q0\":\"10p.m.\",\"Q1\":\"6a.m.\",\"Q2\":\"5\"}", "internal_node_id": "0.0-5.0", "time_elapsed": 209438, "type": "SLEEP_SURVEY", "trial_index": 5}, "uniqueid": "MTK1581:3WEV0KO0ONZYGX6IUC6JL8A7T1WDSL", "dateTime": 1516037842022}, {"current_trial": 6, "trialdata": {"rt": 1936, "trial_type": "text", "internal_node_id": "0.0-6.0", "time_elapsed": 212389, "key_press": 17, "type": "INSTRUCTIONS", "trial_index": 6}, "uniqueid": "MTK1581:3WEV0KO0ONZYGX6IUC6JL8A7T1WDSL", "dateTime": 1516037844973}, {"current_trial": 7, "trialdata": {"rt": 26798, "trial_type": "text", "internal_node_id": "0.0-7.0", "time_elapsed": 239700, "key_press": 32, "type": "INSTRUCTIONS", "trial_index": 7}, "uniqueid": "MTK1581:3WEV0KO0ONZYGX6IUC6JL8A7T1WDSL", "dateTime": 1516037872284}, {"current_trial": 8, "trialdata": {"rt": 36264, "trial_type": "text", "internal_node_id": "0.0-8.0", "time_elapsed": 276468, "key_press": 32, "type": "INSTRUCTIONS", "trial_index": 8}, "uniqueid": "MTK1581:3WEV0KO0ONZYGX6IUC6JL8A7T1WDSL", "dateTime": 1516037909052}, {"current_trial": 9, "trialdata": {"rt": [4077, 7300, 11396, 14356, 17636], "trial_type": "math-distractor", "key_times": [2613, 4077, 5629, 6053, 7300, 9277, 9853, 11396, 13493, 13709, 14356, 15765, 16461, 17636], "responses": ["9", "14", "10", "23", "14"], "num2": [1, 8, 3, 9, 1, 5], "num3": [7, 4, 2, 5, 8, 9], "conditions": [18, 1200, "a", 18000], "internal_node_id": "0.0-9.0", "key_presses": [57, 13, 49, 52, 13, 49, 48, 13, 50, 51, 13, 49, 52, 13], "trial": 0, "time_elapsed": 295514, "type": "DISTRACTOR", "trial_index": 9, "num1": [1, 2, 5, 9, 5, 3]}, "uniqueid": "MTK1581:3WEV0KO0ONZYGX6IUC6JL8A7T1WDSL", "dateTime": 1516037928098}, {"current_trial": 10, "trialdata": {"rt": -1, "trial_type": "single-stim", "stimulus": "<p id=\"stim\">10</p>", "internal_node_id": "0.0-10.0-0.0", "time_elapsed": 298545, "key_press": -1, "trial_index": 10}, "uniqueid": "MTK1581:3WEV0KO0ONZYGX6IUC6JL8A7T1WDSL", "dateTime": 1516037931129}, {"current_trial": 11, "trialdata": {"rt": -1, "trial_type": "single-stim", "stimulus": "<p id=\"stim\">9</p>", "internal_node_id": "0.0-10.0-1.0", "time_elapsed": 299545, "key_press": -1, "trial_index": 11}, "uniqueid": "MTK1581:3WEV0KO0ONZYGX6IUC6JL8A7T1WDSL", "dateTime": 1516037932130}, {"current_trial": 12, "trialdata": {"rt": -1, "trial_type": "single-stim", "stimulus": "<p id=\"stim\">8</p>", "internal_node_id": "0.0-10.0-2.0", "time_elapsed": 300546, "key_press": -1, "trial_index": 12}, "uniqueid": "MTK1581:3WEV0KO0ONZYGX6IUC6JL8A7T1WDSL", "dateTime": 1516037933130}, {"current_trial": 13, "trialdata": {"rt": -1, "trial_type": "single-stim", "stimulus": "<p id=\"stim\">7</p>", "internal_node_id": "0.0-10.0-3.0", "time_elapsed": 301533, "key_press": -1, "trial_index": 13}, "uniqueid": "MTK1581:3WEV0KO0ONZYGX6IUC6JL8A7T1WDSL", "dateTime": 1516037934117}, {"current_trial": 14, "trialdata": {"rt": -1, "trial_type": "single-stim", "stimulus": "<p id=\"stim\">6</p>", "internal_node_id": "0.0-10.0-4.0", "time_elapsed": 302546, "key_press": -1, "trial_index": 14}, "uniqueid": "MTK1581:3WEV0KO0ONZYGX6IUC6JL8A7T1WDSL", "dateTime": 1516037935130}, {"current_trial": 15, "trialdata": {"rt": -1, "trial_type": "single-stim", "stimulus": "<p id=\"stim\">5</p>", "internal_node_id": "0.0-10.0-5.0", "time_elapsed": 303546, "key_press": -1, "trial_index": 15}, "uniqueid": "MTK1581:3WEV0KO0ONZYGX6IUC6JL8A7T1WDSL", "dateTime": 1516037936130}, {"current_trial": 16, "trialdata": {"rt": -1, "trial_type": "single-stim", "stimulus": "<p id=\"stim\">4</p>", "internal_node_id": "0.0-10.0-6.0", "time_elapsed": 304546, "key_press": -1, "trial_index": 16}, "uniqueid": "MTK1581:3WEV0KO0ONZYGX6IUC6JL8A7T1WDSL", "dateTime": 1516037937130}, {"current_trial": 17, "trialdata": {"rt": -1, "trial_type": "single-stim", "stimulus": "<p id=\"stim\">3</p>", "internal_node_id": "0.0-10.0-7.0", "time_elapsed": 305546, "key_press": -1, "trial_index": 17}, "uniqueid": "MTK1581:3WEV0KO0ONZYGX6IUC6JL8A7T1WDSL", "dateTime": 1516037938130}, {"current_trial": 18, "trialdata": {"rt": -1, "trial_type": "single-stim", "stimulus": "<p id=\"stim\">2</p>", "internal_node_id": "0.0-10.0-8.0", "time_elapsed": 306531, "key_press": -1, "trial_index": 18}, "uniqueid": "MTK1581:3WEV0KO0ONZYGX6IUC6JL8A7T1WDSL", "dateTime": 1516037939115}, {"current_trial": 19, "trialdata": {"rt": -1, "trial_type": "single-stim", "stimulus": "<p id=\"stim\">1</p>", "internal_node_id": "0.0-10.0-9.0", "time_elapsed": 307547, "key_press": -1, "trial_index": 19}, "uniqueid": "MTK1581:3WEV0KO0ONZYGX6IUC6JL8A7T1WDSL", "dateTime": 1516037940131}, {"current_trial": 20, "trialdata": {"rt": -1, "trial_type": "single-stim", "stimulus": "<p id=\"stim\">+</p>", "internal_node_id": "0.0-11.0-0.0", "time_elapsed": 309063, "key_press": -1, "type": "FIXATION", "trial_index": 20}, "uniqueid": "MTK1581:3WEV0KO0ONZYGX6IUC6JL8A7T1WDSL", "dateTime": 1516037941647}, {"current_trial": 21, "trialdata": {"rt": -1000, "trial_type": "single-audio", "word": "switch", "stimulus": "/static/audio/wordpool/SWITCH.wav", "conditions": [18, 1200, "a", 18000], "internal_node_id": "0.0-12.0", "trial": 0, "time_elapsed": 311255, "serialpos": 0, "key_press": -1, "wordID": 1421, "type": "PRES_AUD", "trial_index": 21}, "uniqueid": "MTK1581:3WEV0KO0ONZYGX6IUC6JL8A7T1WDSL", "dateTime": 1516037943840}, {"current_trial": 22, "trialdata": {"rt": -1000, "trial_type": "single-audio", "word": "crayon", "stimulus": "/static/audio/wordpool/CRAYON.wav", "conditions": [18, 1200, "a", 18000], "internal_node_id": "0.0-13.0", "trial": 0, "time_elapsed": 313352, "serialpos": 1, "key_press": -1, "wordID": 400, "type": "PRES_AUD", "trial_index": 22}, "uniqueid": "MTK1581:3WEV0KO0ONZYGX6IUC6JL8A7T1WDSL", "dateTime": 1516037945936}, {"current_trial": 23, "trialdata": {"rt": -1000, "trial_type": "single-audio", "word": "xerox", "stimulus": "/static/audio/wordpool/XEROX.wav", "conditions": [18, 1200, "a", 18000], "internal_node_id": "0.0-14.0", "trial": 0, "time_elapsed": 315548, "serialpos": 2, "key_press": -1, "wordID": 1627, "type": "PRES_AUD", "trial_index": 23}, "uniqueid": "MTK1581:3WEV0KO0ONZYGX6IUC6JL8A7T1WDSL", "dateTime": 1516037948132}, {"current_trial": 24, "trialdata": {"rt": -1000, "trial_type": "single-audio", "word": "blender", "stimulus": "/static/audio/wordpool/BLENDER.wav", "conditions": [18, 1200, "a", 18000], "internal_node_id": "0.0-15.0", "trial": 0, "time_elapsed": 317796, "serialpos": 3, "key_press": -1, "wordID": 135, "type": "PRES_AUD", "trial_index": 24}, "uniqueid": "MTK1581:3WEV0KO0ONZYGX6IUC6JL8A7T1WDSL", "dateTime": 1516037950381}, {"current_trial": 25, "trialdata": {"rt": -1000, "trial_type": "single-audio", "word": "blueprint", "stimulus": "/static/audio/wordpool/BLUEPRINT.wav", "conditions": [18, 1200, "a", 18000], "internal_node_id": "0.0-16.0", "trial": 0, "time_elapsed": 320109, "serialpos": 4, "key_press": -1, "wordID": 141, "type": "PRES_AUD", "trial_index": 25}, "uniqueid": "MTK1581:3WEV0KO0ONZYGX6IUC6JL8A7T1WDSL", "dateTime": 1516037952693}, {"current_trial": 26, "trialdata": {"rt": -1000, "trial_type": "single-audio", "word": "keeper", "stimulus": "/static/audio/wordpool/KEEPER.wav", "conditions": [18, 1200, "a", 18000], "internal_node_id": "0.0-17.0", "trial": 0, "time_elapsed": 322286, "serialpos": 5, "key_press": -1, "wordID": 768, "type": "PRES_AUD", "trial_index": 26}, "uniqueid": "MTK1581:3WEV0KO0ONZYGX6IUC6JL8A7T1WDSL", "dateTime": 1516037954870}, {"current_trial": 27, "trialdata": {"rt": -1000, "trial_type": "single-audio", "word": "heart", "stimulus": "/static/audio/wordpool/HEART.wav", "conditions": [18, 1200, "a", 18000], "internal_node_id": "0.0-18.0", "trial": 0, "time_elapsed": 324438, "serialpos": 6, "key_press": -1, "wordID": 696, "type": "PRES_AUD", "trial_index": 27}, "uniqueid": "MTK1581:3WEV0KO0ONZYGX6IUC6JL8A7T1WDSL", "dateTime": 1516037957022}, {"current_trial": 28, "trialdata": {"rt": -1000, "trial_type": "single-audio", "word": "goblin", "stimulus": "/static/audio/wordpool/GOBLIN.wav", "conditions": [18, 1200, "a", 18000], "internal_node_id": "0.0-19.0", "trial": 0, "time_elapsed": 326747, "serialpos": 7, "key_press": -1, "wordID": 644, "type": "PRES_AUD", "trial_index": 28}, "uniqueid": "MTK1581:3WEV0KO0ONZYGX6IUC6JL8A7T1WDSL", "dateTime": 1516037959331}, {"current_trial": 29, "trialdata": {"rt": -1000, "trial_type": "single-audio", "word": "relish", "stimulus": "/static/audio/wordpool/RELISH.wav", "conditions": [18, 1200, "a", 18000], "internal_node_id": "0.0-20.0", "trial": 0, "time_elapsed": 328795, "serialpos": 8, "key_press": -1, "wordID": 1182, "type": "PRES_AUD", "trial_index": 29}, "uniqueid": "MTK1581:3WEV0KO0ONZYGX6IUC6JL8A7T1WDSL", "dateTime": 1516037961380}, {"current_trial": 30, "trialdata": {"rt": -1000, "trial_type": "single-audio", "word": "perch", "stimulus": "/static/audio/wordpool/PERCH.wav", "conditions": [18, 1200, "a", 18000], "internal_node_id": "0.0-21.0", "trial": 0, "time_elapsed": 330947, "serialpos": 9, "key_press": -1, "wordID": 1047, "type": "PRES_AUD", "trial_index": 30}, "uniqueid": "MTK1581:3WEV0KO0ONZYGX6IUC6JL8A7T1WDSL", "dateTime": 1516037963531}, {"current_trial": 31, "trialdata": {"rt": -1000, "trial_type": "single-audio", "word": "garlic", "stimulus": "/static/audio/wordpool/GARLIC.wav", "conditions": [18, 1200, "a", 18000], "internal_node_id": "0.0-22.0", "trial": 0, "time_elapsed": 333116, "serialpos": 10, "key_press": -1, "wordID": 623, "type": "PRES_AUD", "trial_index": 31}, "uniqueid": "MTK1581:3WEV0KO0ONZYGX6IUC6JL8A7T1WDSL", "dateTime": 1516037965700}, {"current_trial": 32, "trialdata": {"rt": -1000, "trial_type": "single-audio", "word": "lake", "stimulus": "/static/audio/wordpool/LAKE.wav", "conditions": [18, 1200, "a", 18000], "internal_node_id": "0.0-23.0", "trial": 0, "time_elapsed": 335206, "serialpos": 11, "key_press": -1, "wordID": 795, "type": "PRES_AUD", "trial_index": 32}, "uniqueid": "MTK1581:3WEV0KO0ONZYGX6IUC6JL8A7T1WDSL", "dateTime": 1516037967790}, {"current_trial": 33, "trialdata": {"rt": -1000, "trial_type": "single-audio", "word": "plaid", "stimulus": "/static/audio/wordpool/PLAID.wav", "conditions": [18, 1200, "a", 18000], "internal_node_id": "0.0-24.0", "trial": 0, "time_elapsed": 337618, "serialpos": 12, "key_press": -1, "wordID": 1079, "type": "PRES_AUD", "trial_index": 33}, "uniqueid": "MTK1581:3WEV0KO0ONZYGX6IUC6JL8A7T1WDSL", "dateTime": 1516037970202}, {"current_trial": 34, "trialdata": {"rt": -1000, "trial_type": "single-audio", "word": "leg", "stimulus": "/static/audio/wordpool/LEG.wav", "conditions": [18, 1200, "a", 18000], "internal_node_id": "0.0-25.0", "trial": 0, "time_elapsed": 339921, "serialpos": 13, "key_press": -1, "wordID": 808, "type": "PRES_AUD", "trial_index": 34}, "uniqueid": "MTK1581:3WEV0KO0ONZYGX6IUC6JL8A7T1WDSL", "dateTime": 1516037972505}, {"current_trial": 35, "trialdata": {"rt": -1000, "trial_type": "single-audio", "word": "inmate", "stimulus": "/static/audio/wordpool/INMATE.wav", "conditions": [18, 1200, "a", 18000], "internal_node_id": "0.0-26.0", "trial": 0, "time_elapsed": 342007, "serialpos": 14, "key_press": -1, "wordID": 737, "type": "PRES_AUD", "trial_index": 35}, "uniqueid": "MTK1581:3WEV0KO0ONZYGX6IUC6JL8A7T1WDSL", "dateTime": 1516037974591}, {"current_trial": 36, "trialdata": {"rt": -1000, "trial_type": "single-audio", "word": "dorm", "stimulus": "/static/audio/wordpool/DORM.wav", "conditions": [18, 1200, "a", 18000], "internal_node_id": "0.0-27.0", "trial": 0, "time_elapsed": 344368, "serialpos": 15, "key_press": -1, "wordID": 487, "type": "PRES_AUD", "trial_index": 36}, "uniqueid": "MTK1581:3WEV0KO0ONZYGX6IUC6JL8A7T1WDSL", "dateTime": 1516037976953}, {"current_trial": 37, "trialdata": {"rt": -1000, "trial_type": "single-audio", "word": "freezer", "stimulus": "/static/audio/wordpool/FREEZER.wav", "conditions": [18, 1200, "a", 18000], "internal_node_id": "0.0-28.0", "trial": 0, "time_elapsed": 346486, "serialpos": 16, "key_press": -1, "wordID": 603, "type": "PRES_AUD", "trial_index": 37}, "uniqueid": "MTK1581:3WEV0KO0ONZYGX6IUC6JL8A7T1WDSL", "dateTime": 1516037979070}, {"current_trial": 38, "trialdata": {"rt": -1000, "trial_type": "single-audio", "word": "possum", "stimulus": "/static/audio/wordpool/POSSUM.wav", "conditions": [18, 1200, "a", 18000], "internal_node_id": "0.0-29.0", "trial": 0, "time_elapsed": 348527, "serialpos": 17, "key_press": -1, "wordID": 1111, "type": "PRES_AUD", "trial_index": 38}, "uniqueid": "MTK1581:3WEV0KO0ONZYGX6IUC6JL8A7T1WDSL", "dateTime": 1516037981111}, {"current_trial": 39, "trialdata": {"rt": -1, "trial_type": "single-stim", "stimulus": "", "internal_node_id": "0.0-30.0-0.0", "time_elapsed": 349891, "key_press": -1, "type": "PRE_RECALL_DELAY", "trial_index": 39}, "uniqueid": "MTK1581:3WEV0KO0ONZYGX6IUC6JL8A7T1WDSL", "dateTime": 1516037982475}, {"current_trial": 40, "trialdata": {"rt": -1000, "trial_type": "single-audio", "stimulus": "/static/audio/400Hz.wav", "internal_node_id": "0.0-31.0", "time_elapsed": 350397, "key_press": -1, "type": "PRE_RECALL_ALERT", "trial_index": 40}, "uniqueid": "MTK1581:3WEV0KO0ONZYGX6IUC6JL8A7T1WDSL", "dateTime": 1516037982981}, {"current_trial": 41, "trialdata": {"rt": [25474, 29634, 43306, 49617, 55474], "recwords": ["crayon", "xerox", "blender", "blueprint", "keeper"], "key_times": [22355, 22586, 22850, 23035, 23482, 23746, 25474, 26723, 26995, 27195, 27459, 27682, 29634, 39922, 40123, 40643, 40810, 40938, 41122, 41282, 43306, 47091, 47227, 47498, 47666, 47954, 48074, 48298, 48514, 48642, 49617, 54003, 54202, 54363, 54530, 54682, 54859, 55474, 59946], "trial_type": "free-recall", "conditions": [18, 1200, "a", 18000], "internal_node_id": "0.0-32.0-0.0", "key_presses": [67, 82, 65, 89, 79, 78, 13, 88, 69, 82, 79, 88, 13, 66, 76, 69, 78, 68, 69, 82, 13, 66, 76, 85, 69, 80, 82, 73, 78, 84, 13, 75, 69, 69, 80, 69, 82, 13, 72], "trial": 0, "time_elapsed": 410408, "type": "FREE_RECALL", "trial_index": 41}, "uniqueid": "MTK1581:3WEV0KO0ONZYGX6IUC6JL8A7T1WDSL", "dateTime": 1516038042999}, {"current_trial": 42, "trialdata": {"rt": 9712, "trial_type": "text", "internal_node_id": "0.0-33.0", "time_elapsed": 422138, "key_press": 32, "type": "INSTRUCTIONS", "trial_index": 42}, "uniqueid": "MTK1581:3WEV0KO0ONZYGX6IUC6JL8A7T1WDSL", "dateTime": 1516038054723}, {"current_trial": 43, "trialdata": {"rt": [4689, 6753, 9441, 11313, 14449, 17385], "trial_type": "math-distractor", "key_times": [2242, 4689, 6010, 6753, 8354, 9441, 10586, 11313, 13514, 14449, 16162, 16522, 17385], "responses": ["8", "8", "5", "5", "7", "15"], "num2": [5, 3, 2, 1, 3, 6, 4], "num3": [2, 1, 2, 1, 1, 1, 3], "conditions": [18, 1200, "a", 18000], "internal_node_id": "0.0-34.0", "key_presses": [56, 13, 56, 13, 53, 13, 53, 13, 55, 13, 49, 53, 13], "trial": 1, "time_elapsed": 442161, "type": "DISTRACTOR", "trial_index": 43, "num1": [1, 4, 1, 3, 3, 8, 4]}, "uniqueid": "MTK1581:3WEV0KO0ONZYGX6IUC6JL8A7T1WDSL", "dateTime": 1516038074745}, {"current_trial": 44, "trialdata": {"rt": -1, "trial_type": "single-stim", "stimulus": "<p id=\"stim\">10</p>", "internal_node_id": "0.0-35.0-0.0", "time_elapsed": 445166, "key_press": -1, "trial_index": 44}, "uniqueid": "MTK1581:3WEV0KO0ONZYGX6IUC6JL8A7T1WDSL", "dateTime": 1516038077750}, {"current_trial": 45, "trialdata": {"rt": -1, "trial_type": "single-stim", "stimulus": "<p id=\"stim\">9</p>", "internal_node_id": "0.0-35.0-1.0", "time_elapsed": 446180, "key_press": -1, "trial_index": 45}, "uniqueid": "MTK1581:3WEV0KO0ONZYGX6IUC6JL8A7T1WDSL", "dateTime": 1516038078765}, {"current_trial": 46, "trialdata": {"rt": -1, "trial_type": "single-stim", "stimulus": "<p id=\"stim\">8</p>", "internal_node_id": "0.0-35.0-2.0", "time_elapsed": 447176, "key_press": -1, "trial_index": 46}, "uniqueid": "MTK1581:3WEV0KO0ONZYGX6IUC6JL8A7T1WDSL", "dateTime": 1516038079760}, {"current_trial": 47, "trialdata": {"rt": -1, "trial_type": "single-stim", "stimulus": "<p id=\"stim\">7</p>", "internal_node_id": "0.0-35.0-3.0", "time_elapsed": 448186, "key_press": -1, "trial_index": 47}, "uniqueid": "MTK1581:3WEV0KO0ONZYGX6IUC6JL8A7T1WDSL", "dateTime": 1516038080770}, {"current_trial": 48, "trialdata": {"rt": -1, "trial_type": "single-stim", "stimulus": "<p id=\"stim\">6</p>", "internal_node_id": "0.0-35.0-4.0", "time_elapsed": 449176, "key_press": -1, "trial_index": 48}, "uniqueid": "MTK1581:3WEV0KO0ONZYGX6IUC6JL8A7T1WDSL", "dateTime": 1516038081760}, {"current_trial": 49, "trialdata": {"rt": -1, "trial_type": "single-stim", "stimulus": "<p id=\"stim\">5</p>", "internal_node_id": "0.0-35.0-5.0", "time_elapsed": 450175, "key_press": -1, "trial_index": 49}, "uniqueid": "MTK1581:3WEV0KO0ONZYGX6IUC6JL8A7T1WDSL", "dateTime": 1516038082759}, {"current_trial": 50, "trialdata": {"rt": -1, "trial_type": "single-stim", "stimulus": "<p id=\"stim\">4</p>", "internal_node_id": "0.0-35.0-6.0", "time_elapsed": 451179, "key_press": -1, "trial_index": 50}, "uniqueid": "MTK1581:3WEV0KO0ONZYGX6IUC6JL8A7T1WDSL", "dateTime": 1516038083763}, {"current_trial": 51, "trialdata": {"rt": -1, "trial_type": "single-stim", "stimulus": "<p id=\"stim\">3</p>", "internal_node_id": "0.0-35.0-7.0", "time_elapsed": 452173, "key_press": -1, "trial_index": 51}, "uniqueid": "MTK1581:3WEV0KO0ONZYGX6IUC6JL8A7T1WDSL", "dateTime": 1516038084757}, {"current_trial": 52, "trialdata": {"rt": -1, "trial_type": "single-stim", "stimulus": "<p id=\"stim\">2</p>", "internal_node_id": "0.0-35.0-8.0", "time_elapsed": 453173, "key_press": -1, "trial_index": 52}, "uniqueid": "MTK1581:3WEV0KO0ONZYGX6IUC6JL8A7T1WDSL", "dateTime": 1516038085757}, {"current_trial": 53, "trialdata": {"rt": -1, "trial_type": "single-stim", "stimulus": "<p id=\"stim\">1</p>", "internal_node_id": "0.0-35.0-9.0", "time_elapsed": 454183, "key_press": -1, "trial_index": 53}, "uniqueid": "MTK1581:3WEV0KO0ONZYGX6IUC6JL8A7T1WDSL", "dateTime": 1516038086767}, {"current_trial": 54, "trialdata": {"rt": -1, "trial_type": "single-stim", "stimulus": "<p id=\"stim\">+</p>", "internal_node_id": "0.0-36.0-0.0", "time_elapsed": 455700, "key_press": -1, "type": "FIXATION", "trial_index": 54}, "uniqueid": "MTK1581:3WEV0KO0ONZYGX6IUC6JL8A7T1WDSL", "dateTime": 1516038088284}, {"current_trial": 55, "trialdata": {"rt": -1000, "trial_type": "single-audio", "word": "clock", "stimulus": "/static/audio/wordpool/CLOCK.wav", "conditions": [18, 1200, "a", 18000], "internal_node_id": "0.0-37.0", "trial": 1, "time_elapsed": 457707, "serialpos": 0, "key_press": -1, "wordID": 324, "type": "PRES_AUD", "trial_index": 55}, "uniqueid": "MTK1581:3WEV0KO0ONZYGX6IUC6JL8A7T1WDSL", "dateTime": 1516038090291}, {"current_trial": 56, "trialdata": {"rt": -1000, "trial_type": "single-audio", "word": "hood", "stimulus": "/static/audio/wordpool/HOOD.wav", "conditions": [18, 1200, "a", 18000], "internal_node_id": "0.0-38.0", "trial": 1, "time_elapsed": 459884, "serialpos": 1, "key_press": -1, "wordID": 713, "type": "PRES_AUD", "trial_index": 56}, "uniqueid": "MTK1581:3WEV0KO0ONZYGX6IUC6JL8A7T1WDSL", "dateTime": 1516038092468}, {"current_trial": 57, "trialdata": {"rt": -1000, "trial_type": "single-audio", "word": "shelter", "stimulus": "/static/audio/wordpool/SHELTER.wav", "conditions": [18, 1200, "a", 18000], "internal_node_id": "0.0-39.0", "trial": 1, "time_elapsed": 461969, "serialpos": 2, "key_press": -1, "wordID": 1281, "type": "PRES_AUD", "trial_index": 57}, "uniqueid": "MTK1581:3WEV0KO0ONZYGX6IUC6JL8A7T1WDSL", "dateTime": 1516038094553}, {"current_trial": 58, "trialdata": {"rt": -1000, "trial_type": "single-audio", "word": "country", "stimulus": "/static/audio/wordpool/COUNTRY.wav", "conditions": [18, 1200, "a", 18000], "internal_node_id": "0.0-40.0", "trial": 1, "time_elapsed": 464289, "serialpos": 3, "key_press": -1, "wordID": 387, "type": "PRES_AUD", "trial_index": 58}, "uniqueid": "MTK1581:3WEV0KO0ONZYGX6IUC6JL8A7T1WDSL", "dateTime": 1516038096873}, {"current_trial": 59, "trialdata": {"rt": -1000, "trial_type": "single-audio", "word": "robin", "stimulus": "/static/audio/wordpool/ROBIN.wav", "conditions": [18, 1200, "a", 18000], "internal_node_id": "0.0-41.0", "trial": 1, "time_elapsed": 466500, "serialpos": 4, "key_press": -1, "wordID": 1198, "type": "PRES_AUD", "trial_index": 59}, "uniqueid": "MTK1581:3WEV0KO0ONZYGX6IUC6JL8A7T1WDSL", "dateTime": 1516038099085}, {"current_trial": 60, "trialdata": {"rt": -1000, "trial_type": "single-audio", "word": "hedge", "stimulus": "/static/audio/wordpool/HEDGE.wav", "conditions": [18, 1200, "a", 18000], "internal_node_id": "0.0-42.0", "trial": 1, "time_elapsed": 468841, "serialpos": 5, "key_press": -1, "wordID": 698, "type": "PRES_AUD", "trial_index": 60}, "uniqueid": "MTK1581:3WEV0KO0ONZYGX6IUC6JL8A7T1WDSL", "dateTime": 1516038101425}, {"current_trial": 61, "trialdata": {"rt": -1000, "trial_type": "single-audio", "word": "stomach", "stimulus": "/static/audio/wordpool/STOMACH.wav", "conditions": [18, 1200, "a", 18000], "internal_node_id": "0.0-43.0", "trial": 1, "time_elapsed": 470890, "serialpos": 6, "key_press": -1, "wordID": 1383, "type": "PRES_AUD", "trial_index": 61}, "uniqueid": "MTK1581:3WEV0KO0ONZYGX6IUC6JL8A7T1WDSL", "dateTime": 1516038103474}, {"current_trial": 62, "trialdata": {"rt": -1000, "trial_type": "single-audio", "word": "crab", "stimulus": "/static/audio/wordpool/CRAB.wav", "conditions": [18, 1200, "a", 18000], "internal_node_id": "0.0-44.0", "trial": 1, "time_elapsed": 473290, "serialpos": 7, "key_press": -1, "wordID": 396, "type": "PRES_AUD", "trial_index": 62}, "uniqueid": "MTK1581:3WEV0KO0ONZYGX6IUC6JL8A7T1WDSL", "dateTime": 1516038105874}, {"current_trial": 63, "trialdata": {"rt": -1000, "trial_type": "single-audio", "word": "bullet", "stimulus": "/static/audio/wordpool/BULLET.wav", "conditions": [18, 1200, "a", 18000], "internal_node_id": "0.0-45.0", "trial": 1, "time_elapsed": 475462, "serialpos": 8, "key_press": -1, "wordID": 193, "type": "PRES_AUD", "trial_index": 63}, "uniqueid": "MTK1581:3WEV0KO0ONZYGX6IUC6JL8A7T1WDSL", "dateTime": 1516038108046}, {"current_trial": 64, "trialdata": {"rt": -1000, "trial_type": "single-audio", "word": "hamper", "stimulus": "/static/audio/wordpool/HAMPER.wav", "conditions": [18, 1200, "a", 18000], "internal_node_id": "0.0-46.0", "trial": 1, "time_elapsed": 477806, "serialpos": 9, "key_press": -1, "wordID": 681, "type": "PRES_AUD", "trial_index": 64}, "uniqueid": "MTK1581:3WEV0KO0ONZYGX6IUC6JL8A7T1WDSL", "dateTime": 1516038110390}, {"current_trial": 65, "trialdata": {"rt": -1000, "trial_type": "single-audio", "word": "swamp", "stimulus": "/static/audio/wordpool/SWAMP.wav", "conditions": [18, 1200, "a", 18000], "internal_node_id": "0.0-47.0", "trial": 1, "time_elapsed": 479945, "serialpos": 10, "key_press": -1, "wordID": 1415, "type": "PRES_AUD", "trial_index": 65}, "uniqueid": "MTK1581:3WEV0KO0ONZYGX6IUC6JL8A7T1WDSL", "dateTime": 1516038112529}, {"current_trial": 66, "trialdata": {"rt": -1000, "trial_type": "single-audio", "word": "tart", "stimulus": "/static/audio/wordpool/TART.wav", "conditions": [18, 1200, "a", 18000], "internal_node_id": "0.0-48.0", "trial": 1, "time_elapsed": 482144, "serialpos": 11, "key_press": -1, "wordID": 1435, "type": "PRES_AUD", "trial_index": 66}, "uniqueid": "MTK1581:3WEV0KO0ONZYGX6IUC6JL8A7T1WDSL", "dateTime": 1516038114728}, {"current_trial": 67, "trialdata": {"rt": -1000, "trial_type": "single-audio", "word": "shortcake", "stimulus": "/static/audio/wordpool/SHORTCAKE.wav", "conditions": [18, 1200, "a", 18000], "internal_node_id": "0.0-49.0", "trial": 1, "time_elapsed": 484209, "serialpos": 12, "key_press": -1, "wordID": 1291, "type": "PRES_AUD", "trial_index": 67}, "uniqueid": "MTK1581:3WEV0KO0ONZYGX6IUC6JL8A7T1WDSL", "dateTime": 1516038116794}, {"current_trial": 68, "trialdata": {"rt": -1000, "trial_type": "single-audio", "word": "turkey", "stimulus": "/static/audio/wordpool/TURKEY.wav", "conditions": [18, 1200, "a", 18000], "internal_node_id": "0.0-50.0", "trial": 1, "time_elapsed": 486457, "serialpos": 13, "key_press": -1, "wordID": 1519, "type": "PRES_AUD", "trial_index": 68}, "uniqueid": "MTK1581:3WEV0KO0ONZYGX6IUC6JL8A7T1WDSL", "dateTime": 1516038119041}, {"current_trial": 69, "trialdata": {"rt": -1000, "trial_type": "single-audio", "word": "diner", "stimulus": "/static/audio/wordpool/DINER.wav", "conditions": [18, 1200, "a", 18000], "internal_node_id": "0.0-51.0", "trial": 1, "time_elapsed": 488836, "serialpos": 14, "key_press": -1, "wordID": 466, "type": "PRES_AUD", "trial_index": 69}, "uniqueid": "MTK1581:3WEV0KO0ONZYGX6IUC6JL8A7T1WDSL", "dateTime": 1516038121420}, {"current_trial": 70, "trialdata": {"rt": -1000, "trial_type": "single-audio", "word": "shelf", "stimulus": "/static/audio/wordpool/SHELF.wav", "conditions": [18, 1200, "a", 18000], "internal_node_id": "0.0-52.0", "trial": 1, "time_elapsed": 490891, "serialpos": 15, "key_press": -1, "wordID": 1279, "type": "PRES_AUD", "trial_index": 70}, "uniqueid": "MTK1581:3WEV0KO0ONZYGX6IUC6JL8A7T1WDSL", "dateTime": 1516038123475}, {"current_trial": 71, "trialdata": {"rt": -1000, "trial_type": "single-audio", "word": "flashlight", "stimulus": "/static/audio/wordpool/FLASHLIGHT.wav", "conditions": [18, 1200, "a", 18000], "internal_node_id": "0.0-53.0", "trial": 1, "time_elapsed": 493138, "serialpos": 16, "key_press": -1, "wordID": 574, "type": "PRES_AUD", "trial_index": 71}, "uniqueid": "MTK1581:3WEV0KO0ONZYGX6IUC6JL8A7T1WDSL", "dateTime": 1516038125723}, {"current_trial": 72, "trialdata": {"rt": -1000, "trial_type": "single-audio", "word": "cod", "stimulus": "/static/audio/wordpool/COD.wav", "conditions": [18, 1200, "a", 18000], "internal_node_id": "0.0-54.0", "trial": 1, "time_elapsed": 495285, "serialpos": 17, "key_press": -1, "wordID": 339, "type": "PRES_AUD", "trial_index": 72}, "uniqueid": "MTK1581:3WEV0KO0ONZYGX6IUC6JL8A7T1WDSL", "dateTime": 1516038127869}, {"current_trial": 73, "trialdata": {"rt": -1, "trial_type": "single-stim", "stimulus": "", "internal_node_id": "0.0-55.0-0.0", "time_elapsed": 496637, "key_press": -1, "type": "PRE_RECALL_DELAY", "trial_index": 73}, "uniqueid": "MTK1581:3WEV0KO0ONZYGX6IUC6JL8A7T1WDSL", "dateTime": 1516038129221}, {"current_trial": 74, "trialdata": {"rt": -1000, "trial_type": "single-audio", "stimulus": "/static/audio/400Hz.wav", "internal_node_id": "0.0-56.0", "time_elapsed": 497155, "key_press": -1, "type": "PRE_RECALL_ALERT", "trial_index": 74}, "uniqueid": "MTK1581:3WEV0KO0ONZYGX6IUC6JL8A7T1WDSL", "dateTime": 1516038129739}, {"current_trial": 75, "trialdata": {"rt": [8467, 10243, 12827, 15171, 17747, 20259, 22346, 24267, 26083, 28050, 30562, 32595, 35850, 38282, 39866, 41707, 44795, 46003], "recwords": ["clock", "hood", "shelter", "country", "robin", "hedge", "stomach", "crab", "bullet", "hamper", "swamp", "tart", "shortcake", "turkey", "diner", "shelf", "flashlight", "cod"], "key_times": [7228, 7387, 7651, 7819, 7931, 8467, 9340, 9539, 9652, 9852, 10243, 11372, 11499, 11659, 11979, 12195, 12387, 12539, 12827, 13611, 13820, 14044, 14235, 14403, 14579, 14787, 15171, 15972, 16203, 16460, 16620, 17195, 17747, 18956, 19412, 19636, 19835, 19932, 20259, 20804, 21091, 21283, 21491, 21627, 21883, 22003, 22346, 23307, 23395, 23620, 23732, 24267, 24995, 25171, 25387, 25483, 25595, 25788, 26083, 27099, 27211, 27323, 27572, 27707, 27867, 28050, 29515, 29691, 29883, 30003, 30227, 30562, 31819, 31923, 32035, 32211, 32595, 34068, 34171, 34403, 34523, 34676, 35011, 35163, 35539, 35643, 35850, 36859, 37067, 37292, 37611, 37771, 38091, 38282, 38891, 39051, 39243, 39348, 39515, 39866, 40483, 40603, 40787, 41115, 41387, 41707, 42667, 42883, 43027, 43212, 43371, 43611, 43835, 44003, 44155, 44339, 44795, 45251, 45451, 45691, 46003], "trial_type": "free-recall", "conditions": [18, 1200, "a", 18000], "internal_node_id": "0.0-57.0-0.0", "key_presses": [67, 76, 79, 67, 75, 13, 72, 79, 79, 68, 13, 83, 72, 69, 76, 84, 69, 82, 13, 67, 79, 85, 78, 84, 82, 89, 13, 82, 79, 66, 73, 78, 13, 72, 69, 68, 71, 69, 13, 83, 84, 79, 77, 65, 67, 72, 13, 67, 82, 65, 66, 13, 66, 85, 76, 76, 69, 84, 13, 72, 65, 77, 80, 69, 82, 13, 83, 87, 65, 77, 80, 13, 84, 65, 82, 84, 13, 83, 72, 79, 82, 84, 67, 65, 75, 69, 13, 84, 85, 82, 75, 69, 89, 13, 68, 73, 78, 69, 82, 13, 83, 72, 69, 76, 70, 13, 70, 76, 65, 83, 72, 76, 73, 71, 72, 84, 13, 67, 79, 68, 13], "trial": 1, "time_elapsed": 557162, "type": "FREE_RECALL", "trial_index": 75}, "uniqueid": "MTK1581:3WEV0KO0ONZYGX6IUC6JL8A7T1WDSL", "dateTime": 1516038189750}, {"current_trial": 76, "trialdata": {"rt": 5088, "trial_type": "text", "internal_node_id": "0.0-58.0", "time_elapsed": 564282, "key_press": 32, "type": "INSTRUCTIONS", "trial_index": 76}, "uniqueid": "MTK1581:3WEV0KO0ONZYGX6IUC6JL8A7T1WDSL", "dateTime": 1516038196866}, {"current_trial": 77, "trialdata": {"rt": [2959, 5351, 7231, 9823], "trial_type": "math-distractor", "key_times": [1632, 2136, 2959, 4408, 4856, 5351, 6560, 7231, 9160, 9632, 9823], "responses": ["20", "20", "5", "20"], "num2": [9, 9, 1, 7, 6], "num3": [6, 4, 1, 9, 5], "conditions": [12, 1600, "a", 12000], "internal_node_id": "0.0-59.0", "key_presses": [50, 48, 13, 50, 48, 13, 53, 13, 50, 48, 13], "trial": 2, "time_elapsed": 577307, "type": "DISTRACTOR", "trial_index": 77, "num1": [5, 7, 3, 4, 9]}, "uniqueid": "MTK1581:3WEV0KO0ONZYGX6IUC6JL8A7T1WDSL", "dateTime": 1516038209891}, {"current_trial": 78, "trialdata": {"rt": -1, "trial_type": "single-stim", "stimulus": "<p id=\"stim\">10</p>", "internal_node_id": "0.0-60.0-0.0", "time_elapsed": 580337, "key_press": -1, "trial_index": 78}, "uniqueid": "MTK1581:3WEV0KO0ONZYGX6IUC6JL8A7T1WDSL", "dateTime": 1516038212921}, {"current_trial": 79, "trialdata": {"rt": -1, "trial_type": "single-stim", "stimulus": "<p id=\"stim\">9</p>", "internal_node_id": "0.0-60.0-1.0", "time_elapsed": 581340, "key_press": -1, "trial_index": 79}, "uniqueid": "MTK1581:3WEV0KO0ONZYGX6IUC6JL8A7T1WDSL", "dateTime": 1516038213925}, {"current_trial": 80, "trialdata": {"rt": -1, "trial_type": "single-stim", "stimulus": "<p id=\"stim\">8</p>", "internal_node_id": "0.0-60.0-2.0", "time_elapsed": 582340, "key_press": -1, "trial_index": 80}, "uniqueid": "MTK1581:3WEV0KO0ONZYGX6IUC6JL8A7T1WDSL", "dateTime": 1516038214925}, {"current_trial": 81, "trialdata": {"rt": -1, "trial_type": "single-stim", "stimulus": "<p id=\"stim\">7</p>", "internal_node_id": "0.0-60.0-3.0", "time_elapsed": 583336, "key_press": -1, "trial_index": 81}, "uniqueid": "MTK1581:3WEV0KO0ONZYGX6IUC6JL8A7T1WDSL", "dateTime": 1516038215920}, {"current_trial": 82, "trialdata": {"rt": -1, "trial_type": "single-stim", "stimulus": "<p id=\"stim\">6</p>", "internal_node_id": "0.0-60.0-4.0", "time_elapsed": 584341, "key_press": -1, "trial_index": 82}, "uniqueid": "MTK1581:3WEV0KO0ONZYGX6IUC6JL8A7T1WDSL", "dateTime": 1516038216925}, {"current_trial": 83, "trialdata": {"rt": -1, "trial_type": "single-stim", "stimulus": "<p id=\"stim\">5</p>", "internal_node_id": "0.0-60.0-5.0", "time_elapsed": 585348, "key_press": -1, "trial_index": 83}, "uniqueid": "MTK1581:3WEV0KO0ONZYGX6IUC6JL8A7T1WDSL", "dateTime": 1516038217932}, {"current_trial": 84, "trialdata": {"rt": -1, "trial_type": "single-stim", "stimulus": "<p id=\"stim\">4</p>", "internal_node_id": "0.0-60.0-6.0", "time_elapsed": 586353, "key_press": -1, "trial_index": 84}, "uniqueid": "MTK1581:3WEV0KO0ONZYGX6IUC6JL8A7T1WDSL", "dateTime": 1516038218937}, {"current_trial": 85, "trialdata": {"rt": -1, "trial_type": "single-stim", "stimulus": "<p id=\"stim\">3</p>", "internal_node_id": "0.0-60.0-7.0", "time_elapsed": 587336, "key_press": -1, "trial_index": 85}, "uniqueid": "MTK1581:3WEV0KO0ONZYGX6IUC6JL8A7T1WDSL", "dateTime": 1516038219920}, {"current_trial": 86, "trialdata": {"rt": -1, "trial_type": "single-stim", "stimulus": "<p id=\"stim\">2</p>", "internal_node_id": "0.0-60.0-8.0", "time_elapsed": 588345, "key_press": -1, "trial_index": 86}, "uniqueid": "MTK1581:3WEV0KO0ONZYGX6IUC6JL8A7T1WDSL", "dateTime": 1516038220929}, {"current_trial": 87, "trialdata": {"rt": -1, "trial_type": "single-stim", "stimulus": "<p id=\"stim\">1</p>", "internal_node_id": "0.0-60.0-9.0", "time_elapsed": 589350, "key_press": -1, "trial_index": 87}, "uniqueid": "MTK1581:3WEV0KO0ONZYGX6IUC6JL8A7T1WDSL", "dateTime": 1516038221934}, {"current_trial": 88, "trialdata": {"rt": -1, "trial_type": "single-stim", "stimulus": "<p id=\"stim\">+</p>", "internal_node_id": "0.0-61.0-0.0", "time_elapsed": 590865, "key_press": -1, "type": "FIXATION", "trial_index": 88}, "uniqueid": "MTK1581:3WEV0KO0ONZYGX6IUC6JL8A7T1WDSL", "dateTime": 1516038223449}, {"current_trial": 89, "trialdata": {"rt": -1000, "trial_type": "single-audio", "word": "postage", "stimulus": "/static/audio/wordpool/POSTAGE.wav", "conditions": [12, 1600, "a", 12000], "internal_node_id": "0.0-62.0", "trial": 2, "time_elapsed": 593374, "serialpos": 0, "key_press": -1, "wordID": 1112, "type": "PRES_AUD", "trial_index": 89}, "uniqueid": "MTK1581:3WEV0KO0ONZYGX6IUC6JL8A7T1WDSL", "dateTime": 1516038225958}, {"current_trial": 90, "trialdata": {"rt": -1000, "trial_type": "single-audio", "word": "forehead", "stimulus": "/static/audio/wordpool/FOREHEAD.wav", "conditions": [12, 1600, "a", 12000], "internal_node_id": "0.0-63.0", "trial": 2, "time_elapsed": 596009, "serialpos": 1, "key_press": -1, "wordID": 591, "type": "PRES_AUD", "trial_index": 90}, "uniqueid": "MTK1581:3WEV0KO0ONZYGX6IUC6JL8A7T1WDSL", "dateTime": 1516038228593}, {"current_trial": 91, "trialdata": {"rt": -1000, "trial_type": "single-audio", "word": "gallon", "stimulus": "/static/audio/wordpool/GALLON.wav", "conditions": [12, 1600, "a", 12000], "internal_node_id": "0.0-64.0", "trial": 2, "time_elapsed": 598775, "serialpos": 2, "key_press": -1, "wordID": 617, "type": "PRES_AUD", "trial_index": 91}, "uniqueid": "MTK1581:3WEV0KO0ONZYGX6IUC6JL8A7T1WDSL", "dateTime": 1516038231359}, {"current_trial": 92, "trialdata": {"rt": -1000, "trial_type": "single-audio", "word": "glass", "stimulus": "/static/audio/wordpool/GLASS.wav", "conditions": [12, 1600, "a", 12000], "internal_node_id": "0.0-65.0", "trial": 2, "time_elapsed": 601515, "serialpos": 3, "key_press": -1, "wordID": 638, "type": "PRES_AUD", "trial_index": 92}, "uniqueid": "MTK1581:3WEV0KO0ONZYGX6IUC6JL8A7T1WDSL", "dateTime": 1516038234099}, {"current_trial": 93, "trialdata": {"rt": -1000, "trial_type": "single-audio", "word": "hand", "stimulus": "/static/audio/wordpool/HAND.wav", "conditions": [12, 1600, "a", 12000], "internal_node_id": "0.0-66.0", "trial": 2, "time_elapsed": 604248, "serialpos": 4, "key_press": -1, "wordID": 682, "type": "PRES_AUD", "trial_index": 93}, "uniqueid": "MTK1581:3WEV0KO0ONZYGX6IUC6JL8A7T1WDSL", "dateTime": 1516038236832}, {"current_trial": 94, "trialdata": {"rt": -1000, "trial_type": "single-audio", "word": "napkin", "stimulus": "/static/audio/wordpool/NAPKIN.wav", "conditions": [12, 1600, "a", 12000], "internal_node_id": "0.0-67.0", "trial": 2, "time_elapsed": 606909, "serialpos": 5, "key_press": -1, "wordID": 936, "type": "PRES_AUD", "trial_index": 94}, "uniqueid": "MTK1581:3WEV0KO0ONZYGX6IUC6JL8A7T1WDSL", "dateTime": 1516038239493}, {"current_trial": 95, "trialdata": {"rt": -1000, "trial_type": "single-audio", "word": "chest", "stimulus": "/static/audio/wordpool/CHEST.wav", "conditions": [12, 1600, "a", 12000], "internal_node_id": "0.0-68.0", "trial": 2, "time_elapsed": 609643, "serialpos": 6, "key_press": -1, "wordID": 294, "type": "PRES_AUD", "trial_index": 95}, "uniqueid": "MTK1581:3WEV0KO0ONZYGX6IUC6JL8A7T1WDSL", "dateTime": 1516038242228}, {"current_trial": 96, "trialdata": {"rt": -1000, "trial_type": "single-audio", "word": "branch", "stimulus": "/static/audio/wordpool/BRANCH.wav", "conditions": [12, 1600, "a", 12000], "internal_node_id": "0.0-69.0", "trial": 2, "time_elapsed": 612458, "serialpos": 7, "key_press": -1, "wordID": 167, "type": "PRES_AUD", "trial_index": 96}, "uniqueid": "MTK1581:3WEV0KO0ONZYGX6IUC6JL8A7T1WDSL", "dateTime": 1516038245043}, {"current_trial": 97, "trialdata": {"rt": -1000, "trial_type": "single-audio", "word": "freckle", "stimulus": "/static/audio/wordpool/FRECKLE.wav", "conditions": [12, 1600, "a", 12000], "internal_node_id": "0.0-70.0", "trial": 2, "time_elapsed": 615246, "serialpos": 8, "key_press": -1, "wordID": 601, "type": "PRES_AUD", "trial_index": 97}, "uniqueid": "MTK1581:3WEV0KO0ONZYGX6IUC6JL8A7T1WDSL", "dateTime": 1516038247830}, {"current_trial": 98, "trialdata": {"rt": -1000, "trial_type": "single-audio", "word": "pimple", "stimulus": "/static/audio/wordpool/PIMPLE.wav", "conditions": [12, 1600, "a", 12000], "internal_node_id": "0.0-71.0", "trial": 2, "time_elapsed": 617784, "serialpos": 9, "key_press": -1, "wordID": 1070, "type": "PRES_AUD", "trial_index": 98}, "uniqueid": "MTK1581:3WEV0KO0ONZYGX6IUC6JL8A7T1WDSL", "dateTime": 1516038250368}, {"current_trial": 99, "trialdata": {"rt": -1000, "trial_type": "single-audio", "word": "bureau", "stimulus": "/static/audio/wordpool/BUREAU.wav", "conditions": [12, 1600, "a", 12000], "internal_node_id": "0.0-72.0", "trial": 2, "time_elapsed": 620341, "serialpos": 10, "key_press": -1, "wordID": 198, "type": "PRES_AUD", "trial_index": 99}, "uniqueid": "MTK1581:3WEV0KO0ONZYGX6IUC6JL8A7T1WDSL", "dateTime": 1516038252925}, {"current_trial": 100, "trialdata": {"rt": -1000, "trial_type": "single-audio", "word": "rocket", "stimulus": "/static/audio/wordpool/ROCKET.wav", "conditions": [12, 1600, "a", 12000], "internal_node_id": "0.0-73.0", "trial": 2, "time_elapsed": 623115, "serialpos": 11, "key_press": -1, "wordID": 1201, "type": "PRES_AUD", "trial_index": 100}, "uniqueid": "MTK1581:3WEV0KO0ONZYGX6IUC6JL8A7T1WDSL", "dateTime": 1516038255699}, {"current_trial": 101, "trialdata": {"rt": -1, "trial_type": "single-stim", "stimulus": "", "internal_node_id": "0.0-74.0-0.0", "time_elapsed": 624411, "key_press": -1, "type": "PRE_RECALL_DELAY", "trial_index": 101}, "uniqueid": "MTK1581:3WEV0KO0ONZYGX6IUC6JL8A7T1WDSL", "dateTime": 1516038256995}, {"current_trial": 102, "trialdata": {"rt": -1000, "trial_type": "single-audio", "stimulus": "/static/audio/400Hz.wav", "internal_node_id": "0.0-75.0", "time_elapsed": 624921, "key_press": -1, "type": "PRE_RECALL_ALERT", "trial_index": 102}, "uniqueid": "MTK1581:3WEV0KO0ONZYGX6IUC6JL8A7T1WDSL", "dateTime": 1516038257505}, {"current_trial": 103, "trialdata": {"rt": [5779, 9356, 10996, 15220, 20060, 21971, 23812, 29028, 30172, 31859, 34772, 42372], "recwords": ["pimple", "freckle", "rocket", "postage", "gallon", "forehead", "glass", "napkin", "hand", "chest", "branch", "bureau"], "key_times": [2525, 2749, 2972, 3220, 3429, 3620, 5779, 6309, 6484, 6652, 6853, 7052, 7357, 7557, 9356, 9756, 9940, 10061, 10189, 10324, 10565, 10996, 13892, 14068, 14189, 14437, 14685, 14788, 14940, 15220, 18997, 19116, 19444, 19596, 19773, 19901, 20060, 20540, 20748, 20924, 21092, 21261, 21396, 21597, 21780, 21971, 22740, 23197, 23309, 23492, 23628, 23812, 27348, 27477, 27780, 28429, 28596, 28780, 29028, 29404, 29524, 29644, 29788, 30172, 30877, 31076, 31164, 31340, 31452, 31859, 32933, 33035, 33236, 34077, 34220, 34332, 34772, 40692, 40957, 41228, 41436, 41684, 41804, 42372, 43500, 43692, 43804, 43940, 44837, 45060, 45277, 45708], "trial_type": "free-recall", "conditions": [12, 1600, "a", 12000], "internal_node_id": "0.0-76.0-0.0", "key_presses": [80, 73, 77, 80, 76, 69, 13, 70, 82, 69, 67, 75, 76, 69, 13, 82, 79, 67, 75, 69, 84, 13, 80, 79, 83, 84, 65, 71, 69, 13, 71, 65, 76, 76, 79, 78, 13, 70, 79, 82, 69, 72, 69, 65, 68, 13, 71, 76, 65, 83, 83, 13, 78, 65, 80, 75, 73, 78, 13, 72, 65, 78, 68, 13, 67, 72, 69, 83, 84, 13, 66, 82, 65, 78, 67, 72, 13, 66, 85, 82, 69, 65, 85, 13, 82, 79, 67, 75, 8, 8, 8, 8], "trial": 2, "time_elapsed": 684935, "type": "FREE_RECALL", "trial_index": 103}, "uniqueid": "MTK1581:3WEV0KO0ONZYGX6IUC6JL8A7T1WDSL", "dateTime": 1516038317523}, {"current_trial": 104, "trialdata": {"rt": 2706, "trial_type": "text", "internal_node_id": "0.0-77.0", "time_elapsed": 689656, "key_press": 32, "type": "INSTRUCTIONS", "trial_index": 104}, "uniqueid": "MTK1581:3WEV0KO0ONZYGX6IUC6JL8A7T1WDSL", "dateTime": 1516038322241}, {"current_trial": 105, "trialdata": {"rt": [3679, 5735, 7943, 10375], "trial_type": "math-distractor", "key_times": [2528, 2984, 3679, 5136, 5304, 5735, 7360, 7704, 7943, 9744, 9992, 10375, 11600], "responses": ["16", "11", "17", "23"], "num2": [8, 2, 6, 7, 2], "num3": [6, 3, 8, 8, 8], "conditions": [24, 1600, "a", 12000], "internal_node_id": "0.0-78.0", "key_presses": [49, 54, 13, 49, 49, 13, 49, 55, 13, 50, 51, 13, 49], "trial": 3, "time_elapsed": 703689, "type": "DISTRACTOR", "trial_index": 105, "num1": [2, 6, 3, 8, 5]}, "uniqueid": "MTK1581:3WEV0KO0ONZYGX6IUC6JL8A7T1WDSL", "dateTime": 1516038336273}, {"current_trial": 106, "trialdata": {"rt": -1, "trial_type": "single-stim", "stimulus": "<p id=\"stim\">10</p>", "internal_node_id": "0.0-79.0-0.0", "time_elapsed": 706721, "key_press": -1, "trial_index": 106}, "uniqueid": "MTK1581:3WEV0KO0ONZYGX6IUC6JL8A7T1WDSL", "dateTime": 1516038339306}, {"current_trial": 107, "trialdata": {"rt": -1, "trial_type": "single-stim", "stimulus": "<p id=\"stim\">9</p>", "internal_node_id": "0.0-79.0-1.0", "time_elapsed": 707713, "key_press": -1, "trial_index": 107}, "uniqueid": "MTK1581:3WEV0KO0ONZYGX6IUC6JL8A7T1WDSL", "dateTime": 1516038340298}, {"current_trial": 108, "trialdata": {"rt": -1, "trial_type": "single-stim", "stimulus": "<p id=\"stim\">8</p>", "internal_node_id": "0.0-79.0-2.0", "time_elapsed": 708718, "key_press": -1, "trial_index": 108}, "uniqueid": "MTK1581:3WEV0KO0ONZYGX6IUC6JL8A7T1WDSL", "dateTime": 1516038341302}, {"current_trial": 109, "trialdata": {"rt": -1, "trial_type": "single-stim", "stimulus": "<p id=\"stim\">7</p>", "internal_node_id": "0.0-79.0-3.0", "time_elapsed": 709720, "key_press": -1, "trial_index": 109}, "uniqueid": "MTK1581:3WEV0KO0ONZYGX6IUC6JL8A7T1WDSL", "dateTime": 1516038342305}, {"current_trial": 110, "trialdata": {"rt": -1, "trial_type": "single-stim", "stimulus": "<p id=\"stim\">6</p>", "internal_node_id": "0.0-79.0-4.0", "time_elapsed": 710733, "key_press": -1, "trial_index": 110}, "uniqueid": "MTK1581:3WEV0KO0ONZYGX6IUC6JL8A7T1WDSL", "dateTime": 1516038343317}, {"current_trial": 111, "trialdata": {"rt": -1, "trial_type": "single-stim", "stimulus": "<p id=\"stim\">5</p>", "internal_node_id": "0.0-79.0-5.0", "time_elapsed": 711710, "key_press": -1, "trial_index": 111}, "uniqueid": "MTK1581:3WEV0KO0ONZYGX6IUC6JL8A7T1WDSL", "dateTime": 1516038344294}, {"current_trial": 112, "trialdata": {"rt": -1, "trial_type": "single-stim", "stimulus": "<p id=\"stim\">4</p>", "internal_node_id": "0.0-79.0-6.0", "time_elapsed": 712713, "key_press": -1, "trial_index": 112}, "uniqueid": "MTK1581:3WEV0KO0ONZYGX6IUC6JL8A7T1WDSL", "dateTime": 1516038345298}, {"current_trial": 113, "trialdata": {"rt": -1, "trial_type": "single-stim", "stimulus": "<p id=\"stim\">3</p>", "internal_node_id": "0.0-79.0-7.0", "time_elapsed": 713723, "key_press": -1, "trial_index": 113}, "uniqueid": "MTK1581:3WEV0KO0ONZYGX6IUC6JL8A7T1WDSL", "dateTime": 1516038346307}, {"current_trial": 114, "trialdata": {"rt": -1, "trial_type": "single-stim", "stimulus": "<p id=\"stim\">2</p>", "internal_node_id": "0.0-79.0-8.0", "time_elapsed": 714713, "key_press": -1, "trial_index": 114}, "uniqueid": "MTK1581:3WEV0KO0ONZYGX6IUC6JL8A7T1WDSL", "dateTime": 1516038347298}, {"current_trial": 115, "trialdata": {"rt": -1, "trial_type": "single-stim", "stimulus": "<p id=\"stim\">1</p>", "internal_node_id": "0.0-79.0-9.0", "time_elapsed": 715724, "key_press": -1, "trial_index": 115}, "uniqueid": "MTK1581:3WEV0KO0ONZYGX6IUC6JL8A7T1WDSL", "dateTime": 1516038348308}, {"current_trial": 116, "trialdata": {"rt": -1, "trial_type": "single-stim", "stimulus": "<p id=\"stim\">+</p>", "internal_node_id": "0.0-80.0-0.0", "time_elapsed": 717234, "key_press": -1, "type": "FIXATION", "trial_index": 116}, "uniqueid": "MTK1581:3WEV0KO0ONZYGX6IUC6JL8A7T1WDSL", "dateTime": 1516038349819}, {"current_trial": 117, "trialdata": {"rt": -1000, "trial_type": "single-audio", "word": "fleet", "stimulus": "/static/audio/wordpool/FLEET.wav", "conditions": [24, 1600, "a", 12000], "internal_node_id": "0.0-81.0", "trial": 3, "time_elapsed": 719766, "serialpos": 0, "key_press": -1, "wordID": 577, "type": "PRES_AUD", "trial_index": 117}, "uniqueid": "MTK1581:3WEV0KO0ONZYGX6IUC6JL8A7T1WDSL", "dateTime": 1516038352351}, {"current_trial": 118, "trialdata": {"rt": -1000, "trial_type": "single-audio", "word": "widow", "stimulus": "/static/audio/wordpool/WIDOW.wav", "conditions": [24, 1600, "a", 12000], "internal_node_id": "0.0-82.0", "trial": 3, "time_elapsed": 722586, "serialpos": 1, "key_press": -1, "wordID": 1607, "type": "PRES_AUD", "trial_index": 118}, "uniqueid": "MTK1581:3WEV0KO0ONZYGX6IUC6JL8A7T1WDSL", "dateTime": 1516038355170}, {"current_trial": 119, "trialdata": {"rt": -1000, "trial_type": "single-audio", "word": "wife", "stimulus": "/static/audio/wordpool/WIFE.wav", "conditions": [24, 1600, "a", 12000], "internal_node_id": "0.0-83.0", "trial": 3, "time_elapsed": 725314, "serialpos": 2, "key_press": -1, "wordID": 1608, "type": "PRES_AUD", "trial_index": 119}, "uniqueid": "MTK1581:3WEV0KO0ONZYGX6IUC6JL8A7T1WDSL", "dateTime": 1516038357898}, {"current_trial": 120, "trialdata": {"rt": -1000, "trial_type": "single-audio", "word": "mister", "stimulus": "/static/audio/wordpool/MISTER.wav", "conditions": [24, 1600, "a", 12000], "internal_node_id": "0.0-84.0", "trial": 3, "time_elapsed": 727938, "serialpos": 3, "key_press": -1, "wordID": 900, "type": "PRES_AUD", "trial_index": 120}, "uniqueid": "MTK1581:3WEV0KO0ONZYGX6IUC6JL8A7T1WDSL", "dateTime": 1516038360522}, {"current_trial": 121, "trialdata": {"rt": -1000, "trial_type": "single-audio", "word": "sunrise", "stimulus": "/static/audio/wordpool/SUNRISE.wav", "conditions": [24, 1600, "a", 12000], "internal_node_id": "0.0-85.0", "trial": 3, "time_elapsed": 730713, "serialpos": 4, "key_press": -1, "wordID": 1406, "type": "PRES_AUD", "trial_index": 121}, "uniqueid": "MTK1581:3WEV0KO0ONZYGX6IUC6JL8A7T1WDSL", "dateTime": 1516038363297}, {"current_trial": 122, "trialdata": {"rt": -1000, "trial_type": "single-audio", "word": "hook", "stimulus": "/static/audio/wordpool/HOOK.wav", "conditions": [24, 1600, "a", 12000], "internal_node_id": "0.0-86.0", "trial": 3, "time_elapsed": 733272, "serialpos": 5, "key_press": -1, "wordID": 714, "type": "PRES_AUD", "trial_index": 122}, "uniqueid": "MTK1581:3WEV0KO0ONZYGX6IUC6JL8A7T1WDSL", "dateTime": 1516038365856}, {"current_trial": 123, "trialdata": {"rt": -1000, "trial_type": "single-audio", "word": "sphinx", "stimulus": "/static/audio/wordpool/SPHINX.wav", "conditions": [24, 1600, "a", 12000], "internal_node_id": "0.0-87.0", "trial": 3, "time_elapsed": 735693, "serialpos": 6, "key_press": -1, "wordID": 1348, "type": "PRES_AUD", "trial_index": 123}, "uniqueid": "MTK1581:3WEV0KO0ONZYGX6IUC6JL8A7T1WDSL", "dateTime": 1516038368278}, {"current_trial": 124, "trialdata": {"rt": -1000, "trial_type": "single-audio", "word": "fungus", "stimulus": "/static/audio/wordpool/FUNGUS.wav", "conditions": [24, 1600, "a", 12000], "internal_node_id": "0.0-88.0", "trial": 3, "time_elapsed": 738464, "serialpos": 7, "key_press": -1, "wordID": 613, "type": "PRES_AUD", "trial_index": 124}, "uniqueid": "MTK1581:3WEV0KO0ONZYGX6IUC6JL8A7T1WDSL", "dateTime": 1516038371048}, {"current_trial": 125, "trialdata": {"rt": -1000, "trial_type": "single-audio", "word": "victim", "stimulus": "/static/audio/wordpool/VICTIM.wav", "conditions": [24, 1600, "a", 12000], "internal_node_id": "0.0-89.0", "trial": 3, "time_elapsed": 741074, "serialpos": 8, "key_press": -1, "wordID": 1561, "type": "PRES_AUD", "trial_index": 125}, "uniqueid": "MTK1581:3WEV0KO0ONZYGX6IUC6JL8A7T1WDSL", "dateTime": 1516038373659}, {"current_trial": 126, "trialdata": {"rt": -1000, "trial_type": "single-audio", "word": "girl", "stimulus": "/static/audio/wordpool/GIRL.wav", "conditions": [24, 1600, "a", 12000], "internal_node_id": "0.0-90.0", "trial": 3, "time_elapsed": 743581, "serialpos": 9, "key_press": -1, "wordID": 636, "type": "PRES_AUD", "trial_index": 126}, "uniqueid": "MTK1581:3WEV0KO0ONZYGX6IUC6JL8A7T1WDSL", "dateTime": 1516038376165}, {"current_trial": 127, "trialdata": {"rt": -1000, "trial_type": "single-audio", "word": "fireplace", "stimulus": "/static/audio/wordpool/FIREPLACE.wav", "conditions": [24, 1600, "a", 12000], "internal_node_id": "0.0-91.0", "trial": 3, "time_elapsed": 746128, "serialpos": 10, "key_press": -1, "wordID": 569, "type": "PRES_AUD", "trial_index": 127}, "uniqueid": "MTK1581:3WEV0KO0ONZYGX6IUC6JL8A7T1WDSL", "dateTime": 1516038378712}, {"current_trial": 128, "trialdata": {"rt": -1000, "trial_type": "single-audio", "word": "wasp", "stimulus": "/static/audio/wordpool/WASP.wav", "conditions": [24, 1600, "a", 12000], "internal_node_id": "0.0-92.0", "trial": 3, "time_elapsed": 748558, "serialpos": 11, "key_press": -1, "wordID": 1592, "type": "PRES_AUD", "trial_index": 128}, "uniqueid": "MTK1581:3WEV0KO0ONZYGX6IUC6JL8A7T1WDSL", "dateTime": 1516038381143}, {"current_trial": 129, "trialdata": {"rt": -1000, "trial_type": "single-audio", "word": "iceberg", "stimulus": "/static/audio/wordpool/ICEBERG.wav", "conditions": [24, 1600, "a", 12000], "internal_node_id": "0.0-93.0", "trial": 3, "time_elapsed": 750981, "serialpos": 12, "key_press": -1, "wordID": 730, "type": "PRES_AUD", "trial_index": 129}, "uniqueid": "MTK1581:3WEV0KO0ONZYGX6IUC6JL8A7T1WDSL", "dateTime": 1516038383565}, {"current_trial": 130, "trialdata": {"rt": -1000, "trial_type": "single-audio", "word": "lettuce", "stimulus": "/static/audio/wordpool/LETTUCE.wav", "conditions": [24, 1600, "a", 12000], "internal_node_id": "0.0-94.0", "trial": 3, "time_elapsed": 753648, "serialpos": 13, "key_press": -1, "wordID": 813, "type": "PRES_AUD", "trial_index": 130}, "uniqueid": "MTK1581:3WEV0KO0ONZYGX6IUC6JL8A7T1WDSL", "dateTime": 1516038386232}, {"current_trial": 131, "trialdata": {"rt": -1000, "trial_type": "single-audio", "word": "gravel", "stimulus": "/static/audio/wordpool/GRAVEL.wav", "conditions": [24, 1600, "a", 12000], "internal_node_id": "0.0-95.0", "trial": 3, "time_elapsed": 756235, "serialpos": 14, "key_press": -1, "wordID": 658, "type": "PRES_AUD", "trial_index": 131}, "uniqueid": "MTK1581:3WEV0KO0ONZYGX6IUC6JL8A7T1WDSL", "dateTime": 1516038388819}, {"current_trial": 132, "trialdata": {"rt": -1000, "trial_type": "single-audio", "word": "bathtub", "stimulus": "/static/audio/wordpool/BATHTUB.wav", "conditions": [24, 1600, "a", 12000], "internal_node_id": "0.0-96.0", "trial": 3, "time_elapsed": 759001, "serialpos": 15, "key_press": -1, "wordID": 99, "type": "PRES_AUD", "trial_index": 132}, "uniqueid": "MTK1581:3WEV0KO0ONZYGX6IUC6JL8A7T1WDSL", "dateTime": 1516038391585}, {"current_trial": 133, "trialdata": {"rt": -1000, "trial_type": "single-audio", "word": "brick", "stimulus": "/static/audio/wordpool/BRICK.wav", "conditions": [24, 1600, "a", 12000], "internal_node_id": "0.0-97.0", "trial": 3, "time_elapsed": 761650, "serialpos": 16, "key_press": -1, "wordID": 171, "type": "PRES_AUD", "trial_index": 133}, "uniqueid": "MTK1581:3WEV0KO0ONZYGX6IUC6JL8A7T1WDSL", "dateTime": 1516038394234}, {"current_trial": 134, "trialdata": {"rt": -1000, "trial_type": "single-audio", "word": "tuba", "stimulus": "/static/audio/wordpool/TUBA.wav", "conditions": [24, 1600, "a", 12000], "internal_node_id": "0.0-98.0", "trial": 3, "time_elapsed": 764450, "serialpos": 17, "key_press": -1, "wordID": 1514, "type": "PRES_AUD", "trial_index": 134}, "uniqueid": "MTK1581:3WEV0KO0ONZYGX6IUC6JL8A7T1WDSL", "dateTime": 1516038397034}, {"current_trial": 135, "trialdata": {"rt": -1000, "trial_type": "single-audio", "word": "piano", "stimulus": "/static/audio/wordpool/PIANO.wav", "conditions": [24, 1600, "a", 12000], "internal_node_id": "0.0-99.0", "trial": 3, "time_elapsed": 766964, "serialpos": 18, "key_press": -1, "wordID": 1056, "type": "PRES_AUD", "trial_index": 135}, "uniqueid": "MTK1581:3WEV0KO0ONZYGX6IUC6JL8A7T1WDSL", "dateTime": 1516038399549}, {"current_trial": 136, "trialdata": {"rt": -1000, "trial_type": "single-audio", "word": "spoon", "stimulus": "/static/audio/wordpool/SPOON.wav", "conditions": [24, 1600, "a", 12000], "internal_node_id": "0.0-100.0", "trial": 3, "time_elapsed": 769543, "serialpos": 19, "key_press": -1, "wordID": 1356, "type": "PRES_AUD", "trial_index": 136}, "uniqueid": "MTK1581:3WEV0KO0ONZYGX6IUC6JL8A7T1WDSL", "dateTime": 1516038402127}, {"current_trial": 137, "trialdata": {"rt": -1000, "trial_type": "single-audio", "word": "jelly", "stimulus": "/static/audio/wordpool/JELLY.wav", "conditions": [24, 1600, "a", 12000], "internal_node_id": "0.0-101.0", "trial": 3, "time_elapsed": 772133, "serialpos": 20, "key_press": -1, "wordID": 754, "type": "PRES_AUD", "trial_index": 137}, "uniqueid": "MTK1581:3WEV0KO0ONZYGX6IUC6JL8A7T1WDSL", "dateTime": 1516038404717}, {"current_trial": 138, "trialdata": {"rt": -1000, "trial_type": "single-audio", "word": "basement", "stimulus": "/static/audio/wordpool/BASEMENT.wav", "conditions": [24, 1600, "a", 12000], "internal_node_id": "0.0-102.0", "trial": 3, "time_elapsed": 774544, "serialpos": 21, "key_press": -1, "wordID": 93, "type": "PRES_AUD", "trial_index": 138}, "uniqueid": "MTK1581:3WEV0KO0ONZYGX6IUC6JL8A7T1WDSL", "dateTime": 1516038407129}, {"current_trial": 139, "trialdata": {"rt": -1000, "trial_type": "single-audio", "word": "airplane", "stimulus": "/static/audio/wordpool/AIRPLANE.wav", "conditions": [24, 1600, "a", 12000], "internal_node_id": "0.0-103.0", "trial": 3, "time_elapsed": 777010, "serialpos": 22, "key_press": -1, "wordID": 11, "type": "PRES_AUD", "trial_index": 139}, "uniqueid": "MTK1581:3WEV0KO0ONZYGX6IUC6JL8A7T1WDSL", "dateTime": 1516038409594}, {"current_trial": 140, "trialdata": {"rt": -1000, "trial_type": "single-audio", "word": "stone", "stimulus": "/static/audio/wordpool/STONE.wav", "conditions": [24, 1600, "a", 12000], "internal_node_id": "0.0-104.0", "trial": 3, "time_elapsed": 779643, "serialpos": 23, "key_press": -1, "wordID": 1384, "type": "PRES_AUD", "trial_index": 140}, "uniqueid": "MTK1581:3WEV0KO0ONZYGX6IUC6JL8A7T1WDSL", "dateTime": 1516038412227}, {"current_trial": 141, "trialdata": {"rt": -1, "trial_type": "single-stim", "stimulus": "", "internal_node_id": "0.0-105.0-0.0", "time_elapsed": 780979, "key_press": -1, "type": "PRE_RECALL_DELAY", "trial_index": 141}, "uniqueid": "MTK1581:3WEV0KO0ONZYGX6IUC6JL8A7T1WDSL", "dateTime": 1516038413563}, {"current_trial": 142, "trialdata": {"rt": -1000, "trial_type": "single-audio", "stimulus": "/static/audio/400Hz.wav", "internal_node_id": "0.0-106.0", "time_elapsed": 781485, "key_press": -1, "type": "PRE_RECALL_ALERT", "trial_index": 142}, "uniqueid": "MTK1581:3WEV0KO0ONZYGX6IUC6JL8A7T1WDSL", "dateTime": 1516038414069}, {"current_trial": 143, "trialdata": {"rt": [2935, 4639, 7351, 11839, 13302, 15559, 20694, 22511, 29438, 33471, 36694, 38934], "recwords": ["iceberg", "gravel", "jelly", "widow", "wife", "mister", "hook", "sunrise", "fungus", "sphinx", "girl", "fireplace"], "key_times": [1191, 1456, 1647, 1839, 1935, 2111, 2231, 2935, 3360, 3479, 3688, 3775, 3976, 4407, 4639, 4848, 4991, 5536, 5655, 6247, 7351, 10255, 10927, 11255, 11423, 11535, 11839, 12336, 12575, 12808, 12999, 13302, 14159, 14360, 14495, 14647, 14759, 15183, 15559, 19895, 20071, 20199, 20311, 20694, 21095, 21263, 21439, 21583, 21719, 21847, 22015, 22511, 28423, 28615, 28807, 28959, 29079, 29231, 29438, 29895, 30047, 30439, 30695, 32879, 33023, 33471, 34719, 34823, 34943, 35087, 35647, 35791, 36103, 36295, 36694, 37527, 37775, 37887, 38063, 38159, 38327, 38423, 38623, 38807, 38934], "trial_type": "free-recall", "conditions": [24, 1600, "a", 12000], "internal_node_id": "0.0-107.0-0.0", "key_presses": [73, 67, 69, 66, 69, 82, 71, 13, 71, 82, 65, 86, 69, 76, 32, 74, 69, 76, 76, 89, 13, 87, 73, 68, 79, 87, 13, 87, 73, 70, 69, 13, 77, 73, 83, 84, 69, 82, 13, 72, 79, 79, 75, 13, 83, 85, 78, 82, 73, 83, 69, 13, 70, 85, 78, 71, 85, 83, 13, 83, 80, 72, 73, 78, 88, 13, 71, 73, 84, 76, 8, 8, 82, 76, 13, 70, 73, 82, 69, 80, 76, 65, 67, 69, 13], "trial": 3, "time_elapsed": 841503, "type": "FREE_RECALL", "trial_index": 143}, "uniqueid": "MTK1581:3WEV0KO0ONZYGX6IUC6JL8A7T1WDSL", "dateTime": 1516038474093}, {"current_trial": 144, "trialdata": {"rt": 1480, "trial_type": "text", "internal_node_id": "0.0-108.0", "time_elapsed": 844999, "key_press": 32, "type": "INSTRUCTIONS", "trial_index": 144}, "uniqueid": "MTK1581:3WEV0KO0ONZYGX6IUC6JL8A7T1WDSL", "dateTime": 1516038477583}, {"current_trial": 145, "trialdata": {"rt": [2505, 4321, 6081, 7841, 9769], "trial_type": "math-distractor", "key_times": [1714, 1930, 2505, 3762, 3985, 4321, 5674, 5858, 6081, 7338, 7722, 7841, 9226, 9617, 9769], "responses": ["23", "20", "21", "17", "15"], "num2": [7, 6, 8, 2, 2, 8], "num3": [8, 5, 7, 9, 5, 9], "conditions": [24, 1600, "a", 12000], "internal_node_id": "0.0-109.0", "key_presses": [50, 51, 13, 50, 48, 13, 50, 49, 13, 49, 55, 13, 49, 53, 13], "trial": 4, "time_elapsed": 859023, "type": "DISTRACTOR", "trial_index": 145, "num1": [8, 9, 6, 6, 8, 7]}, "uniqueid": "MTK1581:3WEV0KO0ONZYGX6IUC6JL8A7T1WDSL", "dateTime": 1516038491608}, {"current_trial": 146, "trialdata": {"rt": -1, "trial_type": "single-stim", "stimulus": "<p id=\"stim\">10</p>", "internal_node_id": "0.0-110.0-0.0", "time_elapsed": 862053, "key_press": -1, "trial_index": 146}, "uniqueid": "MTK1581:3WEV0KO0ONZYGX6IUC6JL8A7T1WDSL", "dateTime": 1516038494637}, {"current_trial": 147, "trialdata": {"rt": -1, "trial_type": "single-stim", "stimulus": "<p id=\"stim\">9</p>", "internal_node_id": "0.0-110.0-1.0", "time_elapsed": 863061, "key_press": -1, "trial_index": 147}, "uniqueid": "MTK1581:3WEV0KO0ONZYGX6IUC6JL8A7T1WDSL", "dateTime": 1516038495646}, {"current_trial": 148, "trialdata": {"rt": -1, "trial_type": "single-stim", "stimulus": "<p id=\"stim\">8</p>", "internal_node_id": "0.0-110.0-2.0", "time_elapsed": 864041, "key_press": -1, "trial_index": 148}, "uniqueid": "MTK1581:3WEV0KO0ONZYGX6IUC6JL8A7T1WDSL", "dateTime": 1516038496626}, {"current_trial": 149, "trialdata": {"rt": -1, "trial_type": "single-stim", "stimulus": "<p id=\"stim\">7</p>", "internal_node_id": "0.0-110.0-3.0", "time_elapsed": 865039, "key_press": -1, "trial_index": 149}, "uniqueid": "MTK1581:3WEV0KO0ONZYGX6IUC6JL8A7T1WDSL", "dateTime": 1516038497624}, {"current_trial": 150, "trialdata": {"rt": -1, "trial_type": "single-stim", "stimulus": "<p id=\"stim\">6</p>", "internal_node_id": "0.0-110.0-4.0", "time_elapsed": 866047, "key_press": -1, "trial_index": 150}, "uniqueid": "MTK1581:3WEV0KO0ONZYGX6IUC6JL8A7T1WDSL", "dateTime": 1516038498631}, {"current_trial": 151, "trialdata": {"rt": -1, "trial_type": "single-stim", "stimulus": "<p id=\"stim\">5</p>", "internal_node_id": "0.0-110.0-5.0", "time_elapsed": 867052, "key_press": -1, "trial_index": 151}, "uniqueid": "MTK1581:3WEV0KO0ONZYGX6IUC6JL8A7T1WDSL", "dateTime": 1516038499636}, {"current_trial": 152, "trialdata": {"rt": -1, "trial_type": "single-stim", "stimulus": "<p id=\"stim\">4</p>", "internal_node_id": "0.0-110.0-6.0", "time_elapsed": 868057, "key_press": -1, "trial_index": 152}, "uniqueid": "MTK1581:3WEV0KO0ONZYGX6IUC6JL8A7T1WDSL", "dateTime": 1516038500641}, {"current_trial": 153, "trialdata": {"rt": -1, "trial_type": "single-stim", "stimulus": "<p id=\"stim\">3</p>", "internal_node_id": "0.0-110.0-7.0", "time_elapsed": 869057, "key_press": -1, "trial_index": 153}, "uniqueid": "MTK1581:3WEV0KO0ONZYGX6IUC6JL8A7T1WDSL", "dateTime": 1516038501641}, {"current_trial": 154, "trialdata": {"rt": -1, "trial_type": "single-stim", "stimulus": "<p id=\"stim\">2</p>", "internal_node_id": "0.0-110.0-8.0", "time_elapsed": 870068, "key_press": -1, "trial_index": 154}, "uniqueid": "MTK1581:3WEV0KO0ONZYGX6IUC6JL8A7T1WDSL", "dateTime": 1516038502653}, {"current_trial": 155, "trialdata": {"rt": -1, "trial_type": "single-stim", "stimulus": "<p id=\"stim\">1</p>", "internal_node_id": "0.0-110.0-9.0", "time_elapsed": 871043, "key_press": -1, "trial_index": 155}, "uniqueid": "MTK1581:3WEV0KO0ONZYGX6IUC6JL8A7T1WDSL", "dateTime": 1516038503627}, {"current_trial": 156, "trialdata": {"rt": -1, "trial_type": "single-stim", "stimulus": "<p id=\"stim\">+</p>", "internal_node_id": "0.0-111.0-0.0", "time_elapsed": 872557, "key_press": -1, "type": "FIXATION", "trial_index": 156}, "uniqueid": "MTK1581:3WEV0KO0ONZYGX6IUC6JL8A7T1WDSL", "dateTime": 1516038505141}, {"current_trial": 157, "trialdata": {"rt": -1000, "trial_type": "single-audio", "word": "author", "stimulus": "/static/audio/wordpool/AUTHOR.wav", "conditions": [24, 1600, "a", 12000], "internal_node_id": "0.0-112.0", "trial": 4, "time_elapsed": 875157, "serialpos": 0, "key_press": -1, "wordID": 60, "type": "PRES_AUD", "trial_index": 157}, "uniqueid": "MTK1581:3WEV0KO0ONZYGX6IUC6JL8A7T1WDSL", "dateTime": 1516038507742}, {"current_trial": 158, "trialdata": {"rt": -1000, "trial_type": "single-audio", "word": "bug", "stimulus": "/static/audio/wordpool/BUG.wav", "conditions": [24, 1600, "a", 12000], "internal_node_id": "0.0-113.0", "trial": 4, "time_elapsed": 877638, "serialpos": 1, "key_press": -1, "wordID": 186, "type": "PRES_AUD", "trial_index": 158}, "uniqueid": "MTK1581:3WEV0KO0ONZYGX6IUC6JL8A7T1WDSL", "dateTime": 1516038510222}, {"current_trial": 159, "trialdata": {"rt": -1000, "trial_type": "single-audio", "word": "pecan", "stimulus": "/static/audio/wordpool/PECAN.wav", "conditions": [24, 1600, "a", 12000], "internal_node_id": "0.0-114.0", "trial": 4, "time_elapsed": 880186, "serialpos": 2, "key_press": -1, "wordID": 1035, "type": "PRES_AUD", "trial_index": 159}, "uniqueid": "MTK1581:3WEV0KO0ONZYGX6IUC6JL8A7T1WDSL", "dateTime": 1516038512770}, {"current_trial": 160, "trialdata": {"rt": -1000, "trial_type": "single-audio", "word": "briefcase", "stimulus": "/static/audio/wordpool/BRIEFCASE.wav", "conditions": [24, 1600, "a", 12000], "internal_node_id": "0.0-115.0", "trial": 4, "time_elapsed": 882868, "serialpos": 3, "key_press": -1, "wordID": 174, "type": "PRES_AUD", "trial_index": 160}, "uniqueid": "MTK1581:3WEV0KO0ONZYGX6IUC6JL8A7T1WDSL", "dateTime": 1516038515453}, {"current_trial": 161, "trialdata": {"rt": -1000, "trial_type": "single-audio", "word": "arm", "stimulus": "/static/audio/wordpool/ARM.wav", "conditions": [24, 1600, "a", 12000], "internal_node_id": "0.0-116.0", "trial": 4, "time_elapsed": 885576, "serialpos": 4, "key_press": -1, "wordID": 37, "type": "PRES_AUD", "trial_index": 161}, "uniqueid": "MTK1581:3WEV0KO0ONZYGX6IUC6JL8A7T1WDSL", "dateTime": 1516038518161}, {"current_trial": 162, "trialdata": {"rt": -1000, "trial_type": "single-audio", "word": "atlas", "stimulus": "/static/audio/wordpool/ATLAS.wav", "conditions": [24, 1600, "a", 12000], "internal_node_id": "0.0-117.0", "trial": 4, "time_elapsed": 888166, "serialpos": 5, "key_press": -1, "wordID": 52, "type": "PRES_AUD", "trial_index": 162}, "uniqueid": "MTK1581:3WEV0KO0ONZYGX6IUC6JL8A7T1WDSL", "dateTime": 1516038520750}, {"current_trial": 163, "trialdata": {"rt": -1000, "trial_type": "single-audio", "word": "daughter", "stimulus": "/static/audio/wordpool/DAUGHTER.wav", "conditions": [24, 1600, "a", 12000], "internal_node_id": "0.0-118.0", "trial": 4, "time_elapsed": 890676, "serialpos": 6, "key_press": -1, "wordID": 441, "type": "PRES_AUD", "trial_index": 163}, "uniqueid": "MTK1581:3WEV0KO0ONZYGX6IUC6JL8A7T1WDSL", "dateTime": 1516038523260}, {"current_trial": 164, "trialdata": {"rt": -1000, "trial_type": "single-audio", "word": "uncle", "stimulus": "/static/audio/wordpool/UNCLE.wav", "conditions": [24, 1600, "a", 12000], "internal_node_id": "0.0-119.0", "trial": 4, "time_elapsed": 893191, "serialpos": 7, "key_press": -1, "wordID": 1535, "type": "PRES_AUD", "trial_index": 164}, "uniqueid": "MTK1581:3WEV0KO0ONZYGX6IUC6JL8A7T1WDSL", "dateTime": 1516038525776}, {"current_trial": 165, "trialdata": {"rt": -1000, "trial_type": "single-audio", "word": "flag", "stimulus": "/static/audio/wordpool/FLAG.wav", "conditions": [24, 1600, "a", 12000], "internal_node_id": "0.0-120.0", "trial": 4, "time_elapsed": 895872, "serialpos": 8, "key_press": -1, "wordID": 572, "type": "PRES_AUD", "trial_index": 165}, "uniqueid": "MTK1581:3WEV0KO0ONZYGX6IUC6JL8A7T1WDSL", "dateTime": 1516038528456}, {"current_trial": 166, "trialdata": {"rt": -1000, "trial_type": "single-audio", "word": "shrub", "stimulus": "/static/audio/wordpool/SHRUB.wav", "conditions": [24, 1600, "a", 12000], "internal_node_id": "0.0-121.0", "trial": 4, "time_elapsed": 898548, "serialpos": 9, "key_press": -1, "wordID": 1298, "type": "PRES_AUD", "trial_index": 166}, "uniqueid": "MTK1581:3WEV0KO0ONZYGX6IUC6JL8A7T1WDSL", "dateTime": 1516038531132}, {"current_trial": 167, "trialdata": {"rt": -1000, "trial_type": "single-audio", "word": "valley", "stimulus": "/static/audio/wordpool/VALLEY.wav", "conditions": [24, 1600, "a", 12000], "internal_node_id": "0.0-122.0", "trial": 4, "time_elapsed": 901022, "serialpos": 10, "key_press": -1, "wordID": 1544, "type": "PRES_AUD", "trial_index": 167}, "uniqueid": "MTK1581:3WEV0KO0ONZYGX6IUC6JL8A7T1WDSL", "dateTime": 1516038533606}, {"current_trial": 168, "trialdata": {"rt": -1000, "trial_type": "single-audio", "word": "virus", "stimulus": "/static/audio/wordpool/VIRUS.wav", "conditions": [24, 1600, "a", 12000], "internal_node_id": "0.0-123.0", "trial": 4, "time_elapsed": 903717, "serialpos": 11, "key_press": -1, "wordID": 1571, "type": "PRES_AUD", "trial_index": 168}, "uniqueid": "MTK1581:3WEV0KO0ONZYGX6IUC6JL8A7T1WDSL", "dateTime": 1516038536302}, {"current_trial": 169, "trialdata": {"rt": -1000, "trial_type": "single-audio", "word": "ankle", "stimulus": "/static/audio/wordpool/ANKLE.wav", "conditions": [24, 1600, "a", 12000], "internal_node_id": "0.0-124.0", "trial": 4, "time_elapsed": 906448, "serialpos": 12, "key_press": -1, "wordID": 23, "type": "PRES_AUD", "trial_index": 169}, "uniqueid": "MTK1581:3WEV0KO0ONZYGX6IUC6JL8A7T1WDSL", "dateTime": 1516038539032}, {"current_trial": 170, "trialdata": {"rt": -1000, "trial_type": "single-audio", "word": "balloon", "stimulus": "/static/audio/wordpool/BALLOON.wav", "conditions": [24, 1600, "a", 12000], "internal_node_id": "0.0-125.0", "trial": 4, "time_elapsed": 908959, "serialpos": 13, "key_press": -1, "wordID": 74, "type": "PRES_AUD", "trial_index": 170}, "uniqueid": "MTK1581:3WEV0KO0ONZYGX6IUC6JL8A7T1WDSL", "dateTime": 1516038541543}, {"current_trial": 171, "trialdata": {"rt": -1000, "trial_type": "single-audio", "word": "onion", "stimulus": "/static/audio/wordpool/ONION.wav", "conditions": [24, 1600, "a", 12000], "internal_node_id": "0.0-126.0", "trial": 4, "time_elapsed": 911727, "serialpos": 14, "key_press": -1, "wordID": 976, "type": "PRES_AUD", "trial_index": 171}, "uniqueid": "MTK1581:3WEV0KO0ONZYGX6IUC6JL8A7T1WDSL", "dateTime": 1516038544311}, {"current_trial": 172, "trialdata": {"rt": -1000, "trial_type": "single-audio", "word": "pepper", "stimulus": "/static/audio/wordpool/PEPPER.wav", "conditions": [24, 1600, "a", 12000], "internal_node_id": "0.0-127.0", "trial": 4, "time_elapsed": 914264, "serialpos": 15, "key_press": -1, "wordID": 1046, "type": "PRES_AUD", "trial_index": 172}, "uniqueid": "MTK1581:3WEV0KO0ONZYGX6IUC6JL8A7T1WDSL", "dateTime": 1516038546848}, {"current_trial": 173, "trialdata": {"rt": -1000, "trial_type": "single-audio", "word": "piston", "stimulus": "/static/audio/wordpool/PISTON.wav", "conditions": [24, 1600, "a", 12000], "internal_node_id": "0.0-128.0", "trial": 4, "time_elapsed": 916982, "serialpos": 16, "key_press": -1, "wordID": 1075, "type": "PRES_AUD", "trial_index": 173}, "uniqueid": "MTK1581:3WEV0KO0ONZYGX6IUC6JL8A7T1WDSL", "dateTime": 1516038549566}, {"current_trial": 174, "trialdata": {"rt": -1000, "trial_type": "single-audio", "word": "shoulder", "stimulus": "/static/audio/wordpool/SHOULDER.wav", "conditions": [24, 1600, "a", 12000], "internal_node_id": "0.0-129.0", "trial": 4, "time_elapsed": 919722, "serialpos": 17, "key_press": -1, "wordID": 1293, "type": "PRES_AUD", "trial_index": 174}, "uniqueid": "MTK1581:3WEV0KO0ONZYGX6IUC6JL8A7T1WDSL", "dateTime": 1516038552307}, {"current_trial": 175, "trialdata": {"rt": -1000, "trial_type": "single-audio", "word": "lightning", "stimulus": "/static/audio/wordpool/LIGHTNING.wav", "conditions": [24, 1600, "a", 12000], "internal_node_id": "0.0-130.0", "trial": 4, "time_elapsed": 922172, "serialpos": 18, "key_press": -1, "wordID": 819, "type": "PRES_AUD", "trial_index": 175}, "uniqueid": "MTK1581:3WEV0KO0ONZYGX6IUC6JL8A7T1WDSL", "dateTime": 1516038554757}, {"current_trial": 176, "trialdata": {"rt": -1000, "trial_type": "single-audio", "word": "hatchet", "stimulus": "/static/audio/wordpool/HATCHET.wav", "conditions": [24, 1600, "a", 12000], "internal_node_id": "0.0-131.0", "trial": 4, "time_elapsed": 924652, "serialpos": 19, "key_press": -1, "wordID": 690, "type": "PRES_AUD", "trial_index": 176}, "uniqueid": "MTK1581:3WEV0KO0ONZYGX6IUC6JL8A7T1WDSL", "dateTime": 1516038557236}, {"current_trial": 177, "trialdata": {"rt": -1000, "trial_type": "single-audio", "word": "receipt", "stimulus": "/static/audio/wordpool/RECEIPT.wav", "conditions": [24, 1600, "a", 12000], "internal_node_id": "0.0-132.0", "trial": 4, "time_elapsed": 927077, "serialpos": 20, "key_press": -1, "wordID": 1172, "type": "PRES_AUD", "trial_index": 177}, "uniqueid": "MTK1581:3WEV0KO0ONZYGX6IUC6JL8A7T1WDSL", "dateTime": 1516038559662}, {"current_trial": 178, "trialdata": {"rt": -1000, "trial_type": "single-audio", "word": "report", "stimulus": "/static/audio/wordpool/REPORT.wav", "conditions": [24, 1600, "a", 12000], "internal_node_id": "0.0-133.0", "trial": 4, "time_elapsed": 929695, "serialpos": 21, "key_press": -1, "wordID": 1183, "type": "PRES_AUD", "trial_index": 178}, "uniqueid": "MTK1581:3WEV0KO0ONZYGX6IUC6JL8A7T1WDSL", "dateTime": 1516038562279}, {"current_trial": 179, "trialdata": {"rt": -1000, "trial_type": "single-audio", "word": "whistle", "stimulus": "/static/audio/wordpool/WHISTLE.wav", "conditions": [24, 1600, "a", 12000], "internal_node_id": "0.0-134.0", "trial": 4, "time_elapsed": 932416, "serialpos": 22, "key_press": -1, "wordID": 1605, "type": "PRES_AUD", "trial_index": 179}, "uniqueid": "MTK1581:3WEV0KO0ONZYGX6IUC6JL8A7T1WDSL", "dateTime": 1516038565001}, {"current_trial": 180, "trialdata": {"rt": -1000, "trial_type": "single-audio", "word": "female", "stimulus": "/static/audio/wordpool/FEMALE.wav", "conditions": [24, 1600, "a", 12000], "internal_node_id": "0.0-135.0", "trial": 4, "time_elapsed": 934892, "serialpos": 23, "key_press": -1, "wordID": 558, "type": "PRES_AUD", "trial_index": 180}, "uniqueid": "MTK1581:3WEV0KO0ONZYGX6IUC6JL8A7T1WDSL", "dateTime": 1516038567477}, {"current_trial": 181, "trialdata": {"rt": -1, "trial_type": "single-stim", "stimulus": "", "internal_node_id": "0.0-136.0-0.0", "time_elapsed": 936286, "key_press": -1, "type": "PRE_RECALL_DELAY", "trial_index": 181}, "uniqueid": "MTK1581:3WEV0KO0ONZYGX6IUC6JL8A7T1WDSL", "dateTime": 1516038568871}, {"current_trial": 182, "trialdata": {"rt": -1000, "trial_type": "single-audio", "stimulus": "/static/audio/400Hz.wav", "internal_node_id": "0.0-137.0", "time_elapsed": 936797, "key_press": -1, "type": "PRE_RECALL_ALERT", "trial_index": 182}, "uniqueid": "MTK1581:3WEV0KO0ONZYGX6IUC6JL8A7T1WDSL", "dateTime": 1516038569381}, {"current_trial": 183, "trialdata": {"rt": [2886, 4758, 7277, 12013, 18166, 19733, 20981, 25366, 27341, 30349, 32541, 34469, 38237, 40109, 41869, 45997, 47933, 54677], "recwords": ["lightning", "report", "author", "bug", "briefcase", "pecan", "arm", "daughter", "atlas", "flag", "uncle", "shrub", "virus", "valley", "ankle", "onion", "balloon", "shoulder"], "key_times": [1190, 1422, 1621, 1790, 1990, 2118, 2310, 2487, 2590, 2886, 3598, 3766, 3854, 4022, 4118, 4286, 4758, 5374, 5566, 5862, 6094, 6310, 6590, 7277, 11022, 11174, 11574, 12013, 16158, 16414, 16718, 16830, 17086, 17302, 17510, 17670, 17846, 18166, 18822, 18950, 19158, 19350, 19446, 19733, 20134, 20478, 20622, 20981, 24094, 24310, 24446, 24630, 24790, 24886, 25070, 25214, 25366, 25814, 25998, 26478, 26582, 26758, 27341, 29174, 29446, 29590, 29934, 30349, 30798, 30982, 31182, 31574, 31774, 32022, 32246, 32541, 33182, 33318, 33470, 33654, 33885, 34469, 37118, 37333, 37598, 37758, 37885, 38237, 38838, 39086, 39222, 39342, 39454, 39725, 40109, 40974, 41094, 41302, 41518, 41662, 41869, 44798, 45030, 45270, 45438, 45638, 45997, 46494, 46734, 46934, 47061, 47254, 47382, 47606, 47933, 53342, 53442, 53662, 53893, 54102, 54230, 54390, 54526, 54677], "trial_type": "free-recall", "conditions": [24, 1600, "a", 12000], "internal_node_id": "0.0-138.0-0.0", "key_presses": [76, 73, 71, 72, 84, 78, 73, 78, 71, 13, 82, 69, 80, 79, 82, 84, 13, 65, 85, 84, 72, 79, 82, 13, 66, 85, 71, 13, 66, 82, 73, 69, 70, 67, 65, 83, 69, 13, 80, 69, 67, 65, 78, 13, 65, 82, 77, 13, 68, 65, 85, 71, 72, 84, 69, 82, 13, 65, 84, 76, 65, 83, 13, 70, 76, 65, 71, 13, 85, 78, 86, 8, 67, 76, 69, 13, 83, 72, 82, 85, 66, 13, 86, 73, 82, 85, 83, 13, 86, 65, 76, 76, 69, 89, 13, 65, 78, 75, 76, 69, 13, 79, 78, 73, 79, 78, 13, 66, 65, 76, 76, 79, 79, 78, 13, 83, 72, 79, 85, 76, 68, 69, 82, 13], "trial": 4, "time_elapsed": 996807, "type": "FREE_RECALL", "trial_index": 183}, "uniqueid": "MTK1581:3WEV0KO0ONZYGX6IUC6JL8A7T1WDSL", "dateTime": 1516038629397}, {"current_trial": 184, "trialdata": {"rt": 4680, "trial_type": "text", "internal_node_id": "0.0-139.0", "time_elapsed": 1003510, "key_press": 32, "type": "INSTRUCTIONS", "trial_index": 184}, "uniqueid": "MTK1581:3WEV0KO0ONZYGX6IUC6JL8A7T1WDSL", "dateTime": 1516038636094}, {"current_trial": 185, "trialdata": {"rt": [2321, 4289, 6697, 8249, 10025, 11817], "trial_type": "math-distractor", "key_times": [1730, 2170, 2321, 3786, 4162, 4289, 6249, 6570, 6697, 8114, 8249, 9689, 9873, 10025, 11073, 11586, 11817], "responses": ["18", "18", "16", "4", "11", "18"], "num2": [7, 5, 2, 2, 1, 5, 8], "num3": [5, 5, 9, 1, 4, 4, 3], "conditions": [12, 1600, "a", 12000], "internal_node_id": "0.0-140.0", "key_presses": [49, 56, 13, 49, 56, 13, 49, 54, 13, 52, 13, 49, 49, 13, 49, 56, 13], "trial": 5, "time_elapsed": 1017532, "type": "DISTRACTOR", "trial_index": 185, "num1": [6, 8, 5, 1, 6, 9, 7]}, "uniqueid": "MTK1581:3WEV0KO0ONZYGX6IUC6JL8A7T1WDSL", "dateTime": 1516038650116}, {"current_trial": 186, "trialdata": {"rt": -1, "trial_type": "single-stim", "stimulus": "<p id=\"stim\">10</p>", "internal_node_id": "0.0-141.0-0.0", "time_elapsed": 1020563, "key_press": -1, "trial_index": 186}, "uniqueid": "MTK1581:3WEV0KO0ONZYGX6IUC6JL8A7T1WDSL", "dateTime": 1516038653148}, {"current_trial": 187, "trialdata": {"rt": -1, "trial_type": "single-stim", "stimulus": "<p id=\"stim\">9</p>", "internal_node_id": "0.0-141.0-1.0", "time_elapsed": 1021548, "key_press": -1, "trial_index": 187}, "uniqueid": "MTK1581:3WEV0KO0ONZYGX6IUC6JL8A7T1WDSL", "dateTime": 1516038654132}, {"current_trial": 188, "trialdata": {"rt": -1, "trial_type": "single-stim", "stimulus": "<p id=\"stim\">8</p>", "internal_node_id": "0.0-141.0-2.0", "time_elapsed": 1022572, "key_press": -1, "trial_index": 188}, "uniqueid": "MTK1581:3WEV0KO0ONZYGX6IUC6JL8A7T1WDSL", "dateTime": 1516038655157}, {"current_trial": 189, "trialdata": {"rt": -1, "trial_type": "single-stim", "stimulus": "<p id=\"stim\">7</p>", "internal_node_id": "0.0-141.0-3.0", "time_elapsed": 1023555, "key_press": -1, "trial_index": 189}, "uniqueid": "MTK1581:3WEV0KO0ONZYGX6IUC6JL8A7T1WDSL", "dateTime": 1516038656139}, {"current_trial": 190, "trialdata": {"rt": -1, "trial_type": "single-stim", "stimulus": "<p id=\"stim\">6</p>", "internal_node_id": "0.0-141.0-4.0", "time_elapsed": 1024561, "key_press": -1, "trial_index": 190}, "uniqueid": "MTK1581:3WEV0KO0ONZYGX6IUC6JL8A7T1WDSL", "dateTime": 1516038657145}, {"current_trial": 191, "trialdata": {"rt": -1, "trial_type": "single-stim", "stimulus": "<p id=\"stim\">5</p>", "internal_node_id": "0.0-141.0-5.0", "time_elapsed": 1025556, "key_press": -1, "trial_index": 191}, "uniqueid": "MTK1581:3WEV0KO0ONZYGX6IUC6JL8A7T1WDSL", "dateTime": 1516038658140}, {"current_trial": 192, "trialdata": {"rt": -1, "trial_type": "single-stim", "stimulus": "<p id=\"stim\">4</p>", "internal_node_id": "0.0-141.0-6.0", "time_elapsed": 1026553, "key_press": -1, "trial_index": 192}, "uniqueid": "MTK1581:3WEV0KO0ONZYGX6IUC6JL8A7T1WDSL", "dateTime": 1516038659137}, {"current_trial": 193, "trialdata": {"rt": -1, "trial_type": "single-stim", "stimulus": "<p id=\"stim\">3</p>", "internal_node_id": "0.0-141.0-7.0", "time_elapsed": 1027552, "key_press": -1, "trial_index": 193}, "uniqueid": "MTK1581:3WEV0KO0ONZYGX6IUC6JL8A7T1WDSL", "dateTime": 1516038660136}, {"current_trial": 194, "trialdata": {"rt": -1, "trial_type": "single-stim", "stimulus": "<p id=\"stim\">2</p>", "internal_node_id": "0.0-141.0-8.0", "time_elapsed": 1028560, "key_press": -1, "trial_index": 194}, "uniqueid": "MTK1581:3WEV0KO0ONZYGX6IUC6JL8A7T1WDSL", "dateTime": 1516038661145}, {"current_trial": 195, "trialdata": {"rt": -1, "trial_type": "single-stim", "stimulus": "<p id=\"stim\">1</p>", "internal_node_id": "0.0-141.0-9.0", "time_elapsed": 1029548, "key_press": -1, "trial_index": 195}, "uniqueid": "MTK1581:3WEV0KO0ONZYGX6IUC6JL8A7T1WDSL", "dateTime": 1516038662132}, {"current_trial": 196, "trialdata": {"rt": -1, "trial_type": "single-stim", "stimulus": "<p id=\"stim\">+</p>", "internal_node_id": "0.0-142.0-0.0", "time_elapsed": 1031049, "key_press": -1, "type": "FIXATION", "trial_index": 196}, "uniqueid": "MTK1581:3WEV0KO0ONZYGX6IUC6JL8A7T1WDSL", "dateTime": 1516038663633}, {"current_trial": 197, "trialdata": {"rt": -1000, "trial_type": "single-audio", "word": "nurse", "stimulus": "/static/audio/wordpool/NURSE.wav", "conditions": [12, 1600, "a", 12000], "internal_node_id": "0.0-143.0", "trial": 5, "time_elapsed": 1033612, "serialpos": 0, "key_press": -1, "wordID": 962, "type": "PRES_AUD", "trial_index": 197}, "uniqueid": "MTK1581:3WEV0KO0ONZYGX6IUC6JL8A7T1WDSL", "dateTime": 1516038666197}, {"current_trial": 198, "trialdata": {"rt": -1000, "trial_type": "single-audio", "word": "flesh", "stimulus": "/static/audio/wordpool/FLESH.wav", "conditions": [12, 1600, "a", 12000], "internal_node_id": "0.0-144.0", "trial": 5, "time_elapsed": 1036156, "serialpos": 1, "key_press": -1, "wordID": 578, "type": "PRES_AUD", "trial_index": 198}, "uniqueid": "MTK1581:3WEV0KO0ONZYGX6IUC6JL8A7T1WDSL", "dateTime": 1516038668741}, {"current_trial": 199, "trialdata": {"rt": -1000, "trial_type": "single-audio", "word": "buggy", "stimulus": "/static/audio/wordpool/BUGGY.wav", "conditions": [12, 1600, "a", 12000], "internal_node_id": "0.0-145.0", "trial": 5, "time_elapsed": 1038816, "serialpos": 2, "key_press": -1, "wordID": 187, "type": "PRES_AUD", "trial_index": 199}, "uniqueid": "MTK1581:3WEV0KO0ONZYGX6IUC6JL8A7T1WDSL", "dateTime": 1516038671400}, {"current_trial": 200, "trialdata": {"rt": -1000, "trial_type": "single-audio", "word": "clothes", "stimulus": "/static/audio/wordpool/CLOTHES.wav", "conditions": [12, 1600, "a", 12000], "internal_node_id": "0.0-146.0", "trial": 5, "time_elapsed": 1041412, "serialpos": 3, "key_press": -1, "wordID": 326, "type": "PRES_AUD", "trial_index": 200}, "uniqueid": "MTK1581:3WEV0KO0ONZYGX6IUC6JL8A7T1WDSL", "dateTime": 1516038673996}, {"current_trial": 201, "trialdata": {"rt": -1000, "trial_type": "single-audio", "word": "army", "stimulus": "/static/audio/wordpool/ARMY.wav", "conditions": [12, 1600, "a", 12000], "internal_node_id": "0.0-147.0", "trial": 5, "time_elapsed": 1044142, "serialpos": 4, "key_press": -1, "wordID": 38, "type": "PRES_AUD", "trial_index": 201}, "uniqueid": "MTK1581:3WEV0KO0ONZYGX6IUC6JL8A7T1WDSL", "dateTime": 1516038676727}, {"current_trial": 202, "trialdata": {"rt": -1000, "trial_type": "single-audio", "word": "lapel", "stimulus": "/static/audio/wordpool/LAPEL.wav", "conditions": [12, 1600, "a", 12000], "internal_node_id": "0.0-148.0", "trial": 5, "time_elapsed": 1046603, "serialpos": 5, "key_press": -1, "wordID": 799, "type": "PRES_AUD", "trial_index": 202}, "uniqueid": "MTK1581:3WEV0KO0ONZYGX6IUC6JL8A7T1WDSL", "dateTime": 1516038679188}, {"current_trial": 203, "trialdata": {"rt": -1000, "trial_type": "single-audio", "word": "stamp", "stimulus": "/static/audio/wordpool/STAMP.wav", "conditions": [12, 1600, "a", 12000], "internal_node_id": "0.0-149.0", "trial": 5, "time_elapsed": 1049298, "serialpos": 6, "key_press": -1, "wordID": 1369, "type": "PRES_AUD", "trial_index": 203}, "uniqueid": "MTK1581:3WEV0KO0ONZYGX6IUC6JL8A7T1WDSL", "dateTime": 1516038681883}, {"current_trial": 204, "trialdata": {"rt": -1000, "trial_type": "single-audio", "word": "patient", "stimulus": "/static/audio/wordpool/PATIENT.wav", "conditions": [12, 1600, "a", 12000], "internal_node_id": "0.0-150.0", "trial": 5, "time_elapsed": 1052030, "serialpos": 7, "key_press": -1, "wordID": 1023, "type": "PRES_AUD", "trial_index": 204}, "uniqueid": "MTK1581:3WEV0KO0ONZYGX6IUC6JL8A7T1WDSL", "dateTime": 1516038684614}, {"current_trial": 205, "trialdata": {"rt": -1000, "trial_type": "single-audio", "word": "milk", "stimulus": "/static/audio/wordpool/MILK.wav", "conditions": [12, 1600, "a", 12000], "internal_node_id": "0.0-151.0", "trial": 5, "time_elapsed": 1054548, "serialpos": 8, "key_press": -1, "wordID": 894, "type": "PRES_AUD", "trial_index": 205}, "uniqueid": "MTK1581:3WEV0KO0ONZYGX6IUC6JL8A7T1WDSL", "dateTime": 1516038687132}, {"current_trial": 206, "trialdata": {"rt": -1000, "trial_type": "single-audio", "word": "hostess", "stimulus": "/static/audio/wordpool/HOSTESS.wav", "conditions": [12, 1600, "a", 12000], "internal_node_id": "0.0-152.0", "trial": 5, "time_elapsed": 1057352, "serialpos": 9, "key_press": -1, "wordID": 722, "type": "PRES_AUD", "trial_index": 206}, "uniqueid": "MTK1581:3WEV0KO0ONZYGX6IUC6JL8A7T1WDSL", "dateTime": 1516038689936}, {"current_trial": 207, "trialdata": {"rt": -1000, "trial_type": "single-audio", "word": "waitress", "stimulus": "/static/audio/wordpool/WAITRESS.wav", "conditions": [12, 1600, "a", 12000], "internal_node_id": "0.0-153.0", "trial": 5, "time_elapsed": 1060000, "serialpos": 10, "key_press": -1, "wordID": 1580, "type": "PRES_AUD", "trial_index": 207}, "uniqueid": "MTK1581:3WEV0KO0ONZYGX6IUC6JL8A7T1WDSL", "dateTime": 1516038692585}, {"current_trial": 208, "trialdata": {"rt": -1000, "trial_type": "single-audio", "word": "gift", "stimulus": "/static/audio/wordpool/GIFT.wav", "conditions": [12, 1600, "a", 12000], "internal_node_id": "0.0-154.0", "trial": 5, "time_elapsed": 1062815, "serialpos": 11, "key_press": -1, "wordID": 634, "type": "PRES_AUD", "trial_index": 208}, "uniqueid": "MTK1581:3WEV0KO0ONZYGX6IUC6JL8A7T1WDSL", "dateTime": 1516038695400}, {"current_trial": 209, "trialdata": {"rt": -1, "trial_type": "single-stim", "stimulus": "", "internal_node_id": "0.0-155.0-0.0", "time_elapsed": 1064030, "key_press": -1, "type": "PRE_RECALL_DELAY", "trial_index": 209}, "uniqueid": "MTK1581:3WEV0KO0ONZYGX6IUC6JL8A7T1WDSL", "dateTime": 1516038696614}, {"current_trial": 210, "trialdata": {"rt": -1000, "trial_type": "single-audio", "stimulus": "/static/audio/400Hz.wav", "internal_node_id": "0.0-156.0", "time_elapsed": 1064529, "key_press": -1, "type": "PRE_RECALL_ALERT", "trial_index": 210}, "uniqueid": "MTK1581:3WEV0KO0ONZYGX6IUC6JL8A7T1WDSL", "dateTime": 1516038697114}, {"current_trial": 211, "trialdata": {"rt": [4423, 6768, 11215, 13167, 20975, 26431, 32095], "recwords": ["gift", "waitress", "nurse", "flash", "army", "stamp", "milk"], "key_times": [3320, 3480, 3808, 3992, 4423, 4760, 4952, 5080, 5328, 5560, 5761, 6040, 6192, 6768, 9817, 10056, 10224, 10448, 10632, 11215, 12096, 12344, 12456, 12632, 12768, 13167, 20056, 20384, 20544, 20776, 20975, 25192, 25416, 25544, 25880, 26152, 26431, 30664, 31000, 31264, 31760, 32095], "trial_type": "free-recall", "conditions": [12, 1600, "a", 12000], "internal_node_id": "0.0-157.0-0.0", "key_presses": [71, 73, 70, 84, 13, 87, 65, 73, 84, 82, 69, 83, 83, 13, 78, 85, 82, 83, 69, 13, 70, 76, 65, 83, 72, 13, 65, 82, 77, 89, 13, 83, 84, 65, 77, 80, 13, 77, 73, 76, 75, 13], "trial": 5, "time_elapsed": 1124547, "type": "FREE_RECALL", "trial_index": 211}, "uniqueid": "MTK1581:3WEV0KO0ONZYGX6IUC6JL8A7T1WDSL", "dateTime": 1516038757138}, {"current_trial": 212, "trialdata": {"rt": 1663, "trial_type": "text", "internal_node_id": "0.0-158.0", "time_elapsed": 1128229, "key_press": 32, "type": "INSTRUCTIONS", "trial_index": 212}, "uniqueid": "MTK1581:3WEV0KO0ONZYGX6IUC6JL8A7T1WDSL", "dateTime": 1516038760813}, {"current_trial": 213, "trialdata": {"rt": [1884, 4180, 5868, 7540, 9612, 11588, 13340, 14996, 16836, 18396, 19972, 23516], "trial_type": "math-distractor", "key_times": [1245, 1669, 1884, 3229, 3821, 4180, 5508, 5733, 5868, 6964, 7332, 7540, 9036, 9501, 9612, 11069, 11485, 11588, 12628, 13189, 13340, 14525, 14868, 14996, 16589, 16716, 16836, 18285, 18396, 19701, 19852, 19972, 22884, 23180, 23516], "responses": ["16", "13", "13", "14", "18", "15", "18", "16", "11", "7", "11", "24"], "num2": [2, 4, 5, 4, 1, 4, 9, 1, 1, 2, 5, 9, 1], "num3": [9, 6, 7, 8, 9, 2, 3, 7, 6, 2, 5, 7, 5], "conditions": [24, 800, "a", 24000], "internal_node_id": "0.0-159.0", "key_presses": [49, 54, 13, 49, 51, 13, 49, 51, 13, 49, 52, 13, 49, 56, 13, 49, 53, 13, 49, 56, 13, 49, 54, 13, 49, 49, 13, 55, 13, 49, 49, 13, 50, 52, 13], "trial": 6, "time_elapsed": 1154244, "type": "DISTRACTOR", "trial_index": 213, "num1": [5, 3, 1, 2, 8, 9, 6, 8, 4, 3, 1, 8, 4]}, "uniqueid": "MTK1581:3WEV0KO0ONZYGX6IUC6JL8A7T1WDSL", "dateTime": 1516038786829}, {"current_trial": 214, "trialdata": {"rt": -1, "trial_type": "single-stim", "stimulus": "<p id=\"stim\">10</p>", "internal_node_id": "0.0-160.0-0.0", "time_elapsed": 1157270, "key_press": -1, "trial_index": 214}, "uniqueid": "MTK1581:3WEV0KO0ONZYGX6IUC6JL8A7T1WDSL", "dateTime": 1516038789855}, {"current_trial": 215, "trialdata": {"rt": -1, "trial_type": "single-stim", "stimulus": "<p id=\"stim\">9</p>", "internal_node_id": "0.0-160.0-1.0", "time_elapsed": 1158271, "key_press": -1, "trial_index": 215}, "uniqueid": "MTK1581:3WEV0KO0ONZYGX6IUC6JL8A7T1WDSL", "dateTime": 1516038790856}, {"current_trial": 216, "trialdata": {"rt": -1, "trial_type": "single-stim", "stimulus": "<p id=\"stim\">8</p>", "internal_node_id": "0.0-160.0-2.0", "time_elapsed": 1159270, "key_press": -1, "trial_index": 216}, "uniqueid": "MTK1581:3WEV0KO0ONZYGX6IUC6JL8A7T1WDSL", "dateTime": 1516038791855}, {"current_trial": 217, "trialdata": {"rt": -1, "trial_type": "single-stim", "stimulus": "<p id=\"stim\">7</p>", "internal_node_id": "0.0-160.0-3.0", "time_elapsed": 1160270, "key_press": -1, "trial_index": 217}, "uniqueid": "MTK1581:3WEV0KO0ONZYGX6IUC6JL8A7T1WDSL", "dateTime": 1516038792854}, {"current_trial": 218, "trialdata": {"rt": -1, "trial_type": "single-stim", "stimulus": "<p id=\"stim\">6</p>", "internal_node_id": "0.0-160.0-4.0", "time_elapsed": 1161279, "key_press": -1, "trial_index": 218}, "uniqueid": "MTK1581:3WEV0KO0ONZYGX6IUC6JL8A7T1WDSL", "dateTime": 1516038793864}, {"current_trial": 219, "trialdata": {"rt": -1, "trial_type": "single-stim", "stimulus": "<p id=\"stim\">5</p>", "internal_node_id": "0.0-160.0-5.0", "time_elapsed": 1162274, "key_press": -1, "trial_index": 219}, "uniqueid": "MTK1581:3WEV0KO0ONZYGX6IUC6JL8A7T1WDSL", "dateTime": 1516038794859}, {"current_trial": 220, "trialdata": {"rt": -1, "trial_type": "single-stim", "stimulus": "<p id=\"stim\">4</p>", "internal_node_id": "0.0-160.0-6.0", "time_elapsed": 1163286, "key_press": -1, "trial_index": 220}, "uniqueid": "MTK1581:3WEV0KO0ONZYGX6IUC6JL8A7T1WDSL", "dateTime": 1516038795870}, {"current_trial": 221, "trialdata": {"rt": -1, "trial_type": "single-stim", "stimulus": "<p id=\"stim\">3</p>", "internal_node_id": "0.0-160.0-7.0", "time_elapsed": 1164279, "key_press": -1, "trial_index": 221}, "uniqueid": "MTK1581:3WEV0KO0ONZYGX6IUC6JL8A7T1WDSL", "dateTime": 1516038796864}, {"current_trial": 222, "trialdata": {"rt": -1, "trial_type": "single-stim", "stimulus": "<p id=\"stim\">2</p>", "internal_node_id": "0.0-160.0-8.0", "time_elapsed": 1165265, "key_press": -1, "trial_index": 222}, "uniqueid": "MTK1581:3WEV0KO0ONZYGX6IUC6JL8A7T1WDSL", "dateTime": 1516038797849}, {"current_trial": 223, "trialdata": {"rt": -1, "trial_type": "single-stim", "stimulus": "<p id=\"stim\">1</p>", "internal_node_id": "0.0-160.0-9.0", "time_elapsed": 1166269, "key_press": -1, "trial_index": 223}, "uniqueid": "MTK1581:3WEV0KO0ONZYGX6IUC6JL8A7T1WDSL", "dateTime": 1516038798854}, {"current_trial": 224, "trialdata": {"rt": -1, "trial_type": "single-stim", "stimulus": "<p id=\"stim\">+</p>", "internal_node_id": "0.0-161.0-0.0", "time_elapsed": 1167800, "key_press": -1, "type": "FIXATION", "trial_index": 224}, "uniqueid": "MTK1581:3WEV0KO0ONZYGX6IUC6JL8A7T1WDSL", "dateTime": 1516038800384}, {"current_trial": 225, "trialdata": {"rt": -1000, "trial_type": "single-audio", "word": "cottage", "stimulus": "/static/audio/wordpool/COTTAGE.wav", "conditions": [24, 800, "a", 24000], "internal_node_id": "0.0-162.0", "trial": 6, "time_elapsed": 1169601, "serialpos": 0, "key_press": -1, "wordID": 383, "type": "PRES_AUD", "trial_index": 225}, "uniqueid": "MTK1581:3WEV0KO0ONZYGX6IUC6JL8A7T1WDSL", "dateTime": 1516038802185}, {"current_trial": 226, "trialdata": {"rt": -1000, "trial_type": "single-audio", "word": "staple", "stimulus": "/static/audio/wordpool/STAPLE.wav", "conditions": [24, 800, "a", 24000], "internal_node_id": "0.0-163.0", "trial": 6, "time_elapsed": 1171558, "serialpos": 1, "key_press": -1, "wordID": 1370, "type": "PRES_AUD", "trial_index": 226}, "uniqueid": "MTK1581:3WEV0KO0ONZYGX6IUC6JL8A7T1WDSL", "dateTime": 1516038804142}, {"current_trial": 227, "trialdata": {"rt": -1000, "trial_type": "single-audio", "word": "portrait", "stimulus": "/static/audio/wordpool/PORTRAIT.wav", "conditions": [24, 800, "a", 24000], "internal_node_id": "0.0-164.0", "trial": 6, "time_elapsed": 1173244, "serialpos": 2, "key_press": -1, "wordID": 1110, "type": "PRES_AUD", "trial_index": 227}, "uniqueid": "MTK1581:3WEV0KO0ONZYGX6IUC6JL8A7T1WDSL", "dateTime": 1516038805828}, {"current_trial": 228, "trialdata": {"rt": -1000, "trial_type": "single-audio", "word": "picture", "stimulus": "/static/audio/wordpool/PICTURE.wav", "conditions": [24, 800, "a", 24000], "internal_node_id": "0.0-165.0", "trial": 6, "time_elapsed": 1175175, "serialpos": 3, "key_press": -1, "wordID": 1060, "type": "PRES_AUD", "trial_index": 228}, "uniqueid": "MTK1581:3WEV0KO0ONZYGX6IUC6JL8A7T1WDSL", "dateTime": 1516038807759}, {"current_trial": 229, "trialdata": {"rt": -1000, "trial_type": "single-audio", "word": "ketchup", "stimulus": "/static/audio/wordpool/KETCHUP.wav", "conditions": [24, 800, "a", 24000], "internal_node_id": "0.0-166.0", "trial": 6, "time_elapsed": 1176976, "serialpos": 4, "key_press": -1, "wordID": 770, "type": "PRES_AUD", "trial_index": 229}, "uniqueid": "MTK1581:3WEV0KO0ONZYGX6IUC6JL8A7T1WDSL", "dateTime": 1516038809560}, {"current_trial": 230, "trialdata": {"rt": -1000, "trial_type": "single-audio", "word": "flask", "stimulus": "/static/audio/wordpool/FLASK.wav", "conditions": [24, 800, "a", 24000], "internal_node_id": "0.0-167.0", "trial": 6, "time_elapsed": 1178795, "serialpos": 5, "key_press": -1, "wordID": 575, "type": "PRES_AUD", "trial_index": 230}, "uniqueid": "MTK1581:3WEV0KO0ONZYGX6IUC6JL8A7T1WDSL", "dateTime": 1516038811379}, {"current_trial": 231, "trialdata": {"rt": -1000, "trial_type": "single-audio", "word": "parrot", "stimulus": "/static/audio/wordpool/PARROT.wav", "conditions": [24, 800, "a", 24000], "internal_node_id": "0.0-168.0", "trial": 6, "time_elapsed": 1180482, "serialpos": 6, "key_press": -1, "wordID": 1014, "type": "PRES_AUD", "trial_index": 231}, "uniqueid": "MTK1581:3WEV0KO0ONZYGX6IUC6JL8A7T1WDSL", "dateTime": 1516038813066}, {"current_trial": 232, "trialdata": {"rt": -1000, "trial_type": "single-audio", "word": "necklace", "stimulus": "/static/audio/wordpool/NECKLACE.wav", "conditions": [24, 800, "a", 24000], "internal_node_id": "0.0-169.0", "trial": 6, "time_elapsed": 1182256, "serialpos": 7, "key_press": -1, "wordID": 939, "type": "PRES_AUD", "trial_index": 232}, "uniqueid": "MTK1581:3WEV0KO0ONZYGX6IUC6JL8A7T1WDSL", "dateTime": 1516038814841}, {"current_trial": 233, "trialdata": {"rt": -1000, "trial_type": "single-audio", "word": "razor", "stimulus": "/static/audio/wordpool/RAZOR.wav", "conditions": [24, 800, "a", 24000], "internal_node_id": "0.0-170.0", "trial": 6, "time_elapsed": 1183940, "serialpos": 8, "key_press": -1, "wordID": 1170, "type": "PRES_AUD", "trial_index": 233}, "uniqueid": "MTK1581:3WEV0KO0ONZYGX6IUC6JL8A7T1WDSL", "dateTime": 1516038816525}, {"current_trial": 234, "trialdata": {"rt": -1000, "trial_type": "single-audio", "word": "beaker", "stimulus": "/static/audio/wordpool/BEAKER.wav", "conditions": [24, 800, "a", 24000], "internal_node_id": "0.0-171.0", "trial": 6, "time_elapsed": 1185614, "serialpos": 9, "key_press": -1, "wordID": 103, "type": "PRES_AUD", "trial_index": 234}, "uniqueid": "MTK1581:3WEV0KO0ONZYGX6IUC6JL8A7T1WDSL", "dateTime": 1516038818199}, {"current_trial": 235, "trialdata": {"rt": -1000, "trial_type": "single-audio", "word": "drug", "stimulus": "/static/audio/wordpool/DRUG.wav", "conditions": [24, 800, "a", 24000], "internal_node_id": "0.0-172.0", "trial": 6, "time_elapsed": 1187275, "serialpos": 10, "key_press": -1, "wordID": 500, "type": "PRES_AUD", "trial_index": 235}, "uniqueid": "MTK1581:3WEV0KO0ONZYGX6IUC6JL8A7T1WDSL", "dateTime": 1516038819859}, {"current_trial": 236, "trialdata": {"rt": -1000, "trial_type": "single-audio", "word": "fruit", "stimulus": "/static/audio/wordpool/FRUIT.wav", "conditions": [24, 800, "a", 24000], "internal_node_id": "0.0-173.0", "trial": 6, "time_elapsed": 1189044, "serialpos": 11, "key_press": -1, "wordID": 609, "type": "PRES_AUD", "trial_index": 236}, "uniqueid": "MTK1581:3WEV0KO0ONZYGX6IUC6JL8A7T1WDSL", "dateTime": 1516038821628}, {"current_trial": 237, "trialdata": {"rt": -1000, "trial_type": "single-audio", "word": "hiker", "stimulus": "/static/audio/wordpool/HIKER.wav", "conditions": [24, 800, "a", 24000], "internal_node_id": "0.0-174.0", "trial": 6, "time_elapsed": 1190675, "serialpos": 12, "key_press": -1, "wordID": 707, "type": "PRES_AUD", "trial_index": 237}, "uniqueid": "MTK1581:3WEV0KO0ONZYGX6IUC6JL8A7T1WDSL", "dateTime": 1516038823259}, {"current_trial": 238, "trialdata": {"rt": -1000, "trial_type": "single-audio", "word": "donkey", "stimulus": "/static/audio/wordpool/DONKEY.wav", "conditions": [24, 800, "a", 24000], "internal_node_id": "0.0-175.0", "trial": 6, "time_elapsed": 1192608, "serialpos": 13, "key_press": -1, "wordID": 483, "type": "PRES_AUD", "trial_index": 238}, "uniqueid": "MTK1581:3WEV0KO0ONZYGX6IUC6JL8A7T1WDSL", "dateTime": 1516038825193}, {"current_trial": 239, "trialdata": {"rt": -1000, "trial_type": "single-audio", "word": "velvet", "stimulus": "/static/audio/wordpool/VELVET.wav", "conditions": [24, 800, "a", 24000], "internal_node_id": "0.0-176.0", "trial": 6, "time_elapsed": 1194574, "serialpos": 14, "key_press": -1, "wordID": 1554, "type": "PRES_AUD", "trial_index": 239}, "uniqueid": "MTK1581:3WEV0KO0ONZYGX6IUC6JL8A7T1WDSL", "dateTime": 1516038827159}, {"current_trial": 240, "trialdata": {"rt": -1000, "trial_type": "single-audio", "word": "tombstone", "stimulus": "/static/audio/wordpool/TOMBSTONE.wav", "conditions": [24, 800, "a", 24000], "internal_node_id": "0.0-177.0", "trial": 6, "time_elapsed": 1196257, "serialpos": 15, "key_press": -1, "wordID": 1477, "type": "PRES_AUD", "trial_index": 240}, "uniqueid": "MTK1581:3WEV0KO0ONZYGX6IUC6JL8A7T1WDSL", "dateTime": 1516038828842}, {"current_trial": 241, "trialdata": {"rt": -1000, "trial_type": "single-audio", "word": "casket", "stimulus": "/static/audio/wordpool/CASKET.wav", "conditions": [24, 800, "a", 24000], "internal_node_id": "0.0-178.0", "trial": 6, "time_elapsed": 1198154, "serialpos": 16, "key_press": -1, "wordID": 254, "type": "PRES_AUD", "trial_index": 241}, "uniqueid": "MTK1581:3WEV0KO0ONZYGX6IUC6JL8A7T1WDSL", "dateTime": 1516038830738}, {"current_trial": 242, "trialdata": {"rt": -1000, "trial_type": "single-audio", "word": "cloud", "stimulus": "/static/audio/wordpool/CLOUD.wav", "conditions": [24, 800, "a", 24000], "internal_node_id": "0.0-179.0", "trial": 6, "time_elapsed": 1200171, "serialpos": 17, "key_press": -1, "wordID": 327, "type": "PRES_AUD", "trial_index": 242}, "uniqueid": "MTK1581:3WEV0KO0ONZYGX6