{"assignmentId": "3WI0P0II62ZMFI65FN6EVY5B7RJDRN", "workerId": "MTK1395", "questiondata": {"origin": "United States", "strat-rehearsal": "0", "marital": "Single", "education": "Some college", "ethnicity": "Not Hispanic", "color_depth": 24, "distracted": "No", "wrote-notes": "No", "strat-other": "I just read them aloud as they went by.", "screen_width": 1920, "avail_screen_width": 1920, "avail_screen_height": 1040, "strat-image": "0", "language": "English", "gender": "Male", "age": "20", "gender_other": "", "race": ["White"], "strat-categorize": "0", "pixel_depth": 24, "strat-spatial": "0", "strat-story": "0", "race_other": "", "screen_height": 1080}, "bonus": 0, "hitId": "30ZKOOGW2WDY1M6I7HVVAMJ81QOA1Q", "counterbalance": 1014, "useragent": "Mozilla/5.0 (Windows NT 10.0; Win64; x64) AppleWebKit/537.36 (KHTML, like Gecko) Chrome/63.0.3239.132 Safari/537.36", "eventdata": [{"eventtype": "initialized", "interval": 0, "value": null, "timestamp": 1515870832443}, {"eventtype": "window_resize", "interval": 0, "value": [1920, 989], "timestamp": 1515870832443}, {"eventtype": "focus", "interval": 37507, "value": "off", "timestamp": 1515870869950}, {"eventtype": "focus", "interval": 1889, "value": "on", "timestamp": 1515870871839}, {"eventtype": "focus", "interval": 0, "value": "on", "timestamp": 1515870871839}, {"eventtype": "focus", "interval": 37586, "value": "off", "timestamp": 1515870909425}, {"eventtype": "focus", "interval": 74, "value": "on", "timestamp": 1515870909499}], "data": [{"current_trial": 0, "trialdata": {"rt": 3142, "trial_type": "text", "internal_node_id": "0.0-0.0", "time_elapsed": 3143, "key_press": 13, "type": "INSTRUCTIONS", "trial_index": 0}, "uniqueid": "MTK1395:3WI0P0II62ZMFI65FN6EVY5B7RJDRN", "dateTime": 1515870835939}, {"current_trial": 1, "trialdata": {"rt": 15357, "trial_type": "text", "internal_node_id": "0.0-1.0", "time_elapsed": 18501, "key_press": 175, "type": "INSTRUCTIONS", "trial_index": 1}, "uniqueid": "MTK1395:3WI0P0II62ZMFI65FN6EVY5B7RJDRN", "dateTime": 1515870851297}, {"current_trial": 2, "trialdata": {"rt": [6758], "trial_type": "audio-test", "responses": ["ocean"], "internal_node_id": "0.0-2.0", "time_elapsed": 25267, "type": "AUDIO_TEST", "trial_index": 2}, "uniqueid": "MTK1395:3WI0P0II62ZMFI65FN6EVY5B7RJDRN", "dateTime": 1515870858064}, {"current_trial": 3, "trialdata": {"rt": [5321], "trial_type": "audio-test", "responses": ["crystal"], "internal_node_id": "0.0-3.0", "time_elapsed": 30593, "type": "AUDIO_TEST", "trial_index": 3}, "uniqueid": "MTK1395:3WI0P0II62ZMFI65FN6EVY5B7RJDRN", "dateTime": 1515870863389}, {"current_trial": 4, "trialdata": {"rt": [4696], "trial_type": "audio-test", "responses": ["spice"], "internal_node_id": "0.0-4.0", "time_elapsed": 35292, "type": "AUDIO_TEST", "trial_index": 4}, "uniqueid": "MTK1395:3WI0P0II62ZMFI65FN6EVY5B7RJDRN", "dateTime": 1515870868088}, {"current_trial": 5, "trialdata": {"rt": 15801, "trial_type": "survey-text", "responses": "{\"Q0\":\"11:30\",\"Q1\":\"10\",\"Q2\":\"4\"}", "internal_node_id": "0.0-5.0", "time_elapsed": 51845, "type": "SLEEP_SURVEY", "trial_index": 5}, "uniqueid": "MTK1395:3WI0P0II62ZMFI65FN6EVY5B7RJDRN", "dateTime": 1515870884641}, {"current_trial": 6, "trialdata": {"rt": 32182, "trial_type": "text", "internal_node_id": "0.0-6.0", "time_elapsed": 85028, "key_press": 13, "type": "INSTRUCTIONS", "trial_index": 6}, "uniqueid": "MTK1395:3WI0P0II62ZMFI65FN6EVY5B7RJDRN", "dateTime": 1515870917824}, {"current_trial": 7, "trialdata": {"rt": 7226, "trial_type": "text", "internal_node_id": "0.0-7.0", "time_elapsed": 92755, "key_press": 13, "type": "INSTRUCTIONS", "trial_index": 7}, "uniqueid": "MTK1395:3WI0P0II62ZMFI65FN6EVY5B7RJDRN", "dateTime": 1515870925551}, {"current_trial": 8, "trialdata": {"rt": 3184, "trial_type": "text", "internal_node_id": "0.0-8.0", "time_elapsed": 96441, "key_press": 13, "type": "INSTRUCTIONS", "trial_index": 8}, "uniqueid": "MTK1395:3WI0P0II62ZMFI65FN6EVY5B7RJDRN", "dateTime": 1515870929237}, {"current_trial": 9, "trialdata": {"rt": [4190, 6589, 10656, 13542, 15291, 16831], "trial_type": "math-distractor", "key_times": [3850, 3950, 4190, 6287, 6388, 6589, 10233, 10370, 10656, 13255, 13542, 14923, 15065, 15291, 16571, 16831], "responses": ["10", "19", "24", "9", "19", "6"], "num2": [1, 3, 6, 3, 7, 4, 6], "num3": [2, 9, 8, 1, 9, 1, 5], "conditions": [18, 1200, "v", 18000], "internal_node_id": "0.0-9.0", "key_presses": [49, 48, 13, 49, 57, 13, 98, 100, 13, 105, 13, 97, 105, 13, 102, 13], "trial": 0, "time_elapsed": 115445, "type": "DISTRACTOR", "trial_index": 9, "num1": [7, 7, 8, 5, 3, 1, 1]}, "uniqueid": "MTK1395:3WI0P0II62ZMFI65FN6EVY5B7RJDRN", "dateTime": 1515870948241}, {"current_trial": 10, "trialdata": {"rt": -1, "trial_type": "single-stim", "stimulus": "<p id=\"stim\">10</p>", "internal_node_id": "0.0-10.0-0.0", "time_elapsed": 118447, "key_press": -1, "trial_index": 10}, "uniqueid": "MTK1395:3WI0P0II62ZMFI65FN6EVY5B7RJDRN", "dateTime": 1515870951243}, {"current_trial": 11, "trialdata": {"rt": -1, "trial_type": "single-stim", "stimulus": "<p id=\"stim\">9</p>", "internal_node_id": "0.0-10.0-1.0", "time_elapsed": 119449, "key_press": -1, "trial_index": 11}, "uniqueid": "MTK1395:3WI0P0II62ZMFI65FN6EVY5B7RJDRN", "dateTime": 1515870952245}, {"current_trial": 12, "trialdata": {"rt": -1, "trial_type": "single-stim", "stimulus": "<p id=\"stim\">8</p>", "internal_node_id": "0.0-10.0-2.0", "time_elapsed": 120450, "key_press": -1, "trial_index": 12}, "uniqueid": "MTK1395:3WI0P0II62ZMFI65FN6EVY5B7RJDRN", "dateTime": 1515870953246}, {"current_trial": 13, "trialdata": {"rt": -1, "trial_type": "single-stim", "stimulus": "<p id=\"stim\">7</p>", "internal_node_id": "0.0-10.0-3.0", "time_elapsed": 121451, "key_press": -1, "trial_index": 13}, "uniqueid": "MTK1395:3WI0P0II62ZMFI65FN6EVY5B7RJDRN", "dateTime": 1515870954247}, {"current_trial": 14, "trialdata": {"rt": -1, "trial_type": "single-stim", "stimulus": "<p id=\"stim\">6</p>", "internal_node_id": "0.0-10.0-4.0", "time_elapsed": 122452, "key_press": -1, "trial_index": 14}, "uniqueid": "MTK1395:3WI0P0II62ZMFI65FN6EVY5B7RJDRN", "dateTime": 1515870955248}, {"current_trial": 15, "trialdata": {"rt": 228, "trial_type": "single-stim", "stimulus": "<p id=\"stim\">5</p>", "internal_node_id": "0.0-10.0-5.0", "time_elapsed": 123453, "key_press": 175, "trial_index": 15}, "uniqueid": "MTK1395:3WI0P0II62ZMFI65FN6EVY5B7RJDRN", "dateTime": 1515870956249}, {"current_trial": 16, "trialdata": {"rt": -1, "trial_type": "single-stim", "stimulus": "<p id=\"stim\">4</p>", "internal_node_id": "0.0-10.0-6.0", "time_elapsed": 124454, "key_press": -1, "trial_index": 16}, "uniqueid": "MTK1395:3WI0P0II62ZMFI65FN6EVY5B7RJDRN", "dateTime": 1515870957250}, {"current_trial": 17, "trialdata": {"rt": -1, "trial_type": "single-stim", "stimulus": "<p id=\"stim\">3</p>", "internal_node_id": "0.0-10.0-7.0", "time_elapsed": 125454, "key_press": -1, "trial_index": 17}, "uniqueid": "MTK1395:3WI0P0II62ZMFI65FN6EVY5B7RJDRN", "dateTime": 1515870958250}, {"current_trial": 18, "trialdata": {"rt": -1, "trial_type": "single-stim", "stimulus": "<p id=\"stim\">2</p>", "internal_node_id": "0.0-10.0-8.0", "time_elapsed": 126455, "key_press": -1, "trial_index": 18}, "uniqueid": "MTK1395:3WI0P0II62ZMFI65FN6EVY5B7RJDRN", "dateTime": 1515870959251}, {"current_trial": 19, "trialdata": {"rt": -1, "trial_type": "single-stim", "stimulus": "<p id=\"stim\">1</p>", "internal_node_id": "0.0-10.0-9.0", "time_elapsed": 127457, "key_press": -1, "trial_index": 19}, "uniqueid": "MTK1395:3WI0P0II62ZMFI65FN6EVY5B7RJDRN", "dateTime": 1515870960253}, {"current_trial": 20, "trialdata": {"rt": -1, "trial_type": "single-stim", "stimulus": "<p id=\"stim\">+</p>", "internal_node_id": "0.0-11.0-0.0", "time_elapsed": 128958, "key_press": -1, "type": "FIXATION", "trial_index": 20}, "uniqueid": "MTK1395:3WI0P0II62ZMFI65FN6EVY5B7RJDRN", "dateTime": 1515870961754}, {"current_trial": 21, "trialdata": {"rt": -1, "trial_type": "single-stim", "word": "france", "stimulus": "<p id=\"stim\">FRANCE</p>", "conditions": [18, 1200, "v", 18000], "internal_node_id": "0.0-12.0", "trial": 0, "time_elapsed": 130159, "serialpos": 0, "key_press": -1, "wordID": 600, "type": "PRES_VIS", "trial_index": 21}, "uniqueid": "MTK1395:3WI0P0II62ZMFI65FN6EVY5B7RJDRN", "dateTime": 1515870962955}, {"current_trial": 22, "trialdata": {"rt": -1, "trial_type": "single-stim", "word": "friend", "stimulus": "<p id=\"stim\">FRIEND</p>", "conditions": [18, 1200, "v", 18000], "internal_node_id": "0.0-13.0", "trial": 0, "time_elapsed": 132315, "serialpos": 1, "key_press": -1, "wordID": 605, "type": "PRES_VIS", "trial_index": 22}, "uniqueid": "MTK1395:3WI0P0II62ZMFI65FN6EVY5B7RJDRN", "dateTime": 1515870965111}, {"current_trial": 23, "trialdata": {"rt": -1, "trial_type": "single-stim", "word": "sibling", "stimulus": "<p id=\"stim\">SIBLING</p>", "conditions": [18, 1200, "v", 18000], "internal_node_id": "0.0-14.0", "trial": 0, "time_elapsed": 134481, "serialpos": 2, "key_press": -1, "wordID": 1300, "type": "PRES_VIS", "trial_index": 23}, "uniqueid": "MTK1395:3WI0P0II62ZMFI65FN6EVY5B7RJDRN", "dateTime": 1515870967277}, {"current_trial": 24, "trialdata": {"rt": -1, "trial_type": "single-stim", "word": "rebel", "stimulus": "<p id=\"stim\">REBEL</p>", "conditions": [18, 1200, "v", 18000], "internal_node_id": "0.0-15.0", "trial": 0, "time_elapsed": 136526, "serialpos": 3, "key_press": -1, "wordID": 1171, "type": "PRES_VIS", "trial_index": 24}, "uniqueid": "MTK1395:3WI0P0II62ZMFI65FN6EVY5B7RJDRN", "dateTime": 1515870969322}, {"current_trial": 25, "trialdata": {"rt": -1, "trial_type": "single-stim", "word": "cocoon", "stimulus": "<p id=\"stim\">COCOON</p>", "conditions": [18, 1200, "v", 18000], "internal_node_id": "0.0-16.0", "trial": 0, "time_elapsed": 138538, "serialpos": 4, "key_press": -1, "wordID": 338, "type": "PRES_VIS", "trial_index": 25}, "uniqueid": "MTK1395:3WI0P0II62ZMFI65FN6EVY5B7RJDRN", "dateTime": 1515870971334}, {"current_trial": 26, "trialdata": {"rt": -1, "trial_type": "single-stim", "word": "garbage", "stimulus": "<p id=\"stim\">GARBAGE</p>", "conditions": [18, 1200, "v", 18000], "internal_node_id": "0.0-17.0", "trial": 0, "time_elapsed": 140680, "serialpos": 5, "key_press": -1, "wordID": 621, "type": "PRES_VIS", "trial_index": 26}, "uniqueid": "MTK1395:3WI0P0II62ZMFI65FN6EVY5B7RJDRN", "dateTime": 1515870973476}, {"current_trial": 27, "trialdata": {"rt": -1, "trial_type": "single-stim", "word": "snake", "stimulus": "<p id=\"stim\">SNAKE</p>", "conditions": [18, 1200, "v", 18000], "internal_node_id": "0.0-18.0", "trial": 0, "time_elapsed": 142744, "serialpos": 6, "key_press": -1, "wordID": 1332, "type": "PRES_VIS", "trial_index": 27}, "uniqueid": "MTK1395:3WI0P0II62ZMFI65FN6EVY5B7RJDRN", "dateTime": 1515870975540}, {"current_trial": 28, "trialdata": {"rt": -1, "trial_type": "single-stim", "word": "office", "stimulus": "<p id=\"stim\">OFFICE</p>", "conditions": [18, 1200, "v", 18000], "internal_node_id": "0.0-19.0", "trial": 0, "time_elapsed": 145047, "serialpos": 7, "key_press": -1, "wordID": 971, "type": "PRES_VIS", "trial_index": 28}, "uniqueid": "MTK1395:3WI0P0II62ZMFI65FN6EVY5B7RJDRN", "dateTime": 1515870977843}, {"current_trial": 29, "trialdata": {"rt": -1, "trial_type": "single-stim", "word": "harp", "stimulus": "<p id=\"stim\">HARP</p>", "conditions": [18, 1200, "v", 18000], "internal_node_id": "0.0-20.0", "trial": 0, "time_elapsed": 147338, "serialpos": 8, "key_press": -1, "wordID": 688, "type": "PRES_VIS", "trial_index": 29}, "uniqueid": "MTK1395:3WI0P0II62ZMFI65FN6EVY5B7RJDRN", "dateTime": 1515870980134}, {"current_trial": 30, "trialdata": {"rt": -1, "trial_type": "single-stim", "word": "passage", "stimulus": "<p id=\"stim\">PASSAGE</p>", "conditions": [18, 1200, "v", 18000], "internal_node_id": "0.0-21.0", "trial": 0, "time_elapsed": 149731, "serialpos": 9, "key_press": -1, "wordID": 1018, "type": "PRES_VIS", "trial_index": 30}, "uniqueid": "MTK1395:3WI0P0II62ZMFI65FN6EVY5B7RJDRN", "dateTime": 1515870982527}, {"current_trial": 31, "trialdata": {"rt": -1, "trial_type": "single-stim", "word": "spider", "stimulus": "<p id=\"stim\">SPIDER</p>", "conditions": [18, 1200, "v", 18000], "internal_node_id": "0.0-22.0", "trial": 0, "time_elapsed": 152066, "serialpos": 10, "key_press": -1, "wordID": 1350, "type": "PRES_VIS", "trial_index": 31}, "uniqueid": "MTK1395:3WI0P0II62ZMFI65FN6EVY5B7RJDRN", "dateTime": 1515870984862}, {"current_trial": 32, "trialdata": {"rt": -1, "trial_type": "single-stim", "word": "receipt", "stimulus": "<p id=\"stim\">RECEIPT</p>", "conditions": [18, 1200, "v", 18000], "internal_node_id": "0.0-23.0", "trial": 0, "time_elapsed": 154444, "serialpos": 11, "key_press": -1, "wordID": 1172, "type": "PRES_VIS", "trial_index": 32}, "uniqueid": "MTK1395:3WI0P0II62ZMFI65FN6EVY5B7RJDRN", "dateTime": 1515870987240}, {"current_trial": 33, "trialdata": {"rt": -1, "trial_type": "single-stim", "word": "spool", "stimulus": "<p id=\"stim\">SPOOL</p>", "conditions": [18, 1200, "v", 18000], "internal_node_id": "0.0-24.0", "trial": 0, "time_elapsed": 156517, "serialpos": 12, "key_press": -1, "wordID": 1355, "type": "PRES_VIS", "trial_index": 33}, "uniqueid": "MTK1395:3WI0P0II62ZMFI65FN6EVY5B7RJDRN", "dateTime": 1515870989313}, {"current_trial": 34, "trialdata": {"rt": -1, "trial_type": "single-stim", "word": "twister", "stimulus": "<p id=\"stim\">TWISTER</p>", "conditions": [18, 1200, "v", 18000], "internal_node_id": "0.0-25.0", "trial": 0, "time_elapsed": 158631, "serialpos": 13, "key_press": -1, "wordID": 1529, "type": "PRES_VIS", "trial_index": 34}, "uniqueid": "MTK1395:3WI0P0II62ZMFI65FN6EVY5B7RJDRN", "dateTime": 1515870991427}, {"current_trial": 35, "trialdata": {"rt": -1, "trial_type": "single-stim", "word": "piston", "stimulus": "<p id=\"stim\">PISTON</p>", "conditions": [18, 1200, "v", 18000], "internal_node_id": "0.0-26.0", "trial": 0, "time_elapsed": 160991, "serialpos": 14, "key_press": -1, "wordID": 1075, "type": "PRES_VIS", "trial_index": 35}, "uniqueid": "MTK1395:3WI0P0II62ZMFI65FN6EVY5B7RJDRN", "dateTime": 1515870993787}, {"current_trial": 36, "trialdata": {"rt": -1, "trial_type": "single-stim", "word": "viking", "stimulus": "<p id=\"stim\">VIKING</p>", "conditions": [18, 1200, "v", 18000], "internal_node_id": "0.0-27.0", "trial": 0, "time_elapsed": 163351, "serialpos": 15, "key_press": -1, "wordID": 1564, "type": "PRES_VIS", "trial_index": 36}, "uniqueid": "MTK1395:3WI0P0II62ZMFI65FN6EVY5B7RJDRN", "dateTime": 1515870996148}, {"current_trial": 37, "trialdata": {"rt": -1, "trial_type": "single-stim", "word": "glass", "stimulus": "<p id=\"stim\">GLASS</p>", "conditions": [18, 1200, "v", 18000], "internal_node_id": "0.0-28.0", "trial": 0, "time_elapsed": 165526, "serialpos": 16, "key_press": -1, "wordID": 638, "type": "PRES_VIS", "trial_index": 37}, "uniqueid": "MTK1395:3WI0P0II62ZMFI65FN6EVY5B7RJDRN", "dateTime": 1515870998322}, {"current_trial": 38, "trialdata": {"rt": -1, "trial_type": "single-stim", "word": "forest", "stimulus": "<p id=\"stim\">FOREST</p>", "conditions": [18, 1200, "v", 18000], "internal_node_id": "0.0-29.0", "trial": 0, "time_elapsed": 167716, "serialpos": 17, "key_press": -1, "wordID": 592, "type": "PRES_VIS", "trial_index": 38}, "uniqueid": "MTK1395:3WI0P0II62ZMFI65FN6EVY5B7RJDRN", "dateTime": 1515871000512}, {"current_trial": 39, "trialdata": {"rt": -1, "trial_type": "single-stim", "stimulus": "", "internal_node_id": "0.0-30.0-0.0", "time_elapsed": 169934, "key_press": -1, "type": "PRE_RECALL_DELAY", "trial_index": 39}, "uniqueid": "MTK1395:3WI0P0II62ZMFI65FN6EVY5B7RJDRN", "dateTime": 1515871002730}, {"current_trial": 40, "trialdata": {"rt": -1000, "trial_type": "single-audio", "stimulus": "/static/audio/400Hz.wav", "internal_node_id": "0.0-31.0", "time_elapsed": 170436, "key_press": -1, "type": "PRE_RECALL_ALERT", "trial_index": 40}, "uniqueid": "MTK1395:3WI0P0II62ZMFI65FN6EVY5B7RJDRN", "dateTime": 1515871003232}, {"current_trial": 41, "trialdata": {"rt": [3738, 7828, 10036, 11995, 19586, 21364, 22776, 28783], "recwords": ["france", "friend", "garbage", "racoon", "spool", "spider", "", "tool"], "key_times": [1629, 1801, 2053, 2369, 2536, 2621, 2749, 2868, 3005, 3086, 3738, 6504, 6742, 6855, 6972, 7072, 7239, 7828, 8640, 8801, 8991, 9426, 9483, 9651, 9767, 10036, 10501, 10592, 10786, 10901, 11072, 11204, 11995, 17988, 18447, 18662, 18856, 19071, 19586, 20096, 20249, 20372, 20673, 20887, 20968, 21364, 22776, 27841, 27929, 28118, 28455, 28783], "trial_type": "free-recall", "conditions": [18, 1200, "v", 18000], "internal_node_id": "0.0-32.0-0.0", "key_presses": [70, 65, 67, 8, 8, 82, 65, 78, 67, 69, 186, 70, 82, 73, 69, 78, 68, 186, 71, 65, 82, 66, 65, 71, 69, 186, 82, 65, 67, 79, 79, 78, 186, 83, 80, 79, 79, 76, 186, 83, 80, 73, 68, 69, 82, 186, 13, 84, 79, 79, 76, 186], "trial": 0, "time_elapsed": 230438, "type": "FREE_RECALL", "trial_index": 41}, "uniqueid": "MTK1395:3WI0P0II62ZMFI65FN6EVY5B7RJDRN", "dateTime": 1515871063235}, {"current_trial": 42, "trialdata": {"rt": 1364, "trial_type": "text", "internal_node_id": "0.0-33.0", "time_elapsed": 233804, "key_press": 13, "type": "INSTRUCTIONS", "trial_index": 42}, "uniqueid": "MTK1395:3WI0P0II62ZMFI65FN6EVY5B7RJDRN", "dateTime": 1515871066600}, {"current_trial": 43, "trialdata": {"rt": [3076, 5713, 7138, 9120, 10970, 12309, 14876, 16281], "trial_type": "math-distractor", "key_times": [2738, 2839, 3076, 5261, 5473, 5713, 6958, 7138, 8569, 8966, 9120, 10515, 10782, 10970, 12104, 12309, 14055, 14608, 14876, 16056, 16281, 17772], "responses": ["15", "13", "8", "18", "10", "5", "13", "6"], "num2": [9, 9, 1, 4, 1, 1, 5, 1, 7], "num3": [4, 1, 6, 8, 4, 2, 2, 1, 3], "conditions": [18, 1200, "v", 18000], "internal_node_id": "0.0-34.0", "key_presses": [97, 101, 13, 97, 99, 13, 104, 13, 97, 104, 13, 97, 96, 13, 101, 13, 97, 99, 13, 102, 13, 97], "trial": 1, "time_elapsed": 253806, "type": "DISTRACTOR", "trial_index": 43, "num1": [2, 3, 1, 6, 5, 2, 6, 4, 7]}, "uniqueid": "MTK1395:3WI0P0II62ZMFI65FN6EVY5B7RJDRN", "dateTime": 1515871086603}, {"current_trial": 44, "trialdata": {"rt": -1, "trial_type": "single-stim", "stimulus": "<p id=\"stim\">10</p>", "internal_node_id": "0.0-35.0-0.0", "time_elapsed": 256808, "key_press": -1, "trial_index": 44}, "uniqueid": "MTK1395:3WI0P0II62ZMFI65FN6EVY5B7RJDRN", "dateTime": 1515871089604}, {"current_trial": 45, "trialdata": {"rt": -1, "trial_type": "single-stim", "stimulus": "<p id=\"stim\">9</p>", "internal_node_id": "0.0-35.0-1.0", "time_elapsed": 257810, "key_press": -1, "trial_index": 45}, "uniqueid": "MTK1395:3WI0P0II62ZMFI65FN6EVY5B7RJDRN", "dateTime": 1515871090606}, {"current_trial": 46, "trialdata": {"rt": -1, "trial_type": "single-stim", "stimulus": "<p id=\"stim\">8</p>", "internal_node_id": "0.0-35.0-2.0", "time_elapsed": 258811, "key_press": -1, "trial_index": 46}, "uniqueid": "MTK1395:3WI0P0II62ZMFI65FN6EVY5B7RJDRN", "dateTime": 1515871091607}, {"current_trial": 47, "trialdata": {"rt": -1, "trial_type": "single-stim", "stimulus": "<p id=\"stim\">7</p>", "internal_node_id": "0.0-35.0-3.0", "time_elapsed": 259812, "key_press": -1, "trial_index": 47}, "uniqueid": "MTK1395:3WI0P0II62ZMFI65FN6EVY5B7RJDRN", "dateTime": 1515871092608}, {"current_trial": 48, "trialdata": {"rt": -1, "trial_type": "single-stim", "stimulus": "<p id=\"stim\">6</p>", "internal_node_id": "0.0-35.0-4.0", "time_elapsed": 260813, "key_press": -1, "trial_index": 48}, "uniqueid": "MTK1395:3WI0P0II62ZMFI65FN6EVY5B7RJDRN", "dateTime": 1515871093609}, {"current_trial": 49, "trialdata": {"rt": -1, "trial_type": "single-stim", "stimulus": "<p id=\"stim\">5</p>", "internal_node_id": "0.0-35.0-5.0", "time_elapsed": 261814, "key_press": -1, "trial_index": 49}, "uniqueid": "MTK1395:3WI0P0II62ZMFI65FN6EVY5B7RJDRN", "dateTime": 1515871094610}, {"current_trial": 50, "trialdata": {"rt": -1, "trial_type": "single-stim", "stimulus": "<p id=\"stim\">4</p>", "internal_node_id": "0.0-35.0-6.0", "time_elapsed": 262815, "key_press": -1, "trial_index": 50}, "uniqueid": "MTK1395:3WI0P0II62ZMFI65FN6EVY5B7RJDRN", "dateTime": 1515871095611}, {"current_trial": 51, "trialdata": {"rt": -1, "trial_type": "single-stim", "stimulus": "<p id=\"stim\">3</p>", "internal_node_id": "0.0-35.0-7.0", "time_elapsed": 263816, "key_press": -1, "trial_index": 51}, "uniqueid": "MTK1395:3WI0P0II62ZMFI65FN6EVY5B7RJDRN", "dateTime": 1515871096612}, {"current_trial": 52, "trialdata": {"rt": -1, "trial_type": "single-stim", "stimulus": "<p id=\"stim\">2</p>", "internal_node_id": "0.0-35.0-8.0", "time_elapsed": 264818, "key_press": -1, "trial_index": 52}, "uniqueid": "MTK1395:3WI0P0II62ZMFI65FN6EVY5B7RJDRN", "dateTime": 1515871097614}, {"current_trial": 53, "trialdata": {"rt": -1, "trial_type": "single-stim", "stimulus": "<p id=\"stim\">1</p>", "internal_node_id": "0.0-35.0-9.0", "time_elapsed": 265819, "key_press": -1, "trial_index": 53}, "uniqueid": "MTK1395:3WI0P0II62ZMFI65FN6EVY5B7RJDRN", "dateTime": 1515871098615}, {"current_trial": 54, "trialdata": {"rt": -1, "trial_type": "single-stim", "stimulus": "<p id=\"stim\">+</p>", "internal_node_id": "0.0-36.0-0.0", "time_elapsed": 267320, "key_press": -1, "type": "FIXATION", "trial_index": 54}, "uniqueid": "MTK1395:3WI0P0II62ZMFI65FN6EVY5B7RJDRN", "dateTime": 1515871100116}, {"current_trial": 55, "trialdata": {"rt": -1, "trial_type": "single-stim", "word": "robber", "stimulus": "<p id=\"stim\">ROBBER</p>", "conditions": [18, 1200, "v", 18000], "internal_node_id": "0.0-37.0", "trial": 1, "time_elapsed": 268521, "serialpos": 0, "key_press": -1, "wordID": 1196, "type": "PRES_VIS", "trial_index": 55}, "uniqueid": "MTK1395:3WI0P0II62ZMFI65FN6EVY5B7RJDRN", "dateTime": 1515871101317}, {"current_trial": 56, "trialdata": {"rt": -1, "trial_type": "single-stim", "word": "coin", "stimulus": "<p id=\"stim\">COIN</p>", "conditions": [18, 1200, "v", 18000], "internal_node_id": "0.0-38.0", "trial": 1, "time_elapsed": 270585, "serialpos": 1, "key_press": -1, "wordID": 342, "type": "PRES_VIS", "trial_index": 56}, "uniqueid": "MTK1395:3WI0P0II62ZMFI65FN6EVY5B7RJDRN", "dateTime": 1515871103381}, {"current_trial": 57, "trialdata": {"rt": -1, "trial_type": "single-stim", "word": "shirt", "stimulus": "<p id=\"stim\">SHIRT</p>", "conditions": [18, 1200, "v", 18000], "internal_node_id": "0.0-39.0", "trial": 1, "time_elapsed": 272806, "serialpos": 2, "key_press": -1, "wordID": 1286, "type": "PRES_VIS", "trial_index": 57}, "uniqueid": "MTK1395:3WI0P0II62ZMFI65FN6EVY5B7RJDRN", "dateTime": 1515871105602}, {"current_trial": 58, "trialdata": {"rt": -1, "trial_type": "single-stim", "word": "cobra", "stimulus": "<p id=\"stim\">COBRA</p>", "conditions": [18, 1200, "v", 18000], "internal_node_id": "0.0-40.0", "trial": 1, "time_elapsed": 275113, "serialpos": 3, "key_press": -1, "wordID": 335, "type": "PRES_VIS", "trial_index": 58}, "uniqueid": "MTK1395:3WI0P0II62ZMFI65FN6EVY5B7RJDRN", "dateTime": 1515871107909}, {"current_trial": 59, "trialdata": {"rt": -1, "trial_type": "single-stim", "word": "gravel", "stimulus": "<p id=\"stim\">GRAVEL</p>", "conditions": [18, 1200, "v", 18000], "internal_node_id": "0.0-41.0", "trial": 1, "time_elapsed": 277181, "serialpos": 4, "key_press": -1, "wordID": 658, "type": "PRES_VIS", "trial_index": 59}, "uniqueid": "MTK1395:3WI0P0II62ZMFI65FN6EVY5B7RJDRN", "dateTime": 1515871109977}, {"current_trial": 60, "trialdata": {"rt": -1, "trial_type": "single-stim", "word": "journal", "stimulus": "<p id=\"stim\">JOURNAL</p>", "conditions": [18, 1200, "v", 18000], "internal_node_id": "0.0-42.0", "trial": 1, "time_elapsed": 279523, "serialpos": 5, "key_press": -1, "wordID": 759, "type": "PRES_VIS", "trial_index": 60}, "uniqueid": "MTK1395:3WI0P0II62ZMFI65FN6EVY5B7RJDRN", "dateTime": 1515871112319}, {"current_trial": 61, "trialdata": {"rt": -1, "trial_type": "single-stim", "word": "woman", "stimulus": "<p id=\"stim\">WOMAN</p>", "conditions": [18, 1200, "v", 18000], "internal_node_id": "0.0-43.0", "trial": 1, "time_elapsed": 281744, "serialpos": 6, "key_press": -1, "wordID": 1619, "type": "PRES_VIS", "trial_index": 61}, "uniqueid": "MTK1395:3WI0P0II62ZMFI65FN6EVY5B7RJDRN", "dateTime": 1515871114540}, {"current_trial": 62, "trialdata": {"rt": -1, "trial_type": "single-stim", "word": "primate", "stimulus": "<p id=\"stim\">PRIMATE</p>", "conditions": [18, 1200, "v", 18000], "internal_node_id": "0.0-44.0", "trial": 1, "time_elapsed": 283890, "serialpos": 7, "key_press": -1, "wordID": 1122, "type": "PRES_VIS", "trial_index": 62}, "uniqueid": "MTK1395:3WI0P0II62ZMFI65FN6EVY5B7RJDRN", "dateTime": 1515871116686}, {"current_trial": 63, "trialdata": {"rt": -1, "trial_type": "single-stim", "word": "creature", "stimulus": "<p id=\"stim\">CREATURE</p>", "conditions": [18, 1200, "v", 18000], "internal_node_id": "0.0-45.0", "trial": 1, "time_elapsed": 286079, "serialpos": 8, "key_press": -1, "wordID": 402, "type": "PRES_VIS", "trial_index": 63}, "uniqueid": "MTK1395:3WI0P0II62ZMFI65FN6EVY5B7RJDRN", "dateTime": 1515871118875}, {"current_trial": 64, "trialdata": {"rt": -1, "trial_type": "single-stim", "word": "dashboard", "stimulus": "<p id=\"stim\">DASHBOARD</p>", "conditions": [18, 1200, "v", 18000], "internal_node_id": "0.0-46.0", "trial": 1, "time_elapsed": 288314, "serialpos": 9, "key_press": -1, "wordID": 440, "type": "PRES_VIS", "trial_index": 64}, "uniqueid": "MTK1395:3WI0P0II62ZMFI65FN6EVY5B7RJDRN", "dateTime": 1515871121110}, {"current_trial": 65, "trialdata": {"rt": -1, "trial_type": "single-stim", "word": "lumber", "stimulus": "<p id=\"stim\">LUMBER</p>", "conditions": [18, 1200, "v", 18000], "internal_node_id": "0.0-47.0", "trial": 1, "time_elapsed": 290415, "serialpos": 10, "key_press": -1, "wordID": 847, "type": "PRES_VIS", "trial_index": 65}, "uniqueid": "MTK1395:3WI0P0II62ZMFI65FN6EVY5B7RJDRN", "dateTime": 1515871123211}, {"current_trial": 66, "trialdata": {"rt": -1, "trial_type": "single-stim", "word": "yarn", "stimulus": "<p id=\"stim\">YARN</p>", "conditions": [18, 1200, "v", 18000], "internal_node_id": "0.0-48.0", "trial": 1, "time_elapsed": 292757, "serialpos": 11, "key_press": -1, "wordID": 1630, "type": "PRES_VIS", "trial_index": 66}, "uniqueid": "MTK1395:3WI0P0II62ZMFI65FN6EVY5B7RJDRN", "dateTime": 1515871125553}, {"current_trial": 67, "trialdata": {"rt": -1, "trial_type": "single-stim", "word": "sparrow", "stimulus": "<p id=\"stim\">SPARROW</p>", "conditions": [18, 1200, "v", 18000], "internal_node_id": "0.0-49.0", "trial": 1, "time_elapsed": 295096, "serialpos": 12, "key_press": -1, "wordID": 1346, "type": "PRES_VIS", "trial_index": 67}, "uniqueid": "MTK1395:3WI0P0II62ZMFI65FN6EVY5B7RJDRN", "dateTime": 1515871127892}, {"current_trial": 68, "trialdata": {"rt": -1, "trial_type": "single-stim", "word": "rabbit", "stimulus": "<p id=\"stim\">RABBIT</p>", "conditions": [18, 1200, "v", 18000], "internal_node_id": "0.0-50.0", "trial": 1, "time_elapsed": 297274, "serialpos": 13, "key_press": -1, "wordID": 1151, "type": "PRES_VIS", "trial_index": 68}, "uniqueid": "MTK1395:3WI0P0II62ZMFI65FN6EVY5B7RJDRN", "dateTime": 1515871130071}, {"current_trial": 69, "trialdata": {"rt": -1, "trial_type": "single-stim", "word": "saddle", "stimulus": "<p id=\"stim\">SADDLE</p>", "conditions": [18, 1200, "v", 18000], "internal_node_id": "0.0-51.0", "trial": 1, "time_elapsed": 299490, "serialpos": 14, "key_press": -1, "wordID": 1220, "type": "PRES_VIS", "trial_index": 69}, "uniqueid": "MTK1395:3WI0P0II62ZMFI65FN6EVY5B7RJDRN", "dateTime": 1515871132286}, {"current_trial": 70, "trialdata": {"rt": -1, "trial_type": "single-stim", "word": "forehead", "stimulus": "<p id=\"stim\">FOREHEAD</p>", "conditions": [18, 1200, "v", 18000], "internal_node_id": "0.0-52.0", "trial": 1, "time_elapsed": 301660, "serialpos": 15, "key_press": -1, "wordID": 591, "type": "PRES_VIS", "trial_index": 70}, "uniqueid": "MTK1395:3WI0P0II62ZMFI65FN6EVY5B7RJDRN", "dateTime": 1515871134456}, {"current_trial": 71, "trialdata": {"rt": -1, "trial_type": "single-stim", "word": "wasp", "stimulus": "<p id=\"stim\">WASP</p>", "conditions": [18, 1200, "v", 18000], "internal_node_id": "0.0-53.0", "trial": 1, "time_elapsed": 303911, "serialpos": 16, "key_press": -1, "wordID": 1592, "type": "PRES_VIS", "trial_index": 71}, "uniqueid": "MTK1395:3WI0P0II62ZMFI65FN6EVY5B7RJDRN", "dateTime": 1515871136707}, {"current_trial": 72, "trialdata": {"rt": -1, "trial_type": "single-stim", "word": "ozone", "stimulus": "<p id=\"stim\">OZONE</p>", "conditions": [18, 1200, "v", 18000], "internal_node_id": "0.0-54.0", "trial": 1, "time_elapsed": 306258, "serialpos": 17, "key_press": -1, "wordID": 995, "type": "PRES_VIS", "trial_index": 72}, "uniqueid": "MTK1395:3WI0P0II62ZMFI65FN6EVY5B7RJDRN", "dateTime": 1515871139054}, {"current_trial": 73, "trialdata": {"rt": -1, "trial_type": "single-stim", "stimulus": "", "internal_node_id": "0.0-55.0-0.0", "time_elapsed": 308461, "key_press": -1, "type": "PRE_RECALL_DELAY", "trial_index": 73}, "uniqueid": "MTK1395:3WI0P0II62ZMFI65FN6EVY5B7RJDRN", "dateTime": 1515871141258}, {"current_trial": 74, "trialdata": {"rt": -1000, "trial_type": "single-audio", "stimulus": "/static/audio/400Hz.wav", "internal_node_id": "0.0-56.0", "time_elapsed": 308963, "key_press": -1, "type": "PRE_RECALL_ALERT", "trial_index": 74}, "uniqueid": "MTK1395:3WI0P0II62ZMFI65FN6EVY5B7RJDRN", "dateTime": 1515871141759}, {"current_trial": 75, "trialdata": {"rt": [2699, 4355, 6916, 14058, 18536, 23274, 24707], "recwords": ["ozone", "sparrow", "wasp", "scarce", "rabbit", "robber", "gravel"], "key_times": [1055, 1236, 1336, 1448, 1581, 2699, 3183, 3453, 3578, 3706, 3895, 3992, 4130, 4355, 4835, 5195, 5348, 5482, 5634, 6031, 6916, 12066, 12270, 12374, 12550, 12720, 13222, 13480, 13585, 14058, 17497, 17628, 17724, 17893, 18093, 18210, 18536, 22098, 22204, 22424, 22591, 22695, 22771, 23274, 23624, 23830, 23912, 24134, 24262, 24372, 24707], "trial_type": "free-recall", "conditions": [18, 1200, "v", 18000], "internal_node_id": "0.0-57.0-0.0", "key_presses": [79, 90, 79, 78, 69, 186, 83, 80, 65, 82, 82, 79, 87, 186, 83, 8, 87, 65, 83, 80, 186, 83, 67, 65, 82, 69, 8, 67, 69, 186, 82, 65, 66, 66, 73, 84, 186, 82, 79, 66, 66, 69, 82, 186, 71, 82, 65, 86, 69, 76, 186], "trial": 1, "time_elapsed": 368965, "type": "FREE_RECALL", "trial_index": 75}, "uniqueid": "MTK1395:3WI0P0II62ZMFI65FN6EVY5B7RJDRN", "dateTime": 1515871201762}, {"current_trial": 76, "trialdata": {"rt": 3354, "trial_type": "text", "internal_node_id": "0.0-58.0", "time_elapsed": 374322, "key_press": 13, "type": "INSTRUCTIONS", "trial_index": 76}, "uniqueid": "MTK1395:3WI0P0II62ZMFI65FN6EVY5B7RJDRN", "dateTime": 1515871207118}, {"current_trial": 77, "trialdata": {"rt": [3256, 4990, 6973, 8808, 10486], "trial_type": "math-distractor", "key_times": [2980, 3256, 4651, 4878, 4990, 6184, 6659, 6973, 8253, 8554, 8808, 10107, 10326, 10486], "responses": ["8", "14", "12", "19", "12"], "num2": [2, 9, 5, 7, 5, 9], "num3": [1, 4, 1, 9, 1, 1], "conditions": [12, 1600, "v", 12000], "internal_node_id": "0.0-59.0", "key_presses": [104, 13, 97, 100, 13, 97, 98, 13, 97, 105, 13, 97, 98, 13], "trial": 2, "time_elapsed": 387324, "type": "DISTRACTOR", "trial_index": 77, "num1": [5, 1, 6, 3, 6, 2]}, "uniqueid": "MTK1395:3WI0P0II62ZMFI65FN6EVY5B7RJDRN", "dateTime": 1515871220120}, {"current_trial": 78, "trialdata": {"rt": -1, "trial_type": "single-stim", "stimulus": "<p id=\"stim\">10</p>", "internal_node_id": "0.0-60.0-0.0", "time_elapsed": 390326, "key_press": -1, "trial_index": 78}, "uniqueid": "MTK1395:3WI0P0II62ZMFI65FN6EVY5B7RJDRN", "dateTime": 1515871223122}, {"current_trial": 79, "trialdata": {"rt": -1, "trial_type": "single-stim", "stimulus": "<p id=\"stim\">9</p>", "internal_node_id": "0.0-60.0-1.0", "time_elapsed": 391328, "key_press": -1, "trial_index": 79}, "uniqueid": "MTK1395:3WI0P0II62ZMFI65FN6EVY5B7RJDRN", "dateTime": 1515871224124}, {"current_trial": 80, "trialdata": {"rt": -1, "trial_type": "single-stim", "stimulus": "<p id=\"stim\">8</p>", "internal_node_id": "0.0-60.0-2.0", "time_elapsed": 392329, "key_press": -1, "trial_index": 80}, "uniqueid": "MTK1395:3WI0P0II62ZMFI65FN6EVY5B7RJDRN", "dateTime": 1515871225125}, {"current_trial": 81, "trialdata": {"rt": -1, "trial_type": "single-stim", "stimulus": "<p id=\"stim\">7</p>", "internal_node_id": "0.0-60.0-3.0", "time_elapsed": 393331, "key_press": -1, "trial_index": 81}, "uniqueid": "MTK1395:3WI0P0II62ZMFI65FN6EVY5B7RJDRN", "dateTime": 1515871226127}, {"current_trial": 82, "trialdata": {"rt": -1, "trial_type": "single-stim", "stimulus": "<p id=\"stim\">6</p>", "internal_node_id": "0.0-60.0-4.0", "time_elapsed": 394332, "key_press": -1, "trial_index": 82}, "uniqueid": "MTK1395:3WI0P0II62ZMFI65FN6EVY5B7RJDRN", "dateTime": 1515871227128}, {"current_trial": 83, "trialdata": {"rt": -1, "trial_type": "single-stim", "stimulus": "<p id=\"stim\">5</p>", "internal_node_id": "0.0-60.0-5.0", "time_elapsed": 395333, "key_press": -1, "trial_index": 83}, "uniqueid": "MTK1395:3WI0P0II62ZMFI65FN6EVY5B7RJDRN", "dateTime": 1515871228129}, {"current_trial": 84, "trialdata": {"rt": -1, "trial_type": "single-stim", "stimulus": "<p id=\"stim\">4</p>", "internal_node_id": "0.0-60.0-6.0", "time_elapsed": 396334, "key_press": -1, "trial_index": 84}, "uniqueid": "MTK1395:3WI0P0II62ZMFI65FN6EVY5B7RJDRN", "dateTime": 1515871229130}, {"current_trial": 85, "trialdata": {"rt": -1, "trial_type": "single-stim", "stimulus": "<p id=\"stim\">3</p>", "internal_node_id": "0.0-60.0-7.0", "time_elapsed": 397335, "key_press": -1, "trial_index": 85}, "uniqueid": "MTK1395:3WI0P0II62ZMFI65FN6EVY5B7RJDRN", "dateTime": 1515871230131}, {"current_trial": 86, "trialdata": {"rt": -1, "trial_type": "single-stim", "stimulus": "<p id=\"stim\">2</p>", "internal_node_id": "0.0-60.0-8.0", "time_elapsed": 398336, "key_press": -1, "trial_index": 86}, "uniqueid": "MTK1395:3WI0P0II62ZMFI65FN6EVY5B7RJDRN", "dateTime": 1515871231132}, {"current_trial": 87, "trialdata": {"rt": -1, "trial_type": "single-stim", "stimulus": "<p id=\"stim\">1</p>", "internal_node_id": "0.0-60.0-9.0", "time_elapsed": 399337, "key_press": -1, "trial_index": 87}, "uniqueid": "MTK1395:3WI0P0II62ZMFI65FN6EVY5B7RJDRN", "dateTime": 1515871232133}, {"current_trial": 88, "trialdata": {"rt": -1, "trial_type": "single-stim", "stimulus": "<p id=\"stim\">+</p>", "internal_node_id": "0.0-61.0-0.0", "time_elapsed": 400838, "key_press": -1, "type": "FIXATION", "trial_index": 88}, "uniqueid": "MTK1395:3WI0P0II62ZMFI65FN6EVY5B7RJDRN", "dateTime": 1515871233634}, {"current_trial": 89, "trialdata": {"rt": -1, "trial_type": "single-stim", "word": "canyon", "stimulus": "<p id=\"stim\">CANYON</p>", "conditions": [12, 1600, "v", 12000], "internal_node_id": "0.0-62.0", "trial": 2, "time_elapsed": 402440, "serialpos": 0, "key_press": -1, "wordID": 234, "type": "PRES_VIS", "trial_index": 89}, "uniqueid": "MTK1395:3WI0P0II62ZMFI65FN6EVY5B7RJDRN", "dateTime": 1515871235236}, {"current_trial": 90, "trialdata": {"rt": -1, "trial_type": "single-stim", "word": "jury", "stimulus": "<p id=\"stim\">JURY</p>", "conditions": [12, 1600, "v", 12000], "internal_node_id": "0.0-63.0", "trial": 2, "time_elapsed": 405210, "serialpos": 1, "key_press": -1, "wordID": 765, "type": "PRES_VIS", "trial_index": 90}, "uniqueid": "MTK1395:3WI0P0II62ZMFI65FN6EVY5B7RJDRN", "dateTime": 1515871238006}, {"current_trial": 91, "trialdata": {"rt": -1, "trial_type": "single-stim", "word": "spouse", "stimulus": "<p id=\"stim\">SPOUSE</p>", "conditions": [12, 1600, "v", 12000], "internal_node_id": "0.0-64.0", "trial": 2, "time_elapsed": 407840, "serialpos": 2, "key_press": -1, "wordID": 1357, "type": "PRES_VIS", "trial_index": 91}, "uniqueid": "MTK1395:3WI0P0II62ZMFI65FN6EVY5B7RJDRN", "dateTime": 1515871240636}, {"current_trial": 92, "trialdata": {"rt": -1, "trial_type": "single-stim", "word": "honey", "stimulus": "<p id=\"stim\">HONEY</p>", "conditions": [12, 1600, "v", 12000], "internal_node_id": "0.0-65.0", "trial": 2, "time_elapsed": 410422, "serialpos": 3, "key_press": -1, "wordID": 712, "type": "PRES_VIS", "trial_index": 92}, "uniqueid": "MTK1395:3WI0P0II62ZMFI65FN6EVY5B7RJDRN", "dateTime": 1515871243218}, {"current_trial": 93, "trialdata": {"rt": -1, "trial_type": "single-stim", "word": "cousin", "stimulus": "<p id=\"stim\">COUSIN</p>", "conditions": [12, 1600, "v", 12000], "internal_node_id": "0.0-66.0", "trial": 2, "time_elapsed": 412851, "serialpos": 4, "key_press": -1, "wordID": 391, "type": "PRES_VIS", "trial_index": 93}, "uniqueid": "MTK1395:3WI0P0II62ZMFI65FN6EVY5B7RJDRN", "dateTime": 1515871245647}, {"current_trial": 94, "trialdata": {"rt": -1, "trial_type": "single-stim", "word": "pocket", "stimulus": "<p id=\"stim\">POCKET</p>", "conditions": [12, 1600, "v", 12000], "internal_node_id": "0.0-67.0", "trial": 2, "time_elapsed": 415487, "serialpos": 5, "key_press": -1, "wordID": 1092, "type": "PRES_VIS", "trial_index": 94}, "uniqueid": "MTK1395:3WI0P0II62ZMFI65FN6EVY5B7RJDRN", "dateTime": 1515871248283}, {"current_trial": 95, "trialdata": {"rt": -1, "trial_type": "single-stim", "word": "handbag", "stimulus": "<p id=\"stim\">HANDBAG</p>", "conditions": [12, 1600, "v", 12000], "internal_node_id": "0.0-68.0", "trial": 2, "time_elapsed": 417920, "serialpos": 6, "key_press": -1, "wordID": 683, "type": "PRES_VIS", "trial_index": 95}, "uniqueid": "MTK1395:3WI0P0II62ZMFI65FN6EVY5B7RJDRN", "dateTime": 1515871250716}, {"current_trial": 96, "trialdata": {"rt": -1, "trial_type": "single-stim", "word": "agent", "stimulus": "<p id=\"stim\">AGENT</p>", "conditions": [12, 1600, "v", 12000], "internal_node_id": "0.0-69.0", "trial": 2, "time_elapsed": 420544, "serialpos": 7, "key_press": -1, "wordID": 9, "type": "PRES_VIS", "trial_index": 96}, "uniqueid": "MTK1395:3WI0P0II62ZMFI65FN6EVY5B7RJDRN", "dateTime": 1515871253340}, {"current_trial": 97, "trialdata": {"rt": -1, "trial_type": "single-stim", "word": "drink", "stimulus": "<p id=\"stim\">DRINK</p>", "conditions": [12, 1600, "v", 12000], "internal_node_id": "0.0-70.0", "trial": 2, "time_elapsed": 423286, "serialpos": 8, "key_press": -1, "wordID": 497, "type": "PRES_VIS", "trial_index": 97}, "uniqueid": "MTK1395:3WI0P0II62ZMFI65FN6EVY5B7RJDRN", "dateTime": 1515871256082}, {"current_trial": 98, "trialdata": {"rt": -1, "trial_type": "single-stim", "word": "soda", "stimulus": "<p id=\"stim\">SODA</p>", "conditions": [12, 1600, "v", 12000], "internal_node_id": "0.0-71.0", "trial": 2, "time_elapsed": 426067, "serialpos": 9, "key_press": -1, "wordID": 1340, "type": "PRES_VIS", "trial_index": 98}, "uniqueid": "MTK1395:3WI0P0II62ZMFI65FN6EVY5B7RJDRN", "dateTime": 1515871258863}, {"current_trial": 99, "trialdata": {"rt": -1, "trial_type": "single-stim", "word": "fireplace", "stimulus": "<p id=\"stim\">FIREPLACE</p>", "conditions": [12, 1600, "v", 12000], "internal_node_id": "0.0-72.0", "trial": 2, "time_elapsed": 428557, "serialpos": 10, "key_press": -1, "wordID": 569, "type": "PRES_VIS", "trial_index": 99}, "uniqueid": "MTK1395:3WI0P0II62ZMFI65FN6EVY5B7RJDRN", "dateTime": 1515871261353}, {"current_trial": 100, "trialdata": {"rt": -1, "trial_type": "single-stim", "word": "valley", "stimulus": "<p id=\"stim\">VALLEY</p>", "conditions": [12, 1600, "v", 12000], "internal_node_id": "0.0-73.0", "trial": 2, "time_elapsed": 431188, "serialpos": 11, "key_press": -1, "wordID": 1544, "type": "PRES_VIS", "trial_index": 100}, "uniqueid": "MTK1395:3WI0P0II62ZMFI65FN6EVY5B7RJDRN", "dateTime": 1515871263984}, {"current_trial": 101, "trialdata": {"rt": -1, "trial_type": "single-stim", "stimulus": "", "internal_node_id": "0.0-74.0-0.0", "time_elapsed": 433207, "key_press": -1, "type": "PRE_RECALL_DELAY", "trial_index": 101}, "uniqueid": "MTK1395:3WI0P0II62ZMFI65FN6EVY5B7RJDRN", "dateTime": 1515871266003}, {"current_trial": 102, "trialdata": {"rt": -1000, "trial_type": "single-audio", "stimulus": "/static/audio/400Hz.wav", "internal_node_id": "0.0-75.0", "time_elapsed": 433709, "key_press": -1, "type": "PRE_RECALL_ALERT", "trial_index": 102}, "uniqueid": "MTK1395:3WI0P0II62ZMFI65FN6EVY5B7RJDRN", "dateTime": 1515871266505}, {"current_trial": 103, "trialdata": {"rt": [4790, 6461, 8221, 9409, 11191, 13658], "recwords": ["canyon", "valley", "jury", "food", "cousin", "niece"], "key_times": [2501, 2591, 2776, 3168, 3386, 3611, 3749, 3938, 4790, 5293, 5402, 5529, 5695, 5795, 5998, 6461, 7015, 7219, 7322, 7444, 8221, 8846, 8928, 9108, 9186, 9409, 10442, 10511, 10615, 10741, 10811, 10913, 11191, 12467, 12591, 12693, 13267, 13414, 13658, 14024, 14604], "trial_type": "free-recall", "conditions": [12, 1600, "v", 12000], "internal_node_id": "0.0-76.0-0.0", "key_presses": [67, 65, 89, 8, 78, 89, 79, 78, 186, 86, 65, 76, 76, 69, 89, 186, 74, 85, 82, 89, 186, 70, 79, 79, 68, 186, 67, 79, 85, 83, 73, 78, 186, 78, 73, 69, 67, 69, 186, 78, 8], "trial": 2, "time_elapsed": 493711, "type": "FREE_RECALL", "trial_index": 103}, "uniqueid": "MTK1395:3WI0P0II62ZMFI65FN6EVY5B7RJDRN", "dateTime": 1515871326508}, {"current_trial": 104, "trialdata": {"rt": 1513, "trial_type": "text", "internal_node_id": "0.0-77.0", "time_elapsed": 497225, "key_press": 13, "type": "INSTRUCTIONS", "trial_index": 104}, "uniqueid": "MTK1395:3WI0P0II62ZMFI65FN6EVY5B7RJDRN", "dateTime": 1515871330021}, {"current_trial": 105, "trialdata": {"rt": [2964, 6059, 8616, 11248, 13097, 15115, 17713, 22303, 23460], "trial_type": "math-distractor", "key_times": [2453, 2622, 2964, 4509, 5560, 5690, 5797, 6059, 8358, 8417, 8616, 10821, 11072, 11248, 12931, 13097, 14777, 14922, 15115, 17529, 17713, 21956, 22107, 22303, 23279, 23460], "responses": ["18", "15", "18", "20", "7", "10", "7", "23", "6"], "num2": [6, 4, 9, 4, 1, 2, 1, 8, 1, 3], "num3": [4, 8, 5, 9, 1, 1, 2, 9, 4, 2], "conditions": [24, 1600, "v", 24000], "internal_node_id": "0.0-78.0", "key_presses": [97, 104, 13, 100, 8, 97, 101, 13, 97, 104, 13, 98, 96, 13, 103, 13, 97, 96, 13, 103, 13, 98, 99, 13, 102, 13], "trial": 3, "time_elapsed": 523228, "type": "DISTRACTOR", "trial_index": 105, "num1": [8, 3, 4, 7, 5, 7, 4, 6, 1, 2]}, "uniqueid": "MTK1395:3WI0P0II62ZMFI65FN6EVY5B7RJDRN", "dateTime": 1515871356024}, {"current_trial": 106, "trialdata": {"rt": -1, "trial_type": "single-stim", "stimulus": "<p id=\"stim\">10</p>", "internal_node_id": "0.0-79.0-0.0", "time_elapsed": 526231, "key_press": -1, "trial_index": 106}, "uniqueid": "MTK1395:3WI0P0II62ZMFI65FN6EVY5B7RJDRN", "dateTime": 1515871359027}, {"current_trial": 107, "trialdata": {"rt": -1, "trial_type": "single-stim", "stimulus": "<p id=\"stim\">9</p>", "internal_node_id": "0.0-79.0-1.0", "time_elapsed": 527232, "key_press": -1, "trial_index": 107}, "uniqueid": "MTK1395:3WI0P0II62ZMFI65FN6EVY5B7RJDRN", "dateTime": 1515871360028}, {"current_trial": 108, "trialdata": {"rt": -1, "trial_type": "single-stim", "stimulus": "<p id=\"stim\">8</p>", "internal_node_id": "0.0-79.0-2.0", "time_elapsed": 528233, "key_press": -1, "trial_index": 108}, "uniqueid": "MTK1395:3WI0P0II62ZMFI65FN6EVY5B7RJDRN", "dateTime": 1515871361029}, {"current_trial": 109, "trialdata": {"rt": -1, "trial_type": "single-stim", "stimulus": "<p id=\"stim\">7</p>", "internal_node_id": "0.0-79.0-3.0", "time_elapsed": 529235, "key_press": -1, "trial_index": 109}, "uniqueid": "MTK1395:3WI0P0II62ZMFI65FN6EVY5B7RJDRN", "dateTime": 1515871362031}, {"current_trial": 110, "trialdata": {"rt": -1, "trial_type": "single-stim", "stimulus": "<p id=\"stim\">6</p>", "internal_node_id": "0.0-79.0-4.0", "time_elapsed": 530236, "key_press": -1, "trial_index": 110}, "uniqueid": "MTK1395:3WI0P0II62ZMFI65FN6EVY5B7RJDRN", "dateTime": 1515871363032}, {"current_trial": 111, "trialdata": {"rt": -1, "trial_type": "single-stim", "stimulus": "<p id=\"stim\">5</p>", "internal_node_id": "0.0-79.0-5.0", "time_elapsed": 531238, "key_press": -1, "trial_index": 111}, "uniqueid": "MTK1395:3WI0P0II62ZMFI65FN6EVY5B7RJDRN", "dateTime": 1515871364034}, {"current_trial": 112, "trialdata": {"rt": -1, "trial_type": "single-stim", "stimulus": "<p id=\"stim\">4</p>", "internal_node_id": "0.0-79.0-6.0", "time_elapsed": 532239, "key_press": -1, "trial_index": 112}, "uniqueid": "MTK1395:3WI0P0II62ZMFI65FN6EVY5B7RJDRN", "dateTime": 1515871365035}, {"current_trial": 113, "trialdata": {"rt": -1, "trial_type": "single-stim", "stimulus": "<p id=\"stim\">3</p>", "internal_node_id": "0.0-79.0-7.0", "time_elapsed": 533240, "key_press": -1, "trial_index": 113}, "uniqueid": "MTK1395:3WI0P0II62ZMFI65FN6EVY5B7RJDRN", "dateTime": 1515871366036}, {"current_trial": 114, "trialdata": {"rt": -1, "trial_type": "single-stim", "stimulus": "<p id=\"stim\">2</p>", "internal_node_id": "0.0-79.0-8.0", "time_elapsed": 534241, "key_press": -1, "trial_index": 114}, "uniqueid": "MTK1395:3WI0P0II62ZMFI65FN6EVY5B7RJDRN", "dateTime": 1515871367037}, {"current_trial": 115, "trialdata": {"rt": -1, "trial_type": "single-stim", "stimulus": "<p id=\"stim\">1</p>", "internal_node_id": "0.0-79.0-9.0", "time_elapsed": 535242, "key_press": -1, "trial_index": 115}, "uniqueid": "MTK1395:3WI0P0II62ZMFI65FN6EVY5B7RJDRN", "dateTime": 1515871368038}, {"current_trial": 116, "trialdata": {"rt": -1, "trial_type": "single-stim", "stimulus": "<p id=\"stim\">+</p>", "internal_node_id": "0.0-80.0-0.0", "time_elapsed": 536743, "key_press": -1, "type": "FIXATION", "trial_index": 116}, "uniqueid": "MTK1395:3WI0P0II62ZMFI65FN6EVY5B7RJDRN", "dateTime": 1515871369539}, {"current_trial": 117, "trialdata": {"rt": -1, "trial_type": "single-stim", "word": "grape", "stimulus": "<p id=\"stim\">GRAPE</p>", "conditions": [24, 1600, "v", 24000], "internal_node_id": "0.0-81.0", "trial": 3, "time_elapsed": 538345, "serialpos": 0, "key_press": -1, "wordID": 653, "type": "PRES_VIS", "trial_index": 117}, "uniqueid": "MTK1395:3WI0P0II62ZMFI65FN6EVY5B7RJDRN", "dateTime": 1515871371141}, {"current_trial": 118, "trialdata": {"rt": -1, "trial_type": "single-stim", "word": "citrus", "stimulus": "<p id=\"stim\">CITRUS</p>", "conditions": [24, 1600, "v", 24000], "internal_node_id": "0.0-82.0", "trial": 3, "time_elapsed": 540788, "serialpos": 1, "key_press": -1, "wordID": 312, "type": "PRES_VIS", "trial_index": 118}, "uniqueid": "MTK1395:3WI0P0II62ZMFI65FN6EVY5B7RJDRN", "dateTime": 1515871373584}, {"current_trial": 119, "trialdata": {"rt": -1, "trial_type": "single-stim", "word": "parent", "stimulus": "<p id=\"stim\">PARENT</p>", "conditions": [24, 1600, "v", 24000], "internal_node_id": "0.0-83.0", "trial": 3, "time_elapsed": 543497, "serialpos": 2, "key_press": -1, "wordID": 1012, "type": "PRES_VIS", "trial_index": 119}, "uniqueid": "MTK1395:3WI0P0II62ZMFI65FN6EVY5B7RJDRN", "dateTime": 1515871376293}, {"current_trial": 120, "trialdata": {"rt": -1, "trial_type": "single-stim", "word": "report", "stimulus": "<p id=\"stim\">REPORT</p>", "conditions": [24, 1600, "v", 24000], "internal_node_id": "0.0-84.0", "trial": 3, "time_elapsed": 545910, "serialpos": 3, "key_press": -1, "wordID": 1183, "type": "PRES_VIS", "trial_index": 120}, "uniqueid": "MTK1395:3WI0P0II62ZMFI65FN6EVY5B7RJDRN", "dateTime": 1515871378706}, {"current_trial": 121, "trialdata": {"rt": -1, "trial_type": "single-stim", "word": "staple", "stimulus": "<p id=\"stim\">STAPLE</p>", "conditions": [24, 1600, "v", 24000], "internal_node_id": "0.0-85.0", "trial": 3, "time_elapsed": 548489, "serialpos": 4, "key_press": -1, "wordID": 1370, "type": "PRES_VIS", "trial_index": 121}, "uniqueid": "MTK1395:3WI0P0II62ZMFI65FN6EVY5B7RJDRN", "dateTime": 1515871381285}, {"current_trial": 122, "trialdata": {"rt": -1, "trial_type": "single-stim", "word": "hawk", "stimulus": "<p id=\"stim\">HAWK</p>", "conditions": [24, 1600, "v", 24000], "internal_node_id": "0.0-86.0", "trial": 3, "time_elapsed": 551210, "serialpos": 5, "key_press": -1, "wordID": 691, "type": "PRES_VIS", "trial_index": 122}, "uniqueid": "MTK1395:3WI0P0II62ZMFI65FN6EVY5B7RJDRN", "dateTime": 1515871384006}, {"current_trial": 123, "trialdata": {"rt": -1, "trial_type": "single-stim", "word": "boyfriend", "stimulus": "<p id=\"stim\">BOYFRIEND</p>", "conditions": [24, 1600, "v", 24000], "internal_node_id": "0.0-87.0", "trial": 3, "time_elapsed": 553777, "serialpos": 6, "key_press": -1, "wordID": 161, "type": "PRES_VIS", "trial_index": 123}, "uniqueid": "MTK1395:3WI0P0II62ZMFI65FN6EVY5B7RJDRN", "dateTime": 1515871386573}, {"current_trial": 124, "trialdata": {"rt": -1, "trial_type": "single-stim", "word": "teacher", "stimulus": "<p id=\"stim\">TEACHER</p>", "conditions": [24, 1600, "v", 24000], "internal_node_id": "0.0-88.0", "trial": 3, "time_elapsed": 556337, "serialpos": 7, "key_press": -1, "wordID": 1439, "type": "PRES_VIS", "trial_index": 124}, "uniqueid": "MTK1395:3WI0P0II62ZMFI65FN6EVY5B7RJDRN", "dateTime": 1515871389133}, {"current_trial": 125, "trialdata": {"rt": -1, "trial_type": "single-stim", "word": "dorm", "stimulus": "<p id=\"stim\">DORM</p>", "conditions": [24, 1600, "v", 24000], "internal_node_id": "0.0-89.0", "trial": 3, "time_elapsed": 558877, "serialpos": 8, "key_press": -1, "wordID": 487, "type": "PRES_VIS", "trial_index": 125}, "uniqueid": "MTK1395:3WI0P0II62ZMFI65FN6EVY5B7RJDRN", "dateTime": 1515871391673}, {"current_trial": 126, "trialdata": {"rt": -1, "trial_type": "single-stim", "word": "brother", "stimulus": "<p id=\"stim\">BROTHER</p>", "conditions": [24, 1600, "v", 24000], "internal_node_id": "0.0-90.0", "trial": 3, "time_elapsed": 561288, "serialpos": 9, "key_press": -1, "wordID": 178, "type": "PRES_VIS", "trial_index": 126}, "uniqueid": "MTK1395:3WI0P0II62ZMFI65FN6EVY5B7RJDRN", "dateTime": 1515871394084}, {"current_trial": 127, "trialdata": {"rt": -1, "trial_type": "single-stim", "word": "flashlight", "stimulus": "<p id=\"stim\">FLASHLIGHT</p>", "conditions": [24, 1600, "v", 24000], "internal_node_id": "0.0-91.0", "trial": 3, "time_elapsed": 563799, "serialpos": 10, "key_press": -1, "wordID": 574, "type": "PRES_VIS", "trial_index": 127}, "uniqueid": "MTK1395:3WI0P0II62ZMFI65FN6EVY5B7RJDRN", "dateTime": 1515871396595}, {"current_trial": 128, "trialdata": {"rt": -1, "trial_type": "single-stim", "word": "leg", "stimulus": "<p id=\"stim\">LEG</p>", "conditions": [24, 1600, "v", 24000], "internal_node_id": "0.0-92.0", "trial": 3, "time_elapsed": 566227, "serialpos": 11, "key_press": -1, "wordID": 808, "type": "PRES_VIS", "trial_index": 128}, "uniqueid": "MTK1395:3WI0P0II62ZMFI65FN6EVY5B7RJDRN", "dateTime": 1515871399023}, {"current_trial": 129, "trialdata": {"rt": -1, "trial_type": "single-stim", "word": "stallion", "stimulus": "<p id=\"stim\">STALLION</p>", "conditions": [24, 1600, "v", 24000], "internal_node_id": "0.0-93.0", "trial": 3, "time_elapsed": 568662, "serialpos": 12, "key_press": -1, "wordID": 1368, "type": "PRES_VIS", "trial_index": 129}, "uniqueid": "MTK1395:3WI0P0II62ZMFI65FN6EVY5B7RJDRN", "dateTime": 1515871401458}, {"current_trial": 130, "trialdata": {"rt": -1, "trial_type": "single-stim", "word": "taxi", "stimulus": "<p id=\"stim\">TAXI</p>", "conditions": [24, 1600, "v", 24000], "internal_node_id": "0.0-94.0", "trial": 3, "time_elapsed": 571440, "serialpos": 13, "key_press": -1, "wordID": 1437, "type": "PRES_VIS", "trial_index": 130}, "uniqueid": "MTK1395:3WI0P0II62ZMFI65FN6EVY5B7RJDRN", "dateTime": 1515871404236}, {"current_trial": 131, "trialdata": {"rt": -1, "trial_type": "single-stim", "word": "hiker", "stimulus": "<p id=\"stim\">HIKER</p>", "conditions": [24, 1600, "v", 24000], "internal_node_id": "0.0-95.0", "trial": 3, "time_elapsed": 574042, "serialpos": 14, "key_press": -1, "wordID": 707, "type": "PRES_VIS", "trial_index": 131}, "uniqueid": "MTK1395:3WI0P0II62ZMFI65FN6EVY5B7RJDRN", "dateTime": 1515871406838}, {"current_trial": 132, "trialdata": {"rt": -1, "trial_type": "single-stim", "word": "barley", "stimulus": "<p id=\"stim\">BARLEY</p>", "conditions": [24, 1600, "v", 24000], "internal_node_id": "0.0-96.0", "trial": 3, "time_elapsed": 576501, "serialpos": 15, "key_press": -1, "wordID": 87, "type": "PRES_VIS", "trial_index": 132}, "uniqueid": "MTK1395:3WI0P0II62ZMFI65FN6EVY5B7RJDRN", "dateTime": 1515871409297}, {"current_trial": 133, "trialdata": {"rt": -1, "trial_type": "single-stim", "word": "europe", "stimulus": "<p id=\"stim\">EUROPE</p>", "conditions": [24, 1600, "v", 24000], "internal_node_id": "0.0-97.0", "trial": 3, "time_elapsed": 579081, "serialpos": 16, "key_press": -1, "wordID": 540, "type": "PRES_VIS", "trial_index": 133}, "uniqueid": "MTK1395:3WI0P0II62ZMFI65FN6EVY5B7RJDRN", "dateTime": 1515871411877}, {"current_trial": 134, "trialdata": {"rt": -1, "trial_type": "single-stim", "word": "london", "stimulus": "<p id=\"stim\">LONDON</p>", "conditions": [24, 1600, "v", 24000], "internal_node_id": "0.0-98.0", "trial": 3, "time_elapsed": 581506, "serialpos": 17, "key_press": -1, "wordID": 842, "type": "PRES_VIS", "trial_index": 134}, "uniqueid": "MTK1395:3WI0P0II62ZMFI65FN6EVY5B7RJDRN", "dateTime": 1515871414302}, {"current_trial": 135, "trialdata": {"rt": -1, "trial_type": "single-stim", "word": "chipmunk", "stimulus": "<p id=\"stim\">CHIPMUNK</p>", "conditions": [24, 1600, "v", 24000], "internal_node_id": "0.0-99.0", "trial": 3, "time_elapsed": 584265, "serialpos": 18, "key_press": -1, "wordID": 303, "type": "PRES_VIS", "trial_index": 135}, "uniqueid": "MTK1395:3WI0P0II62ZMFI65FN6EVY5B7RJDRN", "dateTime": 1515871417061}, {"current_trial": 136, "trialdata": {"rt": -1, "trial_type": "single-stim", "word": "pork", "stimulus": "<p id=\"stim\">PORK</p>", "conditions": [24, 1600, "v", 24000], "internal_node_id": "0.0-100.0", "trial": 3, "time_elapsed": 586859, "serialpos": 19, "key_press": -1, "wordID": 1107, "type": "PRES_VIS", "trial_index": 136}, "uniqueid": "MTK1395:3WI0P0II62ZMFI65FN6EVY5B7RJDRN", "dateTime": 1515871419655}, {"current_trial": 137, "trialdata": {"rt": -1, "trial_type": "single-stim", "word": "banker", "stimulus": "<p id=\"stim\">BANKER</p>", "conditions": [24, 1600, "v", 24000], "internal_node_id": "0.0-101.0", "trial": 3, "time_elapsed": 589495, "serialpos": 20, "key_press": -1, "wordID": 83, "type": "PRES_VIS", "trial_index": 137}, "uniqueid": "MTK1395:3WI0P0II62ZMFI65FN6EVY5B7RJDRN", "dateTime": 1515871422291}, {"current_trial": 138, "trialdata": {"rt": -1, "trial_type": "single-stim", "word": "seal", "stimulus": "<p id=\"stim\">SEAL</p>", "conditions": [24, 1600, "v", 24000], "internal_node_id": "0.0-102.0", "trial": 3, "time_elapsed": 592239, "serialpos": 21, "key_press": -1, "wordID": 1261, "type": "PRES_VIS", "trial_index": 138}, "uniqueid": "MTK1395:3WI0P0II62ZMFI65FN6EVY5B7RJDRN", "dateTime": 1515871425035}, {"current_trial": 139, "trialdata": {"rt": -1, "trial_type": "single-stim", "word": "laser", "stimulus": "<p id=\"stim\">LASER</p>", "conditions": [24, 1600, "v", 24000], "internal_node_id": "0.0-103.0", "trial": 3, "time_elapsed": 594882, "serialpos": 22, "key_press": -1, "wordID": 800, "type": "PRES_VIS", "trial_index": 139}, "uniqueid": "MTK1395:3WI0P0II62ZMFI65FN6EVY5B7RJDRN", "dateTime": 1515871427678}, {"current_trial": 140, "trialdata": {"rt": -1, "trial_type": "single-stim", "word": "beaver", "stimulus": "<p id=\"stim\">BEAVER</p>", "conditions": [24, 1600, "v", 24000], "internal_node_id": "0.0-104.0", "trial": 3, "time_elapsed": 597436, "serialpos": 23, "key_press": -1, "wordID": 108, "type": "PRES_VIS", "trial_index": 140}, "uniqueid": "MTK1395:3WI0P0II62ZMFI65FN6EVY5B7RJDRN", "dateTime": 1515871430232}, {"current_trial": 141, "trialdata": {"rt": -1, "trial_type": "single-stim", "stimulus": "", "internal_node_id": "0.0-105.0-0.0", "time_elapsed": 599621, "key_press": -1, "type": "PRE_RECALL_DELAY", "trial_index": 141}, "uniqueid": "MTK1395:3WI0P0II62ZMFI65FN6EVY5B7RJDRN", "dateTime": 1515871432417}, {"current_trial": 142, "trialdata": {"rt": -1000, "trial_type": "single-audio", "stimulus": "/static/audio/400Hz.wav", "internal_node_id": "0.0-106.0", "time_elapsed": 600122, "key_press": -1, "type": "PRE_RECALL_ALERT", "trial_index": 142}, "uniqueid": "MTK1395:3WI0P0II62ZMFI65FN6EVY5B7RJDRN", "dateTime": 1515871432918}, {"current_trial": 143, "trialdata": {"rt": [3593, 5816, 8542, 10522, 11831, 15576, 16973, 18680, 20683, 21780, 24004], "recwords": ["stallion", "banker", "chipmunk", "europe", "london", "boyfriend", "teacher", "grape", "citrus", "seal", "banker"], "key_times": [866, 1008, 1141, 1325, 1637, 1740, 2023, 2566, 2983, 3199, 3593, 4375, 4474, 4605, 5099, 5336, 5425, 5502, 5593, 5816, 6332, 6390, 6505, 6606, 6919, 7318, 7538, 7647, 8542, 9029, 9336, 9723, 9858, 9987, 10177, 10522, 11103, 11307, 11386, 11499, 11557, 11635, 11831, 12269, 12269, 12780, 12783, 12971, 13165, 14029, 14114, 14242, 14497, 14690, 14753, 14897, 15001, 15160, 15576, 16061, 16178, 16241, 16443, 16528, 16669, 16751, 16973, 17807, 18009, 18095, 18230, 18403, 18680, 19347, 19444, 19635, 19812, 19923, 20086, 20683, 20822, 20983, 21110, 21260, 21780, 23286, 23363, 23528, 23666, 23789, 23865, 24004], "trial_type": "free-recall", "conditions": [24, 1600, "v", 24000], "internal_node_id": "0.0-107.0-0.0", "key_presses": [83, 84, 65, 76, 76, 73, 80, 8, 79, 78, 186, 66, 65, 75, 8, 78, 75, 69, 82, 186, 67, 72, 73, 80, 77, 85, 78, 75, 186, 69, 85, 82, 79, 80, 69, 186, 76, 79, 78, 68, 79, 78, 186, 78, 66, 187, 8, 8, 8, 66, 79, 89, 70, 82, 73, 69, 78, 68, 186, 84, 69, 65, 67, 72, 69, 82, 186, 71, 82, 65, 80, 69, 186, 67, 73, 84, 82, 85, 83, 186, 83, 69, 65, 76, 186, 66, 65, 78, 75, 69, 82, 186], "trial": 3, "time_elapsed": 660124, "type": "FREE_RECALL", "trial_index": 143}, "uniqueid": "MTK1395:3WI0P0II62ZMFI65FN6EVY5B7RJDRN", "dateTime": 1515871492921}, {"current_trial": 144, "trialdata": {"rt": 1562, "trial_type": "text", "internal_node_id": "0.0-108.0", "time_elapsed": 663688, "key_press": 13, "type": "INSTRUCTIONS", "trial_index": 144}, "uniqueid": "MTK1395:3WI0P0II62ZMFI65FN6EVY5B7RJDRN", "dateTime": 1515871496484}, {"current_trial": 145, "trialdata": {"rt": [5631, 8141, 10335], "trial_type": "math-distractor", "key_times": [2739, 5426, 5631, 7779, 7949, 8141, 9776, 10072, 10335], "responses": ["17", "10", "12"], "num2": [4, 5, 4, 8], "num3": [4, 4, 1, 4], "conditions": [24, 1600, "v", 12000], "internal_node_id": "0.0-109.0", "key_presses": [97, 103, 13, 97, 96, 13, 97, 98, 13], "trial": 4, "time_elapsed": 677691, "type": "DISTRACTOR", "trial_index": 145, "num1": [9, 1, 7, 6]}, "uniqueid": "MTK1395:3WI0P0II62ZMFI65FN6EVY5B7RJDRN", "dateTime": 1515871510487}, {"current_trial": 146, "trialdata": {"rt": -1, "trial_type": "single-stim", "stimulus": "<p id=\"stim\">10</p>", "internal_node_id": "0.0-110.0-0.0", "time_elapsed": 680692, "key_press": -1, "trial_index": 146}, "uniqueid": "MTK1395:3WI0P0II62ZMFI65FN6EVY5B7RJDRN", "dateTime": 1515871513488}, {"current_trial": 147, "trialdata": {"rt": -1, "trial_type": "single-stim", "stimulus": "<p id=\"stim\">9</p>", "internal_node_id": "0.0-110.0-1.0", "time_elapsed": 681693, "key_press": -1, "trial_index": 147}, "uniqueid": "MTK1395:3WI0P0II62ZMFI65FN6EVY5B7RJDRN", "dateTime": 1515871514489}, {"current_trial": 148, "trialdata": {"rt": -1, "trial_type": "single-stim", "stimulus": "<p id=\"stim\">8</p>", "internal_node_id": "0.0-110.0-2.0", "time_elapsed": 682694, "key_press": -1, "trial_index": 148}, "uniqueid": "MTK1395:3WI0P0II62ZMFI65FN6EVY5B7RJDRN", "dateTime": 1515871515490}, {"current_trial": 149, "trialdata": {"rt": -1, "trial_type": "single-stim", "stimulus": "<p id=\"stim\">7</p>", "internal_node_id": "0.0-110.0-3.0", "time_elapsed": 683695, "key_press": -1, "trial_index": 149}, "uniqueid": "MTK1395:3WI0P0II62ZMFI65FN6EVY5B7RJDRN", "dateTime": 1515871516491}, {"current_trial": 150, "trialdata": {"rt": -1, "trial_type": "single-stim", "stimulus": "<p id=\"stim\">6</p>", "internal_node_id": "0.0-110.0-4.0", "time_elapsed": 684696, "key_press": -1, "trial_index": 150}, "uniqueid": "MTK1395:3WI0P0II62ZMFI65FN6EVY5B7RJDRN", "dateTime": 1515871517492}, {"current_trial": 151, "trialdata": {"rt": -1, "trial_type": "single-stim", "stimulus": "<p id=\"stim\">5</p>", "internal_node_id": "0.0-110.0-5.0", "time_elapsed": 685697, "key_press": -1, "trial_index": 151}, "uniqueid": "MTK1395:3WI0P0II62ZMFI65FN6EVY5B7RJDRN", "dateTime": 1515871518493}, {"current_trial": 152, "trialdata": {"rt": -1, "trial_type": "single-stim", "stimulus": "<p id=\"stim\">4</p>", "internal_node_id": "0.0-110.0-6.0", "time_elapsed": 686698, "key_press": -1, "trial_index": 152}, "uniqueid": "MTK1395:3WI0P0II62ZMFI65FN6EVY5B7RJDRN", "dateTime": 1515871519495}, {"current_trial": 153, "trialdata": {"rt": -1, "trial_type": "single-stim", "stimulus": "<p id=\"stim\">3</p>", "internal_node_id": "0.0-110.0-7.0", "time_elapsed": 687700, "key_press": -1, "trial_index": 153}, "uniqueid": "MTK1395:3WI0P0II62ZMFI65FN6EVY5B7RJDRN", "dateTime": 1515871520496}, {"current_trial": 154, "trialdata": {"rt": -1, "trial_type": "single-stim", "stimulus": "<p id=\"stim\">2</p>", "internal_node_id": "0.0-110.0-8.0", "time_elapsed": 688701, "key_press": -1, "trial_index": 154}, "uniqueid": "MTK1395:3WI0P0II62ZMFI65FN6EVY5B7RJDRN", "dateTime": 1515871521497}, {"current_trial": 155, "trialdata": {"rt": -1, "trial_type": "single-stim", "stimulus": "<p id=\"stim\">1</p>", "internal_node_id": "0.0-110.0-9.0", "time_elapsed": 689702, "key_press": -1, "trial_index": 155}, "uniqueid": "MTK1395:3WI0P0II62ZMFI65FN6EVY5B7RJDRN", "dateTime": 1515871522498}, {"current_trial": 156, "trialdata": {"rt": -1, "trial_type": "single-stim", "stimulus": "<p id=\"stim\">+</p>", "internal_node_id": "0.0-111.0-0.0", "time_elapsed": 691203, "key_press": -1, "type": "FIXATION", "trial_index": 156}, "uniqueid": "MTK1395:3WI0P0II62ZMFI65FN6EVY5B7RJDRN", "dateTime": 1515871523999}, {"current_trial": 157, "trialdata": {"rt": -1, "trial_type": "single-stim", "word": "ghetto", "stimulus": "<p id=\"stim\">GHETTO</p>", "conditions": [24, 1600, "v", 12000], "internal_node_id": "0.0-112.0", "trial": 4, "time_elapsed": 692805, "serialpos": 0, "key_press": -1, "wordID": 632, "type": "PRES_VIS", "trial_index": 157}, "uniqueid": "MTK1395:3WI0P0II62ZMFI65FN6EVY5B7RJDRN", "dateTime": 1515871525601}, {"current_trial": 158, "trialdata": {"rt": -1, "trial_type": "single-stim", "word": "preacher", "stimulus": "<p id=\"stim\">PREACHER</p>", "conditions": [24, 1600, "v", 12000], "internal_node_id": "0.0-113.0", "trial": 4, "time_elapsed": 695323, "serialpos": 1, "key_press": -1, "wordID": 1118, "type": "PRES_VIS", "trial_index": 158}, "uniqueid": "MTK1395:3WI0P0II62ZMFI65FN6EVY5B7RJDRN", "dateTime": 1515871528119}, {"current_trial": 159, "trialdata": {"rt": -1, "trial_type": "single-stim", "word": "fox", "stimulus": "<p id=\"stim\">FOX</p>", "conditions": [24, 1600, "v", 12000], "internal_node_id": "0.0-114.0", "trial": 4, "time_elapsed": 697734, "serialpos": 2, "key_press": -1, "wordID": 597, "type": "PRES_VIS", "trial_index": 159}, "uniqueid": "MTK1395:3WI0P0II62ZMFI65FN6EVY5B7RJDRN", "dateTime": 1515871530530}, {"current_trial": 160, "trialdata": {"rt": -1, "trial_type": "single-stim", "word": "robin", "stimulus": "<p id=\"stim\">ROBIN</p>", "conditions": [24, 1600, "v", 12000], "internal_node_id": "0.0-115.0", "trial": 4, "time_elapsed": 700535, "serialpos": 3, "key_press": -1, "wordID": 1198, "type": "PRES_VIS", "trial_index": 160}, "uniqueid": "MTK1395:3WI0P0II62ZMFI65FN6EVY5B7RJDRN", "dateTime": 1515871533331}, {"current_trial": 161, "trialdata": {"rt": -1, "trial_type": "single-stim", "word": "wife", "stimulus": "<p id=\"stim\">WIFE</p>", "conditions": [24, 1600, "v", 12000], "internal_node_id": "0.0-116.0", "trial": 4, "time_elapsed": 703130, "serialpos": 4, "key_press": -1, "wordID": 1608, "type": "PRES_VIS", "trial_index": 161}, "uniqueid": "MTK1395:3WI0P0II62ZMFI65FN6EVY5B7RJDRN", "dateTime": 1515871535926}, {"current_trial": 162, "trialdata": {"rt": -1, "trial_type": "single-stim", "word": "orange", "stimulus": "<p id=\"stim\">ORANGE</p>", "conditions": [24, 1600, "v", 12000], "internal_node_id": "0.0-117.0", "trial": 4, "time_elapsed": 705853, "serialpos": 5, "key_press": -1, "wordID": 979, "type": "PRES_VIS", "trial_index": 162}, "uniqueid": "MTK1395:3WI0P0II62ZMFI65FN6EVY5B7RJDRN", "dateTime": 1515871538650}, {"current_trial": 163, "trialdata": {"rt": -1, "trial_type": "single-stim", "word": "lava", "stimulus": "<p id=\"stim\">LAVA</p>", "conditions": [24, 1600, "v", 12000], "internal_node_id": "0.0-118.0", "trial": 4, "time_elapsed": 708502, "serialpos": 6, "key_press": -1, "wordID": 803, "type": "PRES_VIS", "trial_index": 163}, "uniqueid": "MTK1395:3WI0P0II62ZMFI65FN6EVY5B7RJDRN", "dateTime": 1515871541298}, {"current_trial": 164, "trialdata": {"rt": -1, "trial_type": "single-stim", "word": "stove", "stimulus": "<p id=\"stim\">STOVE</p>", "conditions": [24, 1600, "v", 12000], "internal_node_id": "0.0-119.0", "trial": 4, "time_elapsed": 710958, "serialpos": 7, "key_press": -1, "wordID": 1387, "type": "PRES_VIS", "trial_index": 164}, "uniqueid": "MTK1395:3WI0P0II62ZMFI65FN6EVY5B7RJDRN", "dateTime": 1515871543754}, {"current_trial": 165, "trialdata": {"rt": -1, "trial_type": "single-stim", "word": "chauffeur", "stimulus": "<p id=\"stim\">CHAUFFEUR</p>", "conditions": [24, 1600, "v", 12000], "internal_node_id": "0.0-120.0", "trial": 4, "time_elapsed": 713627, "serialpos": 8, "key_press": -1, "wordID": 282, "type": "PRES_VIS", "trial_index": 165}, "uniqueid": "MTK1395:3WI0P0II62ZMFI65FN6EVY5B7RJDRN", "dateTime": 1515871546423}, {"current_trial": 166, "trialdata": {"rt": -1, "trial_type": "single-stim", "word": "headband", "stimulus": "<p id=\"stim\">HEADBAND</p>", "conditions": [24, 1600, "v", 12000], "internal_node_id": "0.0-121.0", "trial": 4, "time_elapsed": 716370, "serialpos": 9, "key_press": -1, "wordID": 695, "type": "PRES_VIS", "trial_index": 166}, "uniqueid": "MTK1395:3WI0P0II62ZMFI65FN6EVY5B7RJDRN", "dateTime": 1515871549166}, {"current_trial": 167, "trialdata": {"rt": -1, "trial_type": "single-stim", "word": "sister", "stimulus": "<p id=\"stim\">SISTER</p>", "conditions": [24, 1600, "v", 12000], "internal_node_id": "0.0-122.0", "trial": 4, "time_elapsed": 718826, "serialpos": 10, "key_press": -1, "wordID": 1311, "type": "PRES_VIS", "trial_index": 167}, "uniqueid": "MTK1395:3WI0P0II62ZMFI65FN6EVY5B7RJDRN", "dateTime": 1515871551622}, {"current_trial": 168, "trialdata": {"rt": -1, "trial_type": "single-stim", "word": "dragon", "stimulus": "<p id=\"stim\">DRAGON</p>", "conditions": [24, 1600, "v", 12000], "internal_node_id": "0.0-123.0", "trial": 4, "time_elapsed": 721276, "serialpos": 11, "key_press": -1, "wordID": 491, "type": "PRES_VIS", "trial_index": 168}, "uniqueid": "MTK1395:3WI0P0II62ZMFI65FN6EVY5B7RJDRN", "dateTime": 1515871554072}, {"current_trial": 169, "trialdata": {"rt": -1, "trial_type": "single-stim", "word": "mammal", "stimulus": "<p id=\"stim\">MAMMAL</p>", "conditions": [24, 1600, "v", 12000], "internal_node_id": "0.0-124.0", "trial": 4, "time_elapsed": 724007, "serialpos": 12, "key_press": -1, "wordID": 860, "type": "PRES_VIS", "trial_index": 169}, "uniqueid": "MTK1395:3WI0P0II62ZMFI65FN6EVY5B7RJDRN", "dateTime": 1515871556803}, {"current_trial": 170, "trialdata": {"rt": -1, "trial_type": "single-stim", "word": "transplant", "stimulus": "<p id=\"stim\">TRANSPLANT</p>", "conditions": [24, 1600, "v", 12000], "internal_node_id": "0.0-125.0", "trial": 4, "time_elapsed": 726556, "serialpos": 13, "key_press": -1, "wordID": 1495, "type": "PRES_VIS", "trial_index": 170}, "uniqueid": "MTK1395:3WI0P0II62ZMFI65FN6EVY5B7RJDRN", "dateTime": 1515871559353}, {"current_trial": 171, "trialdata": {"rt": -1, "trial_type": "single-stim", "word": "nurse", "stimulus": "<p id=\"stim\">NURSE</p>", "conditions": [24, 1600, "v", 12000], "internal_node_id": "0.0-126.0", "trial": 4, "time_elapsed": 729224, "serialpos": 14, "key_press": -1, "wordID": 962, "type": "PRES_VIS", "trial_index": 171}, "uniqueid": "MTK1395:3WI0P0II62ZMFI65FN6EVY5B7RJDRN", "dateTime": 1515871562020}, {"current_trial": 172, "trialdata": {"rt": -1, "trial_type": "single-stim", "word": "sponge", "stimulus": "<p id=\"stim\">SPONGE</p>", "conditions": [24, 1600, "v", 12000], "internal_node_id": "0.0-127.0", "trial": 4, "time_elapsed": 731727, "serialpos": 15, "key_press": -1, "wordID": 1354, "type": "PRES_VIS", "trial_index": 172}, "uniqueid": "MTK1395:3WI0P0II62ZMFI65FN6EVY5B7RJDRN", "dateTime": 1515871564523}, {"current_trial": 173, "trialdata": {"rt": -1, "trial_type": "single-stim", "word": "waiter", "stimulus": "<p id=\"stim\">WAITER</p>", "conditions": [24, 1600, "v", 12000], "internal_node_id": "0.0-128.0", "trial": 4, "time_elapsed": 734300, "serialpos": 16, "key_press": -1, "wordID": 1579, "type": "PRES_VIS", "trial_index": 173}, "uniqueid": "MTK1395:3WI0P0II62ZMFI65FN6EVY5B7RJDRN", "dateTime": 1515871567097}, {"current_trial": 174, "trialdata": {"rt": -1, "trial_type": "single-stim", "word": "diner", "stimulus": "<p id=\"stim\">DINER</p>", "conditions": [24, 1600, "v", 12000], "internal_node_id": "0.0-129.0", "trial": 4, "time_elapsed": 736868, "serialpos": 17, "key_press": -1, "wordID": 466, "type": "PRES_VIS", "trial_index": 174}, "uniqueid": "MTK1395:3WI0P0II62ZMFI65FN6EVY5B7RJDRN", "dateTime": 1515871569664}, {"current_trial": 175, "trialdata": {"rt": -1, "trial_type": "single-stim", "word": "scallop", "stimulus": "<p id=\"stim\">SCALLOP</p>", "conditions": [24, 1600, "v", 12000], "internal_node_id": "0.0-130.0", "trial": 4, "time_elapsed": 739285, "serialpos": 18, "key_press": -1, "wordID": 1241, "type": "PRES_VIS", "trial_index": 175}, "uniqueid": "MTK1395:3WI0P0II62ZMFI65FN6EVY5B7RJDRN", "dateTime": 1515871572081}, {"current_trial": 176, "trialdata": {"rt": -1, "trial_type": "single-stim", "word": "child", "stimulus": "<p id=\"stim\">CHILD</p>", "conditions": [24, 1600, "v", 12000], "internal_node_id": "0.0-131.0", "trial": 4, "time_elapsed": 741819, "serialpos": 19, "key_press": -1, "wordID": 298, "type": "PRES_VIS", "trial_index": 176}, "uniqueid": "MTK1395:3WI0P0II62ZMFI65FN6EVY5B7RJDRN", "dateTime": 1515871574615}, {"current_trial": 177, "trialdata": {"rt": -1, "trial_type": "single-stim", "word": "tractor", "stimulus": "<p id=\"stim\">TRACTOR</p>", "conditions": [24, 1600, "v", 12000], "internal_node_id": "0.0-132.0", "trial": 4, "time_elapsed": 744318, "serialpos": 20, "key_press": -1, "wordID": 1492, "type": "PRES_VIS", "trial_index": 177}, "uniqueid": "MTK1395:3WI0P0II62ZMFI65FN6EVY5B7RJDRN", "dateTime": 1515871577114}, {"current_trial": 178, "trialdata": {"rt": -1, "trial_type": "single-stim", "word": "gymnast", "stimulus": "<p id=\"stim\">GYMNAST</p>", "conditions": [24, 1600, "v", 12000], "internal_node_id": "0.0-133.0", "trial": 4, "time_elapsed": 746935, "serialpos": 21, "key_press": -1, "wordID": 674, "type": "PRES_VIS", "trial_index": 178}, "uniqueid": "MTK1395:3WI0P0II62ZMFI65FN6EVY5B7RJDRN", "dateTime": 1515871579731}, {"current_trial": 179, "trialdata": {"rt": -1, "trial_type": "single-stim", "word": "denim", "stimulus": "<p id=\"stim\">DENIM</p>", "conditions": [24, 1600, "v", 12000], "internal_node_id": "0.0-134.0", "trial": 4, "time_elapsed": 749449, "serialpos": 22, "key_press": -1, "wordID": 445, "type": "PRES_VIS", "trial_index": 179}, "uniqueid": "MTK1395:3WI0P0II62ZMFI65FN6EVY5B7RJDRN", "dateTime": 1515871582245}, {"current_trial": 180, "trialdata": {"rt": -1, "trial_type": "single-stim", "word": "turtle", "stimulus": "<p id=\"stim\">TURTLE</p>", "conditions": [24, 1600, "v", 12000], "internal_node_id": "0.0-135.0", "trial": 4, "time_elapsed": 751987, "serialpos": 23, "key_press": -1, "wordID": 1521, "type": "PRES_VIS", "trial_index": 180}, "uniqueid": "MTK1395:3WI0P0II62ZMFI65FN6EVY5B7RJDRN", "dateTime": 1515871584783}, {"current_trial": 181, "trialdata": {"rt": -1, "trial_type": "single-stim", "stimulus": "", "internal_node_id": "0.0-136.0-0.0", "time_elapsed": 754438, "key_press": -1, "type": "PRE_RECALL_DELAY", "trial_index": 181}, "uniqueid": "MTK1395:3WI0P0II62ZMFI65FN6EVY5B7RJDRN", "dateTime": 1515871587234}, {"current_trial": 182, "trialdata": {"rt": -1000, "trial_type": "single-audio", "stimulus": "/static/audio/400Hz.wav", "internal_node_id": "0.0-137.0", "time_elapsed": 754939, "key_press": -1, "type": "PRE_RECALL_ALERT", "trial_index": 182}, "uniqueid": "MTK1395:3WI0P0II62ZMFI65FN6EVY5B7RJDRN", "dateTime": 1515871587735}, {"current_trial": 183, "trialdata": {"rt": [1977, 3755, 4824, 8214, 12587, 16398, 18849], "recwords": ["ghetto", "preacher", "child", "gymnast", "water", "diner", "scallop"], "key_times": [758, 894, 1052, 1226, 1427, 1507, 1977, 2641, 2760, 2845, 2961, 3271, 3444, 3517, 3623, 3755, 4294, 4348, 4444, 4521, 4607, 4824, 5372, 5516, 5893, 6347, 6459, 6749, 6858, 8214, 11566, 11677, 11842, 11967, 12081, 12587, 15386, 15521, 15615, 15709, 15792, 16398, 16841, 17023, 17222, 17420, 17610, 17887, 18172, 18849], "trial_type": "free-recall", "conditions": [24, 1600, "v", 12000], "internal_node_id": "0.0-138.0-0.0", "key_presses": [71, 72, 69, 84, 84, 79, 186, 80, 82, 69, 65, 67, 72, 69, 82, 186, 67, 72, 73, 76, 68, 186, 71, 89, 77, 78, 65, 83, 84, 186, 87, 65, 84, 69, 82, 186, 68, 73, 78, 69, 82, 186, 83, 67, 65, 76, 76, 79, 80, 186], "trial": 4, "time_elapsed": 814941, "type": "FREE_RECALL", "trial_index": 183}, "uniqueid": "MTK1395:3WI0P0II62ZMFI65FN6EVY5B7RJDRN", "dateTime": 1515871647739}, {"current_trial": 184, "trialdata": {"rt": 3430, "trial_type": "text", "internal_node_id": "0.0-139.0", "time_elapsed": 820374, "key_press": 13, "type": "INSTRUCTIONS", "trial_index": 184}, "uniqueid": "MTK1395:3WI0P0II62ZMFI65FN6EVY5B7RJDRN", "dateTime": 1515871653170}, {"current_trial": 185, "trialdata": {"rt": [3195, 7316, 10105, 13213, 15362, 18616, 22713], "trial_type": "math-distractor", "key_times": [2150, 2268, 3195, 7018, 7194, 7316, 9860, 9949, 10105, 12981, 13104, 13213, 15172, 15362, 18292, 18440, 18616, 22271, 22384, 22713], "responses": ["16", "22", "20", "10", "8", "18", "12"], "num2": [8, 6, 9, 3, 1, 7, 1, 4], "num3": [7, 7, 5, 2, 5, 6, 8, 4], "conditions": [12, 1600, "v", 24000], "internal_node_id": "0.0-140.0", "key_presses": [97, 102, 13, 98, 98, 13, 98, 96, 13, 97, 96, 13, 104, 13, 97, 104, 13, 97, 98, 13], "trial": 5, "time_elapsed": 846377, "type": "DISTRACTOR", "trial_index": 185, "num1": [1, 8, 6, 5, 2, 5, 3, 2]}, "uniqueid": "MTK1395:3WI0P0II62ZMFI65FN6EVY5B7RJDRN", "dateTime": 1515871679173}, {"current_trial": 186, "trialdata": {"rt": -1, "trial_type": "single-stim", "stimulus": "<p id=\"stim\">10</p>", "internal_node_id": "0.0-141.0-0.0", "time_elapsed": 849379, "key_press": -1, "trial_index": 186}, "uniqueid": "MTK1395:3WI0P0II62ZMFI65FN6EVY5B7RJDRN", "dateTime": 1515871682175}, {"current_trial": 187, "trialdata": {"rt": -1, "trial_type": "single-stim", "stimulus": "<p id=\"stim\">9</p>", "internal_node_id": "0.0-141.0-1.0", "time_elapsed": 850380, "key_press": -1, "trial_index": 187}, "uniqueid": "MTK1395:3WI0P0II62ZMFI65FN6EVY5B7RJDRN", "dateTime": 1515871683176}, {"current_trial": 188, "trialdata": {"rt": -1, "trial_type": "single-stim", "stimulus": "<p id=\"stim\">8</p>", "internal_node_id": "0.0-141.0-2.0", "time_elapsed": 851381, "key_press": -1, "trial_index": 188}, "uniqueid": "MTK1395:3WI0P0II62ZMFI65FN6EVY5B7RJDRN", "dateTime": 1515871684177}, {"current_trial": 189, "trialdata": {"rt": -1, "trial_type": "single-stim", "stimulus": "<p id=\"stim\">7</p>", "internal_node_id": "0.0-141.0-3.0", "time_elapsed": 852382, "key_press": -1, "trial_index": 189}, "uniqueid": "MTK1395:3WI0P0II62ZMFI65FN6EVY5B7RJDRN", "dateTime": 1515871685178}, {"current_trial": 190, "trialdata": {"rt": -1, "trial_type": "single-stim", "stimulus": "<p id=\"stim\">6</p>", "internal_node_id": "0.0-141.0-4.0", "time_elapsed": 853384, "key_press": -1, "trial_index": 190}, "uniqueid": "MTK1395:3WI0P0II62ZMFI65FN6EVY5B7RJDRN", "dateTime": 1515871686180}, {"current_trial": 191, "trialdata": {"rt": -1, "trial_type": "single-stim", "stimulus": "<p id=\"stim\">5</p>", "internal_node_id": "0.0-141.0-5.0", "time_elapsed": 854385, "key_press": -1, "trial_index": 191}, "uniqueid": "MTK1395:3WI0P0II62ZMFI65FN6EVY5B7RJDRN", "dateTime": 1515871687181}, {"current_trial": 192, "trialdata": {"rt": -1, "trial_type": "single-stim", "stimulus": "<p id=\"stim\">4</p>", "internal_node_id": "0.0-141.0-6.0", "time_elapsed": 855386, "key_press": -1, "trial_index": 192}, "uniqueid": "MTK1395:3WI0P0II62ZMFI65FN6EVY5B7RJDRN", "dateTime": 1515871688182}, {"current_trial": 193, "trialdata": {"rt": -1, "trial_type": "single-stim", "stimulus": "<p id=\"stim\">3</p>", "internal_node_id": "0.0-141.0-7.0", "time_elapsed": 856388, "key_press": -1, "trial_index": 193}, "uniqueid": "MTK1395:3WI0P0II62ZMFI65FN6EVY5B7RJDRN", "dateTime": 1515871689184}, {"current_trial": 194, "trialdata": {"rt": -1, "trial_type": "single-stim", "stimulus": "<p id=\"stim\">2</p>", "internal_node_id": "0.0-141.0-8.0", "time_elapsed": 857389, "key_press": -1, "trial_index": 194}, "uniqueid": "MTK1395:3WI0P0II62ZMFI65FN6EVY5B7RJDRN", "dateTime": 1515871690185}, {"current_trial": 195, "trialdata": {"rt": -1, "trial_type": "single-stim", "stimulus": "<p id=\"stim\">1</p>", "internal_node_id": "0.0-141.0-9.0", "time_elapsed": 858390, "key_press": -1, "trial_index": 195}, "uniqueid": "MTK1395:3WI0P0II62ZMFI65FN6EVY5B7RJDRN", "dateTime": 1515871691186}, {"current_trial": 196, "trialdata": {"rt": -1, "trial_type": "single-stim", "stimulus": "<p id=\"stim\">+</p>", "internal_node_id": "0.0-142.0-0.0", "time_elapsed": 859891, "key_press": -1, "type": "FIXATION", "trial_index": 196}, "uniqueid": "MTK1395:3WI0P0II62ZMFI65FN6EVY5B7RJDRN", "dateTime": 1515871692687}, {"current_trial": 197, "trialdata": {"rt": -1, "trial_type": "single-stim", "word": "leader", "stimulus": "<p id=\"stim\">LEADER</p>", "conditions": [12, 1600, "v", 24000], "internal_node_id": "0.0-143.0", "trial": 5, "time_elapsed": 861492, "serialpos": 0, "key_press": -1, "wordID": 806, "type": "PRES_VIS", "trial_index": 197}, "uniqueid": "MTK1395:3WI0P0II62ZMFI65FN6EVY5B7RJDRN", "dateTime": 1515871694288}, {"current_trial": 198, "trialdata": {"rt": -1, "trial_type": "single-stim", "word": "critic", "stimulus": "<p id=\"stim\">CRITIC</p>", "conditions": [12, 1600, "v", 24000], "internal_node_id": "0.0-144.0", "trial": 5, "time_elapsed": 864259, "serialpos": 1, "key_press": -1, "wordID": 409, "type": "PRES_VIS", "trial_index": 198}, "uniqueid": "MTK1395:3WI0P0II62ZMFI65FN6EVY5B7RJDRN", "dateTime": 1515871697055}, {"current_trial": 199, "trialdata": {"rt": -1, "trial_type": "single-stim", "word": "truck", "stimulus": "<p id=\"stim\">TRUCK</p>", "conditions": [12, 1600, "v", 24000], "internal_node_id": "0.0-145.0", "trial": 5, "time_elapsed": 866683, "serialpos": 2, "key_press": -1, "wordID": 1511, "type": "PRES_VIS", "trial_index": 199}, "uniqueid": "MTK1395:3WI0P0II62ZMFI65FN6EVY5B7RJDRN", "dateTime": 1515871699479}, {"current_trial": 200, "trialdata": {"rt": -1, "trial_type": "single-stim", "word": "buggy", "stimulus": "<p id=\"stim\">BUGGY</p>", "conditions": [12, 1600, "v", 24000], "internal_node_id": "0.0-146.0", "trial": 5, "time_elapsed": 869144, "serialpos": 3, "key_press": -1, "wordID": 187, "type": "PRES_VIS", "trial_index": 200}, "uniqueid": "MTK1395:3WI0P0II62ZMFI65FN6EVY5B7RJDRN", "dateTime": 1515871701940}, {"current_trial": 201, "trialdata": {"rt": -1, "trial_type": "single-stim", "word": "driver", "stimulus": "<p id=\"stim\">DRIVER</p>", "conditions": [12, 1600, "v", 24000], "internal_node_id": "0.0-147.0", "trial": 5, "time_elapsed": 871778, "serialpos": 4, "key_press": -1, "wordID": 498, "type": "PRES_VIS", "trial_index": 201}, "uniqueid": "MTK1395:3WI0P0II62ZMFI65FN6EVY5B7RJDRN", "dateTime": 1515871704574}, {"current_trial": 202, "trialdata": {"rt": -1, "trial_type": "single-stim", "word": "worker", "stimulus": "<p id=\"stim\">WORKER</p>", "conditions": [12, 1600, "v", 24000], "internal_node_id": "0.0-148.0", "trial": 5, "time_elapsed": 874532, "serialpos": 5, "key_press": -1, "wordID": 1620, "type": "PRES_VIS", "trial_index": 202}, "uniqueid": "MTK1395:3WI0P0II62ZMFI65FN6EVY5B7RJDRN", "dateTime": 1515871707328}, {"current_trial": 203, "trialdata": {"rt": -1, "trial_type": "single-stim", "word": "perch", "stimulus": "<p id=\"stim\">PERCH</p>", "conditions": [12, 1600, "v", 24000], "internal_node_id": "0.0-149.0", "trial": 5, "time_elapsed": 877165, "serialpos": 6, "key_press": -1, "wordID": 1047, "type": "PRES_VIS", "trial_index": 203}, "uniqueid": "MTK1395:3WI0P0II62ZMFI65FN6EVY5B7RJDRN", "dateTime": 1515871709961}, {"current_trial": 204, "trialdata": {"rt": -1, "trial_type": "single-stim", "word": "skirt", "stimulus": "<p id=\"stim\">SKIRT</p>", "conditions": [12, 1600, "v", 24000], "internal_node_id": "0.0-150.0", "trial": 5, "time_elapsed": 879738, "serialpos": 7, "key_press": -1, "wordID": 1318, "type": "PRES_VIS", "trial_index": 204}, "uniqueid": "MTK1395:3WI0P0II62ZMFI65FN6EVY5B7RJDRN", "dateTime": 1515871712534}, {"current_trial": 205, "trialdata": {"rt": -1, "trial_type": "single-stim", "word": "blouse", "stimulus": "<p id=\"stim\">BLOUSE</p>", "conditions": [12, 1600, "v", 24000], "internal_node_id": "0.0-151.0", "trial": 5, "time_elapsed": 882208, "serialpos": 8, "key_press": -1, "wordID": 138, "type": "PRES_VIS", "trial_index": 205}, "uniqueid": "MTK1395:3WI0P0II62ZMFI65FN6EVY5B7RJDRN", "dateTime": 1515871715004}, {"current_trial": 206, "trialdata": {"rt": -1, "trial_type": "single-stim", "word": "wagon", "stimulus": "<p id=\"stim\">WAGON</p>", "conditions": [12, 1600, "v", 24000], "internal_node_id": "0.0-152.0", "trial": 5, "time_elapsed": 884679, "serialpos": 9, "key_press": -1, "wordID": 1577, "type": "PRES_VIS", "trial_index": 206}, "uniqueid": "MTK1395:3WI0P0II62ZMFI65FN6EVY5B7RJDRN", "dateTime": 1515871717475}, {"current_trial": 207, "trialdata": {"rt": -1, "trial_type": "single-stim", "word": "pimple", "stimulus": "<p id=\"stim\">PIMPLE</p>", "conditions": [12, 1600, "v", 24000], "internal_node_id": "0.0-153.0", "trial": 5, "time_elapsed": 887370, "serialpos": 10, "key_press": -1, "wordID": 1070, "type": "PRES_VIS", "trial_index": 207}, "uniqueid": "MTK1395:3WI0P0II62ZMFI65FN6EVY5B7RJDRN", "dateTime": 1515871720166}, {"current_trial": 208, "trialdata": {"rt": -1, "trial_type": "single-stim", "word": "cashew", "stimulus": "<p id=\"stim\">CASHEW</p>", "conditions": [12, 1600, "v", 24000], "internal_node_id": "0.0-154.0", "trial": 5, "time_elapsed": 889912, "serialpos": 11, "key_press": -1, "wordID": 252, "type": "PRES_VIS", "trial_index": 208}, "uniqueid": "MTK1395:3WI0P0II62ZMFI65FN6EVY5B7RJDRN", "dateTime": 1515871722708}, {"current_trial": 209, "trialdata": {"rt": -1, "trial_type": "single-stim", "stimulus": "", "internal_node_id": "0.0-155.0-0.0", "time_elapsed": 892379, "key_press": -1, "type": "PRE_RECALL_DELAY", "trial_index": 209}, "uniqueid": "MTK1395:3WI0P0II62ZMFI65FN6EVY5B7RJDRN", "dateTime": 1515871725175}, {"current_trial": 210, "trialdata": {"rt": -1000, "trial_type": "single-audio", "stimulus": "/static/audio/400Hz.wav", "internal_node_id": "0.0-156.0", "time_elapsed": 892879, "key_press": -1, "type": "PRE_RECALL_ALERT", "trial_index": 210}, "uniqueid": "MTK1395:3WI0P0II62ZMFI65FN6EVY5B7RJDRN", "dateTime": 1515871725675}, {"current_trial": 211, "trialdata": {"rt": [2000, 3401, 4507, 7262, 9780, 11729, 14428], "recwords": ["casher", "driver", "truck", "buggy", "pimple", "blouse", "cashew"], "key_times": [973, 1127, 1199, 1308, 1450, 1531, 2000, 2458, 2713, 2832, 2972, 3116, 3272, 3401, 3629, 3836, 4020, 4210, 4308, 4507, 5068, 5273, 5343, 5527, 5750, 7262, 7773, 7893, 8055, 8081, 8639, 9037, 9242, 9540, 9780, 10286, 10491, 10720, 10832, 10938, 11017, 11729, 12862, 13005, 13079, 13217, 13333, 13435, 13917, 14046, 14428], "trial_type": "free-recall", "conditions": [12, 1600, "v", 24000], "internal_node_id": "0.0-157.0-0.0", "key_presses": [67, 65, 83, 72, 69, 82, 186, 68, 82, 73, 86, 69, 82, 186, 84, 82, 85, 67, 75, 186, 66, 85, 71, 71, 89, 186, 80, 73, 77, 78, 8, 80, 76, 69, 186, 66, 76, 79, 85, 83, 69, 186, 67, 65, 83, 72, 69, 82, 8, 87, 186], "trial": 5, "time_elapsed": 952882, "type": "FREE_RECALL", "trial_index": 211}, "uniqueid": "MTK1395:3WI0P0II62ZMFI65FN6EVY5B7RJDRN", "dateTime": 1515871785679}, {"current_trial": 212, "trialdata": {"rt": 1134, "trial_type": "text", "internal_node_id": "0.0-158.0", "time_elapsed": 956018, "key_press": 13, "type": "INSTRUCTIONS", "trial_index": 212}, "uniqueid": "MTK1395:3WI0P0II62ZMFI65FN6EVY5B7RJDRN", "dateTime": 1515871788814}, {"current_trial": 213, "trialdata": {"rt": [2115, 4077, 5940, 7842, 9315, 11943, 15937, 20865], "trial_type": "math-distractor", "key_times": [1874, 1972, 2115, 3563, 3659, 4077, 5584, 5718, 5940, 7514, 7675, 7842, 9143, 9315, 11408, 11726, 11943, 14834, 15636, 15937, 19975, 20109, 20865], "responses": ["15", "13", "16", "14", "7", "16", "16", "15"], "num2": [6, 8, 4, 5, 3, 1, 5, 6, 4], "num3": [7, 1, 6, 3, 1, 7, 6, 1, 8], "conditions": [24, 800, "v", 24000], "internal_node_id": "0.0-159.0", "key_presses": [97, 101, 13, 97, 99, 13, 97, 102, 13, 97, 100, 13, 103, 13, 97, 102, 13, 97, 102, 13, 97, 101, 13], "trial": 6, "time_elapsed": 982021, "type": "DISTRACTOR", "trial_index": 213, "num1": [2, 4, 6, 6, 3, 8, 3, 8, 3]}, "uniqueid": "MTK1395:3WI0P0II62ZMFI65FN6EVY5B7RJDRN", "dateTime": 1515871814817}, {"current_trial": 214, "trialdata": {"rt": -1, "trial_type": "single-stim", "stimulus": "<p id=\"stim\">10</p>", "internal_node_id": "0.0-160.0-0.0", "time_elapsed": 985022, "key_press": -1, "trial_index": 214}, "uniqueid": "MTK1395:3WI0P0II62ZMFI65FN6EVY5B7RJDRN", "dateTime": 1515871817818}, {"current_trial": 215, "trialdata": {"rt": -1, "trial_type": "single-stim", "stimulus": "<p id=\"stim\">9</p>", "internal_node_id": "0.0-160.0-1.0", "time_elapsed": 986024, "key_press": -1, "trial_index": 215}, "uniqueid": "MTK1395:3WI0P0II62ZMFI65FN6EVY5B7RJDRN", "dateTime": 1515871818820}, {"current_trial": 216, "trialdata": {"rt": -1, "trial_type": "single-stim", "stimulus": "<p id=\"stim\">8</p>", "internal_node_id": "0.0-160.0-2.0", "time_elapsed": 987025, "key_press": -1, "trial_index": 216}, "uniqueid": "MTK1395:3WI0P0II62ZMFI65FN6EVY5B7RJDRN", "dateTime": 1515871819821}, {"current_trial": 217, "trialdata": {"rt": -1, "trial_type": "single-stim", "stimulus": "<p id=\"stim\">7</p>", "internal_node_id": "0.0-160.0-3.0", "time_elapsed": 988026, "key_press": -1, "trial_index": 217}, "uniqueid": "MTK1395:3WI0P0II62ZMFI65FN6EVY5B7RJDRN", "dateTime": 1515871820822}, {"current_trial": 218, "trialdata": {"rt": -1, "trial_type": "single-stim", "stimulus": "<p id=\"stim\">6</p>", "internal_node_id": "0.0-160.0-4.0", "time_elapsed": 989028, "key_press": -1, "trial_index": 218}, "uniqueid": "MTK1395:3WI0P0II62ZMFI65FN6EVY5B7RJDRN", "dateTime": 1515871821824}, {"current_trial": 219, "trialdata": {"rt": -1, "trial_type": "single-stim", "stimulus": "<p id=\"stim\">5</p>", "internal_node_id": "0.0-160.0-5.0", "time_elapsed": 990028, "key_press": -1, "trial_index": 219}, "uniqueid": "MTK1395:3WI0P0II62ZMFI65FN6EVY5B7RJDRN", "dateTime": 1515871822824}, {"current_trial": 220, "trialdata": {"rt": -1, "trial_type": "single-stim", "stimulus": "<p id=\"stim\">4</p>", "internal_node_id": "0.0-160.0-6.0", "time_elapsed": 991030, "key_press": -1, "trial_index": 220}, "uniqueid": "MTK1395:3WI0P0II62ZMFI65FN6EVY5B7RJDRN", "dateTime": 1515871823826}, {"current_trial": 221, "trialdata": {"rt": -1, "trial_type": "single-stim", "stimulus": "<p id=\"stim\">3</p>", "internal_node_id": "0.0-160.0-7.0", "time_elapsed": 992031, "key_press": -1, "trial_index": 221}, "uniqueid": "MTK1395:3WI0P0II62ZMFI65FN6EVY5B7RJDRN", "dateTime": 1515871824827}, {"current_trial": 222, "trialdata": {"rt": -1, "trial_type": "single-stim", "stimulus": "<p id=\"stim\">2</p>", "internal_node_id": "0.0-160.0-8.0", "time_elapsed": 993032, "key_press": -1, "trial_index": 222}, "uniqueid": "MTK1395:3WI0P0II62ZMFI65FN6EVY5B7RJDRN", "dateTime": 1515871825828}, {"current_trial": 223, "trialdata": {"rt": -1, "trial_type": "single-stim", "stimulus": "<p id=\"stim\">1</p>", "internal_node_id": "0.0-160.0-9.0", "time_elapsed": 994033, "key_press": -1, "trial_index": 223}, "uniqueid": "MTK1395:3WI0P0II62ZMFI65FN6EVY5B7RJDRN", "dateTime": 1515871826829}, {"current_trial": 224, "trialdata": {"rt": -1, "trial_type": "single-stim", "stimulus": "<p id=\"stim\">+</p>", "internal_node_id": "0.0-161.0-0.0", "time_elapsed": 995535, "key_press": -1, "type": "FIXATION", "trial_index": 224}, "uniqueid": "MTK1395:3WI0P0II62ZMFI65FN6EVY5B7RJDRN", "dateTime": 1515871828331}, {"current_trial": 225, "trialdata": {"rt": -1, "trial_type": "single-stim", "word": "body", "stimulus": "<p id=\"stim\">BODY</p>", "conditions": [24, 800, "v", 24000], "internal_node_id": "0.0-162.0", "trial": 6, "time_elapsed": 996335, "serialpos": 0, "key_press": -1, "wordID": 144, "type": "PRES_VIS", "trial_index": 225}, "uniqueid": "MTK1395:3WI0P0II62ZMFI65FN6EVY5B7RJDRN", "dateTime": 1515871829132}, {"current_trial": 226, "trialdata": {"rt": -1, "trial_type": "single-stim", "word": "blade", "stimulus": "<p id=\"stim\">BLADE</p>", "conditions": [24, 800, "v", 24000], "internal_node_id": "0.0-163.0", "trial": 6, "time_elapsed": 998149, "serialpos": 1, "key_press": -1, "wordID": 133, "type": "PRES_VIS", "trial_index": 226}, "uniqueid": "MTK1395:3WI0P0II62ZMFI65FN6EVY5B7RJDRN", "dateTime": 1515871830945}, {"current_trial": 227, "trialdata": {"rt": -1, "trial_type": "single-stim", "word": "shovel", "stimulus": "<p id=\"stim\">SHOVEL</p>", "conditions": [24, 800, "v", 24000], "internal_node_id": "0.0-164.0", "trial": 6, "time_elapsed": 999777, "serialpos": 2, "key_press": -1, "wordID": 1294, "type": "PRES_VIS", "trial_index": 227}, "uniqueid": "MTK1395:3WI0P0II62ZMFI65FN6EVY5B7RJDRN", "dateTime": 1515871832573}, {"current_trial": 228, "trialdata": {"rt": -1, "trial_type": "single-stim", "word": "crab", "stimulus": "<p id=\"stim\">CRAB</p>", "conditions": [24, 800, "v", 24000], "internal_node_id": "0.0-165.0", "trial": 6, "time_elapsed": 1001668, "serialpos": 3, "key_press": -1, "wordID": 396, "type": "PRES_VIS", "trial_index": 228}, "uniqueid": "MTK1395:3WI0P0II62ZMFI65FN6EVY5B7RJDRN", "dateTime": 1515871834464}, {"current_trial": 229, "trialdata": {"rt": -1, "trial_type": "single-stim", "word": "clam", "stimulus": "<p id=\"stim\">CLAM</p>", "conditions": [24, 800, "v", 24000], "internal_node_id": "0.0-166.0", "trial": 6, "time_elapsed": 1003368, "serialpos": 4, "key_press": -1, "wordID": 314, "type": "PRES_VIS", "trial_index": 229}, "uniqueid": "MTK1395:3WI0P0II62ZMFI65FN6EVY5B7RJDRN", "dateTime": 1515871836164}, {"current_trial": 230, "trialdata": {"rt": -1, "trial_type": "single-stim", "word": "razor", "stimulus": "<p id=\"stim\">RAZOR</p>", "conditions": [24, 800, "v", 24000], "internal_node_id": "0.0-167.0", "trial": 6, "time_elapsed": 1005083, "serialpos": 5, "key_press": -1, "wordID": 1170, "type": "PRES_VIS", "trial_index": 230}, "uniqueid": "MTK1395:3WI0P0II62ZMFI65FN6EVY5B7RJDRN", "dateTime": 1515871837879}, {"current_trial": 231, "trialdata": {"rt": -1, "trial_type": "single-stim", "word": "chemist", "stimulus": "<p id=\"stim\">CHEMIST</p>", "conditions": [24, 800, "v", 24000], "internal_node_id": "0.0-168.0", "trial": 6, "time_elapsed": 1006986, "serialpos": 6, "key_press": -1, "wordID": 291, "type": "PRES_VIS", "trial_index": 231}, "uniqueid": "MTK1395:3WI0P0II62ZMFI65FN6EVY5B7RJDRN", "dateTime": 1515871839782}, {"current_trial": 232, "trialdata": {"rt": -1, "trial_type": "single-stim", "word": "uncle", "stimulus": "<p id=\"stim\">UNCLE</p>", "conditions": [24, 800, "v", 24000], "internal_node_id": "0.0-169.0", "trial": 6, "time_elapsed": 1008867, "serialpos": 7, "key_press": -1, "wordID": 1535, "type": "PRES_VIS", "trial_index": 232}, "uniqueid": "MTK1395:3WI0P0II62ZMFI65FN6EVY5B7RJDRN", "dateTime": 1515871841663}, {"current_trial": 233, "trialdata": {"rt": -1, "trial_type": "single-stim", "word": "snail", "stimulus": "<p id=\"stim\">SNAIL</p>", "conditions": [24, 800, "v", 24000], "internal_node_id": "0.0-170.0", "trial": 6, "time_elapsed": 1010726, "serialpos": 8, "key_press": -1, "wordID": 1331, "type": "PRES_VIS", "trial_index": 233}, "uniqueid": "MTK1395:3WI0P0II62ZMFI65FN6EVY5B7RJDRN", "dateTime": 1515871843523}, {"current_trial": 234, "trialdata": {"rt": -1, "trial_type": "single-stim", "word": "foot", "stimulus": "<p id=\"stim\">FOOT</p>", "conditions": [24, 800, "v", 24000], "internal_node_id": "0.0-171.0", "trial": 6, "time_elapsed": 1012563, "serialpos": 9, "key_press": -1, "wordID": 589, "type": "PRES_VIS", "trial_index": 234}, "uniqueid": "MTK1395:3WI0P0II62ZMFI65FN6EVY5B7RJDRN", "dateTime": 1515871845359}, {"current_trial": 235, "trialdata": {"rt": -1, "trial_type": "single-stim", "word": "ground", "stimulus": "<p id=\"stim\">GROUND</p>", "conditions": [24, 800, "v", 24000], "internal_node_id": "0.0-172.0", "trial": 6, "time_elapsed": 1014366, "serialpos": 10, "key_press": -1, "wordID": 665, "type": "PRES_VIS", "trial_index": 235}, "uniqueid": "MTK1395:3WI0P0II62ZMFI65FN6EVY5B7RJDRN", "dateTime": 1515871847162}, {"current_trial": 236, "trialdata": {"rt": -1, "trial_type": "single-stim", "word": "switch", "stimulus": "<p id=\"stim\">SWITCH</p>", "conditions": [24, 800, "v", 24000], "internal_node_id": "0.0-173.0", "trial": 6, "time_elapsed": 1016327, "serialpos": 11, "key_press": -1, "wordID": 1421, "type": "PRES_VIS", "trial_index": 236}, "uniqueid": "MTK1395:3WI0P0II62ZMFI65FN6EVY5B7RJDRN", "dateTime": 1515871849124}, {"current_trial": 237, "trialdata": {"rt": -1, "trial_type": "single-stim", "word": "barrel", "stimulus": "<p id=\"stim\">BARREL</p>", "conditions": [24, 800, "v", 24000], "internal_node_id": "0.0-174.0", "trial": 6, "time_elapsed": 1018216, "serialpos": 12, "key_press": -1, "wordID": 90, "type": "PRES_VIS", "trial_index": 237}, "uniqueid": "MTK1395:3WI0P0II62ZMFI65FN6EVY5B7RJDRN", "dateTime": 1515871851012}, {"current_trial": 238, "trialdata": {"rt": -1, "trial_type": "single-stim", "word": "princess", "stimulus": "<p id=\"stim\">PRINCESS</p>", "conditions": [24, 800, "v", 24000], "internal_node_id": "0.0-175.0", "trial": 6, "time_elapsed": 1020002, "serialpos": 13, "key_press": -1, "wordID": 1124, "type": "PRES_VIS", "trial_index": 238}, "uniqueid": "MTK1395:3WI0P0II62ZMFI65FN6EVY5B7RJDRN", "dateTime": 1515871852798}, {"current_trial": 239, "trialdata": {"rt": -1, "trial_type": "single-stim", "word": "banquet", "stimulus": "<p id=\"stim\">BANQUET</p>", "conditions": [24, 800, "v", 24000], "internal_node_id": "0.0-176.0", "trial": 6, "time_elapsed": 1021884, "serialpos": 14, "key_press": -1, "wordID": 85, "type": "PRES_VIS", "trial_index": 239}, "uniqueid": "MTK1395:3WI0P0II62ZMFI65FN6EVY5B7RJDRN", "dateTime": 1515871854680}, {"current_trial": 240, "trialdata": {"rt": -1, "trial_type": "single-stim", "word": "egypt", "stimulus": "<p id=\"stim\">EGYPT</p>", "conditions": [24, 800, "v", 24000], "internal_node_id": "0.0-177.0", "trial": 6, "time_elapsed": 1023622, "serialpos": 15, "key_press": -1, "wordID": 518, "type": "PRES_VIS", "trial_index": 240}, "uniqueid": "MTK1395:3WI0P0II62ZMFI65FN6EVY5B7RJDRN", "dateTime": 1515871856418}, {"current_trial": 241, "trialdata": {"rt": -1, "trial_type": "single-stim", "word": "mattress", "stimulus": "<p id=\"stim\">MATTRESS</p>", "conditions": [24, 800, "v", 24000], "internal_node_id": "0.0-178.0", "trial": 6, "time_elapsed": 1025565, "serialpos": 16, "key_press": -1, "wordID": 878, "type": "PRES_VIS", "trial_index": 241}, "uniqueid": "MTK1395:3WI0P0II62ZMFI65FN6EVY5B7RJDRN", "dateTime": 1515871858361}, {"current_trial": 242, "trialdata": {"rt": -1, "trial_type": "single-stim", "word": "flute", "stimulus": "<p id=\"stim\">FLUTE</p>", "conditions": [24, 800, "v", 24000], "internal_node_id": "0.0-179.0", "trial": 6, "time_elapsed": 1027192, "serialpos": 17, "key_press": -1, "wordID": 584, "type": "PRES_VIS", "trial_index": 242}, "uniqueid": "MTK1395:3WI0P0II62ZMFI65FN6EVY5B7RJDRN", "dateTime": 1515871859988}, {"current_trial": 243, "trialdata": {"rt": -1, "trial_type": "single-stim", "word": "eagle", "stimulus": "<p id=\"stim\">EAGLE</p>", "conditions": [24, 800, "v", 24000], "internal_node_id": "0.0-180.0", "trial": 6, "time_elapsed": 1028822, "serialpos": 18, "key_press": -1, "wordID": 511, "type": "PRES_VIS", "trial_index": 243}, "uniqueid": "MTK1395:3WI0P0II62ZMFI65FN6EVY5B7RJDRN", "dateTime": 1515871861618}, {"current_trial": 244, "trialdata": {"rt": -1, "trial_type": "single-stim", "word": "couch", "stimulus": "<p id=\"stim\">COUCH</p>", "conditions": [24, 800, "v", 24000], "internal_node_id": "0.0-181.0", "trial": 6, "time_elapsed": 1030424, "serialpos": 19, "key_press": -1, "wordID": 385, "type": "PRES_VIS", "trial_index": 244}, "uniqueid": "MTK1395:3WI0P0II62ZMFI65FN6EVY5B7RJDRN", "dateTime": 1515871863220}, {"current_trial": 245, "trialdata": {"rt": -1, "trial_type": "single-stim", "word": "lady", "stimulus": "<p id=\"stim\">LADY</p>", "conditions": [24, 800, "v", 24000], "internal_node_id": "0.0-182.0", "trial": 6, "time_elapsed": 1032222, "serialpos": 20, "key_press": -1, "wordID": 793, "type": "PRES_VIS", "trial_index": 245}, "uniqueid": "MTK1395:3WI0P0II62ZMFI65FN6EVY5B7RJDRN", "dateTime": 1515871865018}, {"current_trial": 246, "trialdata": {"rt": -1, "trial_type": "single-stim", "word": "female", "stimulus": "<p id=\"stim\">FEMALE</p>", "conditions": [24, 800, "v", 24000], "internal_node_id": "0.0-183.0", "trial": 6, "time_elapsed": 1033923, "serialpos": 21, "key_press": -1, "wordID": 558, "type": "PRES_VIS", "trial_index": 246}, "uniqueid": "MTK1395:3WI0P0II62ZMFI65FN6EVY5B7RJDRN", "dateTime": 1515871866719}, {"current_trial": 247, "trialdata": {"rt": -1, "trial_type": "single-stim", "word": "sunrise", "stimulus": "<p id=\"stim\">SUNRISE</p>", "conditions": [24, 800, "v", 24000], "internal_node_id": "0.0-184.0", "trial": 6, "time_elapsed": 1035652, "serialpos": 22, "key_press": -1, "wordID": 1406, "type": "PRES_VIS", "trial_index": 247}, "uniqueid": "MTK1395:3WI0P0II62ZMFI65FN6EVY5B7RJDRN", "dateTime": 1515871868448}, {"current_trial": 248, "trialdata": {"rt": -1, "trial_type": "single-stim", "word": "sunset", "stimulus": "<p id=\"stim\">SUNSET</p>", "conditions": [24, 800, "v", 24000], "internal_node_id": "0.0-185.0", "trial": 6, "time_elapsed": 1037521, "serialpos": 23, "key_press": -1, "wordID": 1407, "type": "PRES_VIS", "trial_index": 248}, "uniqueid": "MTK1395:3WI0P0II62ZMFI65FN6EVY5B7RJDRN", "dateTime": 1515871870317}, {"current_trial": 249, "trialdata": {"rt": -1, "trial_type": "single-stim", "stimulus": "", "internal_node_id": "0.0-186.0-0.0", "time_elapsed": 1039827, "key_press": -1, "type": "PRE_RECALL_DELAY", "trial_index": 249}, "uniqueid": "MTK1395:3WI0P0II62ZMFI65FN6EVY5B7RJDRN", "dateTime": 1515871872623}, {"current_trial": 250, "trialdata": {"rt": -1000, "trial_type": "single-audio", "stimulus": "/static/audio/400Hz.wav", "internal_node_id": "0.0-187.0", "time_elapsed": 1040329, "key_press": -1, "type": "PRE_RECALL_ALERT", "trial_index": 250}, "uniqueid": "MTK1395:3WI0P0II62ZMFI65FN6EVY5B7RJDRN", "dateTime": 1515871873125}, {"current_trial": 251, "trialdata": {"rt": [2386, 4183, 5262, 6516, 7971, 9894, 11323, 12443, 14066, 18949], "recwords": ["egypt", "female", "lady", "sunrise", "sunset", "couch", "tool", "blade", "shovel", "snail"], "key_times": [552, 733, 868, 1472, 1796, 2386, 2885, 3002, 3121, 3225, 3368, 3510, 4183, 4518, 4623, 4775, 5041, 5262, 5552, 5657, 5897, 6021, 6162, 6264, 6376, 6516, 6989, 7124, 7334, 7488, 7597, 7765, 7971, 8275, 8384, 8492, 8771, 8892, 9894, 10573, 10633, 10823, 11032, 11323, 11652, 11877, 11981, 12099, 12295, 12443, 12849, 12964, 13072, 13354, 13504, 13619, 14066, 18052, 18206, 18376, 18456, 18645, 18949], "trial_type": "free-recall", "conditions": [24, 800, "v", 24000], "internal_node_id": "0.0-188.0-0.0", "key_presses": [69, 71, 89, 80, 84, 186, 70, 69, 77, 65, 76, 69, 186, 76, 65, 68, 89, 186, 83, 85, 78, 82, 73, 83, 69, 186, 83, 85, 78, 83, 69, 84, 186, 67, 79, 85, 67, 72, 186, 84, 79, 79, 76, 186, 66, 76, 65, 68, 69, 186, 83, 72, 79, 86, 69, 76, 186, 83, 78, 65, 73, 76, 186], "trial": 6, "time_elapsed": 1100331, "type": "FREE_RECALL", "trial_index": 251}, "uniqueid": "MTK1395:3WI0P0II62ZMFI65FN6EVY5B7RJDRN", "dateTime": 1515871933129}, {"current_trial": 252, "trialdata": {"rt": 536, "trial_type": "text", "internal_node_id": "0.0-189.0", "time_elapsed": 1102869, "key_press": 13, "type": "INSTRUCTIONS", "trial_index": 252}, "uniqueid": "MTK1395:3WI0P0II62ZMFI65FN6EVY5B7RJDRN", "dateTime":