{"condition": 0, "counterbalance": 175, "assignmentId": "3K2755HG5TAPCS1WOS6KE9RS2WVFD1", "workerId": "MTK1260", "hitId": "3CIS7GGG65QH0WESPA71H7EWXEWEUP", "currenttrial": 626, "bonus": 0, "data": [{"uniqueid": "MTK1260:3K2755HG5TAPCS1WOS6KE9RS2WVFD1", "current_trial": 0, "dateTime": 1513477003018, "trialdata": {"rt": 4949, "key_press": 76, "type": "INSTRUCTIONS", "trial_type": "text", "trial_index": 0, "time_elapsed": 4950, "internal_node_id": "0.0-0.0"}}, {"uniqueid": "MTK1260:3K2755HG5TAPCS1WOS6KE9RS2WVFD1", "current_trial": 1, "dateTime": 1513477021456, "trialdata": {"rt": 18437, "key_press": 72, "type": "INSTRUCTIONS", "trial_type": "text", "trial_index": 1, "time_elapsed": 23389, "internal_node_id": "0.0-1.0"}}, {"uniqueid": "MTK1260:3K2755HG5TAPCS1WOS6KE9RS2WVFD1", "current_trial": 2, "dateTime": 1513477027938, "trialdata": {"rt": [6473], "responses": ["ocean"], "type": "AUDIO_TEST", "trial_type": "audio-test", "trial_index": 2, "time_elapsed": 29871, "internal_node_id": "0.0-2.0"}}, {"uniqueid": "MTK1260:3K2755HG5TAPCS1WOS6KE9RS2WVFD1", "current_trial": 3, "dateTime": 1513477033337, "trialdata": {"rt": [5395], "responses": ["crystal"], "type": "AUDIO_TEST", "trial_type": "audio-test", "trial_index": 3, "time_elapsed": 35270, "internal_node_id": "0.0-3.0"}}, {"uniqueid": "MTK1260:3K2755HG5TAPCS1WOS6KE9RS2WVFD1", "current_trial": 4, "dateTime": 1513477037757, "trialdata": {"rt": [4418], "responses": ["spice"], "type": "AUDIO_TEST", "trial_type": "audio-test", "trial_index": 4, "time_elapsed": 39690, "internal_node_id": "0.0-4.0"}}, {"uniqueid": "MTK1260:3K2755HG5TAPCS1WOS6KE9RS2WVFD1", "current_trial": 5, "dateTime": 1513477054554, "trialdata": {"rt": 16041, "responses": "{\"Q0\":\"11:30pm\",\"Q1\":\"9:21am\",\"Q2\":\"4\"}", "type": "SLEEP_SURVEY", "trial_type": "survey-text", "trial_index": 5, "time_elapsed": 56487, "internal_node_id": "0.0-5.0"}}, {"uniqueid": "MTK1260:3K2755HG5TAPCS1WOS6KE9RS2WVFD1", "current_trial": 6, "dateTime": 1513477077863, "trialdata": {"rt": 22306, "key_press": 13, "type": "INSTRUCTIONS", "trial_type": "text", "trial_index": 6, "time_elapsed": 79796, "internal_node_id": "0.0-6.0"}}, {"uniqueid": "MTK1260:3K2755HG5TAPCS1WOS6KE9RS2WVFD1", "current_trial": 7, "dateTime": 1513477085952, "trialdata": {"rt": 7586, "key_press": 13, "type": "INSTRUCTIONS", "trial_type": "text", "trial_index": 7, "time_elapsed": 87885, "internal_node_id": "0.0-7.0"}}, {"uniqueid": "MTK1260:3K2755HG5TAPCS1WOS6KE9RS2WVFD1", "current_trial": 8, "dateTime": 1513477089101, "trialdata": {"rt": 2644, "key_press": 13, "type": "INSTRUCTIONS", "trial_type": "text", "trial_index": 8, "time_elapsed": 91034, "internal_node_id": "0.0-8.0"}}, {"uniqueid": "MTK1260:3K2755HG5TAPCS1WOS6KE9RS2WVFD1", "current_trial": 9, "dateTime": 1513477108112, "trialdata": {"rt": [2616, 4112, 6239, 10806, 12223, 16138], "responses": ["13", "11", "13", "19", "6", "16"], "num1": [4, 5, 5, 7, 2, 5, 2], "num2": [3, 1, 2, 8, 2, 9, 9], "num3": [6, 5, 6, 4, 2, 2, 6], "type": "DISTRACTOR", "conditions": [18, 1200, "v", 18000], "trial": 0, "trial_type": "math-distractor", "trial_index": 9, "time_elapsed": 110045, "internal_node_id": "0.0-9.0"}}, {"uniqueid": "MTK1260:3K2755HG5TAPCS1WOS6KE9RS2WVFD1", "current_trial": 10, "dateTime": 1513477111118, "trialdata": {"rt": -1, "stimulus": "<p id=\"stim\">10</p>", "key_press": -1, "trial_type": "single-stim", "trial_index": 10, "time_elapsed": 113051, "internal_node_id": "0.0-10.0-0.0"}}, {"uniqueid": "MTK1260:3K2755HG5TAPCS1WOS6KE9RS2WVFD1", "current_trial": 11, "dateTime": 1513477112122, "trialdata": {"rt": -1, "stimulus": "<p id=\"stim\">9</p>", "key_press": -1, "trial_type": "single-stim", "trial_index": 11, "time_elapsed": 114055, "internal_node_id": "0.0-10.0-1.0"}}, {"uniqueid": "MTK1260:3K2755HG5TAPCS1WOS6KE9RS2WVFD1", "current_trial": 12, "dateTime": 1513477113126, "trialdata": {"rt": -1, "stimulus": "<p id=\"stim\">8</p>", "key_press": -1, "trial_type": "single-stim", "trial_index": 12, "time_elapsed": 115059, "internal_node_id": "0.0-10.0-2.0"}}, {"uniqueid": "MTK1260:3K2755HG5TAPCS1WOS6KE9RS2WVFD1", "current_trial": 13, "dateTime": 1513477114130, "trialdata": {"rt": -1, "stimulus": "<p id=\"stim\">7</p>", "key_press": -1, "trial_type": "single-stim", "trial_index": 13, "time_elapsed": 116063, "internal_node_id": "0.0-10.0-3.0"}}, {"uniqueid": "MTK1260:3K2755HG5TAPCS1WOS6KE9RS2WVFD1", "current_trial": 14, "dateTime": 1513477115135, "trialdata": {"rt": -1, "stimulus": "<p id=\"stim\">6</p>", "key_press": -1, "trial_type": "single-stim", "trial_index": 14, "time_elapsed": 117068, "internal_node_id": "0.0-10.0-4.0"}}, {"uniqueid": "MTK1260:3K2755HG5TAPCS1WOS6KE9RS2WVFD1", "current_trial": 15, "dateTime": 1513477116139, "trialdata": {"rt": -1, "stimulus": "<p id=\"stim\">5</p>", "key_press": -1, "trial_type": "single-stim", "trial_index": 15, "time_elapsed": 118072, "internal_node_id": "0.0-10.0-5.0"}}, {"uniqueid": "MTK1260:3K2755HG5TAPCS1WOS6KE9RS2WVFD1", "current_trial": 16, "dateTime": 1513477117141, "trialdata": {"rt": -1, "stimulus": "<p id=\"stim\">4</p>", "key_press": -1, "trial_type": "single-stim", "trial_index": 16, "time_elapsed": 119074, "internal_node_id": "0.0-10.0-6.0"}}, {"uniqueid": "MTK1260:3K2755HG5TAPCS1WOS6KE9RS2WVFD1", "current_trial": 17, "dateTime": 1513477118142, "trialdata": {"rt": -1, "stimulus": "<p id=\"stim\">3</p>", "key_press": -1, "trial_type": "single-stim", "trial_index": 17, "time_elapsed": 120075, "internal_node_id": "0.0-10.0-7.0"}}, {"uniqueid": "MTK1260:3K2755HG5TAPCS1WOS6KE9RS2WVFD1", "current_trial": 18, "dateTime": 1513477119143, "trialdata": {"rt": -1, "stimulus": "<p id=\"stim\">2</p>", "key_press": -1, "trial_type": "single-stim", "trial_index": 18, "time_elapsed": 121076, "internal_node_id": "0.0-10.0-8.0"}}, {"uniqueid": "MTK1260:3K2755HG5TAPCS1WOS6KE9RS2WVFD1", "current_trial": 19, "dateTime": 1513477120145, "trialdata": {"rt": -1, "stimulus": "<p id=\"stim\">1</p>", "key_press": -1, "trial_type": "single-stim", "trial_index": 19, "time_elapsed": 122078, "internal_node_id": "0.0-10.0-9.0"}}, {"uniqueid": "MTK1260:3K2755HG5TAPCS1WOS6KE9RS2WVFD1", "current_trial": 20, "dateTime": 1513477121649, "trialdata": {"rt": -1, "stimulus": "<p id=\"stim\">+</p>", "key_press": -1, "type": "FIXATION", "trial_type": "single-stim", "trial_index": 20, "time_elapsed": 123582, "internal_node_id": "0.0-11.0-0.0"}}, {"uniqueid": "MTK1260:3K2755HG5TAPCS1WOS6KE9RS2WVFD1", "current_trial": 21, "dateTime": 1513477122853, "trialdata": {"rt": -1, "stimulus": "<p id=\"stim\">HOUND</p>", "key_press": -1, "type": "PRES_VIS", "word": "hound", "wordID": 723, "conditions": [18, 1200, "v", 18000], "trial": 0, "serialpos": 0, "trial_type": "single-stim", "trial_index": 21, "time_elapsed": 124786, "internal_node_id": "0.0-12.0"}}, {"uniqueid": "MTK1260:3K2755HG5TAPCS1WOS6KE9RS2WVFD1", "current_trial": 22, "dateTime": 1513477125145, "trialdata": {"rt": -1, "stimulus": "<p id=\"stim\">AIRPLANE</p>", "key_press": -1, "type": "PRES_VIS", "word": "airplane", "wordID": 11, "conditions": [18, 1200, "v", 18000], "trial": 0, "serialpos": 1, "trial_type": "single-stim", "trial_index": 22, "time_elapsed": 127078, "internal_node_id": "0.0-13.0"}}, {"uniqueid": "MTK1260:3K2755HG5TAPCS1WOS6KE9RS2WVFD1", "current_trial": 23, "dateTime": 1513477127525, "trialdata": {"rt": -1, "stimulus": "<p id=\"stim\">RAFT</p>", "key_press": -1, "type": "PRES_VIS", "word": "raft", "wordID": 1158, "conditions": [18, 1200, "v", 18000], "trial": 0, "serialpos": 2, "trial_type": "single-stim", "trial_index": 23, "time_elapsed": 129458, "internal_node_id": "0.0-14.0"}}, {"uniqueid": "MTK1260:3K2755HG5TAPCS1WOS6KE9RS2WVFD1", "current_trial": 24, "dateTime": 1513477129795, "trialdata": {"rt": -1, "stimulus": "<p id=\"stim\">DRAGON</p>", "key_press": -1, "type": "PRES_VIS", "word": "dragon", "wordID": 491, "conditions": [18, 1200, "v", 18000], "trial": 0, "serialpos": 3, "trial_type": "single-stim", "trial_index": 24, "time_elapsed": 131727, "internal_node_id": "0.0-15.0"}}, {"uniqueid": "MTK1260:3K2755HG5TAPCS1WOS6KE9RS2WVFD1", "current_trial": 25, "dateTime": 1513477132151, "trialdata": {"rt": -1, "stimulus": "<p id=\"stim\">HELMET</p>", "key_press": -1, "type": "PRES_VIS", "word": "helmet", "wordID": 701, "conditions": [18, 1200, "v", 18000], "trial": 0, "serialpos": 4, "trial_type": "single-stim", "trial_index": 25, "time_elapsed": 134084, "internal_node_id": "0.0-16.0"}}, {"uniqueid": "MTK1260:3K2755HG5TAPCS1WOS6KE9RS2WVFD1", "current_trial": 26, "dateTime": 1513477134490, "trialdata": {"rt": -1, "stimulus": "<p id=\"stim\">AWARD</p>", "key_press": -1, "type": "PRES_VIS", "word": "award", "wordID": 62, "conditions": [18, 1200, "v", 18000], "trial": 0, "serialpos": 5, "trial_type": "single-stim", "trial_index": 26, "time_elapsed": 136423, "internal_node_id": "0.0-17.0"}}, {"uniqueid": "MTK1260:3K2755HG5TAPCS1WOS6KE9RS2WVFD1", "current_trial": 27, "dateTime": 1513477136614, "trialdata": {"rt": -1, "stimulus": "<p id=\"stim\">APRON</p>", "key_press": -1, "type": "PRES_VIS", "word": "apron", "wordID": 34, "conditions": [18, 1200, "v", 18000], "trial": 0, "serialpos": 6, "trial_type": "single-stim", "trial_index": 27, "time_elapsed": 138547, "internal_node_id": "0.0-18.0"}}, {"uniqueid": "MTK1260:3K2755HG5TAPCS1WOS6KE9RS2WVFD1", "current_trial": 28, "dateTime": 1513477139017, "trialdata": {"rt": -1, "stimulus": "<p id=\"stim\">CATCHER</p>", "key_press": -1, "type": "PRES_VIS", "word": "catcher", "wordID": 257, "conditions": [18, 1200, "v", 18000], "trial": 0, "serialpos": 7, "trial_type": "single-stim", "trial_index": 28, "time_elapsed": 140950, "internal_node_id": "0.0-19.0"}}, {"uniqueid": "MTK1260:3K2755HG5TAPCS1WOS6KE9RS2WVFD1", "current_trial": 29, "dateTime": 1513477141420, "trialdata": {"rt": -1, "stimulus": "<p id=\"stim\">SPACE</p>", "key_press": -1, "type": "PRES_VIS", "word": "space", "wordID": 1344, "conditions": [18, 1200, "v", 18000], "trial": 0, "serialpos": 8, "trial_type": "single-stim", "trial_index": 29, "time_elapsed": 143353, "internal_node_id": "0.0-20.0"}}, {"uniqueid": "MTK1260:3K2755HG5TAPCS1WOS6KE9RS2WVFD1", "current_trial": 30, "dateTime": 1513477143538, "trialdata": {"rt": -1, "stimulus": "<p id=\"stim\">KEEPER</p>", "key_press": -1, "type": "PRES_VIS", "word": "keeper", "wordID": 768, "conditions": [18, 1200, "v", 18000], "trial": 0, "serialpos": 9, "trial_type": "single-stim", "trial_index": 30, "time_elapsed": 145471, "internal_node_id": "0.0-21.0"}}, {"uniqueid": "MTK1260:3K2755HG5TAPCS1WOS6KE9RS2WVFD1", "current_trial": 31, "dateTime": 1513477145697, "trialdata": {"rt": -1, "stimulus": "<p id=\"stim\">PIGEON</p>", "key_press": -1, "type": "PRES_VIS", "word": "pigeon", "wordID": 1064, "conditions": [18, 1200, "v", 18000], "trial": 0, "serialpos": 10, "trial_type": "single-stim", "trial_index": 31, "time_elapsed": 147630, "internal_node_id": "0.0-22.0"}}, {"uniqueid": "MTK1260:3K2755HG5TAPCS1WOS6KE9RS2WVFD1", "current_trial": 32, "dateTime": 1513477147821, "trialdata": {"rt": -1, "stimulus": "<p id=\"stim\">COIN</p>", "key_press": -1, "type": "PRES_VIS", "word": "coin", "wordID": 342, "conditions": [18, 1200, "v", 18000], "trial": 0, "serialpos": 11, "trial_type": "single-stim", "trial_index": 32, "time_elapsed": 149754, "internal_node_id": "0.0-23.0"}}, {"uniqueid": "MTK1260:3K2755HG5TAPCS1WOS6KE9RS2WVFD1", "current_trial": 33, "dateTime": 1513477150056, "trialdata": {"rt": -1, "stimulus": "<p id=\"stim\">PUDDLE</p>", "key_press": -1, "type": "PRES_VIS", "word": "puddle", "wordID": 1139, "conditions": [18, 1200, "v", 18000], "trial": 0, "serialpos": 12, "trial_type": "single-stim", "trial_index": 33, "time_elapsed": 151989, "internal_node_id": "0.0-24.0"}}, {"uniqueid": "MTK1260:3K2755HG5TAPCS1WOS6KE9RS2WVFD1", "current_trial": 34, "dateTime": 1513477152430, "trialdata": {"rt": -1, "stimulus": "<p id=\"stim\">FRAGRANCE</p>", "key_press": -1, "type": "PRES_VIS", "word": "fragrance", "wordID": 598, "conditions": [18, 1200, "v", 18000], "trial": 0, "serialpos": 13, "trial_type": "single-stim", "trial_index": 34, "time_elapsed": 154362, "internal_node_id": "0.0-25.0"}}, {"uniqueid": "MTK1260:3K2755HG5TAPCS1WOS6KE9RS2WVFD1", "current_trial": 35, "dateTime": 1513477154798, "trialdata": {"rt": -1, "stimulus": "<p id=\"stim\">STICKER</p>", "key_press": -1, "type": "PRES_VIS", "word": "sticker", "wordID": 1381, "conditions": [18, 1200, "v", 18000], "trial": 0, "serialpos": 14, "trial_type": "single-stim", "trial_index": 35, "time_elapsed": 156730, "internal_node_id": "0.0-26.0"}}, {"uniqueid": "MTK1260:3K2755HG5TAPCS1WOS6KE9RS2WVFD1", "current_trial": 36, "dateTime": 1513477156864, "trialdata": {"rt": -1, "stimulus": "<p id=\"stim\">CROSS</p>", "key_press": -1, "type": "PRES_VIS", "word": "cross", "wordID": 412, "conditions": [18, 1200, "v", 18000], "trial": 0, "serialpos": 15, "trial_type": "single-stim", "trial_index": 36, "time_elapsed": 158797, "internal_node_id": "0.0-27.0"}}, {"uniqueid": "MTK1260:3K2755HG5TAPCS1WOS6KE9RS2WVFD1", "current_trial": 37, "dateTime": 1513477159098, "trialdata": {"rt": -1, "stimulus": "<p id=\"stim\">MARSH</p>", "key_press": -1, "type": "PRES_VIS", "word": "marsh", "wordID": 873, "conditions": [18, 1200, "v", 18000], "trial": 0, "serialpos": 16, "trial_type": "single-stim", "trial_index": 37, "time_elapsed": 161031, "internal_node_id": "0.0-28.0"}}, {"uniqueid": "MTK1260:3K2755HG5TAPCS1WOS6KE9RS2WVFD1", "current_trial": 38, "dateTime": 1513477161112, "trialdata": {"rt": -1, "stimulus": "<p id=\"stim\">STONE</p>", "key_press": -1, "type": "PRES_VIS", "word": "stone", "wordID": 1384, "conditions": [18, 1200, "v", 18000], "trial": 0, "serialpos": 17, "trial_type": "single-stim", "trial_index": 38, "time_elapsed": 163045, "internal_node_id": "0.0-29.0"}}, {"uniqueid": "MTK1260:3K2755HG5TAPCS1WOS6KE9RS2WVFD1", "current_trial": 39, "dateTime": 1513477163370, "trialdata": {"rt": -1, "stimulus": "", "key_press": -1, "type": "PRE_RECALL_DELAY", "trial_type": "single-stim", "trial_index": 39, "time_elapsed": 165303, "internal_node_id": "0.0-30.0-0.0"}}, {"uniqueid": "MTK1260:3K2755HG5TAPCS1WOS6KE9RS2WVFD1", "current_trial": 40, "dateTime": 1513477163872, "trialdata": {"rt": -1000, "stimulus": "/static/audio/400Hz.wav", "key_press": -1, "type": "PRE_RECALL_ALERT", "trial_type": "single-audio", "trial_index": 40, "time_elapsed": 165805, "internal_node_id": "0.0-31.0"}}, {"uniqueid": "MTK1260:3K2755HG5TAPCS1WOS6KE9RS2WVFD1", "current_trial": 41, "dateTime": 1513477223876, "trialdata": {"rt": [2596, 2651, 5723, 7152, 8670, 10110, 11741, 12978, 15791, 22113, 23722, 27244, 29831, 33431, 35737, 38820, 40136, 42442, 43781, 46380, 47764, 52095, 55459], "recwords": ["hound", "", "airplane", "raft", "dragon", "helmet", "airplane", "sound", "mental", "secret", "plane", "error", "proud", "antler", "lamp", "road", "face", "crate", "yard", "pole", "car", "motorcycle", "crate"], "type": "FREE_RECALL", "conditions": [18, 1200, "v", 18000], "trial": 0, "trial_type": "free-recall", "trial_index": 41, "time_elapsed": 225807, "internal_node_id": "0.0-32.0-0.0"}}, {"uniqueid": "MTK1260:3K2755HG5TAPCS1WOS6KE9RS2WVFD1", "current_trial": 42, "dateTime": 1513477227376, "trialdata": {"rt": 1495, "key_press": 74, "type": "INSTRUCTIONS", "trial_type": "text", "trial_index": 42, "time_elapsed": 229309, "internal_node_id": "0.0-33.0"}}, {"uniqueid": "MTK1260:3K2755HG5TAPCS1WOS6KE9RS2WVFD1", "current_trial": 43, "dateTime": 1513477247385, "trialdata": {"rt": [4271, 7489, 9783, 11887, 14351, 17163], "responses": ["14", "6", "20", "9", "16", "18"], "num1": [3, 3, 9, 3, 6, 2, 3], "num2": [6, 2, 2, 2, 6, 7, 9], "num3": [5, 1, 9, 4, 4, 9, 1], "type": "DISTRACTOR", "conditions": [18, 1200, "a", 18000], "trial": 1, "trial_type": "math-distractor", "trial_index": 43, "time_elapsed": 249318, "internal_node_id": "0.0-34.0"}}, {"uniqueid": "MTK1260:3K2755HG5TAPCS1WOS6KE9RS2WVFD1", "current_trial": 44, "dateTime": 1513477250391, "trialdata": {"rt": -1, "stimulus": "<p id=\"stim\">10</p>", "key_press": -1, "trial_type": "single-stim", "trial_index": 44, "time_elapsed": 252324, "internal_node_id": "0.0-35.0-0.0"}}, {"uniqueid": "MTK1260:3K2755HG5TAPCS1WOS6KE9RS2WVFD1", "current_trial": 45, "dateTime": 1513477251396, "trialdata": {"rt": -1, "stimulus": "<p id=\"stim\">9</p>", "key_press": -1, "trial_type": "single-stim", "trial_index": 45, "time_elapsed": 253328, "internal_node_id": "0.0-35.0-1.0"}}, {"uniqueid": "MTK1260:3K2755HG5TAPCS1WOS6KE9RS2WVFD1", "current_trial": 46, "dateTime": 1513477252399, "trialdata": {"rt": -1, "stimulus": "<p id=\"stim\">8</p>", "key_press": -1, "trial_type": "single-stim", "trial_index": 46, "time_elapsed": 254332, "internal_node_id": "0.0-35.0-2.0"}}, {"uniqueid": "MTK1260:3K2755HG5TAPCS1WOS6KE9RS2WVFD1", "current_trial": 47, "dateTime": 1513477253404, "trialdata": {"rt": -1, "stimulus": "<p id=\"stim\">7</p>", "key_press": -1, "trial_type": "single-stim", "trial_index": 47, "time_elapsed": 255337, "internal_node_id": "0.0-35.0-3.0"}}, {"uniqueid": "MTK1260:3K2755HG5TAPCS1WOS6KE9RS2WVFD1", "current_trial": 48, "dateTime": 1513477254407, "trialdata": {"rt": -1, "stimulus": "<p id=\"stim\">6</p>", "key_press": -1, "trial_type": "single-stim", "trial_index": 48, "time_elapsed": 256340, "internal_node_id": "0.0-35.0-4.0"}}, {"uniqueid": "MTK1260:3K2755HG5TAPCS1WOS6KE9RS2WVFD1", "current_trial": 49, "dateTime": 1513477255412, "trialdata": {"rt": -1, "stimulus": "<p id=\"stim\">5</p>", "key_press": -1, "trial_type": "single-stim", "trial_index": 49, "time_elapsed": 257345, "internal_node_id": "0.0-35.0-5.0"}}, {"uniqueid": "MTK1260:3K2755HG5TAPCS1WOS6KE9RS2WVFD1", "current_trial": 50, "dateTime": 1513477256415, "trialdata": {"rt": -1, "stimulus": "<p id=\"stim\">4</p>", "key_press": -1, "trial_type": "single-stim", "trial_index": 50, "time_elapsed": 258348, "internal_node_id": "0.0-35.0-6.0"}}, {"uniqueid": "MTK1260:3K2755HG5TAPCS1WOS6KE9RS2WVFD1", "current_trial": 51, "dateTime": 1513477257420, "trialdata": {"rt": -1, "stimulus": "<p id=\"stim\">3</p>", "key_press": -1, "trial_type": "single-stim", "trial_index": 51, "time_elapsed": 259353, "internal_node_id": "0.0-35.0-7.0"}}, {"uniqueid": "MTK1260:3K2755HG5TAPCS1WOS6KE9RS2WVFD1", "current_trial": 52, "dateTime": 1513477258424, "trialdata": {"rt": -1, "stimulus": "<p id=\"stim\">2</p>", "key_press": -1, "trial_type": "single-stim", "trial_index": 52, "time_elapsed": 260357, "internal_node_id": "0.0-35.0-8.0"}}, {"uniqueid": "MTK1260:3K2755HG5TAPCS1WOS6KE9RS2WVFD1", "current_trial": 53, "dateTime": 1513477259428, "trialdata": {"rt": -1, "stimulus": "<p id=\"stim\">1</p>", "key_press": -1, "trial_type": "single-stim", "trial_index": 53, "time_elapsed": 261361, "internal_node_id": "0.0-35.0-9.0"}}, {"uniqueid": "MTK1260:3K2755HG5TAPCS1WOS6KE9RS2WVFD1", "current_trial": 54, "dateTime": 1513477260931, "trialdata": {"rt": -1, "stimulus": "<p id=\"stim\">+</p>", "key_press": -1, "type": "FIXATION", "trial_type": "single-stim", "trial_index": 54, "time_elapsed": 262864, "internal_node_id": "0.0-36.0-0.0"}}, {"uniqueid": "MTK1260:3K2755HG5TAPCS1WOS6KE9RS2WVFD1", "current_trial": 55, "dateTime": 1513477263194, "trialdata": {"rt": -1000, "stimulus": "/static/audio/wordpool/TUNNEL.wav", "key_press": -1, "type": "PRES_AUD", "word": "tunnel", "wordID": 1518, "conditions": [18, 1200, "a", 18000], "trial": 1, "serialpos": 0, "trial_type": "single-audio", "trial_index": 55, "time_elapsed": 265127, "internal_node_id": "0.0-37.0"}}, {"uniqueid": "MTK1260:3K2755HG5TAPCS1WOS6KE9RS2WVFD1", "current_trial": 56, "dateTime": 1513477265457, "trialdata": {"rt": -1000, "stimulus": "/static/audio/wordpool/PASSAGE.wav", "key_press": -1, "type": "PRES_AUD", "word": "passage", "wordID": 1018, "conditions": [18, 1200, "a", 18000], "trial": 1, "serialpos": 1, "trial_type": "single-audio", "trial_index": 56, "time_elapsed": 267390, "internal_node_id": "0.0-38.0"}}, {"uniqueid": "MTK1260:3K2755HG5TAPCS1WOS6KE9RS2WVFD1", "current_trial": 57, "dateTime": 1513477267826, "trialdata": {"rt": -1000, "stimulus": "/static/audio/wordpool/PLAZA.wav", "key_press": -1, "type": "PRES_AUD", "word": "plaza", "wordID": 1087, "conditions": [18, 1200, "a", 18000], "trial": 1, "serialpos": 2, "trial_type": "single-audio", "trial_index": 57, "time_elapsed": 269759, "internal_node_id": "0.0-39.0"}}, {"uniqueid": "MTK1260:3K2755HG5TAPCS1WOS6KE9RS2WVFD1", "current_trial": 58, "dateTime": 1513477269972, "trialdata": {"rt": -1000, "stimulus": "/static/audio/wordpool/DINER.wav", "key_press": -1, "type": "PRES_AUD", "word": "diner", "wordID": 466, "conditions": [18, 1200, "a", 18000], "trial": 1, "serialpos": 3, "trial_type": "single-audio", "trial_index": 58, "time_elapsed": 271905, "internal_node_id": "0.0-40.0"}}, {"uniqueid": "MTK1260:3K2755HG5TAPCS1WOS6KE9RS2WVFD1", "current_trial": 59, "dateTime": 1513477272317, "trialdata": {"rt": -1000, "stimulus": "/static/audio/wordpool/ANKLE.wav", "key_press": -1, "type": "PRES_AUD", "word": "ankle", "wordID": 23, "conditions": [18, 1200, "a", 18000], "trial": 1, "serialpos": 4, "trial_type": "single-audio", "trial_index": 59, "time_elapsed": 274250, "internal_node_id": "0.0-41.0"}}, {"uniqueid": "MTK1260:3K2755HG5TAPCS1WOS6KE9RS2WVFD1", "current_trial": 60, "dateTime": 1513477274467, "trialdata": {"rt": -1000, "stimulus": "/static/audio/wordpool/SWAMP.wav", "key_press": -1, "type": "PRES_AUD", "word": "swamp", "wordID": 1415, "conditions": [18, 1200, "a", 18000], "trial": 1, "serialpos": 5, "trial_type": "single-audio", "trial_index": 60, "time_elapsed": 276400, "internal_node_id": "0.0-42.0"}}, {"uniqueid": "MTK1260:3K2755HG5TAPCS1WOS6KE9RS2WVFD1", "current_trial": 61, "dateTime": 1513477276843, "trialdata": {"rt": -1000, "stimulus": "/static/audio/wordpool/KITCHEN.wav", "key_press": -1, "type": "PRES_AUD", "word": "kitchen", "wordID": 777, "conditions": [18, 1200, "a", 18000], "trial": 1, "serialpos": 6, "trial_type": "single-audio", "trial_index": 61, "time_elapsed": 278776, "internal_node_id": "0.0-43.0"}}, {"uniqueid": "MTK1260:3K2755HG5TAPCS1WOS6KE9RS2WVFD1", "current_trial": 62, "dateTime": 1513477279011, "trialdata": {"rt": -1000, "stimulus": "/static/audio/wordpool/POET.wav", "key_press": -1, "type": "PRES_AUD", "word": "poet", "wordID": 1094, "conditions": [18, 1200, "a", 18000], "trial": 1, "serialpos": 7, "trial_type": "single-audio", "trial_index": 62, "time_elapsed": 280944, "internal_node_id": "0.0-44.0"}}, {"uniqueid": "MTK1260:3K2755HG5TAPCS1WOS6KE9RS2WVFD1", "current_trial": 63, "dateTime": 1513477281392, "trialdata": {"rt": -1000, "stimulus": "/static/audio/wordpool/LUMBER.wav", "key_press": -1, "type": "PRES_AUD", "word": "lumber", "wordID": 847, "conditions": [18, 1200, "a", 18000], "trial": 1, "serialpos": 8, "trial_type": "single-audio", "trial_index": 63, "time_elapsed": 283325, "internal_node_id": "0.0-45.0"}}, {"uniqueid": "MTK1260:3K2755HG5TAPCS1WOS6KE9RS2WVFD1", "current_trial": 64, "dateTime": 1513477283557, "trialdata": {"rt": -1000, "stimulus": "/static/audio/wordpool/SLIME.wav", "key_press": -1, "type": "PRES_AUD", "word": "slime", "wordID": 1326, "conditions": [18, 1200, "a", 18000], "trial": 1, "serialpos": 9, "trial_type": "single-audio", "trial_index": 64, "time_elapsed": 285490, "internal_node_id": "0.0-46.0"}}, {"uniqueid": "MTK1260:3K2755HG5TAPCS1WOS6KE9RS2WVFD1", "current_trial": 65, "dateTime": 1513477285873, "trialdata": {"rt": -1000, "stimulus": "/static/audio/wordpool/CREVICE.wav", "key_press": -1, "type": "PRES_AUD", "word": "crevice", "wordID": 404, "conditions": [18, 1200, "a", 18000], "trial": 1, "serialpos": 10, "trial_type": "single-audio", "trial_index": 65, "time_elapsed": 287806, "internal_node_id": "0.0-47.0"}}, {"uniqueid": "MTK1260:3K2755HG5TAPCS1WOS6KE9RS2WVFD1", "current_trial": 66, "dateTime": 1513477287893, "trialdata": {"rt": -1000, "stimulus": "/static/audio/wordpool/ARM.wav", "key_press": -1, "type": "PRES_AUD", "word": "arm", "wordID": 37, "conditions": [18, 1200, "a", 18000], "trial": 1, "serialpos": 11, "trial_type": "single-audio", "trial_index": 66, "time_elapsed": 289826, "internal_node_id": "0.0-48.0"}}, {"uniqueid": "MTK1260:3K2755HG5TAPCS1WOS6KE9RS2WVFD1", "current_trial": 67, "dateTime": 1513477289919, "trialdata": {"rt": -1000, "stimulus": "/static/audio/wordpool/MOP.wav", "key_press": -1, "type": "PRES_AUD", "word": "mop", "wordID": 915, "conditions": [18, 1200, "a", 18000], "trial": 1, "serialpos": 12, "trial_type": "single-audio", "trial_index": 67, "time_elapsed": 291852, "internal_node_id": "0.0-49.0"}}, {"uniqueid": "MTK1260:3K2755HG5TAPCS1WOS6KE9RS2WVFD1", "current_trial": 68, "dateTime": 1513477292080, "trialdata": {"rt": -1000, "stimulus": "/static/audio/wordpool/TOASTER.wav", "key_press": -1, "type": "PRES_AUD", "word": "toaster", "wordID": 1471, "conditions": [18, 1200, "a", 18000], "trial": 1, "serialpos": 13, "trial_type": "single-audio", "trial_index": 68, "time_elapsed": 294012, "internal_node_id": "0.0-50.0"}}, {"uniqueid": "MTK1260:3K2755HG5TAPCS1WOS6KE9RS2WVFD1", "current_trial": 69, "dateTime": 1513477294430, "trialdata": {"rt": -1000, "stimulus": "/static/audio/wordpool/CRATER.wav", "key_press": -1, "type": "PRES_AUD", "word": "crater", "wordID": 399, "conditions": [18, 1200, "a", 18000], "trial": 1, "serialpos": 14, "trial_type": "single-audio", "trial_index": 69, "time_elapsed": 296363, "internal_node_id": "0.0-51.0"}}, {"uniqueid": "MTK1260:3K2755HG5TAPCS1WOS6KE9RS2WVFD1", "current_trial": 70, "dateTime": 1513477296676, "trialdata": {"rt": -1000, "stimulus": "/static/audio/wordpool/PALACE.wav", "key_press": -1, "type": "PRES_AUD", "word": "palace", "wordID": 1005, "conditions": [18, 1200, "a", 18000], "trial": 1, "serialpos": 15, "trial_type": "single-audio", "trial_index": 70, "time_elapsed": 298609, "internal_node_id": "0.0-52.0"}}, {"uniqueid": "MTK1260:3K2755HG5TAPCS1WOS6KE9RS2WVFD1", "current_trial": 71, "dateTime": 1513477298758, "trialdata": {"rt": -1000, "stimulus": "/static/audio/wordpool/GHETTO.wav", "key_press": -1, "type": "PRES_AUD", "word": "ghetto", "wordID": 632, "conditions": [18, 1200, "a", 18000], "trial": 1, "serialpos": 16, "trial_type": "single-audio", "trial_index": 71, "time_elapsed": 300691, "internal_node_id": "0.0-53.0"}}, {"uniqueid": "MTK1260:3K2755HG5TAPCS1WOS6KE9RS2WVFD1", "current_trial": 72, "dateTime": 1513477301144, "trialdata": {"rt": -1000, "stimulus": "/static/audio/wordpool/KETCHUP.wav", "key_press": -1, "type": "PRES_AUD", "word": "ketchup", "wordID": 770, "conditions": [18, 1200, "a", 18000], "trial": 1, "serialpos": 17, "trial_type": "single-audio", "trial_index": 72, "time_elapsed": 303077, "internal_node_id": "0.0-54.0"}}, {"uniqueid": "MTK1260:3K2755HG5TAPCS1WOS6KE9RS2WVFD1", "current_trial": 73, "dateTime": 1513477302353, "trialdata": {"rt": -1, "stimulus": "", "key_press": -1, "type": "PRE_RECALL_DELAY", "trial_type": "single-stim", "trial_index": 73, "time_elapsed": 304286, "internal_node_id": "0.0-55.0-0.0"}}, {"uniqueid": "MTK1260:3K2755HG5TAPCS1WOS6KE9RS2WVFD1", "current_trial": 74, "dateTime": 1513477302854, "trialdata": {"rt": -1000, "stimulus": "/static/audio/400Hz.wav", "key_press": -1, "type": "PRE_RECALL_ALERT", "trial_type": "single-audio", "trial_index": 74, "time_elapsed": 304787, "internal_node_id": "0.0-56.0"}}, {"uniqueid": "MTK1260:3K2755HG5TAPCS1WOS6KE9RS2WVFD1", "current_trial": 75, "dateTime": 1513477362860, "trialdata": {"rt": [2562, 4272, 6241, 7545, 8805, 10572, 12394, 13654, 16152, 17490, 19076, 19999, 21586, 23262, 25163, 26682, 28155, 29866], "recwords": ["tunnel", "passage", "plaza", "diner", "ankle", "sloth", "pigeon", "poet", "lumber", "slime", "crevice", "arm", "mock", "poster", "crater", "ghteoo", "callus", "ketchuo"], "type": "FREE_RECALL", "conditions": [18, 1200, "a", 18000], "trial": 1, "trial_type": "free-recall", "trial_index": 75, "time_elapsed": 364791, "internal_node_id": "0.0-57.0-0.0"}}, {"uniqueid": "MTK1260:3K2755HG5TAPCS1WOS6KE9RS2WVFD1", "current_trial": 76, "dateTime": 1513477367037, "trialdata": {"rt": 2307, "key_press": 13, "type": "INSTRUCTIONS", "trial_type": "text", "trial_index": 76, "time_elapsed": 368967, "internal_node_id": "0.0-58.0"}}, {"uniqueid": "MTK1260:3K2755HG5TAPCS1WOS6KE9RS2WVFD1", "current_trial": 77, "dateTime": 1513477380044, "trialdata": {"rt": [2424, 4269, 6282, 8454, 10524], "responses": ["16", "16", "17", "9", "16"], "num1": [5, 7, 3, 5, 1, 4], "num2": [6, 2, 7, 3, 7, 9], "num3": [5, 7, 7, 1, 8, 9], "type": "DISTRACTOR", "conditions": [12, 1600, "a", 12000], "trial": 2, "trial_type": "math-distractor", "trial_index": 77, "time_elapsed": 381977, "internal_node_id": "0.0-59.0"}}, {"uniqueid": "MTK1260:3K2755HG5TAPCS1WOS6KE9RS2WVFD1", "current_trial": 78, "dateTime": 1513477383050, "trialdata": {"rt": -1, "stimulus": "<p id=\"stim\">10</p>", "key_press": -1, "trial_type": "single-stim", "trial_index": 78, "time_elapsed": 384983, "internal_node_id": "0.0-60.0-0.0"}}, {"uniqueid": "MTK1260:3K2755HG5TAPCS1WOS6KE9RS2WVFD1", "current_trial": 79, "dateTime": 1513477384054, "trialdata": {"rt": -1, "stimulus": "<p id=\"stim\">9</p>", "key_press": -1, "trial_type": "single-stim", "trial_index": 79, "time_elapsed": 385987, "internal_node_id": "0.0-60.0-1.0"}}, {"uniqueid": "MTK1260:3K2755HG5TAPCS1WOS6KE9RS2WVFD1", "current_trial": 80, "dateTime": 1513477385058, "trialdata": {"rt": -1, "stimulus": "<p id=\"stim\">8</p>", "key_press": -1, "trial_type": "single-stim", "trial_index": 80, "time_elapsed": 386991, "internal_node_id": "0.0-60.0-2.0"}}, {"uniqueid": "MTK1260:3K2755HG5TAPCS1WOS6KE9RS2WVFD1", "current_trial": 81, "dateTime": 1513477386063, "trialdata": {"rt": -1, "stimulus": "<p id=\"stim\">7</p>", "key_press": -1, "trial_type": "single-stim", "trial_index": 81, "time_elapsed": 387995, "internal_node_id": "0.0-60.0-3.0"}}, {"uniqueid": "MTK1260:3K2755HG5TAPCS1WOS6KE9RS2WVFD1", "current_trial": 82, "dateTime": 1513477387066, "trialdata": {"rt": -1, "stimulus": "<p id=\"stim\">6</p>", "key_press": -1, "trial_type": "single-stim", "trial_index": 82, "time_elapsed": 388999, "internal_node_id": "0.0-60.0-4.0"}}, {"uniqueid": "MTK1260:3K2755HG5TAPCS1WOS6KE9RS2WVFD1", "current_trial": 83, "dateTime": 1513477388071, "trialdata": {"rt": -1, "stimulus": "<p id=\"stim\">5</p>", "key_press": -1, "trial_type": "single-stim", "trial_index": 83, "time_elapsed": 390004, "internal_node_id": "0.0-60.0-5.0"}}, {"uniqueid": "MTK1260:3K2755HG5TAPCS1WOS6KE9RS2WVFD1", "current_trial": 84, "dateTime": 1513477389074, "trialdata": {"rt": -1, "stimulus": "<p id=\"stim\">4</p>", "key_press": -1, "trial_type": "single-stim", "trial_index": 84, "time_elapsed": 391007, "internal_node_id": "0.0-60.0-6.0"}}, {"uniqueid": "MTK1260:3K2755HG5TAPCS1WOS6KE9RS2WVFD1", "current_trial": 85, "dateTime": 1513477390079, "trialdata": {"rt": -1, "stimulus": "<p id=\"stim\">3</p>", "key_press": -1, "trial_type": "single-stim", "trial_index": 85, "time_elapsed": 392012, "internal_node_id": "0.0-60.0-7.0"}}, {"uniqueid": "MTK1260:3K2755HG5TAPCS1WOS6KE9RS2WVFD1", "current_trial": 86, "dateTime": 1513477391083, "trialdata": {"rt": -1, "stimulus": "<p id=\"stim\">2</p>", "key_press": -1, "trial_type": "single-stim", "trial_index": 86, "time_elapsed": 393016, "internal_node_id": "0.0-60.0-8.0"}}, {"uniqueid": "MTK1260:3K2755HG5TAPCS1WOS6KE9RS2WVFD1", "current_trial": 87, "dateTime": 1513477392086, "trialdata": {"rt": -1, "stimulus": "<p id=\"stim\">1</p>", "key_press": -1, "trial_type": "single-stim", "trial_index": 87, "time_elapsed": 394019, "internal_node_id": "0.0-60.0-9.0"}}, {"uniqueid": "MTK1260:3K2755HG5TAPCS1WOS6KE9RS2WVFD1", "current_trial": 88, "dateTime": 1513477393590, "trialdata": {"rt": -1, "stimulus": "<p id=\"stim\">+</p>", "key_press": -1, "type": "FIXATION", "trial_type": "single-stim", "trial_index": 88, "time_elapsed": 395523, "internal_node_id": "0.0-61.0-0.0"}}, {"uniqueid": "MTK1260:3K2755HG5TAPCS1WOS6KE9RS2WVFD1", "current_trial": 89, "dateTime": 1513477396186, "trialdata": {"rt": -1000, "stimulus": "/static/audio/wordpool/DRESS.wav", "key_press": -1, "type": "PRES_AUD", "word": "dress", "wordID": 494, "conditions": [12, 1600, "a", 12000], "trial": 2, "serialpos": 0, "trial_type": "single-audio", "trial_index": 89, "time_elapsed": 398119, "internal_node_id": "0.0-62.0"}}, {"uniqueid": "MTK1260:3K2755HG5TAPCS1WOS6KE9RS2WVFD1", "current_trial": 90, "dateTime": 1513477398944, "trialdata": {"rt": -1000, "stimulus": "/static/audio/wordpool/TURTLE.wav", "key_press": -1, "type": "PRES_AUD", "word": "turtle", "wordID": 1521, "conditions": [12, 1600, "a", 12000], "trial": 2, "serialpos": 1, "trial_type": "single-audio", "trial_index": 90, "time_elapsed": 400877, "internal_node_id": "0.0-63.0"}}, {"uniqueid": "MTK1260:3K2755HG5TAPCS1WOS6KE9RS2WVFD1", "current_trial": 91, "dateTime": 1513477401419, "trialdata": {"rt": -1000, "stimulus": "/static/audio/wordpool/NURSE.wav", "key_press": -1, "type": "PRES_AUD", "word": "nurse", "wordID": 962, "conditions": [12, 1600, "a", 12000], "trial": 2, "serialpos": 2, "trial_type": "single-audio", "trial_index": 91, "time_elapsed": 403352, "internal_node_id": "0.0-64.0"}}, {"uniqueid": "MTK1260:3K2755HG5TAPCS1WOS6KE9RS2WVFD1", "current_trial": 92, "dateTime": 1513477403956, "trialdata": {"rt": -1000, "stimulus": "/static/audio/wordpool/COMPASS.wav", "key_press": -1, "type": "PRES_AUD", "word": "compass", "wordID": 357, "conditions": [12, 1600, "a", 12000], "trial": 2, "serialpos": 3, "trial_type": "single-audio", "trial_index": 92, "time_elapsed": 405889, "internal_node_id": "0.0-65.0"}}, {"uniqueid": "MTK1260:3K2755HG5TAPCS1WOS6KE9RS2WVFD1", "current_trial": 93, "dateTime": 1513477406411, "trialdata": {"rt": -1000, "stimulus": "/static/audio/wordpool/BACON.wav", "key_press": -1, "type": "PRES_AUD", "word": "bacon", "wordID": 66, "conditions": [12, 1600, "a", 12000], "trial": 2, "serialpos": 4, "trial_type": "single-audio", "trial_index": 93, "time_elapsed": 408344, "internal_node_id": "0.0-66.0"}}, {"uniqueid": "MTK1260:3K2755HG5TAPCS1WOS6KE9RS2WVFD1", "current_trial": 94, "dateTime": 1513477409035, "trialdata": {"rt": -1000, "stimulus": "/static/audio/wordpool/ROBIN.wav", "key_press": -1, "type": "PRES_AUD", "word": "robin", "wordID": 1198, "conditions": [12, 1600, "a", 12000], "trial": 2, "serialpos": 5, "trial_type": "single-audio", "trial_index": 94, "time_elapsed": 410968, "internal_node_id": "0.0-67.0"}}, {"uniqueid": "MTK1260:3K2755HG5TAPCS1WOS6KE9RS2WVFD1", "current_trial": 95, "dateTime": 1513477411787, "trialdata": {"rt": -1000, "stimulus": "/static/audio/wordpool/SUNRISE.wav", "key_press": -1, "type": "PRES_AUD", "word": "sunrise", "wordID": 1406, "conditions": [12, 1600, "a", 12000], "trial": 2, "serialpos": 6, "trial_type": "single-audio", "trial_index": 95, "time_elapsed": 413720, "internal_node_id": "0.0-68.0"}}, {"uniqueid": "MTK1260:3K2755HG5TAPCS1WOS6KE9RS2WVFD1", "current_trial": 96, "dateTime": 1513477414440, "trialdata": {"rt": -1000, "stimulus": "/static/audio/wordpool/RIVER.wav", "key_press": -1, "type": "PRES_AUD", "word": "river", "wordID": 1193, "conditions": [12, 1600, "a", 12000], "trial": 2, "serialpos": 7, "trial_type": "single-audio", "trial_index": 96, "time_elapsed": 416373, "internal_node_id": "0.0-69.0"}}, {"uniqueid": "MTK1260:3K2755HG5TAPCS1WOS6KE9RS2WVFD1", "current_trial": 97, "dateTime": 1513477416999, "trialdata": {"rt": -1000, "stimulus": "/static/audio/wordpool/LAGOON.wav", "key_press": -1, "type": "PRES_AUD", "word": "lagoon", "wordID": 794, "conditions": [12, 1600, "a", 12000], "trial": 2, "serialpos": 8, "trial_type": "single-audio", "trial_index": 97, "time_elapsed": 418932, "internal_node_id": "0.0-70.0"}}, {"uniqueid": "MTK1260:3K2755HG5TAPCS1WOS6KE9RS2WVFD1", "current_trial": 98, "dateTime": 1513477419449, "trialdata": {"rt": -1000, "stimulus": "/static/audio/wordpool/FRUIT.wav", "key_press": -1, "type": "PRES_AUD", "word": "fruit", "wordID": 609, "conditions": [12, 1600, "a", 12000], "trial": 2, "serialpos": 9, "trial_type": "single-audio", "trial_index": 98, "time_elapsed": 421382, "internal_node_id": "0.0-71.0"}}, {"uniqueid": "MTK1260:3K2755HG5TAPCS1WOS6KE9RS2WVFD1", "current_trial": 99, "dateTime": 1513477421939, "trialdata": {"rt": -1000, "stimulus": "/static/audio/wordpool/FIREMAN.wav", "key_press": -1, "type": "PRES_AUD", "word": "fireman", "wordID": 568, "conditions": [12, 1600, "a", 12000], "trial": 2, "serialpos": 10, "trial_type": "single-audio", "trial_index": 99, "time_elapsed": 423872, "internal_node_id": "0.0-72.0"}}, {"uniqueid": "MTK1260:3K2755HG5TAPCS1WOS6KE9RS2WVFD1", "current_trial": 100, "dateTime": 1513477424662, "trialdata": {"rt": -1000, "stimulus": "/static/audio/wordpool/PATIENT.wav", "key_press": -1, "type": "PRES_AUD", "word": "patient", "wordID": 1023, "conditions": [12, 1600, "a", 12000], "trial": 2, "serialpos": 11, "trial_type": "single-audio", "trial_index": 100, "time_elapsed": 426595, "internal_node_id": "0.0-73.0"}}, {"uniqueid": "MTK1260:3K2755HG5TAPCS1WOS6KE9RS2WVFD1", "current_trial": 101, "dateTime": 1513477425974, "trialdata": {"rt": -1, "stimulus": "", "key_press": -1, "type": "PRE_RECALL_DELAY", "trial_type": "single-stim", "trial_index": 101, "time_elapsed": 427907, "internal_node_id": "0.0-74.0-0.0"}}, {"uniqueid": "MTK1260:3K2755HG5TAPCS1WOS6KE9RS2WVFD1", "current_trial": 102, "dateTime": 1513477426475, "trialdata": {"rt": -1000, "stimulus": "/static/audio/400Hz.wav", "key_press": -1, "type": "PRE_RECALL_ALERT", "trial_type": "single-audio", "trial_index": 102, "time_elapsed": 428408, "internal_node_id": "0.0-75.0"}}, {"uniqueid": "MTK1260:3K2755HG5TAPCS1WOS6KE9RS2WVFD1", "current_trial": 103, "dateTime": 1513477486481, "trialdata": {"rt": [2839, 4166, 5494, 7181, 8925, 10421, 12041, 13549, 15720, 17059, 19039, 20568, 33967], "recwords": ["dress", "turtle", "nurse", "compass", "bacon", "robin", "sunrise", "river", "lagoon", "fruit", "fireman", "patient", "patient"], "type": "FREE_RECALL", "conditions": [12, 1600, "a", 12000], "trial": 2, "trial_type": "free-recall", "trial_index": 103, "time_elapsed": 488412, "internal_node_id": "0.0-76.0-0.0"}}, {"uniqueid": "MTK1260:3K2755HG5TAPCS1WOS6KE9RS2WVFD1", "current_trial": 104, "dateTime": 1513477490065, "trialdata": {"rt": 1584, "key_press": 13, "type": "INSTRUCTIONS", "trial_type": "text", "trial_index": 104, "time_elapsed": 491998, "internal_node_id": "0.0-77.0"}}, {"uniqueid": "MTK1260:3K2755HG5TAPCS1WOS6KE9RS2WVFD1", "current_trial": 105, "dateTime": 1513477504071, "trialdata": {"rt": [2383, 3823, 5285, 7052, 8739, 11045], "responses": ["13", "17", "13", "17", "15", "14"], "num1": [2, 8, 6, 5, 2, 3, 9], "num2": [6, 8, 6, 7, 8, 2, 4], "num3": [5, 1, 1, 5, 5, 9, 3], "type": "DISTRACTOR", "conditions": [12, 800, "v", 12000], "trial": 3, "trial_type": "math-distractor", "trial_index": 105, "time_elapsed": 506004, "internal_node_id": "0.0-78.0"}}, {"uniqueid": "MTK1260:3K2755HG5TAPCS1WOS6KE9RS2WVFD1", "current_trial": 106, "dateTime": 1513477507077, "trialdata": {"rt": -1, "stimulus": "<p id=\"stim\">10</p>", "key_press": -1, "trial_type": "single-stim", "trial_index": 106, "time_elapsed": 509010, "internal_node_id": "0.0-79.0-0.0"}}, {"uniqueid": "MTK1260:3K2755HG5TAPCS1WOS6KE9RS2WVFD1", "current_trial": 107, "dateTime": 1513477508081, "trialdata": {"rt": -1, "stimulus": "<p id=\"stim\">9</p>", "key_press": -1, "trial_type": "single-stim", "trial_index": 107, "time_elapsed": 510014, "internal_node_id": "0.0-79.0-1.0"}}, {"uniqueid": "MTK1260:3K2755HG5TAPCS1WOS6KE9RS2WVFD1", "current_trial": 108, "dateTime": 1513477509085, "trialdata": {"rt": -1, "stimulus": "<p id=\"stim\">8</p>", "key_press": -1, "trial_type": "single-stim", "trial_index": 108, "time_elapsed": 511018, "internal_node_id": "0.0-79.0-2.0"}}, {"uniqueid": "MTK1260:3K2755HG5TAPCS1WOS6KE9RS2WVFD1", "current_trial": 109, "dateTime": 1513477510089, "trialdata": {"rt": -1, "stimulus": "<p id=\"stim\">7</p>", "key_press": -1, "trial_type": "single-stim", "trial_index": 109, "time_elapsed": 512022, "internal_node_id": "0.0-79.0-3.0"}}, {"uniqueid": "MTK1260:3K2755HG5TAPCS1WOS6KE9RS2WVFD1", "current_trial": 110, "dateTime": 1513477511093, "trialdata": {"rt": -1, "stimulus": "<p id=\"stim\">6</p>", "key_press": -1, "trial_type": "single-stim", "trial_index": 110, "time_elapsed": 513026, "internal_node_id": "0.0-79.0-4.0"}}, {"uniqueid": "MTK1260:3K2755HG5TAPCS1WOS6KE9RS2WVFD1", "current_trial": 111, "dateTime": 1513477512097, "trialdata": {"rt": -1, "stimulus": "<p id=\"stim\">5</p>", "key_press": -1, "trial_type": "single-stim", "trial_index": 111, "time_elapsed": 514030, "internal_node_id": "0.0-79.0-5.0"}}, {"uniqueid": "MTK1260:3K2755HG5TAPCS1WOS6KE9RS2WVFD1", "current_trial": 112, "dateTime": 1513477513101, "trialdata": {"rt": -1, "stimulus": "<p id=\"stim\">4</p>", "key_press": -1, "trial_type": "single-stim", "trial_index": 112, "time_elapsed": 515034, "internal_node_id": "0.0-79.0-6.0"}}, {"uniqueid": "MTK1260:3K2755HG5TAPCS1WOS6KE9RS2WVFD1", "current_trial": 113, "dateTime": 1513477514105, "trialdata": {"rt": -1, "stimulus": "<p id=\"stim\">3</p>", "key_press": -1, "trial_type": "single-stim", "trial_index": 113, "time_elapsed": 516038, "internal_node_id": "0.0-79.0-7.0"}}, {"uniqueid": "MTK1260:3K2755HG5TAPCS1WOS6KE9RS2WVFD1", "current_trial": 114, "dateTime": 1513477515110, "trialdata": {"rt": -1, "stimulus": "<p id=\"stim\">2</p>", "key_press": -1, "trial_type": "single-stim", "trial_index": 114, "time_elapsed": 517043, "internal_node_id": "0.0-79.0-8.0"}}, {"uniqueid": "MTK1260:3K2755HG5TAPCS1WOS6KE9RS2WVFD1", "current_trial": 115, "dateTime": 1513477516113, "trialdata": {"rt": -1, "stimulus": "<p id=\"stim\">1</p>", "key_press": -1, "trial_type": "single-stim", "trial_index": 115, "time_elapsed": 518046, "internal_node_id": "0.0-79.0-9.0"}}, {"uniqueid": "MTK1260:3K2755HG5TAPCS1WOS6KE9RS2WVFD1", "current_trial": 116, "dateTime": 1513477517617, "trialdata": {"rt": -1, "stimulus": "<p id=\"stim\">+</p>", "key_press": -1, "type": "FIXATION", "trial_type": "single-stim", "trial_index": 116, "time_elapsed": 519550, "internal_node_id": "0.0-80.0-0.0"}}, {"uniqueid": "MTK1260:3K2755HG5TAPCS1WOS6KE9RS2WVFD1", "current_trial": 117, "dateTime": 1513477518418, "trialdata": {"rt": -1, "stimulus": "<p id=\"stim\">STAPLE</p>", "key_press": -1, "type": "PRES_VIS", "word": "staple", "wordID": 1370, "conditions": [12, 800, "v", 12000], "trial": 3, "serialpos": 0, "trial_type": "single-stim", "trial_index": 117, "time_elapsed": 520351, "internal_node_id": "0.0-81.0"}}, {"uniqueid": "MTK1260:3K2755HG5TAPCS1WOS6KE9RS2WVFD1", "current_trial": 118, "dateTime": 1513477520229, "trialdata": {"rt": -1, "stimulus": "<p id=\"stim\">EMPIRE</p>", "key_press": -1, "type": "PRES_VIS", "word": "empire", "wordID": 529, "conditions": [12, 800, "v", 12000], "trial": 3, "serialpos": 1, "trial_type": "single-stim", "trial_index": 118, "time_elapsed": 522162, "internal_node_id": "0.0-82.0"}}, {"uniqueid": "MTK1260:3K2755HG5TAPCS1WOS6KE9RS2WVFD1", "current_trial": 119, "dateTime": 1513477522010, "trialdata": {"rt": -1, "stimulus": "<p id=\"stim\">TRIBE</p>", "key_press": -1, "type": "PRES_VIS", "word": "tribe", "wordID": 1504, "conditions": [12, 800, "v", 12000], "trial": 3, "serialpos": 2, "trial_type": "single-stim", "trial_index": 119, "time_elapsed": 523943, "internal_node_id": "0.0-83.0"}}, {"uniqueid": "MTK1260:3K2755HG5TAPCS1WOS6KE9RS2WVFD1", "current_trial": 120, "dateTime": 1513477523624, "trialdata": {"rt": -1, "stimulus": "<p id=\"stim\">PLIERS</p>", "key_press": -1, "type": "PRES_VIS", "word": "pliers", "wordID": 1088, "conditions": [12, 800, "v", 12000], "trial": 3, "serialpos": 3, "trial_type": "single-stim", "trial_index": 120, "time_elapsed": 525557, "internal_node_id": "0.0-84.0"}}, {"uniqueid": "MTK1260:3K2755HG5TAPCS1WOS6KE9RS2WVFD1", "current_trial": 121, "dateTime": 1513477525464, "trialdata": {"rt": -1, "stimulus": "<p id=\"stim\">COOK</p>", "key_press": -1, "type": "PRES_VIS", "word": "cook", "wordID": 371, "conditions": [12, 800, "v", 12000], "trial": 3, "serialpos": 4, "trial_type": "single-stim", "trial_index": 121, "time_elapsed": 527397, "internal_node_id": "0.0-85.0"}}, {"uniqueid": "MTK1260:3K2755HG5TAPCS1WOS6KE9RS2WVFD1", "current_trial": 122, "dateTime": 1513477527135, "trialdata": {"rt": -1, "stimulus": "<p id=\"stim\">CRICKET</p>", "key_press": -1, "type": "PRES_VIS", "word": "cricket", "wordID": 407, "conditions": [12, 800, "v", 12000], "trial": 3, "serialpos": 5, "trial_type": "single-stim", "trial_index": 122, "time_elapsed": 529068, "internal_node_id": "0.0-86.0"}}, {"uniqueid": "MTK1260:3K2755HG5TAPCS1WOS6KE9RS2WVFD1", "current_trial": 123, "dateTime": 1513477529120, "trialdata": {"rt": -1, "stimulus": "<p id=\"stim\">ISLAND</p>", "key_press": -1, "type": "PRES_VIS", "word": "island", "wordID": 744, "conditions": [12, 800, "v", 12000], "trial": 3, "serialpos": 6, "trial_type": "single-stim", "trial_index": 123, "time_elapsed": 531053, "internal_node_id": "0.0-87.0"}}, {"uniqueid": "MTK1260:3K2755HG5TAPCS1WOS6KE9RS2WVFD1", "current_trial": 124, "dateTime": 1513477530943, "trialdata": {"rt": -1, "stimulus": "<p id=\"stim\">SEAFOOD</p>", "key_press": -1, "type": "PRES_VIS", "word": "seafood", "wordID": 1259, "conditions": [12, 800, "v", 12000], "trial": 3, "serialpos": 7, "trial_type": "single-stim", "trial_index": 124, "time_elapsed": 532876, "internal_node_id": "0.0-88.0"}}, {"uniqueid": "MTK1260:3K2755HG5TAPCS1WOS6KE9RS2WVFD1", "current_trial": 125, "dateTime": 1513477532858, "trialdata": {"rt": -1, "stimulus": "<p id=\"stim\">EYELASH</p>", "key_press": -1, "type": "PRES_VIS", "word": "eyelash", "wordID": 545, "conditions": [12, 800, "v", 12000], "trial": 3, "serialpos": 8, "trial_type": "single-stim", "trial_index": 125, "time_elapsed": 534791, "internal_node_id": "0.0-89.0"}}, {"uniqueid": "MTK1260:3K2755HG5TAPCS1WOS6KE9RS2WVFD1", "current_trial": 126, "dateTime": 1513477534843, "trialdata": {"rt": -1, "stimulus": "<p id=\"stim\">CUSTARD</p>", "key_press": -1, "type": "PRES_VIS", "word": "custard", "wordID": 428, "conditions": [12, 800, "v", 12000], "trial": 3, "serialpos": 9, "trial_type": "single-stim", "trial_index": 126, "time_elapsed": 536776, "internal_node_id": "0.0-90.0"}}, {"uniqueid": "MTK1260:3K2755HG5TAPCS1WOS6KE9RS2WVFD1", "current_trial": 127, "dateTime": 1513477536839, "trialdata": {"rt": -1, "stimulus": "<p id=\"stim\">SHORTCAKE</p>", "key_press": -1, "type": "PRES_VIS", "word": "shortcake", "wordID": 1291, "conditions": [12, 800, "v", 12000], "trial": 3, "serialpos": 10, "trial_type": "single-stim", "trial_index": 127, "time_elapsed": 538772, "internal_node_id": "0.0-91.0"}}, {"uniqueid": "MTK1260:3K2755HG5TAPCS1WOS6KE9RS2WVFD1", "current_trial": 128, "dateTime": 1513477538650, "trialdata": {"rt": -1, "stimulus": "<p id=\"stim\">OYSTER</p>", "key_press": -1, "type": "PRES_VIS", "word": "oyster", "wordID": 994, "conditions": [12, 800, "v", 12000], "trial": 3, "serialpos": 11, "trial_type": "single-stim", "trial_index": 128, "time_elapsed": 540583, "internal_node_id": "0.0-92.0"}}, {"uniqueid": "MTK1260:3K2755HG5TAPCS1WOS6KE9RS2WVFD1", "current_trial": 129, "dateTime": 1513477541204, "trialdata": {"rt": -1, "stimulus": "", "key_press": -1, "type": "PRE_RECALL_DELAY", "trial_type": "single-stim", "trial_index": 129, "time_elapsed": 543137, "internal_node_id": "0.0-93.0-0.0"}}, {"uniqueid": "MTK1260:3K2755HG5TAPCS1WOS6KE9RS2WVFD1", "current_trial": 130, "dateTime": 1513477541705, "trialdata": {"rt": -1000, "stimulus": "/static/audio/400Hz.wav", "key_press": -1, "type": "PRE_RECALL_ALERT", "trial_type": "single-audio", "trial_index": 130, "time_elapsed": 543638, "internal_node_id": "0.0-94.0"}}, {"uniqueid": "MTK1260:3K2755HG5TAPCS1WOS6KE9RS2WVFD1", "current_trial": 131, "dateTime": 1513477601708, "trialdata": {"rt": [3225, 5092, 6870, 8501, 9480, 11202, 15375, 16815, 18536, 21157, 23160, 25387], "recwords": ["staple", "empire", "tribe", "pliers", "cook", "cricket", "island", "seafood", "eyelash", "shortcake", "kitchen", "oyster"], "type": "FREE_RECALL", "conditions": [12, 800, "v", 12000], "trial": 3, "trial_type": "free-recall", "trial_index": 131, "time_elapsed": 603640, "internal_node_id": "0.0-95.0-0.0"}}, {"uniqueid": "MTK1260:3K2755HG5TAPCS1WOS6KE9RS2WVFD1", "current_trial": 132, "dateTime": 1513477604950, "trialdata": {"rt": 1241, "key_press": 13, "type": "INSTRUCTIONS", "trial_type": "text", "trial_index": 132, "time_elapsed": 606883, "internal_node_id": "0.0-96.0"}}, {"uniqueid": "MTK1260:3K2755HG5TAPCS1WOS6KE9RS2WVFD1", "current_trial": 133, "dateTime": 1513477618957, "trialdata": {"rt": [1809, 3587, 5972, 8109, 10685], "responses": ["14", "19", "10", "17", "12"], "num1": [8, 1, 6, 4, 7, 7], "num2": [2, 9, 1, 4, 4, 5], "num3": [4, 9, 3, 9, 1, 1], "type": "DISTRACTOR", "conditions": [24, 800, "v", 12000], "trial": 4, "trial_type": "math-distractor", "trial_index": 133, "time_elapsed": 620889, "internal_node_id": "0.0-97.0"}}, {"uniqueid": "MTK1260:3K2755HG5TAPCS1WOS6KE9RS2WVFD1", "current_trial": 134, "dateTime": 1513477621962, "trialdata": {"rt": -1, "stimulus": "<p id=\"stim\">10</p>", "key_press": -1, "trial_type": "single-stim", "trial_index": 134, "time_elapsed": 623895, "internal_node_id": "0.0-98.0-0.0"}}, {"uniqueid": "MTK1260:3K2755HG5TAPCS1WOS6KE9RS2WVFD1", "current_trial": 135, "dateTime": 1513477622967, "trialdata": {"rt": -1, "stimulus": "<p id=\"stim\">9</p>", "key_press": -1, "trial_type": "single-stim", "trial_index": 135, "time_elapsed": 624900, "internal_node_id": "0.0-98.0-1.0"}}, {"uniqueid": "MTK1260:3K2755HG5TAPCS1WOS6KE9RS2WVFD1", "current_trial": 136, "dateTime": 1513477623970, "trialdata": {"rt": -1, "stimulus": "<p id=\"stim\">8</p>", "key_press": -1, "trial_type": "single-stim", "trial_index": 136, "time_elapsed": 625903, "internal_node_id": "0.0-98.0-2.0"}}, {"uniqueid": "MTK1260:3K2755HG5TAPCS1WOS6KE9RS2WVFD1", "current_trial": 137, "dateTime": 1513477624975, "trialdata": {"rt": -1, "stimulus": "<p id=\"stim\">7</p>", "key_press": -1, "trial_type": "single-stim", "trial_index": 137, "time_elapsed": 626908, "internal_node_id": "0.0-98.0-3.0"}}, {"uniqueid": "MTK1260:3K2755HG5TAPCS1WOS6KE9RS2WVFD1", "current_trial": 138, "dateTime": 1513477625979, "trialdata": {"rt": -1, "stimulus": "<p id=\"stim\">6</p>", "key_press": -1, "trial_type": "single-stim", "trial_index": 138, "time_elapsed": 627911, "internal_node_id": "0.0-98.0-4.0"}}, {"uniqueid": "MTK1260:3K2755HG5TAPCS1WOS6KE9RS2WVFD1", "current_trial": 139, "dateTime": 1513477626983, "trialdata": {"rt": -1, "stimulus": "<p id=\"stim\">5</p>", "key_press": -1, "trial_type": "single-stim", "trial_index": 139, "time_elapsed": 628916, "internal_node_id": "0.0-98.0-5.0"}}, {"uniqueid": "MTK1260:3K2755HG5TAPCS1WOS6KE9RS2WVFD1", "current_trial": 140, "dateTime": 1513477627987, "trialdata": {"rt": -1, "stimulus": "<p id=\"stim\">4</p>", "key_press": -1, "trial_type": "single-stim", "trial_index": 140, "time_elapsed": 629920, "internal_node_id": "0.0-98.0-6.0"}}, {"uniqueid": "MTK1260:3K2755HG5TAPCS1WOS6KE9RS2WVFD1", "current_trial": 141, "dateTime": 1513477628991, "trialdata": {"rt": -1, "stimulus": "<p id=\"stim\">3</p>", "key_press": -1, "trial_type": "single-stim", "trial_index": 141, "time_elapsed": 630924, "internal_node_id": "0.0-98.0-7.0"}}, {"uniqueid": "MTK1260:3K2755HG5TAPCS1WOS6KE9RS2WVFD1", "current_trial": 142, "dateTime": 1513477629993, "trialdata": {"rt": -1, "stimulus": "<p id=\"stim\">2</p>", "key_press": -1, "trial_type": "single-stim", "trial_index": 142, "time_elapsed": 631925, "internal_node_id": "0.0-98.0-8.0"}}, {"uniqueid": "MTK1260:3K2755HG5TAPCS1WOS6KE9RS2WVFD1", "current_trial": 143, "dateTime": 1513477630994, "trialdata": {"rt": -1, "stimulus": "<p id=\"stim\">1</p>", "key_press": -1, "trial_type": "single-stim", "trial_index": 143, "time_elapsed": 632927, "internal_node_id": "0.0-98.0-9.0"}}, {"uniqueid": "MTK1260:3K2755HG5TAPCS1WOS6KE9RS2WVFD1", "current_trial": 144, "dateTime": 1513477632497, "trialdata": {"rt": -1, "stimulus": "<p id=\"stim\">+</p>", "key_press": -1, "type": "FIXATION", "trial_type": "single-stim", "trial_index": 144, "time_elapsed": 634430, "internal_node_id": "0.0-99.0-0.0"}}, {"uniqueid": "MTK1260:3K2755HG5TAPCS1WOS6KE9RS2WVFD1", "current_trial": 145, "dateTime": 1513477633298, "trialdata": {"rt": -1, "stimulus": "<p id=\"stim\">LADY</p>", "key_press": -1, "type": "PRES_VIS", "word": "lady", "wordID": 793, "conditions": [24, 800, "v", 12000], "trial": 4, "serialpos": 0, "trial_type": "single-stim", "trial_index": 145, "time_elapsed": 635231, "internal_node_id": "0.0-100.0"}}, {"uniqueid": "MTK1260:3K2755HG5TAPCS1WOS6KE9RS2WVFD1", "current_trial": 146, "dateTime": 1513477635283, "trialdata": {"rt": -1, "stimulus": "<p id=\"stim\">COSTUME</p>", "key_press": -1, "type": "PRES_VIS", "word": "costume", "wordID": 382, "conditions": [24, 800, "v", 12000], "trial": 4, "serialpos": 1, "trial_type": "single-stim", "trial_index": 146, "time_elapsed": 637215, "internal_node_id": "0.0-101.0"}}, {"uniqueid": "MTK1260:3K2755HG5TAPCS1WOS6KE9RS2WVFD1", "current_trial": 147, "dateTime": 1513477637279, "trialdata": {"rt": -1, "stimulus": "<p id=\"stim\">TUTU</p>", "key_press": -1, "type": "PRES_VIS", "word": "tutu", "wordID": 1523, "conditions": [24, 800, "v", 12000], "trial": 4, "serialpos": 2, "trial_type": "single-stim", "trial_index": 147, "time_elapsed": 639212, "internal_node_id": "0.0-102.0"}}, {"uniqueid": "MTK1260:3K2755HG5TAPCS1WOS6KE9RS2WVFD1", "current_trial": 148, "dateTime": 1513477638968, "trialdata": {"rt": -1, "stimulus": "<p id=\"stim\">CHURCH</p>", "key_press": -1, "type": "PRES_VIS", "word": "church", "wordID": 306, "conditions": [24, 800, "v", 12000], "trial": 4, "serialpos": 3, "trial_type": "single-stim", "trial_index": 148, "time_elapsed": 640901, "internal_node_id": "0.0-103.0"}}, {"uniqueid": "MTK1260:3K2755HG5TAPCS1WOS6KE9RS2WVFD1", "current_trial": 149, "dateTime": 1513477640651, "trialdata": {"rt": -1, "stimulus": "<p id=\"stim\">COUNTY</p>", "key_press": -1, "type": "PRES_VIS", "word": "county", "wordID": 388, "conditions": [24, 800, "v", 12000], "trial": 4, "serialpos": 4, "trial_type": "single-stim", "trial_index": 149, "time_elapsed": 642584, "internal_node_id": "0.0-104.0"}}, {"uniqueid": "MTK1260:3K2755HG5TAPCS1WOS6KE9RS2WVFD1", "current_trial": 150, "dateTime": 1513477642578, "trialdata": {"rt": -1, "stimulus": "<p id=\"stim\">WIDOW</p>", "key_press": -1, "type": "PRES_VIS", "word": "widow", "wordID": 1607, "conditions": [24, 800, "v", 12000], "trial": 4, "serialpos": 5, "trial_type": "single-stim", "trial_index": 150, "time_elapsed": 644511, "internal_node_id": "0.0-105.0"}}, {"uniqueid": "MTK1260:3K2755HG5TAPCS1WOS6KE9RS2WVFD1", "current_trial": 151, "dateTime": 1513477644418, "trialdata": {"rt": -1, "stimulus": "<p id=\"stim\">WARDROBE</p>", "key_press": -1, "type": "PRES_VIS", "word": "wardrobe", "wordID": 1586, "conditions": [24, 800, "v", 12000], "trial": 4, "serialpos": 6, "trial_type": "single-stim", "trial_index": 151, "time_elapsed": 646351, "internal_node_id": "0.0-106.0"}}, {"uniqueid": "MTK1260:3K2755HG5TAPCS1WOS6KE9RS2WVFD1", "current_trial": 152, "dateTime": 1513477646072, "trialdata": {"rt": -1, "stimulus": "<p id=\"stim\">GRAPE</p>", "key_press": -1, "type": "PRES_VIS", "word": "grape", "wordID": 653, "conditions": [24, 800, "v", 12000], "trial": 4, "serialpos": 7, "trial_type": "single-stim", "trial_index": 152, "time_elapsed": 648005, "internal_node_id": "0.0-107.0"}}, {"uniqueid": "MTK1260:3K2755HG5TAPCS1WOS6KE9RS2WVFD1", "current_trial": 153, "dateTime": 1513477647889, "trialdata": {"rt": -1, "stimulus": "<p id=\"stim\">VALVE</p>", "key_press": -1, "type": "PRES_VIS", "word": "valve", "wordID": 1545, "conditions": [24, 800, "v", 12000], "trial": 4, "serialpos": 8, "trial_type": "single-stim", "trial_index": 153, "time_elapsed": 649821, "internal_node_id": "0.0-108.0"}}, {"uniqueid": "MTK1260:3K2755HG5TAPCS1WOS6KE9RS2WVFD1", "current_trial": 154, "dateTime": 1513477649624, "trialdata": {"rt": -1, "stimulus": "<p id=\"stim\">PLUTO</p>", "key_press": -1, "type": "PRES_VIS", "word": "pluto", "wordID": 1091, "conditions": [24, 800, "v", 12000], "trial": 4, "serialpos": 9, "trial_type": "single-stim", "trial_index": 154, "time_elapsed": 651557, "internal_node_id": "0.0-109.0"}}, {"uniqueid": "MTK1260:3K2755HG5TAPCS1WOS6KE9RS2WVFD1", "current_trial": 155, "dateTime": 1513477651545, "trialdata": {"rt": -1, "stimulus": "<p id=\"stim\">COUNTRY</p>", "key_press": -1, "type": "PRES_VIS", "word": "country", "wordID": 387, "conditions": [24, 800, "v", 12000], "trial": 4, "serialpos": 10, "trial_type": "single-stim", "trial_index": 155, "time_elapsed": 653478, "internal_node_id": "0.0-110.0"}}, {"uniqueid": "MTK1260:3K2755HG5TAPCS1WOS6KE9RS2WVFD1", "current_trial": 156, "dateTime": 1513477653286, "trialdata": {"rt": -1, "stimulus": "<p id=\"stim\">WORLD</p>", "key_press": -1, "type": "PRES_VIS", "word": "world", "wordID": 1621, "conditions": [24, 800, "v", 12000], "trial": 4, "serialpos": 11, "trial_type": "single-stim", "trial_index": 156, "time_elapsed": 655219, "internal_node_id": "0.0-111.0"}}, {"uniqueid": "MTK1260:3K2755HG5TAPCS1WOS6KE9RS2WVFD1", "current_trial": 157, "dateTime": 1513477655190, "trialdata": {"rt": -1, "stimulus": "<p id=\"stim\">WAITER</p>", "key_press": -1, "type": "PRES_VIS", "word": "waiter", "wordID": 1579, "conditions": [24, 800, "v", 12000], "trial": 4, "serialpos": 12, "trial_type": "single-stim", "trial_index": 157, "time_elapsed": 657123, "internal_node_id": "0.0-112.0"}}, {"uniqueid": "MTK1260:3K2755HG5TAPCS1WOS6KE9RS2WVFD1", "current_trial": 158, "dateTime": 1513477657122, "trialdata": {"rt": -1, "stimulus": "<p id=\"stim\">SUBWAY</p>", "key_press": -1, "type": "PRES_VIS", "word": "subway", "wordID": 1399, "conditions": [24, 800, "v", 12000], "trial": 4, "serialpos": 13, "trial_type": "single-stim", "trial_index": 158, "time_elapsed": 659055, "internal_node_id": "0.0-113.0"}}, {"uniqueid": "MTK1260:3K2755HG5TAPCS1WOS6KE9RS2WVFD1", "current_trial": 159, "dateTime": 1513477659038, "trialdata": {"rt": -1, "stimulus": "<p id=\"stim\">CASHIER</p>", "key_press": -1, "type": "PRES_VIS", "word": "cashier", "wordID": 253, "conditions": [24, 800, "v", 12000], "trial": 4, "serialpos": 14, "trial_type": "single-stim", "trial_index": 159, "time_elapsed": 660971, "internal_node_id": "0.0-114.0"}}, {"uniqueid": "MTK1260:3K2755HG5TAPCS1WOS6KE9RS2WVFD1", "current_trial": 160, "dateTime": 1513477660932, "trialdata": {"rt": -1, "stimulus": "<p id=\"stim\">WAITRESS</p>", "key_press": -1, "type": "PRES_VIS", "word": "waitress", "wordID": 1580, "conditions": [24, 800, "v", 12000], "trial": 4, "serialpos": 15, "trial_type": "single-stim", "trial_index": 160, "time_elapsed": 662865, "internal_node_id": "0.0-115.0"}}, {"uniqueid": "MTK1260:3K2755HG5TAPCS1WOS6KE9RS2WVFD1", "current_trial": 161, "dateTime": 1513477662636, "trialdata": {"rt": -1, "stimulus": "<p id=\"stim\">SPOOL</p>", "key_press": -1, "type": "PRES_VIS", "word": "spool", "wordID": 1355, "conditions": [24, 800, "v", 12000], "trial": 4, "serialpos": 16, "trial_type": "single-stim", "trial_index": 161, "time_elapsed": 664569, "internal_node_id": "0.0-116.0"}}, {"uniqueid": "MTK1260:3K2755HG5TAPCS1WOS6KE9RS2WVFD1", "current_trial": 162, "dateTime": 1513477664482, "trialdata": {"rt": -1, "stimulus": "<p id=\"stim\">VAGRANT</p>", "key_press": -1, "type": "PRES_VIS", "word": "vagrant", "wordID": 1543, "conditions": [24, 800, "v", 12000], "trial": 4, "serialpos": 17, "trial_type": "single-stim", "trial_index": 162, "time_elapsed": 666415, "internal_node_id": "0.0-117.0"}}, {"uniqueid": "MTK1260:3K2755HG5TAPCS1WOS6KE9RS2WVFD1", "current_trial": 163, "dateTime": 1513477666333, "trialdata": {"rt": -1, "stimulus": "<p id=\"stim\">AUTHOR</p>", "key_press": -1, "type": "PRES_VIS", "word": "author", "wordID": 60, "conditions": [24, 800, "v", 12000], "trial": 4, "serialpos": 18, "trial_type": "single-stim", "trial_index": 163, "time_elapsed": 668266, "internal_node_id": "0.0-118.0"}}, {"uniqueid": "MTK1260:3K2755HG5TAPCS1WOS6KE9RS2WVFD1", "current_trial": 164, "dateTime": 1513477668295, "trialdata": {"rt": -1, "stimulus": "<p id=\"stim\">ROD</p>", "key_press": -1, "type": "PRES_VIS", "word": "rod", "wordID": 1202, "conditions": [24, 800, "v", 12000], "trial": 4, "serialpos": 19, "trial_type": "single-stim", "trial_index": 164, "time_elapsed": 670228, "internal_node_id": "0.0-119.0"}}, {"uniqueid": "MTK1260:3K2755HG5TAPCS1WOS6KE9RS2WVFD1", "current_trial": 165, "dateTime": 1513477669995, "trialdata": {"rt": -1, "stimulus": "<p id=\"stim\">FLAG</p>", "key_press": -1, "type": "PRES_VIS", "word": "flag", "wordID": 572, "conditions": [24, 800, "v", 12000], "trial": 4, "serialpos": 20, "trial_type": "single-stim", "trial_index": 165, "time_elapsed": 671928, "internal_node_id": "0.0-120.0"}}, {"uniqueid": "MTK1260:3K2755HG5TAPCS1WOS6KE9RS2WVFD1", "current_trial": 166, "dateTime": 1513477671963, "trialdata": {"rt": -1, "stimulus": "<p id=\"stim\">CARROT</p>", "key_press": -1, "type": "PRES_VIS", "word": "carrot", "wordID": 248, "conditions": [24, 800, "v", 12000], "trial": 4, "serialpos": 21, "trial_type": "single-stim", "trial_index": 166, "time_elapsed": 673896, "internal_node_id": "0.0-121.0"}}, {"uniqueid": "MTK1260:3K2755HG5TAPCS1WOS6KE9RS2WVFD1", "current_trial": 167, "dateTime": 1513477673663, "trialdata": {"rt": -1, "stimulus": "<p id=\"stim\">LIZARD</p>", "key_press": -1, "type": "PRES_VIS", "word": "lizard", "wordID": 833, "conditions": [24, 800, "v", 12000], "trial": 4, "serialpos": 22, "trial_type": "single-stim", "trial_index": 167, "time_elapsed": 675596, "internal_node_id": "0.0-122.0"}}, {"uniqueid": "MTK1260:3K2755HG5TAPCS1WOS6KE9RS2WVFD1", "current_trial": 168, "dateTime": 1513477675457, "trialdata": {"rt": -1, "stimulus": "<p id=\"stim\">ARMY</p>", "key_press": -1, "type": "PRES_VIS", "word": "army", "wordID": 38, "conditions": [24, 800, "v", 12000], "trial": 4, "serialpos": 23, "trial_type": "single-stim", "trial_index": 168, "time_elapsed": 677390, "internal_node_id": "0.0-123.0"}}, {"uniqueid": "MTK1260:3K2755HG5TAPCS1WOS6KE9RS2WVFD1", "current_trial": 169, "dateTime": 1513477677790, "trialdata": {"rt": -1, "stimulus": "", "key_press": -1, "type": "PRE_RECALL_DELAY", "trial_type": "single-stim", "trial_index": 169, "time_elapsed": 679723, "internal_node_id": "0.0-124.0-0.0"}}, {"uniqueid": "MTK1260:3K2755HG5TAPCS1WOS6KE9RS2WVFD1", "current_trial": 170, "dateTime": 1513477678291, "trialdata": {"rt": -1000, "stimulus": "/static/audio/400Hz.wav", "key_press": -1, "type": "PRE_RECALL_ALERT", "trial_type": "single-audio", "trial_index": 170, "time_elapsed": 680224, "internal_node_id": "0.0-125.0"}}, {"uniqueid": "MTK1260:3K2755HG5TAPCS1WOS6KE9RS2WVFD1", "current_trial": 171, "dateTime": 1513477738296, "trialdata": {"rt": [2775, 4271, 5633, 7590, 9064, 12652, 17017, 19380, 21754, 23655, 26569, 29978, 31867, 40058, 43927, 46459, 48506, 51172, 52567, 54491, 55819, 57191, 58812, 59779], "recwords": ["lasy", "costume", "tutu", "church", "country", "widow", "wardrobe", "grape", "valve", "plute", "country", "world", "waiter", "seet", "crater", "waitress", "spool", "vagrant", "author", "rice", "flag", "carrot", "lizard", "army"], "type": "FREE_RECALL", "conditions": [24, 800, "v", 12000], "trial": 4, "trial_type": "free-recall", "trial_index": 171, "time_elapsed": 740227, "internal_node_id": "0.0-126.0-0.0"}}, {"uniqueid": "MTK1260:3K2755HG5TAPCS1WOS6KE9RS2WVFD1", "current_trial": 172, "dateTime": 1513477746002, "trialdata": {"rt": 5703, "key_press": 13, "type": "INSTRUCTIONS", "trial_type": "text", "trial_index": 172, "time_elapsed": 747935, "internal_node_id": "0.0-127.0"}}, {"uniqueid": "MTK1260:3K2755HG5TAPCS1WOS6KE9RS2WVFD1", "current_trial": 173, "dateTime": 1513477760005, "trialdata": {"rt": [3465, 5322, 7898, 10992], "responses": ["20", "9", "20", "13"], "num1": [7, 5, 8, 4, 3], "num2": [4, 1, 7, 4, 4], "num3": [9, 3, 5, 5, 5], "type": "DISTRACTOR", "conditions": [24, 1600, "v", 12000], "trial": 5, "trial_type": "math-distractor", "trial_index": 173, "time_elapsed": 761938, "internal_node_id": "0.0-128.0"}}, {"uniqueid": "MTK1260:3K2755HG5TAPCS1WOS6KE9RS2WVFD1", "current_trial": 174, "dateTime": 1513477763012, "trialdata": {"rt": -1, "stimulus": "<p id=\"stim\">10</p>", "key_press": -1, "trial_type": "single-stim", "trial_index": 174, "time_elapsed": 764945, "internal_node_id": "0.0-129.0-0.0"}}, {"uniqueid": "MTK1260:3K2755HG5TAPCS1WOS6KE9RS2WVFD1", "current_trial": 175, "dateTime": 1513477764017, "trialdata": {"rt": -1, "stimulus": "<p id=\"stim\">9</p>", "key_press": -1, "trial_type": "single-stim", "trial_index": 175, "time_elapsed": 765950, "internal_node_id": "0.0-129.0-1.0"}}, {"uniqueid": "MTK1260:3K2755HG5TAPCS1WOS6KE9RS2WVFD1", "current_trial": 176, "dateTime": 1513477765021, "trialdata": {"rt": -1, "stimulus": "<p id=\"stim\">8</p>", "key_press": -1, "trial_type": "single-stim", "trial_index": 176, "time_elapsed": 766954, "internal_node_id": "0.0-129.0-2.0"}}, {"uniqueid": "MTK1260:3K2755HG5TAPCS1WOS6KE9RS2WVFD1", "current_trial": 177, "dateTime": 1513477766024, "trialdata": {"rt": -1, "stimulus": "<p id=\"stim\">7</p>", "key_press": -1, "trial_type": "single-stim", "trial_index": 177, "time_elapsed": 767957, "internal_node_id": "0.0-129.0-3.0"}}, {"uniqueid": "MTK1260:3K2755HG5TAPCS1WOS6KE9RS2WVFD1", "current_trial": 178, "dateTime": 1513477767029, "trialdata": {"rt": -1, "stimulus": "<p id=\"stim\">6</p>", "key_press": -1, "trial_type": "single-stim", "trial_index": 178, "time_elapsed": 768962, "internal_node_id": "0.0-129.0-4.0"}}, {"uniqueid": "MTK1260:3K2755HG5TAPCS1WOS6KE9RS2WVFD1", "current_trial": 179, "dateTime": 1513477768033, "trialdata": {"rt": -1, "stimulus": "<p id=\"stim\">5</p>", "key_press": -1, "trial_type": "single-stim", "trial_index": 179, "time_elapsed": 769965, "internal_node_id": "0.0-129.0-5.0"}}, {"uniqueid": "MTK1260:3K2755HG5TAPCS1WOS6KE9RS2WVFD1", "current_trial": 180, "dateTime": 1513477769037, "trialdata": {"rt": -1, "stimulus": "<p id=\"stim\">4</p>", "key_press": -1, "trial_type": "single-stim", "trial_index": 180, "time_elapsed": 770970, "internal_node_id": "0.0-129.0-6.0"}}, {"uniqueid": "MTK1260:3K2755HG5TAPCS1WOS6KE9RS2WVFD1", "current_trial": 181, "dateTime": 1513477770041, "trialdata": {"rt": -1, "stimulus": "<p id=\"stim\">3</p>", "key_press": -1, "trial_type": "single-stim", "trial_index": 181, "time_elapsed": 771974, "internal_node_id": "0.0-129.0-7.0"}}, {"uniqueid": "MTK1260:3K2755HG5TAPCS1WOS6KE9RS2WVFD1", "current_trial": 182, "dateTime": 1513477771045, "trialdata": {"rt": -1, "stimulus": "<p id=\"stim\">2</p>", "key_press": -1, "trial_type": "single-stim", "trial_index": 182, "time_elapsed": 772978, "internal_node_id": "0.0-129.0-8.0"}}, {"uniqueid": "MTK1260:3K2755HG5TAPCS1WOS6KE9RS2WVFD1", "current_trial": 183, "dateTime": 1513477772049, "trialdata": {"rt": -1, "stimulus": "<p id=\"stim\">1</p>", "key_press": -1, "trial_type": "single-stim", "trial_index": 183, "time_elapsed": 773982, "internal_node_id": "0.0-129.0-9.0"}}, {"uniqueid": "MTK1260:3K2755HG5TAPCS1WOS6KE9RS2WVFD1", "current_trial": 184, "dateTime": 1513477773552, "trialdata": {"rt": -1, "stimulus": "<p id=\"stim\">+</p>", "key_press": -1, "type": "FIXATION", "trial_type": "single-stim", "trial_index": 184, "time_elapsed": 775485, "internal_node_id": "0.0-130.0-0.0"}}, {"uniqueid": "MTK1260:3K2755HG5TAPCS1WOS6KE9RS2WVFD1", "current_trial": 185, "dateTime": 1513477775154, "trialdata": {"rt": -1, "stimulus": "<p id=\"stim\">POLICE</p>", "key_press": -1, "type": "PRES_VIS", "word": "police", "wordID": 1097, "conditions": [24, 1600, "v", 12000], "trial": 5, "serialpos": 0, "trial_type": "single-stim", "trial_index": 185, "time_elapsed": 777087, "internal_node_id": "0.0-131.0"}}, {"uniqueid": "MTK1260:3K2755HG5TAPCS1WOS6KE9RS2WVFD1", "current_trial": 186, "dateTime": 1513477777633, "trialdata": {"rt": -1, "stimulus": "<p id=\"stim\">SANDWICH</p>", "key_press": -1, "type": "PRES_VIS", "word": "sandwich", "wordID": 1231, "conditions": [24, 1600, "v", 12000], "trial": 5, "serialpos": 1, "trial_type": "single-stim", "trial_index": 186, "time_elapsed": 779566, "internal_node_id": "0.0-132.0"}}, {"uniqueid": "MTK1260:3K2755HG5TAPCS1WOS6KE9RS2WVFD1", "current_trial": 187, "dateTime": 1513477780175, "trialdata": {"rt": -1, "stimulus": "<p id=\"stim\">PIZZA</p>", "key_press": -1, "type": "PRES_VIS", "word": "pizza", "wordID": 1078, "conditions": [24, 1600, "v", 12000], "trial": 5, "serialpos": 2, "trial_type": "single-stim", "trial_index": 187, "time_elapsed": 782108, "internal_node_id": "0.0-133.0"}}, {"uniqueid": "MTK1260:3K2755HG5TAPCS1WOS6KE9RS2WVFD1", "current_trial": 188, "dateTime": 1513477782920, "trialdata": {"rt": -1, "stimulus": "<p id=\"stim\">BOYFRIEND</p>", "key_press": -1, "type": "PRES_VIS", "word": "boyfriend", "wordID": 161, "conditions": [24, 1600, "v", 12000], "trial": 5, "serialpos": 3, "trial_type": "single-stim", "trial_index": 188, "time_elapsed": 784853, "internal_node_id": "0.0-134.0"}}, {"uniqueid": "MTK1260:3K2755HG5TAPCS1WOS6KE9RS2WVFD1", "current_trial": 189, "dateTime": 1513477785514, "trialdata": {"rt": -1, "stimulus": "<p id=\"stim\">BUGGY</p>", "key_press": -1, "type": "PRES_VIS", "word": "buggy", "wordID": 187, "conditions": [24, 1600, "v", 12000], "trial": 5, "serialpos": 4, "trial_type": "single-stim", "trial_index": 189, "time_elapsed": 787447, "internal_node_id": "0.0-135.0"}}, {"uniqueid": "MTK1260:3K2755HG5TAPCS1WOS6KE9RS2WVFD1", "current_trial": 190, "dateTime": 1513477788045, "trialdata": {"rt": -1, "stimulus": "<p id=\"stim\">WOMAN</p>", "key_press": -1, "type": "PRES_VIS", "word": "woman", "wordID": 1619, "conditions": [24, 1600, "v", 12000], "trial": 5, "serialpos": 5, "trial_type": "single-stim", "trial_index": 190, "time_elapsed": 789978, "internal_node_id": "0.0-136.0"}}, {"uniqueid": "MTK1260:3K2755HG5TAPCS1WOS6KE9RS2WVFD1", "current_trial": 191, "dateTime": 1513477790482, "trialdata": {"rt": -1, "stimulus": "<p id=\"stim\">TRUCK</p>", "key_press": -1, "type": "PRES_VIS", "word": "truck", "wordID": 1511, "conditions": [24, 1600, "v", 12000], "trial": 5, "serialpos": 6, "trial_type": "single-stim", "trial_index": 191, "time_elapsed": 792415, "internal_node_id": "0.0-137.0"}}, {"uniqueid": "MTK1260:3K2755HG5TAPCS1WOS6KE9RS2WVFD1", "current_trial": 192, "dateTime": 1513477793210, "trialdata": {"rt": -1, "stimulus": "<p id=\"stim\">PEACH</p>", "key_press": -1, "type": "PRES_VIS", "word": "peach", "wordID": 1030, "conditions": [24, 1600, "v", 12000], "trial": 5, "serialpos": 7, "trial_type": "single-stim", "trial_index": 192, "time_elapsed": 795143, "internal_node_id": "0.0-138.0"}}, {"uniqueid": "MTK1260:3K2755HG5TAPCS1WOS6KE9RS2WVFD1", "current_trial": 193, "dateTime": 1513477795979, "trialdata": {"rt": -1, "stimulus": "<p id=\"stim\">APPLE</p>", "key_press": -1, "type": "PRES_VIS", "word": "apple", "wordID": 32, "conditions": [24, 1600, "v", 12000], "trial": 5, "serialpos": 8, "trial_type": "single-stim", "trial_index": 193, "time_elapsed": 797912, "internal_node_id": "0.0-139.0"}}, {"uniqueid": "MTK1260:3K2755HG5TAPCS1WOS6KE9RS2WVFD1", "current_trial": 194, "dateTime": 1513477798718, "trialdata": {"rt": -1, "stimulus": "<p id=\"stim\">PREACHER</p>", "key_press": -1, "type": "PRES_VIS", "word": "preacher", "wordID": 1118, "conditions": [24, 1600, "v", 12000], "trial": 5, "serialpos": 9, "trial_type": "single-stim", "trial_index": 194, "time_elapsed": 800651, "internal_node_id": "0.0-140.0"}}, {"uniqueid": "MTK1260:3K2755HG5TAPCS1WOS6KE9RS2WVFD1", "current_trial": 195, "dateTime": 1513477801283, "trialdata": {"rt": -1, "stimulus": "<p id=\"stim\">SAUSAGE</p>", "key_press": -1, "type": "PRES_VIS", "word": "sausage", "wordID": 1237, "conditions": [24, 1600, "v", 12000], "trial": 5, "serialpos": 10, "trial_type": "single-stim", "trial_index": 195, "time_elapsed": 803216, "internal_node_id": "0.0-141.0"}}, {"uniqueid": "MTK1260:3K2755HG5TAPCS1WOS6KE9RS2WVFD1", "current_trial": 196, "dateTime": 1513477803843, "trialdata": {"rt": -1, "stimulus": "<p id=\"stim\">COCKTAIL</p>", "key_press": -1, "type": "PRES_VIS", "word": "cocktail", "wordID": 337, "conditions": [24, 1600, "v", 12000], "trial": 5, "serialpos": 11, "trial_type": "single-stim", "trial_index": 196, "time_elapsed": 805776, "internal_node_id": "0.0-142.0"}}, {"uniqueid": "MTK1260:3K2755HG5TAPCS1WOS6KE9RS2WVFD1", "current_trial": 197, "dateTime": 1513477806327, "trialdata": {"rt": -1, "stimulus": "<p id=\"stim\">BUBBLE</p>", "key_press": -1, "type": "PRES_VIS", "word": "bubble", "wordID": 182, "conditions": [24, 1600, "v", 12000], "trial": 5, "serialpos": 12, "trial_type": "single-stim", "trial_index": 197, "time_elapsed": 808260, "internal_node_id": "0.0-143.0"}}, {"uniqueid": "MTK1260:3K2755HG5TAPCS1WOS6KE9RS2WVFD1", "current_trial": 198, "dateTime": 1513477808822, "trialdata": {"rt": -1, "stimulus": "<p id=\"stim\">CAFE</p>", "key_press": -1, "type": "PRES_VIS", "word": "cafe", "wordID": 215, "conditions": [24, 1600, "v", 12000], "trial": 5, "serialpos": 13, "trial_type": "single-stim", "trial_index": 198, "time_elapsed": 810755, "internal_node_id": "0.0-144.0"}}, {"uniqueid": "MTK1260:3K2755HG5TAPCS1WOS6KE9RS2WVFD1", "current_trial": 199, "dateTime": 1513477811446, "trialdata": {"rt": -1, "stimulus": "<p id=\"stim\">CELLAR</p>", "key_press": -1, "type": "PRES_VIS", "word": "cellar", "wordID": 266, "conditions": [24, 1600, "v", 12000], "trial": 5, "serialpos": 14, "trial_type": "single-stim", "trial_index": 199, "time_elapsed": 813379, "internal_node_id": "0.0-145.0"}}, {"uniqueid": "MTK1260:3K2755HG5TAPCS1WOS6KE9RS2WVFD1", "current_trial": 200, "dateTime": 1513477813918, "trialdata": {"rt": -1, "stimulus": "<p id=\"stim\">DORM</p>", "key_press": -1, "type": "PRES_VIS", "word": "dorm", "wordID": 487, "conditions": [24, 1600, "v", 12000], "trial": 5, "serialpos": 15, "trial_type": "single-stim", "trial_index": 200, "time_elapsed": 815851, "internal_node_id": "0.0-146.0"}}, {"uniqueid": "MTK1260:3K2755HG5TAPCS1WOS6KE9RS2WVFD1", "current_trial": 201, "dateTime": 1513477816530, "trialdata": {"rt": -1, "stimulus": "<p id=\"stim\">PARROT</p>", "key_press": -1, "type": "PRES_VIS", "word": "parrot", "wordID": 1014, "conditions": [24, 1600, "v", 12000], "trial": 5, "serialpos": 16, "trial_type": "single-stim", "trial_index": 201, "time_elapsed": 818463, "internal_node_id": "0.0-147.0"}}, {"uniqueid": "MTK1260:3K2755HG5TAPCS1WOS6KE9RS2WVFD1", "current_trial": 202, "dateTime": 1513477819072, "trialdata": {"rt": -1, "stimulus": "<p id=\"stim\">LILY</p>", "key_press": -1, "type": "PRES_VIS", "word": "lily", "wordID": 820, "conditions": [24, 1600, "v", 12000], "trial": 5, "serialpos": 17, "trial_type": "single-stim", "trial_index": 202, "time_elapsed": 821005, "internal_node_id": "0.0-148.0"}}, {"uniqueid": "MTK1260:3K2755HG5TAPCS1WOS6KE9RS2WVFD1", "current_trial": 203, "dateTime": 1513477821806, "trialdata": {"rt": -1, "stimulus": "<p id=\"stim\">SHRUB</p>", "key_press": -1, "type": "PRES_VIS", "word": "shrub", "wordID": 1298, "conditions": [24, 1600, "v", 12000], "trial": 5, "serialpos": 18, "trial_type": "single-stim", "trial_index": 203, "time_elapsed": 823739, "internal_node_id": "0.0-149.0"}}, {"uniqueid": "MTK1260:3K2755HG5TAPCS1WOS6KE9RS2WVFD1", "current_trial": 204, "dateTime": 1513477824342, "trialdata": {"rt": -1, "stimulus": "<p id=\"stim\">ROOSTER</p>", "key_press": -1, "type": "PRES_VIS", "word": "rooster", "wordID": 1208, "conditions": [24, 1600, "v", 12000], "trial": 5, "serialpos": 19, "trial_type": "single-stim", "trial_index": 204, "time_elapsed": 826275, "internal_node_id": "0.0-150.0"}}, {"uniqueid": "MTK1260:3K2755HG5TAPCS1WOS6KE9RS2WVFD1", "current_trial": 205, "dateTime": 1513477827000, "trialdata": {"rt": -1, "stimulus": "<p id=\"stim\">CRAB</p>", "key_press": -1, "type": "PRES_VIS", "word": "crab", "wordID": 396, "conditions": [24, 1600, "v", 12000], "trial": 5, "serialpos": 20, "trial_type": "single-stim", "trial_index": 205, "time_elapsed": 828933, "internal_node_id": "0.0-151.0"}}, {"uniqueid": "MTK1260:3K2755HG5TAPCS1WOS6KE9RS2WVFD1", "current_trial": 206, "dateTime": 1513477829531, "trialdata": {"rt": -1, "stimulus": "<p id=\"stim\">BADGE</p>", "key_press": -1, "type": "PRES_VIS", "word": "badge", "wordID": 67, "conditions": [24, 1600, "v", 12000], "trial": 5, "serialpos": 21, "trial_type": "single-stim", "trial_index": 206, "time_elapsed": 831464, "internal_node_id": "0.0-152.0"}}, {"uniqueid": "MTK1260:3K2755HG5TAPCS1WOS6KE9RS2WVFD1", "current_trial": 207, "dateTime": 1513477832166, "trialdata": {"rt": -1, "stimulus": "<p id=\"stim\">ZEBRA</p>", "key_press": -1, "type": "PRES_VIS", "word": "zebra", "wordID": 1634, "conditions": [24, 1600, "v", 12000], "trial": 5, "serialpos": 22, "trial_type": "single-stim", "trial_index": 207, "time_elapsed": 834099, "internal_node_id": "0.0-153.0"}}, {"uniqueid": "MTK1260:3K2755HG5TAPCS1WOS6KE9RS2WVFD1", "current_trial": 208, "dateTime": 1513477834655, "trialdata": {"rt": -1, "stimulus": "<p id=\"stim\">COCOON</p>", "key_press": -1, "type": "PRES_VIS", "word": "cocoon", "wordID": 338, "conditions": [24, 1600, "v", 12000], "trial": 5, "serialpos": 23, "trial_type": "single-stim", "trial_index": 208, "time_elapsed": 836588, "internal_node_id": "0.0-154.0"}}, {"uniqueid": "MTK1260:3K2755HG5TAPCS1WOS6KE9RS2WVFD1", "current_trial": 209, "dateTime": 1513477836902, "trialdata": {"rt": -1, "stimulus": "", "key_press": -1, "type": "PRE_RECALL_DELAY", "trial_type": "single-stim", "trial_index": 209, "time_elapsed": 838834, "internal_node_id": "0.0-155.0-0.0"}}, {"uniqueid": "MTK1260:3K2755HG5TAPCS1WOS6KE9RS2WVFD1", "current_trial": 210, "dateTime": 1513477837403, "trialdata": {"rt": -1000, "stimulus": "/static/audio/400Hz.wav", "key_press": -1, "type": "PRE_RECALL_ALERT", "trial_type": "single-audio", "trial_index": 210, "time_elapsed": 839336, "internal_node_id": "0.0-156.0"}}, {"uniqueid": "MTK1260:3K2755HG5TAPCS1WOS6KE9RS2WVFD1", "current_trial": 211, "dateTime": 1513477897410, "trialdata": {"rt": [3109, 5044, 6540, 8341, 9780, 11356, 12987, 14607, 15878, 17712, 19703, 22043, 23528, 24529, 26363, 27814, 28995, 30267, 31909, 34182, 35678, 39796, 41753, 43036], "recwords": ["price", "sandwich", "pizza", "bored", "buggy", "woman", "truck", "peach", "apple", "preacher", "sausage", "cocktail", "bubble", "cafe", "cellar", "dorm", "parrot", "lily", "shrub", "rooster", "crab", "badge", "zebra", "cocoon"], "type": "FREE_RECALL", "conditions": [24, 1600, "v", 12000], "trial": 5, "trial_type": "free-recall", "trial_index": 211, "time_elapsed": 899341, "internal_node_id": "0.0-157.0-0.0"}}, {"uniqueid": "MTK1260:3K2755HG5TAPCS1WOS6KE9RS2WVFD1", "current_trial": 212, "dateTime": 1513477900802, "trialdata": {"rt": 1389, "key_press": 13, "type": "INSTRUCTIONS", "trial_type": "text", "trial_index": 212, "time_elapsed": 902735, "internal_node_id": "0.0-158.0"}}, {"uniqueid": "MTK1260:3K2755HG5TAPCS1WOS6KE9RS2WVFD1", "current_trial": 213, "dateTime": 1513477926811, "trialdata": {"rt": [3101, 4755, 7252, 8974, 10740, 13373, 15937, 17580, 19864, 21844, 23925], "responses": ["12", "12", "15", "19", "17", "20", "13", "15", "18", "10", "6"], "num1": [3, 1, 4, 6, 8, 7, 2, 2, 5, 1, 1, 1], "num2": [1, 3, 5, 6, 2, 5, 7, 8, 4, 6, 4, 2], "num3": [8, 8, 6, 7, 7, 8, 4, 5, 9, 3, 1, 9], "type": "DISTRACTOR", "conditions": [24, 1600, "v", 24000], "trial": 6, "trial_type": "math-distractor", "trial_index": 213, "time_elapsed": 928743, "internal_node_id": "0.0-159.0"}}, {"uniqueid": "MTK1260:3K2755HG5TAPCS1WOS6KE9RS2WVFD1", "current_trial": 214, "dateTime": 1513477929819, "trialdata": {"rt": -1, "stimulus": "<p id=\"stim\">10</p>", "key_press": -1, "trial_type": "single-stim", "trial_index": 214, "time_elapsed": 931752, "internal_node_id": "0.0-160.0-0.0"}}, {"uniqueid": "MTK1260:3K2755HG5TAPCS1WOS6KE9RS2WVFD1", "current_trial": 215, "dateTime": 1513477930823, "trialdata": {"rt": -1, "stimulus": "<p id=\"stim\">9</p>", "key_press": -1, "trial_type": "single-stim", "trial_index": 215, "time_elapsed": 932756, "internal_node_id": "0.0-160.0-1.0"}}, {"uniqueid": "MTK1260:3K2755HG5TAPCS1WOS6KE9RS2WVFD1", "current_trial": 216, "dateTime": 1513477931827, "trialdata": {"rt": -1, "stimulus": "<p id=\"stim\">8</p>", "key_press": -1, "trial_type": "single-stim", "trial_index": 216, "time_elapsed": 933760, "internal_node_id": "0.0-160.0-2.0"}}, {"uniqueid": "MTK1260:3K2755HG5TAPCS1WOS6KE9RS2WVFD1", "current_trial": 217, "dateTime": 1513477932832, "trialdata": {"rt": -1, "stimulus": "<p id=\"stim\">7</p>", "key_press": -1, "trial_type": "single-stim", "trial_index": 217, "time_elapsed": 934764, "internal_node_id": "0.0-160.0-3.0"}}, {"uniqueid": "MTK1260:3K2755HG5TAPCS1WOS6KE9RS2WVFD1", "current_trial": 218, "dateTime": 1513477933835, "trialdata": {"rt": -1, "stimulus": "<p id=\"stim\">6</p>", "key_press": -1, "trial_type": "single-stim", "trial_index": 218, "time_elapsed": 935768, "internal_node_id": "0.0-160.0-4.0"}}, {"uniqueid": "MTK1260:3K2755HG5TAPCS1WOS6KE9RS2WVFD1", "current_trial": 219, "dateTime": 1513477934840, "trialdata": {"rt": -1, "stimulus": "<p id=\"stim\">5</p>", "key_press": -1, "trial_type": "single-stim", "trial_index": 219, "time_elapsed": 936773, "internal_node_id": "0.0-160.0-5.0"}}, {"uniqueid": "MTK1260:3K2755HG5TAPCS1WOS6KE9RS2WVFD1", "current_trial": 220, "dateTime": 1513477935843, "trialdata": {"rt": -1, "stimulus": "<p id=\"stim\">4</p>", "key_press": -1, "trial_type": "single-stim", "trial_index": 220, "time_elapsed": 937776, "internal_node_id": "0.0-160.0-6.0"}}, {"uniqueid": "MTK1260:3K2755HG5TAPCS1WOS6KE9RS2WVFD1", "current_trial": 221, "dateTime": 1513477936848, "trialdata": {"rt": -1, "stimulus": "<p id=\"stim\">3</p>", "key_press": -1, "trial_type": "single-stim", "trial_index": 221, "time_elapsed": 938781, "internal_node_id": "0.0-160.0-7.0"}}, {"uniqueid": "MTK1260:3K2755HG5TAPCS1WOS6KE9RS2WVFD1", "current_trial": 222, "dateTime": 1513477937853, "trialdata": {"rt": -1, "stimulus": "<p id=\"stim\">2</p>", "key_press": -1, "trial_type": "single-stim", "trial_index": 222, "time_elapsed": 939786, "internal_node_id": "0.0-160.0-8.0"}}, {"uniqueid": "MTK1260:3K2755HG5TAPCS1WOS6KE9RS2WVFD1", "current_trial": 223, "dateTime": 1513477938856, "trialdata": {"rt": -1, "stimulus": "<p id=\"stim\">1</p>", "key_press": -1, "trial_type": "single-stim", "trial_index": 223, "time_elapsed": 940789, "internal_node_id": "0.0-160.0-9.0"}}, {"uniqueid": "MTK1260:3K2755HG5TAPCS1WOS6KE9RS2WVFD1", "current_trial": 224, "dateTime": 1513477940359, "trialdata": {"rt": -1, "stimulus": "<p id=\"stim\">+</p>", "key_press": -1, "type": "FIXATION", "trial_type": "single-stim", "trial_index": 224, "time_elapsed": 942292, "internal_node_id": "0.0-161.0-0.0"}}, {"uniqueid": "MTK1260:3K2755HG5TAPCS1WOS6KE9RS2WVFD1", "current_trial": 225, "dateTime": 1513477941961, "trialdata": {"rt": -1, "stimulus": "<p id=\"stim\">DAISY</p>", "key_press": -1, "type": "PRES_VIS", "word": "daisy", "wordID": 434, "conditions": [24, 1600, "v", 24000], "trial": 6, "serialpos": 0, "trial_type": "single-stim", "trial_index": 225, "time_elapsed": 943894, "internal_node_id": "0.0-162.0"}}, {"uniqueid": "MTK1260:3K2755HG5TAPCS1WOS6KE9RS2WVFD1", "current_trial": 226, "dateTime": 1513477944555, "trialdata": {"rt": -1, "stimulus": "<p id=\"stim\">FLOWER</p>", "key_press": -1, "type": "PRES_VIS", "word": "flower", "wordID": 583, "conditions": [24, 1600, "v", 24000], "trial": 6, "serialpos": 1, "trial_type": "single-stim", "trial_index": 226, "time_elapsed": 946488, "internal_node_id": "0.0-163.0"}}, {"uniqueid": "MTK1260:3K2755HG5TAPCS1WOS6KE9RS2WVFD1", "current_trial": 227, "dateTime": 1513477947219, "trialdata": {"rt": -1, "stimulus": "<p id=\"stim\">BLOUSE</p>", "key_press": -1, "type": "PRES_VIS", "word": "blouse", "wordID": 138, "conditions": [24, 1600, "v", 24000], "trial": 6, "serialpos": 2, "trial_type": "single-stim", "trial_index": 227, "time_elapsed": 949152, "internal_node_id": "0.0-164.0"}}, {"uniqueid": "MTK1260:3K2755HG5TAPCS1WOS6KE9RS2WVFD1", "current_trial": 228, "dateTime": 1513477949982, "trialdata": {"rt": -1, "stimulus": "<p id=\"stim\">REPORT</p>", "key_press": -1, "type": "PRES_VIS", "word": "report", "wordID": 1183, "conditions": [24, 1600, "v", 24000], "trial": 6, "serialpos": 3, "trial_type": "single-stim", "trial_index": 228, "time_elapsed": 951915, "internal_node_id": "0.0-165.0"}}, {"uniqueid": "MTK1260:3K2755HG5TAPCS1WOS6KE9RS2WVFD1", "current_trial": 229, "dateTime": 1513477952405, "trialdata": {"rt": -1, "stimulus": "<p id=\"stim\">SWORD</p>", "key_press": -1, "type": "PRES_VIS", "word": "sword", "wordID": 1422, "conditions": [24, 1600, "v", 24000], "trial": 6, "serialpos": 4, "trial_type": "single-stim", "trial_index": 229, "time_elapsed": 954338, "internal_node_id": "0.0-166.0"}}, {"uniqueid": "MTK1260:3K2755HG5TAPCS1WOS6KE9RS2WVFD1", "current_trial": 230, "dateTime": 1513477955182, "trialdata": {"rt": -1, "stimulus": "<p id=\"stim\">ANTLER</p>", "key_press": -1, "type": "PRES_VIS", "word": "antler", "wordID": 28, "conditions": [24, 1600, "v", 24000], "trial": 6, "serialpos": 5, "trial_type": "single-stim", "trial_index": 230, "time_elapsed": 957115, "internal_node_id": "0.0-167.0"}}, {"uniqueid": "MTK1260:3K2755HG5TAPCS1WOS6KE9RS2WVFD1", "current_trial": 231, "dateTime": 1513477957956, "trialdata": {"rt": -1, "stimulus": "<p id=\"stim\">PISTON</p>", "key_press": -1, "type": "PRES_VIS", "word": "piston", "wordID": 1075, "conditions": [24, 1600, "v", 24000], "trial": 6, "serialpos": 6, "trial_type": "single-stim", "trial_index": 231, "time_elapsed": 959889, "internal_node_id": "0.0-168.0"}}, {"uniqueid": "MTK1260:3K2755HG5TAPCS1WOS6KE9RS2WVFD1", "current_trial": 232, "dateTime": 1513477960673, "trialdata": {"rt": -1, "stimulus": "<p id=\"stim\">BINDER</p>", "key_press": -1, "type": "PRES_VIS", "word": "binder", "wordID": 126, "conditions": [24, 1600, "v", 24000], "trial": 6, "serialpos": 7, "trial_type": "single-stim", "trial_index": 232, "time_elapsed": 962606, "internal_node_id": "0.0-169.0"}}, {"uniqueid": "MTK1260:3K2755HG5TAPCS1WOS6KE9RS2WVFD1", "current_trial": 233, "dateTime": 1513477963441, "trialdata": {"rt": -1, "stimulus": "<p id=\"stim\">FINGER</p>", "key_press": -1, "type": "PRES_VIS", "word": "finger", "wordID": 566, "conditions": [24, 1600, "v", 24000], "trial": 6, "serialpos": 8, "trial_type": "single-stim", "trial_index": 233, "time_elapsed": 965374, "internal_node_id": "0.0-170.0"}}, {"uniqueid": "MTK1260:3K2755HG5TAPCS1WOS6KE9RS2WVFD1", "current_trial": 234, "dateTime": 1513477966128, "trialdata": {"rt": -1, "stimulus": "<p id=\"stim\">MUFFIN</p>", "key_press": -1, "type": "PRES_VIS", "word": "muffin", "wordID": 928, "conditions": [24, 1600, "v", 24000], "trial": 6, "serialpos": 9, "trial_type": "single-stim", "trial_index": 234, "time_elapsed": 968061, "internal_node_id": "0.0-171.0"}}, {"uniqueid": "MTK1260:3K2755HG5TAPCS1WOS6KE9RS2WVFD1", "current_trial": 235, "dateTime": 1513477968543, "trialdata": {"rt": -1, "stimulus": "<p id=\"stim\">PRINCESS</p>", "key_press": -1, "type": "PRES_VIS", "word": "princess", "wordID": 1124, "conditions": [24, 1600, "v", 24000], "trial": 6, "serialpos": 10, "trial_type": "single-stim", "trial_index": 235, "time_elapsed": 970476, "internal_node_id": "0.0-172.0"}}, {"uniqueid": "MTK1260:3K2755HG5TAPCS1WOS6KE9RS2WVFD1", "current_trial": 236, "dateTime": 1513477971114, "trialdata": {"rt": -1, "stimulus": "<p id=\"stim\">SURVEY</p>", "key_press": -1, "type": "PRES_VIS", "word": "survey", "wordID": 1413, "conditions": [24, 1600, "v", 24000], "trial": 6, "serialpos": 11, "trial_type": "single-stim", "trial_index": 236, "time_elapsed": 973047, "internal_node_id": "0.0-173.0"}}, {"uniqueid": "MTK1260:3K2755HG5TAPCS1WOS6KE9RS2WVFD1", "current_trial": 237, "dateTime": 1513477973615, "trialdata": {"rt": -1, "stimulus": "<p id=\"stim\">PERFUME</p>", "key_press": -1, "type": "PRES_VIS", "word": "perfume", "wordID": 1048, "conditions": [24, 1600, "v", 24000], "trial": 6, "serialpos": 12, "trial_type": "single-stim", "trial_index": 237, "time_elapsed": 975548, "internal_node_id": "0.0-174.0"}}, {"uniqueid": "MTK1260:3K2755HG5TAPCS1WOS6KE9RS2WVFD1", "current_trial": 238, "dateTime": 1513477976128, "trialdata": {"rt": -1, "stimulus": "<p id=\"stim\">MARINE</p>", "key_press": -1, "type": "PRES_VIS", "word": "marine", "wordID": 868, "conditions": [24, 1600, "v", 24000], "trial": 6, "serialpos": 13, "trial_type": "single-stim", "trial_index": 238, "time_elapsed": 978061, "internal_node_id": "0.0-175.0"}}, {"uniqueid": "MTK1260:3K2755HG5TAPCS1WOS6KE9RS2WVFD1", "current_trial": 239, "dateTime": 1513477978578, "trialdata": {"rt": -1, "stimulus": "<p id=\"stim\">MISSILE</p>", "key_press": -1, "type": "PRES_VIS", "word": "missile", "wordID": 899, "conditions": [24, 1600, "v", 24000], "trial": 6, "serialpos": 14, "trial_type": "single-stim", "trial_index": 239, "time_elapsed": 980510, "internal_node_id": "0.0-176.0"}}, {"uniqueid": "MTK1260:3K2755HG5TAPCS1WOS6KE9RS2WVFD1", "current_trial": 240, "dateTime": 1513477981363, "trialdata": {"rt": -1, "stimulus": "<p id=\"stim\">JELLO</p>", "key_press": -1, "type": "PRES_VIS", "word": "jello", "wordID": 753, "conditions": [24, 1600, "v", 24000], "trial": 6, "serialpos": 15, "trial_type": "single-stim", "trial_index": 240, "time_elapsed": 983296, "internal_node_id": "0.0-177.0"}}, {"uniqueid": "MTK1260:3K2755HG5TAPCS1WOS6KE9RS2WVFD1", "current_trial": 241, "dateTime": 1513477983859, "trialdata": {"rt": -1, "stimulus": "<p id=\"stim\">TERMITE</p>", "key_press": -1, "type": "PRES_VIS", "word": "termite", "wordID": 1450, "conditions": [24, 1600, "v", 24000], "trial": 6, "serialpos": 16, "trial_type": "single-stim", "trial_index": 241, "time_elapsed": 985792, "internal_node_id": "0.0-178.0"}}, {"uniqueid": "MTK1260:3K2755HG5TAPCS1WOS6KE9RS2WVFD1", "current_trial": 242, "dateTime": 1513477986471, "trialdata": {"rt": -1, "stimulus": "<p id=\"stim\">COWBOY</p>", "key_press": -1, "type": "PRES_VIS", "word": "cowboy", "wordID": 394, "conditions": [24, 1600, "v", 24000], "trial": 6, "serialpos": 17, "trial_type": "single-stim", "trial_index": 242, "time_elapsed": 988404, "internal_node_id": "0.0-179.0"}}, {"uniqueid": "MTK1260:3K2755HG5TAPCS1WOS6KE9RS2WVFD1", "current_trial": 243, "dateTime": 1513477989222, "trialdata": {"rt": -1, "stimulus": "<p id=\"stim\">PORK</p>", "key_press": -1, "type": "PRES_VIS", "word": "pork", "wordID": 1107, "conditions": [24, 1600, "v", 24000], "trial": 6, "serialpos": 18, "trial_type": "single-stim", "trial_index": 243, "time_elapsed": 991155, "internal_node_id": "0.0-180.0"}}, {"uniqueid": "MTK1260:3K2755HG5TAPCS1WOS6KE9RS2WVFD1", "current_trial": 244, "dateTime": 1513477991804, "trialdata": {"rt": -1, "stimulus": "<p id=\"stim\">SISTER</p>", "key_press": -1, "type": "PRES_VIS", "word": "sister", "wordID": 1311, "conditions": [24, 1600, "v", 24000], "trial": 6, "serialpos": 19, "trial_type": "single-stim", "trial_index": 244, "time_elapsed": 993737, "internal_node_id": "0.0-181.0"}}, {"uniqueid": "MTK1260:3K2755HG5TAPCS1WOS6KE9RS2WVFD1", "current_trial": 245, "dateTime": 1513477994509, "trialdata": {"rt": -1, "stimulus": "<p id=\"stim\">SIBLING</p>", "key_press": -1, "type": "PRES_VIS", "word": "sibling", "wordID": 1300, "conditions": [24, 1600, "v", 24000], "trial": 6, "serialpos": 20, "trial_type": "single-stim", "trial_index": 245, "time_elapsed": 996442, "internal_node_id": "0.0-182.0"}}, {"uniqueid": "MTK1260:3K2755HG5TAPCS1WOS6KE9RS2WVFD1", "current_trial": 246, "dateTime": 1513477997127, "trialdata": {"rt": -1, "stimulus": "<p id=\"stim\">JELLY</p>", "key_press": -1, "type": "PRES_VIS", "word": "jelly", "wordID": 754, "conditions": [24, 1600, "v", 24000], "trial": 6, "serialpos": 21, "trial_type": "single-stim", "trial_index": 246, "time_elapsed": 999059, "internal_node_id": "0.0-183.0"}}, {"uniqueid": "MTK1260:3K2755HG5TAPCS1WOS6KE9RS2WVFD1", "current_trial": 247, "dateTime": 1513477999825, "trialdata": {"rt": -1, "stimulus": "<p id=\"stim\">BUNNY</p>", "key_press": -1, "type": "PRES_VIS", "word": "bunny", "wordID": 197, "conditions": [24, 1600, "v", 24000], "trial": 6, "serialpos": 22, "trial_type": "single-stim", "trial_index": 247, "time_elapsed": 1001758, "internal_node_id": "0.0-184.0"}}, {"uniqueid": "MTK1260:3K2755HG5TAPCS1WOS6KE9RS2WVFD1", "current_trial": 248, "dateTime": 1513478002396, "trialdata": {"rt": -1, "stimulus": "<p id=\"stim\">TILE</p>", "key_press": -1, "type": "PRES_VIS", "word": "tile", "wordID": 1467, "conditions": [24, 1600, "v", 24000], "trial": 6, "serialpos": 23, "trial_type": "single-stim", "trial_index": 248, "time_elapsed": 1004329, "internal_node_id": "0.0-185.0"}}, {"uniqueid": "MTK1260:3K2755HG5TAPCS1WOS6KE9RS2WVFD1", "current_trial": 249, "dateTime": 1513478004678, "trialdata": {"rt": -1, "stimulus": "", "key_press": -1, "type": "PRE_RECALL_DELAY", "trial_type": "single-stim", "trial_index": 249, "time_elapsed": 1006610, "internal_node_id": "0.0-186.0-0.0"}}, {"uniqueid": "MTK1260:3K2755HG5TAPCS1WOS6KE9RS2WVFD1", "current_trial": 250, "dateTime": 1513478005179, "trialdata": {"rt": -1000, "stimulus": "/static/audio/400Hz.wav", "key_press": -1, "type": "PRE_RECALL_ALERT", "trial_type": "single-audio", "trial_index": 250, "time_elapsed": 1007112, "internal_node_id": "0.0-187.0"}}, {"uniqueid": "MTK1260:3K2755HG5TAPCS1WOS6KE9RS2WVFD1", "current_trial": 251, "dateTime": 1513478065183, "trialdata": {"rt": [3757, 5489, 7762, 9303, 10777, 12600, 15536, 17246, 18674, 20204, 22894, 24783, 26414, 29407, 30892, 32546, 34255, 38486, 40072, 41534, 42839, 44257, 45539, 46394], "recwords": ["daisy", "flower", "blouse", "report", "sword", "antler", "piston", "binder", "finger", "muffin", "princess", "survey", "perfume", "marine", "missle", "jello", "termite", "cowboy", "pork", "sister", "sibling", "jelly", "bunny", "tile"], "type": "FREE_RECALL", "conditions": [24, 1600, "v", 24000], "trial": 6, "trial_type": "free-recall", "trial_index": 251, "time_elapsed": 1067114, "internal_node_id": "0.0-188.0-0.0"}}, {"uniqueid": "MTK1260:3K2755HG5TAPCS1WOS6KE9RS2WVFD1", "current_trial": 252, "dateTime": 1513478076449, "trialdata": {"rt": 9264, "key_press": 13, "type": "INSTRUCTIONS", "trial_type": "text", "trial_index": 252, "time_elapsed": 1078382, "internal_node_id": "0.0-189.0"}}, {"uniqueid": "MTK1260:3K2755HG5TAPCS1WOS6KE9RS2WVFD1", "current_trial": 253, "dateTime": 1513478102460, "trialdata": {"rt": [2122, 3809, 6655, 9254, 10964, 13406, 14935, 17422, 19020, 20561, 22023, 23834], "responses": ["9", "13", "21", "20", "17", "14", "15", "12", "10", "16", "14", "6"], "num1": [5, 3, 5, 5, 3, 1, 5, 3, 3, 7, 3, 3, 8], "num2": [2, 6, 9, 9, 7, 8, 2, 4, 6, 3, 4, 2, 4], "num3": [2, 4, 7, 6, 7, 5, 8, 5, 1, 6, 7, 1, 9], "type": "DISTRACTOR", "conditions": [12, 800, "v", 24000], "trial": 7, "trial_type": "math-distractor", "trial_index": 253, "time_elapsed": 1104393, "internal_node_id": "0.0-190.0"}}, {"uniqueid": "MTK1260:3K2755HG5TAPCS1WOS6KE9RS2WVFD1", "current_trial": 254, "dateTime": 1513478105466, "trialdata": {"rt": -1, "stimulus": "<p id=\"stim\">10</p>", "key_press": -1, "trial_type": "single-stim", "trial_index": 254, "time_elapsed": 1107399, "internal_node_id": "0.0-191.0-0.0"}}, {"uniqueid": "MTK1260:3K2755HG5TAPCS1WOS6KE9RS2WVFD1", "current_trial": 255, "dateTime": 1513478106470, "trialdata": {"rt": -1, "stimulus": "<p id=\"stim\">9</p>", "key_press": -1, "trial_type": "single-stim", "trial_index": 255, "time_elapsed": 1108403, "internal_node_id": "0.0-191.0-1.0"}}, {"uniqueid": "MTK1260:3K2755HG5TAPCS1WOS6KE9RS2WVFD1", "current_trial": 256, "dateTime": 1513478107476, "trialdata": {"rt": -1, "stimulus": "<p id=\"stim\">8</p>", "key_press": -1, "trial_type": "single-stim", "trial_index": 256, "time_elapsed": 1109409, "internal_node_id": "0.0-191.0-2.0"}}, {"uniqueid": "MTK1260:3K2755HG5TAPCS1WOS6KE9RS2WVFD1", "current_trial": 257, "dateTime": 1513478108479, "trialdata": {"rt": -1, "stimulus": "<p id=\"stim\">7</p>", "key_press": -1, "trial_type": "single-stim", "trial_index": 257, "time_elapsed": 1110412, "internal_node_id": "0.0-191.0-3.0"}}, {"uniqueid": "MTK1260:3K2755HG5TAPCS1WOS6KE9RS2WVFD1", "current_trial": 258, "dateTime": 1513478109482, "trialdata": {"rt": -1, "stimulus": "<p id=\"stim\">6</p>", "key_press": -1, "trial_type": "single-stim", "trial_index": 258, "time_elapsed": 1111415, "internal_node_id": "0.0-191.0-4.0"}}, {"uniqueid": "MTK1260:3K2755HG5TAPCS1WOS6KE9RS2WVFD1", "current_trial": 259, "dateTime": 1513478110486, "trialdata": {"rt": -1, "stimulus": "<p id=\"stim\">5</p>", "key_press": -1, "trial_type": "single-stim", "trial_index": 259, "time_elapsed": 1112419, "internal_node_id": "0.0-191.0-5.0"}}, {"uniqueid": "MTK1260:3K2755HG5TAPCS1WOS6KE9RS2WVFD1", "current_trial": 260, "dateTime": 1513478111490, "trialdata": {"rt": -1, "stimulus": "<p id=\"stim\">4</p>", "key_press": -1, "trial_type": "single-stim", "trial_index": 260, "time_elapsed": 1113423, "internal_node_id": "0.0-191.0-6.0"}}, {"uniqueid": "MTK1260:3K2755HG5TAPCS1WOS6KE9RS2WVFD1", "current_trial": 261, "dateTime": 1513478112494, "trialdata": {"rt": -1, "stimulus": "<p id=\"stim\">3</p>", "key_press": -1, "trial_type": "single-stim", "trial_index": 261, "time_elapsed": 1114427, "internal_node_id": "0.0-191.0-7.0"}}, {"uniqueid": "MTK1260:3K2755HG5TAPCS1WOS6KE9RS2WVFD1", "current_trial": 262, "dateTime": 1513478113499, "trialdata": {"rt": -1, "stimulus": "<p id=\"stim\">2</p>", "key_press": -1, "trial_type": "single-stim", "trial_index": 262, "time_elapsed": 1115431, "internal_node_id": "0.0-191.0-8.0"}}, {"uniqueid": "MTK1260:3K2755HG5TAPCS1WOS6KE9RS2WVFD1", "current_trial": 263, "dateTime": 1513478114502, "trialdata": {"rt": -1, "stimulus": "<p id=\"stim\">1</p>", "key_press": -1, "trial_type": "single-stim", "trial_index": 263, "time_elapsed": 1116435, "internal_node_id": "0.0-191.0-9.0"}}, {"uniqueid": "MTK1260:3K2755HG5TAPCS1WOS6KE9RS2WVFD1", "current_trial": 264, "dateTime": 1513478116006, "trialdata": {"rt": -1, "stimulus": "<p id=\"stim\">+</p>", "key_press": -1, "type": "FIXATION", "trial_type": "single-stim", "trial_index": 264, "time_elapsed": 1117939, "internal_node_id": "0.0-192.0-0.0"}}, {"uniqueid": "MTK1260:3K2755HG5TAPCS1WOS6KE9RS2WVFD1", "current_trial": 265, "dateTime": 1513478116807, "trialdata": {"rt": -1, "stimulus": "<p id=\"stim\">TURNIP</p>", "key_press": -1, "type": "PRES_VIS", "word": "turnip", "wordID": 1520, "conditions": [12, 800, "v", 24000], "trial": 7, "serialpos": 0, "trial_type": "single-stim", "trial_index": 265, "time_elapsed": 1118740, "internal_node_id": "0.0-193.0"}}, {"uniqueid": "MTK1260:3K2755HG5TAPCS1WOS6KE9RS2WVFD1", "current_trial": 266, "dateTime": 1513478118432, "trialdata": {"rt": -1, "stimulus": "<p id=\"stim\">BLENDER</p>", "key_press": -1, "type": "PRES_VIS", "word": "blender", "wordID": 135, "conditions": [12, 800, "v", 24000], "trial": 7, "serialpos": 1, "trial_type": "single-stim", "trial_index": 266, "time_elapsed": 1120365, "internal_node_id": "0.0-194.0"}}, {"uniqueid": "MTK1260:3K2755HG5TAPCS1WOS6KE9RS2WVFD1", "current_trial": 267, "dateTime": 1513478120220, "trialdata": {"rt": -1, "stimulus": "<p id=\"stim\">HEADBAND</p>", "key_press": -1, "type": "PRES_VIS", "word": "headband", "wordID": 695, "conditions": [12, 800, "v", 24000], "trial": 7, "serialpos": 2, "trial_type": "single-stim", "trial_index": 267, "time_elapsed": 1122152, "internal_node_id": "0.0-195.0"}}, {"uniqueid": "MTK1260:3K2755HG5TAPCS1WOS6KE9RS2WVFD1", "current_trial": 268, "dateTime": 1513478121932, "trialdata": {"rt": -1, "stimulus": "<p id=\"stim\">SHOULDER</p>", "key_press": -1, "type": "PRES_VIS", "word": "shoulder", "wordID": 1293, "conditions": [12, 800, "v", 24000], "trial": 7, "serialpos": 3, "trial_type": "single-stim", "trial_index": 268, "time_elapsed": 1123864, "internal_node_id": "0.0-196.0"}}, {"uniqueid": "MTK1260:3K2755HG5TAPCS1WOS6KE9RS2WVFD1", "current_trial": 269, "dateTime": 1513478123789, "trialdata": {"rt": -1, "stimulus": "<p id=\"stim\">HOOK</p>", "key_press": -1, "type": "PRES_VIS", "word": "ho