{"condition": 0, "counterbalance": 1019, "assignmentId": "3VD82FOHKRV9DD8BNZUZHXIO9QBOCJ", "workerId": "MTK1131", "hitId": "3ATYLI1PRT9UY7GN7P6JFHZZKY7OJ6", "currenttrial": 626, "bonus": 0, "data": [{"uniqueid": "MTK1131:3VD82FOHKRV9DD8BNZUZHXIO9QBOCJ", "current_trial": 0, "dateTime": 1513194486549, "trialdata": {"rt": 1795, "key_press": 32, "type": "INSTRUCTIONS", "trial_type": "text", "trial_index": 0, "time_elapsed": 1797, "internal_node_id": "0.0-0.0"}}, {"uniqueid": "MTK1131:3VD82FOHKRV9DD8BNZUZHXIO9QBOCJ", "current_trial": 1, "dateTime": 1513194519411, "trialdata": {"rt": 32861, "key_press": 32, "type": "INSTRUCTIONS", "trial_type": "text", "trial_index": 1, "time_elapsed": 34660, "internal_node_id": "0.0-1.0"}}, {"uniqueid": "MTK1131:3VD82FOHKRV9DD8BNZUZHXIO9QBOCJ", "current_trial": 2, "dateTime": 1513194527291, "trialdata": {"rt": [7873], "responses": ["ocean"], "type": "AUDIO_TEST", "trial_type": "audio-test", "trial_index": 2, "time_elapsed": 42540, "internal_node_id": "0.0-2.0"}}, {"uniqueid": "MTK1131:3VD82FOHKRV9DD8BNZUZHXIO9QBOCJ", "current_trial": 3, "dateTime": 1513194567874, "trialdata": {"rt": [40579], "responses": ["crystal"], "type": "AUDIO_TEST", "trial_type": "audio-test", "trial_index": 3, "time_elapsed": 83123, "internal_node_id": "0.0-3.0"}}, {"uniqueid": "MTK1131:3VD82FOHKRV9DD8BNZUZHXIO9QBOCJ", "current_trial": 4, "dateTime": 1513194571962, "trialdata": {"rt": [4084], "responses": ["spice"], "type": "AUDIO_TEST", "trial_type": "audio-test", "trial_index": 4, "time_elapsed": 87211, "internal_node_id": "0.0-4.0"}}, {"uniqueid": "MTK1131:3VD82FOHKRV9DD8BNZUZHXIO9QBOCJ", "current_trial": 5, "dateTime": 1513194590777, "trialdata": {"rt": 18064, "responses": "{\"Q0\":\"11 PM\",\"Q1\":\"7:30 AM\",\"Q2\":\"5\"}", "type": "SLEEP_SURVEY", "trial_type": "survey-text", "trial_index": 5, "time_elapsed": 106026, "internal_node_id": "0.0-5.0"}}, {"uniqueid": "MTK1131:3VD82FOHKRV9DD8BNZUZHXIO9QBOCJ", "current_trial": 6, "dateTime": 1513194653850, "trialdata": {"rt": 62071, "key_press": 32, "type": "INSTRUCTIONS", "trial_type": "text", "trial_index": 6, "time_elapsed": 169099, "internal_node_id": "0.0-6.0"}}, {"uniqueid": "MTK1131:3VD82FOHKRV9DD8BNZUZHXIO9QBOCJ", "current_trial": 7, "dateTime": 1513194670785, "trialdata": {"rt": 16434, "key_press": 32, "type": "INSTRUCTIONS", "trial_type": "text", "trial_index": 7, "time_elapsed": 186034, "internal_node_id": "0.0-7.0"}}, {"uniqueid": "MTK1131:3VD82FOHKRV9DD8BNZUZHXIO9QBOCJ", "current_trial": 8, "dateTime": 1513194695595, "trialdata": {"rt": 24309, "key_press": 32, "type": "INSTRUCTIONS", "trial_type": "text", "trial_index": 8, "time_elapsed": 210844, "internal_node_id": "0.0-8.0"}}, {"uniqueid": "MTK1131:3VD82FOHKRV9DD8BNZUZHXIO9QBOCJ", "current_trial": 9, "dateTime": 1513194714601, "trialdata": {"rt": [3323, 6571, 9419, 10995, 12619, 13915, 15755, 17539], "responses": ["16", "14", "19", "18", "11", "13", "17", "14"], "num1": [7, 5, 6, 7, 7, 5, 4, 8, 5], "num2": [6, 8, 4, 6, 1, 5, 7, 5, 7], "num3": [3, 1, 9, 5, 3, 3, 6, 1, 9], "type": "DISTRACTOR", "conditions": [18, 1200, "v", 18000], "trial": 0, "trial_type": "math-distractor", "trial_index": 9, "time_elapsed": 229850, "internal_node_id": "0.0-9.0"}}, {"uniqueid": "MTK1131:3VD82FOHKRV9DD8BNZUZHXIO9QBOCJ", "current_trial": 10, "dateTime": 1513194717603, "trialdata": {"rt": -1, "stimulus": "<p id=\"stim\">10</p>", "key_press": -1, "trial_type": "single-stim", "trial_index": 10, "time_elapsed": 232852, "internal_node_id": "0.0-10.0-0.0"}}, {"uniqueid": "MTK1131:3VD82FOHKRV9DD8BNZUZHXIO9QBOCJ", "current_trial": 11, "dateTime": 1513194718604, "trialdata": {"rt": -1, "stimulus": "<p id=\"stim\">9</p>", "key_press": -1, "trial_type": "single-stim", "trial_index": 11, "time_elapsed": 233853, "internal_node_id": "0.0-10.0-1.0"}}, {"uniqueid": "MTK1131:3VD82FOHKRV9DD8BNZUZHXIO9QBOCJ", "current_trial": 12, "dateTime": 1513194719605, "trialdata": {"rt": -1, "stimulus": "<p id=\"stim\">8</p>", "key_press": -1, "trial_type": "single-stim", "trial_index": 12, "time_elapsed": 234854, "internal_node_id": "0.0-10.0-2.0"}}, {"uniqueid": "MTK1131:3VD82FOHKRV9DD8BNZUZHXIO9QBOCJ", "current_trial": 13, "dateTime": 1513194720606, "trialdata": {"rt": -1, "stimulus": "<p id=\"stim\">7</p>", "key_press": -1, "trial_type": "single-stim", "trial_index": 13, "time_elapsed": 235855, "internal_node_id": "0.0-10.0-3.0"}}, {"uniqueid": "MTK1131:3VD82FOHKRV9DD8BNZUZHXIO9QBOCJ", "current_trial": 14, "dateTime": 1513194721607, "trialdata": {"rt": -1, "stimulus": "<p id=\"stim\">6</p>", "key_press": -1, "trial_type": "single-stim", "trial_index": 14, "time_elapsed": 236856, "internal_node_id": "0.0-10.0-4.0"}}, {"uniqueid": "MTK1131:3VD82FOHKRV9DD8BNZUZHXIO9QBOCJ", "current_trial": 15, "dateTime": 1513194722608, "trialdata": {"rt": -1, "stimulus": "<p id=\"stim\">5</p>", "key_press": -1, "trial_type": "single-stim", "trial_index": 15, "time_elapsed": 237857, "internal_node_id": "0.0-10.0-5.0"}}, {"uniqueid": "MTK1131:3VD82FOHKRV9DD8BNZUZHXIO9QBOCJ", "current_trial": 16, "dateTime": 1513194723609, "trialdata": {"rt": -1, "stimulus": "<p id=\"stim\">4</p>", "key_press": -1, "trial_type": "single-stim", "trial_index": 16, "time_elapsed": 238858, "internal_node_id": "0.0-10.0-6.0"}}, {"uniqueid": "MTK1131:3VD82FOHKRV9DD8BNZUZHXIO9QBOCJ", "current_trial": 17, "dateTime": 1513194724610, "trialdata": {"rt": -1, "stimulus": "<p id=\"stim\">3</p>", "key_press": -1, "trial_type": "single-stim", "trial_index": 17, "time_elapsed": 239859, "internal_node_id": "0.0-10.0-7.0"}}, {"uniqueid": "MTK1131:3VD82FOHKRV9DD8BNZUZHXIO9QBOCJ", "current_trial": 18, "dateTime": 1513194725611, "trialdata": {"rt": -1, "stimulus": "<p id=\"stim\">2</p>", "key_press": -1, "trial_type": "single-stim", "trial_index": 18, "time_elapsed": 240860, "internal_node_id": "0.0-10.0-8.0"}}, {"uniqueid": "MTK1131:3VD82FOHKRV9DD8BNZUZHXIO9QBOCJ", "current_trial": 19, "dateTime": 1513194726612, "trialdata": {"rt": -1, "stimulus": "<p id=\"stim\">1</p>", "key_press": -1, "trial_type": "single-stim", "trial_index": 19, "time_elapsed": 241861, "internal_node_id": "0.0-10.0-9.0"}}, {"uniqueid": "MTK1131:3VD82FOHKRV9DD8BNZUZHXIO9QBOCJ", "current_trial": 20, "dateTime": 1513194728113, "trialdata": {"rt": -1, "stimulus": "<p id=\"stim\">+</p>", "key_press": -1, "type": "FIXATION", "trial_type": "single-stim", "trial_index": 20, "time_elapsed": 243362, "internal_node_id": "0.0-11.0-0.0"}}, {"uniqueid": "MTK1131:3VD82FOHKRV9DD8BNZUZHXIO9QBOCJ", "current_trial": 21, "dateTime": 1513194729314, "trialdata": {"rt": -1, "stimulus": "<p id=\"stim\">LION</p>", "key_press": -1, "type": "PRES_VIS", "word": "lion", "wordID": 826, "conditions": [18, 1200, "v", 18000], "trial": 0, "serialpos": 0, "trial_type": "single-stim", "trial_index": 21, "time_elapsed": 244563, "internal_node_id": "0.0-12.0"}}, {"uniqueid": "MTK1131:3VD82FOHKRV9DD8BNZUZHXIO9QBOCJ", "current_trial": 22, "dateTime": 1513194731588, "trialdata": {"rt": -1, "stimulus": "<p id=\"stim\">SAUSAGE</p>", "key_press": -1, "type": "PRES_VIS", "word": "sausage", "wordID": 1237, "conditions": [18, 1200, "v", 18000], "trial": 0, "serialpos": 1, "trial_type": "single-stim", "trial_index": 22, "time_elapsed": 246837, "internal_node_id": "0.0-13.0"}}, {"uniqueid": "MTK1131:3VD82FOHKRV9DD8BNZUZHXIO9QBOCJ", "current_trial": 23, "dateTime": 1513194733780, "trialdata": {"rt": -1, "stimulus": "<p id=\"stim\">CITRUS</p>", "key_press": -1, "type": "PRES_VIS", "word": "citrus", "wordID": 312, "conditions": [18, 1200, "v", 18000], "trial": 0, "serialpos": 2, "trial_type": "single-stim", "trial_index": 23, "time_elapsed": 249029, "internal_node_id": "0.0-14.0"}}, {"uniqueid": "MTK1131:3VD82FOHKRV9DD8BNZUZHXIO9QBOCJ", "current_trial": 24, "dateTime": 1513194735900, "trialdata": {"rt": -1, "stimulus": "<p id=\"stim\">GARLIC</p>", "key_press": -1, "type": "PRES_VIS", "word": "garlic", "wordID": 623, "conditions": [18, 1200, "v", 18000], "trial": 0, "serialpos": 3, "trial_type": "single-stim", "trial_index": 24, "time_elapsed": 251149, "internal_node_id": "0.0-15.0"}}, {"uniqueid": "MTK1131:3VD82FOHKRV9DD8BNZUZHXIO9QBOCJ", "current_trial": 25, "dateTime": 1513194737908, "trialdata": {"rt": -1, "stimulus": "<p id=\"stim\">HOOK</p>", "key_press": -1, "type": "PRES_VIS", "word": "hook", "wordID": 714, "conditions": [18, 1200, "v", 18000], "trial": 0, "serialpos": 4, "trial_type": "single-stim", "trial_index": 25, "time_elapsed": 253157, "internal_node_id": "0.0-16.0"}}, {"uniqueid": "MTK1131:3VD82FOHKRV9DD8BNZUZHXIO9QBOCJ", "current_trial": 26, "dateTime": 1513194740035, "trialdata": {"rt": -1, "stimulus": "<p id=\"stim\">APRON</p>", "key_press": -1, "type": "PRES_VIS", "word": "apron", "wordID": 34, "conditions": [18, 1200, "v", 18000], "trial": 0, "serialpos": 5, "trial_type": "single-stim", "trial_index": 26, "time_elapsed": 255283, "internal_node_id": "0.0-17.0"}}, {"uniqueid": "MTK1131:3VD82FOHKRV9DD8BNZUZHXIO9QBOCJ", "current_trial": 27, "dateTime": 1513194742127, "trialdata": {"rt": -1, "stimulus": "<p id=\"stim\">SKIRT</p>", "key_press": -1, "type": "PRES_VIS", "word": "skirt", "wordID": 1318, "conditions": [18, 1200, "v", 18000], "trial": 0, "serialpos": 6, "trial_type": "single-stim", "trial_index": 27, "time_elapsed": 257375, "internal_node_id": "0.0-18.0"}}, {"uniqueid": "MTK1131:3VD82FOHKRV9DD8BNZUZHXIO9QBOCJ", "current_trial": 28, "dateTime": 1513194744499, "trialdata": {"rt": -1, "stimulus": "<p id=\"stim\">JAPAN</p>", "key_press": -1, "type": "PRES_VIS", "word": "japan", "wordID": 748, "conditions": [18, 1200, "v", 18000], "trial": 0, "serialpos": 7, "trial_type": "single-stim", "trial_index": 28, "time_elapsed": 259747, "internal_node_id": "0.0-19.0"}}, {"uniqueid": "MTK1131:3VD82FOHKRV9DD8BNZUZHXIO9QBOCJ", "current_trial": 29, "dateTime": 1513194746869, "trialdata": {"rt": -1, "stimulus": "<p id=\"stim\">PLAID</p>", "key_press": -1, "type": "PRES_VIS", "word": "plaid", "wordID": 1079, "conditions": [18, 1200, "v", 18000], "trial": 0, "serialpos": 8, "trial_type": "single-stim", "trial_index": 29, "time_elapsed": 262118, "internal_node_id": "0.0-20.0"}}, {"uniqueid": "MTK1131:3VD82FOHKRV9DD8BNZUZHXIO9QBOCJ", "current_trial": 30, "dateTime": 1513194749031, "trialdata": {"rt": -1, "stimulus": "<p id=\"stim\">LOFT</p>", "key_press": -1, "type": "PRES_VIS", "word": "loft", "wordID": 839, "conditions": [18, 1200, "v", 18000], "trial": 0, "serialpos": 9, "trial_type": "single-stim", "trial_index": 30, "time_elapsed": 264280, "internal_node_id": "0.0-21.0"}}, {"uniqueid": "MTK1131:3VD82FOHKRV9DD8BNZUZHXIO9QBOCJ", "current_trial": 31, "dateTime": 1513194751277, "trialdata": {"rt": -1, "stimulus": "<p id=\"stim\">TILE</p>", "key_press": -1, "type": "PRES_VIS", "word": "tile", "wordID": 1467, "conditions": [18, 1200, "v", 18000], "trial": 0, "serialpos": 10, "trial_type": "single-stim", "trial_index": 31, "time_elapsed": 266526, "internal_node_id": "0.0-22.0"}}, {"uniqueid": "MTK1131:3VD82FOHKRV9DD8BNZUZHXIO9QBOCJ", "current_trial": 32, "dateTime": 1513194753626, "trialdata": {"rt": -1, "stimulus": "<p id=\"stim\">CAFE</p>", "key_press": -1, "type": "PRES_VIS", "word": "cafe", "wordID": 215, "conditions": [18, 1200, "v", 18000], "trial": 0, "serialpos": 11, "trial_type": "single-stim", "trial_index": 32, "time_elapsed": 268875, "internal_node_id": "0.0-23.0"}}, {"uniqueid": "MTK1131:3VD82FOHKRV9DD8BNZUZHXIO9QBOCJ", "current_trial": 33, "dateTime": 1513194755990, "trialdata": {"rt": -1, "stimulus": "<p id=\"stim\">DRILL</p>", "key_press": -1, "type": "PRES_VIS", "word": "drill", "wordID": 496, "conditions": [18, 1200, "v", 18000], "trial": 0, "serialpos": 12, "trial_type": "single-stim", "trial_index": 33, "time_elapsed": 271239, "internal_node_id": "0.0-24.0"}}, {"uniqueid": "MTK1131:3VD82FOHKRV9DD8BNZUZHXIO9QBOCJ", "current_trial": 34, "dateTime": 1513194758337, "trialdata": {"rt": -1, "stimulus": "<p id=\"stim\">CHURCH</p>", "key_press": -1, "type": "PRES_VIS", "word": "church", "wordID": 306, "conditions": [18, 1200, "v", 18000], "trial": 0, "serialpos": 13, "trial_type": "single-stim", "trial_index": 34, "time_elapsed": 273586, "internal_node_id": "0.0-25.0"}}, {"uniqueid": "MTK1131:3VD82FOHKRV9DD8BNZUZHXIO9QBOCJ", "current_trial": 35, "dateTime": 1513194760410, "trialdata": {"rt": -1, "stimulus": "<p id=\"stim\">WOMAN</p>", "key_press": -1, "type": "PRES_VIS", "word": "woman", "wordID": 1619, "conditions": [18, 1200, "v", 18000], "trial": 0, "serialpos": 14, "trial_type": "single-stim", "trial_index": 35, "time_elapsed": 275658, "internal_node_id": "0.0-26.0"}}, {"uniqueid": "MTK1131:3VD82FOHKRV9DD8BNZUZHXIO9QBOCJ", "current_trial": 36, "dateTime": 1513194762439, "trialdata": {"rt": -1, "stimulus": "<p id=\"stim\">MARKER</p>", "key_press": -1, "type": "PRES_VIS", "word": "marker", "wordID": 869, "conditions": [18, 1200, "v", 18000], "trial": 0, "serialpos": 15, "trial_type": "single-stim", "trial_index": 36, "time_elapsed": 277688, "internal_node_id": "0.0-27.0"}}, {"uniqueid": "MTK1131:3VD82FOHKRV9DD8BNZUZHXIO9QBOCJ", "current_trial": 37, "dateTime": 1513194764738, "trialdata": {"rt": -1, "stimulus": "<p id=\"stim\">STICKER</p>", "key_press": -1, "type": "PRES_VIS", "word": "sticker", "wordID": 1381, "conditions": [18, 1200, "v", 18000], "trial": 0, "serialpos": 16, "trial_type": "single-stim", "trial_index": 37, "time_elapsed": 279986, "internal_node_id": "0.0-28.0"}}, {"uniqueid": "MTK1131:3VD82FOHKRV9DD8BNZUZHXIO9QBOCJ", "current_trial": 38, "dateTime": 1513194766742, "trialdata": {"rt": -1, "stimulus": "<p id=\"stim\">FLOWER</p>", "key_press": -1, "type": "PRES_VIS", "word": "flower", "wordID": 583, "conditions": [18, 1200, "v", 18000], "trial": 0, "serialpos": 17, "trial_type": "single-stim", "trial_index": 38, "time_elapsed": 281991, "internal_node_id": "0.0-29.0"}}, {"uniqueid": "MTK1131:3VD82FOHKRV9DD8BNZUZHXIO9QBOCJ", "current_trial": 39, "dateTime": 1513194769270, "trialdata": {"rt": -1, "stimulus": "", "key_press": -1, "type": "PRE_RECALL_DELAY", "trial_type": "single-stim", "trial_index": 39, "time_elapsed": 284519, "internal_node_id": "0.0-30.0-0.0"}}, {"uniqueid": "MTK1131:3VD82FOHKRV9DD8BNZUZHXIO9QBOCJ", "current_trial": 40, "dateTime": 1513194769772, "trialdata": {"rt": -1000, "stimulus": "/static/audio/400Hz.wav", "key_press": -1, "type": "PRE_RECALL_ALERT", "trial_type": "single-audio", "trial_index": 40, "time_elapsed": 285021, "internal_node_id": "0.0-31.0"}}, {"uniqueid": "MTK1131:3VD82FOHKRV9DD8BNZUZHXIO9QBOCJ", "current_trial": 41, "dateTime": 1513194829777, "trialdata": {"rt": [2651, 4307, 6875, 8187, 8995, 10795], "recwords": ["flower", "loft", "japan", "skirt", "plaid", "citrus"], "type": "FREE_RECALL", "conditions": [18, 1200, "v", 18000], "trial": 0, "trial_type": "free-recall", "trial_index": 41, "time_elapsed": 345025, "internal_node_id": "0.0-32.0-0.0"}}, {"uniqueid": "MTK1131:3VD82FOHKRV9DD8BNZUZHXIO9QBOCJ", "current_trial": 42, "dateTime": 1513194833816, "trialdata": {"rt": 2038, "key_press": 13, "type": "INSTRUCTIONS", "trial_type": "text", "trial_index": 42, "time_elapsed": 349065, "internal_node_id": "0.0-33.0"}}, {"uniqueid": "MTK1131:3VD82FOHKRV9DD8BNZUZHXIO9QBOCJ", "current_trial": 43, "dateTime": 1513194853819, "trialdata": {"rt": [3190, 5854, 8654, 10750, 12302, 13582, 15006], "responses": ["18", "19", "15", "5", "11", "12", "12"], "num1": [9, 4, 4, 2, 4, 4, 3, 8], "num2": [4, 8, 3, 2, 5, 6, 4, 7], "num3": [5, 7, 8, 3, 2, 2, 5, 9], "type": "DISTRACTOR", "conditions": [18, 1200, "a", 18000], "trial": 1, "trial_type": "math-distractor", "trial_index": 43, "time_elapsed": 369068, "internal_node_id": "0.0-34.0"}}, {"uniqueid": "MTK1131:3VD82FOHKRV9DD8BNZUZHXIO9QBOCJ", "current_trial": 44, "dateTime": 1513194856821, "trialdata": {"rt": -1, "stimulus": "<p id=\"stim\">10</p>", "key_press": -1, "trial_type": "single-stim", "trial_index": 44, "time_elapsed": 372070, "internal_node_id": "0.0-35.0-0.0"}}, {"uniqueid": "MTK1131:3VD82FOHKRV9DD8BNZUZHXIO9QBOCJ", "current_trial": 45, "dateTime": 1513194857822, "trialdata": {"rt": -1, "stimulus": "<p id=\"stim\">9</p>", "key_press": -1, "trial_type": "single-stim", "trial_index": 45, "time_elapsed": 373071, "internal_node_id": "0.0-35.0-1.0"}}, {"uniqueid": "MTK1131:3VD82FOHKRV9DD8BNZUZHXIO9QBOCJ", "current_trial": 46, "dateTime": 1513194858823, "trialdata": {"rt": -1, "stimulus": "<p id=\"stim\">8</p>", "key_press": -1, "trial_type": "single-stim", "trial_index": 46, "time_elapsed": 374072, "internal_node_id": "0.0-35.0-2.0"}}, {"uniqueid": "MTK1131:3VD82FOHKRV9DD8BNZUZHXIO9QBOCJ", "current_trial": 47, "dateTime": 1513194859824, "trialdata": {"rt": -1, "stimulus": "<p id=\"stim\">7</p>", "key_press": -1, "trial_type": "single-stim", "trial_index": 47, "time_elapsed": 375073, "internal_node_id": "0.0-35.0-3.0"}}, {"uniqueid": "MTK1131:3VD82FOHKRV9DD8BNZUZHXIO9QBOCJ", "current_trial": 48, "dateTime": 1513194860825, "trialdata": {"rt": -1, "stimulus": "<p id=\"stim\">6</p>", "key_press": -1, "trial_type": "single-stim", "trial_index": 48, "time_elapsed": 376074, "internal_node_id": "0.0-35.0-4.0"}}, {"uniqueid": "MTK1131:3VD82FOHKRV9DD8BNZUZHXIO9QBOCJ", "current_trial": 49, "dateTime": 1513194861827, "trialdata": {"rt": -1, "stimulus": "<p id=\"stim\">5</p>", "key_press": -1, "trial_type": "single-stim", "trial_index": 49, "time_elapsed": 377075, "internal_node_id": "0.0-35.0-5.0"}}, {"uniqueid": "MTK1131:3VD82FOHKRV9DD8BNZUZHXIO9QBOCJ", "current_trial": 50, "dateTime": 1513194862827, "trialdata": {"rt": -1, "stimulus": "<p id=\"stim\">4</p>", "key_press": -1, "trial_type": "single-stim", "trial_index": 50, "time_elapsed": 378076, "internal_node_id": "0.0-35.0-6.0"}}, {"uniqueid": "MTK1131:3VD82FOHKRV9DD8BNZUZHXIO9QBOCJ", "current_trial": 51, "dateTime": 1513194863828, "trialdata": {"rt": -1, "stimulus": "<p id=\"stim\">3</p>", "key_press": -1, "trial_type": "single-stim", "trial_index": 51, "time_elapsed": 379077, "internal_node_id": "0.0-35.0-7.0"}}, {"uniqueid": "MTK1131:3VD82FOHKRV9DD8BNZUZHXIO9QBOCJ", "current_trial": 52, "dateTime": 1513194864830, "trialdata": {"rt": -1, "stimulus": "<p id=\"stim\">2</p>", "key_press": -1, "trial_type": "single-stim", "trial_index": 52, "time_elapsed": 380078, "internal_node_id": "0.0-35.0-8.0"}}, {"uniqueid": "MTK1131:3VD82FOHKRV9DD8BNZUZHXIO9QBOCJ", "current_trial": 53, "dateTime": 1513194865831, "trialdata": {"rt": -1, "stimulus": "<p id=\"stim\">1</p>", "key_press": -1, "trial_type": "single-stim", "trial_index": 53, "time_elapsed": 381079, "internal_node_id": "0.0-35.0-9.0"}}, {"uniqueid": "MTK1131:3VD82FOHKRV9DD8BNZUZHXIO9QBOCJ", "current_trial": 54, "dateTime": 1513194867332, "trialdata": {"rt": -1, "stimulus": "<p id=\"stim\">+</p>", "key_press": -1, "type": "FIXATION", "trial_type": "single-stim", "trial_index": 54, "time_elapsed": 382581, "internal_node_id": "0.0-36.0-0.0"}}, {"uniqueid": "MTK1131:3VD82FOHKRV9DD8BNZUZHXIO9QBOCJ", "current_trial": 55, "dateTime": 1513194869381, "trialdata": {"rt": -1000, "stimulus": "/static/audio/wordpool/NOTEBOOK.wav", "key_press": -1, "type": "PRES_AUD", "word": "notebook", "wordID": 958, "conditions": [18, 1200, "a", 18000], "trial": 1, "serialpos": 0, "trial_type": "single-audio", "trial_index": 55, "time_elapsed": 384629, "internal_node_id": "0.0-37.0"}}, {"uniqueid": "MTK1131:3VD82FOHKRV9DD8BNZUZHXIO9QBOCJ", "current_trial": 56, "dateTime": 1513194871761, "trialdata": {"rt": -1000, "stimulus": "/static/audio/wordpool/LUGGAGE.wav", "key_press": -1, "type": "PRES_AUD", "word": "luggage", "wordID": 846, "conditions": [18, 1200, "a", 18000], "trial": 1, "serialpos": 1, "trial_type": "single-audio", "trial_index": 56, "time_elapsed": 387010, "internal_node_id": "0.0-38.0"}}, {"uniqueid": "MTK1131:3VD82FOHKRV9DD8BNZUZHXIO9QBOCJ", "current_trial": 57, "dateTime": 1513194874055, "trialdata": {"rt": -1000, "stimulus": "/static/audio/wordpool/PRINCESS.wav", "key_press": -1, "type": "PRES_AUD", "word": "princess", "wordID": 1124, "conditions": [18, 1200, "a", 18000], "trial": 1, "serialpos": 2, "trial_type": "single-audio", "trial_index": 57, "time_elapsed": 389304, "internal_node_id": "0.0-39.0"}}, {"uniqueid": "MTK1131:3VD82FOHKRV9DD8BNZUZHXIO9QBOCJ", "current_trial": 58, "dateTime": 1513194876403, "trialdata": {"rt": -1000, "stimulus": "/static/audio/wordpool/CRITIC.wav", "key_press": -1, "type": "PRES_AUD", "word": "critic", "wordID": 409, "conditions": [18, 1200, "a", 18000], "trial": 1, "serialpos": 3, "trial_type": "single-audio", "trial_index": 58, "time_elapsed": 391652, "internal_node_id": "0.0-40.0"}}, {"uniqueid": "MTK1131:3VD82FOHKRV9DD8BNZUZHXIO9QBOCJ", "current_trial": 59, "dateTime": 1513194878421, "trialdata": {"rt": -1000, "stimulus": "/static/audio/wordpool/RAFT.wav", "key_press": -1, "type": "PRES_AUD", "word": "raft", "wordID": 1158, "conditions": [18, 1200, "a", 18000], "trial": 1, "serialpos": 4, "trial_type": "single-audio", "trial_index": 59, "time_elapsed": 393670, "internal_node_id": "0.0-41.0"}}, {"uniqueid": "MTK1131:3VD82FOHKRV9DD8BNZUZHXIO9QBOCJ", "current_trial": 60, "dateTime": 1513194880462, "trialdata": {"rt": -1000, "stimulus": "/static/audio/wordpool/VIRUS.wav", "key_press": -1, "type": "PRES_AUD", "word": "virus", "wordID": 1571, "conditions": [18, 1200, "a", 18000], "trial": 1, "serialpos": 5, "trial_type": "single-audio", "trial_index": 60, "time_elapsed": 395711, "internal_node_id": "0.0-42.0"}}, {"uniqueid": "MTK1131:3VD82FOHKRV9DD8BNZUZHXIO9QBOCJ", "current_trial": 61, "dateTime": 1513194882826, "trialdata": {"rt": -1000, "stimulus": "/static/audio/wordpool/MONSTER.wav", "key_press": -1, "type": "PRES_AUD", "word": "monster", "wordID": 911, "conditions": [18, 1200, "a", 18000], "trial": 1, "serialpos": 6, "trial_type": "single-audio", "trial_index": 61, "time_elapsed": 398075, "internal_node_id": "0.0-43.0"}}, {"uniqueid": "MTK1131:3VD82FOHKRV9DD8BNZUZHXIO9QBOCJ", "current_trial": 62, "dateTime": 1513194885033, "trialdata": {"rt": -1000, "stimulus": "/static/audio/wordpool/PADDLE.wav", "key_press": -1, "type": "PRES_AUD", "word": "paddle", "wordID": 999, "conditions": [18, 1200, "a", 18000], "trial": 1, "serialpos": 7, "trial_type": "single-audio", "trial_index": 62, "time_elapsed": 400282, "internal_node_id": "0.0-44.0"}}, {"uniqueid": "MTK1131:3VD82FOHKRV9DD8BNZUZHXIO9QBOCJ", "current_trial": 63, "dateTime": 1513194887111, "trialdata": {"rt": -1000, "stimulus": "/static/audio/wordpool/SWORD.wav", "key_press": -1, "type": "PRES_AUD", "word": "sword", "wordID": 1422, "conditions": [18, 1200, "a", 18000], "trial": 1, "serialpos": 8, "trial_type": "single-audio", "trial_index": 63, "time_elapsed": 402360, "internal_node_id": "0.0-45.0"}}, {"uniqueid": "MTK1131:3VD82FOHKRV9DD8BNZUZHXIO9QBOCJ", "current_trial": 64, "dateTime": 1513194889372, "trialdata": {"rt": -1000, "stimulus": "/static/audio/wordpool/BRACES.wav", "key_press": -1, "type": "PRES_AUD", "word": "braces", "wordID": 163, "conditions": [18, 1200, "a", 18000], "trial": 1, "serialpos": 9, "trial_type": "single-audio", "trial_index": 64, "time_elapsed": 404620, "internal_node_id": "0.0-46.0"}}, {"uniqueid": "MTK1131:3VD82FOHKRV9DD8BNZUZHXIO9QBOCJ", "current_trial": 65, "dateTime": 1513194891688, "trialdata": {"rt": -1000, "stimulus": "/static/audio/wordpool/LEOPARD.wav", "key_press": -1, "type": "PRES_AUD", "word": "leopard", "wordID": 811, "conditions": [18, 1200, "a", 18000], "trial": 1, "serialpos": 10, "trial_type": "single-audio", "trial_index": 65, "time_elapsed": 406936, "internal_node_id": "0.0-47.0"}}, {"uniqueid": "MTK1131:3VD82FOHKRV9DD8BNZUZHXIO9QBOCJ", "current_trial": 66, "dateTime": 1513194893803, "trialdata": {"rt": -1000, "stimulus": "/static/audio/wordpool/MARSH.wav", "key_press": -1, "type": "PRES_AUD", "word": "marsh", "wordID": 873, "conditions": [18, 1200, "a", 18000], "trial": 1, "serialpos": 11, "trial_type": "single-audio", "trial_index": 66, "time_elapsed": 409052, "internal_node_id": "0.0-48.0"}}, {"uniqueid": "MTK1131:3VD82FOHKRV9DD8BNZUZHXIO9QBOCJ", "current_trial": 67, "dateTime": 1513194896199, "trialdata": {"rt": -1000, "stimulus": "/static/audio/wordpool/GARDEN.wav", "key_press": -1, "type": "PRES_AUD", "word": "garden", "wordID": 622, "conditions": [18, 1200, "a", 18000], "trial": 1, "serialpos": 12, "trial_type": "single-audio", "trial_index": 67, "time_elapsed": 411448, "internal_node_id": "0.0-49.0"}}, {"uniqueid": "MTK1131:3VD82FOHKRV9DD8BNZUZHXIO9QBOCJ", "current_trial": 68, "dateTime": 1513194898378, "trialdata": {"rt": -1000, "stimulus": "/static/audio/wordpool/PLAZA.wav", "key_press": -1, "type": "PRES_AUD", "word": "plaza", "wordID": 1087, "conditions": [18, 1200, "a", 18000], "trial": 1, "serialpos": 13, "trial_type": "single-audio", "trial_index": 68, "time_elapsed": 413626, "internal_node_id": "0.0-50.0"}}, {"uniqueid": "MTK1131:3VD82FOHKRV9DD8BNZUZHXIO9QBOCJ", "current_trial": 69, "dateTime": 1513194900684, "trialdata": {"rt": -1000, "stimulus": "/static/audio/wordpool/GARBAGE.wav", "key_press": -1, "type": "PRES_AUD", "word": "garbage", "wordID": 621, "conditions": [18, 1200, "a", 18000], "trial": 1, "serialpos": 14, "trial_type": "single-audio", "trial_index": 69, "time_elapsed": 415933, "internal_node_id": "0.0-51.0"}}, {"uniqueid": "MTK1131:3VD82FOHKRV9DD8BNZUZHXIO9QBOCJ", "current_trial": 70, "dateTime": 1513194902873, "trialdata": {"rt": -1000, "stimulus": "/static/audio/wordpool/BREAST.wav", "key_press": -1, "type": "PRES_AUD", "word": "breast", "wordID": 170, "conditions": [18, 1200, "a", 18000], "trial": 1, "serialpos": 15, "trial_type": "single-audio", "trial_index": 70, "time_elapsed": 418122, "internal_node_id": "0.0-52.0"}}, {"uniqueid": "MTK1131:3VD82FOHKRV9DD8BNZUZHXIO9QBOCJ", "current_trial": 71, "dateTime": 1513194905190, "trialdata": {"rt": -1000, "stimulus": "/static/audio/wordpool/HEADBAND.wav", "key_press": -1, "type": "PRES_AUD", "word": "headband", "wordID": 695, "conditions": [18, 1200, "a", 18000], "trial": 1, "serialpos": 16, "trial_type": "single-audio", "trial_index": 71, "time_elapsed": 420439, "internal_node_id": "0.0-53.0"}}, {"uniqueid": "MTK1131:3VD82FOHKRV9DD8BNZUZHXIO9QBOCJ", "current_trial": 72, "dateTime": 1513194907405, "trialdata": {"rt": -1000, "stimulus": "/static/audio/wordpool/FINGER.wav", "key_press": -1, "type": "PRES_AUD", "word": "finger", "wordID": 566, "conditions": [18, 1200, "a", 18000], "trial": 1, "serialpos": 17, "trial_type": "single-audio", "trial_index": 72, "time_elapsed": 422654, "internal_node_id": "0.0-54.0"}}, {"uniqueid": "MTK1131:3VD82FOHKRV9DD8BNZUZHXIO9QBOCJ", "current_trial": 73, "dateTime": 1513194908734, "trialdata": {"rt": -1, "stimulus": "", "key_press": -1, "type": "PRE_RECALL_DELAY", "trial_type": "single-stim", "trial_index": 73, "time_elapsed": 423983, "internal_node_id": "0.0-55.0-0.0"}}, {"uniqueid": "MTK1131:3VD82FOHKRV9DD8BNZUZHXIO9QBOCJ", "current_trial": 74, "dateTime": 1513194909235, "trialdata": {"rt": -1000, "stimulus": "/static/audio/400Hz.wav", "key_press": -1, "type": "PRE_RECALL_ALERT", "trial_type": "single-audio", "trial_index": 74, "time_elapsed": 424484, "internal_node_id": "0.0-56.0"}}, {"uniqueid": "MTK1131:3VD82FOHKRV9DD8BNZUZHXIO9QBOCJ", "current_trial": 75, "dateTime": 1513194969241, "trialdata": {"rt": [2043, 3451, 4523, 5923, 7075, 8483, 13779], "recwords": ["finger", "headband", "breast", "princess", "monster", "virus", "notebook"], "type": "FREE_RECALL", "conditions": [18, 1200, "a", 18000], "trial": 1, "trial_type": "free-recall", "trial_index": 75, "time_elapsed": 484488, "internal_node_id": "0.0-57.0-0.0"}}, {"uniqueid": "MTK1131:3VD82FOHKRV9DD8BNZUZHXIO9QBOCJ", "current_trial": 76, "dateTime": 1513194979337, "trialdata": {"rt": 8092, "key_press": 32, "type": "INSTRUCTIONS", "trial_type": "text", "trial_index": 76, "time_elapsed": 494584, "internal_node_id": "0.0-58.0"}}, {"uniqueid": "MTK1131:3VD82FOHKRV9DD8BNZUZHXIO9QBOCJ", "current_trial": 77, "dateTime": 1513194992340, "trialdata": {"rt": [7595, 8971], "responses": ["11", "19"], "num1": [3, 8, 2], "num2": [6, 4, 3], "num3": [2, 7, 8], "type": "DISTRACTOR", "conditions": [24, 800, "a", 12000], "trial": 2, "trial_type": "math-distractor", "trial_index": 77, "time_elapsed": 507589, "internal_node_id": "0.0-59.0"}}, {"uniqueid": "MTK1131:3VD82FOHKRV9DD8BNZUZHXIO9QBOCJ", "current_trial": 78, "dateTime": 1513194995342, "trialdata": {"rt": -1, "stimulus": "<p id=\"stim\">10</p>", "key_press": -1, "trial_type": "single-stim", "trial_index": 78, "time_elapsed": 510591, "internal_node_id": "0.0-60.0-0.0"}}, {"uniqueid": "MTK1131:3VD82FOHKRV9DD8BNZUZHXIO9QBOCJ", "current_trial": 79, "dateTime": 1513194996343, "trialdata": {"rt": -1, "stimulus": "<p id=\"stim\">9</p>", "key_press": -1, "trial_type": "single-stim", "trial_index": 79, "time_elapsed": 511592, "internal_node_id": "0.0-60.0-1.0"}}, {"uniqueid": "MTK1131:3VD82FOHKRV9DD8BNZUZHXIO9QBOCJ", "current_trial": 80, "dateTime": 1513194997344, "trialdata": {"rt": -1, "stimulus": "<p id=\"stim\">8</p>", "key_press": -1, "trial_type": "single-stim", "trial_index": 80, "time_elapsed": 512593, "internal_node_id": "0.0-60.0-2.0"}}, {"uniqueid": "MTK1131:3VD82FOHKRV9DD8BNZUZHXIO9QBOCJ", "current_trial": 81, "dateTime": 1513194998346, "trialdata": {"rt": -1, "stimulus": "<p id=\"stim\">7</p>", "key_press": -1, "trial_type": "single-stim", "trial_index": 81, "time_elapsed": 513595, "internal_node_id": "0.0-60.0-3.0"}}, {"uniqueid": "MTK1131:3VD82FOHKRV9DD8BNZUZHXIO9QBOCJ", "current_trial": 82, "dateTime": 1513194999347, "trialdata": {"rt": -1, "stimulus": "<p id=\"stim\">6</p>", "key_press": -1, "trial_type": "single-stim", "trial_index": 82, "time_elapsed": 514596, "internal_node_id": "0.0-60.0-4.0"}}, {"uniqueid": "MTK1131:3VD82FOHKRV9DD8BNZUZHXIO9QBOCJ", "current_trial": 83, "dateTime": 1513195000348, "trialdata": {"rt": -1, "stimulus": "<p id=\"stim\">5</p>", "key_press": -1, "trial_type": "single-stim", "trial_index": 83, "time_elapsed": 515597, "internal_node_id": "0.0-60.0-5.0"}}, {"uniqueid": "MTK1131:3VD82FOHKRV9DD8BNZUZHXIO9QBOCJ", "current_trial": 84, "dateTime": 1513195001349, "trialdata": {"rt": -1, "stimulus": "<p id=\"stim\">4</p>", "key_press": -1, "trial_type": "single-stim", "trial_index": 84, "time_elapsed": 516598, "internal_node_id": "0.0-60.0-6.0"}}, {"uniqueid": "MTK1131:3VD82FOHKRV9DD8BNZUZHXIO9QBOCJ", "current_trial": 85, "dateTime": 1513195002350, "trialdata": {"rt": -1, "stimulus": "<p id=\"stim\">3</p>", "key_press": -1, "trial_type": "single-stim", "trial_index": 85, "time_elapsed": 517599, "internal_node_id": "0.0-60.0-7.0"}}, {"uniqueid": "MTK1131:3VD82FOHKRV9DD8BNZUZHXIO9QBOCJ", "current_trial": 86, "dateTime": 1513195003351, "trialdata": {"rt": -1, "stimulus": "<p id=\"stim\">2</p>", "key_press": -1, "trial_type": "single-stim", "trial_index": 86, "time_elapsed": 518600, "internal_node_id": "0.0-60.0-8.0"}}, {"uniqueid": "MTK1131:3VD82FOHKRV9DD8BNZUZHXIO9QBOCJ", "current_trial": 87, "dateTime": 1513195004352, "trialdata": {"rt": -1, "stimulus": "<p id=\"stim\">1</p>", "key_press": -1, "trial_type": "single-stim", "trial_index": 87, "time_elapsed": 519601, "internal_node_id": "0.0-60.0-9.0"}}, {"uniqueid": "MTK1131:3VD82FOHKRV9DD8BNZUZHXIO9QBOCJ", "current_trial": 88, "dateTime": 1513195005853, "trialdata": {"rt": -1, "stimulus": "<p id=\"stim\">+</p>", "key_press": -1, "type": "FIXATION", "trial_type": "single-stim", "trial_index": 88, "time_elapsed": 521102, "internal_node_id": "0.0-61.0-0.0"}}, {"uniqueid": "MTK1131:3VD82FOHKRV9DD8BNZUZHXIO9QBOCJ", "current_trial": 89, "dateTime": 1513195007709, "trialdata": {"rt": -1000, "stimulus": "/static/audio/wordpool/LUNCH.wav", "key_press": -1, "type": "PRES_AUD", "word": "lunch", "wordID": 848, "conditions": [24, 800, "a", 12000], "trial": 2, "serialpos": 0, "trial_type": "single-audio", "trial_index": 89, "time_elapsed": 522958, "internal_node_id": "0.0-62.0"}}, {"uniqueid": "MTK1131:3VD82FOHKRV9DD8BNZUZHXIO9QBOCJ", "current_trial": 90, "dateTime": 1513195009505, "trialdata": {"rt": -1000, "stimulus": "/static/audio/wordpool/PIANO.wav", "key_press": -1, "type": "PRES_AUD", "word": "piano", "wordID": 1056, "conditions": [24, 800, "a", 12000], "trial": 2, "serialpos": 1, "trial_type": "single-audio", "trial_index": 90, "time_elapsed": 524754, "internal_node_id": "0.0-63.0"}}, {"uniqueid": "MTK1131:3VD82FOHKRV9DD8BNZUZHXIO9QBOCJ", "current_trial": 91, "dateTime": 1513195011457, "trialdata": {"rt": -1000, "stimulus": "/static/audio/wordpool/BANJO.wav", "key_press": -1, "type": "PRES_AUD", "word": "banjo", "wordID": 81, "conditions": [24, 800, "a", 12000], "trial": 2, "serialpos": 2, "trial_type": "single-audio", "trial_index": 91, "time_elapsed": 526706, "internal_node_id": "0.0-64.0"}}, {"uniqueid": "MTK1131:3VD82FOHKRV9DD8BNZUZHXIO9QBOCJ", "current_trial": 92, "dateTime": 1513195013218, "trialdata": {"rt": -1000, "stimulus": "/static/audio/wordpool/STONE.wav", "key_press": -1, "type": "PRES_AUD", "word": "stone", "wordID": 1384, "conditions": [24, 800, "a", 12000], "trial": 2, "serialpos": 3, "trial_type": "single-audio", "trial_index": 92, "time_elapsed": 528467, "internal_node_id": "0.0-65.0"}}, {"uniqueid": "MTK1131:3VD82FOHKRV9DD8BNZUZHXIO9QBOCJ", "current_trial": 93, "dateTime": 1513195014932, "trialdata": {"rt": -1000, "stimulus": "/static/audio/wordpool/TURKEY.wav", "key_press": -1, "type": "PRES_AUD", "word": "turkey", "wordID": 1519, "conditions": [24, 800, "a", 12000], "trial": 2, "serialpos": 4, "trial_type": "single-audio", "trial_index": 93, "time_elapsed": 530180, "internal_node_id": "0.0-66.0"}}, {"uniqueid": "MTK1131:3VD82FOHKRV9DD8BNZUZHXIO9QBOCJ", "current_trial": 94, "dateTime": 1513195016551, "trialdata": {"rt": -1000, "stimulus": "/static/audio/wordpool/PISTON.wav", "key_press": -1, "type": "PRES_AUD", "word": "piston", "wordID": 1075, "conditions": [24, 800, "a", 12000], "trial": 2, "serialpos": 5, "trial_type": "single-audio", "trial_index": 94, "time_elapsed": 531800, "internal_node_id": "0.0-67.0"}}, {"uniqueid": "MTK1131:3VD82FOHKRV9DD8BNZUZHXIO9QBOCJ", "current_trial": 95, "dateTime": 1513195018266, "trialdata": {"rt": -1000, "stimulus": "/static/audio/wordpool/FLASK.wav", "key_press": -1, "type": "PRES_AUD", "word": "flask", "wordID": 575, "conditions": [24, 800, "a", 12000], "trial": 2, "serialpos": 6, "trial_type": "single-audio", "trial_index": 95, "time_elapsed": 533515, "internal_node_id": "0.0-68.0"}}, {"uniqueid": "MTK1131:3VD82FOHKRV9DD8BNZUZHXIO9QBOCJ", "current_trial": 96, "dateTime": 1513195019869, "trialdata": {"rt": -1000, "stimulus": "/static/audio/wordpool/SURVEY.wav", "key_press": -1, "type": "PRES_AUD", "word": "survey", "wordID": 1413, "conditions": [24, 800, "a", 12000], "trial": 2, "serialpos": 7, "trial_type": "single-audio", "trial_index": 96, "time_elapsed": 535118, "internal_node_id": "0.0-69.0"}}, {"uniqueid": "MTK1131:3VD82FOHKRV9DD8BNZUZHXIO9QBOCJ", "current_trial": 97, "dateTime": 1513195021484, "trialdata": {"rt": -1000, "stimulus": "/static/audio/wordpool/MOP.wav", "key_press": -1, "type": "PRES_AUD", "word": "mop", "wordID": 915, "conditions": [24, 800, "a", 12000], "trial": 2, "serialpos": 8, "trial_type": "single-audio", "trial_index": 97, "time_elapsed": 536733, "internal_node_id": "0.0-70.0"}}, {"uniqueid": "MTK1131:3VD82FOHKRV9DD8BNZUZHXIO9QBOCJ", "current_trial": 98, "dateTime": 1513195023287, "trialdata": {"rt": -1000, "stimulus": "/static/audio/wordpool/OMELET.wav", "key_press": -1, "type": "PRES_AUD", "word": "omelet", "wordID": 975, "conditions": [24, 800, "a", 12000], "trial": 2, "serialpos": 9, "trial_type": "single-audio", "trial_index": 98, "time_elapsed": 538536, "internal_node_id": "0.0-71.0"}}, {"uniqueid": "MTK1131:3VD82FOHKRV9DD8BNZUZHXIO9QBOCJ", "current_trial": 99, "dateTime": 1513195024907, "trialdata": {"rt": -1000, "stimulus": "/static/audio/wordpool/TABLE.wav", "key_press": -1, "type": "PRES_AUD", "word": "table", "wordID": 1425, "conditions": [24, 800, "a", 12000], "trial": 2, "serialpos": 10, "trial_type": "single-audio", "trial_index": 99, "time_elapsed": 540156, "internal_node_id": "0.0-72.0"}}, {"uniqueid": "MTK1131:3VD82FOHKRV9DD8BNZUZHXIO9QBOCJ", "current_trial": 100, "dateTime": 1513195026530, "trialdata": {"rt": -1000, "stimulus": "/static/audio/wordpool/REPORT.wav", "key_press": -1, "type": "PRES_AUD", "word": "report", "wordID": 1183, "conditions": [24, 800, "a", 12000], "trial": 2, "serialpos": 11, "trial_type": "single-audio", "trial_index": 100, "time_elapsed": 541779, "internal_node_id": "0.0-73.0"}}, {"uniqueid": "MTK1131:3VD82FOHKRV9DD8BNZUZHXIO9QBOCJ", "current_trial": 101, "dateTime": 1513195028257, "trialdata": {"rt": -1000, "stimulus": "/static/audio/wordpool/CLAM.wav", "key_press": -1, "type": "PRES_AUD", "word": "clam", "wordID": 314, "conditions": [24, 800, "a", 12000], "trial": 2, "serialpos": 12, "trial_type": "single-audio", "trial_index": 101, "time_elapsed": 543506, "internal_node_id": "0.0-74.0"}}, {"uniqueid": "MTK1131:3VD82FOHKRV9DD8BNZUZHXIO9QBOCJ", "current_trial": 102, "dateTime": 1513195029973, "trialdata": {"rt": -1000, "stimulus": "/static/audio/wordpool/SUPPER.wav", "key_press": -1, "type": "PRES_AUD", "word": "supper", "wordID": 1410, "conditions": [24, 800, "a", 12000], "trial": 2, "serialpos": 13, "trial_type": "single-audio", "trial_index": 102, "time_elapsed": 545222, "internal_node_id": "0.0-75.0"}}, {"uniqueid": "MTK1131:3VD82FOHKRV9DD8BNZUZHXIO9QBOCJ", "current_trial": 103, "dateTime": 1513195031620, "trialdata": {"rt": -1000, "stimulus": "/static/audio/wordpool/BLOUSE.wav", "key_press": -1, "type": "PRES_AUD", "word": "blouse", "wordID": 138, "conditions": [24, 800, "a", 12000], "trial": 2, "serialpos": 14, "trial_type": "single-audio", "trial_index": 103, "time_elapsed": 546869, "internal_node_id": "0.0-76.0"}}, {"uniqueid": "MTK1131:3VD82FOHKRV9DD8BNZUZHXIO9QBOCJ", "current_trial": 104, "dateTime": 1513195033471, "trialdata": {"rt": -1000, "stimulus": "/static/audio/wordpool/DENIM.wav", "key_press": -1, "type": "PRES_AUD", "word": "denim", "wordID": 445, "conditions": [24, 800, "a", 12000], "trial": 2, "serialpos": 15, "trial_type": "single-audio", "trial_index": 104, "time_elapsed": 548720, "internal_node_id": "0.0-77.0"}}, {"uniqueid": "MTK1131:3VD82FOHKRV9DD8BNZUZHXIO9QBOCJ", "current_trial": 105, "dateTime": 1513195035445, "trialdata": {"rt": -1000, "stimulus": "/static/audio/wordpool/LODGE.wav", "key_press": -1, "type": "PRES_AUD", "word": "lodge", "wordID": 838, "conditions": [24, 800, "a", 12000], "trial": 2, "serialpos": 16, "trial_type": "single-audio", "trial_index": 105, "time_elapsed": 550694, "internal_node_id": "0.0-78.0"}}, {"uniqueid": "MTK1131:3VD82FOHKRV9DD8BNZUZHXIO9QBOCJ", "current_trial": 106, "dateTime": 1513195037303, "trialdata": {"rt": -1000, "stimulus": "/static/audio/wordpool/LAPEL.wav", "key_press": -1, "type": "PRES_AUD", "word": "lapel", "wordID": 799, "conditions": [24, 800, "a", 12000], "trial": 2, "serialpos": 17, "trial_type": "single-audio", "trial_index": 106, "time_elapsed": 552552, "internal_node_id": "0.0-79.0"}}, {"uniqueid": "MTK1131:3VD82FOHKRV9DD8BNZUZHXIO9QBOCJ", "current_trial": 107, "dateTime": 1513195039299, "trialdata": {"rt": -1000, "stimulus": "/static/audio/wordpool/SPOOL.wav", "key_press": -1, "type": "PRES_AUD", "word": "spool", "wordID": 1355, "conditions": [24, 800, "a", 12000], "trial": 2, "serialpos": 18, "trial_type": "single-audio", "trial_index": 107, "time_elapsed": 554548, "internal_node_id": "0.0-80.0"}}, {"uniqueid": "MTK1131:3VD82FOHKRV9DD8BNZUZHXIO9QBOCJ", "current_trial": 108, "dateTime": 1513195040901, "trialdata": {"rt": -1000, "stimulus": "/static/audio/wordpool/PROTON.wav", "key_press": -1, "type": "PRES_AUD", "word": "proton", "wordID": 1131, "conditions": [24, 800, "a", 12000], "trial": 2, "serialpos": 19, "trial_type": "single-audio", "trial_index": 108, "time_elapsed": 556150, "internal_node_id": "0.0-81.0"}}, {"uniqueid": "MTK1131:3VD82FOHKRV9DD8BNZUZHXIO9QBOCJ", "current_trial": 109, "dateTime": 1513195042525, "trialdata": {"rt": -1000, "stimulus": "/static/audio/wordpool/PICNIC.wav", "key_press": -1, "type": "PRES_AUD", "word": "picnic", "wordID": 1059, "conditions": [24, 800, "a", 12000], "trial": 2, "serialpos": 20, "trial_type": "single-audio", "trial_index": 109, "time_elapsed": 557773, "internal_node_id": "0.0-82.0"}}, {"uniqueid": "MTK1131:3VD82FOHKRV9DD8BNZUZHXIO9QBOCJ", "current_trial": 110, "dateTime": 1513195044444, "trialdata": {"rt": -1000, "stimulus": "/static/audio/wordpool/CRICKET.wav", "key_press": -1, "type": "PRES_AUD", "word": "cricket", "wordID": 407, "conditions": [24, 800, "a", 12000], "trial": 2, "serialpos": 21, "trial_type": "single-audio", "trial_index": 110, "time_elapsed": 559693, "internal_node_id": "0.0-83.0"}}, {"uniqueid": "MTK1131:3VD82FOHKRV9DD8BNZUZHXIO9QBOCJ", "current_trial": 111, "dateTime": 1513195046241, "trialdata": {"rt": -1000, "stimulus": "/static/audio/wordpool/STALLION.wav", "key_press": -1, "type": "PRES_AUD", "word": "stallion", "wordID": 1368, "conditions": [24, 800, "a", 12000], "trial": 2, "serialpos": 22, "trial_type": "single-audio", "trial_index": 111, "time_elapsed": 561490, "internal_node_id": "0.0-84.0"}}, {"uniqueid": "MTK1131:3VD82FOHKRV9DD8BNZUZHXIO9QBOCJ", "current_trial": 112, "dateTime": 1513195048175, "trialdata": {"rt": -1000, "stimulus": "/static/audio/wordpool/MISSILE.wav", "key_press": -1, "type": "PRES_AUD", "word": "missile", "wordID": 899, "conditions": [24, 800, "a", 12000], "trial": 2, "serialpos": 23, "trial_type": "single-audio", "trial_index": 112, "time_elapsed": 563424, "internal_node_id": "0.0-85.0"}}, {"uniqueid": "MTK1131:3VD82FOHKRV9DD8BNZUZHXIO9QBOCJ", "current_trial": 113, "dateTime": 1513195049557, "trialdata": {"rt": -1, "stimulus": "", "key_press": -1, "type": "PRE_RECALL_DELAY", "trial_type": "single-stim", "trial_index": 113, "time_elapsed": 564806, "internal_node_id": "0.0-86.0-0.0"}}, {"uniqueid": "MTK1131:3VD82FOHKRV9DD8BNZUZHXIO9QBOCJ", "current_trial": 114, "dateTime": 1513195050058, "trialdata": {"rt": -1000, "stimulus": "/static/audio/400Hz.wav", "key_press": -1, "type": "PRE_RECALL_ALERT", "trial_type": "single-audio", "trial_index": 114, "time_elapsed": 565307, "internal_node_id": "0.0-87.0"}}, {"uniqueid": "MTK1131:3VD82FOHKRV9DD8BNZUZHXIO9QBOCJ", "current_trial": 115, "dateTime": 1513195110064, "trialdata": {"rt": [2011, 3010, 3930, 6859, 20115, 27571], "recwords": ["missile", "clam", "supper", "stallion", "lapel", "blouse"], "type": "FREE_RECALL", "conditions": [24, 800, "a", 12000], "trial": 2, "trial_type": "free-recall", "trial_index": 115, "time_elapsed": 625311, "internal_node_id": "0.0-88.0-0.0"}}, {"uniqueid": "MTK1131:3VD82FOHKRV9DD8BNZUZHXIO9QBOCJ", "current_trial": 116, "dateTime": 1513195113550, "trialdata": {"rt": 1485, "key_press": 32, "type": "INSTRUCTIONS", "trial_type": "text", "trial_index": 116, "time_elapsed": 628799, "internal_node_id": "0.0-89.0"}}, {"uniqueid": "MTK1131:3VD82FOHKRV9DD8BNZUZHXIO9QBOCJ", "current_trial": 117, "dateTime": 1513195139553, "trialdata": {"rt": [1406, 5463, 6991, 13087, 14391, 16487, 18967, 20879, 22759], "responses": ["11", "16", "14", "25", "9", "15", "16", "20", "13"], "num1": [5, 7, 3, 7, 1, 4, 5, 6, 1, 7], "num2": [1, 8, 5, 9, 4, 5, 8, 5, 5, 9], "num3": [5, 1, 6, 8, 4, 6, 3, 9, 7, 6], "type": "DISTRACTOR", "conditions": [24, 1600, "a", 24000], "trial": 3, "trial_type": "math-distractor", "trial_index": 117, "time_elapsed": 654802, "internal_node_id": "0.0-90.0"}}, {"uniqueid": "MTK1131:3VD82FOHKRV9DD8BNZUZHXIO9QBOCJ", "current_trial": 118, "dateTime": 1513195142555, "trialdata": {"rt": -1, "stimulus": "<p id=\"stim\">10</p>", "key_press": -1, "trial_type": "single-stim", "trial_index": 118, "time_elapsed": 657804, "internal_node_id": "0.0-91.0-0.0"}}, {"uniqueid": "MTK1131:3VD82FOHKRV9DD8BNZUZHXIO9QBOCJ", "current_trial": 119, "dateTime": 1513195143556, "trialdata": {"rt": -1, "stimulus": "<p id=\"stim\">9</p>", "key_press": -1, "trial_type": "single-stim", "trial_index": 119, "time_elapsed": 658805, "internal_node_id": "0.0-91.0-1.0"}}, {"uniqueid": "MTK1131:3VD82FOHKRV9DD8BNZUZHXIO9QBOCJ", "current_trial": 120, "dateTime": 1513195144557, "trialdata": {"rt": -1, "stimulus": "<p id=\"stim\">8</p>", "key_press": -1, "trial_type": "single-stim", "trial_index": 120, "time_elapsed": 659806, "internal_node_id": "0.0-91.0-2.0"}}, {"uniqueid": "MTK1131:3VD82FOHKRV9DD8BNZUZHXIO9QBOCJ", "current_trial": 121, "dateTime": 1513195145558, "trialdata": {"rt": -1, "stimulus": "<p id=\"stim\">7</p>", "key_press": -1, "trial_type": "single-stim", "trial_index": 121, "time_elapsed": 660807, "internal_node_id": "0.0-91.0-3.0"}}, {"uniqueid": "MTK1131:3VD82FOHKRV9DD8BNZUZHXIO9QBOCJ", "current_trial": 122, "dateTime": 1513195146559, "trialdata": {"rt": -1, "stimulus": "<p id=\"stim\">6</p>", "key_press": -1, "trial_type": "single-stim", "trial_index": 122, "time_elapsed": 661808, "internal_node_id": "0.0-91.0-4.0"}}, {"uniqueid": "MTK1131:3VD82FOHKRV9DD8BNZUZHXIO9QBOCJ", "current_trial": 123, "dateTime": 1513195147560, "trialdata": {"rt": -1, "stimulus": "<p id=\"stim\">5</p>", "key_press": -1, "trial_type": "single-stim", "trial_index": 123, "time_elapsed": 662809, "internal_node_id": "0.0-91.0-5.0"}}, {"uniqueid": "MTK1131:3VD82FOHKRV9DD8BNZUZHXIO9QBOCJ", "current_trial": 124, "dateTime": 1513195148561, "trialdata": {"rt": -1, "stimulus": "<p id=\"stim\">4</p>", "key_press": -1, "trial_type": "single-stim", "trial_index": 124, "time_elapsed": 663810, "internal_node_id": "0.0-91.0-6.0"}}, {"uniqueid": "MTK1131:3VD82FOHKRV9DD8BNZUZHXIO9QBOCJ", "current_trial": 125, "dateTime": 1513195149562, "trialdata": {"rt": -1, "stimulus": "<p id=\"stim\">3</p>", "key_press": -1, "trial_type": "single-stim", "trial_index": 125, "time_elapsed": 664811, "internal_node_id": "0.0-91.0-7.0"}}, {"uniqueid": "MTK1131:3VD82FOHKRV9DD8BNZUZHXIO9QBOCJ", "current_trial": 126, "dateTime": 1513195150563, "trialdata": {"rt": -1, "stimulus": "<p id=\"stim\">2</p>", "key_press": -1, "trial_type": "single-stim", "trial_index": 126, "time_elapsed": 665812, "internal_node_id": "0.0-91.0-8.0"}}, {"uniqueid": "MTK1131:3VD82FOHKRV9DD8BNZUZHXIO9QBOCJ", "current_trial": 127, "dateTime": 1513195151564, "trialdata": {"rt": -1, "stimulus": "<p id=\"stim\">1</p>", "key_press": -1, "trial_type": "single-stim", "trial_index": 127, "time_elapsed": 666813, "internal_node_id": "0.0-91.0-9.0"}}, {"uniqueid": "MTK1131:3VD82FOHKRV9DD8BNZUZHXIO9QBOCJ", "current_trial": 128, "dateTime": 1513195153065, "trialdata": {"rt": -1, "stimulus": "<p id=\"stim\">+</p>", "key_press": -1, "type": "FIXATION", "trial_type": "single-stim", "trial_index": 128, "time_elapsed": 668314, "internal_node_id": "0.0-92.0-0.0"}}, {"uniqueid": "MTK1131:3VD82FOHKRV9DD8BNZUZHXIO9QBOCJ", "current_trial": 129, "dateTime": 1513195155857, "trialdata": {"rt": -1000, "stimulus": "/static/audio/wordpool/SEAGULL.wav", "key_press": -1, "type": "PRES_AUD", "word": "seagull", "wordID": 1260, "conditions": [24, 1600, "a", 24000], "trial": 3, "serialpos": 0, "trial_type": "single-audio", "trial_index": 129, "time_elapsed": 671106, "internal_node_id": "0.0-93.0"}}, {"uniqueid": "MTK1131:3VD82FOHKRV9DD8BNZUZHXIO9QBOCJ", "current_trial": 130, "dateTime": 1513195158296, "trialdata": {"rt": -1000, "stimulus": "/static/audio/wordpool/WORLD.wav", "key_press": -1, "type": "PRES_AUD", "word": "world", "wordID": 1621, "conditions": [24, 1600, "a", 24000], "trial": 3, "serialpos": 1, "trial_type": "single-audio", "trial_index": 130, "time_elapsed": 673545, "internal_node_id": "0.0-94.0"}}, {"uniqueid": "MTK1131:3VD82FOHKRV9DD8BNZUZHXIO9QBOCJ", "current_trial": 131, "dateTime": 1513195160850, "trialdata": {"rt": -1000, "stimulus": "/static/audio/wordpool/ORCHID.wav", "key_press": -1, "type": "PRES_AUD", "word": "orchid", "wordID": 981, "conditions": [24, 1600, "a", 24000], "trial": 3, "serialpos": 2, "trial_type": "single-audio", "trial_index": 131, "time_elapsed": 676099, "internal_node_id": "0.0-95.0"}}, {"uniqueid": "MTK1131:3VD82FOHKRV9DD8BNZUZHXIO9QBOCJ", "current_trial": 132, "dateTime": 1513195163478, "trialdata": {"rt": -1000, "stimulus": "/static/audio/wordpool/CABBAGE.wav", "key_press": -1, "type": "PRES_AUD", "word": "cabbage", "wordID": 209, "conditions": [24, 1600, "a", 24000], "trial": 3, "serialpos": 3, "trial_type": "single-audio", "trial_index": 132, "time_elapsed": 678727, "internal_node_id": "0.0-96.0"}}, {"uniqueid": "MTK1131:3VD82FOHKRV9DD8BNZUZHXIO9QBOCJ", "current_trial": 133, "dateTime": 1513195166116, "trialdata": {"rt": -1000, "stimulus": "/static/audio/wordpool/SPARROW.wav", "key_press": -1, "type": "PRES_AUD", "word": "sparrow", "wordID": 1346, "conditions": [24, 1600, "a", 24000], "trial": 3, "serialpos": 4, "trial_type": "single-audio", "trial_index": 133, "time_elapsed": 681364, "internal_node_id": "0.0-97.0"}}, {"uniqueid": "MTK1131:3VD82FOHKRV9DD8BNZUZHXIO9QBOCJ", "current_trial": 134, "dateTime": 1513195168815, "trialdata": {"rt": -1000, "stimulus": "/static/audio/wordpool/COUNTRY.wav", "key_press": -1, "type": "PRES_AUD", "word": "country", "wordID": 387, "conditions": [24, 1600, "a", 24000], "trial": 3, "serialpos": 5, "trial_type": "single-audio", "trial_index": 134, "time_elapsed": 684064, "internal_node_id": "0.0-98.0"}}, {"uniqueid": "MTK1131:3VD82FOHKRV9DD8BNZUZHXIO9QBOCJ", "current_trial": 135, "dateTime": 1513195171256, "trialdata": {"rt": -1000, "stimulus": "/static/audio/wordpool/ZEBRA.wav", "key_press": -1, "type": "PRES_AUD", "word": "zebra", "wordID": 1634, "conditions": [24, 1600, "a", 24000], "trial": 3, "serialpos": 6, "trial_type": "single-audio", "trial_index": 135, "time_elapsed": 686505, "internal_node_id": "0.0-99.0"}}, {"uniqueid": "MTK1131:3VD82FOHKRV9DD8BNZUZHXIO9QBOCJ", "current_trial": 136, "dateTime": 1513195173782, "trialdata": {"rt": -1000, "stimulus": "/static/audio/wordpool/LUMBER.wav", "key_press": -1, "type": "PRES_AUD", "word": "lumber", "wordID": 847, "conditions": [24, 1600, "a", 24000], "trial": 3, "serialpos": 7, "trial_type": "single-audio", "trial_index": 136, "time_elapsed": 689031, "internal_node_id": "0.0-100.0"}}, {"uniqueid": "MTK1131:3VD82FOHKRV9DD8BNZUZHXIO9QBOCJ", "current_trial": 137, "dateTime": 1513195176305, "trialdata": {"rt": -1000, "stimulus": "/static/audio/wordpool/FRAME.wav", "key_press": -1, "type": "PRES_AUD", "word": "frame", "wordID": 599, "conditions": [24, 1600, "a", 24000], "trial": 3, "serialpos": 8, "trial_type": "single-audio", "trial_index": 137, "time_elapsed": 691554, "internal_node_id": "0.0-101.0"}}, {"uniqueid": "MTK1131:3VD82FOHKRV9DD8BNZUZHXIO9QBOCJ", "current_trial": 138, "dateTime": 1513195178947, "trialdata": {"rt": -1000, "stimulus": "/static/audio/wordpool/BLOCKADE.wav", "key_press": -1, "type": "PRES_AUD", "word": "blockade", "wordID": 136, "conditions": [24, 1600, "a", 24000], "trial": 3, "serialpos": 9, "trial_type": "single-audio", "trial_index": 138, "time_elapsed": 694196, "internal_node_id": "0.0-102.0"}}, {"uniqueid": "MTK1131:3VD82FOHKRV9DD8BNZUZHXIO9QBOCJ", "current_trial": 139, "dateTime": 1513195181570, "trialdata": {"rt": -1000, "stimulus": "/static/audio/wordpool/SKILLET.wav", "key_press": -1, "type": "PRES_AUD", "word": "skillet", "wordID": 1316, "conditions": [24, 1600, "a", 24000], "trial": 3, "serialpos": 10, "trial_type": "single-audio", "trial_index": 139, "time_elapsed": 696819, "internal_node_id": "0.0-103.0"}}, {"uniqueid": "MTK1131:3VD82FOHKRV9DD8BNZUZHXIO9QBOCJ", "current_trial": 140, "dateTime": 1513195184020, "trialdata": {"rt": -1000, "stimulus": "/static/audio/wordpool/SPOON.wav", "key_press": -1, "type": "PRES_AUD", "word": "spoon", "wordID": 1356, "conditions": [24, 1600, "a", 24000], "trial": 3, "serialpos": 11, "trial_type": "single-audio", "trial_index": 140, "time_elapsed": 699269, "internal_node_id": "0.0-104.0"}}, {"uniqueid": "MTK1131:3VD82FOHKRV9DD8BNZUZHXIO9QBOCJ", "current_trial": 141, "dateTime": 1513195186580, "trialdata": {"rt": -1000, "stimulus": "/static/audio/wordpool/AGENT.wav", "key_press": -1, "type": "PRES_AUD", "word": "agent", "wordID": 9, "conditions": [24, 1600, "a", 24000], "trial": 3, "serialpos": 12, "trial_type": "single-audio", "trial_index": 141, "time_elapsed": 701829, "internal_node_id": "0.0-105.0"}}, {"uniqueid": "MTK1131:3VD82FOHKRV9DD8BNZUZHXIO9QBOCJ", "current_trial": 142, "dateTime": 1513195189172, "trialdata": {"rt": -1000, "stimulus": "/static/audio/wordpool/FLEET.wav", "key_press": -1, "type": "PRES_AUD", "word": "fleet", "wordID": 577, "conditions": [24, 1600, "a", 24000], "trial": 3, "serialpos": 13, "trial_type": "single-audio", "trial_index": 142, "time_elapsed": 704420, "internal_node_id": "0.0-106.0"}}, {"uniqueid": "MTK1131:3VD82FOHKRV9DD8BNZUZHXIO9QBOCJ", "current_trial": 143, "dateTime": 1513195191632, "trialdata": {"rt": -1000, "stimulus": "/static/audio/wordpool/HAND.wav", "key_press": -1, "type": "PRES_AUD", "word": "hand", "wordID": 682, "conditions": [24, 1600, "a", 24000], "trial": 3, "serialpos": 14, "trial_type": "single-audio", "trial_index": 143, "time_elapsed": 706880, "internal_node_id": "0.0-107.0"}}, {"uniqueid": "MTK1131:3VD82FOHKRV9DD8BNZUZHXIO9QBOCJ", "current_trial": 144, "dateTime": 1513195194267, "trialdata": {"rt": -1000, "stimulus": "/static/audio/wordpool/PIGMENT.wav", "key_press": -1, "type": "PRES_AUD", "word": "pigment", "wordID": 1065, "conditions": [24, 1600, "a", 24000], "trial": 3, "serialpos": 15, "trial_type": "single-audio", "trial_index": 144, "time_elapsed": 709516, "internal_node_id": "0.0-108.0"}}, {"uniqueid": "MTK1131:3VD82FOHKRV9DD8BNZUZHXIO9QBOCJ", "current_trial": 145, "dateTime": 1513195196700, "trialdata": {"rt": -1000, "stimulus": "/static/audio/wordpool/AIRPORT.wav", "key_press": -1, "type": "PRES_AUD", "word": "airport", "wordID": 12, "conditions": [24, 1600, "a", 24000], "trial": 3, "serialpos": 16, "trial_type": "single-audio", "trial_index": 145, "time_elapsed": 711949, "internal_node_id": "0.0-109.0"}}, {"uniqueid": "MTK1131:3VD82FOHKRV9DD8BNZUZHXIO9QBOCJ", "current_trial": 146, "dateTime": 1513195199475, "trialdata": {"rt": -1000, "stimulus": "/static/audio/wordpool/SUNRISE.wav", "key_press": -1, "type": "PRES_AUD", "word": "sunrise", "wordID": 1406, "conditions": [24, 1600, "a", 24000], "trial": 3, "serialpos": 17, "trial_type": "single-audio", "trial_index": 146, "time_elapsed": 714724, "internal_node_id": "0.0-110.0"}}, {"uniqueid": "MTK1131:3VD82FOHKRV9DD8BNZUZHXIO9QBOCJ", "current_trial": 147, "dateTime": 1513195202210, "trialdata": {"rt": -1000, "stimulus": "/static/audio/wordpool/SNAKE.wav", "key_press": -1, "type": "PRES_AUD", "word": "snake", "wordID": 1332, "conditions": [24, 1600, "a", 24000], "trial": 3, "serialpos": 18, "trial_type": "single-audio", "trial_index": 147, "time_elapsed": 717459, "internal_node_id": "0.0-111.0"}}, {"uniqueid": "MTK1131:3VD82FOHKRV9DD8BNZUZHXIO9QBOCJ", "current_trial": 148, "dateTime": 1513195204714, "trialdata": {"rt": -1000, "stimulus": "/static/audio/wordpool/TORTOISE.wav", "key_press": -1, "type": "PRES_AUD", "word": "tortoise", "wordID": 1485, "conditions": [24, 1600, "a", 24000], "trial": 3, "serialpos": 19, "trial_type": "single-audio", "trial_index": 148, "time_elapsed": 719963, "internal_node_id": "0.0-112.0"}}, {"uniqueid": "MTK1131:3VD82FOHKRV9DD8BNZUZHXIO9QBOCJ", "current_trial": 149, "dateTime": 1513195207227, "trialdata": {"rt": -1000, "stimulus": "/static/audio/wordpool/SALT.wav", "key_press": -1, "type": "PRES_AUD", "word": "salt", "wordID": 1228, "conditions": [24, 1600, "a", 24000], "trial": 3, "serialpos": 20, "trial_type": "single-audio", "trial_index": 149, "time_elapsed": 722476, "internal_node_id": "0.0-113.0"}}, {"uniqueid": "MTK1131:3VD82FOHKRV9DD8BNZUZHXIO9QBOCJ", "current_trial": 150, "dateTime": 1513195209991, "trialdata": {"rt": -1000, "stimulus": "/static/audio/wordpool/SUNSET.wav", "key_press": -1, "type": "PRES_AUD", "word": "sunset", "wordID": 1407, "conditions": [24, 1600, "a", 24000], "trial": 3, "serialpos": 21, "trial_type": "single-audio", "trial_index": 150, "time_elapsed": 725240, "internal_node_id": "0.0-114.0"}}, {"uniqueid": "MTK1131:3VD82FOHKRV9DD8BNZUZHXIO9QBOCJ", "current_trial": 151, "dateTime": 1513195212452, "trialdata": {"rt": -1000, "stimulus": "/static/audio/wordpool/TROUT.wav", "key_press": -1, "type": "PRES_AUD", "word": "trout", "wordID": 1510, "conditions": [24, 1600, "a", 24000], "trial": 3, "serialpos": 22, "trial_type": "single-audio", "trial_index": 151, "time_elapsed": 727701, "internal_node_id": "0.0-115.0"}}, {"uniqueid": "MTK1131:3VD82FOHKRV9DD8BNZUZHXIO9QBOCJ", "current_trial": 152, "dateTime": 1513195214943, "trialdata": {"rt": -1000, "stimulus": "/static/audio/wordpool/LETTUCE.wav", "key_press": -1, "type": "PRES_AUD", "word": "lettuce", "wordID": 813, "conditions": [24, 1600, "a", 24000], "trial": 3, "serialpos": 23, "trial_type": "single-audio", "trial_index": 152, "time_elapsed": 730191, "internal_node_id": "0.0-116.0"}}, {"uniqueid": "MTK1131:3VD82FOHKRV9DD8BNZUZHXIO9QBOCJ", "current_trial": 153, "dateTime": 1513195216248, "trialdata": {"rt": -1, "stimulus": "", "key_press": -1, "type": "PRE_RECALL_DELAY", "trial_type": "single-stim", "trial_index": 153, "time_elapsed": 731496, "internal_node_id": "0.0-117.0-0.0"}}, {"uniqueid": "MTK1131:3VD82FOHKRV9DD8BNZUZHXIO9QBOCJ", "current_trial": 154, "dateTime": 1513195216750, "trialdata": {"rt": -1000, "stimulus": "/static/audio/400Hz.wav", "key_press": -1, "type": "PRE_RECALL_ALERT", "trial_type": "single-audio", "trial_index": 154, "time_elapsed": 731998, "internal_node_id": "0.0-118.0"}}, {"uniqueid": "MTK1131:3VD82FOHKRV9DD8BNZUZHXIO9QBOCJ", "current_trial": 155, "dateTime": 1513195276755, "trialdata": {"rt": [1167, 2943, 18502], "recwords": ["lettuce", "trout", "missile"], "type": "FREE_RECALL", "conditions": [24, 1600, "a", 24000], "trial": 3, "trial_type": "free-recall", "trial_index": 155, "time_elapsed": 792002, "internal_node_id": "0.0-119.0-0.0"}}, {"uniqueid": "MTK1131:3VD82FOHKRV9DD8BNZUZHXIO9QBOCJ", "current_trial": 156, "dateTime": 1513195279893, "trialdata": {"rt": 1136, "key_press": 32, "type": "INSTRUCTIONS", "trial_type": "text", "trial_index": 156, "time_elapsed": 795141, "internal_node_id": "0.0-120.0"}}, {"uniqueid": "MTK1131:3VD82FOHKRV9DD8BNZUZHXIO9QBOCJ", "current_trial": 157, "dateTime": 1513195305897, "trialdata": {"rt": [2102, 3382, 4678, 6422, 8734, 10134, 11990, 13414, 14862, 17239, 19567, 21359, 22927], "responses": ["18", "13", "17", "14", "14", "7", "22", "10", "10", "11", "12", "14", "15"], "num1": [3, 5, 7, 4, 3, 1, 9, 3, 3, 9, 2, 5, 5, 3], "num2": [9, 5, 5, 9, 2, 4, 6, 6, 6, 1, 2, 1, 8, 5], "num3": [6, 3, 5, 1, 9, 2, 7, 1, 1, 1, 8, 8, 2, 4], "type": "DISTRACTOR", "conditions": [24, 800, "a", 24000], "trial": 4, "trial_type": "math-distractor", "trial_index": 157, "time_elapsed": 821146, "internal_node_id": "0.0-121.0"}}, {"uniqueid": "MTK1131:3VD82FOHKRV9DD8BNZUZHXIO9QBOCJ", "current_trial": 158, "dateTime": 1513195308899, "trialdata": {"rt": -1, "stimulus": "<p id=\"stim\">10</p>", "key_press": -1, "trial_type": "single-stim", "trial_index": 158, "time_elapsed": 824148, "internal_node_id": "0.0-122.0-0.0"}}, {"uniqueid": "MTK1131:3VD82FOHKRV9DD8BNZUZHXIO9QBOCJ", "current_trial": 159, "dateTime": 1513195309900, "trialdata": {"rt": -1, "stimulus": "<p id=\"stim\">9</p>", "key_press": -1, "trial_type": "single-stim", "trial_index": 159, "time_elapsed": 825148, "internal_node_id": "0.0-122.0-1.0"}}, {"uniqueid": "MTK1131:3VD82FOHKRV9DD8BNZUZHXIO9QBOCJ", "current_trial": 160, "dateTime": 1513195310901, "trialdata": {"rt": -1, "stimulus": "<p id=\"stim\">8</p>", "key_press": -1, "trial_type": "single-stim", "trial_index": 160, "time_elapsed": 826150, "internal_node_id": "0.0-122.0-2.0"}}, {"uniqueid": "MTK1131:3VD82FOHKRV9DD8BNZUZHXIO9QBOCJ", "current_trial": 161, "dateTime": 1513195311902, "trialdata": {"rt": -1, "stimulus": "<p id=\"stim\">7</p>", "key_press": -1, "trial_type": "single-stim", "trial_index": 161, "time_elapsed": 827151, "internal_node_id": "0.0-122.0-3.0"}}, {"uniqueid": "MTK1131:3VD82FOHKRV9DD8BNZUZHXIO9QBOCJ", "current_trial": 162, "dateTime": 1513195312903, "trialdata": {"rt": -1, "stimulus": "<p id=\"stim\">6</p>", "key_press": -1, "trial_type": "single-stim", "trial_index": 162, "time_elapsed": 828152, "internal_node_id": "0.0-122.0-4.0"}}, {"uniqueid": "MTK1131:3VD82FOHKRV9DD8BNZUZHXIO9QBOCJ", "current_trial": 163, "dateTime": 1513195313904, "trialdata": {"rt": -1, "stimulus": "<p id=\"stim\">5</p>", "key_press": -1, "trial_type": "single-stim", "trial_index": 163, "time_elapsed": 829153, "internal_node_id": "0.0-122.0-5.0"}}, {"uniqueid": "MTK1131:3VD82FOHKRV9DD8BNZUZHXIO9QBOCJ", "current_trial": 164, "dateTime": 1513195314905, "trialdata": {"rt": -1, "stimulus": "<p id=\"stim\">4</p>", "key_press": -1, "trial_type": "single-stim", "trial_index": 164, "time_elapsed": 830154, "internal_node_id": "0.0-122.0-6.0"}}, {"uniqueid": "MTK1131:3VD82FOHKRV9DD8BNZUZHXIO9QBOCJ", "current_trial": 165, "dateTime": 1513195315906, "trialdata": {"rt": -1, "stimulus": "<p id=\"stim\">3</p>", "key_press": -1, "trial_type": "single-stim", "trial_index": 165, "time_elapsed": 831155, "internal_node_id": "0.0-122.0-7.0"}}, {"uniqueid": "MTK1131:3VD82FOHKRV9DD8BNZUZHXIO9QBOCJ", "current_trial": 166, "dateTime": 1513195316907, "trialdata": {"rt": -1, "stimulus": "<p id=\"stim\">2</p>", "key_press": -1, "trial_type": "single-stim", "trial_index": 166, "time_elapsed": 832156, "internal_node_id": "0.0-122.0-8.0"}}, {"uniqueid": "MTK1131:3VD82FOHKRV9DD8BNZUZHXIO9QBOCJ", "current_trial": 167, "dateTime": 1513195317908, "trialdata": {"rt": -1, "stimulus": "<p id=\"stim\">1</p>", "key_press": -1, "trial_type": "single-stim", "trial_index": 167, "time_elapsed": 833157, "internal_node_id": "0.0-122.0-9.0"}}, {"uniqueid": "MTK1131:3VD82FOHKRV9DD8BNZUZHXIO9QBOCJ", "current_trial": 168, "dateTime": 1513195319409, "trialdata": {"rt": -1, "stimulus": "<p id=\"stim\">+</p>", "key_press": -1, "type": "FIXATION", "trial_type": "single-stim", "trial_index": 168, "time_elapsed": 834658, "internal_node_id": "0.0-123.0-0.0"}}, {"uniqueid": "MTK1131:3VD82FOHKRV9DD8BNZUZHXIO9QBOCJ", "current_trial": 169, "dateTime": 1513195321217, "trialdata": {"rt": -1000, "stimulus": "/static/audio/wordpool/HATCHET.wav", "key_press": -1, "type": "PRES_AUD", "word": "hatchet", "wordID": 690, "conditions": [24, 800, "a", 24000], "trial": 4, "serialpos": 0, "trial_type": "single-audio", "trial_index": 169, "time_elapsed": 836466, "internal_node_id": "0.0-124.0"}}, {"uniqueid": "MTK1131:3VD82FOHKRV9DD8BNZUZHXIO9QBOCJ", "current_trial": 170, "dateTime": 1513195323160, "trialdata": {"rt": -1000, "stimulus": "/static/audio/wordpool/ROBBER.wav", "key_press": -1, "type": "PRES_AUD", "word": "robber", "wordID": 1196, "conditions": [24, 800, "a", 24000], "trial": 4, "serialpos": 1, "trial_type": "single-audio", "trial_index": 170, "time_elapsed": 838409, "internal_node_id": "0.0-125.0"}}, {"uniqueid": "MTK1131:3VD82FOHKRV9DD8BNZUZHXIO9QBOCJ", "current_trial": 171, "dateTime": 1513195324846, "trialdata": {"rt": -1000, "stimulus": "/static/audio/wordpool/WAITRESS.wav", "key_press": -1, "type": "PRES_AUD", "word": "waitress", "wordID": 1580, "conditions": [24, 800, "a", 24000], "trial": 4, "serialpos": 2, "trial_type": "single-audio", "trial_index": 171, "time_elapsed": 840095, "internal_node_id": "0.0-126.0"}}, {"uniqueid": "MTK1131:3VD82FOHKRV9DD8BNZUZHXIO9QBOCJ", "current_trial": 172, "dateTime": 1513195326533, "trialdata": {"rt": -1000, "stimulus": "/static/audio/wordpool/SPHINX.wav", "key_press": -1, "type": "PRES_AUD", "word": "sphinx", "wordID": 1348, "conditions": [24, 800, "a", 24000], "trial": 4, "serialpos": 3, "trial_type": "single-audio", "trial_index": 172, "time_elapsed": 841782, "internal_node_id": "0.0-127.0"}}, {"uniqueid": "MTK1131:3VD82FOHKRV9DD8BNZUZHXIO9QBOCJ", "current_trial": 173, "dateTime": 1513195328300, "trialdata": {"rt": -1000, "stimulus": "/static/audio/wordpool/ROBIN.wav", "key_press": -1, "type": "PRES_AUD", "word": "robin", "wordID": 1198, "conditions": [24, 800, "a", 24000], "trial": 4, "serialpos": 4, "trial_type": "single-audio", "trial_index": 173, "time_elapsed": 843549, "internal_node_id": "0.0-128.0"}}, {"uniqueid": "MTK1131:3VD82FOHKRV9DD8BNZUZHXIO9QBOCJ", "current_trial": 174, "dateTime": 1513195329979, "trialdata": {"rt": -1000, "stimulus": "/static/audio/wordpool/HOSTESS.wav", "key_press": -1, "type": "PRES_AUD", "word": "hostess", "wordID": 722, "conditions": [24, 800, "a", 24000], "trial": 4, "serialpos": 5, "trial_type": "single-audio", "trial_index": 174, "time_elapsed": 845228, "internal_node_id": "0.0-129.0"}}, {"uniqueid": "MTK1131:3VD82FOHKRV9DD8BNZUZHXIO9QBOCJ", "current_trial": 175, "dateTime": 1513195331601, "trialdata": {"rt": -1000, "stimulus": "/static/audio/wordpool/EYELASH.wav", "key_press": -1, "type": "PRES_AUD", "word": "eyelash", "wordID": 545, "conditions": [24, 800, "a", 24000], "trial": 4, "serialpos": 6, "trial_type": "single-audio", "trial_index": 175, "time_elapsed": 846850, "internal_node_id": "0.0-130.0"}}, {"uniqueid": "MTK1131:3VD82FOHKRV9DD8BNZUZHXIO9QBOCJ", "current_trial": 176, "dateTime": 1513195333262, "trialdata": {"rt": -1000, "stimulus": "/static/audio/wordpool/SWIMMER.wav", "key_press": -1, "type": "PRES_AUD", "word": "swimmer", "wordID": 1419, "conditions": [24, 800, "a", 24000], "trial": 4, "serialpos": 7, "trial_type": "single-audio", "trial_index": 176, "time_elapsed": 848511, "internal_node_id": "0.0-131.0"}}, {"uniqueid": "MTK1131:3VD82FOHKRV9DD8BNZUZHXIO9QBOCJ", "current_trial": 177, "dateTime": 1513195335186, "trialdata": {"rt": -1000, "stimulus": "/static/audio/wordpool/BANQUET.wav", "key_press": -1, "type": "PRES_AUD", "word": "banquet", "wordID": 85, "conditions": [24, 800, "a", 24000], "trial": 4, "serialpos": 8, "trial_type": "single-audio", "trial_index": 177, "time_elapsed": 850435, "internal_node_id": "0.0-132.0"}}, {"uniqueid": "MTK1131:3VD82FOHKRV9DD8BNZUZHXIO9QBOCJ", "current_trial": 178, "dateTime": 1513195337038, "trialdata": {"rt": -1000, "stimulus": "/static/audio/wordpool/ELBOW.wav", "key_press": -1, "type": "PRES_AUD", "word": "elbow", "wordID": 519, "conditions": [24, 800, "a", 24000], "trial": 4, "serialpos": 9, "trial_type": "single-audio", "trial_index": 178, "time_elapsed": 852286, "internal_node_id": "0.0-133.0"}}, {"uniqueid": "MTK1131:3VD82FOHKRV9DD8BNZUZHXIO9QBOCJ", "current_trial": 179, "dateTime": 1513195338842, "trialdata": {"rt": -1000, "stimulus": "/static/audio/wordpool/LEG.wav", "key_press": -1, "type": "PRES_AUD", "word": "leg", "wordID": 808, "conditions": [24, 800, "a", 24000], "trial": 4, "serialpos": 10, "trial_type": "single-audio", "trial_index": 179, "time_elapsed": 854090, "internal_node_id": "0.0-134.0"}}, {"uniqueid": "MTK1131:3VD82FOHKRV9DD8BNZUZHXIO9QBOCJ", "current_trial": 180, "dateTime": 1513195340516, "trialdata": {"rt": -1000, "stimulus": "/static/audio/wordpool/PARROT.wav", "key_press": -1, "type": "PRES_AUD", "word": "parrot", "wordID": 1014, "conditions": [24, 800, "a", 24000], "trial": 4, "serialpos": 11, "trial_type": "single-audio", "trial_index": 180, "time_elapsed": 855765, "internal_node_id": "0.0-135.0"}}, {"uniqueid": "MTK1131:3VD82FOHKRV9DD8BNZUZHXIO9QBOCJ", "current_trial": 181, "dateTime": 1513195342281, "trialdata": {"rt": -1000, "stimulus": "/static/audio/wordpool/GRAPE.wav", "key_press": -1, "type": "PRES_AUD", "word": "grape", "wordID": 653, "conditions": [24, 800, "a", 24000], "trial": 4, "serialpos": 12, "trial_type": "single-audio", "trial_index": 181, "time_elapsed": 857530, "internal_node_id": "0.0-136.0"}}, {"uniqueid": "MTK1131:3VD82FOHKRV9DD8BNZUZHXIO9QBOCJ", "current_trial": 182, "dateTime": 1513195344003, "trialdata": {"rt": -1000, "stimulus": "/static/audio/wordpool/GAVEL.wav", "key_press": -1, "type": "PRES_AUD", "word": "gavel", "wordID": 626, "conditions": [24, 800, "a", 24000], "trial": 4, "serialpos": 13, "trial_type": "single-audio", "trial_index": 182, "time_elapsed": 859252, "internal_node_id": "0.0-137.0"}}, {"uniqueid": "MTK1131:3VD82FOHKRV9DD8BNZUZHXIO9QBOCJ", "current_trial": 183, "dateTime": 1513195345722, "trialdata": {"rt": -1000, "stimulus": "/static/audio/wordpool/WITNESS.wav", "key_press": -1, "type": "PRES_AUD", "word": "witness", "wordID": 1617, "conditions": [24, 800, "a", 24000], "trial": 4, "serialpos": 14, "trial_type": "single-audio", "trial_index": 183, "time_elapsed": 860971, "internal_node_id": "0.0-138.0"}}, {"uniqueid": "MTK1131:3VD82FOHKRV9DD8BNZUZHXIO9QBOCJ", "current_trial": 184, "dateTime": 1513195347550, "trialdata": {"rt": -1000, "stimulus": "/static/audio/wordpool/PATIENT.wav", "key_press": -1, "type": "PRES_AUD", "word": "patient", "wordID": 1023, "conditions": [24, 800, "a", 24000], "trial": 4, "serialpos": 15, "trial_type": "single-audio", "trial_index": 184, "time_elapsed": 862799, "internal_node_id": "0.0-139.0"}}, {"uniqueid": "MTK1131:3VD82FOHKRV9DD8BNZUZHXIO9QBOCJ", "current_trial": 185, "dateTime": 1513195349351, "trialdata": {"rt": -1000, "stimulus": "/static/audio/wordpool/COCKTAIL.wav", "key_press": -1, "type": "PRES_AUD", "word": "cocktail", "wordID": 337, "conditions": [24, 800, "a", 24000], "trial": 4, "serialpos": 16, "trial_type": "single-audio", "trial_index": 185, "time_elapsed": 864600, "internal_node_id": "0.0-140.0"}}, {"uniqueid": "MTK1131:3VD82FOHKRV9DD8BNZUZHXIO9QBOCJ", "current_trial": 186, "dateTime": 1513195351163, "trialdata": {"rt": -1000, "stimulus": "/static/audio/wordpool/HONEY.wav", "key_press": -1, "type": "PRES_AUD", "word": "honey", "wordID": 712, "conditions": [24, 800, "a", 24000], "trial": 4, "serialpos": 17, "trial_type": "single-audio", "trial_index": 186, "time_elapsed": 866412, "internal_node_id": "0.0-141.0"}}, {"uniqueid": "MTK1131:3VD82FOHKRV9DD8BNZUZHXIO9QBOCJ", "current_trial": 187, "dateTime": 1513195352906, "trialdata": {"rt": -1000, "stimulus": "/static/audio/wordpool/SCOTCH.wav", "key_press": -1, "type": "PRES_AUD", "word": "scotch", "wordID": 1250, "conditions": [24, 800, "a", 24000], "trial": 4, "serialpos": 18, "trial_type": "single-audio", "trial_index": 187, "time_elapsed": 868155, "internal_node_id": "0.0-142.0"}}, {"uniqueid": "MTK1131:3VD82FOHKRV9DD8BNZUZHXIO9QBOCJ", "current_trial": 188, "dateTime": 1513195354785, "trialdata": {"rt": -1000, "stimulus": "/static/audio/wordpool/BRANDY.wav", "key_press": -1, "type": "PRES_AUD", "word": "brandy", "wordID": 168, "conditions": [24, 800, "a", 24000], "trial": 4, "serialpos": 19, "trial_type": "single-audio", "trial_index": 188, "time_elapsed": 870034, "internal_node_id": "0.0-143.0"}}, {"uniqueid": "MTK1131:3VD82FOHKRV9DD8BNZUZHXIO9QBOCJ", "current_trial": 189, "dateTime": 1513195356555, "trialdata": {"rt": -1000, "stimulus": "/static/audio/wordpool/SADDLE.wav", "key_press": -1, "type": "PRES_AUD", "word": "saddle", "wordID": 1220, "conditions": [24, 800, "a", 24000], "trial": 4, "serialpos": 20, "trial_type": "single-audio", "trial_index": 189, "time_elapsed": 871804, "internal_node_id": "0.0-144.0"}}, {"uniqueid": "MTK1131:3VD82FOHKRV9DD8BNZUZHXIO9QBOCJ", "current_trial": 190, "dateTime": 1513195358507, "trialdata": {"rt": -1000, "stimulus": "/static/audio/wordpool/RUG.wav", "key_press": -1, "type": "PRES_AUD", "word": "rug", "wordID": 1214, "conditions": [24, 800, "a", 24000], "trial": 4, "serialpos": 21, "trial_type": "single-audio", "trial_index": 190, "time_elapsed": 873756, "internal_node_id": "0.0-145.0"}}, {"uniqueid": "MTK1131:3VD82FOHKRV9DD8BNZUZHXIO9QBOCJ", "current_trial": 191, "dateTime": 1513195360413, "trialdata": {"rt": -1000, "stimulus": "/static/audio/wordpool/CHEST.wav", "key_press": -1, "type": "PRES_AUD", "word": "chest", "wordID": 294, "conditions": [24, 800, "a", 24000], "trial": 4, "serialpos": 22, "trial_type": "single-audio", "trial_index": 191, "time_elapsed": 875661, "internal_node_id": "0.0-146.0"}}, {"uniqueid": "MTK1131:3VD82FOHKRV9DD8BNZUZHXIO9QBOCJ", "current_trial": 192, "dateTime": 1513195362221, "trialdata": {"rt": -1000, "stimulus": "/static/audio/wordpool/UMPIRE.wav", "key_press": -1, "type": "PRES_AUD", "word": "umpire", "wordID": 1534, "conditions": [24, 800, "a", 24000], "trial": 4, "serialpos": 23, "trial_type": "single-audio", "trial_index": 192, "time_elapsed": 877470, "internal_node_id": "0.0-147.0"}}, {"uniqueid": "MTK1131:3VD82FOHKRV9DD8BNZUZHXIO9QBOCJ", "current_trial": 193, "dateTime": 1513195363456, "trialdata": {"rt": -1, "stimulus": "", "key_press": -1, "type": "PRE_RECALL_DELAY", "trial_type": "single-stim", "trial_index": 193, "time_elapsed": 878705, "internal_node_id": "0.0-148.0-0.0"}}, {"uniqueid": "MTK1131:3VD82FOHKRV9DD8BNZUZHXIO9QBOCJ", "current_trial": 194, "dateTime": 1513195363957, "trialdata": {"rt": -1000, "stimulus": "/static/audio/400Hz.wav", "key_press": -1, "type": "PRE_RECALL_ALERT", "trial_type": "single-audio", "trial_index": 194, "time_elapsed": 879206, "internal_node_id": "0.0-149.0"}}, {"uniqueid": "MTK1131:3VD82FOHKRV9DD8BNZUZHXIO9QBOCJ", "current_trial": 195, "dateTime": 1513195423962, "trialdata": {"rt": [1254, 1766, 3070, 6398, 10838], "recwords": ["elbow", "leg", "umpire", "chest", "saddle"], "type": "FREE_RECALL", "conditions": [24, 800, "a", 24000], "trial": 4, "trial_type": "free-recall", "trial_index": 195, "time_elapsed": 939209, "internal_node_id": "0.0-150.0-0.0"}}, {"uniqueid": "MTK1131:3VD82FOHKRV9DD8BNZUZHXIO9QBOCJ", "current_trial": 196, "dateTime": 1513195431948, "trialdata": {"rt": 5985, "key_press": 32, "type": "INSTRUCTIONS", "trial_type": "text", "trial_index": 196, "time_elapsed": 947197, "internal_node_id": "0.0-151.0"}}, {"uniqueid": "MTK1131:3VD82FOHKRV9DD8BNZUZHXIO9QBOCJ", "current_trial": 197, "dateTime": 1513195445951, "trialdata": {"rt": [2038, 4773, 6366, 8158, 10117], "responses": ["12", "24", "18", "12", "20"], "num1": [4, 8, 8, 8, 5, 2], "num2": [5, 5, 5, 2, 7, 2], "num3": [3, 9, 5, 2, 8, 9], "type": "DISTRACTOR", "conditions": [12, 800, "a", 12000], "trial": 5, "trial_type": "math-distractor", "trial_index": 197, "time_elapsed": 961200, "internal_node_id": "0.0-152.0"}}, {"uniqueid": "MTK1131:3VD82FOHKRV9DD8BNZUZHXIO9QBOCJ", "current_trial": 198, "dateTime": 1513195448953, "trialdata": {"rt": -1, "stimulus": "<p id=\"stim\">10</p>", "key_press": -1, "trial_type": "single-stim", "trial_index": 198, "time_elapsed": 964202, "internal_node_id": "0.0-153.0-0.0"}}, {"uniqueid": "MTK1131:3VD82FOHKRV9DD8BNZUZHXIO9QBOCJ", "current_trial": 199, "dateTime": 1513195449954, "trialdata": {"rt": -1, "stimulus": "<p id=\"stim\">9</p>", "key_press": -1, "trial_type": "single-stim", "trial_index": 199, "time_elapsed": 965203, "internal_node_id": "0.0-153.0-1.0"}}, {"uniqueid": "MTK1131:3VD82FOHKRV9DD8BNZUZHXIO9QBOCJ", "current_trial": 200, "dateTime": 1513195450955, "trialdata": {"rt": -1, "stimulus": "<p id=\"stim\">8</p>", "key_press": -1, "trial_type": "single-stim", "trial_index": 200, "time_elapsed": 966204, "internal_node_id": "0.0-153.0-2.0"}}, {"uniqueid": "MTK1131:3VD82FOHKRV9DD8BNZUZHXIO9QBOCJ", "current_trial": 201, "dateTime": 1513195451956, "trialdata": {"rt": -1, "stimulus": "<p id=\"stim\">7</p>", "key_press": -1, "trial_type": "single-stim", "trial_index": 201, "time_elapsed": 967205, "internal_node_id": "0.0-153.0-3.0"}}, {"uniqueid": "MTK1131:3VD82FOHKRV9DD8BNZUZHXIO9QBOCJ", "current_trial": 202, "dateTime": 1513195452957, "trialdata": {"rt": -1, "stimulus": "<p id=\"stim\">6</p>", "key_press": -1, "trial_type": "single-stim", "trial_index": 202, "time_elapsed": 968206, "internal_node_id": "0.0-153.0-4.0"}}, {"uniqueid": "MTK1131:3VD82FOHKRV9DD8BNZUZHXIO9QBOCJ", "current_trial": 203, "dateTime": 1513195453959, "trialdata": {"rt": -1, "stimulus": "<p id=\"stim\">5</p>", "key_press": -1, "trial_type": "single-stim", "trial_index": 203, "time_elapsed": 969207, "internal_node_id": "0.0-153.0-5.0"}}, {"uniqueid": "MTK1131:3VD82FOHKRV9DD8BNZUZHXIO9QBOCJ", "current_trial": 204, "dateTime": 1513195454960, "trialdata": {"rt": -1, "stimulus": "<p id=\"stim\">4</p>", "key_press": -1, "trial_type": "single-stim", "trial_index": 204, "time_elapsed": 970209, "internal_node_id": "0.0-153.0-6.0"}}, {"uniqueid": "MTK1131:3VD82FOHKRV9DD8BNZUZHXIO9QBOCJ", "current_trial": 205, "dateTime": 1513195455962, "trialdata": {"rt": -1, "stimulus": "<p id=\"stim\">3</p>", "key_press": -1, "trial_type": "single-stim", "trial_index": 205, "time_elapsed": 971210, "internal_node_id": "0.0-153.0-7.0"}}, {"uniqueid": "MTK1131:3VD82FOHKRV9DD8BNZUZHXIO9QBOCJ", "current_trial": 206, "dateTime": 1513195456962, "trialdata": {"rt": -1, "stimulus": "<p id=\"stim\">2</p>", "key_press": -1, "trial_type": "single-stim", "trial_index": 206, "time_elapsed": 972211, "internal_node_id": "0.0-153.0-8.0"}}, {"uniqueid": "MTK1131:3VD82FOHKRV9DD8BNZUZHXIO9QBOCJ", "current_trial": 207, "dateTime": 1513195457963, "trialdata": {"rt": -1, "stimulus": "<p id=\"stim\">1</p>", "key_press": -1, "trial_type": "single-stim", "trial_index": 207, "time_elapsed": 973212, "internal_node_id": "0.0-153.0-9.0"}}, {"uniqueid": "MTK1131:3VD82FOHKRV9DD8BNZUZHXIO9QBOCJ", "current_trial": 208, "dateTime": 1513195459465, "trialdata": {"rt": -1, "stimulus": "<p id=\"stim\">+</p>", "key_press": -1, "type": "FIXATION", "trial_type": "single-stim", "trial_index": 208, "time_elapsed": 974713, "internal_node_id": "0.0-154.0-0.0"}}, {"uniqueid": "MTK1131:3VD82FOHKRV9DD8BNZUZHXIO9QBOCJ", "current_trial": 209, "dateTime": 1513195461441, "trialdata": {"rt": -1000, "stimulus": "/static/audio/wordpool/STOMACH.wav", "key_press": -1, "type": "PRES_AUD", "word": "stomach", "wordID": 1383, "conditions": [12, 800, "a", 12000], "trial": 5, "serialpos": 0, "trial_type": "single-audio", "trial_index": 209, "time_elapsed": 976690, "internal_node_id": "0.0-155.0"}}, {"uniqueid": "MTK1131:3VD82FOHKRV9DD8BNZUZHXIO9QBOCJ", "current_trial": 210, "dateTime": 1513195463053, "trialdata": {"rt": -1000, "stimulus": "/static/audio/wordpool/BUG.wav", "key_press": -1, "type": "PRES_AUD", "word": "bug", "wordID": 186, "conditions": [12, 800, "a", 12000], "trial": 5, "serialpos": 1, "trial_type": "single-audio", "trial_index": 210, "time_elapsed": 978302, "internal_node_id": "0.0-156.0"}}, {"uniqueid": "MTK1131:3VD82FOHKRV9DD8BNZUZHXIO9QBOCJ", "current_trial": 211, "dateTime": 1513195464941, "trialdata": {"rt": -1000, "stimulus": "/static/audio/wordpool/DINER.wav", "key_press": -1, "type": "PRES_AUD", "word": "diner", "wordID": 466, "conditions": [12, 800, "a", 12000], "trial": 5, "serialpos": 2, "trial_type": "single-audio", "trial_index": 211, "time_elapsed": 980190, "internal_node_id": "0.0-157.0"}}, {"uniqueid": "MTK1131:3VD82FOHKRV9DD8BNZUZHXIO9QBOCJ", "current_trial": 212, "dateTime": 1513195466858, "trialdata": {"rt": -1000, "stimulus": "/static/audio/wordpool/GIRL.wav", "key_press": -1, "type": "PRES_AUD", "word": "girl", "wordID": 636, "conditions": [12, 800, "a", 12000], "trial": 5, "serialpos": 3, "trial_type": "single-audio", "trial_index": 212, "time_elapsed": 982107, "internal_node_id": "0.0-158.0"}}, {"uniqueid": "MTK1131:3VD82FOHKRV9DD8BNZUZHXIO9QBOCJ", "current_trial": 213, "dateTime": 1513195468561, "trialdata": {"rt": -1000, "stimulus": "/static/audio/wordpool/BRIEFCASE.wav", "key_press": -1, "type": "PRES_AUD", "word": "briefcase", "wordID": 174, "conditions": [12, 800, "a", 12000], "trial": 5, "serialpos": 4, "trial_type": "single-audio", "trial_index": 213, "time_elapsed": 983810, "internal_node_id": "0.0-159.0"}}, {"uniqueid": "MTK1131:3VD82FOHKRV9DD8BNZUZHXIO9QBOCJ", "current_trial": 214, "dateTime": 1513195470351, "trialdata": {"rt": -1000, "stimulus": "/static/audio/wordpool/STREAM.wav", "key_press": -1, "type": "PRES_AUD", "word": "stream", "wordID": 1391, "conditions": [12, 800, "a", 12000], "trial": 5, "serialpos": 5, "trial_type": "single-audio", "trial_index": 214, "time_elapsed": 985600, "internal_node_id": "0.0-160.0"}}, {"uniqueid": "MTK1131:3VD82FOHKRV9DD8BNZUZHXIO9QBOCJ", "current_trial": 215, "dateTime": 1513195472292, "trialdata": {"rt": -1000, "stimulus": "/static/audio/wordpool/VIKING.wav", "key_press": -1, "type": "PRES_AUD", "word": "viking", "wordID": 1564, "conditions": [12, 800, "a", 12000], "trial": 5, "serialpos": 6, "trial_type": "single-audio", "trial_index": 215, "time_elapsed": 987541, "internal_node_id": "0.0-161.0"}}, {"uniqueid": "MTK1131:3VD82FOHKRV9DD8BNZUZHXIO9QBOCJ", "current_trial": 216, "dateTime": 1513195473940, "trialdata": {"rt": -1000, "stimulus": "/static/audio/wordpool/PIZZA.wav", "key_press": -1, "type": "PRES_AUD", "word": "pizza", "wordID": 1078, "conditions": [12, 800, "a", 12000], "trial": 5, "serialpos": 7, "trial_type": "single-audio", "trial_index": 216, "time_elapsed": 989189, "internal_node_id": "0.0-162.0"}}, {"uniqueid": "MTK1131:3VD82FOHKRV9DD8BNZUZHXIO9QBOCJ", "current_trial": 217, "dateTime": 1513195475561, "trialdata": {"rt": -1000, "stimulus": "/static/audio/wordpool/HUSBAND.wav", "key_press": -1, "type": "PRES_AUD", "word": "husband", "wordID": 727, "conditions": [12, 800, "a", 12000], "trial": 5, "serialpos": 8, "trial_type": "single-audio", "trial_index": 217, "time_elapsed": 990810, "internal_node_id": "0.0-163.0"}}, {"uniqueid": "MTK1131:3VD82FOHKRV9DD8BNZUZHXIO9QBOCJ", "current_trial": 218, "dateTime": 1513195477284, "trialdata": {"rt": -1000, "stimulus": "/static/audio/wordpool/SISTER.wav", "key_press": -1, "type": "PRES_AUD", "word": "sister", "wordID": 1311, "conditions": [12, 800, "a", 12000], "trial": 5, "serialpos": 9, "trial_type": "single-audio", "trial_index": 218, "time_elapsed": 992533, "internal_node_id": "0.0-164.0"}}, {"uniqueid": "MTK1131:3VD82FOHKRV9DD8BNZUZHXIO9QBOCJ", "current_trial": 219, "dateTime": 1513195479039, "trialdata": {"rt": -1000, "stimulus": "/static/audio/wordpool/THIEF.wav", "key_press": -1, "type": "PRES_AUD", "word": "thief", "wordID": 1455, "conditions": [12, 800, "a", 12000], "trial": 5, "serialpos": 10, "trial_type": "single-audio", "trial_index": 219, "time_elapsed": 994288, "internal_node_id": "0.0-165.0"}}, {"uniqueid": "MTK1131:3VD82FOHKRV9DD8BNZUZHXIO9QBOCJ", "current_trial": 220, "dateTime": 1513195481020, "trialdata": {"rt": -1000, "stimulus": "/static/audio/wordpool/SHIRT.wav", "key_press": -1, "type": "PRES_AUD", "word": "shirt", "wordID": 1286, "conditions": [12, 800, "a", 12000], "trial": 5, "serialpos": 11, "trial_type": "single-audio", "trial_index": 220, "time_elapsed": 996269, "internal_node_id": "0.0-166.0"}}, {"uniqueid": "MTK1131:3VD82FOHKRV9DD8BNZUZHXIO9QBOCJ", "current_trial": 221, "dateTime": 1513195482341, "trialdata": {"rt": -1, "stimulus": "", "key_press": -1, "type": "PRE_RECALL_DELAY", "trial_type": "single-stim", "trial_index": 221, "time_elapsed": 997590, "internal_node_id": "0.0-167.0-0.0"}}, {"uniqueid": "MTK1131:3VD82FOHKRV9DD8BNZUZHXIO9QBOCJ", "current_trial": 222, "dateTime": 1513195482842, "trialdata": {"rt": -1000, "stimulus": "/static/audio/400Hz.wav", "key_press": -1, "type": "PRE_RECALL_ALERT", "trial_type": "single-audio", "trial_index": 222, "time_elapsed": 998090, "internal_node_id": "0.0-168.0"}}, {"uniqueid": "MTK1131:3VD82FOHKRV9DD8BNZUZHXIO9QBOCJ", "current_trial": 223, "dateTime": 1513195542847, "trialdata": {"rt": [2673, 3569, 4265, 7745, 8377, 9417], "recwords": ["shirt", "thief", "girl", "stomach", "bug", "diner"], "type": "FREE_RECALL", "conditions": [12, 800, "a", 12000], "trial": 5, "trial_type": "free-recall", "trial_index": 223, "time_elapsed": 1058094, "internal_node_id": "0.0-169.0-0.0"}}, {"uniqueid": "MTK1131:3VD82FOHKRV9DD8BNZUZHXIO9QBOCJ", "current_trial": 224, "dateTime": 1513195546132, "trialdata": {"rt": 1283, "key_press": 32, "type": "INSTRUCTIONS", "trial_type": "text", "trial_index": 224, "time_elapsed": 1061381, "internal_node_id": "0.0-170.0"}}, {"uniqueid": "MTK1131:3VD82FOHKRV9DD8BNZUZHXIO9QBOCJ", "current_trial": 225, "dateTime": 1513195560134, "trialdata": {"rt": [2686, 7118, 8454, 9830, 11734], "responses": ["16", "26", "12", "12", "21"], "num1": [2, 9, 5, 1, 6, 6], "num2": [9, 9, 4, 5, 8, 5], "num3": [5, 7, 3, 6, 7, 8], "type": "DISTRACTOR", "conditions": [12, 1600, "a", 12000], "trial": 6, "trial_type": "math-distractor", "trial_index": 225, "time_elapsed": 1075383, "internal_node_id": "0.0-171.0"}}, {"uniqueid": "MTK1131:3VD82FOHKRV9DD8BNZUZHXIO9QBOCJ", "current_trial": 226, "dateTime": 1513195563136, "trialdata": {"rt": -1, "stimulus": "<p id=\"stim\">10</p>", "key_press": -1, "trial_type": "single-stim", "trial_index": 226, "time_elapsed": 1078385, "internal_node_id": "0.0-172.0-0.0"}}, {"uniqueid": "MTK1131:3VD82FOHKRV9DD8BNZUZHXIO9QBOCJ", "current_trial": 227, "dateTime": 1513195564137, "trialdata": {"rt": -1, "stimulus": "<p id=\"stim\">9</p>", "key_press": -1, "trial_type": "single-stim", "trial_index": 227, "time_elapsed": 1079386, "internal_node_id": "0.0-172.0-1.0"}}, {"uniqueid": "MTK1131:3VD82FOHKRV9DD8BNZUZHXIO9QBOCJ", "current_trial": 228, "dateTime": 1513195565138, "trialdata": {"rt": -1, "stimulus": "<p id=\"stim\">8</p>", "key_press": -1, "trial_type": "single-stim", "trial_index": 228, "time_elapsed": 1080387, "internal_node_id": "0.0-172.0-2.0"}}, {"uniqueid": "MTK1131:3VD82FOHKRV9DD8BNZUZHXIO9QBOCJ", "current_trial": 229, "dateTime": 1513195566139, "trialdata": {"rt": -1, "stimulus": "<p id=\"stim\">7</p>", "key_press": -1, "trial_type": "single-stim", "trial_index": 229, "time_elapsed": 1081388, "internal_node_id": "0.0-172.0-3.0"}}, {"uniqueid": "MTK1131:3VD82FOHKRV9DD8BNZUZHXIO9QBOCJ", "current_trial": 230, "dateTime": 1513195567140, "trialdata": {"rt": -1, "stimulus": "<p id=\"stim\">6</p>", "key_press": -1, "trial_type": "single-stim", "trial_index": 230, "time_elapsed": 1082389, "internal_node_id": "0.0-172.0-4.0"}}, {"uniqueid": "MTK1131:3VD82FOHKRV9DD8BNZUZHXIO9QBOCJ", "current_trial": 231, "dateTime": 1513195568141, "trialdata": {"rt": -1, "stimulus": "<p id=\"stim\">5</p>", "key_press": -1, "trial_type": "single-stim", "trial_index": 231, "time_elapsed": 1083390, "internal_node_id": "0.0-172.0-5.0"}}, {"uniqueid": "MTK1131:3VD82FOHKRV9DD8BNZUZHXIO9QBOCJ", "current_trial": 232, "dateTime": 1513195569142, "trialdata": {"rt": -1, "stimulus": "<p id=\"stim\">4</p>", "key_press": -1, "trial_type": "single-stim", "trial_index": 232, "time_elapsed": 1084391, "internal_node_id": "0.0-172.0-6.0"}}, {"uniqueid": "MTK1131:3VD82FOHKRV9DD8BNZUZHXIO9QBOCJ", "current_trial": 233, "dateTime": 1513195570143, "trialdata": {"rt": -1, "stimulus": "<p id=\"stim\">3</p>", "key_press": -1, "trial_type": "single-stim", "trial_index": 233, "time_elapsed": 1085392, "internal_node_id": "0.0-172.0-7.0"}}, {"uniqueid": "MTK1131:3VD82FOHKRV9DD8BNZUZHXIO9QBOCJ", "current_trial": 234, "dateTime": 1513195571144, "trialdata": {"rt": -1, "stimulus": "<p id=\"stim\">2</p>", "key_press": -1, "trial_type": "single-stim", "trial_index": 234, "time_elapsed": 1086393, "internal_node_id": "0.0-172.0-8.0"}}, {"uniqueid": "MTK1131:3VD82FOHKRV9DD8BNZUZHXIO9QBOCJ", "current_trial": 235, "dateTime": 1513195572145, "trialdata": {"rt": -1, "stimulus": "<p id=\"stim\">1</p>", "key_press": -1, "trial_type": "single-stim", "trial_index": 235, "time_elapsed": 1087394, "internal_node_id": "0.0-172.0-9.0"}}, {"uniqueid": "MTK1131:3VD82FOHKRV9DD8BNZUZHXIO9QBOCJ", "current_trial": 236, "dateTime": 1513195573646, "trialdata": {"rt": -1, "stimulus": "<p id=\"stim\">+</p>", "key_press": -1, "type": "FIXATION", "trial_type": "single-stim", "trial_index": 236, "time_elapsed": 1088895, "internal_node_id": "0.0-173.0-0.0"}}, {"uniqueid": "MTK1131:3VD82FOHKRV9DD8BNZUZHXIO9QBOCJ", "current_trial": 237, "dateTime": 1513195576217, "trialdata": {"rt": -1000, "stimulus": "/static/audio/wordpool/VALLEY.wav", "key_press": -1, "type": "PRES_AUD", "word": "valley", "wordID": 1544, "conditions": [12, 1600, "a", 12000], "trial": 6, "serialpos": 0, "trial_type": "single-audio", "trial_index": 237, "time_elapsed": 1091466, "internal_node_id": "0.0-174.0"}}, {"uniqueid": "MTK1131:3VD82FOHKRV9DD8BNZUZHXIO9QBOCJ", "current_trial": 238, "dateTime": 1513195578758, "trialdata": {"rt": -1000, "stimulus": "/static/audio/wordpool/SEAL.wav", "key_press": -1, "type": "PRES_AUD", "word": "seal", "wordID": 1261, "conditions": [12, 1600, "a", 12000], "trial": 6, "serialpos": 1, "trial_type": "single-audio", "trial_index": 238, "time_elapsed": 1094007, "internal_node_id": "0.0-175.0"}}, {"uniqueid": "MTK1131:3VD82FOHKRV9DD8BNZUZHXIO9QBOCJ", "current_trial": 239, "dateTime": 1513195581234, "trialdata": {"rt": -1000, "stimulus": "/static/audio/wordpool/CARRIAGE.wav", "key_press": -1, "type": "PRES_AUD", "word": "carriage", "wordID": 247, "conditions": [12, 1600, "a", 12000], "trial": 6, "serialpos": 2, "trial_type": "single-audio", "trial_index": 239, "time_elapsed": 1096483, "internal_node_id": "0.0-176.0"}}, {"uniqueid": "MTK1131:3VD82FOHKRV9DD8BNZUZHXIO9QBOCJ", "current_trial": 240, "dateTime": 1513195583760, "trialdata": {"rt": -1000, "stimulus": "/static/audio/wordpool/BOX.wav", "key_press": -1, "type": "PRES_AUD", "word": "box", "wordID": 158, "conditions": [12, 1600, "a", 12000], "trial": 6, "serialpos": 3, "trial_type": "single-audio", "trial_index": 240, "time_elapsed": 1099009, "internal_node_id": "0.0-177.0"}}, {"uniqueid": "MTK1131:3VD82FOHKRV9DD8BNZUZHXIO9QBOCJ", "current_trial": 241, "dateTime": 1513195586433, "trialdata": {"rt": -1000, "stimulus": "/static/audio/wordpool/VAGRANT.wav", "key_press": -1, "type": "PRES_AUD", "word": "vagrant", "wordID": 1543, "conditions": [12, 1600, "a", 12000], "trial": 6, "serialpos": 4, "trial_type": "single-audio", "trial_index": 241, "time_elapsed": 1101682, "internal_node_id": "0.0-178.0"}}, {"uniqueid": "MTK1131:3VD82FOHKRV9DD8BNZUZHXIO9QBOCJ", "current_trial": 242, "dateTime": 1513195589150, "trialdata": {"rt": -1000, "stimulus": "/static/audio/wordpool/NIGHTGOWN.wav", "key_press": -1, "type": "PRES_AUD", "word": "nightgown", "wordID": 952, "conditions": [12, 1600, "a", 12000], "trial": 6, "serialpos": 5, "trial_type": "single-audio", "trial_index": 242, "time_elapsed": 1104399, "internal_node_id": "0.0-179.0"}}, {"uniqueid": "MTK1131:3VD82FOHKRV9DD8BNZUZHXIO9QBOCJ", "current_trial": 243, "dateTime": 1513195591701, "trialdata": {"rt": -1000, "stimulus": "/static/audio/wordpool/PISTOL.wav", "key_press": -1, "type": "PRES_AUD", "word": "pistol", "wordID": 1074, "conditions": [12, 1600, "a", 12000], "trial": 6, "serialpos": 6, "trial_type": "single-audio", "trial_index": 243, "time_elapsed": 1106950, "internal_node_id": "0.0-180.0"}}, {"uniqueid": "MTK1131:3VD82FOHKRV9DD8BNZUZHXIO9QBOCJ", "current_trial": 244, "dateTime": 1513195594212, "trialdata": {"rt": -1000, "stimulus": "/static/audio/wordpool/RIFLE.wav", "key_press": -1, "type": "PRES_AUD", "word": "rifle", "wordID": 1191, "conditions": [12, 1600, "a", 12000], "trial": 6, "serialpos": 7, "trial_type": "single-audio", "trial_index": 244, "time_elapsed": 1109461, "internal_node_id": "0.0-181.0"}}, {"uniqueid": "MTK1131:3VD82FOHKRV9DD8BNZUZHXIO9QBOCJ", "current_trial": 245, "dateTime": 1513195596702, "trialdata": {"rt": -1000, "stimulus": "/static/audio/wordpool/BUTCHER.wav", "key_press": -1, "type": "PRES_AUD", "word": "butcher", "wordID": 202, "conditions": [12, 1600, "a", 12000], "trial": 6, "serialpos": 8, "trial_type": "single-audio", "trial_index": 245, "time_elapsed": 1111951, "internal_node_id": "0.0-182.0"}}, {"uniqueid": "MTK1131:3VD82FOHKRV9DD8BNZUZHXIO9QBOCJ", "current_trial": 246, "dateTime": 1513195599415, "trialdata": {"rt": -1000, "stimulus": "/static/audio/wordpool/CRATER.wav", "key_press": -1, "type": "PRES_AUD", "word": "crater", "wordID": 399, "conditions": [12, 1600, "a", 12000], "trial": 6, "serialpos": 9, "trial_type": "single-audio", "trial_index": 246, "time_elapsed": 1114663, "internal_node_id": "0.0-183.0"}}, {"uniqueid": "MTK1131:3VD82FOHKRV9DD8BNZUZHXIO9QBOCJ", "current_trial": 247, "dateTime": 1513195602196, "trialdata": {"rt": -1000, "stimulus": "/static/audio/wordpool/LAVA.wav", "key_press": -1, "type": "PRES_AUD", "word": "lava", "wordID": 803, "conditions": [12, 1600, "a", 12000], "trial": 6, "serialpos": 10, "trial_type": "single-audio", "trial_index": 247, "time_elapsed": 1117445, "internal_node_id": "0.0-184.0"}}, {"uniqueid": "MTK1131:3VD82FOHKRV9DD8BNZUZHXIO9QBOCJ", "current_trial": 248, "dateTime": 1513195604995, "trialdata": {"rt": -1000, "stimulus": "/static/audio/wordpool/CANYON.wav", "key_press": -1, "type": "PRES_AUD", "word": "canyon", "wordID": 234, "conditions": [12, 1600, "a", 12000], "trial": 6, "serialpos": 11, "trial_type": "single-audio", "trial_index": 248, "time_elapsed": 1120244, "internal_node_id": "0.0-185.0"}}, {"uniqueid": "MTK1131:3VD82FOHKRV9DD8BNZUZHXIO9QBOCJ", "current_trial": 249, "dateTime": 1513195606206, "trialdata": {"rt": -1, "stimulus": "", "key_press": -1, "type": "PRE_RECALL_DELAY", "trial_type": "single-stim", "trial_index": 249, "time_elapsed": 1121455, "internal_node_id": "0.0-186.0-0.0"}}, {"uniqueid": "MTK1131:3VD82FOHKRV9DD8BNZUZHXIO9QBOCJ", "current_trial": 250, "dateTime": 1513195606707, "trialdata": {"rt": -1000, "stimulus": "/static/audio/400Hz.wav", "key_press": -1, "type": "PRE_RECALL_ALERT", "trial_type": "single-audio", "trial_index": 250, "time_elapsed": 1121955, "internal_node_id": "0.0-187.0"}}, {"uniqueid": "MTK1131:3VD82FOHKRV9DD8BNZUZHXIO9QBOCJ", "current_trial": 251, "dateTime": 1513195666713, "trialdata": {"rt": [4407, 5126, 5886, 6782, 8990], "recwords": ["pistol", "rifle", "lava", "crator", "nightgown"], "type": "FREE_RECALL", "conditions": [12, 1600, "a", 12000], "trial": 6, "trial_type": "free-recall", "trial_index": 251, "time_elapsed": 1181959, "internal_node_id": "0.0-188.0-0.0"}}, {"uniqueid": "MTK1131:3VD82FOHKRV9DD8BNZUZHXIO9QBOCJ", "current_trial": 252, "dateTime": 1513195669539, "trialdata": {"rt": 825, "key_press": 32, "type": "INSTRUCTIONS", "trial_type": "text", "trial_index": 252, "time_elapsed": 1184787, "internal_node_id": "0.0-189.0"}}, {"uniqueid": "MTK1131:3VD82FOHKRV9DD8BNZUZHXIO9QBOCJ", "current_trial": 253, "dateTime": 1513195695541, "trialdata": {"rt": [3326, 6454, 9566, 11798, 13438, 15318, 16854, 18718, 20342, 22013], "responses": ["12", "23", "6", "18", "12", "18", "10", "15", "11", "16"], "num1": [1, 9, 3, 9, 1, 6, 5, 4, 1, 4, 3], "num2": [8, 8, 1, 6, 6, 7, 3, 4, 1, 6, 4], "num3": [3, 6, 2, 3, 5, 5, 2, 7, 9, 6, 9], "type": "DISTRACTOR", "conditions": [24, 1600, "v", 24000], "trial": 7, "trial_type": "math-distractor", "trial_index": 253, "time_elapsed": 1210790, "internal_node_id": "0.0-190.0"}}, {"uniqueid": "MTK1131:3VD82FOHKRV9DD8BNZUZHXIO9QBOCJ", "current_trial": 254, "dateTime": 1513195698543, "trialdata": {"rt": -1, "stimulus": "<p id=\"stim\">10</p>", "key_press": -1, "trial_type": "single-stim", "trial_index": 254, "time_elapsed": 1213792, "internal_node_id": "0.0-191.0-0.0"}}, {"uniqueid": "MTK1131:3VD82FOHKRV9DD8BNZUZHXIO9QBOCJ", "current_trial": 255, "dateTime": 1513195699544, "trialdata": {"rt": -1, "stimulus": "<p id=\"stim\">9</p>", "key_press": -1, "trial_type": "single-stim", "trial_index": 255, "time_elapsed": 1214793, "internal_node_id": "0.0-191.0-1.0"}}, {"uniqueid": "MTK1131:3VD82FOHKRV9DD8BNZUZHXIO9QBOCJ", "current_trial": 256, "dateTime": 1513195700545, "trialdata": {"rt": -1, "stimulus": "<p id=\"stim\">8</p>", "key_press": -1, "trial_type": "single-stim", "trial_index": 256, "time_elapsed": 1215794, "internal_node_id": "0.0-191.0-2.0"}}, {"uniqueid": "MTK1131:3VD82FOHKRV9DD8BNZUZHXIO9QBOCJ", "current_trial": 257, "dateTime": 1513195701546, "trialdata": {"rt": -1, "stimulus": "<p id=\"stim\">7</p>", "key_press": -1, "trial_type": "single-stim", "trial_index": 257, "time_elapsed": 1216795, "internal_node_id": "0.0-191.0-3.0"}}, {"uniqueid": "MTK1131:3VD82FOHKRV9DD8BNZUZHXIO9QBOCJ", "current_trial": 258, "dateTime": 1513195702547, "trialdata": {"rt": -1, "stimulus": "<p id=\"stim\">6</p>", "key_press": -1, "trial_type": "single-stim", "trial_index": 258, "time_elapsed": 1217796, "internal_node_id": "0.0-191.0-4.0"}}, {"uniqueid": "MTK1131:3VD82FOHKRV9DD8BNZUZHXIO9QBOCJ", "current_trial": 259, "dateTime": 1513195703548, "trialdata": {"rt": -1, "stimulus": "<p id=\"stim\">5</p>", "key_press": -1, "trial_type": "single-stim", "trial_index": 259, "time_elapsed": 1218797, "internal_node_id": "0.0-191.0-5.0"}}, {"uniqueid": "MTK1131:3VD82FOHKRV9DD8BNZUZHXIO9QBOCJ", "current_trial": 260, "dateTime": 1513195704549, "trialdata": {"rt": -1, "stimulus": "<p id=\"stim\">4</p>", "key_press": -1, "trial_type": "single-stim", "trial_index": 260, "time_elapsed": 1219798, "internal_node_id": "0.0-191.0-6.0"}}, {"uniqueid": "MTK1131:3VD82FOHKRV9DD8BNZUZHXIO9QBOCJ", "current_trial": 261, "dateTime": 1513195705551, "trialdata": {"rt": -1, "stimulus": "<p id=\"stim\">3</p>", "key_press": -1, "trial_type": "single-stim", "trial_index": 261, "time_elapsed": 1220800, "internal_node_id": "0.0-191.0-7.0"}}, {"uniqueid": "MTK1131:3VD82FOHKRV9DD8BNZUZHXIO9QBOCJ", "current_trial": 262, "dateTime": 1513195706552, "trialdata": {"rt": -1, "stimulus": "<p id=\"stim\">2</p>", "key_press": -1, "trial_type": "single-stim", "trial_index": 262, "time_elapsed": 1221800, "internal_node_id": "0.0-191.0-8.0"}}, {"uniqueid": "MTK1131:3VD82FOHKRV9DD8BNZUZHXIO9QBOCJ", "current_trial": 263, "dateTime": 1513195707553, "trialdata": {"rt": -1, "stimulus": "<p id=\"stim\">1</p>", "key_press": -1, "trial_type": "single-stim", "trial_index": 263, "time_elapsed": 1222801, "internal_node_id": "0.0-191.0-9.0"}}, {"uniqueid": "MTK1131:3VD82FOHKRV9DD8BNZUZHXIO9QBOCJ", "current_trial": 264, "dateTime": 1513195709054, "trialdata": {"rt": -1, "stimulus": "<p id=\"stim\">+</p>", "key_press": -1, "type": "FIXATION", "trial_type": "single-stim", "trial_index": 264, "time_elapsed": 1224303, "internal_node_id": "0.0-192.0-0.0"}}, {"uniqueid": "MTK1131:3VD82FOHKRV9DD8BNZUZHXIO9QBOCJ", "current_trial": 265, "dateTime": 1513195710655, "trialdata": {"rt": -1, "stimulus": "<p id=\"stim\">TUTU</p>", "key_press": -1, "type": "PRES_VIS", "word": "tutu", "wordID": 1523, "conditions": [24, 1600, "v", 24000], "trial": 7, "serialpos": 0, "trial_type": "single-stim", "trial_index": 265, "time_elapsed": 1225904, "internal_node_id": "0.0-193.0"}}, {"uniqueid": "MTK1131:3VD82FOHKRV9DD8BNZUZHXIO9QBOCJ", "current_trial": 266, "dateTime": 1513195713384, "trialdata": {"rt": -1, "stimulus": "<p id=\"stim\">COUCH</p>", "key_press": -1, "type": "PRES_VIS", "word": "couch", "wordID": 385, "conditions": [24, 1600, "v", 24000], "trial": 7, "serialpos": 1, "trial_type": "single-stim", "trial_index": 266, "time_elapsed": 1228633, "internal_node_id": "0.0-194.0"}}, {"uniqueid": "MTK1131:3VD82FOHKRV9DD8BNZUZHXIO9QBOCJ", "current_trial": 267, "dateTime": 1513195715978, "trialdata": {"rt": -1, "stimulus": "<p id=\"stim\">GRAVE</p>", "key_press": -1, "type": "PRES_VIS", "word": "grave", "wordID": 657, "conditions": [24, 1600, "v", 24000], "trial": 7, "serialpos": 2, "trial_type": "single-stim", "trial_index": 267, "time_elapsed": 1231227, "internal_node_id": "0.0-195.0"}}, {"uniqueid": "MTK1131:3VD82FOHKRV9DD8BNZUZHXIO9QBOCJ", "current_trial": 268, "dateTime": 1513195718780, "trialdata": {"rt": -1, "stimulus": "<p id=\"stim\">CASHIER</p>", "key_press": -1, "type": "PRES_VIS", "word": "cashier", "wordID": 253, "conditions": [24, 1600, "v", 24000], "trial": 7, "serialpos": 3, "trial_type": "single-stim", "trial_index": 268, "time_elapsed": 1234029, "internal_node_id": "0.0-196.0"}}, {"uniqueid": "MTK1131:3VD82FOHKRV9DD8BNZUZHXIO9QBOCJ", "current_trial": 269, "dateTime": 1513195721323, "trialdata": {"rt": -1, "stimulus": "<p id=\"stim\">ATLAS</p>", "key_press": -1, "type": "PRES_VIS", "word": "atlas", "wordID": 52, "conditions": [24, 1600, "v", 24000], "trial": 7, "serialpos": 4, "trial_type": "single-stim", "trial_index": 269, "time_elapsed": 1236572, "internal_node_id": "0.0-197.0"}}, {"uniqueid": "MTK1131:3VD82FOHKRV9DD8BNZUZHXIO9QBOCJ", "current_trial": 270, "dateTime": 1513195723906, "trialdata": {"rt": -1, "stimulus": "<p id=\"stim\">SMOG</p>", "key_press": -1, "type": "PRES_VIS", "word": "smog", "wordID": 1329, "conditions": [24, 1600, "v", 24000], "trial": 7, "serialpos": 5, "trial_type": "single-stim", "trial_index": 2