{"assignmentId": "39ASUFLU6YEB4K6HKHNQQY9K96NXEN", "workerId": "MTK1683", "questiondata": {"origin": "United States", "strat-rehearsal": "19", "marital": "Divorced", "education": "Associate degree", "ethnicity": "Not Hispanic", "color_depth": 24, "distracted": "No", "wrote-notes": "Yes", "strat-other": "", "screen_width": 1600, "avail_screen_width": 1600, "avail_screen_height": 860, "strat-image": "0", "language": "English", "gender": "Male", "age": "27", "gender_other": "", "race": ["White"], "strat-categorize": "92", "pixel_depth": 24, "strat-spatial": "0", "strat-story": "0", "race_other": "", "screen_height": 900}, "bonus": 0, "hitId": "37OPIVELUUA95XRW96YG29ZFIKSAH7", "counterbalance": 1194, "useragent": "Mozilla/5.0 (Windows NT 10.0; Win64; x64) AppleWebKit/537.36 (KHTML, like Gecko) Chrome/63.0.3239.132 Safari/537.36", "eventdata": [{"eventtype": "initialized", "interval": 0, "value": null, "timestamp": 1516129103683}, {"eventtype": "window_resize", "interval": 0, "value": [1600, 853], "timestamp": 1516129103683}, {"eventtype": "window_resize", "interval": 3639, "value": [1604, 853], "timestamp": 1516129107322}, {"eventtype": "window_resize", "interval": 33773, "value": [1600, 809], "timestamp": 1516129141095}, {"eventtype": "focus", "interval": 6993, "value": "off", "timestamp": 1516129148088}, {"eventtype": "focus", "interval": 2, "value": "on", "timestamp": 1516129148090}, {"eventtype": "focus", "interval": 6158, "value": "off", "timestamp": 1516129154248}, {"eventtype": "focus", "interval": 5826, "value": "on", "timestamp": 1516129160074}, {"eventtype": "focus", "interval": 12243, "value": "off", "timestamp": 1516129172317}, {"eventtype": "focus", "interval": 3734, "value": "on", "timestamp": 1516129176051}, {"eventtype": "focus", "interval": 251480, "value": "off", "timestamp": 1516129427531}, {"eventtype": "focus", "interval": 24194, "value": "on", "timestamp": 1516129451725}, {"eventtype": "focus", "interval": 249166, "value": "off", "timestamp": 1516129700891}, {"eventtype": "focus", "interval": 3165, "value": "on", "timestamp": 1516129704056}, {"eventtype": "focus", "interval": 5721, "value": "off", "timestamp": 1516129709777}, {"eventtype": "focus", "interval": 10310, "value": "on", "timestamp": 1516129720087}, {"eventtype": "focus", "interval": 323897, "value": "off", "timestamp": 1516130043984}, {"eventtype": "focus", "interval": 17443, "value": "on", "timestamp": 1516130061427}, {"eventtype": "focus", "interval": 57557, "value": "off", "timestamp": 1516130118984}, {"eventtype": "focus", "interval": 30939, "value": "on", "timestamp": 1516130149923}, {"eventtype": "focus", "interval": 106402, "value": "off", "timestamp": 1516130256325}, {"eventtype": "focus", "interval": 29701, "value": "on", "timestamp": 1516130286026}, {"eventtype": "focus", "interval": 396014, "value": "off", "timestamp": 1516130682040}, {"eventtype": "focus", "interval": 15179, "value": "on", "timestamp": 1516130697219}, {"eventtype": "focus", "interval": 30610, "value": "off", "timestamp": 1516130727829}, {"eventtype": "focus", "interval": 5848, "value": "on", "timestamp": 1516130733677}, {"eventtype": "focus", "interval": 242818, "value": "off", "timestamp": 1516130976495}, {"eventtype": "focus", "interval": 22961, "value": "on", "timestamp": 1516130999456}, {"eventtype": "focus", "interval": 159971, "value": "off", "timestamp": 1516131159427}, {"eventtype": "focus", "interval": 10997, "value": "on", "timestamp": 1516131170424}, {"eventtype": "focus", "interval": 688900, "value": "off", "timestamp": 1516131859324}, {"eventtype": "focus", "interval": 8127, "value": "on", "timestamp": 1516131867451}], "data": [{"current_trial": 0, "trialdata": {"rt": 28329, "trial_type": "text", "internal_node_id": "0.0-0.0", "time_elapsed": 28331, "key_press": 32, "type": "INSTRUCTIONS", "trial_index": 0}, "uniqueid": "MTK1683:39ASUFLU6YEB4K6HKHNQQY9K96NXEN", "dateTime": 1516129142845}, {"current_trial": 1, "trialdata": {"rt": 362, "trial_type": "text", "internal_node_id": "0.0-1.0", "time_elapsed": 28695, "key_press": 32, "type": "INSTRUCTIONS", "trial_index": 1}, "uniqueid": "MTK1683:39ASUFLU6YEB4K6HKHNQQY9K96NXEN", "dateTime": 1516129143208}, {"current_trial": 2, "trialdata": {"rt": [232, 20341], "trial_type": "audio-test", "responses": ["", "ocean"], "internal_node_id": "0.0-2.0", "time_elapsed": 49049, "type": "AUDIO_TEST", "trial_index": 2}, "uniqueid": "MTK1683:39ASUFLU6YEB4K6HKHNQQY9K96NXEN", "dateTime": 1516129163563}, {"current_trial": 3, "trialdata": {"rt": [6597], "trial_type": "audio-test", "responses": ["crystal"], "internal_node_id": "0.0-3.0", "time_elapsed": 55650, "type": "AUDIO_TEST", "trial_index": 3}, "uniqueid": "MTK1683:39ASUFLU6YEB4K6HKHNQQY9K96NXEN", "dateTime": 1516129170164}, {"current_trial": 4, "trialdata": {"rt": [9717], "trial_type": "audio-test", "responses": ["spice"], "internal_node_id": "0.0-4.0", "time_elapsed": 65370, "type": "AUDIO_TEST", "trial_index": 4}, "uniqueid": "MTK1683:39ASUFLU6YEB4K6HKHNQQY9K96NXEN", "dateTime": 1516129179884}, {"current_trial": 5, "trialdata": {"rt": 18087, "trial_type": "survey-text", "responses": "{\"Q0\":\"3am\",\"Q1\":\"12pm\",\"Q2\":\"5\"}", "internal_node_id": "0.0-5.0", "time_elapsed": 84210, "type": "SLEEP_SURVEY", "trial_index": 5}, "uniqueid": "MTK1683:39ASUFLU6YEB4K6HKHNQQY9K96NXEN", "dateTime": 1516129198723}, {"current_trial": 6, "trialdata": {"rt": 30677, "trial_type": "text", "internal_node_id": "0.0-6.0", "time_elapsed": 115888, "key_press": 32, "type": "INSTRUCTIONS", "trial_index": 6}, "uniqueid": "MTK1683:39ASUFLU6YEB4K6HKHNQQY9K96NXEN", "dateTime": 1516129230401}, {"current_trial": 7, "trialdata": {"rt": 20045, "trial_type": "text", "internal_node_id": "0.0-7.0", "time_elapsed": 136434, "key_press": 32, "type": "INSTRUCTIONS", "trial_index": 7}, "uniqueid": "MTK1683:39ASUFLU6YEB4K6HKHNQQY9K96NXEN", "dateTime": 1516129250947}, {"current_trial": 8, "trialdata": {"rt": 9883, "trial_type": "text", "internal_node_id": "0.0-8.0", "time_elapsed": 146820, "key_press": 32, "type": "INSTRUCTIONS", "trial_index": 8}, "uniqueid": "MTK1683:39ASUFLU6YEB4K6HKHNQQY9K96NXEN", "dateTime": 1516129261333}, {"current_trial": 9, "trialdata": {"rt": [8028, 11880, 14615, 17375], "trial_type": "math-distractor", "key_times": [7565, 7670, 8028, 11455, 11564, 11880, 14260, 14420, 14615, 16945, 17140, 17375], "responses": ["26", "16", "11", "14"], "num2": [8, 4, 2, 2, 8], "num3": [9, 7, 5, 3, 9], "conditions": [18, 1200, "a", 18000], "internal_node_id": "0.0-9.0", "key_presses": [98, 102, 13, 97, 102, 13, 97, 97, 13, 97, 100, 13], "trial": 0, "time_elapsed": 165825, "type": "DISTRACTOR", "trial_index": 9, "num1": [9, 5, 4, 9, 5]}, "uniqueid": "MTK1683:39ASUFLU6YEB4K6HKHNQQY9K96NXEN", "dateTime": 1516129280338}, {"current_trial": 10, "trialdata": {"rt": -1, "trial_type": "single-stim", "stimulus": "<p id=\"stim\">10</p>", "internal_node_id": "0.0-10.0-0.0", "time_elapsed": 168828, "key_press": -1, "trial_index": 10}, "uniqueid": "MTK1683:39ASUFLU6YEB4K6HKHNQQY9K96NXEN", "dateTime": 1516129283341}, {"current_trial": 11, "trialdata": {"rt": -1, "trial_type": "single-stim", "stimulus": "<p id=\"stim\">9</p>", "internal_node_id": "0.0-10.0-1.0", "time_elapsed": 169829, "key_press": -1, "trial_index": 11}, "uniqueid": "MTK1683:39ASUFLU6YEB4K6HKHNQQY9K96NXEN", "dateTime": 1516129284343}, {"current_trial": 12, "trialdata": {"rt": -1, "trial_type": "single-stim", "stimulus": "<p id=\"stim\">8</p>", "internal_node_id": "0.0-10.0-2.0", "time_elapsed": 170831, "key_press": -1, "trial_index": 12}, "uniqueid": "MTK1683:39ASUFLU6YEB4K6HKHNQQY9K96NXEN", "dateTime": 1516129285344}, {"current_trial": 13, "trialdata": {"rt": -1, "trial_type": "single-stim", "stimulus": "<p id=\"stim\">7</p>", "internal_node_id": "0.0-10.0-3.0", "time_elapsed": 171832, "key_press": -1, "trial_index": 13}, "uniqueid": "MTK1683:39ASUFLU6YEB4K6HKHNQQY9K96NXEN", "dateTime": 1516129286345}, {"current_trial": 14, "trialdata": {"rt": -1, "trial_type": "single-stim", "stimulus": "<p id=\"stim\">6</p>", "internal_node_id": "0.0-10.0-4.0", "time_elapsed": 172833, "key_press": -1, "trial_index": 14}, "uniqueid": "MTK1683:39ASUFLU6YEB4K6HKHNQQY9K96NXEN", "dateTime": 1516129287346}, {"current_trial": 15, "trialdata": {"rt": -1, "trial_type": "single-stim", "stimulus": "<p id=\"stim\">5</p>", "internal_node_id": "0.0-10.0-5.0", "time_elapsed": 173834, "key_press": -1, "trial_index": 15}, "uniqueid": "MTK1683:39ASUFLU6YEB4K6HKHNQQY9K96NXEN", "dateTime": 1516129288347}, {"current_trial": 16, "trialdata": {"rt": -1, "trial_type": "single-stim", "stimulus": "<p id=\"stim\">4</p>", "internal_node_id": "0.0-10.0-6.0", "time_elapsed": 174835, "key_press": -1, "trial_index": 16}, "uniqueid": "MTK1683:39ASUFLU6YEB4K6HKHNQQY9K96NXEN", "dateTime": 1516129289348}, {"current_trial": 17, "trialdata": {"rt": -1, "trial_type": "single-stim", "stimulus": "<p id=\"stim\">3</p>", "internal_node_id": "0.0-10.0-7.0", "time_elapsed": 175837, "key_press": -1, "trial_index": 17}, "uniqueid": "MTK1683:39ASUFLU6YEB4K6HKHNQQY9K96NXEN", "dateTime": 1516129290350}, {"current_trial": 18, "trialdata": {"rt": -1, "trial_type": "single-stim", "stimulus": "<p id=\"stim\">2</p>", "internal_node_id": "0.0-10.0-8.0", "time_elapsed": 176839, "key_press": -1, "trial_index": 18}, "uniqueid": "MTK1683:39ASUFLU6YEB4K6HKHNQQY9K96NXEN", "dateTime": 1516129291352}, {"current_trial": 19, "trialdata": {"rt": -1, "trial_type": "single-stim", "stimulus": "<p id=\"stim\">1</p>", "internal_node_id": "0.0-10.0-9.0", "time_elapsed": 177840, "key_press": -1, "trial_index": 19}, "uniqueid": "MTK1683:39ASUFLU6YEB4K6HKHNQQY9K96NXEN", "dateTime": 1516129292353}, {"current_trial": 20, "trialdata": {"rt": -1, "trial_type": "single-stim", "stimulus": "<p id=\"stim\">+</p>", "internal_node_id": "0.0-11.0-0.0", "time_elapsed": 179341, "key_press": -1, "type": "FIXATION", "trial_index": 20}, "uniqueid": "MTK1683:39ASUFLU6YEB4K6HKHNQQY9K96NXEN", "dateTime": 1516129293854}, {"current_trial": 21, "trialdata": {"rt": -1000, "trial_type": "single-audio", "word": "shovel", "stimulus": "/static/audio/wordpool/SHOVEL.wav", "conditions": [18, 1200, "a", 18000], "internal_node_id": "0.0-12.0", "trial": 0, "time_elapsed": 181728, "serialpos": 0, "key_press": -1, "wordID": 1294, "type": "PRES_AUD", "trial_index": 21}, "uniqueid": "MTK1683:39ASUFLU6YEB4K6HKHNQQY9K96NXEN", "dateTime": 1516129296242}, {"current_trial": 22, "trialdata": {"rt": -1000, "trial_type": "single-audio", "word": "europe", "stimulus": "/static/audio/wordpool/EUROPE.wav", "conditions": [18, 1200, "a", 18000], "internal_node_id": "0.0-13.0", "trial": 0, "time_elapsed": 183986, "serialpos": 1, "key_press": -1, "wordID": 540, "type": "PRES_AUD", "trial_index": 22}, "uniqueid": "MTK1683:39ASUFLU6YEB4K6HKHNQQY9K96NXEN", "dateTime": 1516129298500}, {"current_trial": 23, "trialdata": {"rt": -1000, "trial_type": "single-audio", "word": "cowboy", "stimulus": "/static/audio/wordpool/COWBOY.wav", "conditions": [18, 1200, "a", 18000], "internal_node_id": "0.0-14.0", "trial": 0, "time_elapsed": 186351, "serialpos": 2, "key_press": -1, "wordID": 394, "type": "PRES_AUD", "trial_index": 23}, "uniqueid": "MTK1683:39ASUFLU6YEB4K6HKHNQQY9K96NXEN", "dateTime": 1516129300864}, {"current_trial": 24, "trialdata": {"rt": -1000, "trial_type": "single-audio", "word": "bunny", "stimulus": "/static/audio/wordpool/BUNNY.wav", "conditions": [18, 1200, "a", 18000], "internal_node_id": "0.0-15.0", "trial": 0, "time_elapsed": 188461, "serialpos": 3, "key_press": -1, "wordID": 197, "type": "PRES_AUD", "trial_index": 24}, "uniqueid": "MTK1683:39ASUFLU6YEB4K6HKHNQQY9K96NXEN", "dateTime": 1516129302974}, {"current_trial": 25, "trialdata": {"rt": -1000, "trial_type": "single-audio", "word": "burglar", "stimulus": "/static/audio/wordpool/BURGLAR.wav", "conditions": [18, 1200, "a", 18000], "internal_node_id": "0.0-16.0", "trial": 0, "time_elapsed": 190703, "serialpos": 4, "key_press": -1, "wordID": 199, "type": "PRES_AUD", "trial_index": 25}, "uniqueid": "MTK1683:39ASUFLU6YEB4K6HKHNQQY9K96NXEN", "dateTime": 1516129305216}, {"current_trial": 26, "trialdata": {"rt": -1000, "trial_type": "single-audio", "word": "journal", "stimulus": "/static/audio/wordpool/JOURNAL.wav", "conditions": [18, 1200, "a", 18000], "internal_node_id": "0.0-17.0", "trial": 0, "time_elapsed": 193061, "serialpos": 5, "key_press": -1, "wordID": 759, "type": "PRES_AUD", "trial_index": 26}, "uniqueid": "MTK1683:39ASUFLU6YEB4K6HKHNQQY9K96NXEN", "dateTime": 1516129307574}, {"current_trial": 27, "trialdata": {"rt": -1000, "trial_type": "single-audio", "word": "spider", "stimulus": "/static/audio/wordpool/SPIDER.wav", "conditions": [18, 1200, "a", 18000], "internal_node_id": "0.0-18.0", "trial": 0, "time_elapsed": 195214, "serialpos": 6, "key_press": -1, "wordID": 1350, "type": "PRES_AUD", "trial_index": 27}, "uniqueid": "MTK1683:39ASUFLU6YEB4K6HKHNQQY9K96NXEN", "dateTime": 1516129309727}, {"current_trial": 28, "trialdata": {"rt": -1000, "trial_type": "single-audio", "word": "picture", "stimulus": "/static/audio/wordpool/PICTURE.wav", "conditions": [18, 1200, "a", 18000], "internal_node_id": "0.0-19.0", "trial": 0, "time_elapsed": 197364, "serialpos": 7, "key_press": -1, "wordID": 1060, "type": "PRES_AUD", "trial_index": 28}, "uniqueid": "MTK1683:39ASUFLU6YEB4K6HKHNQQY9K96NXEN", "dateTime": 1516129311877}, {"current_trial": 29, "trialdata": {"rt": -1000, "trial_type": "single-audio", "word": "infant", "stimulus": "/static/audio/wordpool/INFANT.wav", "conditions": [18, 1200, "a", 18000], "internal_node_id": "0.0-20.0", "trial": 0, "time_elapsed": 199731, "serialpos": 8, "key_press": -1, "wordID": 736, "type": "PRES_AUD", "trial_index": 29}, "uniqueid": "MTK1683:39ASUFLU6YEB4K6HKHNQQY9K96NXEN", "dateTime": 1516129314245}, {"current_trial": 30, "trialdata": {"rt": -1000, "trial_type": "single-audio", "word": "cocoon", "stimulus": "/static/audio/wordpool/COCOON.wav", "conditions": [18, 1200, "a", 18000], "internal_node_id": "0.0-21.0", "trial": 0, "time_elapsed": 201887, "serialpos": 9, "key_press": -1, "wordID": 338, "type": "PRES_AUD", "trial_index": 30}, "uniqueid": "MTK1683:39ASUFLU6YEB4K6HKHNQQY9K96NXEN", "dateTime": 1516129316400}, {"current_trial": 31, "trialdata": {"rt": -1000, "trial_type": "single-audio", "word": "puppy", "stimulus": "/static/audio/wordpool/PUPPY.wav", "conditions": [18, 1200, "a", 18000], "internal_node_id": "0.0-22.0", "trial": 0, "time_elapsed": 204251, "serialpos": 10, "key_press": -1, "wordID": 1143, "type": "PRES_AUD", "trial_index": 31}, "uniqueid": "MTK1683:39ASUFLU6YEB4K6HKHNQQY9K96NXEN", "dateTime": 1516129318764}, {"current_trial": 32, "trialdata": {"rt": -1000, "trial_type": "single-audio", "word": "juggler", "stimulus": "/static/audio/wordpool/JUGGLER.wav", "conditions": [18, 1200, "a", 18000], "internal_node_id": "0.0-23.0", "trial": 0, "time_elapsed": 206317, "serialpos": 11, "key_press": -1, "wordID": 762, "type": "PRES_AUD", "trial_index": 32}, "uniqueid": "MTK1683:39ASUFLU6YEB4K6HKHNQQY9K96NXEN", "dateTime": 1516129320830}, {"current_trial": 33, "trialdata": {"rt": -1000, "trial_type": "single-audio", "word": "oyster", "stimulus": "/static/audio/wordpool/OYSTER.wav", "conditions": [18, 1200, "a", 18000], "internal_node_id": "0.0-24.0", "trial": 0, "time_elapsed": 208426, "serialpos": 12, "key_press": -1, "wordID": 994, "type": "PRES_AUD", "trial_index": 33}, "uniqueid": "MTK1683:39ASUFLU6YEB4K6HKHNQQY9K96NXEN", "dateTime": 1516129322939}, {"current_trial": 34, "trialdata": {"rt": -1000, "trial_type": "single-audio", "word": "pasta", "stimulus": "/static/audio/wordpool/PASTA.wav", "conditions": [18, 1200, "a", 18000], "internal_node_id": "0.0-25.0", "trial": 0, "time_elapsed": 210599, "serialpos": 13, "key_press": -1, "wordID": 1020, "type": "PRES_AUD", "trial_index": 34}, "uniqueid": "MTK1683:39ASUFLU6YEB4K6HKHNQQY9K96NXEN", "dateTime": 1516129325112}, {"current_trial": 35, "trialdata": {"rt": -1000, "trial_type": "single-audio", "word": "diner", "stimulus": "/static/audio/wordpool/DINER.wav", "conditions": [18, 1200, "a", 18000], "internal_node_id": "0.0-26.0", "trial": 0, "time_elapsed": 212864, "serialpos": 14, "key_press": -1, "wordID": 466, "type": "PRES_AUD", "trial_index": 35}, "uniqueid": "MTK1683:39ASUFLU6YEB4K6HKHNQQY9K96NXEN", "dateTime": 1516129327377}, {"current_trial": 36, "trialdata": {"rt": -1000, "trial_type": "single-audio", "word": "sister", "stimulus": "/static/audio/wordpool/SISTER.wav", "conditions": [18, 1200, "a", 18000], "internal_node_id": "0.0-27.0", "trial": 0, "time_elapsed": 215204, "serialpos": 15, "key_press": -1, "wordID": 1311, "type": "PRES_AUD", "trial_index": 36}, "uniqueid": "MTK1683:39ASUFLU6YEB4K6HKHNQQY9K96NXEN", "dateTime": 1516129329717}, {"current_trial": 37, "trialdata": {"rt": -1000, "trial_type": "single-audio", "word": "taxi", "stimulus": "/static/audio/wordpool/TAXI.wav", "conditions": [18, 1200, "a", 18000], "internal_node_id": "0.0-28.0", "trial": 0, "time_elapsed": 217264, "serialpos": 16, "key_press": -1, "wordID": 1437, "type": "PRES_AUD", "trial_index": 37}, "uniqueid": "MTK1683:39ASUFLU6YEB4K6HKHNQQY9K96NXEN", "dateTime": 1516129331777}, {"current_trial": 38, "trialdata": {"rt": -1000, "trial_type": "single-audio", "word": "mop", "stimulus": "/static/audio/wordpool/MOP.wav", "conditions": [18, 1200, "a", 18000], "internal_node_id": "0.0-29.0", "trial": 0, "time_elapsed": 219604, "serialpos": 17, "key_press": -1, "wordID": 915, "type": "PRES_AUD", "trial_index": 38}, "uniqueid": "MTK1683:39ASUFLU6YEB4K6HKHNQQY9K96NXEN", "dateTime": 1516129334117}, {"current_trial": 39, "trialdata": {"rt": -1, "trial_type": "single-stim", "stimulus": "", "internal_node_id": "0.0-30.0-0.0", "time_elapsed": 220897, "key_press": -1, "type": "PRE_RECALL_DELAY", "trial_index": 39}, "uniqueid": "MTK1683:39ASUFLU6YEB4K6HKHNQQY9K96NXEN", "dateTime": 1516129335410}, {"current_trial": 40, "trialdata": {"rt": -1000, "trial_type": "single-audio", "stimulus": "/static/audio/400Hz.wav", "internal_node_id": "0.0-31.0", "time_elapsed": 221400, "key_press": -1, "type": "PRE_RECALL_ALERT", "trial_index": 40}, "uniqueid": "MTK1683:39ASUFLU6YEB4K6HKHNQQY9K96NXEN", "dateTime": 1516129335913}, {"current_trial": 41, "trialdata": {"rt": [2662, 4295, 5848, 9502, 11684, 16432, 25543, 29872], "recwords": ["taxi", "diner", "europe", "monk", "journal", "monster", "spider", "europe"], "key_times": [1887, 2063, 2263, 2333, 2662, 3623, 3727, 3832, 3978, 4048, 4295, 4683, 4827, 5020, 5236, 5583, 5736, 5848, 8456, 8656, 8898, 9068, 9502, 10761, 10979, 11046, 11180, 11306, 11419, 11528, 11684, 15318, 15487, 15695, 15878, 16083, 16212, 16323, 16432, 24663, 24788, 25044, 25149, 25332, 25433, 25543, 28953, 29101, 29212, 29374, 29603, 29751, 29872], "trial_type": "free-recall", "conditions": [18, 1200, "a", 18000], "internal_node_id": "0.0-32.0-0.0", "key_presses": [84, 65, 88, 73, 13, 68, 73, 78, 69, 82, 13, 69, 85, 82, 79, 80, 69, 13, 77, 79, 78, 75, 13, 74, 79, 85, 82, 78, 65, 76, 13, 77, 79, 78, 83, 84, 69, 82, 13, 83, 80, 73, 68, 69, 82, 13, 69, 85, 82, 79, 80, 69, 13], "trial": 0, "time_elapsed": 281404, "type": "FREE_RECALL", "trial_index": 41}, "uniqueid": "MTK1683:39ASUFLU6YEB4K6HKHNQQY9K96NXEN", "dateTime": 1516129395918}, {"current_trial": 42, "trialdata": {"rt": 3342, "trial_type": "text", "internal_node_id": "0.0-33.0", "time_elapsed": 286749, "key_press": 32, "type": "INSTRUCTIONS", "trial_index": 42}, "uniqueid": "MTK1683:39ASUFLU6YEB4K6HKHNQQY9K96NXEN", "dateTime": 1516129401262}, {"current_trial": 43, "trialdata": {"rt": [3155, 6157, 8389, 9898, 12257, 15176], "trial_type": "math-distractor", "key_times": [2919, 3155, 5646, 5856, 6157, 7908, 8089, 8389, 9546, 9653, 9898, 11610, 12053, 12257, 14739, 14931, 15176], "responses": ["9", "17", "14", "12", "11", "16"], "num2": [6, 3, 3, 2, 1, 1, 9], "num3": [1, 6, 7, 2, 2, 6, 6], "conditions": [18, 1200, "a", 18000], "internal_node_id": "0.0-34.0", "key_presses": [105, 13, 97, 103, 13, 97, 100, 13, 97, 98, 13, 97, 97, 13, 97, 102, 13], "trial": 1, "time_elapsed": 306754, "type": "DISTRACTOR", "trial_index": 43, "num1": [2, 8, 4, 8, 8, 9, 6]}, "uniqueid": "MTK1683:39ASUFLU6YEB4K6HKHNQQY9K96NXEN", "dateTime": 1516129421267}, {"current_trial": 44, "trialdata": {"rt": -1, "trial_type": "single-stim", "stimulus": "<p id=\"stim\">10</p>", "internal_node_id": "0.0-35.0-0.0", "time_elapsed": 309756, "key_press": -1, "trial_index": 44}, "uniqueid": "MTK1683:39ASUFLU6YEB4K6HKHNQQY9K96NXEN", "dateTime": 1516129424269}, {"current_trial": 45, "trialdata": {"rt": -1, "trial_type": "single-stim", "stimulus": "<p id=\"stim\">9</p>", "internal_node_id": "0.0-35.0-1.0", "time_elapsed": 310757, "key_press": -1, "trial_index": 45}, "uniqueid": "MTK1683:39ASUFLU6YEB4K6HKHNQQY9K96NXEN", "dateTime": 1516129425271}, {"current_trial": 46, "trialdata": {"rt": -1, "trial_type": "single-stim", "stimulus": "<p id=\"stim\">8</p>", "internal_node_id": "0.0-35.0-2.0", "time_elapsed": 311759, "key_press": -1, "trial_index": 46}, "uniqueid": "MTK1683:39ASUFLU6YEB4K6HKHNQQY9K96NXEN", "dateTime": 1516129426272}, {"current_trial": 47, "trialdata": {"rt": -1, "trial_type": "single-stim", "stimulus": "<p id=\"stim\">7</p>", "internal_node_id": "0.0-35.0-3.0", "time_elapsed": 312761, "key_press": -1, "trial_index": 47}, "uniqueid": "MTK1683:39ASUFLU6YEB4K6HKHNQQY9K96NXEN", "dateTime": 1516129427274}, {"current_trial": 48, "trialdata": {"rt": -1, "trial_type": "single-stim", "stimulus": "<p id=\"stim\">6</p>", "internal_node_id": "0.0-35.0-4.0", "time_elapsed": 313763, "key_press": -1, "trial_index": 48}, "uniqueid": "MTK1683:39ASUFLU6YEB4K6HKHNQQY9K96NXEN", "dateTime": 1516129428276}, {"current_trial": 49, "trialdata": {"rt": -1, "trial_type": "single-stim", "stimulus": "<p id=\"stim\">5</p>", "internal_node_id": "0.0-35.0-5.0", "time_elapsed": 314764, "key_press": -1, "trial_index": 49}, "uniqueid": "MTK1683:39ASUFLU6YEB4K6HKHNQQY9K96NXEN", "dateTime": 1516129429278}, {"current_trial": 50, "trialdata": {"rt": -1, "trial_type": "single-stim", "stimulus": "<p id=\"stim\">4</p>", "internal_node_id": "0.0-35.0-6.0", "time_elapsed": 315766, "key_press": -1, "trial_index": 50}, "uniqueid": "MTK1683:39ASUFLU6YEB4K6HKHNQQY9K96NXEN", "dateTime": 1516129430279}, {"current_trial": 51, "trialdata": {"rt": -1, "trial_type": "single-stim", "stimulus": "<p id=\"stim\">3</p>", "internal_node_id": "0.0-35.0-7.0", "time_elapsed": 316767, "key_press": -1, "trial_index": 51}, "uniqueid": "MTK1683:39ASUFLU6YEB4K6HKHNQQY9K96NXEN", "dateTime": 1516129431280}, {"current_trial": 52, "trialdata": {"rt": -1, "trial_type": "single-stim", "stimulus": "<p id=\"stim\">2</p>", "internal_node_id": "0.0-35.0-8.0", "time_elapsed": 317768, "key_press": -1, "trial_index": 52}, "uniqueid": "MTK1683:39ASUFLU6YEB4K6HKHNQQY9K96NXEN", "dateTime": 1516129432282}, {"current_trial": 53, "trialdata": {"rt": -1, "trial_type": "single-stim", "stimulus": "<p id=\"stim\">1</p>", "internal_node_id": "0.0-35.0-9.0", "time_elapsed": 318769, "key_press": -1, "trial_index": 53}, "uniqueid": "MTK1683:39ASUFLU6YEB4K6HKHNQQY9K96NXEN", "dateTime": 1516129433282}, {"current_trial": 54, "trialdata": {"rt": -1, "trial_type": "single-stim", "stimulus": "<p id=\"stim\">+</p>", "internal_node_id": "0.0-36.0-0.0", "time_elapsed": 320271, "key_press": -1, "type": "FIXATION", "trial_index": 54}, "uniqueid": "MTK1683:39ASUFLU6YEB4K6HKHNQQY9K96NXEN", "dateTime": 1516129434784}, {"current_trial": 55, "trialdata": {"rt": -1000, "trial_type": "single-audio", "word": "butcher", "stimulus": "/static/audio/wordpool/BUTCHER.wav", "conditions": [18, 1200, "a", 18000], "internal_node_id": "0.0-37.0", "trial": 1, "time_elapsed": 322347, "serialpos": 0, "key_press": -1, "wordID": 202, "type": "PRES_AUD", "trial_index": 55}, "uniqueid": "MTK1683:39ASUFLU6YEB4K6HKHNQQY9K96NXEN", "dateTime": 1516129436860}, {"current_trial": 56, "trialdata": {"rt": -1000, "trial_type": "single-audio", "word": "shorts", "stimulus": "/static/audio/wordpool/SHORTS.wav", "conditions": [18, 1200, "a", 18000], "internal_node_id": "0.0-38.0", "trial": 1, "time_elapsed": 324602, "serialpos": 1, "key_press": -1, "wordID": 1292, "type": "PRES_AUD", "trial_index": 56}, "uniqueid": "MTK1683:39ASUFLU6YEB4K6HKHNQQY9K96NXEN", "dateTime": 1516129439115}, {"current_trial": 57, "trialdata": {"rt": -1000, "trial_type": "single-audio", "word": "fleet", "stimulus": "/static/audio/wordpool/FLEET.wav", "conditions": [18, 1200, "a", 18000], "internal_node_id": "0.0-39.0", "trial": 1, "time_elapsed": 326813, "serialpos": 2, "key_press": -1, "wordID": 577, "type": "PRES_AUD", "trial_index": 57}, "uniqueid": "MTK1683:39ASUFLU6YEB4K6HKHNQQY9K96NXEN", "dateTime": 1516129441326}, {"current_trial": 58, "trialdata": {"rt": -1000, "trial_type": "single-audio", "word": "brook", "stimulus": "/static/audio/wordpool/BROOK.wav", "conditions": [18, 1200, "a", 18000], "internal_node_id": "0.0-40.0", "trial": 1, "time_elapsed": 328878, "serialpos": 3, "key_press": -1, "wordID": 176, "type": "PRES_AUD", "trial_index": 58}, "uniqueid": "MTK1683:39ASUFLU6YEB4K6HKHNQQY9K96NXEN", "dateTime": 1516129443391}, {"current_trial": 59, "trialdata": {"rt": -1000, "trial_type": "single-audio", "word": "marker", "stimulus": "/static/audio/wordpool/MARKER.wav", "conditions": [18, 1200, "a", 18000], "internal_node_id": "0.0-41.0", "trial": 1, "time_elapsed": 330918, "serialpos": 4, "key_press": -1, "wordID": 869, "type": "PRES_AUD", "trial_index": 59}, "uniqueid": "MTK1683:39ASUFLU6YEB4K6HKHNQQY9K96NXEN", "dateTime": 1516129445431}, {"current_trial": 60, "trialdata": {"rt": -1000, "trial_type": "single-audio", "word": "glove", "stimulus": "/static/audio/wordpool/GLOVE.wav", "conditions": [18, 1200, "a", 18000], "internal_node_id": "0.0-42.0", "trial": 1, "time_elapsed": 333131, "serialpos": 5, "key_press": -1, "wordID": 641, "type": "PRES_AUD", "trial_index": 60}, "uniqueid": "MTK1683:39ASUFLU6YEB4K6HKHNQQY9K96NXEN", "dateTime": 1516129447644}, {"current_trial": 61, "trialdata": {"rt": -1000, "trial_type": "single-audio", "word": "outdoors", "stimulus": "/static/audio/wordpool/OUTDOORS.wav", "conditions": [18, 1200, "a", 18000], "internal_node_id": "0.0-43.0", "trial": 1, "time_elapsed": 335190, "serialpos": 6, "key_press": -1, "wordID": 986, "type": "PRES_AUD", "trial_index": 61}, "uniqueid": "MTK1683:39ASUFLU6YEB4K6HKHNQQY9K96NXEN", "dateTime": 1516129449703}, {"current_trial": 62, "trialdata": {"rt": -1000, "trial_type": "single-audio", "word": "spool", "stimulus": "/static/audio/wordpool/SPOOL.wav", "conditions": [18, 1200, "a", 18000], "internal_node_id": "0.0-44.0", "trial": 1, "time_elapsed": 337448, "serialpos": 7, "key_press": -1, "wordID": 1355, "type": "PRES_AUD", "trial_index": 62}, "uniqueid": "MTK1683:39ASUFLU6YEB4K6HKHNQQY9K96NXEN", "dateTime": 1516129451961}, {"current_trial": 63, "trialdata": {"rt": -1000, "trial_type": "single-audio", "word": "cousin", "stimulus": "/static/audio/wordpool/COUSIN.wav", "conditions": [18, 1200, "a", 18000], "internal_node_id": "0.0-45.0", "trial": 1, "time_elapsed": 339658, "serialpos": 8, "key_press": -1, "wordID": 391, "type": "PRES_AUD", "trial_index": 63}, "uniqueid": "MTK1683:39ASUFLU6YEB4K6HKHNQQY9K96NXEN", "dateTime": 1516129454171}, {"current_trial": 64, "trialdata": {"rt": -1000, "trial_type": "single-audio", "word": "keeper", "stimulus": "/static/audio/wordpool/KEEPER.wav", "conditions": [18, 1200, "a", 18000], "internal_node_id": "0.0-46.0", "trial": 1, "time_elapsed": 341869, "serialpos": 9, "key_press": -1, "wordID": 768, "type": "PRES_AUD", "trial_index": 64}, "uniqueid": "MTK1683:39ASUFLU6YEB4K6HKHNQQY9K96NXEN", "dateTime": 1516129456382}, {"current_trial": 65, "trialdata": {"rt": -1000, "trial_type": "single-audio", "word": "perch", "stimulus": "/static/audio/wordpool/PERCH.wav", "conditions": [18, 1200, "a", 18000], "internal_node_id": "0.0-47.0", "trial": 1, "time_elapsed": 343911, "serialpos": 10, "key_press": -1, "wordID": 1047, "type": "PRES_AUD", "trial_index": 65}, "uniqueid": "MTK1683:39ASUFLU6YEB4K6HKHNQQY9K96NXEN", "dateTime": 1516129458424}, {"current_trial": 66, "trialdata": {"rt": -1000, "trial_type": "single-audio", "word": "fruit", "stimulus": "/static/audio/wordpool/FRUIT.wav", "conditions": [18, 1200, "a", 18000], "internal_node_id": "0.0-48.0", "trial": 1, "time_elapsed": 346300, "serialpos": 11, "key_press": -1, "wordID": 609, "type": "PRES_AUD", "trial_index": 66}, "uniqueid": "MTK1683:39ASUFLU6YEB4K6HKHNQQY9K96NXEN", "dateTime": 1516129460813}, {"current_trial": 67, "trialdata": {"rt": -1000, "trial_type": "single-audio", "word": "slide", "stimulus": "/static/audio/wordpool/SLIDE.wav", "conditions": [18, 1200, "a", 18000], "internal_node_id": "0.0-49.0", "trial": 1, "time_elapsed": 348441, "serialpos": 12, "key_press": -1, "wordID": 1325, "type": "PRES_AUD", "trial_index": 67}, "uniqueid": "MTK1683:39ASUFLU6YEB4K6HKHNQQY9K96NXEN", "dateTime": 1516129462954}, {"current_trial": 68, "trialdata": {"rt": -1000, "trial_type": "single-audio", "word": "hedge", "stimulus": "/static/audio/wordpool/HEDGE.wav", "conditions": [18, 1200, "a", 18000], "internal_node_id": "0.0-50.0", "trial": 1, "time_elapsed": 350823, "serialpos": 13, "key_press": -1, "wordID": 698, "type": "PRES_AUD", "trial_index": 68}, "uniqueid": "MTK1683:39ASUFLU6YEB4K6HKHNQQY9K96NXEN", "dateTime": 1516129465337}, {"current_trial": 69, "trialdata": {"rt": -1000, "trial_type": "single-audio", "word": "gavel", "stimulus": "/static/audio/wordpool/GAVEL.wav", "conditions": [18, 1200, "a", 18000], "internal_node_id": "0.0-51.0", "trial": 1, "time_elapsed": 352974, "serialpos": 14, "key_press": -1, "wordID": 626, "type": "PRES_AUD", "trial_index": 69}, "uniqueid": "MTK1683:39ASUFLU6YEB4K6HKHNQQY9K96NXEN", "dateTime": 1516129467487}, {"current_trial": 70, "trialdata": {"rt": -1000, "trial_type": "single-audio", "word": "marrow", "stimulus": "/static/audio/wordpool/MARROW.wav", "conditions": [18, 1200, "a", 18000], "internal_node_id": "0.0-52.0", "trial": 1, "time_elapsed": 355289, "serialpos": 15, "key_press": -1, "wordID": 871, "type": "PRES_AUD", "trial_index": 70}, "uniqueid": "MTK1683:39ASUFLU6YEB4K6HKHNQQY9K96NXEN", "dateTime": 1516129469802}, {"current_trial": 71, "trialdata": {"rt": -1000, "trial_type": "single-audio", "word": "seal", "stimulus": "/static/audio/wordpool/SEAL.wav", "conditions": [18, 1200, "a", 18000], "internal_node_id": "0.0-53.0", "trial": 1, "time_elapsed": 357651, "serialpos": 16, "key_press": -1, "wordID": 1261, "type": "PRES_AUD", "trial_index": 71}, "uniqueid": "MTK1683:39ASUFLU6YEB4K6HKHNQQY9K96NXEN", "dateTime": 1516129472164}, {"current_trial": 72, "trialdata": {"rt": -1000, "trial_type": "single-audio", "word": "seagull", "stimulus": "/static/audio/wordpool/SEAGULL.wav", "conditions": [18, 1200, "a", 18000], "internal_node_id": "0.0-54.0", "trial": 1, "time_elapsed": 359849, "serialpos": 17, "key_press": -1, "wordID": 1260, "type": "PRES_AUD", "trial_index": 72}, "uniqueid": "MTK1683:39ASUFLU6YEB4K6HKHNQQY9K96NXEN", "dateTime": 1516129474362}, {"current_trial": 73, "trialdata": {"rt": -1, "trial_type": "single-stim", "stimulus": "", "internal_node_id": "0.0-55.0-0.0", "time_elapsed": 361099, "key_press": -1, "type": "PRE_RECALL_DELAY", "trial_index": 73}, "uniqueid": "MTK1683:39ASUFLU6YEB4K6HKHNQQY9K96NXEN", "dateTime": 1516129475612}, {"current_trial": 74, "trialdata": {"rt": -1000, "trial_type": "single-audio", "stimulus": "/static/audio/400Hz.wav", "internal_node_id": "0.0-56.0", "time_elapsed": 361602, "key_press": -1, "type": "PRE_RECALL_ALERT", "trial_index": 74}, "uniqueid": "MTK1683:39ASUFLU6YEB4K6HKHNQQY9K96NXEN", "dateTime": 1516129476115}, {"current_trial": 75, "trialdata": {"rt": [1914, 3616, 4881, 9915, 11291, 12494, 14022], "recwords": ["sly", "hedge", "fruit", "marrow", "fruit", "seal", "seagull"], "key_times": [1457, 1611, 1766, 1914, 2324, 2472, 2666, 2991, 3136, 3616, 3936, 4140, 4215, 4402, 4506, 4881, 5135, 5262, 5335, 5506, 9690, 9809, 9915, 10201, 10384, 10489, 10677, 10821, 11291, 11856, 12031, 12214, 12322, 12494, 12776, 12961, 13190, 13380, 13524, 13755, 13875, 14022], "trial_type": "free-recall", "conditions": [18, 1200, "a", 18000], "internal_node_id": "0.0-57.0-0.0", "key_presses": [83, 76, 89, 13, 72, 69, 68, 71, 69, 13, 70, 82, 85, 73, 84, 13, 77, 65, 82, 82, 79, 87, 13, 70, 82, 85, 73, 84, 13, 83, 69, 65, 76, 13, 83, 69, 65, 71, 85, 76, 76, 13], "trial": 1, "time_elapsed": 421605, "type": "FREE_RECALL", "trial_index": 75}, "uniqueid": "MTK1683:39ASUFLU6YEB4K6HKHNQQY9K96NXEN", "dateTime": 1516129536119}, {"current_trial": 76, "trialdata": {"rt": 2403, "trial_type": "text", "internal_node_id": "0.0-58.0", "time_elapsed": 426010, "key_press": 78, "type": "INSTRUCTIONS", "trial_index": 76}, "uniqueid": "MTK1683:39ASUFLU6YEB4K6HKHNQQY9K96NXEN", "dateTime": 1516129540523}, {"current_trial": 77, "trialdata": {"rt": [7382, 11279, 13024, 18569, 21789], "trial_type": "math-distractor", "key_times": [7050, 7119, 7382, 9897, 10106, 11279, 12564, 12807, 13024, 18202, 18383, 18569, 21489, 21598, 21789, 23654], "responses": ["21", "13", "10", "22", "12"], "num2": [7, 7, 2, 6, 3, 6], "num3": [5, 5, 2, 7, 5, 1], "conditions": [24, 1600, "a", 24000], "internal_node_id": "0.0-59.0", "key_presses": [98, 97, 13, 97, 99, 13, 97, 96, 13, 98, 98, 13, 97, 98, 13, 97], "trial": 2, "time_elapsed": 451013, "type": "DISTRACTOR", "trial_index": 77, "num1": [8, 1, 6, 9, 4, 3]}, "uniqueid": "MTK1683:39ASUFLU6YEB4K6HKHNQQY9K96NXEN", "dateTime": 1516129565526}, {"current_trial": 78, "trialdata": {"rt": -1, "trial_type": "single-stim", "stimulus": "<p id=\"stim\">10</p>", "internal_node_id": "0.0-60.0-0.0", "time_elapsed": 454016, "key_press": -1, "trial_index": 78}, "uniqueid": "MTK1683:39ASUFLU6YEB4K6HKHNQQY9K96NXEN", "dateTime": 1516129568529}, {"current_trial": 79, "trialdata": {"rt": -1, "trial_type": "single-stim", "stimulus": "<p id=\"stim\">9</p>", "internal_node_id": "0.0-60.0-1.0", "time_elapsed": 455018, "key_press": -1, "trial_index": 79}, "uniqueid": "MTK1683:39ASUFLU6YEB4K6HKHNQQY9K96NXEN", "dateTime": 1516129569531}, {"current_trial": 80, "trialdata": {"rt": -1, "trial_type": "single-stim", "stimulus": "<p id=\"stim\">8</p>", "internal_node_id": "0.0-60.0-2.0", "time_elapsed": 456019, "key_press": -1, "trial_index": 80}, "uniqueid": "MTK1683:39ASUFLU6YEB4K6HKHNQQY9K96NXEN", "dateTime": 1516129570532}, {"current_trial": 81, "trialdata": {"rt": -1, "trial_type": "single-stim", "stimulus": "<p id=\"stim\">7</p>", "internal_node_id": "0.0-60.0-3.0", "time_elapsed": 457019, "key_press": -1, "trial_index": 81}, "uniqueid": "MTK1683:39ASUFLU6YEB4K6HKHNQQY9K96NXEN", "dateTime": 1516129571532}, {"current_trial": 82, "trialdata": {"rt": -1, "trial_type": "single-stim", "stimulus": "<p id=\"stim\">6</p>", "internal_node_id": "0.0-60.0-4.0", "time_elapsed": 458020, "key_press": -1, "trial_index": 82}, "uniqueid": "MTK1683:39ASUFLU6YEB4K6HKHNQQY9K96NXEN", "dateTime": 1516129572533}, {"current_trial": 83, "trialdata": {"rt": -1, "trial_type": "single-stim", "stimulus": "<p id=\"stim\">5</p>", "internal_node_id": "0.0-60.0-5.0", "time_elapsed": 459021, "key_press": -1, "trial_index": 83}, "uniqueid": "MTK1683:39ASUFLU6YEB4K6HKHNQQY9K96NXEN", "dateTime": 1516129573534}, {"current_trial": 84, "trialdata": {"rt": -1, "trial_type": "single-stim", "stimulus": "<p id=\"stim\">4</p>", "internal_node_id": "0.0-60.0-6.0", "time_elapsed": 460022, "key_press": -1, "trial_index": 84}, "uniqueid": "MTK1683:39ASUFLU6YEB4K6HKHNQQY9K96NXEN", "dateTime": 1516129574535}, {"current_trial": 85, "trialdata": {"rt": -1, "trial_type": "single-stim", "stimulus": "<p id=\"stim\">3</p>", "internal_node_id": "0.0-60.0-7.0", "time_elapsed": 461024, "key_press": -1, "trial_index": 85}, "uniqueid": "MTK1683:39ASUFLU6YEB4K6HKHNQQY9K96NXEN", "dateTime": 1516129575537}, {"current_trial": 86, "trialdata": {"rt": -1, "trial_type": "single-stim", "stimulus": "<p id=\"stim\">2</p>", "internal_node_id": "0.0-60.0-8.0", "time_elapsed": 462026, "key_press": -1, "trial_index": 86}, "uniqueid": "MTK1683:39ASUFLU6YEB4K6HKHNQQY9K96NXEN", "dateTime": 1516129576539}, {"current_trial": 87, "trialdata": {"rt": -1, "trial_type": "single-stim", "stimulus": "<p id=\"stim\">1</p>", "internal_node_id": "0.0-60.0-9.0", "time_elapsed": 463026, "key_press": -1, "trial_index": 87}, "uniqueid": "MTK1683:39ASUFLU6YEB4K6HKHNQQY9K96NXEN", "dateTime": 1516129577539}, {"current_trial": 88, "trialdata": {"rt": -1, "trial_type": "single-stim", "stimulus": "<p id=\"stim\">+</p>", "internal_node_id": "0.0-61.0-0.0", "time_elapsed": 464528, "key_press": -1, "type": "FIXATION", "trial_index": 88}, "uniqueid": "MTK1683:39ASUFLU6YEB4K6HKHNQQY9K96NXEN", "dateTime": 1516129579041}, {"current_trial": 89, "trialdata": {"rt": -1000, "trial_type": "single-audio", "word": "dancer", "stimulus": "/static/audio/wordpool/DANCER.wav", "conditions": [24, 1600, "a", 24000], "internal_node_id": "0.0-62.0", "trial": 2, "time_elapsed": 467122, "serialpos": 0, "key_press": -1, "wordID": 436, "type": "PRES_AUD", "trial_index": 89}, "uniqueid": "MTK1683:39ASUFLU6YEB4K6HKHNQQY9K96NXEN", "dateTime": 1516129581635}, {"current_trial": 90, "trialdata": {"rt": -1000, "trial_type": "single-audio", "word": "actor", "stimulus": "/static/audio/wordpool/ACTOR.wav", "conditions": [24, 1600, "a", 24000], "internal_node_id": "0.0-63.0", "trial": 2, "time_elapsed": 469714, "serialpos": 1, "key_press": -1, "wordID": 4, "type": "PRES_AUD", "trial_index": 90}, "uniqueid": "MTK1683:39ASUFLU6YEB4K6HKHNQQY9K96NXEN", "dateTime": 1516129584227}, {"current_trial": 91, "trialdata": {"rt": -1000, "trial_type": "single-audio", "word": "sculpture", "stimulus": "/static/audio/wordpool/SCULPTURE.wav", "conditions": [24, 1600, "a", 24000], "internal_node_id": "0.0-64.0", "trial": 2, "time_elapsed": 472337, "serialpos": 2, "key_press": -1, "wordID": 1257, "type": "PRES_AUD", "trial_index": 91}, "uniqueid": "MTK1683:39ASUFLU6YEB4K6HKHNQQY9K96NXEN", "dateTime": 1516129586850}, {"current_trial": 92, "trialdata": {"rt": -1000, "trial_type": "single-audio", "word": "ankle", "stimulus": "/static/audio/wordpool/ANKLE.wav", "conditions": [24, 1600, "a", 24000], "internal_node_id": "0.0-65.0", "trial": 2, "time_elapsed": 475025, "serialpos": 3, "key_press": -1, "wordID": 23, "type": "PRES_AUD", "trial_index": 92}, "uniqueid": "MTK1683:39ASUFLU6YEB4K6HKHNQQY9K96NXEN", "dateTime": 1516129589538}, {"current_trial": 93, "trialdata": {"rt": -1000, "trial_type": "single-audio", "word": "shoulder", "stimulus": "/static/audio/wordpool/SHOULDER.wav", "conditions": [24, 1600, "a", 24000], "internal_node_id": "0.0-66.0", "trial": 2, "time_elapsed": 477568, "serialpos": 4, "key_press": -1, "wordID": 1293, "type": "PRES_AUD", "trial_index": 93}, "uniqueid": "MTK1683:39ASUFLU6YEB4K6HKHNQQY9K96NXEN", "dateTime": 1516129592081}, {"current_trial": 94, "trialdata": {"rt": -1000, "trial_type": "single-audio", "word": "london", "stimulus": "/static/audio/wordpool/LONDON.wav", "conditions": [24, 1600, "a", 24000], "internal_node_id": "0.0-67.0", "trial": 2, "time_elapsed": 480241, "serialpos": 5, "key_press": -1, "wordID": 842, "type": "PRES_AUD", "trial_index": 94}, "uniqueid": "MTK1683:39ASUFLU6YEB4K6HKHNQQY9K96NXEN", "dateTime": 1516129594754}, {"current_trial": 95, "trialdata": {"rt": -1000, "trial_type": "single-audio", "word": "sidewalk", "stimulus": "/static/audio/wordpool/SIDEWALK.wav", "conditions": [24, 1600, "a", 24000], "internal_node_id": "0.0-68.0", "trial": 2, "time_elapsed": 482972, "serialpos": 6, "key_press": -1, "wordID": 1302, "type": "PRES_AUD", "trial_index": 95}, "uniqueid": "MTK1683:39ASUFLU6YEB4K6HKHNQQY9K96NXEN", "dateTime": 1516129597485}, {"current_trial": 96, "trialdata": {"rt": -1000, "trial_type": "single-audio", "word": "pizza", "stimulus": "/static/audio/wordpool/PIZZA.wav", "conditions": [24, 1600, "a", 24000], "internal_node_id": "0.0-69.0", "trial": 2, "time_elapsed": 485403, "serialpos": 7, "key_press": -1, "wordID": 1078, "type": "PRES_AUD", "trial_index": 96}, "uniqueid": "MTK1683:39ASUFLU6YEB4K6HKHNQQY9K96NXEN", "dateTime": 1516129599916}, {"current_trial": 97, "trialdata": {"rt": -1000, "trial_type": "single-audio", "word": "captive", "stimulus": "/static/audio/wordpool/CAPTIVE.wav", "conditions": [24, 1600, "a", 24000], "internal_node_id": "0.0-70.0", "trial": 2, "time_elapsed": 487854, "serialpos": 8, "key_press": -1, "wordID": 239, "type": "PRES_AUD", "trial_index": 97}, "uniqueid": "MTK1683:39ASUFLU6YEB4K6HKHNQQY9K96NXEN", "dateTime": 1516129602367}, {"current_trial": 98, "trialdata": {"rt": -1000, "trial_type": "single-audio", "word": "belly", "stimulus": "/static/audio/wordpool/BELLY.wav", "conditions": [24, 1600, "a", 24000], "internal_node_id": "0.0-71.0", "trial": 2, "time_elapsed": 490258, "serialpos": 9, "key_press": -1, "wordID": 118, "type": "PRES_AUD", "trial_index": 98}, "uniqueid": "MTK1683:39ASUFLU6YEB4K6HKHNQQY9K96NXEN", "dateTime": 1516129604771}, {"current_trial": 99, "trialdata": {"rt": -1000, "trial_type": "single-audio", "word": "statue", "stimulus": "/static/audio/wordpool/STATUE.wav", "conditions": [24, 1600, "a", 24000], "internal_node_id": "0.0-72.0", "trial": 2, "time_elapsed": 492893, "serialpos": 10, "key_press": -1, "wordID": 1373, "type": "PRES_AUD", "trial_index": 99}, "uniqueid": "MTK1683:39ASUFLU6YEB4K6HKHNQQY9K96NXEN", "dateTime": 1516129607406}, {"current_trial": 100, "trialdata": {"rt": -1000, "trial_type": "single-audio", "word": "outfit", "stimulus": "/static/audio/wordpool/OUTFIT.wav", "conditions": [24, 1600, "a", 24000], "internal_node_id": "0.0-73.0", "trial": 2, "time_elapsed": 495516, "serialpos": 11, "key_press": -1, "wordID": 987, "type": "PRES_AUD", "trial_index": 100}, "uniqueid": "MTK1683:39ASUFLU6YEB4K6HKHNQQY9K96NXEN", "dateTime": 1516129610029}, {"current_trial": 101, "trialdata": {"rt": -1000, "trial_type": "single-audio", "word": "twig", "stimulus": "/static/audio/wordpool/TWIG.wav", "conditions": [24, 1600, "a", 24000], "internal_node_id": "0.0-74.0", "trial": 2, "time_elapsed": 498035, "serialpos": 12, "key_press": -1, "wordID": 1526, "type": "PRES_AUD", "trial_index": 101}, "uniqueid": "MTK1683:39ASUFLU6YEB4K6HKHNQQY9K96NXEN", "dateTime": 1516129612548}, {"current_trial": 102, "trialdata": {"rt": -1000, "trial_type": "single-audio", "word": "drink", "stimulus": "/static/audio/wordpool/DRINK.wav", "conditions": [24, 1600, "a", 24000], "internal_node_id": "0.0-75.0", "trial": 2, "time_elapsed": 500594, "serialpos": 13, "key_press": -1, "wordID": 497, "type": "PRES_AUD", "trial_index": 102}, "uniqueid": "MTK1683:39ASUFLU6YEB4K6HKHNQQY9K96NXEN", "dateTime": 1516129615107}, {"current_trial": 103, "trialdata": {"rt": -1000, "trial_type": "single-audio", "word": "handbag", "stimulus": "/static/audio/wordpool/HANDBAG.wav", "conditions": [24, 1600, "a", 24000], "internal_node_id": "0.0-76.0", "trial": 2, "time_elapsed": 503100, "serialpos": 14, "key_press": -1, "wordID": 683, "type": "PRES_AUD", "trial_index": 103}, "uniqueid": "MTK1683:39ASUFLU6YEB4K6HKHNQQY9K96NXEN", "dateTime": 1516129617613}, {"current_trial": 104, "trialdata": {"rt": -1000, "trial_type": "single-audio", "word": "waitress", "stimulus": "/static/audio/wordpool/WAITRESS.wav", "conditions": [24, 1600, "a", 24000], "internal_node_id": "0.0-77.0", "trial": 2, "time_elapsed": 505891, "serialpos": 15, "key_press": -1, "wordID": 1580, "type": "PRES_AUD", "trial_index": 104}, "uniqueid": "MTK1683:39ASUFLU6YEB4K6HKHNQQY9K96NXEN", "dateTime": 1516129620404}, {"current_trial": 105, "trialdata": {"rt": -1000, "trial_type": "single-audio", "word": "suitcase", "stimulus": "/static/audio/wordpool/SUITCASE.wav", "conditions": [24, 1600, "a", 24000], "internal_node_id": "0.0-78.0", "trial": 2, "time_elapsed": 508533, "serialpos": 16, "key_press": -1, "wordID": 1402, "type": "PRES_AUD", "trial_index": 105}, "uniqueid": "MTK1683:39ASUFLU6YEB4K6HKHNQQY9K96NXEN", "dateTime": 1516129623046}, {"current_trial": 106, "trialdata": {"rt": -1000, "trial_type": "single-audio", "word": "skirt", "stimulus": "/static/audio/wordpool/SKIRT.wav", "conditions": [24, 1600, "a", 24000], "internal_node_id": "0.0-79.0", "trial": 2, "time_elapsed": 510983, "serialpos": 17, "key_press": -1, "wordID": 1318, "type": "PRES_AUD", "trial_index": 106}, "uniqueid": "MTK1683:39ASUFLU6YEB4K6HKHNQQY9K96NXEN", "dateTime": 1516129625496}, {"current_trial": 107, "trialdata": {"rt": -1000, "trial_type": "single-audio", "word": "stove", "stimulus": "/static/audio/wordpool/STOVE.wav", "conditions": [24, 1600, "a", 24000], "internal_node_id": "0.0-80.0", "trial": 2, "time_elapsed": 513580, "serialpos": 18, "key_press": -1, "wordID": 1387, "type": "PRES_AUD", "trial_index": 107}, "uniqueid": "MTK1683:39ASUFLU6YEB4K6HKHNQQY9K96NXEN", "dateTime": 1516129628093}, {"current_trial": 108, "trialdata": {"rt": -1000, "trial_type": "single-audio", "word": "cigar", "stimulus": "/static/audio/wordpool/CIGAR.wav", "conditions": [24, 1600, "a", 24000], "internal_node_id": "0.0-81.0", "trial": 2, "time_elapsed": 516142, "serialpos": 19, "key_press": -1, "wordID": 307, "type": "PRES_AUD", "trial_index": 108}, "uniqueid": "MTK1683:39ASUFLU6YEB4K6HKHNQQY9K96NXEN", "dateTime": 1516129630655}, {"current_trial": 109, "trialdata": {"rt": -1000, "trial_type": "single-audio", "word": "chapel", "stimulus": "/static/audio/wordpool/CHAPEL.wav", "conditions": [24, 1600, "a", 24000], "internal_node_id": "0.0-82.0", "trial": 2, "time_elapsed": 518601, "serialpos": 20, "key_press": -1, "wordID": 279, "type": "PRES_AUD", "trial_index": 109}, "uniqueid": "MTK1683:39ASUFLU6YEB4K6HKHNQQY9K96NXEN", "dateTime": 1516129633114}, {"current_trial": 110, "trialdata": {"rt": -1000, "trial_type": "single-audio", "word": "valve", "stimulus": "/static/audio/wordpool/VALVE.wav", "conditions": [24, 1600, "a", 24000], "internal_node_id": "0.0-83.0", "trial": 2, "time_elapsed": 521391, "serialpos": 21, "key_press": -1, "wordID": 1545, "type": "PRES_AUD", "trial_index": 110}, "uniqueid": "MTK1683:39ASUFLU6YEB4K6HKHNQQY9K96NXEN", "dateTime": 1516129635904}, {"current_trial": 111, "trialdata": {"rt": -1000, "trial_type": "single-audio", "word": "piston", "stimulus": "/static/audio/wordpool/PISTON.wav", "conditions": [24, 1600, "a", 24000], "internal_node_id": "0.0-84.0", "trial": 2, "time_elapsed": 523845, "serialpos": 22, "key_press": -1, "wordID": 1075, "type": "PRES_AUD", "trial_index": 111}, "uniqueid": "MTK1683:39ASUFLU6YEB4K6HKHNQQY9K96NXEN", "dateTime": 1516129638358}, {"current_trial": 112, "trialdata": {"rt": -1000, "trial_type": "single-audio", "word": "hostess", "stimulus": "/static/audio/wordpool/HOSTESS.wav", "conditions": [24, 1600, "a", 24000], "internal_node_id": "0.0-85.0", "trial": 2, "time_elapsed": 526579, "serialpos": 23, "key_press": -1, "wordID": 722, "type": "PRES_AUD", "trial_index": 112}, "uniqueid": "MTK1683:39ASUFLU6YEB4K6HKHNQQY9K96NXEN", "dateTime": 1516129641092}, {"current_trial": 113, "trialdata": {"rt": -1, "trial_type": "single-stim", "stimulus": "", "internal_node_id": "0.0-86.0-0.0", "time_elapsed": 527955, "key_press": -1, "type": "PRE_RECALL_DELAY", "trial_index": 113}, "uniqueid": "MTK1683:39ASUFLU6YEB4K6HKHNQQY9K96NXEN", "dateTime": 1516129642468}, {"current_trial": 114, "trialdata": {"rt": -1000, "trial_type": "single-audio", "stimulus": "/static/audio/400Hz.wav", "internal_node_id": "0.0-87.0", "time_elapsed": 528458, "key_press": -1, "type": "PRE_RECALL_ALERT", "trial_index": 114}, "uniqueid": "MTK1683:39ASUFLU6YEB4K6HKHNQQY9K96NXEN", "dateTime": 1516129642971}, {"current_trial": 115, "trialdata": {"rt": [4074, 6774, 8093, 8468, 11453, 13367, 18543], "recwords": ["chapel", "valve", "piston", "", "hostess", "waitress", "pizza"], "key_times": [2609, 2734, 3269, 3424, 3718, 3860, 4074, 4328, 4529, 5075, 5869, 6144, 6290, 6463, 6774, 7035, 7344, 7523, 7599, 7704, 7863, 8093, 8468, 9931, 10209, 10460, 10569, 11059, 11199, 11339, 11453, 12224, 12274, 12428, 12584, 12799, 12903, 13005, 13130, 13367, 17369, 17614, 17803, 17969, 18159, 18543], "trial_type": "free-recall", "conditions": [24, 1600, "a", 24000], "internal_node_id": "0.0-88.0-0.0", "key_presses": [67, 72, 65, 80, 69, 76, 13, 86, 65, 86, 8, 76, 86, 69, 13, 80, 73, 83, 84, 79, 78, 32, 13, 72, 79, 83, 84, 69, 83, 83, 32, 87, 65, 73, 84, 82, 69, 83, 83, 32, 80, 73, 90, 90, 65, 32], "trial": 2, "time_elapsed": 588462, "type": "FREE_RECALL", "trial_index": 115}, "uniqueid": "MTK1683:39ASUFLU6YEB4K6HKHNQQY9K96NXEN", "dateTime": 1516129702977}, {"current_trial": 116, "trialdata": {"rt": 16660, "trial_type": "text", "internal_node_id": "0.0-89.0", "time_elapsed": 607124, "key_press": 32, "type": "INSTRUCTIONS", "trial_index": 116}, "uniqueid": "MTK1683:39ASUFLU6YEB4K6HKHNQQY9K96NXEN", "dateTime": 1516129721637}, {"current_trial": 117, "trialdata": {"rt": [3015, 5584, 8079, 9845, 12008, 15213, 18424, 20558, 22824], "trial_type": "math-distractor", "key_times": [2107, 2249, 3015, 5129, 5330, 5584, 7639, 7807, 8079, 9431, 9596, 9845, 11725, 11846, 12008, 14820, 14988, 15213, 17970, 18254, 18424, 20129, 20320, 20558, 22469, 22624, 22824], "responses": ["16", "18", "18", "16", "11", "19", "21", "16", "19"], "num2": [5, 9, 2, 5, 2, 8, 9, 5, 9, 9], "num3": [9, 5, 8, 5, 7, 6, 7, 8, 3, 6], "conditions": [12, 800, "a", 24000], "internal_node_id": "0.0-90.0", "key_presses": [97, 102, 13, 97, 104, 13, 97, 104, 13, 97, 102, 13, 97, 97, 13, 97, 105, 13, 98, 97, 13, 97, 102, 13, 97, 105, 13], "trial": 3, "time_elapsed": 633126, "type": "DISTRACTOR", "trial_index": 117, "num1": [2, 4, 8, 6, 2, 5, 3, 3, 7, 7]}, "uniqueid": "MTK1683:39ASUFLU6YEB4K6HKHNQQY9K96NXEN", "dateTime": 1516129747639}, {"current_trial": 118, "trialdata": {"rt": -1, "trial_type": "single-stim", "stimulus": "<p id=\"stim\">10</p>", "internal_node_id": "0.0-91.0-0.0", "time_elapsed": 636129, "key_press": -1, "trial_index": 118}, "uniqueid": "MTK1683:39ASUFLU6YEB4K6HKHNQQY9K96NXEN", "dateTime": 1516129750642}, {"current_trial": 119, "trialdata": {"rt": -1, "trial_type": "single-stim", "stimulus": "<p id=\"stim\">9</p>", "internal_node_id": "0.0-91.0-1.0", "time_elapsed": 637130, "key_press": -1, "trial_index": 119}, "uniqueid": "MTK1683:39ASUFLU6YEB4K6HKHNQQY9K96NXEN", "dateTime": 1516129751643}, {"current_trial": 120, "trialdata": {"rt": -1, "trial_type": "single-stim", "stimulus": "<p id=\"stim\">8</p>", "internal_node_id": "0.0-91.0-2.0", "time_elapsed": 638132, "key_press": -1, "trial_index": 120}, "uniqueid": "MTK1683:39ASUFLU6YEB4K6HKHNQQY9K96NXEN", "dateTime": 1516129752645}, {"current_trial": 121, "trialdata": {"rt": -1, "trial_type": "single-stim", "stimulus": "<p id=\"stim\">7</p>", "internal_node_id": "0.0-91.0-3.0", "time_elapsed": 639133, "key_press": -1, "trial_index": 121}, "uniqueid": "MTK1683:39ASUFLU6YEB4K6HKHNQQY9K96NXEN", "dateTime": 1516129753646}, {"current_trial": 122, "trialdata": {"rt": -1, "trial_type": "single-stim", "stimulus": "<p id=\"stim\">6</p>", "internal_node_id": "0.0-91.0-4.0", "time_elapsed": 640135, "key_press": -1, "trial_index": 122}, "uniqueid": "MTK1683:39ASUFLU6YEB4K6HKHNQQY9K96NXEN", "dateTime": 1516129754648}, {"current_trial": 123, "trialdata": {"rt": -1, "trial_type": "single-stim", "stimulus": "<p id=\"stim\">5</p>", "internal_node_id": "0.0-91.0-5.0", "time_elapsed": 641135, "key_press": -1, "trial_index": 123}, "uniqueid": "MTK1683:39ASUFLU6YEB4K6HKHNQQY9K96NXEN", "dateTime": 1516129755648}, {"current_trial": 124, "trialdata": {"rt": -1, "trial_type": "single-stim", "stimulus": "<p id=\"stim\">4</p>", "internal_node_id": "0.0-91.0-6.0", "time_elapsed": 642137, "key_press": -1, "trial_index": 124}, "uniqueid": "MTK1683:39ASUFLU6YEB4K6HKHNQQY9K96NXEN", "dateTime": 1516129756650}, {"current_trial": 125, "trialdata": {"rt": -1, "trial_type": "single-stim", "stimulus": "<p id=\"stim\">3</p>", "internal_node_id": "0.0-91.0-7.0", "time_elapsed": 643139, "key_press": -1, "trial_index": 125}, "uniqueid": "MTK1683:39ASUFLU6YEB4K6HKHNQQY9K96NXEN", "dateTime": 1516129757652}, {"current_trial": 126, "trialdata": {"rt": -1, "trial_type": "single-stim", "stimulus": "<p id=\"stim\">2</p>", "internal_node_id": "0.0-91.0-8.0", "time_elapsed": 644140, "key_press": -1, "trial_index": 126}, "uniqueid": "MTK1683:39ASUFLU6YEB4K6HKHNQQY9K96NXEN", "dateTime": 1516129758653}, {"current_trial": 127, "trialdata": {"rt": -1, "trial_type": "single-stim", "stimulus": "<p id=\"stim\">1</p>", "internal_node_id": "0.0-91.0-9.0", "time_elapsed": 645142, "key_press": -1, "trial_index": 127}, "uniqueid": "MTK1683:39ASUFLU6YEB4K6HKHNQQY9K96NXEN", "dateTime": 1516129759655}, {"current_trial": 128, "trialdata": {"rt": -1, "trial_type": "single-stim", "stimulus": "<p id=\"stim\">+</p>", "internal_node_id": "0.0-92.0-0.0", "time_elapsed": 646643, "key_press": -1, "type": "FIXATION", "trial_index": 128}, "uniqueid": "MTK1683:39ASUFLU6YEB4K6HKHNQQY9K96NXEN", "dateTime": 1516129761156}, {"current_trial": 129, "trialdata": {"rt": -1000, "trial_type": "single-audio", "word": "hamper", "stimulus": "/static/audio/wordpool/HAMPER.wav", "conditions": [12, 800, "a", 24000], "internal_node_id": "0.0-93.0", "trial": 3, "time_elapsed": 648575, "serialpos": 0, "key_press": -1, "wordID": 681, "type": "PRES_AUD", "trial_index": 129}, "uniqueid": "MTK1683:39ASUFLU6YEB4K6HKHNQQY9K96NXEN", "dateTime": 1516129763088}, {"current_trial": 130, "trialdata": {"rt": -1000, "trial_type": "single-audio", "word": "ozone", "stimulus": "/static/audio/wordpool/OZONE.wav", "conditions": [12, 800, "a", 24000], "internal_node_id": "0.0-94.0", "trial": 3, "time_elapsed": 650523, "serialpos": 1, "key_press": -1, "wordID": 995, "type": "PRES_AUD", "trial_index": 130}, "uniqueid": "MTK1683:39ASUFLU6YEB4K6HKHNQQY9K96NXEN", "dateTime": 1516129765036}, {"current_trial": 131, "trialdata": {"rt": -1000, "trial_type": "single-audio", "word": "motor", "stimulus": "/static/audio/wordpool/MOTOR.wav", "conditions": [12, 800, "a", 24000], "internal_node_id": "0.0-95.0", "trial": 3, "time_elapsed": 652186, "serialpos": 2, "key_press": -1, "wordID": 921, "type": "PRES_AUD", "trial_index": 131}, "uniqueid": "MTK1683:39ASUFLU6YEB4K6HKHNQQY9K96NXEN", "dateTime": 1516129766699}, {"current_trial": 132, "trialdata": {"rt": -1000, "trial_type": "single-audio", "word": "bike", "stimulus": "/static/audio/wordpool/BIKE.wav", "conditions": [12, 800, "a", 24000], "internal_node_id": "0.0-96.0", "trial": 3, "time_elapsed": 653912, "serialpos": 3, "key_press": -1, "wordID": 124, "type": "PRES_AUD", "trial_index": 132}, "uniqueid": "MTK1683:39ASUFLU6YEB4K6HKHNQQY9K96NXEN", "dateTime": 1516129768425}, {"current_trial": 133, "trialdata": {"rt": -1000, "trial_type": "single-audio", "word": "lagoon", "stimulus": "/static/audio/wordpool/LAGOON.wav", "conditions": [12, 800, "a", 24000], "internal_node_id": "0.0-97.0", "trial": 3, "time_elapsed": 655760, "serialpos": 4, "key_press": -1, "wordID": 794, "type": "PRES_AUD", "trial_index": 133}, "uniqueid": "MTK1683:39ASUFLU6YEB4K6HKHNQQY9K96NXEN", "dateTime": 1516129770273}, {"current_trial": 134, "trialdata": {"rt": -1000, "trial_type": "single-audio", "word": "silk", "stimulus": "/static/audio/wordpool/SILK.wav", "conditions": [12, 800, "a", 24000], "internal_node_id": "0.0-98.0", "trial": 3, "time_elapsed": 657575, "serialpos": 5, "key_press": -1, "wordID": 1306, "type": "PRES_AUD", "trial_index": 134}, "uniqueid": "MTK1683:39ASUFLU6YEB4K6HKHNQQY9K96NXEN", "dateTime": 1516129772088}, {"current_trial": 135, "trialdata": {"rt": -1000, "trial_type": "single-audio", "word": "lace", "stimulus": "/static/audio/wordpool/LACE.wav", "conditions": [12, 800, "a", 24000], "internal_node_id": "0.0-99.0", "trial": 3, "time_elapsed": 659342, "serialpos": 6, "key_press": -1, "wordID": 791, "type": "PRES_AUD", "trial_index": 135}, "uniqueid": "MTK1683:39ASUFLU6YEB4K6HKHNQQY9K96NXEN", "dateTime": 1516129773855}, {"current_trial": 136, "trialdata": {"rt": -1000, "trial_type": "single-audio", "word": "proton", "stimulus": "/static/audio/wordpool/PROTON.wav", "conditions": [12, 800, "a", 24000], "internal_node_id": "0.0-100.0", "trial": 3, "time_elapsed": 661274, "serialpos": 7, "key_press": -1, "wordID": 1131, "type": "PRES_AUD", "trial_index": 136}, "uniqueid": "MTK1683:39ASUFLU6YEB4K6HKHNQQY9K96NXEN", "dateTime": 1516129775787}, {"current_trial": 137, "trialdata": {"rt": -1000, "trial_type": "single-audio", "word": "dustpan", "stimulus": "/static/audio/wordpool/DUSTPAN.wav", "conditions": [12, 800, "a", 24000], "internal_node_id": "0.0-101.0", "trial": 3, "time_elapsed": 662880, "serialpos": 8, "key_press": -1, "wordID": 508, "type": "PRES_AUD", "trial_index": 137}, "uniqueid": "MTK1683:39ASUFLU6YEB4K6HKHNQQY9K96NXEN", "dateTime": 1516129777393}, {"current_trial": 138, "trialdata": {"rt": -1000, "trial_type": "single-audio", "word": "blade", "stimulus": "/static/audio/wordpool/BLADE.wav", "conditions": [12, 800, "a", 24000], "internal_node_id": "0.0-102.0", "trial": 3, "time_elapsed": 664723, "serialpos": 9, "key_press": -1, "wordID": 133, "type": "PRES_AUD", "trial_index": 138}, "uniqueid": "MTK1683:39ASUFLU6YEB4K6HKHNQQY9K96NXEN", "dateTime": 1516129779236}, {"current_trial": 139, "trialdata": {"rt": -1000, "trial_type": "single-audio", "word": "poet", "stimulus": "/static/audio/wordpool/POET.wav", "conditions": [12, 800, "a", 24000], "internal_node_id": "0.0-103.0", "trial": 3, "time_elapsed": 666692, "serialpos": 10, "key_press": -1, "wordID": 1094, "type": "PRES_AUD", "trial_index": 139}, "uniqueid": "MTK1683:39ASUFLU6YEB4K6HKHNQQY9K96NXEN", "dateTime": 1516129781206}, {"current_trial": 140, "trialdata": {"rt": -1000, "trial_type": "single-audio", "word": "lake", "stimulus": "/static/audio/wordpool/LAKE.wav", "conditions": [12, 800, "a", 24000], "internal_node_id": "0.0-104.0", "trial": 3, "time_elapsed": 668367, "serialpos": 11, "key_press": -1, "wordID": 795, "type": "PRES_AUD", "trial_index": 140}, "uniqueid": "MTK1683:39ASUFLU6YEB4K6HKHNQQY9K96NXEN", "dateTime": 1516129782880}, {"current_trial": 141, "trialdata": {"rt": -1, "trial_type": "single-stim", "stimulus": "", "internal_node_id": "0.0-105.0-0.0", "time_elapsed": 669634, "key_press": -1, "type": "PRE_RECALL_DELAY", "trial_index": 141}, "uniqueid": "MTK1683:39ASUFLU6YEB4K6HKHNQQY9K96NXEN", "dateTime": 1516129784147}, {"current_trial": 142, "trialdata": {"rt": -1000, "trial_type": "single-audio", "stimulus": "/static/audio/400Hz.wav", "internal_node_id": "0.0-106.0", "time_elapsed": 670138, "key_press": -1, "type": "PRE_RECALL_ALERT", "trial_index": 142}, "uniqueid": "MTK1683:39ASUFLU6YEB4K6HKHNQQY9K96NXEN", "dateTime": 1516129784651}, {"current_trial": 143, "trialdata": {"rt": [6370, 8430, 9355, 24597, 55286], "recwords": ["dustpan", "poet", "lake", "ozone", "tower"], "key_times": [3910, 4104, 4312, 4717, 5245, 5515, 5751, 6017, 6087, 6370, 7000, 7193, 7306, 7447, 8430, 8747, 8896, 9009, 9115, 9355, 22902, 23579, 24205, 24352, 24423, 24597, 54628, 54792, 54936, 55137, 55210, 55286], "trial_type": "free-recall", "conditions": [12, 800, "a", 24000], "internal_node_id": "0.0-107.0-0.0", "key_presses": [68, 85, 83, 75, 8, 84, 80, 65, 78, 13, 80, 79, 69, 84, 13, 76, 65, 75, 69, 13, 79, 90, 79, 78, 69, 13, 84, 79, 87, 69, 82, 13], "trial": 3, "time_elapsed": 730140, "type": "FREE_RECALL", "trial_index": 143}, "uniqueid": "MTK1683:39ASUFLU6YEB4K6HKHNQQY9K96NXEN", "dateTime": 1516129844655}, {"current_trial": 144, "trialdata": {"rt": 134806, "trial_type": "text", "internal_node_id": "0.0-108.0", "time_elapsed": 866950, "key_press": 32, "type": "INSTRUCTIONS", "trial_index": 144}, "uniqueid": "MTK1683:39ASUFLU6YEB4K6HKHNQQY9K96NXEN", "dateTime": 1516129981464}, {"current_trial": 145, "trialdata": {"rt": [2871, 6321, 9719, 11721, 13687, 16066, 18107, 20349, 22559], "trial_type": "math-distractor", "key_times": [2396, 2525, 2871, 5671, 5876, 6321, 9356, 9461, 9719, 11361, 11542, 11721, 13341, 13477, 13687, 15627, 15837, 16066, 17761, 17957, 18107, 19737, 20111, 20349, 22109, 22316, 22559], "responses": ["11", "16", "12", "16", "15", "17", "13", "15", "19"], "num2": [3, 8, 5, 7, 3, 7, 8, 8, 8, 3], "num3": [2, 4, 1, 3, 2, 3, 2, 1, 8, 4], "conditions": [24, 1600, "a", 24000], "internal_node_id": "0.0-109.0", "key_presses": [97, 97, 13, 97, 102, 13, 97, 98, 13, 97, 102, 13, 97, 101, 13, 97, 103, 13, 97, 99, 13, 97, 101, 13, 97, 105, 13], "trial": 4, "time_elapsed": 892955, "type": "DISTRACTOR", "trial_index": 145, "num1": [6, 4, 6, 6, 9, 7, 3, 4, 3, 9]}, "uniqueid": "MTK1683:39ASUFLU6YEB4K6HKHNQQY9K96NXEN", "dateTime": 1516130007468}, {"current_trial": 146, "trialdata": {"rt": -1, "trial_type": "single-stim", "stimulus": "<p id=\"stim\">10</p>", "internal_node_id": "0.0-110.0-0.0", "time_elapsed": 895957, "key_press": -1, "trial_index": 146}, "uniqueid": "MTK1683:39ASUFLU6YEB4K6HKHNQQY9K96NXEN", "dateTime": 1516130010470}, {"current_trial": 147, "trialdata": {"rt": -1, "trial_type": "single-stim", "stimulus": "<p id=\"stim\">9</p>", "internal_node_id": "0.0-110.0-1.0", "time_elapsed": 896960, "key_press": -1, "trial_index": 147}, "uniqueid": "MTK1683:39ASUFLU6YEB4K6HKHNQQY9K96NXEN", "dateTime": 1516130011473}, {"current_trial": 148, "trialdata": {"rt": -1, "trial_type": "single-stim", "stimulus": "<p id=\"stim\">8</p>", "internal_node_id": "0.0-110.0-2.0", "time_elapsed": 897960, "key_press": -1, "trial_index": 148}, "uniqueid": "MTK1683:39ASUFLU6YEB4K6HKHNQQY9K96NXEN", "dateTime": 1516130012473}, {"current_trial": 149, "trialdata": {"rt": -1, "trial_type": "single-stim", "stimulus": "<p id=\"stim\">7</p>", "internal_node_id": "0.0-110.0-3.0", "time_elapsed": 898962, "key_press": -1, "trial_index": 149}, "uniqueid": "MTK1683:39ASUFLU6YEB4K6HKHNQQY9K96NXEN", "dateTime": 1516130013475}, {"current_trial": 150, "trialdata": {"rt": -1, "trial_type": "single-stim", "stimulus": "<p id=\"stim\">6</p>", "internal_node_id": "0.0-110.0-4.0", "time_elapsed": 899964, "key_press": -1, "trial_index": 150}, "uniqueid": "MTK1683:39ASUFLU6YEB4K6HKHNQQY9K96NXEN", "dateTime": 1516130014477}, {"current_trial": 151, "trialdata": {"rt": -1, "trial_type": "single-stim", "stimulus": "<p id=\"stim\">5</p>", "internal_node_id": "0.0-110.0-5.0", "time_elapsed": 900965, "key_press": -1, "trial_index": 151}, "uniqueid": "MTK1683:39ASUFLU6YEB4K6HKHNQQY9K96NXEN", "dateTime": 1516130015478}, {"current_trial": 152, "trialdata": {"rt": -1, "trial_type": "single-stim", "stimulus": "<p id=\"stim\">4</p>", "internal_node_id": "0.0-110.0-6.0", "time_elapsed": 901967, "key_press": -1, "trial_index": 152}, "uniqueid": "MTK1683:39ASUFLU6YEB4K6HKHNQQY9K96NXEN", "dateTime": 1516130016480}, {"current_trial": 153, "trialdata": {"rt": -1, "trial_type": "single-stim", "stimulus": "<p id=\"stim\">3</p>", "internal_node_id": "0.0-110.0-7.0", "time_elapsed": 902969, "key_press": -1, "trial_index": 153}, "uniqueid": "MTK1683:39ASUFLU6YEB4K6HKHNQQY9K96NXEN", "dateTime": 1516130017482}, {"current_trial": 154, "trialdata": {"rt": -1, "trial_type": "single-stim", "stimulus": "<p id=\"stim\">2</p>", "internal_node_id": "0.0-110.0-8.0", "time_elapsed": 903970, "key_press": -1, "trial_index": 154}, "uniqueid": "MTK1683:39ASUFLU6YEB4K6HKHNQQY9K96NXEN", "dateTime": 1516130018483}, {"current_trial": 155, "trialdata": {"rt": -1, "trial_type": "single-stim", "stimulus": "<p id=\"stim\">1</p>", "internal_node_id": "0.0-110.0-9.0", "time_elapsed": 904971, "key_press": -1, "trial_index": 155}, "uniqueid": "MTK1683:39ASUFLU6YEB4K6HKHNQQY9K96NXEN", "dateTime": 1516130019485}, {"current_trial": 156, "trialdata": {"rt": -1, "trial_type": "single-stim", "stimulus": "<p id=\"stim\">+</p>", "internal_node_id": "0.0-111.0-0.0", "time_elapsed": 906473, "key_press": -1, "type": "FIXATION", "trial_index": 156}, "uniqueid": "MTK1683:39ASUFLU6YEB4K6HKHNQQY9K96NXEN", "dateTime": 1516130020987}, {"current_trial": 157, "trialdata": {"rt": -1000, "trial_type": "single-audio", "word": "valley", "stimulus": "/static/audio/wordpool/VALLEY.wav", "conditions": [24, 1600, "a", 24000], "internal_node_id": "0.0-112.0", "trial": 4, "time_elapsed": 908970, "serialpos": 0, "key_press": -1, "wordID": 1544, "type": "PRES_AUD", "trial_index": 157}, "uniqueid": "MTK1683:39ASUFLU6YEB4K6HKHNQQY9K96NXEN", "dateTime": 1516130023484}, {"current_trial": 158, "trialdata": {"rt": -1000, "trial_type": "single-audio", "word": "pastry", "stimulus": "/static/audio/wordpool/PASTRY.wav", "conditions": [24, 1600, "a", 24000], "internal_node_id": "0.0-113.0", "trial": 4, "time_elapsed": 911426, "serialpos": 1, "key_press": -1, "wordID": 1021, "type": "PRES_AUD", "trial_index": 158}, "uniqueid": "MTK1683:39ASUFLU6YEB4K6HKHNQQY9K96NXEN", "dateTime": 1516130025939}, {"current_trial": 159, "trialdata": {"rt": -1000, "trial_type": "single-audio", "word": "mummy", "stimulus": "/static/audio/wordpool/MUMMY.wav", "conditions": [24, 1600, "a", 24000], "internal_node_id": "0.0-114.0", "trial": 4, "time_elapsed": 914187, "serialpos": 2, "key_press": -1, "wordID": 931, "type": "PRES_AUD", "trial_index": 159}, "uniqueid": "MTK1683:39ASUFLU6YEB4K6HKHNQQY9K96NXEN", "dateTime": 1516130028700}, {"current_trial": 160, "trialdata": {"rt": -1000, "trial_type": "single-audio", "word": "donkey", "stimulus": "/static/audio/wordpool/DONKEY.wav", "conditions": [24, 1600, "a", 24000], "internal_node_id": "0.0-115.0", "trial": 4, "time_elapsed": 916731, "serialpos": 3, "key_press": -1, "wordID": 483, "type": "PRES_AUD", "trial_index": 160}, "uniqueid": "MTK1683:39ASUFLU6YEB4K6HKHNQQY9K96NXEN", "dateTime": 1516130031244}, {"current_trial": 161, "trialdata": {"rt": -1000, "trial_type": "single-audio", "word": "briefcase", "stimulus": "/static/audio/wordpool/BRIEFCASE.wav", "conditions": [24, 1600, "a", 24000], "internal_node_id": "0.0-116.0", "trial": 4, "time_elapsed": 919251, "serialpos": 4, "key_press": -1, "wordID": 174, "type": "PRES_AUD", "trial_index": 161}, "uniqueid": "MTK1683:39ASUFLU6YEB4K6HKHNQQY9K96NXEN", "dateTime": 1516130033764}, {"current_trial": 162, "trialdata": {"rt": -1000, "trial_type": "single-audio", "word": "yacht", "stimulus": "/static/audio/wordpool/YACHT.wav", "conditions": [24, 1600, "a", 24000], "internal_node_id": "0.0-117.0", "trial": 4, "time_elapsed": 921848, "serialpos": 5, "key_press": -1, "wordID": 1628, "type": "PRES_AUD", "trial_index": 162}, "uniqueid": "MTK1683:39ASUFLU6YEB4K6HKHNQQY9K96NXEN", "dateTime": 1516130036361}, {"current_trial": 163, "trialdata": {"rt": -1000, "trial_type": "single-audio", "word": "iceberg", "stimulus": "/static/audio/wordpool/ICEBERG.wav", "conditions": [24, 1600, "a", 24000], "internal_node_id": "0.0-118.0", "trial": 4, "time_elapsed": 924381, "serialpos": 6, "key_press": -1, "wordID": 730, "type": "PRES_AUD", "trial_index": 163}, "uniqueid": "MTK1683:39ASUFLU6YEB4K6HKHNQQY9K96NXEN", "dateTime": 1516130038894}, {"current_trial": 164, "trialdata": {"rt": -1000, "trial_type": "single-audio", "word": "creature", "stimulus": "/static/audio/wordpool/CREATURE.wav", "conditions": [24, 1600, "a", 24000], "internal_node_id": "0.0-119.0", "trial": 4, "time_elapsed": 927105, "serialpos": 7, "key_press": -1, "wordID": 402, "type": "PRES_AUD", "trial_index": 164}, "uniqueid": "MTK1683:39ASUFLU6YEB4K6HKHNQQY9K96NXEN", "dateTime": 1516130041618}, {"current_trial": 165, "trialdata": {"rt": -1000, "trial_type": "single-audio", "word": "monster", "stimulus": "/static/audio/wordpool/MONSTER.wav", "conditions": [24, 1600, "a", 24000], "internal_node_id": "0.0-120.0", "trial": 4, "time_elapsed": 929612, "serialpos": 8, "key_press": -1, "wordID": 911, "type": "PRES_AUD", "trial_index": 165}, "uniqueid": "MTK1683:39ASUFLU6YEB4K6HKHNQQY9K96NXEN", "dateTime": 1516130044125}, {"current_trial": 166, "trialdata": {"rt": -1000, "trial_type": "single-audio", "word": "woman", "stimulus": "/static/audio/wordpool/WOMAN.wav", "conditions": [24, 1600, "a", 24000], "internal_node_id": "0.0-121.0", "trial": 4, "time_elapsed": 932347, "serialpos": 9, "key_press": -1, "wordID": 1619, "type": "PRES_AUD", "trial_index": 166}, "uniqueid": "MTK1683:39ASUFLU6YEB4K6HKHNQQY9K96NXEN", "dateTime": 1516130046860}, {"current_trial": 167, "trialdata": {"rt": -1000, "trial_type": "single-audio", "word": "muffin", "stimulus": "/static/audio/wordpool/MUFFIN.wav", "conditions": [24, 1600, "a", 24000], "internal_node_id": "0.0-122.0", "trial": 4, "time_elapsed": 935003, "serialpos": 10, "key_press": -1, "wordID": 928, "type": "PRES_AUD", "trial_index": 167}, "uniqueid": "MTK1683:39ASUFLU6YEB4K6HKHNQQY9K96NXEN", "dateTime": 1516130049516}, {"current_trial": 168, "trialdata": {"rt": -1000, "trial_type": "single-audio", "word": "blouse", "stimulus": "/static/audio/wordpool/BLOUSE.wav", "conditions": [24, 1600, "a", 24000], "internal_node_id": "0.0-123.0", "trial": 4, "time_elapsed": 937444, "serialpos": 11, "key_press": -1, "wordID": 138, "type": "PRES_AUD", "trial_index": 168}, "uniqueid": "MTK1683:39ASUFLU6YEB4K6HKHNQQY9K96NXEN", "dateTime": 1516130051957}, {"current_trial": 169, "trialdata": {"rt": -1000, "trial_type": "single-audio", "word": "snack", "stimulus": "/static/audio/wordpool/SNACK.wav", "conditions": [24, 1600, "a", 24000], "internal_node_id": "0.0-124.0", "trial": 4, "time_elapsed": 940225, "serialpos": 12, "key_press": -1, "wordID": 1330, "type": "PRES_AUD", "trial_index": 169}, "uniqueid": "MTK1683:39ASUFLU6YEB4K6HKHNQQY9K96NXEN", "dateTime": 1516130054738}, {"current_trial": 170, "trialdata": {"rt": -1000, "trial_type": "single-audio", "word": "panther", "stimulus": "/static/audio/wordpool/PANTHER.wav", "conditions": [24, 1600, "a", 24000], "internal_node_id": "0.0-125.0", "trial": 4, "time_elapsed": 942766, "serialpos": 13, "key_press": -1, "wordID": 1008, "type": "PRES_AUD", "trial_index": 170}, "uniqueid": "MTK1683:39ASUFLU6YEB4K6HKHNQQY9K96NXEN", "dateTime": 1516130057279}, {"current_trial": 171, "trialdata": {"rt": -1000, "trial_type": "single-audio", "word": "comet", "stimulus": "/static/audio/wordpool/COMET.wav", "conditions": [24, 1600, "a", 24000], "internal_node_id": "0.0-126.0", "trial": 4, "time_elapsed": 945361, "serialpos": 14, "key_press": -1, "wordID": 352, "type": "PRES_AUD", "trial_index": 171}, "uniqueid": "MTK1683:39ASUFLU6YEB4K6HKHNQQY9K96NXEN", "dateTime": 1516130059874}, {"current_trial": 172, "trialdata": {"rt": -1000, "trial_type": "single-audio", "word": "record", "stimulus": "/static/audio/wordpool/RECORD.wav", "conditions": [24, 1600, "a", 24000], "internal_node_id": "0.0-127.0", "trial": 4, "time_elapsed": 948064, "serialpos": 15, "key_press": -1, "wordID": 1175, "type": "PRES_AUD", "trial_index": 172}, "uniqueid": "MTK1683:39ASUFLU6YEB4K6HKHNQQY9K96NXEN", "dateTime": 1516130062577}, {"current_trial": 173, "trialdata": {"rt": -1000, "trial_type": "single-audio", "word": "female", "stimulus": "/static/audio/wordpool/FEMALE.wav", "conditions": [24, 1600, "a", 24000], "internal_node_id": "0.0-128.0", "trial": 4, "time_elapsed": 950620, "serialpos": 16, "key_press": -1, "wordID": 558, "type": "PRES_AUD", "trial_index": 173}, "uniqueid": "MTK1683:39ASUFLU6YEB4K6HKHNQQY9K96NXEN", "dateTime": 1516130065133}, {"current_trial": 174, "trialdata": {"rt": -1000, "trial_type": "single-audio", "word": "bug", "stimulus": "/static/audio/wordpool/BUG.wav", "conditions": [24, 1600, "a", 24000], "internal_node_id": "0.0-129.0", "trial": 4, "time_elapsed": 953356, "serialpos": 17, "key_press": -1, "wordID": 186, "type": "PRES_AUD", "trial_index": 174}, "uniqueid": "MTK1683:39ASUFLU6YEB4K6HKHNQQY9K96NXEN", "dateTime": 1516130067870}, {"current_trial": 175, "trialdata": {"rt": -1000, "trial_type": "single-audio", "word": "virus", "stimulus": "/static/audio/wordpool/VIRUS.wav", "conditions": [24, 1600, "a", 24000], "internal_node_id": "0.0-130.0", "trial": 4, "time_elapsed": 956084, "serialpos": 18, "key_press": -1, "wordID": 1571, "type": "PRES_AUD", "trial_index": 175}, "uniqueid": "MTK1683:39ASUFLU6YEB4K6HKHNQQY9K96NXEN", "dateTime": 1516130070597}, {"current_trial": 176, "trialdata": {"rt": -1000, "trial_type": "single-audio", "word": "popcorn", "stimulus": "/static/audio/wordpool/POPCORN.wav", "conditions": [24, 1600, "a", 24000], "internal_node_id": "0.0-131.0", "trial": 4, "time_elapsed": 958599, "serialpos": 19, "key_press": -1, "wordID": 1103, "type": "PRES_AUD", "trial_index": 176}, "uniqueid": "MTK1683:39ASUFLU6YEB4K6HKHNQQY9K96NXEN", "dateTime": 1516130073112}, {"current_trial": 177, "trialdata": {"rt": -1000, "trial_type": "single-audio", "word": "eagle", "stimulus": "/static/audio/wordpool/EAGLE.wav", "conditions": [24, 1600, "a", 24000], "internal_node_id": "0.0-132.0", "trial": 4, "time_elapsed": 961261, "serialpos": 20, "key_press": -1, "wordID": 511, "type": "PRES_AUD", "trial_index": 177}, "uniqueid": "MTK1683:39ASUFLU6YEB4K6HKHNQQY9K96NXEN", "dateTime": 1516130075774}, {"current_trial": 178, "trialdata": {"rt": -1000, "trial_type": "single-audio", "word": "apron", "stimulus": "/static/audio/wordpool/APRON.wav", "conditions": [24, 1600, "a", 24000], "internal_node_id": "0.0-133.0", "trial": 4, "time_elapsed": 963999, "serialpos": 21, "key_press": -1, "wordID": 34, "type": "PRES_AUD", "trial_index": 178}, "uniqueid": "MTK1683:39ASUFLU6YEB4K6HKHNQQY9K96NXEN", "dateTime": 1516130078512}, {"current_trial": 179, "trialdata": {"rt": -1000, "trial_type": "single-audio", "word": "camel", "stimulus": "/static/audio/wordpool/CAMEL.wav", "conditions": [24, 1600, "a", 24000], "internal_node_id": "0.0-134.0", "trial": 4, "time_elapsed": 966645, "serialpos": 22, "key_press": -1, "wordID": 222, "type": "PRES_AUD", "trial_index": 179}, "uniqueid": "MTK1683:39ASUFLU6YEB4K6HKHNQQY9K96NXEN", "dateTime": 1516130081158}, {"current_trial": 180, "trialdata": {"rt": -1000, "trial_type": "single-audio", "word": "flag", "stimulus": "/static/audio/wordpool/FLAG.wav", "conditions": [24, 1600, "a", 24000], "internal_node_id": "0.0-135.0", "trial": 4, "time_elapsed": 969312, "serialpos": 23, "key_press": -1, "wordID": 572, "type": "PRES_AUD", "trial_index": 180}, "uniqueid": "MTK1683:39ASUFLU6YEB4K6HKHNQQY9K96NXEN", "dateTime": 1516130083825}, {"current_trial": 181, "trialdata": {"rt": -1, "trial_type": "single-stim", "stimulus": "", "internal_node_id": "0.0-136.0-0.0", "time_elapsed": 970599, "key_press": -1, "type": "PRE_RECALL_DELAY", "trial_index": 181}, "uniqueid": "MTK1683:39ASUFLU6YEB4K6HKHNQQY9K96NXEN", "dateTime": 1516130085113}, {"current_trial": 182, "trialdata": {"rt": -1000, "trial_type": "single-audio", "stimulus": "/static/audio/400Hz.wav", "internal_node_id": "0.0-137.0", "time_elapsed": 971100, "key_press": -1, "type": "PRE_RECALL_ALERT", "trial_index": 182}, "uniqueid": "MTK1683:39ASUFLU6YEB4K6HKHNQQY9K96NXEN", "dateTime": 1516130085613}, {"current_trial": 183, "trialdata": {"rt": [2223, 3533, 5812, 7464, 9271, 10574, 12038, 14308, 16528], "recwords": ["flag", "valley", "monster", "popcorn", "creature", "eagle", "flag", "pastry", "camel"], "key_times": [1189, 1428, 1908, 2078, 2223, 2538, 2734, 2963, 3125, 3189, 3379, 3533, 3758, 3928, 4277, 4489, 4848, 4998, 5193, 5263, 5409, 5527, 5632, 5812, 6072, 6285, 6478, 6703, 6843, 6972, 7108, 7464, 7829, 8007, 8113, 8223, 8373, 8563, 8704, 8772, 9271, 9593, 9762, 9893, 10034, 10108, 10574, 11098, 11509, 11683, 11888, 12038, 12798, 12907, 13048, 13274, 14004, 14204, 14308, 15983, 16093, 16199, 16314, 16423, 16528], "trial_type": "free-recall", "conditions": [24, 1600, "a", 24000], "internal_node_id": "0.0-138.0-0.0", "key_presses": [70, 76, 65, 71, 13, 86, 65, 76, 76, 69, 89, 13, 77, 79, 83, 78, 8, 8, 78, 83, 84, 69, 82, 13, 80, 79, 80, 67, 79, 82, 78, 13, 67, 82, 69, 65, 84, 85, 82, 69, 13, 69, 65, 71, 76, 69, 13, 70, 76, 65, 71, 13, 80, 65, 83, 84, 82, 89, 13, 67, 65, 77, 69, 76, 13], "trial": 4, "time_elapsed": 1031102, "type": "FREE_RECALL", "trial_index": 183}, "uniqueid": "MTK1683:39ASUFLU6YEB4K6HKHNQQY9K96NXEN", "dateTime": 1516130145618}, {"current_trial": 184, "trialdata": {"rt": 4085, "trial_type": "text", "internal_node_id": "0.0-139.0", "time_elapsed": 1037190, "key_press": 32, "type": "INSTRUCTIONS", "trial_index": 184}, "uniqueid": "MTK1683:39ASUFLU6YEB4K6HKHNQQY9K96NXEN", "dateTime": 1516130151703}, {"current_trial": 185, "trialdata": {"rt": [2753, 5311, 10453], "trial_type": "math-distractor", "key_times": [2128, 2288, 2753, 4968, 5123, 5311, 10096, 10278, 10453], "responses": ["11", "11", "22"], "num2": [2, 5, 8, 7], "num3": [7, 3, 9, 5], "conditions": [24, 800, "a", 12000], "internal_node_id": "0.0-140.0", "key_presses": [97, 97, 13, 97, 97, 13, 98, 98, 13], "trial": 5, "time_elapsed": 1051194, "type": "DISTRACTOR", "trial_index": 185, "num1": [2, 3, 5, 9]}, "uniqueid": "MTK1683:39ASUFLU6YEB4K6HKHNQQY9K96NXEN", "dateTime": 1516130165707}, {"current_trial": 186, "trialdata": {"rt": -1, "trial_type": "single-stim", "stimulus": "<p id=\"stim\">10</p>", "internal_node_id": "0.0-141.0-0.0", "time_elapsed": 1054196, "key_press": -1, "trial_index": 186}, "uniqueid": "MTK1683:39ASUFLU6YEB4K6HKHNQQY9K96NXEN", "dateTime": 1516130168709}, {"current_trial": 187, "trialdata": {"rt": -1, "trial_type": "single-stim", "stimulus": "<p id=\"stim\">9</p>", "internal_node_id": "0.0-141.0-1.0", "time_elapsed": 1055197, "key_press": -1, "trial_index": 187}, "uniqueid": "MTK1683:39ASUFLU6YEB4K6HKHNQQY9K96NXEN", "dateTime": 1516130169710}, {"current_trial": 188, "trialdata": {"rt": -1, "trial_type": "single-stim", "stimulus": "<p id=\"stim\">8</p>", "internal_node_id": "0.0-141.0-2.0", "time_elapsed": 1056199, "key_press": -1, "trial_index": 188}, "uniqueid": "MTK1683:39ASUFLU6YEB4K6HKHNQQY9K96NXEN", "dateTime": 1516130170712}, {"current_trial": 189, "trialdata": {"rt": -1, "trial_type": "single-stim", "stimulus": "<p id=\"stim\">7</p>", "internal_node_id": "0.0-141.0-3.0", "time_elapsed": 1057200, "key_press": -1, "trial_index": 189}, "uniqueid": "MTK1683:39ASUFLU6YEB4K6HKHNQQY9K96NXEN", "dateTime": 1516130171713}, {"current_trial": 190, "trialdata": {"rt": -1, "trial_type": "single-stim", "stimulus": "<p id=\"stim\">6</p>", "internal_node_id": "0.0-141.0-4.0", "time_elapsed": 1058201, "key_press": -1, "trial_index": 190}, "uniqueid": "MTK1683:39ASUFLU6YEB4K6HKHNQQY9K96NXEN", "dateTime": 1516130172714}, {"current_trial": 191, "trialdata": {"rt": -1, "trial_type": "single-stim", "stimulus": "<p id=\"stim\">5</p>", "internal_node_id": "0.0-141.0-5.0", "time_elapsed": 1059203, "key_press": -1, "trial_index": 191}, "uniqueid": "MTK1683:39ASUFLU6YEB4K6HKHNQQY9K96NXEN", "dateTime": 1516130173716}, {"current_trial": 192, "trialdata": {"rt": -1, "trial_type": "single-stim", "stimulus": "<p id=\"stim\">4</p>", "internal_node_id": "0.0-141.0-6.0", "time_elapsed": 1060204, "key_press": -1, "trial_index": 192}, "uniqueid": "MTK1683:39ASUFLU6YEB4K6HKHNQQY9K96NXEN", "dateTime": 1516130174717}, {"current_trial": 193, "trialdata": {"rt": -1, "trial_type": "single-stim", "stimulus": "<p id=\"stim\">3</p>", "internal_node_id": "0.0-141.0-7.0", "time_elapsed": 1061206, "key_press": -1, "trial_index": 193}, "uniqueid": "MTK1683:39ASUFLU6YEB4K6HKHNQQY9K96NXEN", "dateTime": 1516130175719}, {"current_trial": 194, "trialdata": {"rt": -1, "trial_type": "single-stim", "stimulus": "<p id=\"stim\">2</p>", "internal_node_id": "0.0-141.0-8.0", "time_elapsed": 1062207, "key_press": -1, "trial_index": 194}, "uniqueid": "MTK1683:39ASUFLU6YEB4K6HKHNQQY9K96NXEN", "dateTime": 1516130176720}, {"current_trial": 195, "trialdata": {"rt": -1, "trial_type": "single-stim", "stimulus": "<p id=\"stim\">1</p>", "internal_node_id": "0.0-141.0-9.0", "time_elapsed": 1063208, "key_press": -1, "trial_index": 195}, "uniqueid": "MTK1683:39ASUFLU6YEB4K6HKHNQQY9K96NXEN", "dateTime": 1516130177721}, {"current_trial": 196, "trialdata": {"rt": -1, "trial_type": "single-stim", "stimulus": "<p id=\"stim\">+</p>", "internal_node_id": "0.0-142.0-0.0", "time_elapsed": 1064710, "key_press": -1, "type": "FIXATION", "trial_index": 196}, "uniqueid": "MTK1683:39ASUFLU6YEB4K6HKHNQQY9K96NXEN", "dateTime": 1516130179223}, {"current_trial": 197, "trialdata": {"rt": -1000, "trial_type": "single-audio", "word": "coffee", "stimulus": "/static/audio/wordpool/COFFEE.wav", "conditions": [24, 800, "a", 12000], "internal_node_id": "0.0-143.0", "trial": 5, "time_elapsed": 1066571, "serialpos": 0, "key_press": -1, "wordID": 340, "type": "PRES_AUD", "trial_index": 197}, "uniqueid": "MTK1683:39ASUFLU6YEB4K6HKHNQQY9K96NXEN", "dateTime": 1516130181084}, {"current_trial": 198, "trialdata": {"rt": -1000, "trial_type": "single-audio", "word": "money", "stimulus": "/static/audio/wordpool/MONEY.wav", "conditions": [24, 800, "a", 12000], "internal_node_id": "0.0-144.0", "trial": 5, "time_elapsed": 1068183, "serialpos": 1, "key_press": -1, "wordID": 907, "type": "PRES_AUD", "trial_index": 198}, "uniqueid": "MTK1683:39ASUFLU6YEB4K6HKHNQQY9K96NXEN", "dateTime": 1516130182696}, {"current_trial": 199, "trialdata": {"rt": -1000, "trial_type": "single-audio", "word": "hornet", "stimulus": "/static/audio/wordpool/HORNET.wav", "conditions": [24, 800, "a", 12000], "internal_node_id": "0.0-145.0", "trial": 5, "time_elapsed": 1070055, "serialpos": 2, "key_press": -1, "wordID": 717, "type": "PRES_AUD", "trial_index": 199}, "uniqueid": "MTK1683:39ASUFLU6YEB4K6HKHNQQY9K96NXEN", "dateTime": 1516130184568}, {"current_trial": 200, "trialdata": {"rt": -1000, "trial_type": "single-audio", "word": "mask", "stimulus": "/static/audio/wordpool/MASK.wav", "conditions": [24, 800, "a", 12000], "internal_node_id": "0.0-146.0", "trial": 5, "time_elapsed": 1071673, "serialpos": 3, "key_press": -1, "wordID": 875, "type": "PRES_AUD", "trial_index": 200}, "uniqueid": "MTK1683:39ASUFLU6YEB4K6HKHNQQY9K96NXEN", "dateTime": 1516130186186}, {"current_trial": 201, "trialdata": {"rt": -1000, "trial_type": "single-audio", "word": "scotch", "stimulus": "/static/audio/wordpool/SCOTCH.wav", "conditions": [24, 800, "a", 12000], "internal_node_id": "0.0-147.0", "trial": 5, "time_elapsed": 1073609, "serialpos": 4, "key_press": -1, "wordID": 1250, "type": "PRES_AUD", "trial_index": 201}, "uniqueid": "MTK1683:39ASUFLU6YEB4K6HKHNQQY9K96NXEN", "dateTime": 1516130188122}, {"current_trial": 202, "trialdata": {"rt": -1000, "trial_type": "single-audio", "word": "girl", "stimulus": "/static/audio/wordpool/GIRL.wav", "conditions": [24, 800, "a", 12000], "internal_node_id": "0.0-148.0", "trial": 5, "time_elapsed": 1075340, "serialpos": 5, "key_press": -1, "wordID": 636, "type": "PRES_AUD", "trial_index": 202}, "uniqueid": "MTK1683:39ASUFLU6YEB4K6HKHNQQY9K96NXEN", "dateTime": 1516130189853}, {"current_trial": 203, "trialdata": {"rt": -1000, "trial_type": "single-audio", "word": "coin", "stimulus": "/static/audio/wordpool/COIN.wav", "conditions": [24, 800, "a", 12000], "internal_node_id": "0.0-149.0", "trial": 5, "time_elapsed": 1077214, "serialpos": 6, "key_press": -1, "wordID": 342, "type": "PRES_AUD", "trial_index": 203}, "uniqueid": "MTK1683:39ASUFLU6YEB4K6HKHNQQY9K96NXEN", "dateTime": 1516130191727}, {"current_trial": 204, "trialdata": {"rt": -1000, "trial_type": "single-audio", "word": "mammal", "stimulus": "/static/audio/wordpool/MAMMAL.wav", "conditions": [24, 800, "a", 12000], "internal_node_id": "0.0-150.0", "trial": 5, "time_elapsed": 1079126, "serialpos": 7, "key_press": -1, "wordID": 860, "type": "PRES_AUD", "trial_index": 204}, "uniqueid": "MTK1683:39ASUFLU6YEB4K6HKHNQQY9K96NXEN", "dateTime": 1516130193639}, {"current_trial": 205, "trialdata": {"rt": -1000, "trial_type": "single-audio", "word": "brother", "stimulus": "/static/audio/wordpool/BROTHER.wav", "conditions": [24, 800, "a", 12000], "internal_node_id": "0.0-151.0", "trial": 5, "time_elapsed": 1080994, "serialpos": 8, "key_press": -1, "wordID": 178, "type": "PRES_AUD", "trial_index": 205}, "uniqueid": "MTK1683:39ASUFLU6YEB4K6HKHNQQY9K96NXEN", "dateTime": 1516130195507}, {"current_trial": 206, "trialdata": {"rt": -1000, "trial_type": "single-audio", "word": "sibling", "stimulus": "/static/audio/wordpool/SIBLING.wav", "conditions": [24, 800, "a", 12000], "internal_node_id": "0.0-152.0", "trial": 5, "time_elapsed": 1082951, "serialpos": 9, "key_press": -1, "wordID": 1300, "type": "PRES_AUD", "trial_index": 206}, "uniqueid": "MTK1683:39ASUFLU6YEB4K6HKHNQQY9K96NXEN", "dateTime": 1516130197464}, {"current_trial": 207, "trialdata": {"rt": -1000, "trial_type": "single-audio", "word": "dolphin", "stimulus": "/static/audio/wordpool/DOLPHIN.wav", "conditions": [24, 800, "a", 12000], "internal_node_id": "0.0-153.0", "trial": 5, "time_elapsed": 1084665, "serialpos": 10, "key_press": -1, "wordID": 482, "type": "PRES_AUD", "trial_index": 207}, "uniqueid": "MTK1683:39ASUFLU6YEB4K6HKHNQQY9K96NXEN", "dateTime": 1516130199178}, {"current_trial": 208, "trialdata": {"rt": -1000, "trial_type": "single-audio", "word": "sparrow", "stimulus": "/static/audio/wordpool/SPARROW.wav", "conditions": [24, 800, "a", 12000], "internal_node_id": "0.0-154.0", "trial": 5, "time_elapsed": 1086448, "serialpos": 11, "key_press": -1, "wordID": 1346, "type": "PRES_AUD", "trial_index": 208}, "uniqueid": "MTK1683:39ASUFLU6YEB4K6HKHNQQY9K96NXEN", "dateTime": 1516130200961}, {"current_trial": 209, "trialdata": {"rt": -1000, "trial_type": "single-audio", "word": "lily", "stimulus": "/static/audio/wordpool/LILY.wav", "conditions": [24, 800, "a", 12000], "internal_node_id": "0.0-155.0", "trial": 5, "time_elapsed": 1088258, "serialpos": 12, "key_press": -1, "wordID": 820, "type": "PRES_AUD", "trial_index": 209}, "uniqueid": "MTK1683:39ASUFLU6YEB4K6HKHNQQY9K96NXEN", "dateTime": 1516130202771}, {"current_trial": 210, "trialdata": {"rt": -1000, "trial_type": "single-audio", "word": "compass", "stimulus": "/static/audio/wordpool/COMPASS.wav", "conditions": [24, 800, "a", 12000], "internal_node_id": "0.0-156.0", "trial": 5, "time_elapsed": 1090250, "serialpos": 13, "key_press": -1, "wordID": 357, "type": "PRES_AUD", "trial_index": 210}, "uniqueid": "MTK1683:39ASUFLU6YEB4K6HKHNQQY9K96NXEN", "dateTime": 1516130204763}, {"current_trial": 211, "trialdata": {"rt": -1000, "trial_type": "single-audio", "word": "zipper", "stimulus": "/static/audio/wordpool/ZIPPER.wav", "conditions": [24, 800, "a", 12000], "internal_node_id": "0.0-157.0", "trial": 5, "time_elapsed": 1092201, "serialpos": 14, "key_press": -1, "wordID": 1635, "type": "PRES_AUD", "trial_index": 211}, "uniqueid": "MTK1683:39ASUFLU6YEB4K6HKHNQQY9K96NXEN", "dateTime": 1516130206714}, {"current_trial": 212, "trialdata": {"rt": -1000, "trial_type": "single-audio", "word": "arm", "stimulus": "/static/audio/wordpool/ARM.wav", "conditions": [24, 800, "a", 12000], "internal_node_id": "0.0-158.0", "trial": 5, "time_elapsed": 1093827, "serialpos": 15, "key_press": -1, "wordID": 37, "type": "PRES_AUD", "trial_index": 212}, "uniqueid": "MTK1683:39ASUFLU6YEB4K6HKHNQQY9K96NXEN", "dateTime": 1516130208340}, {"current_trial": 213, "trialdata": {"rt": -1000, "trial_type": "single-audio", "word": "eyelash", "stimulus": "/static/audio/wordpool/EYELASH.wav", "conditions": [24, 800, "a", 12000], "internal_node_id": "0.0-159.0", "trial": 5, "time_elapsed": 1095518, "serialpos": 16, "key_press": -1, "wordID": 545, "type": "PRES_AUD", "trial_index": 213}, "uniqueid": "MTK1683:39ASUFLU6YEB4K6HKHNQQY9K96NXEN", "dateTime": 1516130210032}, {"current_trial": 214, "trialdata": {"rt": -1000, "trial_type": "single-audio", "word": "supper", "stimulus": "/static/audio/wordpool/SUPPER.wav", "conditions": [24, 800, "a", 12000], "internal_node_id": "0.0-160.0", "trial": 5, "time_elapsed": 1097144, "serialpos": 17, "key_press": -1, "wordID": 1410, "type": "PRES_AUD", "trial_index": 214}, "uniqueid": "MTK1683:39ASUFLU6YEB4K6HKHNQQY9K96NXEN", "dateTime": 1516130211657}, {"current_trial": 215, "trialdata": {"rt": -1000, "trial_type": "single-audio", "word": "pebble", "stimulus": "/static/audio/wordpool/PEBBLE.wav", "conditions": [24, 800, "a", 12000], "internal_node_id": "0.0-161.0", "trial": 5, "time_elapsed": 1099071, "serialpos": 18, "key_press": -1, "wordID": 1034, "type": "PRES_AUD", "trial_index": 215}, "uniqueid": "MTK1683:39ASUFLU6YEB4K6HKHNQQY9K96NXEN", "dateTime": 1516130213584}, {"current_trial": 216, "trialdata": {"rt": -1000, "trial_type": "single-audio", "word": "parent", "stimulus": "/static/audio/wordpool/PARENT.wav", "conditions": [24, 800, "a", 12000], "internal_node_id": "0.0-162.0", "trial": 5, "time_elapsed": 1100795, "serialpos": 19, "key_press": -1, "wordID": 1012, "type": "PRES_AUD", "trial_index": 216}, "uniqueid": "MTK1683:39ASUFLU6YEB4K6HKHNQQY9K96NXEN", "dateTime": 1516130215308}, {"current_trial": 217, "trialdata": {"rt": -1000, "trial_type": "single-audio", "word": "kidney", "stimulus": "/static/audio/wordpool/KIDNEY.wav", "conditions": [24, 800, "a", 12000], "internal_node_id": "0.0-163.0", "trial": 5, "time_elapsed": 1102579, "serialpos": 20, "key_press": -1, "wordID": 775, "type": "PRES_AUD", "trial_index": 217}, "uniqueid": "MTK1683:39ASUFLU6YEB4K6HKHNQQY9K96NXEN", "dateTime": 1516130217092}, {"current_trial": 218, "trialdata": {"rt": -1000, "trial_type": "single-audio", "word": "survey", "stimulus": "/static/audio/wordpool/SURVEY.wav", "conditions": [24, 800, "a", 12000], "internal_node_id": "0.0-164.0", "trial": 5, "time_elapsed": 1104188, "serialpos": 21, "key_press": -1, "wordID": 1413, "type": "PRES_AUD", "trial_index": 218}, "uniqueid": "MTK1683:39ASUFLU6YEB4K6HKHNQQY9K96NXEN", "dateTime": 1516130218701}, {"current_trial": 219, "trialdata": {"rt": -1000, "trial_type": "single-audio", "word": "report", "stimulus": "/static/audio/wordpool/REPORT.wav", "conditions": [24, 800, "a", 12000], "internal_node_id": "0.0-165.0", "trial": 5, "time_elapsed": 1105954, "serialpos": 22, "key_press": -1, "wordID": 1183, "type": "PRES_AUD", "trial_index": 219}, "uniqueid": "MTK1683:39ASUFLU6YEB4K6HKHNQQY9K96NXEN", "dateTime": 1516130220468}, {"current_trial": 220, "trialdata": {"rt": -1000, "trial_type": "single-audio", "word": "picnic", "stimulus": "/static/audio/wordpool/PICNIC.wav", "conditions": [24, 800, "a", 12000], "internal_node_id": "0.0-166.0", "trial": 5, "time_elapsed": 1107619, "serialpos": 23, "key_press": -1, "wordID": 1059, "type": "PRES_AUD", "trial_index": 220}, "uniqueid": "MTK1683:39ASUFLU6YEB4K6HKHNQQY9K96NXEN", "dateTime": 1516130222132}, {"current_trial": 221, "trialdata": {"rt": -1, "trial_type": "single-stim", "stimulus": "", "internal_node_id": "0.0-167.0-0.0", "time_elapsed": 1109013, "key_press": -1, "type": "PRE_RECALL_DELAY", "trial_index": 221}, "uniqueid": "MTK1683:39ASUFLU6YEB4K6HKHNQQY9K96NXEN", "dateTime": 1516130223526}, {"current_trial": 222, "trialdata": {"rt": -1000, "trial_type": "single-audio", "stimulus": "/static/audio/400Hz.wav", "internal_node_id": "0.0-168.0", "time_elapsed": 1109514, "key_press": -1, "type": "PRE_RECALL_ALERT", "trial_index": 222}, "uniqueid": "MTK1683:39ASUFLU6YEB4K6HKHNQQY9K96NXEN", "dateTime": 1516130224028}, {"current_trial": 223, "trialdata": {"rt": [3639, 4834, 6494, 8334, 9361, 19693, 25135], "recwords": ["survey", "report", "parents", "coin", "money", "picknick", "paper"], "key_times": [1944, 2719, 2959, 3199, 3334, 3484, 3639, 3997, 4099, 4291, 4469, 4542, 4722, 4834, 5747, 5849, 5983, 6088, 6237, 6314, 6347, 6494, 6884, 7034, 7460, 8159, 8334, 8611, 8774, 8915, 9024, 9194, 9361, 11909, 12155, 12359, 12465, 12654, 13564, 14097, 14594, 14634, 14659, 14694, 14725, 14763, 14795, 14826, 14859, 18409, 18639, 18780, 18895, 19129, 19314, 19485, 19554, 19693, 24614, 24760, 24870, 24994, 25061, 25135], "trial_type": "free-recall", "conditions": [24, 800, "a", 12000], "internal_node_id": "0.0-169.0-0.0", "key_presses": [83, 85, 82, 86, 69, 89, 13, 82, 69, 80, 79, 82, 84, 13, 80, 65, 82, 69, 78, 84, 83, 13, 67, 79, 73, 78, 13, 77, 79, 78, 69, 89, 13, 80, 73, 67, 75, 78, 8, 8, 8, 8, 8, 8, 8, 8, 8, 8, 8, 80, 73, 67, 75, 78, 73, 67, 75, 13, 80, 65, 80, 69, 82, 13], "trial": 5, "time_elapsed": 1169517, "type": "FREE_RECALL", "trial_index": 223}, "uniqueid": "MTK1683:39ASUFLU6YEB4K6HKHNQQY9K96NXEN", "dateTime": 1516130284032}, {"current_trial": 224, "trialdata": {"rt": 1202, "trial_type": "text", "internal_node_id": "0.0-170.0", "time_elapsed": 1172721, "key_press": 32, "type": "INSTRUCTIONS", "trial_index": 224}, "uniqueid": "MTK1683:39ASUFLU6YEB4K6HKHNQQY9K96NXEN", "dateTime": 1516130287234}, {"current_trial": 225, "trialdata": {"rt": [3543, 5618, 8021, 10747], "trial_type": "math-distractor", "key_times": [2963, 3129, 3543, 5243, 5413, 5618, 7327, 8021, 10312, 10498, 10747], "responses": ["20", "15", "8", "16"], "num2": [7, 2, 2, 2, 8], "num3": [6, 4, 5, 5, 3], "conditions": [12, 800, "a", 12000], "internal_node_id": "0.0-171.0", "key_presses": [98, 96, 13, 97, 101, 13, 104, 13, 97, 102, 13], "trial": 6, "time_elapsed": 1186724, "type": "DISTRACTOR", "trial_index": 225, "num1": [7, 9, 1, 9, 6]}, "uniqueid": "MTK1683:39ASUFLU6YEB4K6HKHNQQY9K96NXEN", "dateTime": 1516130301237}, {"current_trial": 226, "trialdata": {"rt": -1, "trial_type": "single-stim", "stimulus": "<p id=\"stim\">10</p>", "internal_node_id": "0.0-172.0-0.0", "time_elapsed": 1189726, "key_press": -1, "trial_index": 226}, "uniqueid": "MTK1683:39ASUFLU6YEB4K6HKHNQQY9K96NXEN", "dateTime": 1516130304239}, {"current_trial": 227, "trialdata": {"rt": -1, "trial_type": "single-stim", "stimulus": "<p id=\"stim\">9</p>", "internal_node_id": "0.0-172.0-1.0", "time_elapsed": 1190727, "key_press": -1, "trial_index": 227}, "uniqueid": "MTK1683:39ASUFLU6YEB4K6HKHNQQY9K96NXEN", "dateTime": 1516130305240}, {"current_trial": 228, "trialdata": {"rt": -1, "trial_type": "single-stim", "stimulus": "<p id=\"stim\">8</p>", "internal_node_id": "0.0-172.0-2.0", "time_elapsed": 1191729, "key_press": -1, "trial_index": 228}, "uniqueid": "MTK1683:39ASUFLU6YEB4K6HKHNQQY9K96NXEN", "dateTime": 1516130306242}, {"current_trial": 229, "trialdata": {"rt": -1, "trial_type": "single-stim", "stimulus": "<p id=\"stim\">7</p>", "internal_node_id": "0.0-172.0-3.0", "time_elapsed": 1192730, "key_press": -1, "trial_index": 229}, "uniqueid": "MTK1683:39ASUFLU6YEB4K6HKHNQQY9K96NXEN", "dateTime": 1516130307244}, {"current_trial": 230, "trialdata": {"rt": -1, "trial_type": "single-stim", "stimulus": "<p id=\"stim\">6</p>", "internal_node_id": "0.0-172.0-4.0", "time_elapsed": 1193731, "key_press": -1, "trial_index": 230}, "uniqueid": "MTK1683:39ASUFLU6YEB4K6HKHNQQY9K96NXEN", "dateTime": 1516130308245}, {"current_trial": 231, "trialdata": {"rt": -1, "trial_type": "single-stim", "stimulus": "<p id=\"stim\">5</p>", "internal_node_id": "0.0-172.0-5.0", "time_elapsed": 1194733, "key_press": -1, "trial_index": 231}, "uniqueid": "MTK1683:39ASUFLU6YEB4K6HKHNQQY9K96NXEN", "dateTime": 1516130309246}, {"current_trial": 232, "trialdata": {"rt": -1, "trial_type": "single-stim", "stimulus": "<p id=\"stim\">4</p>", "internal_node_id": "0.0-172.0-6.0", "time_elapsed": 1195734, "key_press": -1, "trial_index": 232}, "uniqueid": "MTK1683:39ASUFLU6YEB4K6HKHNQQY9K96NXEN", "dateTime": 1516130310247}, {"current_trial": 233, "trialdata": {"rt": -1, "trial_type": "single-stim", "stimulus": "<p id=\"stim\">3</p>", "internal_node_id": "0.0-172.0-7.0", "time_elapsed": 1196735, "key_press": -1, "trial_index": 233}, "uniqueid": "MTK1683:39ASUFLU6YEB4K6HKHNQQY9K96NXEN", "dateTime": 1516130311248}, {"current_trial": 234, "trialdata": {"rt": -1, "trial_type": "single-stim", "stimulus": "<p id=\"stim\">2</p>", "internal_node_id": "0.0-172.0-8.0", "time_elapsed": 1197736, "key_press": -1, "trial_index": 234}, "uniqueid": "MTK1683:39ASUFLU6YEB4K6HKHNQQY9K96NXEN", "dateTime": 1516130312249}, {"current_trial": 235, "trialdata": {"rt": -1, "trial_type": "single-stim", "stimulus": "<p id=\"stim\">1</p>", "internal_node_id": "0.0-172.0-9.0", "time_elapsed": 1198737, "key_press": -1, "trial_index": 235}, "uniqueid": "MTK1683:39ASUFLU6YEB4K6HKHNQQY9K96NXEN", "dateTime": 1516130313250}, {"current_trial": 236, "trialdata": {"rt": -1, "trial_type": "single-stim", "stimulus": "<p id=\"stim\">+</p>", "internal_node_id": "0.0-173.0-0.0", "time_elapsed": 1200239, "key_press": -1, "type": "FIXATION", "trial_index": 236}, "uniqueid": "MTK1683:39ASUFLU6YEB4K6HKHNQQY9K96NXEN", "dateTime": 1516130314752}, {"current_trial": 237, "trialdata": {"rt": -1000, "trial_type": "single-audio", "word": "receipt", "stimulus": "/static/audio/wordpool/RECEIPT.wav", "conditions": [12, 800, "a", 12000], "internal_node_id": "0.0-174.0", "trial": 6, "time_elapsed": 1202020, "serialpos": 0, "key_press": -1, "wordID": 1172, "type": "PRES_AUD", "trial_index": 237}, "uniqueid": "MTK1683:39ASUFLU6YEB4K6HKHNQQY9K96NXEN", "dateTime": 1516130316534}, {"current_trial": 238, "trialdata": {"rt": -1000, "trial_type": "single-audio", "word": "racket", "stimulus": "/static/audio/wordpool/RACKET.wav", "conditions": [12, 800, "a", 12000], "internal_node_id": "0.0-175.0", "trial": 6, "time_elapsed": 1203965, "serialpos": 1, "key_press": -1, "wordID": 1154, "type": "PRES_AUD", "trial_index": 238}, "uniqueid": "MTK1683:39ASUFLU6YEB4K6HKHNQQY9K96NXEN", "dateTime": 1516130318478}, {"current_trial": 239, "trialdata": {"rt": -1000, "trial_type": "single-audio", "word": "pilot", "stimulus": "/static/audio/wordpool/PILOT.wav", "conditions": [12, 800, "a", 12000], "internal_node_id": "0.0-176.0", "trial": 6, "time_elapsed": 1205649, "serialpos": 2, "key_press": -1, "wordID": 1069, "type": "PRES_AUD", "trial_index": 239}, "uniqueid": "MTK1683:39ASUFLU6YEB4K6HKHNQQY9K96NXEN", "dateTime": 1516130320162}, {"current_trial": 240, "trialdata": {"rt": -1000, "trial_type": "single-audio", "word": "summit", "stimulus": "/static/audio/wordpool/SUMMIT.wav", "conditions": [12, 800, "a", 12000], "internal_node_id": "0.0-177.0", "trial": 6, "time_elapsed": 1207285, "serialpos": 3, "key_press": -1, "wordID": 1404, "type": "PRES_AUD", "trial_index": 240}, "uniqueid": "MTK1683:39ASUFLU6YEB4K6HKHNQQY9K96NXEN", "dateTime": 1516130321798}, {"current_trial": 241, "trialdata": {"rt": -1000, "trial_type": "single-audio", "word": "sandwich", "stimulus": "/static/audio/wordpool/SANDWICH.wav", "conditions": [12, 800, "a", 12000], "internal_node_id": "0.0-178.0", "trial": 6, "time_elapsed": 1209051, "serialpos": 4, "key_press": -1, "wordID": 1231, "type": "PRES_AUD", "trial_index": 241}, "uniqueid": "MTK1683:39ASUFLU6YEB4K6HKHNQQY9K96NXEN", "dateTime": 1516130323564}, {"current_trial": 242, "trialdata": {"rt": -1000, "trial_type": "single-audio", "word": "spouse", "stimulus": "/static/audio/wordpool/SPOUSE.wav", "conditions": [12, 800, "a", 12000], "internal_node_id": "0.0-179.0", "trial": 6, "time_elapsed": 1210801, "serialpos": 5, "key_press": -1, "wordID": 1357, "type": "PRES_AUD", "trial_index": 242}, "uniqueid": "MTK1683:39ASUFLU6YEB4K6HKHNQQY9K96NXEN", "dateTime": 1516130325315}, {"current_trial": 243, "trialdata": {"rt": -1000, "trial_type": "single-audio", "word": "wife", "stimulus": "/static/audio/wordpool/WIFE.wav", "conditions": [12, 800, "a", 12000], "internal_node_id": "0.0-180.0", "trial": 6, "time_elapsed": 1212685, "serialpos": 6, "key_press": -1, "wordID": 1608, "type": "PRES_AUD", "trial_index": 243}, "uniqueid": "MTK1683:39ASUFLU6YEB4K6HKHNQQY9K96NXEN", "dateTime": 1516130327198}, {"current_trial": 244, "trialdata": {"rt": -1000, "trial_type": "single-audio", "word": "asia", "stimulus": "/static/audio/wordpool/ASIA.wav", "conditions": [12, 800, "a", 12000], "internal_node_id": "0.0-181.0", "trial": 6, "time_elapsed": 1214555, "serialpos": 7, "key_press": -1, "wordID": 45, "type": "PRES_AUD", "trial_index": 244}, "uniqueid": "MTK1683:39ASUFLU6YEB4K6HKHNQQY9K96NXEN", "dateTime": 1516130329068}, {"current_trial": 245, "trialdata": {"rt": -1000, "trial_type": "single-audio", "word": "dragon", "stimulus": "/static/audio/wordpool/DRAGON.wav", "conditions": [12, 800, "a", 12000], "internal_node_id": "0.0-182.0", "trial": 6, "time_elapsed": 1216244, "serialpos": 8, "key_press": -1, "wordID": 491, "type": "PRES_AUD", "trial_index": 245}, "uniqueid": "MTK1683:39ASUFLU6YEB4K6HKHNQQY9K96NXEN", "dateTime": 1516130330758}, {"current_trial": 246, "trialdata": {"rt": -1000, "trial_type": "single-audio", "word": "costume", "stimulus": "/static/audio/wordpool/COSTUME.wav", "conditions": [12, 800, "a", 12000], "internal_node_id": "0.0-183.0", "trial": 6, "time_elapsed": 1218102, "serialpos": 9, "key_press": -1, "wordID": 382, "