{"condition": 0, "counterbalance": 2781, "assignmentId": "3M68NM076IENU9RQ50Y0PSVJOYIR6F", "workerId": "MTK1259", "hitId": "32FESTC2NHX23YUETJ16RJETC2IUCB", "currenttrial": 626, "bonus": 0, "data": [{"uniqueid": "MTK1259:3M68NM076IENU9RQ50Y0PSVJOYIR6F", "current_trial": 0, "dateTime": 1513473336895, "trialdata": {"rt": 3741, "key_press": 32, "type": "INSTRUCTIONS", "trial_type": "text", "trial_index": 0, "time_elapsed": 3743, "internal_node_id": "0.0-0.0"}}, {"uniqueid": "MTK1259:3M68NM076IENU9RQ50Y0PSVJOYIR6F", "current_trial": 1, "dateTime": 1513473339819, "trialdata": {"rt": 2921, "key_press": 17, "type": "INSTRUCTIONS", "trial_type": "text", "trial_index": 1, "time_elapsed": 6669, "internal_node_id": "0.0-1.0"}}, {"uniqueid": "MTK1259:3M68NM076IENU9RQ50Y0PSVJOYIR6F", "current_trial": 2, "dateTime": 1513473379987, "trialdata": {"rt": [40142], "responses": ["ocean"], "type": "AUDIO_TEST", "trial_type": "audio-test", "trial_index": 2, "time_elapsed": 46837, "internal_node_id": "0.0-2.0"}}, {"uniqueid": "MTK1259:3M68NM076IENU9RQ50Y0PSVJOYIR6F", "current_trial": 3, "dateTime": 1513473388058, "trialdata": {"rt": [8065], "responses": ["crystal"], "type": "AUDIO_TEST", "trial_type": "audio-test", "trial_index": 3, "time_elapsed": 54908, "internal_node_id": "0.0-3.0"}}, {"uniqueid": "MTK1259:3M68NM076IENU9RQ50Y0PSVJOYIR6F", "current_trial": 4, "dateTime": 1513473395364, "trialdata": {"rt": [7299], "responses": ["spice"], "type": "AUDIO_TEST", "trial_type": "audio-test", "trial_index": 4, "time_elapsed": 62214, "internal_node_id": "0.0-4.0"}}, {"uniqueid": "MTK1259:3M68NM076IENU9RQ50Y0PSVJOYIR6F", "current_trial": 5, "dateTime": 1513473491959, "trialdata": {"rt": 95826, "responses": "{\"Q0\":\"10:30PM\",\"Q1\":\"8:30AM\",\"Q2\":\"5\"}", "type": "SLEEP_SURVEY", "trial_type": "survey-text", "trial_index": 5, "time_elapsed": 158808, "internal_node_id": "0.0-5.0"}}, {"uniqueid": "MTK1259:3M68NM076IENU9RQ50Y0PSVJOYIR6F", "current_trial": 6, "dateTime": 1513473662587, "trialdata": {"rt": 169615, "key_press": 32, "type": "INSTRUCTIONS", "trial_type": "text", "trial_index": 6, "time_elapsed": 329437, "internal_node_id": "0.0-6.0"}}, {"uniqueid": "MTK1259:3M68NM076IENU9RQ50Y0PSVJOYIR6F", "current_trial": 7, "dateTime": 1513473699259, "trialdata": {"rt": 36169, "key_press": 32, "type": "INSTRUCTIONS", "trial_type": "text", "trial_index": 7, "time_elapsed": 366109, "internal_node_id": "0.0-7.0"}}, {"uniqueid": "MTK1259:3M68NM076IENU9RQ50Y0PSVJOYIR6F", "current_trial": 8, "dateTime": 1513473718396, "trialdata": {"rt": 18635, "key_press": 32, "type": "INSTRUCTIONS", "trial_type": "text", "trial_index": 8, "time_elapsed": 385245, "internal_node_id": "0.0-8.0"}}, {"uniqueid": "MTK1259:3M68NM076IENU9RQ50Y0PSVJOYIR6F", "current_trial": 9, "dateTime": 1513473737428, "trialdata": {"rt": [3531, 8067, 11027, 13443, 16603], "responses": ["12", "25", "12", "11", "14"], "num1": [5, 9, 1, 8, 2, 2], "num2": [2, 8, 3, 2, 7, 8], "num3": [5, 8, 8, 1, 5, 3], "type": "DISTRACTOR", "conditions": [18, 1200, "v", 18000], "trial": 0, "trial_type": "math-distractor", "trial_index": 9, "time_elapsed": 404278, "internal_node_id": "0.0-9.0"}}, {"uniqueid": "MTK1259:3M68NM076IENU9RQ50Y0PSVJOYIR6F", "current_trial": 10, "dateTime": 1513473740455, "trialdata": {"rt": -1, "stimulus": "<p id=\"stim\">10</p>", "key_press": -1, "trial_type": "single-stim", "trial_index": 10, "time_elapsed": 407304, "internal_node_id": "0.0-10.0-0.0"}}, {"uniqueid": "MTK1259:3M68NM076IENU9RQ50Y0PSVJOYIR6F", "current_trial": 11, "dateTime": 1513473741456, "trialdata": {"rt": -1, "stimulus": "<p id=\"stim\">9</p>", "key_press": -1, "trial_type": "single-stim", "trial_index": 11, "time_elapsed": 408306, "internal_node_id": "0.0-10.0-1.0"}}, {"uniqueid": "MTK1259:3M68NM076IENU9RQ50Y0PSVJOYIR6F", "current_trial": 12, "dateTime": 1513473742457, "trialdata": {"rt": -1, "stimulus": "<p id=\"stim\">8</p>", "key_press": -1, "trial_type": "single-stim", "trial_index": 12, "time_elapsed": 409307, "internal_node_id": "0.0-10.0-2.0"}}, {"uniqueid": "MTK1259:3M68NM076IENU9RQ50Y0PSVJOYIR6F", "current_trial": 13, "dateTime": 1513473743458, "trialdata": {"rt": -1, "stimulus": "<p id=\"stim\">7</p>", "key_press": -1, "trial_type": "single-stim", "trial_index": 13, "time_elapsed": 410307, "internal_node_id": "0.0-10.0-3.0"}}, {"uniqueid": "MTK1259:3M68NM076IENU9RQ50Y0PSVJOYIR6F", "current_trial": 14, "dateTime": 1513473744446, "trialdata": {"rt": -1, "stimulus": "<p id=\"stim\">6</p>", "key_press": -1, "trial_type": "single-stim", "trial_index": 14, "time_elapsed": 411295, "internal_node_id": "0.0-10.0-4.0"}}, {"uniqueid": "MTK1259:3M68NM076IENU9RQ50Y0PSVJOYIR6F", "current_trial": 15, "dateTime": 1513473745447, "trialdata": {"rt": -1, "stimulus": "<p id=\"stim\">5</p>", "key_press": -1, "trial_type": "single-stim", "trial_index": 15, "time_elapsed": 412297, "internal_node_id": "0.0-10.0-5.0"}}, {"uniqueid": "MTK1259:3M68NM076IENU9RQ50Y0PSVJOYIR6F", "current_trial": 16, "dateTime": 1513473746461, "trialdata": {"rt": -1, "stimulus": "<p id=\"stim\">4</p>", "key_press": -1, "trial_type": "single-stim", "trial_index": 16, "time_elapsed": 413311, "internal_node_id": "0.0-10.0-6.0"}}, {"uniqueid": "MTK1259:3M68NM076IENU9RQ50Y0PSVJOYIR6F", "current_trial": 17, "dateTime": 1513473747447, "trialdata": {"rt": -1, "stimulus": "<p id=\"stim\">3</p>", "key_press": -1, "trial_type": "single-stim", "trial_index": 17, "time_elapsed": 414296, "internal_node_id": "0.0-10.0-7.0"}}, {"uniqueid": "MTK1259:3M68NM076IENU9RQ50Y0PSVJOYIR6F", "current_trial": 18, "dateTime": 1513473748448, "trialdata": {"rt": -1, "stimulus": "<p id=\"stim\">2</p>", "key_press": -1, "trial_type": "single-stim", "trial_index": 18, "time_elapsed": 415298, "internal_node_id": "0.0-10.0-8.0"}}, {"uniqueid": "MTK1259:3M68NM076IENU9RQ50Y0PSVJOYIR6F", "current_trial": 19, "dateTime": 1513473749447, "trialdata": {"rt": -1, "stimulus": "<p id=\"stim\">1</p>", "key_press": -1, "trial_type": "single-stim", "trial_index": 19, "time_elapsed": 416297, "internal_node_id": "0.0-10.0-9.0"}}, {"uniqueid": "MTK1259:3M68NM076IENU9RQ50Y0PSVJOYIR6F", "current_trial": 20, "dateTime": 1513473750964, "trialdata": {"rt": -1, "stimulus": "<p id=\"stim\">+</p>", "key_press": -1, "type": "FIXATION", "trial_type": "single-stim", "trial_index": 20, "time_elapsed": 417813, "internal_node_id": "0.0-11.0-0.0"}}, {"uniqueid": "MTK1259:3M68NM076IENU9RQ50Y0PSVJOYIR6F", "current_trial": 21, "dateTime": 1513473752167, "trialdata": {"rt": -1, "stimulus": "<p id=\"stim\">HARP</p>", "key_press": -1, "type": "PRES_VIS", "word": "harp", "wordID": 688, "conditions": [18, 1200, "v", 18000], "trial": 0, "serialpos": 0, "trial_type": "single-stim", "trial_index": 21, "time_elapsed": 419016, "internal_node_id": "0.0-12.0"}}, {"uniqueid": "MTK1259:3M68NM076IENU9RQ50Y0PSVJOYIR6F", "current_trial": 22, "dateTime": 1513473754370, "trialdata": {"rt": -1, "stimulus": "<p id=\"stim\">HEART</p>", "key_press": -1, "type": "PRES_VIS", "word": "heart", "wordID": 696, "conditions": [18, 1200, "v", 18000], "trial": 0, "serialpos": 1, "trial_type": "single-stim", "trial_index": 22, "time_elapsed": 421219, "internal_node_id": "0.0-13.0"}}, {"uniqueid": "MTK1259:3M68NM076IENU9RQ50Y0PSVJOYIR6F", "current_trial": 23, "dateTime": 1513473756618, "trialdata": {"rt": -1, "stimulus": "<p id=\"stim\">FLEET</p>", "key_press": -1, "type": "PRES_VIS", "word": "fleet", "wordID": 577, "conditions": [18, 1200, "v", 18000], "trial": 0, "serialpos": 2, "trial_type": "single-stim", "trial_index": 23, "time_elapsed": 423468, "internal_node_id": "0.0-14.0"}}, {"uniqueid": "MTK1259:3M68NM076IENU9RQ50Y0PSVJOYIR6F", "current_trial": 24, "dateTime": 1513473758961, "trialdata": {"rt": -1, "stimulus": "<p id=\"stim\">TAXI</p>", "key_press": -1, "type": "PRES_VIS", "word": "taxi", "wordID": 1437, "conditions": [18, 1200, "v", 18000], "trial": 0, "serialpos": 3, "trial_type": "single-stim", "trial_index": 24, "time_elapsed": 425810, "internal_node_id": "0.0-15.0"}}, {"uniqueid": "MTK1259:3M68NM076IENU9RQ50Y0PSVJOYIR6F", "current_trial": 25, "dateTime": 1513473761290, "trialdata": {"rt": -1, "stimulus": "<p id=\"stim\">LACE</p>", "key_press": -1, "type": "PRES_VIS", "word": "lace", "wordID": 791, "conditions": [18, 1200, "v", 18000], "trial": 0, "serialpos": 4, "trial_type": "single-stim", "trial_index": 25, "time_elapsed": 428139, "internal_node_id": "0.0-16.0"}}, {"uniqueid": "MTK1259:3M68NM076IENU9RQ50Y0PSVJOYIR6F", "current_trial": 26, "dateTime": 1513473763554, "trialdata": {"rt": -1, "stimulus": "<p id=\"stim\">PROTON</p>", "key_press": -1, "type": "PRES_VIS", "word": "proton", "wordID": 1131, "conditions": [18, 1200, "v", 18000], "trial": 0, "serialpos": 5, "trial_type": "single-stim", "trial_index": 26, "time_elapsed": 430404, "internal_node_id": "0.0-17.0"}}, {"uniqueid": "MTK1259:3M68NM076IENU9RQ50Y0PSVJOYIR6F", "current_trial": 27, "dateTime": 1513473765803, "trialdata": {"rt": -1, "stimulus": "<p id=\"stim\">TEMPLE</p>", "key_press": -1, "type": "PRES_VIS", "word": "temple", "wordID": 1447, "conditions": [18, 1200, "v", 18000], "trial": 0, "serialpos": 6, "trial_type": "single-stim", "trial_index": 27, "time_elapsed": 432653, "internal_node_id": "0.0-18.0"}}, {"uniqueid": "MTK1259:3M68NM076IENU9RQ50Y0PSVJOYIR6F", "current_trial": 28, "dateTime": 1513473768085, "trialdata": {"rt": -1, "stimulus": "<p id=\"stim\">CELLAR</p>", "key_press": -1, "type": "PRES_VIS", "word": "cellar", "wordID": 266, "conditions": [18, 1200, "v", 18000], "trial": 0, "serialpos": 7, "trial_type": "single-stim", "trial_index": 28, "time_elapsed": 434935, "internal_node_id": "0.0-19.0"}}, {"uniqueid": "MTK1259:3M68NM076IENU9RQ50Y0PSVJOYIR6F", "current_trial": 29, "dateTime": 1513473770256, "trialdata": {"rt": -1, "stimulus": "<p id=\"stim\">SCISSORS</p>", "key_press": -1, "type": "PRES_VIS", "word": "scissors", "wordID": 1249, "conditions": [18, 1200, "v", 18000], "trial": 0, "serialpos": 8, "trial_type": "single-stim", "trial_index": 29, "time_elapsed": 437106, "internal_node_id": "0.0-20.0"}}, {"uniqueid": "MTK1259:3M68NM076IENU9RQ50Y0PSVJOYIR6F", "current_trial": 30, "dateTime": 1513473772599, "trialdata": {"rt": -1, "stimulus": "<p id=\"stim\">HIGHWAY</p>", "key_press": -1, "type": "PRES_VIS", "word": "highway", "wordID": 706, "conditions": [18, 1200, "v", 18000], "trial": 0, "serialpos": 9, "trial_type": "single-stim", "trial_index": 30, "time_elapsed": 439449, "internal_node_id": "0.0-21.0"}}, {"uniqueid": "MTK1259:3M68NM076IENU9RQ50Y0PSVJOYIR6F", "current_trial": 31, "dateTime": 1513473774773, "trialdata": {"rt": -1, "stimulus": "<p id=\"stim\">CHAUFFEUR</p>", "key_press": -1, "type": "PRES_VIS", "word": "chauffeur", "wordID": 282, "conditions": [18, 1200, "v", 18000], "trial": 0, "serialpos": 10, "trial_type": "single-stim", "trial_index": 31, "time_elapsed": 441623, "internal_node_id": "0.0-22.0"}}, {"uniqueid": "MTK1259:3M68NM076IENU9RQ50Y0PSVJOYIR6F", "current_trial": 32, "dateTime": 1513473776928, "trialdata": {"rt": -1, "stimulus": "<p id=\"stim\">CATTLE</p>", "key_press": -1, "type": "PRES_VIS", "word": "cattle", "wordID": 260, "conditions": [18, 1200, "v", 18000], "trial": 0, "serialpos": 11, "trial_type": "single-stim", "trial_index": 32, "time_elapsed": 443777, "internal_node_id": "0.0-23.0"}}, {"uniqueid": "MTK1259:3M68NM076IENU9RQ50Y0PSVJOYIR6F", "current_trial": 33, "dateTime": 1513473779084, "trialdata": {"rt": -1, "stimulus": "<p id=\"stim\">CREATURE</p>", "key_press": -1, "type": "PRES_VIS", "word": "creature", "wordID": 402, "conditions": [18, 1200, "v", 18000], "trial": 0, "serialpos": 12, "trial_type": "single-stim", "trial_index": 33, "time_elapsed": 445934, "internal_node_id": "0.0-24.0"}}, {"uniqueid": "MTK1259:3M68NM076IENU9RQ50Y0PSVJOYIR6F", "current_trial": 34, "dateTime": 1513473781443, "trialdata": {"rt": -1, "stimulus": "<p id=\"stim\">BALLOON</p>", "key_press": -1, "type": "PRES_VIS", "word": "balloon", "wordID": 74, "conditions": [18, 1200, "v", 18000], "trial": 0, "serialpos": 13, "trial_type": "single-stim", "trial_index": 34, "time_elapsed": 448293, "internal_node_id": "0.0-25.0"}}, {"uniqueid": "MTK1259:3M68NM076IENU9RQ50Y0PSVJOYIR6F", "current_trial": 35, "dateTime": 1513473783648, "trialdata": {"rt": -1, "stimulus": "<p id=\"stim\">HAMPER</p>", "key_press": -1, "type": "PRES_VIS", "word": "hamper", "wordID": 681, "conditions": [18, 1200, "v", 18000], "trial": 0, "serialpos": 14, "trial_type": "single-stim", "trial_index": 35, "time_elapsed": 450498, "internal_node_id": "0.0-26.0"}}, {"uniqueid": "MTK1259:3M68NM076IENU9RQ50Y0PSVJOYIR6F", "current_trial": 36, "dateTime": 1513473785838, "trialdata": {"rt": -1, "stimulus": "<p id=\"stim\">EYELASH</p>", "key_press": -1, "type": "PRES_VIS", "word": "eyelash", "wordID": 545, "conditions": [18, 1200, "v", 18000], "trial": 0, "serialpos": 15, "trial_type": "single-stim", "trial_index": 36, "time_elapsed": 452687, "internal_node_id": "0.0-27.0"}}, {"uniqueid": "MTK1259:3M68NM076IENU9RQ50Y0PSVJOYIR6F", "current_trial": 37, "dateTime": 1513473788163, "trialdata": {"rt": -1, "stimulus": "<p id=\"stim\">FILM</p>", "key_press": -1, "type": "PRES_VIS", "word": "film", "wordID": 564, "conditions": [18, 1200, "v", 18000], "trial": 0, "serialpos": 16, "trial_type": "single-stim", "trial_index": 37, "time_elapsed": 455013, "internal_node_id": "0.0-28.0"}}, {"uniqueid": "MTK1259:3M68NM076IENU9RQ50Y0PSVJOYIR6F", "current_trial": 38, "dateTime": 1513473790507, "trialdata": {"rt": -1, "stimulus": "<p id=\"stim\">MOP</p>", "key_press": -1, "type": "PRES_VIS", "word": "mop", "wordID": 915, "conditions": [18, 1200, "v", 18000], "trial": 0, "serialpos": 17, "trial_type": "single-stim", "trial_index": 38, "time_elapsed": 457357, "internal_node_id": "0.0-29.0"}}, {"uniqueid": "MTK1259:3M68NM076IENU9RQ50Y0PSVJOYIR6F", "current_trial": 39, "dateTime": 1513473792711, "trialdata": {"rt": -1, "stimulus": "", "key_press": -1, "type": "PRE_RECALL_DELAY", "trial_type": "single-stim", "trial_index": 39, "time_elapsed": 459560, "internal_node_id": "0.0-30.0-0.0"}}, {"uniqueid": "MTK1259:3M68NM076IENU9RQ50Y0PSVJOYIR6F", "current_trial": 40, "dateTime": 1513473793266, "trialdata": {"rt": -1000, "stimulus": "/static/audio/400Hz.wav", "key_press": -1, "type": "PRE_RECALL_ALERT", "trial_type": "single-audio", "trial_index": 40, "time_elapsed": 460116, "internal_node_id": "0.0-31.0"}}, {"uniqueid": "MTK1259:3M68NM076IENU9RQ50Y0PSVJOYIR6F", "current_trial": 41, "dateTime": 1513473853281, "trialdata": {"rt": [3957, 6574, 9230, 12294, 15870, 21317], "recwords": ["harp", "heart", "creature", "eyelash", "proton", "scissors"], "type": "FREE_RECALL", "conditions": [18, 1200, "v", 18000], "trial": 0, "trial_type": "free-recall", "trial_index": 41, "time_elapsed": 520124, "internal_node_id": "0.0-32.0-0.0"}}, {"uniqueid": "MTK1259:3M68NM076IENU9RQ50Y0PSVJOYIR6F", "current_trial": 42, "dateTime": 1513473857124, "trialdata": {"rt": 1831, "key_press": 32, "type": "INSTRUCTIONS", "trial_type": "text", "trial_index": 42, "time_elapsed": 523973, "internal_node_id": "0.0-33.0"}}, {"uniqueid": "MTK1259:3M68NM076IENU9RQ50Y0PSVJOYIR6F", "current_trial": 43, "dateTime": 1513473877133, "trialdata": {"rt": [3353, 5745, 8289, 11009, 13545, 15609], "responses": ["24", "14", "15", "22", "13", "14"], "num1": [8, 4, 9, 7, 1, 4, 4], "num2": [9, 1, 3, 8, 9, 9, 7], "num3": [7, 9, 3, 7, 3, 1, 8], "type": "DISTRACTOR", "conditions": [18, 1200, "a", 18000], "trial": 1, "trial_type": "math-distractor", "trial_index": 43, "time_elapsed": 543983, "internal_node_id": "0.0-34.0"}}, {"uniqueid": "MTK1259:3M68NM076IENU9RQ50Y0PSVJOYIR6F", "current_trial": 44, "dateTime": 1513473880150, "trialdata": {"rt": -1, "stimulus": "<p id=\"stim\">10</p>", "key_press": -1, "trial_type": "single-stim", "trial_index": 44, "time_elapsed": 547000, "internal_node_id": "0.0-35.0-0.0"}}, {"uniqueid": "MTK1259:3M68NM076IENU9RQ50Y0PSVJOYIR6F", "current_trial": 45, "dateTime": 1513473881162, "trialdata": {"rt": -1, "stimulus": "<p id=\"stim\">9</p>", "key_press": -1, "trial_type": "single-stim", "trial_index": 45, "time_elapsed": 548012, "internal_node_id": "0.0-35.0-1.0"}}, {"uniqueid": "MTK1259:3M68NM076IENU9RQ50Y0PSVJOYIR6F", "current_trial": 46, "dateTime": 1513473882164, "trialdata": {"rt": -1, "stimulus": "<p id=\"stim\">8</p>", "key_press": -1, "trial_type": "single-stim", "trial_index": 46, "time_elapsed": 549014, "internal_node_id": "0.0-35.0-2.0"}}, {"uniqueid": "MTK1259:3M68NM076IENU9RQ50Y0PSVJOYIR6F", "current_trial": 47, "dateTime": 1513473883164, "trialdata": {"rt": -1, "stimulus": "<p id=\"stim\">7</p>", "key_press": -1, "trial_type": "single-stim", "trial_index": 47, "time_elapsed": 550013, "internal_node_id": "0.0-35.0-3.0"}}, {"uniqueid": "MTK1259:3M68NM076IENU9RQ50Y0PSVJOYIR6F", "current_trial": 48, "dateTime": 1513473884163, "trialdata": {"rt": -1, "stimulus": "<p id=\"stim\">6</p>", "key_press": -1, "trial_type": "single-stim", "trial_index": 48, "time_elapsed": 551013, "internal_node_id": "0.0-35.0-4.0"}}, {"uniqueid": "MTK1259:3M68NM076IENU9RQ50Y0PSVJOYIR6F", "current_trial": 49, "dateTime": 1513473885162, "trialdata": {"rt": -1, "stimulus": "<p id=\"stim\">5</p>", "key_press": -1, "trial_type": "single-stim", "trial_index": 49, "time_elapsed": 552011, "internal_node_id": "0.0-35.0-5.0"}}, {"uniqueid": "MTK1259:3M68NM076IENU9RQ50Y0PSVJOYIR6F", "current_trial": 50, "dateTime": 1513473886160, "trialdata": {"rt": -1, "stimulus": "<p id=\"stim\">4</p>", "key_press": -1, "trial_type": "single-stim", "trial_index": 50, "time_elapsed": 553010, "internal_node_id": "0.0-35.0-6.0"}}, {"uniqueid": "MTK1259:3M68NM076IENU9RQ50Y0PSVJOYIR6F", "current_trial": 51, "dateTime": 1513473887161, "trialdata": {"rt": -1, "stimulus": "<p id=\"stim\">3</p>", "key_press": -1, "trial_type": "single-stim", "trial_index": 51, "time_elapsed": 554010, "internal_node_id": "0.0-35.0-7.0"}}, {"uniqueid": "MTK1259:3M68NM076IENU9RQ50Y0PSVJOYIR6F", "current_trial": 52, "dateTime": 1513473888161, "trialdata": {"rt": -1, "stimulus": "<p id=\"stim\">2</p>", "key_press": -1, "trial_type": "single-stim", "trial_index": 52, "time_elapsed": 555011, "internal_node_id": "0.0-35.0-8.0"}}, {"uniqueid": "MTK1259:3M68NM076IENU9RQ50Y0PSVJOYIR6F", "current_trial": 53, "dateTime": 1513473889162, "trialdata": {"rt": -1, "stimulus": "<p id=\"stim\">1</p>", "key_press": -1, "trial_type": "single-stim", "trial_index": 53, "time_elapsed": 556011, "internal_node_id": "0.0-35.0-9.0"}}, {"uniqueid": "MTK1259:3M68NM076IENU9RQ50Y0PSVJOYIR6F", "current_trial": 54, "dateTime": 1513473890677, "trialdata": {"rt": -1, "stimulus": "<p id=\"stim\">+</p>", "key_press": -1, "type": "FIXATION", "trial_type": "single-stim", "trial_index": 54, "time_elapsed": 557526, "internal_node_id": "0.0-36.0-0.0"}}, {"uniqueid": "MTK1259:3M68NM076IENU9RQ50Y0PSVJOYIR6F", "current_trial": 55, "dateTime": 1513473893066, "trialdata": {"rt": -1000, "stimulus": "/static/audio/wordpool/AUTHOR.wav", "key_press": -1, "type": "PRES_AUD", "word": "author", "wordID": 60, "conditions": [18, 1200, "a", 18000], "trial": 1, "serialpos": 0, "trial_type": "single-audio", "trial_index": 55, "time_elapsed": 559916, "internal_node_id": "0.0-37.0"}}, {"uniqueid": "MTK1259:3M68NM076IENU9RQ50Y0PSVJOYIR6F", "current_trial": 56, "dateTime": 1513473895225, "trialdata": {"rt": -1000, "stimulus": "/static/audio/wordpool/PERCH.wav", "key_press": -1, "type": "PRES_AUD", "word": "perch", "wordID": 1047, "conditions": [18, 1200, "a", 18000], "trial": 1, "serialpos": 1, "trial_type": "single-audio", "trial_index": 56, "time_elapsed": 562075, "internal_node_id": "0.0-38.0"}}, {"uniqueid": "MTK1259:3M68NM076IENU9RQ50Y0PSVJOYIR6F", "current_trial": 57, "dateTime": 1513473897495, "trialdata": {"rt": -1000, "stimulus": "/static/audio/wordpool/CYCLONE.wav", "key_press": -1, "type": "PRES_AUD", "word": "cyclone", "wordID": 430, "conditions": [18, 1200, "a", 18000], "trial": 1, "serialpos": 2, "trial_type": "single-audio", "trial_index": 57, "time_elapsed": 564344, "internal_node_id": "0.0-39.0"}}, {"uniqueid": "MTK1259:3M68NM076IENU9RQ50Y0PSVJOYIR6F", "current_trial": 58, "dateTime": 1513473899608, "trialdata": {"rt": -1000, "stimulus": "/static/audio/wordpool/PICNIC.wav", "key_press": -1, "type": "PRES_AUD", "word": "picnic", "wordID": 1059, "conditions": [18, 1200, "a", 18000], "trial": 1, "serialpos": 3, "trial_type": "single-audio", "trial_index": 58, "time_elapsed": 566458, "internal_node_id": "0.0-40.0"}}, {"uniqueid": "MTK1259:3M68NM076IENU9RQ50Y0PSVJOYIR6F", "current_trial": 59, "dateTime": 1513473901814, "trialdata": {"rt": -1000, "stimulus": "/static/audio/wordpool/LAKE.wav", "key_press": -1, "type": "PRES_AUD", "word": "lake", "wordID": 795, "conditions": [18, 1200, "a", 18000], "trial": 1, "serialpos": 4, "trial_type": "single-audio", "trial_index": 59, "time_elapsed": 568664, "internal_node_id": "0.0-41.0"}}, {"uniqueid": "MTK1259:3M68NM076IENU9RQ50Y0PSVJOYIR6F", "current_trial": 60, "dateTime": 1513473904066, "trialdata": {"rt": -1000, "stimulus": "/static/audio/wordpool/DENTIST.wav", "key_press": -1, "type": "PRES_AUD", "word": "dentist", "wordID": 446, "conditions": [18, 1200, "a", 18000], "trial": 1, "serialpos": 5, "trial_type": "single-audio", "trial_index": 60, "time_elapsed": 570916, "internal_node_id": "0.0-42.0"}}, {"uniqueid": "MTK1259:3M68NM076IENU9RQ50Y0PSVJOYIR6F", "current_trial": 61, "dateTime": 1513473906320, "trialdata": {"rt": -1000, "stimulus": "/static/audio/wordpool/STAMP.wav", "key_press": -1, "type": "PRES_AUD", "word": "stamp", "wordID": 1369, "conditions": [18, 1200, "a", 18000], "trial": 1, "serialpos": 6, "trial_type": "single-audio", "trial_index": 61, "time_elapsed": 573169, "internal_node_id": "0.0-43.0"}}, {"uniqueid": "MTK1259:3M68NM076IENU9RQ50Y0PSVJOYIR6F", "current_trial": 62, "dateTime": 1513473908385, "trialdata": {"rt": -1000, "stimulus": "/static/audio/wordpool/FRECKLE.wav", "key_press": -1, "type": "PRES_AUD", "word": "freckle", "wordID": 601, "conditions": [18, 1200, "a", 18000], "trial": 1, "serialpos": 7, "trial_type": "single-audio", "trial_index": 62, "time_elapsed": 575235, "internal_node_id": "0.0-44.0"}}, {"uniqueid": "MTK1259:3M68NM076IENU9RQ50Y0PSVJOYIR6F", "current_trial": 63, "dateTime": 1513473910575, "trialdata": {"rt": -1000, "stimulus": "/static/audio/wordpool/BUGGY.wav", "key_press": -1, "type": "PRES_AUD", "word": "buggy", "wordID": 187, "conditions": [18, 1200, "a", 18000], "trial": 1, "serialpos": 8, "trial_type": "single-audio", "trial_index": 63, "time_elapsed": 577425, "internal_node_id": "0.0-45.0"}}, {"uniqueid": "MTK1259:3M68NM076IENU9RQ50Y0PSVJOYIR6F", "current_trial": 64, "dateTime": 1513473912594, "trialdata": {"rt": -1000, "stimulus": "/static/audio/wordpool/POSSUM.wav", "key_press": -1, "type": "PRES_AUD", "word": "possum", "wordID": 1111, "conditions": [18, 1200, "a", 18000], "trial": 1, "serialpos": 9, "trial_type": "single-audio", "trial_index": 64, "time_elapsed": 579444, "internal_node_id": "0.0-46.0"}}, {"uniqueid": "MTK1259:3M68NM076IENU9RQ50Y0PSVJOYIR6F", "current_trial": 65, "dateTime": 1513473915002, "trialdata": {"rt": -1000, "stimulus": "/static/audio/wordpool/BEAST.wav", "key_press": -1, "type": "PRES_AUD", "word": "beast", "wordID": 107, "conditions": [18, 1200, "a", 18000], "trial": 1, "serialpos": 10, "trial_type": "single-audio", "trial_index": 65, "time_elapsed": 581852, "internal_node_id": "0.0-47.0"}}, {"uniqueid": "MTK1259:3M68NM076IENU9RQ50Y0PSVJOYIR6F", "current_trial": 66, "dateTime": 1513473917411, "trialdata": {"rt": -1000, "stimulus": "/static/audio/wordpool/GAZELLE.wav", "key_press": -1, "type": "PRES_AUD", "word": "gazelle", "wordID": 627, "conditions": [18, 1200, "a", 18000], "trial": 1, "serialpos": 11, "trial_type": "single-audio", "trial_index": 66, "time_elapsed": 584261, "internal_node_id": "0.0-48.0"}}, {"uniqueid": "MTK1259:3M68NM076IENU9RQ50Y0PSVJOYIR6F", "current_trial": 67, "dateTime": 1513473919679, "trialdata": {"rt": -1000, "stimulus": "/static/audio/wordpool/BOUQUET.wav", "key_press": -1, "type": "PRES_AUD", "word": "bouquet", "wordID": 156, "conditions": [18, 1200, "a", 18000], "trial": 1, "serialpos": 12, "trial_type": "single-audio", "trial_index": 67, "time_elapsed": 586528, "internal_node_id": "0.0-49.0"}}, {"uniqueid": "MTK1259:3M68NM076IENU9RQ50Y0PSVJOYIR6F", "current_trial": 68, "dateTime": 1513473922087, "trialdata": {"rt": -1000, "stimulus": "/static/audio/wordpool/COUNTRY.wav", "key_press": -1, "type": "PRES_AUD", "word": "country", "wordID": 387, "conditions": [18, 1200, "a", 18000], "trial": 1, "serialpos": 13, "trial_type": "single-audio", "trial_index": 68, "time_elapsed": 588936, "internal_node_id": "0.0-50.0"}}, {"uniqueid": "MTK1259:3M68NM076IENU9RQ50Y0PSVJOYIR6F", "current_trial": 69, "dateTime": 1513473924123, "trialdata": {"rt": -1000, "stimulus": "/static/audio/wordpool/FLASK.wav", "key_press": -1, "type": "PRES_AUD", "word": "flask", "wordID": 575, "conditions": [18, 1200, "a", 18000], "trial": 1, "serialpos": 14, "trial_type": "single-audio", "trial_index": 69, "time_elapsed": 590973, "internal_node_id": "0.0-51.0"}}, {"uniqueid": "MTK1259:3M68NM076IENU9RQ50Y0PSVJOYIR6F", "current_trial": 70, "dateTime": 1513473926502, "trialdata": {"rt": -1000, "stimulus": "/static/audio/wordpool/FOOT.wav", "key_press": -1, "type": "PRES_AUD", "word": "foot", "wordID": 589, "conditions": [18, 1200, "a", 18000], "trial": 1, "serialpos": 15, "trial_type": "single-audio", "trial_index": 70, "time_elapsed": 593352, "internal_node_id": "0.0-52.0"}}, {"uniqueid": "MTK1259:3M68NM076IENU9RQ50Y0PSVJOYIR6F", "current_trial": 71, "dateTime": 1513473928630, "trialdata": {"rt": -1000, "stimulus": "/static/audio/wordpool/GYMNAST.wav", "key_press": -1, "type": "PRES_AUD", "word": "gymnast", "wordID": 674, "conditions": [18, 1200, "a", 18000], "trial": 1, "serialpos": 16, "trial_type": "single-audio", "trial_index": 71, "time_elapsed": 595480, "internal_node_id": "0.0-53.0"}}, {"uniqueid": "MTK1259:3M68NM076IENU9RQ50Y0PSVJOYIR6F", "current_trial": 72, "dateTime": 1513473931007, "trialdata": {"rt": -1000, "stimulus": "/static/audio/wordpool/APRON.wav", "key_press": -1, "type": "PRES_AUD", "word": "apron", "wordID": 34, "conditions": [18, 1200, "a", 18000], "trial": 1, "serialpos": 17, "trial_type": "single-audio", "trial_index": 72, "time_elapsed": 597856, "internal_node_id": "0.0-54.0"}}, {"uniqueid": "MTK1259:3M68NM076IENU9RQ50Y0PSVJOYIR6F", "current_trial": 73, "dateTime": 1513473932289, "trialdata": {"rt": -1, "stimulus": "", "key_press": -1, "type": "PRE_RECALL_DELAY", "trial_type": "single-stim", "trial_index": 73, "time_elapsed": 599139, "internal_node_id": "0.0-55.0-0.0"}}, {"uniqueid": "MTK1259:3M68NM076IENU9RQ50Y0PSVJOYIR6F", "current_trial": 74, "dateTime": 1513473932805, "trialdata": {"rt": -1000, "stimulus": "/static/audio/400Hz.wav", "key_press": -1, "type": "PRE_RECALL_ALERT", "trial_type": "single-audio", "trial_index": 74, "time_elapsed": 599655, "internal_node_id": "0.0-56.0"}}, {"uniqueid": "MTK1259:3M68NM076IENU9RQ50Y0PSVJOYIR6F", "current_trial": 75, "dateTime": 1513473992825, "trialdata": {"rt": [2872, 6738, 8457, 10121, 11928, 15144, 21418, 26937, 49485], "recwords": ["author", "gymnist", "apron", "flash", "buggy", "gazelle", "author", "stamp", "artist"], "type": "FREE_RECALL", "conditions": [18, 1200, "a", 18000], "trial": 1, "trial_type": "free-recall", "trial_index": 75, "time_elapsed": 659669, "internal_node_id": "0.0-57.0-0.0"}}, {"uniqueid": "MTK1259:3M68NM076IENU9RQ50Y0PSVJOYIR6F", "current_trial": 76, "dateTime": 1513474047143, "trialdata": {"rt": 52298, "key_press": 32, "type": "INSTRUCTIONS", "trial_type": "text", "trial_index": 76, "time_elapsed": 713983, "internal_node_id": "0.0-58.0"}}, {"uniqueid": "MTK1259:3M68NM076IENU9RQ50Y0PSVJOYIR6F", "current_trial": 77, "dateTime": 1513474072167, "trialdata": {"rt": [2235, 4963, 8883, 11972, 14819, 17107, 18915, 21475], "responses": ["9", "14", "14", "23", "16", "13", "13", "22"], "num1": [1, 3, 5, 7, 4, 4, 5, 7, 5], "num2": [6, 5, 8, 8, 3, 3, 3, 8, 7], "num3": [2, 6, 1, 8, 9, 6, 5, 7, 4], "type": "DISTRACTOR", "conditions": [12, 800, "v", 24000], "trial": 2, "trial_type": "math-distractor", "trial_index": 77, "time_elapsed": 739017, "internal_node_id": "0.0-59.0"}}, {"uniqueid": "MTK1259:3M68NM076IENU9RQ50Y0PSVJOYIR6F", "current_trial": 78, "dateTime": 1513474075197, "trialdata": {"rt": -1, "stimulus": "<p id=\"stim\">10</p>", "key_press": -1, "trial_type": "single-stim", "trial_index": 78, "time_elapsed": 742047, "internal_node_id": "0.0-60.0-0.0"}}, {"uniqueid": "MTK1259:3M68NM076IENU9RQ50Y0PSVJOYIR6F", "current_trial": 79, "dateTime": 1513474076196, "trialdata": {"rt": -1, "stimulus": "<p id=\"stim\">9</p>", "key_press": -1, "trial_type": "single-stim", "trial_index": 79, "time_elapsed": 743045, "internal_node_id": "0.0-60.0-1.0"}}, {"uniqueid": "MTK1259:3M68NM076IENU9RQ50Y0PSVJOYIR6F", "current_trial": 80, "dateTime": 1513474077195, "trialdata": {"rt": -1, "stimulus": "<p id=\"stim\">8</p>", "key_press": -1, "trial_type": "single-stim", "trial_index": 80, "time_elapsed": 744044, "internal_node_id": "0.0-60.0-2.0"}}, {"uniqueid": "MTK1259:3M68NM076IENU9RQ50Y0PSVJOYIR6F", "current_trial": 81, "dateTime": 1513474078195, "trialdata": {"rt": -1, "stimulus": "<p id=\"stim\">7</p>", "key_press": -1, "trial_type": "single-stim", "trial_index": 81, "time_elapsed": 745045, "internal_node_id": "0.0-60.0-3.0"}}, {"uniqueid": "MTK1259:3M68NM076IENU9RQ50Y0PSVJOYIR6F", "current_trial": 82, "dateTime": 1513474079180, "trialdata": {"rt": -1, "stimulus": "<p id=\"stim\">6</p>", "key_press": -1, "trial_type": "single-stim", "trial_index": 82, "time_elapsed": 746030, "internal_node_id": "0.0-60.0-4.0"}}, {"uniqueid": "MTK1259:3M68NM076IENU9RQ50Y0PSVJOYIR6F", "current_trial": 83, "dateTime": 1513474080195, "trialdata": {"rt": -1, "stimulus": "<p id=\"stim\">5</p>", "key_press": -1, "trial_type": "single-stim", "trial_index": 83, "time_elapsed": 747044, "internal_node_id": "0.0-60.0-5.0"}}, {"uniqueid": "MTK1259:3M68NM076IENU9RQ50Y0PSVJOYIR6F", "current_trial": 84, "dateTime": 1513474081193, "trialdata": {"rt": -1, "stimulus": "<p id=\"stim\">4</p>", "key_press": -1, "trial_type": "single-stim", "trial_index": 84, "time_elapsed": 748042, "internal_node_id": "0.0-60.0-6.0"}}, {"uniqueid": "MTK1259:3M68NM076IENU9RQ50Y0PSVJOYIR6F", "current_trial": 85, "dateTime": 1513474082192, "trialdata": {"rt": -1, "stimulus": "<p id=\"stim\">3</p>", "key_press": -1, "trial_type": "single-stim", "trial_index": 85, "time_elapsed": 749042, "internal_node_id": "0.0-60.0-7.0"}}, {"uniqueid": "MTK1259:3M68NM076IENU9RQ50Y0PSVJOYIR6F", "current_trial": 86, "dateTime": 1513474083193, "trialdata": {"rt": -1, "stimulus": "<p id=\"stim\">2</p>", "key_press": -1, "trial_type": "single-stim", "trial_index": 86, "time_elapsed": 750043, "internal_node_id": "0.0-60.0-8.0"}}, {"uniqueid": "MTK1259:3M68NM076IENU9RQ50Y0PSVJOYIR6F", "current_trial": 87, "dateTime": 1513474084193, "trialdata": {"rt": -1, "stimulus": "<p id=\"stim\">1</p>", "key_press": -1, "trial_type": "single-stim", "trial_index": 87, "time_elapsed": 751043, "internal_node_id": "0.0-60.0-9.0"}}, {"uniqueid": "MTK1259:3M68NM076IENU9RQ50Y0PSVJOYIR6F", "current_trial": 88, "dateTime": 1513474085710, "trialdata": {"rt": -1, "stimulus": "<p id=\"stim\">+</p>", "key_press": -1, "type": "FIXATION", "trial_type": "single-stim", "trial_index": 88, "time_elapsed": 752560, "internal_node_id": "0.0-61.0-0.0"}}, {"uniqueid": "MTK1259:3M68NM076IENU9RQ50Y0PSVJOYIR6F", "current_trial": 89, "dateTime": 1513474086522, "trialdata": {"rt": -1, "stimulus": "<p id=\"stim\">CANYON</p>", "key_press": -1, "type": "PRES_VIS", "word": "canyon", "wordID": 234, "conditions": [12, 800, "v", 24000], "trial": 2, "serialpos": 0, "trial_type": "single-stim", "trial_index": 89, "time_elapsed": 753372, "internal_node_id": "0.0-62.0"}}, {"uniqueid": "MTK1259:3M68NM076IENU9RQ50Y0PSVJOYIR6F", "current_trial": 90, "dateTime": 1513474088350, "trialdata": {"rt": -1, "stimulus": "<p id=\"stim\">POLICE</p>", "key_press": -1, "type": "PRES_VIS", "word": "police", "wordID": 1097, "conditions": [12, 800, "v", 24000], "trial": 2, "serialpos": 1, "trial_type": "single-stim", "trial_index": 90, "time_elapsed": 755200, "internal_node_id": "0.0-63.0"}}, {"uniqueid": "MTK1259:3M68NM076IENU9RQ50Y0PSVJOYIR6F", "current_trial": 91, "dateTime": 1513474090116, "trialdata": {"rt": -1, "stimulus": "<p id=\"stim\">INFANT</p>", "key_press": -1, "type": "PRES_VIS", "word": "infant", "wordID": 736, "conditions": [12, 800, "v", 24000], "trial": 2, "serialpos": 2, "trial_type": "single-stim", "trial_index": 91, "time_elapsed": 756966, "internal_node_id": "0.0-64.0"}}, {"uniqueid": "MTK1259:3M68NM076IENU9RQ50Y0PSVJOYIR6F", "current_trial": 92, "dateTime": 1513474091944, "trialdata": {"rt": -1, "stimulus": "<p id=\"stim\">CHIPMUNK</p>", "key_press": -1, "type": "PRES_VIS", "word": "chipmunk", "wordID": 303, "conditions": [12, 800, "v", 24000], "trial": 2, "serialpos": 3, "trial_type": "single-stim", "trial_index": 92, "time_elapsed": 758793, "internal_node_id": "0.0-65.0"}}, {"uniqueid": "MTK1259:3M68NM076IENU9RQ50Y0PSVJOYIR6F", "current_trial": 93, "dateTime": 1513474093943, "trialdata": {"rt": -1, "stimulus": "<p id=\"stim\">POSTAGE</p>", "key_press": -1, "type": "PRES_VIS", "word": "postage", "wordID": 1112, "conditions": [12, 800, "v", 24000], "trial": 2, "serialpos": 4, "trial_type": "single-stim", "trial_index": 93, "time_elapsed": 760793, "internal_node_id": "0.0-66.0"}}, {"uniqueid": "MTK1259:3M68NM076IENU9RQ50Y0PSVJOYIR6F", "current_trial": 94, "dateTime": 1513474095896, "trialdata": {"rt": -1, "stimulus": "<p id=\"stim\">STONE</p>", "key_press": -1, "type": "PRES_VIS", "word": "stone", "wordID": 1384, "conditions": [12, 800, "v", 24000], "trial": 2, "serialpos": 5, "trial_type": "single-stim", "trial_index": 94, "time_elapsed": 762746, "internal_node_id": "0.0-67.0"}}, {"uniqueid": "MTK1259:3M68NM076IENU9RQ50Y0PSVJOYIR6F", "current_trial": 95, "dateTime": 1513474097881, "trialdata": {"rt": -1, "stimulus": "<p id=\"stim\">FRIEND</p>", "key_press": -1, "type": "PRES_VIS", "word": "friend", "wordID": 605, "conditions": [12, 800, "v", 24000], "trial": 2, "serialpos": 6, "trial_type": "single-stim", "trial_index": 95, "time_elapsed": 764731, "internal_node_id": "0.0-68.0"}}, {"uniqueid": "MTK1259:3M68NM076IENU9RQ50Y0PSVJOYIR6F", "current_trial": 96, "dateTime": 1513474099522, "trialdata": {"rt": -1, "stimulus": "<p id=\"stim\">GLASS</p>", "key_press": -1, "type": "PRES_VIS", "word": "glass", "wordID": 638, "conditions": [12, 800, "v", 24000], "trial": 2, "serialpos": 7, "trial_type": "single-stim", "trial_index": 96, "time_elapsed": 766371, "internal_node_id": "0.0-69.0"}}, {"uniqueid": "MTK1259:3M68NM076IENU9RQ50Y0PSVJOYIR6F", "current_trial": 97, "dateTime": 1513474101349, "trialdata": {"rt": -1, "stimulus": "<p id=\"stim\">CANAL</p>", "key_press": -1, "type": "PRES_VIS", "word": "canal", "wordID": 225, "conditions": [12, 800, "v", 24000], "trial": 2, "serialpos": 8, "trial_type": "single-stim", "trial_index": 97, "time_elapsed": 768199, "internal_node_id": "0.0-70.0"}}, {"uniqueid": "MTK1259:3M68NM076IENU9RQ50Y0PSVJOYIR6F", "current_trial": 98, "dateTime": 1513474103348, "trialdata": {"rt": -1, "stimulus": "<p id=\"stim\">JAPAN</p>", "key_press": -1, "type": "PRES_VIS", "word": "japan", "wordID": 748, "conditions": [12, 800, "v", 24000], "trial": 2, "serialpos": 9, "trial_type": "single-stim", "trial_index": 98, "time_elapsed": 770197, "internal_node_id": "0.0-71.0"}}, {"uniqueid": "MTK1259:3M68NM076IENU9RQ50Y0PSVJOYIR6F", "current_trial": 99, "dateTime": 1513474105178, "trialdata": {"rt": -1, "stimulus": "<p id=\"stim\">FRANCE</p>", "key_press": -1, "type": "PRES_VIS", "word": "france", "wordID": 600, "conditions": [12, 800, "v", 24000], "trial": 2, "serialpos": 10, "trial_type": "single-stim", "trial_index": 99, "time_elapsed": 772027, "internal_node_id": "0.0-72.0"}}, {"uniqueid": "MTK1259:3M68NM076IENU9RQ50Y0PSVJOYIR6F", "current_trial": 100, "dateTime": 1513474106802, "trialdata": {"rt": -1, "stimulus": "<p id=\"stim\">LOVER</p>", "key_press": -1, "type": "PRES_VIS", "word": "lover", "wordID": 845, "conditions": [12, 800, "v", 24000], "trial": 2, "serialpos": 11, "trial_type": "single-stim", "trial_index": 100, "time_elapsed": 773651, "internal_node_id": "0.0-73.0"}}, {"uniqueid": "MTK1259:3M68NM076IENU9RQ50Y0PSVJOYIR6F", "current_trial": 101, "dateTime": 1513474109115, "trialdata": {"rt": -1, "stimulus": "", "key_press": -1, "type": "PRE_RECALL_DELAY", "trial_type": "single-stim", "trial_index": 101, "time_elapsed": 775965, "internal_node_id": "0.0-74.0-0.0"}}, {"uniqueid": "MTK1259:3M68NM076IENU9RQ50Y0PSVJOYIR6F", "current_trial": 102, "dateTime": 1513474109630, "trialdata": {"rt": -1000, "stimulus": "/static/audio/400Hz.wav", "key_press": -1, "type": "PRE_RECALL_ALERT", "trial_type": "single-audio", "trial_index": 102, "time_elapsed": 776480, "internal_node_id": "0.0-75.0"}}, {"uniqueid": "MTK1259:3M68NM076IENU9RQ50Y0PSVJOYIR6F", "current_trial": 103, "dateTime": 1513474169654, "trialdata": {"rt": [2393, 4153, 5921, 8666, 11209, 13201, 16258, 52802], "recwords": ["japan", "glass", "friend", "lover", "france", "japan", "canyon", "glass"], "type": "FREE_RECALL", "conditions": [12, 800, "v", 24000], "trial": 2, "trial_type": "free-recall", "trial_index": 103, "time_elapsed": 836498, "internal_node_id": "0.0-76.0-0.0"}}, {"uniqueid": "MTK1259:3M68NM076IENU9RQ50Y0PSVJOYIR6F", "current_trial": 104, "dateTime": 1513474173252, "trialdata": {"rt": 1589, "key_press": 32, "type": "INSTRUCTIONS", "trial_type": "text", "trial_index": 104, "time_elapsed": 840102, "internal_node_id": "0.0-77.0"}}, {"uniqueid": "MTK1259:3M68NM076IENU9RQ50Y0PSVJOYIR6F", "current_trial": 105, "dateTime": 1513474199285, "trialdata": {"rt": [2092, 4475, 6716, 9787, 12044, 13987, 17003, 21102, 23363], "responses": ["19", "22", "15", "17", "9", "14", "14", "23", "8"], "num1": [3, 4, 9, 5, 5, 5, 2, 8, 1, 7], "num2": [8, 9, 5, 3, 2, 4, 5, 7, 5, 3], "num3": [8, 9, 1, 9, 2, 5, 7, 8, 2, 5], "type": "DISTRACTOR", "conditions": [24, 800, "v", 24000], "trial": 3, "trial_type": "math-distractor", "trial_index": 105, "time_elapsed": 866134, "internal_node_id": "0.0-78.0"}}, {"uniqueid": "MTK1259:3M68NM076IENU9RQ50Y0PSVJOYIR6F", "current_trial": 106, "dateTime": 1513474202303, "trialdata": {"rt": -1, "stimulus": "<p id=\"stim\">10</p>", "key_press": -1, "trial_type": "single-stim", "trial_index": 106, "time_elapsed": 869152, "internal_node_id": "0.0-79.0-0.0"}}, {"uniqueid": "MTK1259:3M68NM076IENU9RQ50Y0PSVJOYIR6F", "current_trial": 107, "dateTime": 1513474203303, "trialdata": {"rt": -1, "stimulus": "<p id=\"stim\">9</p>", "key_press": -1, "trial_type": "single-stim", "trial_index": 107, "time_elapsed": 870152, "internal_node_id": "0.0-79.0-1.0"}}, {"uniqueid": "MTK1259:3M68NM076IENU9RQ50Y0PSVJOYIR6F", "current_trial": 108, "dateTime": 1513474204303, "trialdata": {"rt": -1, "stimulus": "<p id=\"stim\">8</p>", "key_press": -1, "trial_type": "single-stim", "trial_index": 108, "time_elapsed": 871153, "internal_node_id": "0.0-79.0-2.0"}}, {"uniqueid": "MTK1259:3M68NM076IENU9RQ50Y0PSVJOYIR6F", "current_trial": 109, "dateTime": 1513474205302, "trialdata": {"rt": -1, "stimulus": "<p id=\"stim\">7</p>", "key_press": -1, "trial_type": "single-stim", "trial_index": 109, "time_elapsed": 872151, "internal_node_id": "0.0-79.0-3.0"}}, {"uniqueid": "MTK1259:3M68NM076IENU9RQ50Y0PSVJOYIR6F", "current_trial": 110, "dateTime": 1513474206303, "trialdata": {"rt": -1, "stimulus": "<p id=\"stim\">6</p>", "key_press": -1, "trial_type": "single-stim", "trial_index": 110, "time_elapsed": 873152, "internal_node_id": "0.0-79.0-4.0"}}, {"uniqueid": "MTK1259:3M68NM076IENU9RQ50Y0PSVJOYIR6F", "current_trial": 111, "dateTime": 1513474207301, "trialdata": {"rt": -1, "stimulus": "<p id=\"stim\">5</p>", "key_press": -1, "trial_type": "single-stim", "trial_index": 111, "time_elapsed": 874151, "internal_node_id": "0.0-79.0-5.0"}}, {"uniqueid": "MTK1259:3M68NM076IENU9RQ50Y0PSVJOYIR6F", "current_trial": 112, "dateTime": 1513474208303, "trialdata": {"rt": -1, "stimulus": "<p id=\"stim\">4</p>", "key_press": -1, "trial_type": "single-stim", "trial_index": 112, "time_elapsed": 875152, "internal_node_id": "0.0-79.0-6.0"}}, {"uniqueid": "MTK1259:3M68NM076IENU9RQ50Y0PSVJOYIR6F", "current_trial": 113, "dateTime": 1513474209302, "trialdata": {"rt": -1, "stimulus": "<p id=\"stim\">3</p>", "key_press": -1, "trial_type": "single-stim", "trial_index": 113, "time_elapsed": 876152, "internal_node_id": "0.0-79.0-7.0"}}, {"uniqueid": "MTK1259:3M68NM076IENU9RQ50Y0PSVJOYIR6F", "current_trial": 114, "dateTime": 1513474210310, "trialdata": {"rt": -1, "stimulus": "<p id=\"stim\">2</p>", "key_press": -1, "trial_type": "single-stim", "trial_index": 114, "time_elapsed": 877159, "internal_node_id": "0.0-79.0-8.0"}}, {"uniqueid": "MTK1259:3M68NM076IENU9RQ50Y0PSVJOYIR6F", "current_trial": 115, "dateTime": 1513474211292, "trialdata": {"rt": -1, "stimulus": "<p id=\"stim\">1</p>", "key_press": -1, "trial_type": "single-stim", "trial_index": 115, "time_elapsed": 878142, "internal_node_id": "0.0-79.0-9.0"}}, {"uniqueid": "MTK1259:3M68NM076IENU9RQ50Y0PSVJOYIR6F", "current_trial": 116, "dateTime": 1513474212807, "trialdata": {"rt": -1, "stimulus": "<p id=\"stim\">+</p>", "key_press": -1, "type": "FIXATION", "trial_type": "single-stim", "trial_index": 116, "time_elapsed": 879657, "internal_node_id": "0.0-80.0-0.0"}}, {"uniqueid": "MTK1259:3M68NM076IENU9RQ50Y0PSVJOYIR6F", "current_trial": 117, "dateTime": 1513474213618, "trialdata": {"rt": -1, "stimulus": "<p id=\"stim\">RABBIT</p>", "key_press": -1, "type": "PRES_VIS", "word": "rabbit", "wordID": 1151, "conditions": [24, 800, "v", 24000], "trial": 3, "serialpos": 0, "trial_type": "single-stim", "trial_index": 117, "time_elapsed": 880467, "internal_node_id": "0.0-81.0"}}, {"uniqueid": "MTK1259:3M68NM076IENU9RQ50Y0PSVJOYIR6F", "current_trial": 118, "dateTime": 1513474215441, "trialdata": {"rt": -1, "stimulus": "<p id=\"stim\">VIKING</p>", "key_press": -1, "type": "PRES_VIS", "word": "viking", "wordID": 1564, "conditions": [24, 800, "v", 24000], "trial": 3, "serialpos": 1, "trial_type": "single-stim", "trial_index": 118, "time_elapsed": 882291, "internal_node_id": "0.0-82.0"}}, {"uniqueid": "MTK1259:3M68NM076IENU9RQ50Y0PSVJOYIR6F", "current_trial": 119, "dateTime": 1513474217362, "trialdata": {"rt": -1, "stimulus": "<p id=\"stim\">GARBAGE</p>", "key_press": -1, "type": "PRES_VIS", "word": "garbage", "wordID": 621, "conditions": [24, 800, "v", 24000], "trial": 3, "serialpos": 2, "trial_type": "single-stim", "trial_index": 119, "time_elapsed": 884211, "internal_node_id": "0.0-83.0"}}, {"uniqueid": "MTK1259:3M68NM076IENU9RQ50Y0PSVJOYIR6F", "current_trial": 120, "dateTime": 1513474218987, "trialdata": {"rt": -1, "stimulus": "<p id=\"stim\">PORTRAIT</p>", "key_press": -1, "type": "PRES_VIS", "word": "portrait", "wordID": 1110, "conditions": [24, 800, "v", 24000], "trial": 3, "serialpos": 3, "trial_type": "single-stim", "trial_index": 120, "time_elapsed": 885836, "internal_node_id": "0.0-84.0"}}, {"uniqueid": "MTK1259:3M68NM076IENU9RQ50Y0PSVJOYIR6F", "current_trial": 121, "dateTime": 1513474220894, "trialdata": {"rt": -1, "stimulus": "<p id=\"stim\">BLOUSE</p>", "key_press": -1, "type": "PRES_VIS", "word": "blouse", "wordID": 138, "conditions": [24, 800, "v", 24000], "trial": 3, "serialpos": 4, "trial_type": "single-stim", "trial_index": 121, "time_elapsed": 887744, "internal_node_id": "0.0-85.0"}}, {"uniqueid": "MTK1259:3M68NM076IENU9RQ50Y0PSVJOYIR6F", "current_trial": 122, "dateTime": 1513474222817, "trialdata": {"rt": -1, "stimulus": "<p id=\"stim\">ASIA</p>", "key_press": -1, "type": "PRES_VIS", "word": "asia", "wordID": 45, "conditions": [24, 800, "v", 24000], "trial": 3, "serialpos": 5, "trial_type": "single-stim", "trial_index": 122, "time_elapsed": 889666, "internal_node_id": "0.0-86.0"}}, {"uniqueid": "MTK1259:3M68NM076IENU9RQ50Y0PSVJOYIR6F", "current_trial": 123, "dateTime": 1513474224660, "trialdata": {"rt": -1, "stimulus": "<p id=\"stim\">BUNNY</p>", "key_press": -1, "type": "PRES_VIS", "word": "bunny", "wordID": 197, "conditions": [24, 800, "v", 24000], "trial": 3, "serialpos": 6, "trial_type": "single-stim", "trial_index": 123, "time_elapsed": 891509, "internal_node_id": "0.0-87.0"}}, {"uniqueid": "MTK1259:3M68NM076IENU9RQ50Y0PSVJOYIR6F", "current_trial": 124, "dateTime": 1513474226614, "trialdata": {"rt": -1, "stimulus": "<p id=\"stim\">ULCER</p>", "key_press": -1, "type": "PRES_VIS", "word": "ulcer", "wordID": 1532, "conditions": [24, 800, "v", 24000], "trial": 3, "serialpos": 7, "trial_type": "single-stim", "trial_index": 124, "time_elapsed": 893464, "internal_node_id": "0.0-88.0"}}, {"uniqueid": "MTK1259:3M68NM076IENU9RQ50Y0PSVJOYIR6F", "current_trial": 125, "dateTime": 1513474228239, "trialdata": {"rt": -1, "stimulus": "<p id=\"stim\">SKILLET</p>", "key_press": -1, "type": "PRES_VIS", "word": "skillet", "wordID": 1316, "conditions": [24, 800, "v", 24000], "trial": 3, "serialpos": 8, "trial_type": "single-stim", "trial_index": 125, "time_elapsed": 895088, "internal_node_id": "0.0-89.0"}}, {"uniqueid": "MTK1259:3M68NM076IENU9RQ50Y0PSVJOYIR6F", "current_trial": 126, "dateTime": 1513474230114, "trialdata": {"rt": -1, "stimulus": "<p id=\"stim\">KITCHEN</p>", "key_press": -1, "type": "PRES_VIS", "word": "kitchen", "wordID": 777, "conditions": [24, 800, "v", 24000], "trial": 3, "serialpos": 9, "trial_type": "single-stim", "trial_index": 126, "time_elapsed": 896964, "internal_node_id": "0.0-90.0"}}, {"uniqueid": "MTK1259:3M68NM076IENU9RQ50Y0PSVJOYIR6F", "current_trial": 127, "dateTime": 1513474231926, "trialdata": {"rt": -1, "stimulus": "<p id=\"stim\">BASEMENT</p>", "key_press": -1, "type": "PRES_VIS", "word": "basement", "wordID": 93, "conditions": [24, 800, "v", 24000], "trial": 3, "serialpos": 10, "trial_type": "single-stim", "trial_index": 127, "time_elapsed": 898776, "internal_node_id": "0.0-91.0"}}, {"uniqueid": "MTK1259:3M68NM076IENU9RQ50Y0PSVJOYIR6F", "current_trial": 128, "dateTime": 1513474233645, "trialdata": {"rt": -1, "stimulus": "<p id=\"stim\">MUSTARD</p>", "key_press": -1, "type": "PRES_VIS", "word": "mustard", "wordID": 934, "conditions": [24, 800, "v", 24000], "trial": 3, "serialpos": 11, "trial_type": "single-stim", "trial_index": 128, "time_elapsed": 900494, "internal_node_id": "0.0-92.0"}}, {"uniqueid": "MTK1259:3M68NM076IENU9RQ50Y0PSVJOYIR6F", "current_trial": 129, "dateTime": 1513474235600, "trialdata": {"rt": -1, "stimulus": "<p id=\"stim\">GAVEL</p>", "key_press": -1, "type": "PRES_VIS", "word": "gavel", "wordID": 626, "conditions": [24, 800, "v", 24000], "trial": 3, "serialpos": 12, "trial_type": "single-stim", "trial_index": 129, "time_elapsed": 902450, "internal_node_id": "0.0-93.0"}}, {"uniqueid": "MTK1259:3M68NM076IENU9RQ50Y0PSVJOYIR6F", "current_trial": 130, "dateTime": 1513474237444, "trialdata": {"rt": -1, "stimulus": "<p id=\"stim\">CUPBOARD</p>", "key_press": -1, "type": "PRES_VIS", "word": "cupboard", "wordID": 424, "conditions": [24, 800, "v", 24000], "trial": 3, "serialpos": 13, "trial_type": "single-stim", "trial_index": 130, "time_elapsed": 904294, "internal_node_id": "0.0-94.0"}}, {"uniqueid": "MTK1259:3M68NM076IENU9RQ50Y0PSVJOYIR6F", "current_trial": 131, "dateTime": 1513474239351, "trialdata": {"rt": -1, "stimulus": "<p id=\"stim\">GUITAR</p>", "key_press": -1, "type": "PRES_VIS", "word": "guitar", "wordID": 669, "conditions": [24, 800, "v", 24000], "trial": 3, "serialpos": 14, "trial_type": "single-stim", "trial_index": 131, "time_elapsed": 906201, "internal_node_id": "0.0-95.0"}}, {"uniqueid": "MTK1259:3M68NM076IENU9RQ50Y0PSVJOYIR6F", "current_trial": 132, "dateTime": 1513474241055, "trialdata": {"rt": -1, "stimulus": "<p id=\"stim\">TUBA</p>", "key_press": -1, "type": "PRES_VIS", "word": "tuba", "wordID": 1514, "conditions": [24, 800, "v", 24000], "trial": 3, "serialpos": 15, "trial_type": "single-stim", "trial_index": 132, "time_elapsed": 907905, "internal_node_id": "0.0-96.0"}}, {"uniqueid": "MTK1259:3M68NM076IENU9RQ50Y0PSVJOYIR6F", "current_trial": 133, "dateTime": 1513474243056, "trialdata": {"rt": -1, "stimulus": "<p id=\"stim\">DRESSER</p>", "key_press": -1, "type": "PRES_VIS", "word": "dresser", "wordID": 495, "conditions": [24, 800, "v", 24000], "trial": 3, "serialpos": 16, "trial_type": "single-stim", "trial_index": 133, "time_elapsed": 909906, "internal_node_id": "0.0-97.0"}}, {"uniqueid": "MTK1259:3M68NM076IENU9RQ50Y0PSVJOYIR6F", "current_trial": 134, "dateTime": 1513474244713, "trialdata": {"rt": -1, "stimulus": "<p id=\"stim\">OUTLAW</p>", "key_press": -1, "type": "PRES_VIS", "word": "outlaw", "wordID": 988, "conditions": [24, 800, "v", 24000], "trial": 3, "serialpos": 17, "trial_type": "single-stim", "trial_index": 134, "time_elapsed": 911562, "internal_node_id": "0.0-98.0"}}, {"uniqueid": "MTK1259:3M68NM076IENU9RQ50Y0PSVJOYIR6F", "current_trial": 135, "dateTime": 1513474246429, "trialdata": {"rt": -1, "stimulus": "<p id=\"stim\">TERMITE</p>", "key_press": -1, "type": "PRES_VIS", "word": "termite", "wordID": 1450, "conditions": [24, 800, "v", 24000], "trial": 3, "serialpos": 18, "trial_type": "single-stim", "trial_index": 135, "time_elapsed": 913279, "internal_node_id": "0.0-99.0"}}, {"uniqueid": "MTK1259:3M68NM076IENU9RQ50Y0PSVJOYIR6F", "current_trial": 136, "dateTime": 1513474248414, "trialdata": {"rt": -1, "stimulus": "<p id=\"stim\">GROUND</p>", "key_press": -1, "type": "PRES_VIS", "word": "ground", "wordID": 665, "conditions": [24, 800, "v", 24000], "trial": 3, "serialpos": 19, "trial_type": "single-stim", "trial_index": 136, "time_elapsed": 915263, "internal_node_id": "0.0-100.0"}}, {"uniqueid": "MTK1259:3M68NM076IENU9RQ50Y0PSVJOYIR6F", "current_trial": 137, "dateTime": 1513474250319, "trialdata": {"rt": -1, "stimulus": "<p id=\"stim\">TRIBE</p>", "key_press": -1, "type": "PRES_VIS", "word": "tribe", "wordID": 1504, "conditions": [24, 800, "v", 24000], "trial": 3, "serialpos": 20, "trial_type": "single-stim", "trial_index": 137, "time_elapsed": 917169, "internal_node_id": "0.0-101.0"}}, {"uniqueid": "MTK1259:3M68NM076IENU9RQ50Y0PSVJOYIR6F", "current_trial": 138, "dateTime": 1513474252212, "trialdata": {"rt": -1, "stimulus": "<p id=\"stim\">PILOT</p>", "key_press": -1, "type": "PRES_VIS", "word": "pilot", "wordID": 1069, "conditions": [24, 800, "v", 24000], "trial": 3, "serialpos": 21, "trial_type": "single-stim", "trial_index": 138, "time_elapsed": 919061, "internal_node_id": "0.0-102.0"}}, {"uniqueid": "MTK1259:3M68NM076IENU9RQ50Y0PSVJOYIR6F", "current_trial": 139, "dateTime": 1513474253960, "trialdata": {"rt": -1, "stimulus": "<p id=\"stim\">BELLY</p>", "key_press": -1, "type": "PRES_VIS", "word": "belly", "wordID": 118, "conditions": [24, 800, "v", 24000], "trial": 3, "serialpos": 22, "trial_type": "single-stim", "trial_index": 139, "time_elapsed": 920810, "internal_node_id": "0.0-103.0"}}, {"uniqueid": "MTK1259:3M68NM076IENU9RQ50Y0PSVJOYIR6F", "current_trial": 140, "dateTime": 1513474255772, "trialdata": {"rt": -1, "stimulus": "<p id=\"stim\">CHEST</p>", "key_press": -1, "type": "PRES_VIS", "word": "chest", "wordID": 294, "conditions": [24, 800, "v", 24000], "trial": 3, "serialpos": 23, "trial_type": "single-stim", "trial_index": 140, "time_elapsed": 922622, "internal_node_id": "0.0-104.0"}}, {"uniqueid": "MTK1259:3M68NM076IENU9RQ50Y0PSVJOYIR6F", "current_trial": 141, "dateTime": 1513474257931, "trialdata": {"rt": -1, "stimulus": "", "key_press": -1, "type": "PRE_RECALL_DELAY", "trial_type": "single-stim", "trial_index": 141, "time_elapsed": 924781, "internal_node_id": "0.0-105.0-0.0"}}, {"uniqueid": "MTK1259:3M68NM076IENU9RQ50Y0PSVJOYIR6F", "current_trial": 142, "dateTime": 1513474258445, "trialdata": {"rt": -1000, "stimulus": "/static/audio/400Hz.wav", "key_press": -1, "type": "PRE_RECALL_ALERT", "trial_type": "single-audio", "trial_index": 142, "time_elapsed": 925295, "internal_node_id": "0.0-106.0"}}, {"uniqueid": "MTK1259:3M68NM076IENU9RQ50Y0PSVJOYIR6F", "current_trial": 143, "dateTime": 1513474318474, "trialdata": {"rt": [2411, 4058, 5434, 7618, 10890, 12539, 13842, 18443, 38738], "recwords": ["belly", "chest", "tuba", "rabbit", "bunny", "belly", "chest", "asia", "cupboard"], "type": "FREE_RECALL", "conditions": [24, 800, "v", 24000], "trial": 3, "trial_type": "free-recall", "trial_index": 143, "time_elapsed": 985315, "internal_node_id": "0.0-107.0-0.0"}}, {"uniqueid": "MTK1259:3M68NM076IENU9RQ50Y0PSVJOYIR6F", "current_trial": 144, "dateTime": 1513474332845, "trialdata": {"rt": 12354, "key_press": 32, "type": "INSTRUCTIONS", "trial_type": "text", "trial_index": 144, "time_elapsed": 999695, "internal_node_id": "0.0-108.0"}}, {"uniqueid": "MTK1259:3M68NM076IENU9RQ50Y0PSVJOYIR6F", "current_trial": 145, "dateTime": 1513474346884, "trialdata": {"rt": [2705, 5137, 7825, 10073], "responses": ["11", "11", "14", "21"], "num1": [8, 5, 7, 3, 6], "num2": [1, 3, 4, 9, 1], "num3": [2, 3, 3, 9, 5], "type": "DISTRACTOR", "conditions": [24, 800, "v", 12000], "trial": 4, "trial_type": "math-distractor", "trial_index": 145, "time_elapsed": 1013734, "internal_node_id": "0.0-109.0"}}, {"uniqueid": "MTK1259:3M68NM076IENU9RQ50Y0PSVJOYIR6F", "current_trial": 146, "dateTime": 1513474349913, "trialdata": {"rt": -1, "stimulus": "<p id=\"stim\">10</p>", "key_press": -1, "trial_type": "single-stim", "trial_index": 146, "time_elapsed": 1016763, "internal_node_id": "0.0-110.0-0.0"}}, {"uniqueid": "MTK1259:3M68NM076IENU9RQ50Y0PSVJOYIR6F", "current_trial": 147, "dateTime": 1513474350912, "trialdata": {"rt": -1, "stimulus": "<p id=\"stim\">9</p>", "key_press": -1, "trial_type": "single-stim", "trial_index": 147, "time_elapsed": 1017762, "internal_node_id": "0.0-110.0-1.0"}}, {"uniqueid": "MTK1259:3M68NM076IENU9RQ50Y0PSVJOYIR6F", "current_trial": 148, "dateTime": 1513474351912, "trialdata": {"rt": -1, "stimulus": "<p id=\"stim\">8</p>", "key_press": -1, "trial_type": "single-stim", "trial_index": 148, "time_elapsed": 1018762, "internal_node_id": "0.0-110.0-2.0"}}, {"uniqueid": "MTK1259:3M68NM076IENU9RQ50Y0PSVJOYIR6F", "current_trial": 149, "dateTime": 1513474352912, "trialdata": {"rt": -1, "stimulus": "<p id=\"stim\">7</p>", "key_press": -1, "trial_type": "single-stim", "trial_index": 149, "time_elapsed": 1019761, "internal_node_id": "0.0-110.0-3.0"}}, {"uniqueid": "MTK1259:3M68NM076IENU9RQ50Y0PSVJOYIR6F", "current_trial": 150, "dateTime": 1513474353911, "trialdata": {"rt": -1, "stimulus": "<p id=\"stim\">6</p>", "key_press": -1, "trial_type": "single-stim", "trial_index": 150, "time_elapsed": 1020760, "internal_node_id": "0.0-110.0-4.0"}}, {"uniqueid": "MTK1259:3M68NM076IENU9RQ50Y0PSVJOYIR6F", "current_trial": 151, "dateTime": 1513474354910, "trialdata": {"rt": -1, "stimulus": "<p id=\"stim\">5</p>", "key_press": -1, "trial_type": "single-stim", "trial_index": 151, "time_elapsed": 1021759, "internal_node_id": "0.0-110.0-5.0"}}, {"uniqueid": "MTK1259:3M68NM076IENU9RQ50Y0PSVJOYIR6F", "current_trial": 152, "dateTime": 1513474355909, "trialdata": {"rt": -1, "stimulus": "<p id=\"stim\">4</p>", "key_press": -1, "trial_type": "single-stim", "trial_index": 152, "time_elapsed": 1022759, "internal_node_id": "0.0-110.0-6.0"}}, {"uniqueid": "MTK1259:3M68NM076IENU9RQ50Y0PSVJOYIR6F", "current_trial": 153, "dateTime": 1513474356910, "trialdata": {"rt": -1, "stimulus": "<p id=\"stim\">3</p>", "key_press": -1, "trial_type": "single-stim", "trial_index": 153, "time_elapsed": 1023760, "internal_node_id": "0.0-110.0-7.0"}}, {"uniqueid": "MTK1259:3M68NM076IENU9RQ50Y0PSVJOYIR6F", "current_trial": 154, "dateTime": 1513474357911, "trialdata": {"rt": -1, "stimulus": "<p id=\"stim\">2</p>", "key_press": -1, "trial_type": "single-stim", "trial_index": 154, "time_elapsed": 1024761, "internal_node_id": "0.0-110.0-8.0"}}, {"uniqueid": "MTK1259:3M68NM076IENU9RQ50Y0PSVJOYIR6F", "current_trial": 155, "dateTime": 1513474358909, "trialdata": {"rt": -1, "stimulus": "<p id=\"stim\">1</p>", "key_press": -1, "trial_type": "single-stim", "trial_index": 155, "time_elapsed": 1025759, "internal_node_id": "0.0-110.0-9.0"}}, {"uniqueid": "MTK1259:3M68NM076IENU9RQ50Y0PSVJOYIR6F", "current_trial": 156, "dateTime": 1513474360424, "trialdata": {"rt": -1, "stimulus": "<p id=\"stim\">+</p>", "key_press": -1, "type": "FIXATION", "trial_type": "single-stim", "trial_index": 156, "time_elapsed": 1027274, "internal_node_id": "0.0-111.0-0.0"}}, {"uniqueid": "MTK1259:3M68NM076IENU9RQ50Y0PSVJOYIR6F", "current_trial": 157, "dateTime": 1513474361237, "trialdata": {"rt": -1, "stimulus": "<p id=\"stim\">XEROX</p>", "key_press": -1, "type": "PRES_VIS", "word": "xerox", "wordID": 1627, "conditions": [24, 800, "v", 12000], "trial": 4, "serialpos": 0, "trial_type": "single-stim", "trial_index": 157, "time_elapsed": 1028087, "internal_node_id": "0.0-112.0"}}, {"uniqueid": "MTK1259:3M68NM076IENU9RQ50Y0PSVJOYIR6F", "current_trial": 158, "dateTime": 1513474363053, "trialdata": {"rt": -1, "stimulus": "<p id=\"stim\">CLIMBER</p>", "key_press": -1, "type": "PRES_VIS", "word": "climber", "wordID": 322, "conditions": [24, 800, "v", 12000], "trial": 4, "serialpos": 1, "trial_type": "single-stim", "trial_index": 158, "time_elapsed": 1029903, "internal_node_id": "0.0-113.0"}}, {"uniqueid": "MTK1259:3M68NM076IENU9RQ50Y0PSVJOYIR6F", "current_trial": 159, "dateTime": 1513474364771, "trialdata": {"rt": -1, "stimulus": "<p id=\"stim\">CASKET</p>", "key_press": -1, "type": "PRES_VIS", "word": "casket", "wordID": 254, "conditions": [24, 800, "v", 12000], "trial": 4, "serialpos": 2, "trial_type": "single-stim", "trial_index": 159, "time_elapsed": 1031621, "internal_node_id": "0.0-114.0"}}, {"uniqueid": "MTK1259:3M68NM076IENU9RQ50Y0PSVJOYIR6F", "current_trial": 160, "dateTime": 1513474366428, "trialdata": {"rt": -1, "stimulus": "<p id=\"stim\">CRIB</p>", "key_press": -1, "type": "PRES_VIS", "word": "crib", "wordID": 406, "conditions": [24, 800, "v", 12000], "trial": 4, "serialpos": 3, "trial_type": "single-stim", "trial_index": 160, "time_elapsed": 1033277, "internal_node_id": "0.0-115.0"}}, {"uniqueid": "MTK1259:3M68NM076IENU9RQ50Y0PSVJOYIR6F", "current_trial": 161, "dateTime": 1513474368163, "trialdata": {"rt": -1, "stimulus": "<p id=\"stim\">STOVE</p>", "key_press": -1, "type": "PRES_VIS", "word": "stove", "wordID": 1387, "conditions": [24, 800, "v", 12000], "trial": 4, "serialpos": 4, "trial_type": "single-stim", "trial_index": 161, "time_elapsed": 1035013, "internal_node_id": "0.0-116.0"}}, {"uniqueid": "MTK1259:3M68NM076IENU9RQ50Y0PSVJOYIR6F", "current_trial": 162, "dateTime": 1513474369802, "trialdata": {"rt": -1, "stimulus": "<p id=\"stim\">MARS</p>", "key_press": -1, "type": "PRES_VIS", "word": "mars", "wordID": 872, "conditions": [24, 800, "v", 12000], "trial": 4, "serialpos": 5, "trial_type": "single-stim", "trial_index": 162, "time_elapsed": 1036652, "internal_node_id": "0.0-117.0"}}, {"uniqueid": "MTK1259:3M68NM076IENU9RQ50Y0PSVJOYIR6F", "current_trial": 163, "dateTime": 1513474371724, "trialdata": {"rt": -1, "stimulus": "<p id=\"stim\">KETCHUP</p>", "key_press": -1, "type": "PRES_VIS", "word": "ketchup", "wordID": 770, "conditions": [24, 800, "v", 12000], "trial": 4, "serialpos": 6, "trial_type": "single-stim", "trial_index": 163, "time_elapsed": 1038573, "internal_node_id": "0.0-118.0"}}, {"uniqueid": "MTK1259:3M68NM076IENU9RQ50Y0PSVJOYIR6F", "current_trial": 164, "dateTime": 1513474373647, "trialdata": {"rt": -1, "stimulus": "<p id=\"stim\">LUMBER</p>", "key_press": -1, "type": "PRES_VIS", "word": "lumber", "wordID": 847, "conditions": [24, 800, "v", 12000], "trial": 4, "serialpos": 7, "trial_type": "single-stim", "trial_index": 164, "time_elapsed": 1040497, "internal_node_id": "0.0-119.0"}}, {"uniqueid": "MTK1259:3M68NM076IENU9RQ50Y0PSVJOYIR6F", "current_trial": 165, "dateTime": 1513474375413, "trialdata": {"rt": -1, "stimulus": "<p id=\"stim\">LIPSTICK</p>", "key_press": -1, "type": "PRES_VIS", "word": "lipstick", "wordID": 828, "conditions": [24, 800, "v", 12000], "trial": 4, "serialpos": 8, "trial_type": "single-stim", "trial_index": 165, "time_elapsed": 1042262, "internal_node_id": "0.0-120.0"}}, {"uniqueid": "MTK1259:3M68NM076IENU9RQ50Y0PSVJOYIR6F", "current_trial": 166, "dateTime": 1513474377336, "trialdata": {"rt": -1, "stimulus": "<p id=\"stim\">PEACH</p>", "key_press": -1, "type": "PRES_VIS", "word": "peach", "wordID": 1030, "conditions": [24, 800, "v", 12000], "trial": 4, "serialpos": 9, "trial_type": "single-stim", "trial_index": 166, "time_elapsed": 1044186, "internal_node_id": "0.0-121.0"}}, {"uniqueid": "MTK1259:3M68NM076IENU9RQ50Y0PSVJOYIR6F", "current_trial": 167, "dateTime": 1513474379104, "trialdata": {"rt": -1, "stimulus": "<p id=\"stim\">CITRUS</p>", "key_press": -1, "type": "PRES_VIS", "word": "citrus", "wordID": 312, "conditions": [24, 800, "v", 12000], "trial": 4, "serialpos": 10, "trial_type": "single-stim", "trial_index": 167, "time_elapsed": 1045954, "internal_node_id": "0.0-122.0"}}, {"uniqueid": "MTK1259:3M68NM076IENU9RQ50Y0PSVJOYIR6F", "current_trial": 168, "dateTime": 1513474380776, "trialdata": {"rt": -1, "stimulus": "<p id=\"stim\">GRILL</p>", "key_press": -1, "type": "PRES_VIS", "word": "grill", "wordID": 660, "conditions": [24, 800, "v", 12000], "trial": 4, "serialpos": 11, "trial_type": "single-stim", "trial_index": 168, "time_elapsed": 1047625, "internal_node_id": "0.0-123.0"}}, {"uniqueid": "MTK1259:3M68NM076IENU9RQ50Y0PSVJOYIR6F", "current_trial": 169, "dateTime": 1513474382694, "trialdata": {"rt": -1, "stimulus": "<p id=\"stim\">OYSTER</p>", "key_press": -1, "type": "PRES_VIS", "word": "oyster", "wordID": 994, "conditions": [24, 800, "v", 12000], "trial": 4, "serialpos": 12, "trial_type": "single-stim", "trial_index": 169, "time_elapsed": 1049543, "internal_node_id": "0.0-124.0"}}, {"uniqueid": "MTK1259:3M68NM076IENU9RQ50Y0PSVJOYIR6F", "current_trial": 170, "dateTime": 1513474384443, "trialdata": {"rt": -1, "stimulus": "<p id=\"stim\">HOOD</p>", "key_press": -1, "type": "PRES_VIS", "word": "hood", "wordID": 713, "conditions": [24, 800, "v", 12000], "trial": 4, "serialpos": 13, "trial_type": "single-stim", "trial_index": 170, "time_elapsed": 1051293, "internal_node_id": "0.0-125.0"}}, {"uniqueid": "MTK1259:3M68NM076IENU9RQ50Y0PSVJOYIR6F", "current_trial": 171, "dateTime": 1513474386162, "trialdata": {"rt": -1, "stimulus": "<p id=\"stim\">GRAVE</p>", "key_press": -1, "type": "PRES_VIS", "word": "grave", "wordID": 657, "conditions": [24, 800, "v", 12000], "trial": 4, "serialpos": 14, "trial_type": "single-stim", "trial_index": 171, "time_elapsed": 1053012, "internal_node_id": "0.0-126.0"}}, {"uniqueid": "MTK1259:3M68NM076IENU9RQ50Y0PSVJOYIR6F", "current_trial": 172, "dateTime": 1513474387944, "trialdata": {"rt": -1, "stimulus": "<p id=\"stim\">WAITRESS</p>", "key_press": -1, "type": "PRES_VIS", "word": "waitress", "wordID": 1580, "conditions": [24, 800, "v", 12000], "trial": 4, "serialpos": 15, "trial_type": "single-stim", "trial_index": 172, "time_elapsed": 1054794, "internal_node_id": "0.0-127.0"}}, {"uniqueid": "MTK1259:3M68NM076IENU9RQ50Y0PSVJOYIR6F", "current_trial": 173, "dateTime": 1513474389614, "trialdata": {"rt": -1, "stimulus": "<p id=\"stim\">LABEL</p>", "key_press": -1, "type": "PRES_VIS", "word": "label", "wordID": 789, "conditions": [24, 800, "v", 12000], "trial": 4, "serialpos": 16, "trial_type": "single-stim", "trial_index": 173, "time_elapsed": 1056463, "internal_node_id": "0.0-128.0"}}, {"uniqueid": "MTK1259:3M68NM076IENU9RQ50Y0PSVJOYIR6F", "current_trial": 174, "dateTime": 1513474391365, "trialdata": {"rt": -1, "stimulus": "<p id=\"stim\">BADGE</p>", "key_press": -1, "type": "PRES_VIS", "word": "badge", "wordID": 67, "conditions": [24, 800, "v", 12000], "trial": 4, "serialpos": 17, "trial_type": "single-stim", "trial_index": 174, "time_elapsed": 1058214, "internal_node_id": "0.0-129.0"}}, {"uniqueid": "MTK1259:3M68NM076IENU9RQ50Y0PSVJOYIR6F", "current_trial": 175, "dateTime": 1513474393207, "trialdata": {"rt": -1, "stimulus": "<p id=\"stim\">SALMON</p>", "key_press": -1, "type": "PRES_VIS", "word": "salmon", "wordID": 1226, "conditions": [24, 800, "v", 12000], "trial": 4, "serialpos": 18, "trial_type": "single-stim", "trial_index": 175, "time_elapsed": 1060057, "internal_node_id": "0.0-130.0"}}, {"uniqueid": "MTK1259:3M68NM076IENU9RQ50Y0PSVJOYIR6F", "current_trial": 176, "dateTime": 1513474395189, "trialdata": {"rt": -1, "stimulus": "<p id=\"stim\">SNAKE</p>", "key_press": -1, "type": "PRES_VIS", "word": "snake", "wordID": 1332, "conditions": [24, 800, "v", 12000], "trial": 4, "serialpos": 19, "trial_type": "single-stim", "trial_index": 176, "time_elapsed": 1062039, "internal_node_id": "0.0-131.0"}}, {"uniqueid": "MTK1259:3M68NM076IENU9RQ50Y0PSVJOYIR6F", "current_trial": 177, "dateTime": 1513474397022, "trialdata": {"rt": -1, "stimulus": "<p id=\"stim\">COBRA</p>", "key_press": -1, "type": "PRES_VIS", "word": "cobra", "wordID": 335, "conditions": [24, 800, "v", 12000], "trial": 4, "serialpos": 20, "trial_type": "single-stim", "trial_index": 177, "time_elapsed": 1063871, "internal_node_id": "0.0-132.0"}}, {"uniqueid": "MTK1259:3M68NM076IENU9RQ50Y0PSVJOYIR6F", "current_trial": 178, "dateTime": 1513474399038, "trialdata": {"rt": -1, "stimulus": "<p id=\"stim\">LUNCH</p>", "key_press": -1, "type": "PRES_VIS", "word": "lunch", "wordID": 848, "conditions": [24, 800, "v", 12000], "trial": 4, "serialpos": 21, "trial_type": "single-stim", "trial_index": 178, "time_elapsed": 1065887, "internal_node_id": "0.0-133.0"}}, {"uniqueid": "MTK1259:3M68NM076IENU9RQ50Y0PSVJOYIR6F", "current_trial": 179, "dateTime": 1513474400898, "trialdata": {"rt": -1, "stimulus": "<p id=\"stim\">POWDER</p>", "key_press": -1, "type": "PRES_VIS", "word": "powder", "wordID": 1116, "conditions": [24, 800, "v", 12000], "trial": 4, "serialpos": 22, "trial_type": "single-stim", "trial_index": 179, "time_elapsed": 1067747, "internal_node_id": "0.0-134.0"}}, {"uniqueid": "MTK1259:3M68NM076IENU9RQ50Y0PSVJOYIR6F", "current_trial": 180, "dateTime": 1513474402553, "trialdata": {"rt": -1, "stimulus": "<p id=\"stim\">SLOPE</p>", "key_press": -1, "type": "PRES_VIS", "word": "slope", "wordID": 1327, "conditions": [24, 800, "v", 12000], "trial": 4, "serialpos": 23, "trial_type": "single-stim", "trial_index": 180, "time_elapsed": 1069403, "internal_node_id": "0.0-135.0"}}, {"uniqueid": "MTK1259:3M68NM076IENU9RQ50Y0PSVJOYIR6F", "current_trial": 181, "dateTime": 1513474404734, "trialdata": {"rt": -1, "stimulus": "", "key_press": -1, "type": "PRE_RECALL_DELAY", "trial_type": "single-stim", "trial_index": 181, "time_elapsed": 1071583, "internal_node_id": "0.0-136.0-0.0"}}, {"uniqueid": "MTK1259:3M68NM076IENU9RQ50Y0PSVJOYIR6F", "current_trial": 182, "dateTime": 1513474405250, "trialdata": {"rt": -1000, "stimulus": "/static/audio/400Hz.wav", "key_press": -1, "type": "PRE_RECALL_ALERT", "trial_type": "single-audio", "trial_index": 182, "time_elapsed": 1072100, "internal_node_id": "0.0-137.0"}}, {"uniqueid": "MTK1259:3M68NM076IENU9RQ50Y0PSVJOYIR6F", "current_trial": 183, "dateTime": 1513474465280, "trialdata": {"rt": [3733, 5357, 7165, 9028, 10908, 13902, 49549, 51085], "recwords": ["casket", "crib", "grave", "lunch", "slope", "powder", "snake", "cobra"], "type": "FREE_RECALL", "conditions": [24, 800, "v", 12000], "trial": 4, "trial_type": "free-recall", "trial_index": 183, "time_elapsed": 1132121, "internal_node_id": "0.0-138.0-0.0"}}, {"uniqueid": "MTK1259:3M68NM076IENU9RQ50Y0PSVJOYIR6F", "current_trial": 184, "dateTime": 1513474486973, "trialdata": {"rt": 19685, "key_press": 32, "type": "INSTRUCTIONS", "trial_type": "text", "trial_index": 184, "time_elapsed": 1153822, "internal_node_id": "0.0-139.0"}}, {"uniqueid": "MTK1259:3M68NM076IENU9RQ50Y0PSVJOYIR6F", "current_trial": 185, "dateTime": 1513474512992, "trialdata": {"rt": [1938, 4570, 6754, 10610, 12898, 18898, 22218], "responses": ["8", "10", "9", "13", "16", "21", "15"], "num1": [2, 2, 6, 5, 4, 6, 4, 4], "num2": [2, 2, 1, 1, 6, 7, 5, 6], "num3": [4, 6, 2, 7, 6, 8, 6, 3], "type": "DISTRACTOR", "conditions": [24, 800, "a", 24000], "trial": 5, "trial_type": "math-distractor", "trial_index": 185, "time_elapsed": 1179842, "internal_node_id": "0.0-140.0"}}, {"uniqueid": "MTK1259:3M68NM076IENU9RQ50Y0PSVJOYIR6F", "current_trial": 186, "dateTime": 1513474516023, "trialdata": {"rt": -1, "stimulus": "<p id=\"stim\">10</p>", "key_press": -1, "trial_type": "single-stim", "trial_index": 186, "time_elapsed": 1182872, "internal_node_id": "0.0-141.0-0.0"}}, {"uniqueid": "MTK1259:3M68NM076IENU9RQ50Y0PSVJOYIR6F", "current_trial": 187, "dateTime": 1513474517022, "trialdata": {"rt": -1, "stimulus": "<p id=\"stim\">9</p>", "key_press": -1, "trial_type": "single-stim", "trial_index": 187, "time_elapsed": 1183871, "internal_node_id": "0.0-141.0-1.0"}}, {"uniqueid": "MTK1259:3M68NM076IENU9RQ50Y0PSVJOYIR6F", "current_trial": 188, "dateTime": 1513474518022, "trialdata": {"rt": -1, "stimulus": "<p id=\"stim\">8</p>", "key_press": -1, "trial_type": "single-stim", "trial_index": 188, "time_elapsed": 1184872, "internal_node_id": "0.0-141.0-2.0"}}, {"uniqueid": "MTK1259:3M68NM076IENU9RQ50Y0PSVJOYIR6F", "current_trial": 189, "dateTime": 1513474519021, "trialdata": {"rt": -1, "stimulus": "<p id=\"stim\">7</p>", "key_press": -1, "trial_type": "single-stim", "trial_index": 189, "time_elapsed": 1185871, "internal_node_id": "0.0-141.0-3.0"}}, {"uniqueid": "MTK1259:3M68NM076IENU9RQ50Y0PSVJOYIR6F", "current_trial": 190, "dateTime": 1513474520021, "trialdata": {"rt": -1, "stimulus": "<p id=\"stim\">6</p>", "key_press": -1, "trial_type": "single-stim", "trial_index": 190, "time_elapsed": 1186871, "internal_node_id": "0.0-141.0-4.0"}}, {"uniqueid": "MTK1259:3M68NM076IENU9RQ50Y0PSVJOYIR6F", "current_trial": 191, "dateTime": 1513474521022, "trialdata": {"rt": -1, "stimulus": "<p id=\"stim\">5</p>", "key_press": -1, "trial_type": "single-stim", "trial_index": 191, "time_elapsed": 1187871, "internal_node_id": "0.0-141.0-5.0"}}, {"uniqueid": "MTK1259:3M68NM076IENU9RQ50Y0PSVJOYIR6F", "current_trial": 192, "dateTime": 1513474522022, "trialdata": {"rt": -1, "stimulus": "<p id=\"stim\">4</p>", "key_press": -1, "trial_type": "single-stim", "trial_index": 192, "time_elapsed": 1188871, "internal_node_id": "0.0-141.0-6.0"}}, {"uniqueid": "MTK1259:3M68NM076IENU9RQ50Y0PSVJOYIR6F", "current_trial": 193, "dateTime": 1513474523022, "trialdata": {"rt": -1, "stimulus": "<p id=\"stim\">3</p>", "key_press": -1, "trial_type": "single-stim", "trial_index": 193, "time_elapsed": 1189871, "internal_node_id": "0.0-141.0-7.0"}}, {"uniqueid": "MTK1259:3M68NM076IENU9RQ50Y0PSVJOYIR6F", "current_trial": 194, "dateTime": 1513474524020, "trialdata": {"rt": -1, "stimulus": "<p id=\"stim\">2</p>", "key_press": -1, "trial_type": "single-stim", "trial_index": 194, "time_elapsed": 1190869, "internal_node_id": "0.0-141.0-8.0"}}, {"uniqueid": "MTK1259:3M68NM076IENU9RQ50Y0PSVJOYIR6F", "current_trial": 195, "dateTime": 1513474525020, "trialdata": {"rt": -1, "stimulus": "<p id=\"stim\">1</p>", "key_press": -1, "trial_type": "single-stim", "trial_index": 195, "time_elapsed": 1191870, "internal_node_id": "0.0-141.0-9.0"}}, {"uniqueid": "MTK1259:3M68NM076IENU9RQ50Y0PSVJOYIR6F", "current_trial": 196, "dateTime": 1513474526537, "trialdata": {"rt": -1, "stimulus": "<p id=\"stim\">+</p>", "key_press": -1, "type": "FIXATION", "trial_type": "single-stim", "trial_index": 196, "time_elapsed": 1193386, "internal_node_id": "0.0-142.0-0.0"}}, {"uniqueid": "MTK1259:3M68NM076IENU9RQ50Y0PSVJOYIR6F", "current_trial": 197, "dateTime": 1513474528507, "trialdata": {"rt": -1000, "stimulus": "/static/audio/wordpool/LETTUCE.wav", "key_press": -1, "type": "PRES_AUD", "word": "lettuce", "wordID": 813, "conditions": [24, 800, "a", 24000], "trial": 5, "serialpos": 0, "trial_type": "single-audio", "trial_index": 197, "time_elapsed": 1195356, "internal_node_id": "0.0-143.0"}}, {"uniqueid": "MTK1259:3M68NM076IENU9RQ50Y0PSVJOYIR6F", "current_trial": 198, "dateTime": 1513474530215, "trialdata": {"rt": -1000, "stimulus": "/static/audio/wordpool/HANDBAG.wav", "key_press": -1, "type": "PRES_AUD", "word": "handbag", "wordID": 683, "conditions": [24, 800, "a", 24000], "trial": 5, "serialpos": 1, "trial_type": "single-audio", "trial_index": 198, "time_elapsed": 1197064, "internal_node_id": "0.0-144.0"}}, {"uniqueid": "MTK1259:3M68NM076IENU9RQ50Y0PSVJOYIR6F", "current_trial": 199, "dateTime": 1513474531875, "trialdata": {"rt": -1000, "stimulus": "/static/audio/wordpool/NECKLACE.wav", "key_press": -1, "type": "PRES_AUD", "word": "necklace", "wordID": 939, "conditions": [24, 800, "a", 24000], "trial": 5, "serialpos": 2, "trial_type": "single-audio", "trial_index": 199, "time_elapsed": 1198725, "internal_node_id": "0.0-145.0"}}, {"uniqueid": "MTK1259:3M68NM076IENU9RQ50Y0PSVJOYIR6F", "current_trial": 200, "dateTime": 1513474533689, "trialdata": {"rt": -1000, "stimulus": "/static/audio/wordpool/CLOCK.wav", "key_press": -1, "type": "PRES_AUD", "word": "clock", "wordID": 324, "conditions": [24, 800, "a", 24000], "trial": 5, "serialpos": 3, "trial_type": "single-audio", "trial_index": 200, "time_elapsed": 1200539, "internal_node_id": "0.0-146.0"}}, {"uniqueid": "MTK1259:3M68NM076IENU9RQ50Y0PSVJOYIR6F", "current_trial": 201, "dateTime": 1513474535440, "trialdata": {"rt": -1000, "stimulus": "/static/audio/wordpool/OUTFIT.wav", "key_press": -1, "type": "PRES_AUD", "word": "outfit", "wordID": 987, "conditions": [24, 800, "a", 24000], "trial": 5, "serialpos": 4, "trial_type": "single-audio", "trial_index": 201, "time_elapsed": 1202290, "internal_node_id": "0.0-147.0"}}, {"uniqueid": "MTK1259:3M68NM076IENU9RQ50Y0PSVJOYIR6F", "current_trial": 202, "dateTime": 1513474537367, "trialdata": {"rt": -1000, "stimulus": "/static/audio/wordpool/BRIEFCASE.wav", "key_press": -1, "type": "PRES_AUD", "word": "briefcase", "wordID": 174, "conditions": [24, 800, "a", 24000], "trial": 5, "serialpos": 5, "trial_type": "single-audio", "trial_index": 202, "time_elapsed": 1204216, "internal_node_id": "0.0-148.0"}}, {"uniqueid": "MTK1259:3M68NM076IENU9RQ50Y0PSVJOYIR6F", "current_trial": 203, "dateTime": 1513474538995, "trialdata": {"rt": -1000, "stimulus": "/static/audio/wordpool/PIZZA.wav", "key_press": -1, "type": "PRES_AUD", "word": "pizza", "wordID": 1078, "conditions": [24, 800, "a", 24000], "trial": 5, "serialpos": 6, "trial_type": "single-audio", "trial_index": 203, "time_elapsed": 1205844, "internal_node_id": "0.0-149.0"}}, {"uniqueid": "MTK1259:3M68NM076IENU9RQ50Y0PSVJOYIR6F", "current_trial": 204, "dateTime": 1513474540636, "trialdata": {"rt": -1000, "stimulus": "/static/audio/wordpool/SLIME.wav", "key_press": -1, "type": "PRES_AUD", "word": "slime", "wordID": 1326, "conditions": [24, 800, "a", 24000], "trial": 5, "serialpos": 7, "trial_type": "single-audio", "trial_index": 204, "time_elapsed": 1207486, "internal_node_id": "0.0-150.0"}}, {"uniqueid": "MTK1259:3M68NM076IENU9RQ50Y0PSVJOYIR6F", "current_trial": 205, "dateTime": 1513474542451, "trialdata": {"rt": -1000, "stimulus": "/static/audio/wordpool/PLAYGROUND.wav", "key_press": -1, "type": "PRES_AUD", "word": "playground", "wordID": 1086, "conditions": [24, 800, "a", 24000], "trial": 5, "serialpos": 8, "trial_type": "single-audio", "trial_index": 205, "time_elapsed": 1209301, "internal_node_id": "0.0-151.0"}}, {"uniqueid": "MTK1259:3M68NM076IENU9RQ50Y0PSVJOYIR6F", "current_trial": 206, "dateTime": 1513474544392, "trialdata": {"rt": -1000, "stimulus": "/static/audio/wordpool/SHORTS.wav", "key_press": -1, "type": "PRES_AUD", "word": "shorts", "wordID": 1292, "conditions": [24, 800, "a", 24000], "trial": 5, "serialpos": 9, "trial_type": "single-audio", "trial_index": 206, "time_elapsed": 1211241, "internal_node_id": "0.0-152.0"}}, {"uniqueid": "MTK1259:3M68NM076IENU9RQ50Y0PSVJOYIR6F", "current_trial": 207, "dateTime": 1513474546302, "trialdata": {"rt": -1000, "stimulus": "/static/audio/wordpool/SCULPTURE.wav", "key_press": -1, "type": "PRES_AUD", "word": "sculpture", "wordID": 1257, "conditions": [24, 800, "a", 24000], "trial": 5, "serialpos": 10, "trial_type": "single-audio", "trial_index": 207, "time_elapsed": 1213151, "internal_node_id": "0.0-153.0"}}, {"uniqueid": "MTK1259:3M68NM076IENU9RQ50Y0PSVJOYIR6F", "current_trial": 208, "dateTime": 1513474548273, "trialdata": {"rt": -1000, "stimulus": "/static/audio/wordpool/FRUIT.wav", "key_press": -1, "type": "PRES_AUD", "word": "fruit", "wordID": 609, "conditions": [24, 800, "a", 24000], "trial": 5, "serialpos": 11, "trial_type": "single-audio", "trial_index": 208, "time_elapsed": 1215122, "internal_node_id": "0.0-154.0"}}, {"uniqueid": "MTK1259:3M68NM076IENU9RQ50Y0PSVJOYIR6F", "current_trial": 209, "dateTime": 1513474550070, "trialdata": {"rt": -1000, "stimulus": "/static/audio/wordpool/BUCKET.wav", "key_press": -1, "type": "PRES_AUD", "word": "bucket", "wordID": 183, "conditions": [24, 800, "a", 24000], "trial": 5, "serialpos": 12, "trial_type": "single-audio", "trial_index": 209, "time_elapsed": 1216919, "internal_node_id": "0.0-155.0"}}, {"uniqueid": "MTK1259:3M68NM076IENU9RQ50Y0PSVJOYIR6F", "current_trial": 210, "dateTime": 1513474551760, "trialdata": {"rt": -1000, "stimulus": "/static/audio/wordpool/CABBAGE.wav", "key_press": -1, "type": "PRES_AUD", "word": "cabbage", "wordID": 209, "conditions": [24, 800, "a", 24000], "trial": 5, "serialpos": 13, "trial_type": "single-audio", "trial_index": 210, "time_elapsed": 1218609, "internal_node_id": "0.0-156.0"}}, {"uniqueid": "MTK1259:3M68NM076IENU9RQ50Y0PSVJOYIR6F", "current_trial": 211, "dateTime": 1513474553453, "trialdata": {"rt": -1000, "stimulus": "/static/audio/wordpool/FLESH.wav", "key_press": -1, "type": "PRES_AUD", "word": "flesh", "wordID": 578, "conditions": [24, 800, "a", 24000], "trial": 5, "serialpos": 14, "trial_type": "single-audio", "trial_index": 211, "time_elapsed": 1220303, "internal_node_id": "0.0-157.0"}}, {"uniqueid": "MTK1259:3M68NM076IENU9RQ50Y0PSVJOYIR6F", "current_trial": 212, "dateTime": 1513474555252, "trialdata": {"rt": -1000, "stimulus": "/static/audio/wordpool/LIVER.wav", "key_press": -1, "type": "PRES_AUD", "word": "liver", "wordID": 832, "conditions": [24, 800, "a", 24000], "trial": 5, "serialpos": 15, "trial_type": "single-audio", "trial_index": 212, "time_elapsed": 1222101, "internal_node_id": "0.0-158.0"}}, {"uniqueid": "MTK1259:3M68NM076IENU9RQ50Y0PSVJOYIR6F", "current_trial": 213, "dateTime": 1513474557051, "trialdata": {"rt": -1000, "stimulus": "/static/audio/wordpool/FLIPPER.wav", "key_press": -1, "type": "PRES_AUD", "word": "flipper", "wordID": 579, "conditions": [24, 800, "a", 24000], "trial": 5, "serialpos": 16, "trial_type": "single-audio", "trial_index": 213, "time_elapsed": 1223901, "internal_node_id": "0.0-159.0"}}, {"uniqueid": "MTK1259:3M68NM076IENU9RQ50Y0PSVJOYIR6F", "current_trial": 214, "dateTime": 1513474558785, "trialdata": {"rt": -1000, "stimulus": "/static/audio/wordpool/FOX.wav", "key_press": -1, "type": "PRES_AUD", "word": "fox", "wordID": 597, "conditions": [24, 800, "a", 24000], "trial": 5, "serialpos": 17, "trial_type": "single-audio", "trial_index": 214, "time_elapsed": 1225635, "internal_node_id": "0.0-160.0"}}, {"uniqueid": "MTK1259:3M68NM076IENU9RQ50Y0PSVJOYIR6F", "current_trial": 215, "dateTime": 1513474560722, "trialdata": {"rt": -1000, "stimulus": "/static/audio/wordpool/PIGEON.wav", "key_press": -1, "type": "PRES_AUD", "word": "pigeon", "wordID": 1064, "conditions": [24, 800, "a", 24000], "trial": 5, "serialpos": 18, "trial_type": "single-audio", "trial_index": 215, "time_elapsed": 1227572, "internal_node_id": "0.0-161.0"}}, {"uniqueid": "MTK1259:3M68NM076IENU9RQ50Y0PSVJOYIR6F", "current_trial": 216, "dateTime": 1513474562425, "trialdata": {"rt": -1000, "stimulus": "/static/audio/wordpool/MATCH.wav", "key_press": -1, "type": "PRES_AUD", "word": "match", "wordID": 877, "conditions": [24, 800, "a", 24000], "trial": 5, "serialpos": 19, "trial_type": "single-audio", "trial_index": 216, "time_elapsed": 1229275, "internal_node_id": "0.0-162.0"}}, {"uniqueid": "MTK1259:3M68NM076IENU9RQ50Y0PSVJOYIR6F", "current_trial": 217, "dateTime": 1513474564082, "trialdata": {"rt": -1000, "stimulus": "/static/audio/wordpool/COIN.wav", "key_press": -1, "type": "PRES_AUD", "word": "coin", "wordID": 342, "conditions": [24, 800, "a", 24000], "trial": 5, "serialpos": 20, "trial_type": "single-audio", "trial_index": 217, "time_elapsed": 1230931, "internal_node_id": "0.0-163.0"}}, {"uniqueid": "MTK1259:3M68NM076IENU9RQ50Y0PSVJOYIR6F", "current_trial": 218, "dateTime": 1513474565897, "trialdata": {"rt": -1000, "stimulus": "/static/audio/wordpool/COSTUME.wav", "key_press": -1, "type": "PRES_AUD", "word": "costume", "wordID": 382, "conditions": [24, 800, "a", 24000], "trial": 5, "serialpos": 21, "trial_type": "single-audio", "trial_index": 218, "time_elapsed": 1232747, "internal_node_id": "0.0-164.0"}}, {"uniqueid": "MTK1259:3M68NM076IENU9RQ50Y0PSVJOYIR6F", "current_trial": 219, "dateTime": 1513474567682, "trialdata": {"rt": -1000, "stimulus": "/static/audio/wordpool/GARLIC.wav", "key_press": -1, "type": "PRES_AUD", "word": "garlic", "wordID": 623, "conditions": [24, 800, "a", 24000], "trial": 5, "serialpos": 22, "trial_type": "single-audio", "trial_index": 219, "time_elapsed": 1234531, "internal_node_id": "0.0-165.0"}}, {"uniqueid": "MTK1259:3M68NM076IENU9RQ50Y0PSVJOYIR6F", "current_trial": 220, "dateTime": 1513474569466, "trialdata": {"rt": -1000, "stimulus": "/static/audio/wordpool/RACKET.wav", "key_press": -1, "type": "PRES_AUD", "word": "racket", "wordID": 1154, "conditions": [24, 800, "a", 24000], "trial": 5, "serialpos": 23, "trial_type": "single-audio", "trial_index": 220, "time_elapsed": 1236315, "internal_node_id": "0.0-166.0"}}, {"uniqueid": "MTK1259:3M68NM076IENU9RQ50Y0PSVJOYIR6F", "current_trial": 221, "dateTime": 1513474570832, "trialdata": {"rt": -1, "stimulus": "", "key_press": -1, "type": "PRE_RECALL_DELAY", "trial_type": "single-stim", "trial_index": 221, "time_elapsed": 1237681, "internal_node_id": "0.0-167.0-0.0"}}, {"uniqueid": "MTK1259:3M68NM076IENU9RQ50Y0PSVJOYIR6F", "current_trial": 222, "dateTime": 1513474571347, "trialdata": {"rt": -1000, "stimulus": "/static/audio/400Hz.wav", "key_press": -1, "type": "PRE_RECALL_ALERT", "trial_type": "single-audio", "trial_index": 222, "time_elapsed": 1238196, "internal_node_id": "0.0-168.0"}}, {"uniqueid": "MTK1259:3M68NM076IENU9RQ50Y0PSVJOYIR6F", "current_trial": 223, "dateTime": 1513474631376, "trialdata": {"rt": [3036, 4989, 9117, 10917, 13654, 15696, 20765, 50981], "recwords": ["racket", "garlic", "pigeon", "slime", "playground", "shorts", "garlic", "bucket"], "type": "FREE_RECALL", "conditions": [24, 800, "a", 24000], "trial": 5, "trial_type": "free-recall", "trial_index": 223, "time_elapsed": 1298215, "internal_node_id": "0.0-169.0-0.0"}}, {"uniqueid": "MTK1259:3M68NM076IENU9RQ50Y0PSVJOYIR6F", "current_trial": 224, "dateTime": 1513474641054, "trialdata": {"rt": 7673, "key_press": 32, "type": "INSTRUCTIONS", "trial_type": "text", "trial_index": 224, "time_elapsed": 1307903, "internal_node_id": "0.0-170.0"}}, {"uniqueid": "MTK1259:3M68NM076IENU9RQ50Y0PSVJOYIR6F", "current_trial": 225, "dateTime": 1513474655081, "trialdata": {"rt": [2731, 6123, 8301, 10819], "responses": ["12", "24", "21", "12"], "num1": [6, 6, 8, 1, 1], "num2": [2, 9, 8, 7, 8], "num3": [4, 9, 5, 4, 1], "type": "DISTRACTOR", "conditions": [12, 800, "v", 12000], "trial": 6, "trial_type": "math-distractor", "trial_index": 225, "time_elapsed": 1321931, "internal_node_id": "0.0-171.0"}}, {"uniqueid": "MTK1259:3M68NM076IENU9RQ50Y0PSVJOYIR6F", "current_trial": 226, "dateTime": 1513474658099, "trialdata": {"rt": -1, "stimulus": "<p id=\"stim\">10</p>", "key_press": -1, "trial_type": "single-stim", "trial_index": 226, "time_elapsed": 1324949, "internal_node_id": "0.0-172.0-0.0"}}, {"uniqueid": "MTK1259:3M68NM076IENU9RQ50Y0PSVJOYIR6F", "current_trial": 227, "dateTime": 1513474659098, "trialdata": {"rt": -1, "stimulus": "<p id=\"stim\">9</p>", "key_press": -1, "trial_type": "single-stim", "trial_index": 227, "time_elapsed": 1325948, "internal_node_id": "0.0-172.0-1.0"}}, {"uniqueid": "MTK1259:3M68NM076IENU9RQ50Y0PSVJOYIR6F", "current_trial": 228, "dateTime": 1513474660100, "trialdata": {"rt": -1, "stimulus": "<p id=\"stim\">8</p>", "key_press": -1, "trial_type": "single-stim", "trial_index": 228, "time_elapsed": 1326949, "internal_node_id": "0.0-172.0-2.0"}}, {"uniqueid": "MTK1259:3M68NM076IENU9RQ50Y0PSVJOYIR6F", "current_trial": 229, "dateTime": 1513474661085, "trialdata": {"rt": -1, "stimulus": "<p id=\"stim\">7</p>", "key_press": -1, "trial_type": "single-stim", "trial_index": 229, "time_elapsed": 1327935, "internal_node_id": "0.0-172.0-3.0"}}, {"uniqueid": "MTK1259:3M68NM076IENU9RQ50Y0PSVJOYIR6F", "current_trial": 230, "dateTime": 1513474662088, "trialdata": {"rt": -1, "stimulus": "<p id=\"stim\">6</p>", "key_press": -1, "trial_type": "single-stim", "trial_index": 230, "time_elapsed": 1328937, "internal_node_id": "0.0-172.0-4.0"}}, {"uniqueid": "MTK1259:3M68NM076IENU9RQ50Y0PSVJOYIR6F", "current_trial": 231, "dateTime": 1513474663088, "trialdata": {"rt": -1, "stimulus": "<p id=\"stim\">5</p>", "key_press": -1, "trial_type": "single-stim", "trial_index": 231, "time_elapsed": 1329938, "internal_node_id": "0.0-172.0-5.0"}}, {"uniqueid": "MTK1259:3M68NM076IENU9RQ50Y0PSVJOYIR6F", "current_trial": 232, "dateTime": 1513474664092, "trialdata": {"rt": -1, "stimulus": "<p id=\"stim\">4</p>", "key_press": -1, "trial_type": "single-stim", "trial_index": 232, "time_elapsed": 1330942, "internal_node_id": "0.0-172.0-6.0"}}, {"uniqueid": "MTK1259:3M68NM076IENU9RQ50Y0PSVJOYIR6F", "current_trial": 233, "dateTime": 1513474665094, "trialdata": {"rt": -1, "stimulus": "<p id=\"stim\">3</p>", "key_press": -1, "trial_type": "single-stim", "trial_index": 233, "time_elapsed": 1331943, "internal_node_id": "0.0-172.0-7.0"}}, {"uniqueid": "MTK1259:3M68NM076IENU9RQ50Y0PSVJOYIR6F", "current_trial": 234, "dateTime": 1513474666094, "trialdata": {"rt": -1, "stimulus": "<p id=\"stim\">2</p>", "key_press": -1, "trial_type": "single-stim", "trial_index": 234, "time_elapsed": 1332943, "internal_node_id": "0.0-172.0-8.0"}}, {"uniqueid": "MTK1259:3M68NM076IENU9RQ50Y0PSVJOYIR6F", "current_trial": 235, "dateTime": 1513474667095, "trialdata": {"rt": -1, "stimulus": "<p id=\"stim\">1</p>", "key_press": -1, "trial_type": "single-stim", "trial_index": 235, "time_elapsed": 1333944, "internal_node_id": "0.0-172.0-9.0"}}, {"uniqueid": "MTK1259:3M68NM076IENU9RQ50Y0PSVJOYIR6F", "current_trial": 236, "dateTime": 1513474668612, "trialdata": {"rt": -1, "stimulus": "<p id=\"stim\">+</p>", "key_press": -1, "type": "FIXATION", "trial_type": "single-stim", "trial_index": 236, "time_elapsed": 1335461, "internal_node_id": "0.0-173.0-0.0"}}, {"uniqueid": "MTK1259:3M68NM076IENU9RQ50Y0PSVJOYIR6F", "current_trial": 237, "dateTime": 1513474669425, "trialdata": {"rt": -1, "stimulus": "<p id=\"stim\">GLOBE</p>", "key_press": -1, "type": "PRES_VIS", "word": "globe", "wordID": 640, "conditions": [12, 800, "v", 12000], "trial": 6, "serialpos": 0, "trial_type": "single-stim", "trial_index": 237, "time_elapsed": 1336274, "internal_node_id": "0.0-174.0"}}, {"uniqueid": "MTK1259:3M68NM076IENU9RQ50Y0PSVJOYIR6F", "current_trial": 238, "dateTime": 1513474671368, "trialdata": {"rt": -1, "stimulus": "<p id=\"stim\">COMPASS</p>", "key_press": -1, "type": "PRES_VIS", "word": "compass", "wordID": 357, "conditions": [12, 800, "v", 12000], "trial": 6, "serialpos": 1, "trial_type": "single-stim", "trial_index": 238, "time_elapsed": 1338218, "internal_node_id": "0.0-175.0"}}, {"uniqueid": "MTK1259:3M68NM076IENU9RQ50Y0PSVJOYIR6F", "current_trial": 239, "dateTime": 1513474673352, "trialdata": {"rt": -1, "stimulus": "<p id=\"stim\">WOMAN</p>", "key_press": -1, "type": "PRES_VIS", "word": "woman", "wordID": 1619, "conditions": [12, 800, "v", 12000], "trial": 6, "serialpos": 2, "trial_type": "single-stim", "trial_index": 239, "time_elapsed": 1340202, "internal_node_id": "0.0-176.0"}}, {"uniqueid": "MTK1259:3M68NM076IENU9RQ50Y0PSVJOYIR6F", "current_trial": 240, "dateTime": 1513474675304, "trialdata": {"rt": -1, "stimulus": "<p id=\"stim\">AWARD</p>", "key_press": -1, "type": "PRES_VIS", "word": "award", "wordID": 62, "conditions": [12, 800, "v", 12000], "trial": 6, "serialpos": 3, "trial_type": "single-stim", "trial_index": 240, "time_elapsed": 1342153, "internal_node_id": "0.0-177.0"}}, {"uniqueid": "MTK1259:3M68NM076IENU9RQ50Y0PSVJOYIR6F", "current_trial": 241, "dateTime": 1513474677244, "trialdata": {"rt": -1, "stimulus": "<p id=\"stim\">JURY</p>", "key_press": -1, "type": "PRES_VIS", "word": "jury", "wordID": 765, "conditions": [12, 800, "v", 12000], "trial": 6, "serialpos": 4, "trial_type": "single-stim", "trial_index": 241, "time_elapsed": 1344094, "internal_node_id": "0.0-178.0"}}, {"uniqueid": "MTK1259:3M68NM076IENU9RQ50Y0PSVJOYIR6F", "current_trial": 242, "dateTime": 1513474679027, "trialdata": {"rt": -1, "stimulus": "<p id=\"stim\">GRAVEL</p>", "key_press": -1, "type": "PRES_VIS", "word": "gravel", "wordID": 658, "conditions": [12, 800, "v", 12000], "trial": 6, "serialpos": 5, "trial_type": "single-stim", "trial_index": 242, "time_elapsed": 1345877, "internal_node_id": "0.0-179.0"}}, {"uniqueid": "MTK1259:3M68NM076IENU9RQ50Y0PSVJOYIR6F", "current_trial": 243, "dateTime": 1513474681026, "trialdata": {"rt": -1, "stimulus": "<p id=\"stim\">DENIM</p>", "key_press": -1, "type": "PRES_VIS", "word": "denim", "wordID": 445, "conditions": [12, 800, "v", 12000], "trial": 6, "serialpos": 6, "trial_type": "single-stim", "trial_index": 243, "time_elapsed": 1347875, "internal_node_id": "0.0-180.0"}}, {"uniqueid": "MTK1259:3M68NM076IENU9RQ50Y0PSVJOYIR6F", "current_trial": 244, "dateTime": 1513474682963, "trialdata": {"rt": -1, "stimulus": "<p id=\"stim\">HUSBAND</p>", "key_press": -1, "type": "PRES_VIS", "word": "husband", "wordID": 727, "conditions": [12, 800, "v", 12000], "trial": 6, "serialpos": 7, "trial_type": "single-stim", "trial_index": 244, "time_elapsed": 1349812, "internal_node_id": "0.0-181.0"}}, {"uniqueid": "MTK1259:3M68NM076IENU9RQ50Y0PSVJOYIR6F", "current_trial": 245, "dateTime": 1513474684777, "trialdata": {"rt": -1, "stimulus": "<p id=\"stim\">WORLD</p>", "key_press": -1, "type": "PRES_VIS", "word": "world", "wordID": 1621, "conditions": [12, 800, "v", 12000], "trial": 6, "serialpos": 8, "trial_type": "single-stim", "trial_index": 245, "time_elapsed": 1351627, "internal_node_id": "0.0-182.0"}}, {"uniqueid": "MTK1259:3M68NM076IENU9RQ50Y0PSVJOYIR6F", "current_trial": 246, "dateTime": 1513474686418, "trialdata": {"rt": -1, "stimulus": "<p id=\"stim\">SODA</p>", "key_press": -1, "type": "PRES_VIS", "word": "soda", "wordID": 1340, "conditions": [12, 800, "v", 12000], "trial": 6, "serialpos": 9, "trial_type": "single-stim", "trial_index": 246, "time_elapsed": 1353267, "internal_node_id": "0.0-183.0"}}, {"uniqueid": "MTK1259:3M68NM076IENU9RQ50Y0PSVJOYIR6F", "current_trial": 247, "dateTime": 1513474688202, "trialdata": {"rt": -1, "stimulus": "<p id=\"stim\">DRINK</p>", "key_press": -1, "type": "PRES_VIS", "word": "drink", "wordID": 497, "conditions": [12, 800, "v", 12000], "trial": 6, "serialpos": 10, "trial_type": "single-stim", "trial_index": 247, "time_elapsed": 1355052, "internal_node_id": "0.0-184.0"}}, {"uniqueid": "MTK1259:3M68NM076IENU9RQ50Y0PSVJOYIR6F", "current_trial": 248, "dateTime": 1513474690143, "trialdata": {"rt": -1, "stimulus": "<p id=\"stim\">ZEBRA</p>", "key_press": -1, "type": "PRES_VIS", "word": "zebra", "wordID": 1634, "conditions": [12, 800, "v", 12000], "trial": 6, "serialpos": 11, "trial_type": "single-stim", "trial_index": 248, "time_elapsed": 1356993, "internal_node_id": "0.0-185.0"}}, {"uniqueid": "MTK1259:3M68NM076IENU9RQ50Y0PSVJOYIR6F", "current_trial": 249, "dateTime": 1513474692395, "trialdata": {"rt": -1, "stimulus": "", "key_press": -1, "type": "PRE_RECALL_DELAY", "trial_type": "single-stim", "trial_index": 249, "time_elapsed": 1359244, "internal_node_id": "0.0-186.0-0.0"}}, {"uniqueid": "MTK1259:3M68NM076IENU9RQ50Y0PSVJOYIR6F", "current_trial": 250, "dateTime": 1513474692910, "trialdata": {"rt": -1000, "stimulus": "/static/audio/400Hz.wav", "key_press": -1, "type": "PRE_RECALL_ALERT", "trial_type": "single-audio", "trial_index": 250, "time_elapsed": 1359759, "internal_node_id": "0.0-187.0"}}, {"uniqueid": "MTK1259:3M68NM076IENU9RQ50Y0PSVJOYIR6F", "current_trial": 251, "dateTime": 1513474752931, "trialdata": {"rt": [2947, 5722, 5938, 7323, 7498, 8763, 9042, 11658, 16546, 23018, 28972], "recwords": ["world", "compass", "", "woman", "", "drink", "", "zebra", "award", "gravel", "jury"], "type": "FREE_RECALL", "conditions": [12, 800, "v", 12000], "trial": 6, "trial_type": "free-recall", "trial_index": 251, "time_elapsed": 1419768, "internal_node_id": "0.0-188.0-0.0"}}, {"uniqueid": "MTK1259:3M68NM076IENU9RQ50Y0PSVJOYIR6F", "current_trial": 252, "dateTime": 1513474759981, "trialdata": {"rt": 5046, "key_press": 32, "type": "INSTRUCTIONS", "trial_type": "text", "trial_index": 252, "time_elapsed": 1426831, "internal_node_id": "0.0-189.0"}}, {"uniqueid": "MTK1259:3M68NM076IENU9RQ50Y0PSVJOYIR6F", "current_trial": 253, "dateTime": 1513474786004, "trialdata": {"rt": [2852, 5348, 8228, 11460, 14828, 17772, 20173, 21900], "responses": ["12", "16", "20", "13", "17", "18", "17", "8"], "num1": [3, 6, 5, 4, 5, 6, 8, 1, 5], "num2": [1, 2, 6, 7, 8, 3, 2, 1, 9], "num3": [8, 8, 9, 2, 4, 9, 7, 6, 9], "type": "DISTRACTOR", "conditions": [12, 800, "a", 24000], "trial": 7, "trial_type": "math-distractor", "trial_index": 253, "time_elapsed": 1452854, "internal_node_id": "0.0-190.0"}}, {"uniqueid": "MTK1259:3M68NM076IENU9RQ50Y0PSVJOYIR6F", "current_trial": 254, "dateTime": 1513474791348, "trialdata": {"rt": -1, "stimulus": "<p id=\"stim\">10</p>", "key_press": -1, "trial_type": "single-stim", "trial_index": 254, "time_elapsed": 1458197, "internal_node_id": "0.0-191.0-0.0"}}, {"uniqueid": "MTK1259:3M68NM076IENU9RQ50Y0PSVJOYIR6F", "current_trial": 255, "dateTime": 1513474792348, "trialdata": {"rt": -1, "stimulus": "<p id=\"stim\">9</p>", "key_press": -1, "trial_type": "single-stim", "trial_index": 255, "time_elapsed": 1459197, "internal_node_id": "0.0-191.0-1.0"}}, {"uniqueid": "MTK1259:3M68NM076IENU9RQ50Y0PSVJOYIR6F", "current_trial": 256, "dateTime": 1513474793348, "trialdata": {"rt": -1, "stimulus": "<p id=\"stim\">8</p>", "key_press": -1, "trial_type": "single-stim", "trial_index": 256, "time_elapsed": 1460197, "internal_node_id": "0.0-191.0-2.0"}}, {"uniqueid": "MTK1259:3M68NM076IENU9RQ50Y0PSVJOYIR6F", "current_trial": 257, "dateTime": 1513474794348, "trialdata": {"rt": -1, "stimulus": "<p id=\"stim\">7</p>", "key_press": -1, "trial_type": "single-stim", "trial_index": 257, "time_elapsed": 1461197, "internal_node_id": "0.0-191.0-3.0"}}, {"uniqueid": "MTK1259:3M68NM076IENU9RQ50Y0PSVJOYIR6F", "current_trial": 258, "dateTime": 1513474795347, "trialdata": {"rt": -1, "stimulus": "<p id=\"stim\">6</p>", "key_press": -1, "trial_type": "single-stim", "trial_index": 258, "time_elapsed": 1462197, "internal_node_id": "0.0-191.0-4.0"}}, {"uniqueid": "MTK1259:3M68NM076IENU9RQ50Y0PSVJOYIR6F", "current_trial": 259, "dateTime": 1513474796348, "trialdata": {"rt": -1, "stimulus": "<p id=\"stim\">5</p>", "key_press": -1, "trial_type": "single-stim", "trial_index": 259, "time_elapsed": 1463197, "internal_node_id": "0.0-191.0-5.0"}}, {"uniqueid": "MTK1259:3M68NM076IENU9RQ50Y0PSVJOYIR6F", "current_trial": 260, "dateTime": 1513474797343, "trialdata": {"rt": -1, "stimulus": "<p id=\"stim\">4</p>", "key_press": -1, "trial_type": "single-stim", "trial_index": 260, "time_elapsed": 1464193, "internal_node_id": "0.0-191.0-6.0"}}, {"uniqueid": "MTK1259:3M68NM076IENU9RQ50Y0PSVJOYIR6F", "current_trial": 261, "dateTime": 1513474798346, "trialdata": {"rt": -1, "stimulus": "<p id=\"stim\">3</p>", "key_press": -1, "trial_type": "single-stim", "trial_index": 261, "time_elapsed": 1465195, "internal_node_id": "0.0-191.0-7.0"}}, {"uniqueid": "MTK1259:3M68NM076IENU9RQ50Y0PSVJOYIR6F", "current_trial": 262, "dateTime": 1513474799347, "trialdata": {"rt": -1, "stimulus": "<p id=\"stim\">2</p>", "key_press": -1, "trial_type": "single-stim", "trial_index": 262, "time_elapsed": 1466197, "internal_node_id": "0.0-191.0-8.0"}}, {"uniqueid": "MTK1259:3M68NM076IENU9RQ50Y0PSVJOYIR6F", "current_trial": 263, "dateTime": 1513474800346, "trialdata": {"rt": -1, "stimulus": "<p id=\"stim\">1</p>", "key_press": -1, "trial_type": "single-stim", "trial_index": 263, "time_elapsed": 1467196, "internal_node_id": "0.0-191.0-9.0"}}, {"uniqueid": "MTK1259:3M68NM076IENU9RQ50Y0PSVJOYIR6F", "current_trial": 264, "dateTime": 1513474801863, "trialdata": {"rt": -1, "stimulus": "<p id=\"stim\">+</p>", "key_press": -1, "type": "FIXATION", "trial_type": "single-stim", "trial_index": 264, "time_elapsed": 1468712, "internal_node_id": "0.0-192.0-0.0"}}, {"uniqueid": "MTK1259:3M68NM076IENU9RQ50Y0PSVJOYIR6F", "current_trial": 265, "dateTime": 1513474803566, "trialdata": {"rt": -1000, "stimulus": "/static/audio/wordpool/SUSPECT.wav", "key_press": -1, "type": "PRES_AUD", "word": "suspect", "wordID": 1414, "conditions": [12, 800, "a", 24000], "trial": 7, "serialpos": 0, "trial_type": "single-audio", "trial_index": 265, "time_elapsed": 1470416, "internal_node_id": "0.0-193.0"}}, {"uniqueid": "MTK1259:3M68NM076IENU9RQ50Y0PSVJOYIR6F", "current_trial": 266, "dateTime": 1513474805271, "trialdata": {"rt": -1000, "stimulus": "/static/audio/wordpool/CARROT.wav", "key_press": -1, "type": "PRES_AUD", "word": "carrot", "wordID": 248, "conditions": [12, 800, "a", 24000], "trial": 7, "serialpos": 1, "trial_type": "single-audio", "trial_index": 266, "time_elapsed": 1472121, "internal_node_id": "0.0-194.0"}}, {"uniqueid": "MTK1259:3M68NM076IENU9RQ50Y0PSVJOYIR6F", "current_trial": 267, "dateTime": 1513474807086, "trialdata": {"rt": -1000, "stimulus": "/static/audio/wordpool/WASP.wav", "key_press": -1, "type": "PRES_AUD", "word": "wasp", "wordID": 1592, "conditions": [12, 800, "a", 24000], "trial": 7, "serialpos": 2, "trial_type": "single-audio", "trial_index": 267, "time_elapsed": 1473936, "internal_node_id": "0.0-195.0"}}, {"uniqueid": "MTK1259:3M68NM076IENU9RQ50Y0PSVJOYIR6F", "current_trial": 268, "dateTime": 1513474809026, "trialdata": {"rt": -1000, "stimulus": "/static/audio/wordpool/HEADBAND.wav", "key_press": -1, "type": "PRES_AUD", "word": "headband", "wordID": 695, "conditions": [12, 800, "a", 24000], "trial": 7, "serialpos": 3, "trial_type": "single-audio", "trial_index": 268, "time_elapsed": 1475875, "internal_node_id": "0.0-196.0"}}, {"uniqueid": "MTK1259:3M68NM076IENU9RQ50Y0PSVJOYIR6F", "current_trial": 269, "dateTime": 1513474811027, "trialdata": {"rt": -1000, "stimulus": "/static/audio/wordpool/HORNET.wav", "key_press": -1, "type": "PRES_AUD", "word": "hornet", "wordID": 717, "conditions": [12, 800, "a", 24000], "trial": 7, "serialpos": 4, "trial_type": "single-audio", "trial_index": 269, "time_elapsed": 1477877, "internal_node_id": "0.0-197.0"}}, {"uniqueid": "MTK1259:3M68NM076IENU9RQ50Y0PSVJOYIR6F", "current_trial": 270, "dateTime": 1513474812763, "trialdata": {"rt": -1000, "stimulus": "/static/audio/wordpool/BARLEY.wav", "key_press": -1, "type": "PRES_AUD", "word": "barley", "wordID": 87, "conditions": [12, 800, "a", 24000], "trial": 7, "serialpos": 5, "trial_type": "single-audio", "trial_index": 270, "time_elapsed": 1479612, "internal_node_id": "0.0-198.0"}}, {"uniqueid": "MTK1259:3M68NM076IENU9RQ50Y0PSVJOYIR6F", "current_trial": 271, "dateTime": 1513474814406, "trialdata": {"rt": -1000, "stimulus": "/static/audio/wordpool/GRAPE.wav", "key_press": -1, "type": "PRES_AUD", "word": "grape", "wordID": 653, "conditions": [12, 800, "a", 24000], "trial": 7, "serialpos": 6, "trial_type": "single-audio", "trial_index": 271, "time_elapsed": 1481255, "internal_node_id": "0.0-199.0"}}, {"uniqueid": "MTK1259:3M68NM076IENU9RQ50Y0PSVJOYIR6F", "current_trial": 272, "dateTime": 1513474816173, "trialdata