{"assignmentId": "3VFJCI1K406PR2GWHD7M1J88L1GGRI", "workerId": "MTK1638", "questiondata": {"avail_screen_height": 1300, "color_depth": 24, "screen_width": 2400, "pixel_depth": 24, "avail_screen_width": 2400, "screen_height": 1350}, "bonus": 0, "hitId": "306W7JMRYY5LVWVVCG46K7QMXF8B81", "counterbalance": 600, "useragent": "Mozilla/5.0 (Windows NT 10.0; Win64; x64; rv:57.0) Gecko/20100101 Firefox/57.0", "eventdata": [{"eventtype": "initialized", "interval": 0, "value": null, "timestamp": 1516059482844}, {"eventtype": "window_resize", "interval": 0, "value": [2380, 1204], "timestamp": 1516059482844}, {"eventtype": "focus", "interval": 167498, "value": "off", "timestamp": 1516059650342}, {"eventtype": "focus", "interval": 8016, "value": "on", "timestamp": 1516059658358}, {"eventtype": "focus", "interval": 1083525, "value": "off", "timestamp": 1516060741883}, {"eventtype": "focus", "interval": 3056, "value": "on", "timestamp": 1516060744939}, {"eventtype": "focus", "interval": 533952, "value": "off", "timestamp": 1516061278891}, {"eventtype": "focus", "interval": 19237, "value": "on", "timestamp": 1516061298128}, {"eventtype": "focus", "interval": 636376, "value": "off", "timestamp": 1516061934504}, {"eventtype": "focus", "interval": 3209, "value": "on", "timestamp": 1516061937713}], "data": [{"current_trial": 0, "trialdata": {"rt": 3599, "trial_type": "text", "internal_node_id": "0.0-0.0", "time_elapsed": 3601, "key_press": 71, "type": "INSTRUCTIONS", "trial_index": 0}, "uniqueid": "MTK1638:3VFJCI1K406PR2GWHD7M1J88L1GGRI", "dateTime": 1516059504247}, {"current_trial": 1, "trialdata": {"rt": 41572, "trial_type": "text", "internal_node_id": "0.0-1.0", "time_elapsed": 45176, "key_press": 74, "type": "INSTRUCTIONS", "trial_index": 1}, "uniqueid": "MTK1638:3VFJCI1K406PR2GWHD7M1J88L1GGRI", "dateTime": 1516059545821}, {"current_trial": 2, "trialdata": {"rt": [12270], "trial_type": "audio-test", "responses": ["ocean"], "internal_node_id": "0.0-2.0", "time_elapsed": 57488, "type": "AUDIO_TEST", "trial_index": 2}, "uniqueid": "MTK1638:3VFJCI1K406PR2GWHD7M1J88L1GGRI", "dateTime": 1516059558134}, {"current_trial": 3, "trialdata": {"rt": [11063], "trial_type": "audio-test", "responses": ["crystal"], "internal_node_id": "0.0-3.0", "time_elapsed": 68560, "type": "AUDIO_TEST", "trial_index": 3}, "uniqueid": "MTK1638:3VFJCI1K406PR2GWHD7M1J88L1GGRI", "dateTime": 1516059569205}, {"current_trial": 4, "trialdata": {"rt": [6424], "trial_type": "audio-test", "responses": ["spice"], "internal_node_id": "0.0-4.0", "time_elapsed": 74992, "type": "AUDIO_TEST", "trial_index": 4}, "uniqueid": "MTK1638:3VFJCI1K406PR2GWHD7M1J88L1GGRI", "dateTime": 1516059575637}, {"current_trial": 5, "trialdata": {"rt": 23596, "trial_type": "survey-text", "responses": "{\"Q0\":\"12am\",\"Q1\":\"10am\",\"Q2\":\"5\"}", "internal_node_id": "0.0-5.0", "time_elapsed": 99344, "type": "SLEEP_SURVEY", "trial_index": 5}, "uniqueid": "MTK1638:3VFJCI1K406PR2GWHD7M1J88L1GGRI", "dateTime": 1516059599989}, {"current_trial": 6, "trialdata": {"rt": 2486, "trial_type": "text", "internal_node_id": "0.0-6.0", "time_elapsed": 102839, "key_press": 32, "type": "INSTRUCTIONS", "trial_index": 6}, "uniqueid": "MTK1638:3VFJCI1K406PR2GWHD7M1J88L1GGRI", "dateTime": 1516059603484}, {"current_trial": 7, "trialdata": {"rt": 10315, "trial_type": "text", "internal_node_id": "0.0-7.0", "time_elapsed": 113663, "key_press": 32, "type": "INSTRUCTIONS", "trial_index": 7}, "uniqueid": "MTK1638:3VFJCI1K406PR2GWHD7M1J88L1GGRI", "dateTime": 1516059614308}, {"current_trial": 8, "trialdata": {"rt": 1044, "trial_type": "text", "internal_node_id": "0.0-8.0", "time_elapsed": 115223, "key_press": 32, "type": "INSTRUCTIONS", "trial_index": 8}, "uniqueid": "MTK1638:3VFJCI1K406PR2GWHD7M1J88L1GGRI", "dateTime": 1516059615868}, {"current_trial": 9, "trialdata": {"rt": [5133, 10037, 15797], "trial_type": "math-distractor", "key_times": [4037, 4261, 5133, 7853, 8093, 9109, 9781, 10037, 15229, 15485, 15797], "responses": ["25", "13", "16"], "num2": [9, 3, 9, 6], "num3": [7, 1, 6, 5], "conditions": [18, 1200, "a", 18000], "internal_node_id": "0.0-9.0", "key_presses": [98, 101, 13, 97, 105, 8, 99, 13, 97, 102, 13], "trial": 0, "time_elapsed": 134235, "type": "DISTRACTOR", "trial_index": 9, "num1": [9, 7, 4, 1]}, "uniqueid": "MTK1638:3VFJCI1K406PR2GWHD7M1J88L1GGRI", "dateTime": 1516059634880}, {"current_trial": 10, "trialdata": {"rt": -1, "trial_type": "single-stim", "stimulus": "<p id=\"stim\">10</p>", "internal_node_id": "0.0-10.0-0.0", "time_elapsed": 137250, "key_press": -1, "trial_index": 10}, "uniqueid": "MTK1638:3VFJCI1K406PR2GWHD7M1J88L1GGRI", "dateTime": 1516059637895}, {"current_trial": 11, "trialdata": {"rt": -1, "trial_type": "single-stim", "stimulus": "<p id=\"stim\">9</p>", "internal_node_id": "0.0-10.0-1.0", "time_elapsed": 138251, "key_press": -1, "trial_index": 11}, "uniqueid": "MTK1638:3VFJCI1K406PR2GWHD7M1J88L1GGRI", "dateTime": 1516059638896}, {"current_trial": 12, "trialdata": {"rt": -1, "trial_type": "single-stim", "stimulus": "<p id=\"stim\">8</p>", "internal_node_id": "0.0-10.0-2.0", "time_elapsed": 139258, "key_press": -1, "trial_index": 12}, "uniqueid": "MTK1638:3VFJCI1K406PR2GWHD7M1J88L1GGRI", "dateTime": 1516059639903}, {"current_trial": 13, "trialdata": {"rt": -1, "trial_type": "single-stim", "stimulus": "<p id=\"stim\">7</p>", "internal_node_id": "0.0-10.0-3.0", "time_elapsed": 140264, "key_press": -1, "trial_index": 13}, "uniqueid": "MTK1638:3VFJCI1K406PR2GWHD7M1J88L1GGRI", "dateTime": 1516059640909}, {"current_trial": 14, "trialdata": {"rt": -1, "trial_type": "single-stim", "stimulus": "<p id=\"stim\">6</p>", "internal_node_id": "0.0-10.0-4.0", "time_elapsed": 141270, "key_press": -1, "trial_index": 14}, "uniqueid": "MTK1638:3VFJCI1K406PR2GWHD7M1J88L1GGRI", "dateTime": 1516059641915}, {"current_trial": 15, "trialdata": {"rt": -1, "trial_type": "single-stim", "stimulus": "<p id=\"stim\">5</p>", "internal_node_id": "0.0-10.0-5.0", "time_elapsed": 142284, "key_press": -1, "trial_index": 15}, "uniqueid": "MTK1638:3VFJCI1K406PR2GWHD7M1J88L1GGRI", "dateTime": 1516059642930}, {"current_trial": 16, "trialdata": {"rt": -1, "trial_type": "single-stim", "stimulus": "<p id=\"stim\">4</p>", "internal_node_id": "0.0-10.0-6.0", "time_elapsed": 143289, "key_press": -1, "trial_index": 16}, "uniqueid": "MTK1638:3VFJCI1K406PR2GWHD7M1J88L1GGRI", "dateTime": 1516059643934}, {"current_trial": 17, "trialdata": {"rt": -1, "trial_type": "single-stim", "stimulus": "<p id=\"stim\">3</p>", "internal_node_id": "0.0-10.0-7.0", "time_elapsed": 144299, "key_press": -1, "trial_index": 17}, "uniqueid": "MTK1638:3VFJCI1K406PR2GWHD7M1J88L1GGRI", "dateTime": 1516059644944}, {"current_trial": 18, "trialdata": {"rt": -1, "trial_type": "single-stim", "stimulus": "<p id=\"stim\">2</p>", "internal_node_id": "0.0-10.0-8.0", "time_elapsed": 145300, "key_press": -1, "trial_index": 18}, "uniqueid": "MTK1638:3VFJCI1K406PR2GWHD7M1J88L1GGRI", "dateTime": 1516059645945}, {"current_trial": 19, "trialdata": {"rt": -1, "trial_type": "single-stim", "stimulus": "<p id=\"stim\">1</p>", "internal_node_id": "0.0-10.0-9.0", "time_elapsed": 146300, "key_press": -1, "trial_index": 19}, "uniqueid": "MTK1638:3VFJCI1K406PR2GWHD7M1J88L1GGRI", "dateTime": 1516059646945}, {"current_trial": 20, "trialdata": {"rt": -1, "trial_type": "single-stim", "stimulus": "<p id=\"stim\">+</p>", "internal_node_id": "0.0-11.0-0.0", "time_elapsed": 147802, "key_press": -1, "type": "FIXATION", "trial_index": 20}, "uniqueid": "MTK1638:3VFJCI1K406PR2GWHD7M1J88L1GGRI", "dateTime": 1516059648447}, {"current_trial": 21, "trialdata": {"rt": -1000, "trial_type": "single-audio", "word": "chipmunk", "stimulus": "/static/audio/wordpool/CHIPMUNK.wav", "conditions": [18, 1200, "a", 18000], "internal_node_id": "0.0-12.0", "trial": 0, "time_elapsed": 149818, "serialpos": 0, "key_press": -1, "wordID": 303, "type": "PRES_AUD", "trial_index": 21}, "uniqueid": "MTK1638:3VFJCI1K406PR2GWHD7M1J88L1GGRI", "dateTime": 1516059650463}, {"current_trial": 22, "trialdata": {"rt": -1000, "trial_type": "single-audio", "word": "flask", "stimulus": "/static/audio/wordpool/FLASK.wav", "conditions": [18, 1200, "a", 18000], "internal_node_id": "0.0-13.0", "trial": 0, "time_elapsed": 151985, "serialpos": 1, "key_press": -1, "wordID": 575, "type": "PRES_AUD", "trial_index": 22}, "uniqueid": "MTK1638:3VFJCI1K406PR2GWHD7M1J88L1GGRI", "dateTime": 1516059652630}, {"current_trial": 23, "trialdata": {"rt": -1000, "trial_type": "single-audio", "word": "france", "stimulus": "/static/audio/wordpool/FRANCE.wav", "conditions": [18, 1200, "a", 18000], "internal_node_id": "0.0-14.0", "trial": 0, "time_elapsed": 154312, "serialpos": 2, "key_press": -1, "wordID": 600, "type": "PRES_AUD", "trial_index": 23}, "uniqueid": "MTK1638:3VFJCI1K406PR2GWHD7M1J88L1GGRI", "dateTime": 1516059654957}, {"current_trial": 24, "trialdata": {"rt": -1000, "trial_type": "single-audio", "word": "cocktail", "stimulus": "/static/audio/wordpool/COCKTAIL.wav", "conditions": [18, 1200, "a", 18000], "internal_node_id": "0.0-15.0", "trial": 0, "time_elapsed": 156610, "serialpos": 3, "key_press": -1, "wordID": 337, "type": "PRES_AUD", "trial_index": 24}, "uniqueid": "MTK1638:3VFJCI1K406PR2GWHD7M1J88L1GGRI", "dateTime": 1516059657255}, {"current_trial": 25, "trialdata": {"rt": -1000, "trial_type": "single-audio", "word": "whistle", "stimulus": "/static/audio/wordpool/WHISTLE.wav", "conditions": [18, 1200, "a", 18000], "internal_node_id": "0.0-16.0", "trial": 0, "time_elapsed": 158967, "serialpos": 4, "key_press": -1, "wordID": 1605, "type": "PRES_AUD", "trial_index": 25}, "uniqueid": "MTK1638:3VFJCI1K406PR2GWHD7M1J88L1GGRI", "dateTime": 1516059659612}, {"current_trial": 26, "trialdata": {"rt": -1000, "trial_type": "single-audio", "word": "silk", "stimulus": "/static/audio/wordpool/SILK.wav", "conditions": [18, 1200, "a", 18000], "internal_node_id": "0.0-17.0", "trial": 0, "time_elapsed": 161237, "serialpos": 5, "key_press": -1, "wordID": 1306, "type": "PRES_AUD", "trial_index": 26}, "uniqueid": "MTK1638:3VFJCI1K406PR2GWHD7M1J88L1GGRI", "dateTime": 1516059661882}, {"current_trial": 27, "trialdata": {"rt": -1000, "trial_type": "single-audio", "word": "snack", "stimulus": "/static/audio/wordpool/SNACK.wav", "conditions": [18, 1200, "a", 18000], "internal_node_id": "0.0-18.0", "trial": 0, "time_elapsed": 163252, "serialpos": 6, "key_press": -1, "wordID": 1330, "type": "PRES_AUD", "trial_index": 27}, "uniqueid": "MTK1638:3VFJCI1K406PR2GWHD7M1J88L1GGRI", "dateTime": 1516059663897}, {"current_trial": 28, "trialdata": {"rt": -1000, "trial_type": "single-audio", "word": "fiddle", "stimulus": "/static/audio/wordpool/FIDDLE.wav", "conditions": [18, 1200, "a", 18000], "internal_node_id": "0.0-19.0", "trial": 0, "time_elapsed": 165611, "serialpos": 7, "key_press": -1, "wordID": 560, "type": "PRES_AUD", "trial_index": 28}, "uniqueid": "MTK1638:3VFJCI1K406PR2GWHD7M1J88L1GGRI", "dateTime": 1516059666256}, {"current_trial": 29, "trialdata": {"rt": -1000, "trial_type": "single-audio", "word": "zebra", "stimulus": "/static/audio/wordpool/ZEBRA.wav", "conditions": [18, 1200, "a", 18000], "internal_node_id": "0.0-20.0", "trial": 0, "time_elapsed": 167717, "serialpos": 8, "key_press": -1, "wordID": 1634, "type": "PRES_AUD", "trial_index": 29}, "uniqueid": "MTK1638:3VFJCI1K406PR2GWHD7M1J88L1GGRI", "dateTime": 1516059668362}, {"current_trial": 30, "trialdata": {"rt": -1000, "trial_type": "single-audio", "word": "notebook", "stimulus": "/static/audio/wordpool/NOTEBOOK.wav", "conditions": [18, 1200, "a", 18000], "internal_node_id": "0.0-21.0", "trial": 0, "time_elapsed": 170017, "serialpos": 9, "key_press": -1, "wordID": 958, "type": "PRES_AUD", "trial_index": 30}, "uniqueid": "MTK1638:3VFJCI1K406PR2GWHD7M1J88L1GGRI", "dateTime": 1516059670663}, {"current_trial": 31, "trialdata": {"rt": -1000, "trial_type": "single-audio", "word": "gravel", "stimulus": "/static/audio/wordpool/GRAVEL.wav", "conditions": [18, 1200, "a", 18000], "internal_node_id": "0.0-22.0", "trial": 0, "time_elapsed": 172156, "serialpos": 10, "key_press": -1, "wordID": 658, "type": "PRES_AUD", "trial_index": 31}, "uniqueid": "MTK1638:3VFJCI1K406PR2GWHD7M1J88L1GGRI", "dateTime": 1516059672801}, {"current_trial": 32, "trialdata": {"rt": -1000, "trial_type": "single-audio", "word": "swamp", "stimulus": "/static/audio/wordpool/SWAMP.wav", "conditions": [18, 1200, "a", 18000], "internal_node_id": "0.0-23.0", "trial": 0, "time_elapsed": 174317, "serialpos": 11, "key_press": -1, "wordID": 1415, "type": "PRES_AUD", "trial_index": 32}, "uniqueid": "MTK1638:3VFJCI1K406PR2GWHD7M1J88L1GGRI", "dateTime": 1516059674962}, {"current_trial": 33, "trialdata": {"rt": -1000, "trial_type": "single-audio", "word": "hedge", "stimulus": "/static/audio/wordpool/HEDGE.wav", "conditions": [18, 1200, "a", 18000], "internal_node_id": "0.0-24.0", "trial": 0, "time_elapsed": 176648, "serialpos": 12, "key_press": -1, "wordID": 698, "type": "PRES_AUD", "trial_index": 33}, "uniqueid": "MTK1638:3VFJCI1K406PR2GWHD7M1J88L1GGRI", "dateTime": 1516059677293}, {"current_trial": 34, "trialdata": {"rt": -1000, "trial_type": "single-audio", "word": "pizza", "stimulus": "/static/audio/wordpool/PIZZA.wav", "conditions": [18, 1200, "a", 18000], "internal_node_id": "0.0-25.0", "trial": 0, "time_elapsed": 179058, "serialpos": 13, "key_press": -1, "wordID": 1078, "type": "PRES_AUD", "trial_index": 34}, "uniqueid": "MTK1638:3VFJCI1K406PR2GWHD7M1J88L1GGRI", "dateTime": 1516059679703}, {"current_trial": 35, "trialdata": {"rt": -1000, "trial_type": "single-audio", "word": "inmate", "stimulus": "/static/audio/wordpool/INMATE.wav", "conditions": [18, 1200, "a", 18000], "internal_node_id": "0.0-26.0", "trial": 0, "time_elapsed": 181172, "serialpos": 14, "key_press": -1, "wordID": 737, "type": "PRES_AUD", "trial_index": 35}, "uniqueid": "MTK1638:3VFJCI1K406PR2GWHD7M1J88L1GGRI", "dateTime": 1516059681817}, {"current_trial": 36, "trialdata": {"rt": -1000, "trial_type": "single-audio", "word": "brandy", "stimulus": "/static/audio/wordpool/BRANDY.wav", "conditions": [18, 1200, "a", 18000], "internal_node_id": "0.0-27.0", "trial": 0, "time_elapsed": 183423, "serialpos": 15, "key_press": -1, "wordID": 168, "type": "PRES_AUD", "trial_index": 36}, "uniqueid": "MTK1638:3VFJCI1K406PR2GWHD7M1J88L1GGRI", "dateTime": 1516059684069}, {"current_trial": 37, "trialdata": {"rt": -1000, "trial_type": "single-audio", "word": "crab", "stimulus": "/static/audio/wordpool/CRAB.wav", "conditions": [18, 1200, "a", 18000], "internal_node_id": "0.0-28.0", "trial": 0, "time_elapsed": 185768, "serialpos": 16, "key_press": -1, "wordID": 396, "type": "PRES_AUD", "trial_index": 37}, "uniqueid": "MTK1638:3VFJCI1K406PR2GWHD7M1J88L1GGRI", "dateTime": 1516059686413}, {"current_trial": 38, "trialdata": {"rt": -1000, "trial_type": "single-audio", "word": "crutch", "stimulus": "/static/audio/wordpool/CRUTCH.wav", "conditions": [18, 1200, "a", 18000], "internal_node_id": "0.0-29.0", "trial": 0, "time_elapsed": 187980, "serialpos": 17, "key_press": -1, "wordID": 416, "type": "PRES_AUD", "trial_index": 38}, "uniqueid": "MTK1638:3VFJCI1K406PR2GWHD7M1J88L1GGRI", "dateTime": 1516059688625}, {"current_trial": 39, "trialdata": {"rt": -1, "trial_type": "single-stim", "stimulus": "", "internal_node_id": "0.0-30.0-0.0", "time_elapsed": 189275, "key_press": -1, "type": "PRE_RECALL_DELAY", "trial_index": 39}, "uniqueid": "MTK1638:3VFJCI1K406PR2GWHD7M1J88L1GGRI", "dateTime": 1516059689920}, {"current_trial": 40, "trialdata": {"rt": -1000, "trial_type": "single-audio", "stimulus": "/static/audio/400Hz.wav", "internal_node_id": "0.0-31.0", "time_elapsed": 189784, "key_press": -1, "type": "PRE_RECALL_ALERT", "trial_index": 40}, "uniqueid": "MTK1638:3VFJCI1K406PR2GWHD7M1J88L1GGRI", "dateTime": 1516059690430}, {"current_trial": 41, "trialdata": {"rt": [6141, 10245, 14397, 16101, 17333, 21709, 28973, 37877, 44957, 57901], "recwords": ["crutch", "crap", "crab", "envy", "seal", "gravel", "chickmunk", "flora", "floral", "dog"], "key_times": [2661, 3109, 3285, 3405, 3525, 4085, 4685, 5125, 5445, 5564, 6141, 9349, 9597, 9764, 9964, 10245, 13493, 13765, 13949, 14164, 14397, 14765, 15213, 15373, 15677, 16101, 16653, 16837, 17029, 17109, 17333, 20517, 20781, 20981, 21189, 21381, 21501, 21709, 24973, 25117, 25309, 25589, 26397, 26885, 27029, 27405, 27653, 27877, 28061, 28973, 36533, 36781, 36909, 37117, 37157, 37341, 37877, 39133, 39477, 39597, 39813, 39917, 40101, 40549, 40773, 41165, 41397, 41621, 42381, 42893, 43389, 43645, 43860, 44109, 44189, 44365, 44749, 44957, 57437, 57589, 57764, 57901], "trial_type": "free-recall", "conditions": [18, 1200, "a", 18000], "internal_node_id": "0.0-32.0-0.0", "key_presses": [67, 82, 85, 84, 72, 8, 8, 84, 67, 72, 13, 67, 82, 65, 80, 13, 67, 82, 65, 66, 13, 69, 78, 86, 89, 13, 83, 69, 65, 76, 13, 71, 82, 65, 86, 69, 76, 13, 67, 72, 73, 75, 8, 67, 75, 77, 85, 78, 75, 13, 16, 70, 76, 79, 82, 65, 13, 16, 70, 76, 79, 82, 65, 8, 8, 8, 8, 8, 70, 8, 16, 70, 76, 79, 82, 65, 76, 13, 68, 79, 71, 13], "trial": 0, "time_elapsed": 249795, "type": "FREE_RECALL", "trial_index": 41}, "uniqueid": "MTK1638:3VFJCI1K406PR2GWHD7M1J88L1GGRI", "dateTime": 1516059750443}, {"current_trial": 42, "trialdata": {"rt": 2109, "trial_type": "text", "internal_node_id": "0.0-33.0", "time_elapsed": 253911, "key_press": 32, "type": "INSTRUCTIONS", "trial_index": 42}, "uniqueid": "MTK1638:3VFJCI1K406PR2GWHD7M1J88L1GGRI", "dateTime": 1516059754556}, {"current_trial": 43, "trialdata": {"rt": [6140, 8452, 13460, 17484], "trial_type": "math-distractor", "key_times": [5364, 5564, 6140, 7844, 8100, 8452, 13060, 13228, 13460, 16740, 17164, 17484], "responses": ["14", "17", "22", "16"], "num2": [8, 8, 6, 7, 7], "num3": [6, 1, 9, 8, 9], "conditions": [18, 1200, "a", 18000], "internal_node_id": "0.0-34.0", "key_presses": [97, 100, 13, 97, 103, 13, 98, 98, 13, 97, 102, 13], "trial": 1, "time_elapsed": 273918, "type": "DISTRACTOR", "trial_index": 43, "num1": [1, 8, 7, 1, 8]}, "uniqueid": "MTK1638:3VFJCI1K406PR2GWHD7M1J88L1GGRI", "dateTime": 1516059774563}, {"current_trial": 44, "trialdata": {"rt": -1, "trial_type": "single-stim", "stimulus": "<p id=\"stim\">10</p>", "internal_node_id": "0.0-35.0-0.0", "time_elapsed": 276924, "key_press": -1, "trial_index": 44}, "uniqueid": "MTK1638:3VFJCI1K406PR2GWHD7M1J88L1GGRI", "dateTime": 1516059777569}, {"current_trial": 45, "trialdata": {"rt": -1, "trial_type": "single-stim", "stimulus": "<p id=\"stim\">9</p>", "internal_node_id": "0.0-35.0-1.0", "time_elapsed": 277930, "key_press": -1, "trial_index": 45}, "uniqueid": "MTK1638:3VFJCI1K406PR2GWHD7M1J88L1GGRI", "dateTime": 1516059778575}, {"current_trial": 46, "trialdata": {"rt": -1, "trial_type": "single-stim", "stimulus": "<p id=\"stim\">8</p>", "internal_node_id": "0.0-35.0-2.0", "time_elapsed": 278934, "key_press": -1, "trial_index": 46}, "uniqueid": "MTK1638:3VFJCI1K406PR2GWHD7M1J88L1GGRI", "dateTime": 1516059779579}, {"current_trial": 47, "trialdata": {"rt": -1, "trial_type": "single-stim", "stimulus": "<p id=\"stim\">7</p>", "internal_node_id": "0.0-35.0-3.0", "time_elapsed": 279934, "key_press": -1, "trial_index": 47}, "uniqueid": "MTK1638:3VFJCI1K406PR2GWHD7M1J88L1GGRI", "dateTime": 1516059780579}, {"current_trial": 48, "trialdata": {"rt": -1, "trial_type": "single-stim", "stimulus": "<p id=\"stim\">6</p>", "internal_node_id": "0.0-35.0-4.0", "time_elapsed": 280937, "key_press": -1, "trial_index": 48}, "uniqueid": "MTK1638:3VFJCI1K406PR2GWHD7M1J88L1GGRI", "dateTime": 1516059781582}, {"current_trial": 49, "trialdata": {"rt": -1, "trial_type": "single-stim", "stimulus": "<p id=\"stim\">5</p>", "internal_node_id": "0.0-35.0-5.0", "time_elapsed": 281938, "key_press": -1, "trial_index": 49}, "uniqueid": "MTK1638:3VFJCI1K406PR2GWHD7M1J88L1GGRI", "dateTime": 1516059782583}, {"current_trial": 50, "trialdata": {"rt": -1, "trial_type": "single-stim", "stimulus": "<p id=\"stim\">4</p>", "internal_node_id": "0.0-35.0-6.0", "time_elapsed": 282945, "key_press": -1, "trial_index": 50}, "uniqueid": "MTK1638:3VFJCI1K406PR2GWHD7M1J88L1GGRI", "dateTime": 1516059783590}, {"current_trial": 51, "trialdata": {"rt": -1, "trial_type": "single-stim", "stimulus": "<p id=\"stim\">3</p>", "internal_node_id": "0.0-35.0-7.0", "time_elapsed": 283955, "key_press": -1, "trial_index": 51}, "uniqueid": "MTK1638:3VFJCI1K406PR2GWHD7M1J88L1GGRI", "dateTime": 1516059784600}, {"current_trial": 52, "trialdata": {"rt": -1, "trial_type": "single-stim", "stimulus": "<p id=\"stim\">2</p>", "internal_node_id": "0.0-35.0-8.0", "time_elapsed": 284958, "key_press": -1, "trial_index": 52}, "uniqueid": "MTK1638:3VFJCI1K406PR2GWHD7M1J88L1GGRI", "dateTime": 1516059785603}, {"current_trial": 53, "trialdata": {"rt": -1, "trial_type": "single-stim", "stimulus": "<p id=\"stim\">1</p>", "internal_node_id": "0.0-35.0-9.0", "time_elapsed": 285964, "key_press": -1, "trial_index": 53}, "uniqueid": "MTK1638:3VFJCI1K406PR2GWHD7M1J88L1GGRI", "dateTime": 1516059786609}, {"current_trial": 54, "trialdata": {"rt": -1, "trial_type": "single-stim", "stimulus": "<p id=\"stim\">+</p>", "internal_node_id": "0.0-36.0-0.0", "time_elapsed": 287472, "key_press": -1, "type": "FIXATION", "trial_index": 54}, "uniqueid": "MTK1638:3VFJCI1K406PR2GWHD7M1J88L1GGRI", "dateTime": 1516059788117}, {"current_trial": 55, "trialdata": {"rt": -1000, "trial_type": "single-audio", "word": "venus", "stimulus": "/static/audio/wordpool/VENUS.wav", "conditions": [18, 1200, "a", 18000], "internal_node_id": "0.0-37.0", "trial": 1, "time_elapsed": 289627, "serialpos": 0, "key_press": -1, "wordID": 1556, "type": "PRES_AUD", "trial_index": 55}, "uniqueid": "MTK1638:3VFJCI1K406PR2GWHD7M1J88L1GGRI", "dateTime": 1516059790272}, {"current_trial": 56, "trialdata": {"rt": -1000, "trial_type": "single-audio", "word": "banjo", "stimulus": "/static/audio/wordpool/BANJO.wav", "conditions": [18, 1200, "a", 18000], "internal_node_id": "0.0-38.0", "trial": 1, "time_elapsed": 291714, "serialpos": 1, "key_press": -1, "wordID": 81, "type": "PRES_AUD", "trial_index": 56}, "uniqueid": "MTK1638:3VFJCI1K406PR2GWHD7M1J88L1GGRI", "dateTime": 1516059792359}, {"current_trial": 57, "trialdata": {"rt": -1000, "trial_type": "single-audio", "word": "kidney", "stimulus": "/static/audio/wordpool/KIDNEY.wav", "conditions": [18, 1200, "a", 18000], "internal_node_id": "0.0-39.0", "trial": 1, "time_elapsed": 293756, "serialpos": 2, "key_press": -1, "wordID": 775, "type": "PRES_AUD", "trial_index": 57}, "uniqueid": "MTK1638:3VFJCI1K406PR2GWHD7M1J88L1GGRI", "dateTime": 1516059794401}, {"current_trial": 58, "trialdata": {"rt": -1000, "trial_type": "single-audio", "word": "table", "stimulus": "/static/audio/wordpool/TABLE.wav", "conditions": [18, 1200, "a", 18000], "internal_node_id": "0.0-40.0", "trial": 1, "time_elapsed": 296133, "serialpos": 3, "key_press": -1, "wordID": 1425, "type": "PRES_AUD", "trial_index": 58}, "uniqueid": "MTK1638:3VFJCI1K406PR2GWHD7M1J88L1GGRI", "dateTime": 1516059796778}, {"current_trial": 59, "trialdata": {"rt": -1000, "trial_type": "single-audio", "word": "apple", "stimulus": "/static/audio/wordpool/APPLE.wav", "conditions": [18, 1200, "a", 18000], "internal_node_id": "0.0-41.0", "trial": 1, "time_elapsed": 298201, "serialpos": 4, "key_press": -1, "wordID": 32, "type": "PRES_AUD", "trial_index": 59}, "uniqueid": "MTK1638:3VFJCI1K406PR2GWHD7M1J88L1GGRI", "dateTime": 1516059798846}, {"current_trial": 60, "trialdata": {"rt": -1000, "trial_type": "single-audio", "word": "office", "stimulus": "/static/audio/wordpool/OFFICE.wav", "conditions": [18, 1200, "a", 18000], "internal_node_id": "0.0-42.0", "trial": 1, "time_elapsed": 300524, "serialpos": 5, "key_press": -1, "wordID": 971, "type": "PRES_AUD", "trial_index": 60}, "uniqueid": "MTK1638:3VFJCI1K406PR2GWHD7M1J88L1GGRI", "dateTime": 1516059801169}, {"current_trial": 61, "trialdata": {"rt": -1000, "trial_type": "single-audio", "word": "rabbit", "stimulus": "/static/audio/wordpool/RABBIT.wav", "conditions": [18, 1200, "a", 18000], "internal_node_id": "0.0-43.0", "trial": 1, "time_elapsed": 302743, "serialpos": 6, "key_press": -1, "wordID": 1151, "type": "PRES_AUD", "trial_index": 61}, "uniqueid": "MTK1638:3VFJCI1K406PR2GWHD7M1J88L1GGRI", "dateTime": 1516059803388}, {"current_trial": 62, "trialdata": {"rt": -1000, "trial_type": "single-audio", "word": "salmon", "stimulus": "/static/audio/wordpool/SALMON.wav", "conditions": [18, 1200, "a", 18000], "internal_node_id": "0.0-44.0", "trial": 1, "time_elapsed": 305060, "serialpos": 7, "key_press": -1, "wordID": 1226, "type": "PRES_AUD", "trial_index": 62}, "uniqueid": "MTK1638:3VFJCI1K406PR2GWHD7M1J88L1GGRI", "dateTime": 1516059805705}, {"current_trial": 63, "trialdata": {"rt": -1000, "trial_type": "single-audio", "word": "friend", "stimulus": "/static/audio/wordpool/FRIEND.wav", "conditions": [18, 1200, "a", 18000], "internal_node_id": "0.0-45.0", "trial": 1, "time_elapsed": 307109, "serialpos": 8, "key_press": -1, "wordID": 605, "type": "PRES_AUD", "trial_index": 63}, "uniqueid": "MTK1638:3VFJCI1K406PR2GWHD7M1J88L1GGRI", "dateTime": 1516059807754}, {"current_trial": 64, "trialdata": {"rt": -1000, "trial_type": "single-audio", "word": "picnic", "stimulus": "/static/audio/wordpool/PICNIC.wav", "conditions": [18, 1200, "a", 18000], "internal_node_id": "0.0-46.0", "trial": 1, "time_elapsed": 309234, "serialpos": 9, "key_press": -1, "wordID": 1059, "type": "PRES_AUD", "trial_index": 64}, "uniqueid": "MTK1638:3VFJCI1K406PR2GWHD7M1J88L1GGRI", "dateTime": 1516059809879}, {"current_trial": 65, "trialdata": {"rt": -1000, "trial_type": "single-audio", "word": "milk", "stimulus": "/static/audio/wordpool/MILK.wav", "conditions": [18, 1200, "a", 18000], "internal_node_id": "0.0-47.0", "trial": 1, "time_elapsed": 311584, "serialpos": 10, "key_press": -1, "wordID": 894, "type": "PRES_AUD", "trial_index": 65}, "uniqueid": "MTK1638:3VFJCI1K406PR2GWHD7M1J88L1GGRI", "dateTime": 1516059812229}, {"current_trial": 66, "trialdata": {"rt": -1000, "trial_type": "single-audio", "word": "quarter", "stimulus": "/static/audio/wordpool/QUARTER.wav", "conditions": [18, 1200, "a", 18000], "internal_node_id": "0.0-48.0", "trial": 1, "time_elapsed": 313908, "serialpos": 11, "key_press": -1, "wordID": 1147, "type": "PRES_AUD", "trial_index": 66}, "uniqueid": "MTK1638:3VFJCI1K406PR2GWHD7M1J88L1GGRI", "dateTime": 1516059814554}, {"current_trial": 67, "trialdata": {"rt": -1000, "trial_type": "single-audio", "word": "cabbage", "stimulus": "/static/audio/wordpool/CABBAGE.wav", "conditions": [18, 1200, "a", 18000], "internal_node_id": "0.0-49.0", "trial": 1, "time_elapsed": 316036, "serialpos": 12, "key_press": -1, "wordID": 209, "type": "PRES_AUD", "trial_index": 67}, "uniqueid": "MTK1638:3VFJCI1K406PR2GWHD7M1J88L1GGRI", "dateTime": 1516059816681}, {"current_trial": 68, "trialdata": {"rt": -1000, "trial_type": "single-audio", "word": "trench", "stimulus": "/static/audio/wordpool/TRENCH.wav", "conditions": [18, 1200, "a", 18000], "internal_node_id": "0.0-50.0", "trial": 1, "time_elapsed": 318304, "serialpos": 13, "key_press": -1, "wordID": 1502, "type": "PRES_AUD", "trial_index": 68}, "uniqueid": "MTK1638:3VFJCI1K406PR2GWHD7M1J88L1GGRI", "dateTime": 1516059818950}, {"current_trial": 69, "trialdata": {"rt": -1000, "trial_type": "single-audio", "word": "spider", "stimulus": "/static/audio/wordpool/SPIDER.wav", "conditions": [18, 1200, "a", 18000], "internal_node_id": "0.0-51.0", "trial": 1, "time_elapsed": 320455, "serialpos": 14, "key_press": -1, "wordID": 1350, "type": "PRES_AUD", "trial_index": 69}, "uniqueid": "MTK1638:3VFJCI1K406PR2GWHD7M1J88L1GGRI", "dateTime": 1516059821100}, {"current_trial": 70, "trialdata": {"rt": -1000, "trial_type": "single-audio", "word": "garbage", "stimulus": "/static/audio/wordpool/GARBAGE.wav", "conditions": [18, 1200, "a", 18000], "internal_node_id": "0.0-52.0", "trial": 1, "time_elapsed": 322576, "serialpos": 15, "key_press": -1, "wordID": 621, "type": "PRES_AUD", "trial_index": 70}, "uniqueid": "MTK1638:3VFJCI1K406PR2GWHD7M1J88L1GGRI", "dateTime": 1516059823222}, {"current_trial": 71, "trialdata": {"rt": -1000, "trial_type": "single-audio", "word": "foot", "stimulus": "/static/audio/wordpool/FOOT.wav", "conditions": [18, 1200, "a", 18000], "internal_node_id": "0.0-53.0", "trial": 1, "time_elapsed": 324912, "serialpos": 16, "key_press": -1, "wordID": 589, "type": "PRES_AUD", "trial_index": 71}, "uniqueid": "MTK1638:3VFJCI1K406PR2GWHD7M1J88L1GGRI", "dateTime": 1516059825557}, {"current_trial": 72, "trialdata": {"rt": -1000, "trial_type": "single-audio", "word": "box", "stimulus": "/static/audio/wordpool/BOX.wav", "conditions": [18, 1200, "a", 18000], "internal_node_id": "0.0-54.0", "trial": 1, "time_elapsed": 327057, "serialpos": 17, "key_press": -1, "wordID": 158, "type": "PRES_AUD", "trial_index": 72}, "uniqueid": "MTK1638:3VFJCI1K406PR2GWHD7M1J88L1GGRI", "dateTime": 1516059827702}, {"current_trial": 73, "trialdata": {"rt": -1, "trial_type": "single-stim", "stimulus": "", "internal_node_id": "0.0-55.0-0.0", "time_elapsed": 328423, "key_press": -1, "type": "PRE_RECALL_DELAY", "trial_index": 73}, "uniqueid": "MTK1638:3VFJCI1K406PR2GWHD7M1J88L1GGRI", "dateTime": 1516059829068}, {"current_trial": 74, "trialdata": {"rt": -1000, "trial_type": "single-audio", "stimulus": "/static/audio/400Hz.wav", "internal_node_id": "0.0-56.0", "time_elapsed": 328933, "key_press": -1, "type": "PRE_RECALL_ALERT", "trial_index": 74}, "uniqueid": "MTK1638:3VFJCI1K406PR2GWHD7M1J88L1GGRI", "dateTime": 1516059829578}, {"current_trial": 75, "trialdata": {"rt": [3241, 4841, 7353, 9353, 18449, 23569, 26801, 29433, 33753, 41785, 56473, 59857], "recwords": ["garbage", "foot", "box", "venus", "trench", "water", "pheonix", "traffic", "box", "crystal", "footage", "meter"], "key_times": [1609, 1768, 1873, 2369, 2609, 2753, 2977, 3241, 3809, 3937, 4137, 4233, 4841, 5233, 5441, 5650, 5945, 6433, 6665, 7033, 7353, 8273, 8465, 8561, 8753, 8865, 9353, 15537, 15761, 16145, 16297, 17873, 17985, 18449, 22713, 22913, 23041, 23257, 23337, 23569, 24233, 24409, 24729, 24993, 25144, 25593, 25784, 25897, 26801, 27769, 28001, 28169, 28425, 28625, 28753, 29249, 29433, 33281, 33473, 33601, 33753, 38649, 39217, 39425, 39457, 40057, 40417, 40697, 40961, 41154, 41354, 41465, 41585, 41785, 53377, 53801, 53969, 54433, 54633, 55241, 55242, 55721, 55929, 56169, 56337, 56473, 58961, 59081, 59233, 59441, 59617, 59857], "trial_type": "free-recall", "conditions": [18, 1200, "a", 18000], "internal_node_id": "0.0-57.0-0.0", "key_presses": [71, 65, 82, 66, 65, 71, 69, 13, 70, 79, 79, 84, 13, 66, 79, 79, 75, 8, 8, 88, 13, 86, 69, 78, 85, 83, 13, 84, 82, 69, 78, 67, 72, 13, 87, 65, 84, 69, 82, 13, 16, 80, 72, 69, 79, 78, 73, 88, 13, 84, 82, 65, 70, 70, 73, 67, 13, 66, 79, 88, 13, 75, 8, 67, 8, 8, 67, 82, 89, 83, 84, 65, 76, 13, 70, 79, 79, 84, 65, 70, 71, 8, 8, 71, 69, 13, 77, 69, 84, 69, 82, 13], "trial": 1, "time_elapsed": 388935, "type": "FREE_RECALL", "trial_index": 75}, "uniqueid": "MTK1638:3VFJCI1K406PR2GWHD7M1J88L1GGRI", "dateTime": 1516059889582}, {"current_trial": 76, "trialdata": {"rt": 3518, "trial_type": "text", "internal_node_id": "0.0-58.0", "time_elapsed": 394463, "key_press": 13, "type": "INSTRUCTIONS", "trial_index": 76}, "uniqueid": "MTK1638:3VFJCI1K406PR2GWHD7M1J88L1GGRI", "dateTime": 1516059895108}, {"current_trial": 77, "trialdata": {"rt": [3608, 6304, 10048, 12000], "trial_type": "math-distractor", "key_times": [3192, 3384, 3608, 5616, 5984, 6304, 9568, 9800, 10048, 11680, 12000], "responses": ["21", "17", "14", "7"], "num2": [5, 7, 8, 3, 8], "num3": [8, 5, 4, 3, 6], "conditions": [12, 1600, "a", 12000], "internal_node_id": "0.0-59.0", "key_presses": [98, 97, 13, 97, 103, 13, 97, 100, 13, 103, 13], "trial": 2, "time_elapsed": 407481, "type": "DISTRACTOR", "trial_index": 77, "num1": [8, 5, 2, 1, 5]}, "uniqueid": "MTK1638:3VFJCI1K406PR2GWHD7M1J88L1GGRI", "dateTime": 1516059908126}, {"current_trial": 78, "trialdata": {"rt": -1, "trial_type": "single-stim", "stimulus": "<p id=\"stim\">10</p>", "internal_node_id": "0.0-60.0-0.0", "time_elapsed": 410494, "key_press": -1, "trial_index": 78}, "uniqueid": "MTK1638:3VFJCI1K406PR2GWHD7M1J88L1GGRI", "dateTime": 1516059911139}, {"current_trial": 79, "trialdata": {"rt": -1, "trial_type": "single-stim", "stimulus": "<p id=\"stim\">9</p>", "internal_node_id": "0.0-60.0-1.0", "time_elapsed": 411498, "key_press": -1, "trial_index": 79}, "uniqueid": "MTK1638:3VFJCI1K406PR2GWHD7M1J88L1GGRI", "dateTime": 1516059912143}, {"current_trial": 80, "trialdata": {"rt": -1, "trial_type": "single-stim", "stimulus": "<p id=\"stim\">8</p>", "internal_node_id": "0.0-60.0-2.0", "time_elapsed": 412501, "key_press": -1, "trial_index": 80}, "uniqueid": "MTK1638:3VFJCI1K406PR2GWHD7M1J88L1GGRI", "dateTime": 1516059913146}, {"current_trial": 81, "trialdata": {"rt": -1, "trial_type": "single-stim", "stimulus": "<p id=\"stim\">7</p>", "internal_node_id": "0.0-60.0-3.0", "time_elapsed": 413506, "key_press": -1, "trial_index": 81}, "uniqueid": "MTK1638:3VFJCI1K406PR2GWHD7M1J88L1GGRI", "dateTime": 1516059914151}, {"current_trial": 82, "trialdata": {"rt": -1, "trial_type": "single-stim", "stimulus": "<p id=\"stim\">6</p>", "internal_node_id": "0.0-60.0-4.0", "time_elapsed": 414509, "key_press": -1, "trial_index": 82}, "uniqueid": "MTK1638:3VFJCI1K406PR2GWHD7M1J88L1GGRI", "dateTime": 1516059915154}, {"current_trial": 83, "trialdata": {"rt": -1, "trial_type": "single-stim", "stimulus": "<p id=\"stim\">5</p>", "internal_node_id": "0.0-60.0-5.0", "time_elapsed": 415513, "key_press": -1, "trial_index": 83}, "uniqueid": "MTK1638:3VFJCI1K406PR2GWHD7M1J88L1GGRI", "dateTime": 1516059916158}, {"current_trial": 84, "trialdata": {"rt": -1, "trial_type": "single-stim", "stimulus": "<p id=\"stim\">4</p>", "internal_node_id": "0.0-60.0-6.0", "time_elapsed": 416519, "key_press": -1, "trial_index": 84}, "uniqueid": "MTK1638:3VFJCI1K406PR2GWHD7M1J88L1GGRI", "dateTime": 1516059917164}, {"current_trial": 85, "trialdata": {"rt": -1, "trial_type": "single-stim", "stimulus": "<p id=\"stim\">3</p>", "internal_node_id": "0.0-60.0-7.0", "time_elapsed": 417533, "key_press": -1, "trial_index": 85}, "uniqueid": "MTK1638:3VFJCI1K406PR2GWHD7M1J88L1GGRI", "dateTime": 1516059918178}, {"current_trial": 86, "trialdata": {"rt": -1, "trial_type": "single-stim", "stimulus": "<p id=\"stim\">2</p>", "internal_node_id": "0.0-60.0-8.0", "time_elapsed": 418547, "key_press": -1, "trial_index": 86}, "uniqueid": "MTK1638:3VFJCI1K406PR2GWHD7M1J88L1GGRI", "dateTime": 1516059919193}, {"current_trial": 87, "trialdata": {"rt": -1, "trial_type": "single-stim", "stimulus": "<p id=\"stim\">1</p>", "internal_node_id": "0.0-60.0-9.0", "time_elapsed": 419553, "key_press": -1, "trial_index": 87}, "uniqueid": "MTK1638:3VFJCI1K406PR2GWHD7M1J88L1GGRI", "dateTime": 1516059920198}, {"current_trial": 88, "trialdata": {"rt": -1, "trial_type": "single-stim", "stimulus": "<p id=\"stim\">+</p>", "internal_node_id": "0.0-61.0-0.0", "time_elapsed": 421058, "key_press": -1, "type": "FIXATION", "trial_index": 88}, "uniqueid": "MTK1638:3VFJCI1K406PR2GWHD7M1J88L1GGRI", "dateTime": 1516059921703}, {"current_trial": 89, "trialdata": {"rt": -1000, "trial_type": "single-audio", "word": "puddle", "stimulus": "/static/audio/wordpool/PUDDLE.wav", "conditions": [12, 1600, "a", 12000], "internal_node_id": "0.0-62.0", "trial": 2, "time_elapsed": 423730, "serialpos": 0, "key_press": -1, "wordID": 1139, "type": "PRES_AUD", "trial_index": 89}, "uniqueid": "MTK1638:3VFJCI1K406PR2GWHD7M1J88L1GGRI", "dateTime": 1516059924375}, {"current_trial": 90, "trialdata": {"rt": -1000, "trial_type": "single-audio", "word": "novel", "stimulus": "/static/audio/wordpool/NOVEL.wav", "conditions": [12, 1600, "a", 12000], "internal_node_id": "0.0-63.0", "trial": 2, "time_elapsed": 426474, "serialpos": 1, "key_press": -1, "wordID": 959, "type": "PRES_AUD", "trial_index": 90}, "uniqueid": "MTK1638:3VFJCI1K406PR2GWHD7M1J88L1GGRI", "dateTime": 1516059927119}, {"current_trial": 91, "trialdata": {"rt": -1000, "trial_type": "single-audio", "word": "couch", "stimulus": "/static/audio/wordpool/COUCH.wav", "conditions": [12, 1600, "a", 12000], "internal_node_id": "0.0-64.0", "trial": 2, "time_elapsed": 429198, "serialpos": 2, "key_press": -1, "wordID": 385, "type": "PRES_AUD", "trial_index": 91}, "uniqueid": "MTK1638:3VFJCI1K406PR2GWHD7M1J88L1GGRI", "dateTime": 1516059929843}, {"current_trial": 92, "trialdata": {"rt": -1000, "trial_type": "single-audio", "word": "blouse", "stimulus": "/static/audio/wordpool/BLOUSE.wav", "conditions": [12, 1600, "a", 12000], "internal_node_id": "0.0-65.0", "trial": 2, "time_elapsed": 431888, "serialpos": 3, "key_press": -1, "wordID": 138, "type": "PRES_AUD", "trial_index": 92}, "uniqueid": "MTK1638:3VFJCI1K406PR2GWHD7M1J88L1GGRI", "dateTime": 1516059932533}, {"current_trial": 93, "trialdata": {"rt": -1000, "trial_type": "single-audio", "word": "ghetto", "stimulus": "/static/audio/wordpool/GHETTO.wav", "conditions": [12, 1600, "a", 12000], "internal_node_id": "0.0-66.0", "trial": 2, "time_elapsed": 434517, "serialpos": 4, "key_press": -1, "wordID": 632, "type": "PRES_AUD", "trial_index": 93}, "uniqueid": "MTK1638:3VFJCI1K406PR2GWHD7M1J88L1GGRI", "dateTime": 1516059935162}, {"current_trial": 94, "trialdata": {"rt": -1000, "trial_type": "single-audio", "word": "lettuce", "stimulus": "/static/audio/wordpool/LETTUCE.wav", "conditions": [12, 1600, "a", 12000], "internal_node_id": "0.0-67.0", "trial": 2, "time_elapsed": 436960, "serialpos": 5, "key_press": -1, "wordID": 813, "type": "PRES_AUD", "trial_index": 94}, "uniqueid": "MTK1638:3VFJCI1K406PR2GWHD7M1J88L1GGRI", "dateTime": 1516059937605}, {"current_trial": 95, "trialdata": {"rt": -1000, "trial_type": "single-audio", "word": "sandwich", "stimulus": "/static/audio/wordpool/SANDWICH.wav", "conditions": [12, 1600, "a", 12000], "internal_node_id": "0.0-68.0", "trial": 2, "time_elapsed": 439552, "serialpos": 6, "key_press": -1, "wordID": 1231, "type": "PRES_AUD", "trial_index": 95}, "uniqueid": "MTK1638:3VFJCI1K406PR2GWHD7M1J88L1GGRI", "dateTime": 1516059940197}, {"current_trial": 96, "trialdata": {"rt": -1000, "trial_type": "single-audio", "word": "denim", "stimulus": "/static/audio/wordpool/DENIM.wav", "conditions": [12, 1600, "a", 12000], "internal_node_id": "0.0-69.0", "trial": 2, "time_elapsed": 442006, "serialpos": 7, "key_press": -1, "wordID": 445, "type": "PRES_AUD", "trial_index": 96}, "uniqueid": "MTK1638:3VFJCI1K406PR2GWHD7M1J88L1GGRI", "dateTime": 1516059942651}, {"current_trial": 97, "trialdata": {"rt": -1000, "trial_type": "single-audio", "word": "postage", "stimulus": "/static/audio/wordpool/POSTAGE.wav", "conditions": [12, 1600, "a", 12000], "internal_node_id": "0.0-70.0", "trial": 2, "time_elapsed": 444492, "serialpos": 8, "key_press": -1, "wordID": 1112, "type": "PRES_AUD", "trial_index": 97}, "uniqueid": "MTK1638:3VFJCI1K406PR2GWHD7M1J88L1GGRI", "dateTime": 1516059945137}, {"current_trial": 98, "trialdata": {"rt": -1000, "trial_type": "single-audio", "word": "dorm", "stimulus": "/static/audio/wordpool/DORM.wav", "conditions": [12, 1600, "a", 12000], "internal_node_id": "0.0-71.0", "trial": 2, "time_elapsed": 447009, "serialpos": 9, "key_press": -1, "wordID": 487, "type": "PRES_AUD", "trial_index": 98}, "uniqueid": "MTK1638:3VFJCI1K406PR2GWHD7M1J88L1GGRI", "dateTime": 1516059947654}, {"current_trial": 99, "trialdata": {"rt": -1000, "trial_type": "single-audio", "word": "badge", "stimulus": "/static/audio/wordpool/BADGE.wav", "conditions": [12, 1600, "a", 12000], "internal_node_id": "0.0-72.0", "trial": 2, "time_elapsed": 449767, "serialpos": 10, "key_press": -1, "wordID": 67, "type": "PRES_AUD", "trial_index": 99}, "uniqueid": "MTK1638:3VFJCI1K406PR2GWHD7M1J88L1GGRI", "dateTime": 1516059950412}, {"current_trial": 100, "trialdata": {"rt": -1000, "trial_type": "single-audio", "word": "sticker", "stimulus": "/static/audio/wordpool/STICKER.wav", "conditions": [12, 1600, "a", 12000], "internal_node_id": "0.0-73.0", "trial": 2, "time_elapsed": 452396, "serialpos": 11, "key_press": -1, "wordID": 1381, "type": "PRES_AUD", "trial_index": 100}, "uniqueid": "MTK1638:3VFJCI1K406PR2GWHD7M1J88L1GGRI", "dateTime": 1516059953041}, {"current_trial": 101, "trialdata": {"rt": -1, "trial_type": "single-stim", "stimulus": "", "internal_node_id": "0.0-74.0-0.0", "time_elapsed": 453736, "key_press": -1, "type": "PRE_RECALL_DELAY", "trial_index": 101}, "uniqueid": "MTK1638:3VFJCI1K406PR2GWHD7M1J88L1GGRI", "dateTime": 1516059954381}, {"current_trial": 102, "trialdata": {"rt": -1000, "trial_type": "single-audio", "stimulus": "/static/audio/400Hz.wav", "internal_node_id": "0.0-75.0", "time_elapsed": 454246, "key_press": -1, "type": "PRE_RECALL_ALERT", "trial_index": 102}, "uniqueid": "MTK1638:3VFJCI1K406PR2GWHD7M1J88L1GGRI", "dateTime": 1516059954891}, {"current_trial": 103, "trialdata": {"rt": [2952, 4432, 6344, 9480, 14592, 19000, 48040, 57000], "recwords": ["sticker", "badge", "postage", "puddle", "ocean", "postage", "sewage", "trench"], "key_times": [1752, 1968, 2152, 2295, 2408, 2544, 2640, 2952, 3392, 3600, 3832, 4072, 4256, 4432, 5032, 5264, 5368, 5503, 5688, 5960, 6192, 6344, 8544, 8712, 8880, 9072, 9184, 9328, 9480, 13488, 13656, 13840, 14296, 14424, 14592, 17672, 18032, 18248, 18408, 18584, 18728, 18928, 19000, 46504, 46711, 46888, 47096, 47272, 47592, 48040, 55568, 55792, 56031, 56368, 56528, 56672, 56768, 57000], "trial_type": "free-recall", "conditions": [12, 1600, "a", 12000], "internal_node_id": "0.0-76.0-0.0", "key_presses": [83, 84, 73, 67, 75, 69, 82, 13, 66, 65, 68, 71, 69, 13, 80, 79, 83, 84, 65, 71, 69, 13, 80, 85, 68, 68, 76, 69, 13, 79, 67, 69, 65, 78, 13, 80, 79, 83, 84, 65, 71, 69, 13, 83, 69, 87, 65, 71, 69, 13, 16, 84, 82, 69, 78, 67, 72, 13], "trial": 2, "time_elapsed": 514260, "type": "FREE_RECALL", "trial_index": 103}, "uniqueid": "MTK1638:3VFJCI1K406PR2GWHD7M1J88L1GGRI", "dateTime": 1516060014907}, {"current_trial": 104, "trialdata": {"rt": 1824, "trial_type": "text", "internal_node_id": "0.0-77.0", "time_elapsed": 518087, "key_press": 13, "type": "INSTRUCTIONS", "trial_index": 104}, "uniqueid": "MTK1638:3VFJCI1K406PR2GWHD7M1J88L1GGRI", "dateTime": 1516060018732}, {"current_trial": 105, "trialdata": {"rt": [4743, 8775], "trial_type": "math-distractor", "key_times": [4239, 4439, 4743, 8263, 8503, 8775, 11472, 11687, 11688], "responses": ["17", "15"], "num2": [4, 3, 4], "num3": [6, 8, 5], "conditions": [24, 800, "a", 12000], "internal_node_id": "0.0-78.0", "key_presses": [97, 103, 13, 97, 101, 13, 97, 99, 107], "trial": 3, "time_elapsed": 532105, "type": "DISTRACTOR", "trial_index": 105, "num1": [7, 4, 4]}, "uniqueid": "MTK1638:3VFJCI1K406PR2GWHD7M1J88L1GGRI", "dateTime": 1516060032750}, {"current_trial": 106, "trialdata": {"rt": -1, "trial_type": "single-stim", "stimulus": "<p id=\"stim\">10</p>", "internal_node_id": "0.0-79.0-0.0", "time_elapsed": 535122, "key_press": -1, "trial_index": 106}, "uniqueid": "MTK1638:3VFJCI1K406PR2GWHD7M1J88L1GGRI", "dateTime": 1516060035767}, {"current_trial": 107, "trialdata": {"rt": -1, "trial_type": "single-stim", "stimulus": "<p id=\"stim\">9</p>", "internal_node_id": "0.0-79.0-1.0", "time_elapsed": 536127, "key_press": -1, "trial_index": 107}, "uniqueid": "MTK1638:3VFJCI1K406PR2GWHD7M1J88L1GGRI", "dateTime": 1516060036772}, {"current_trial": 108, "trialdata": {"rt": -1, "trial_type": "single-stim", "stimulus": "<p id=\"stim\">8</p>", "internal_node_id": "0.0-79.0-2.0", "time_elapsed": 537142, "key_press": -1, "trial_index": 108}, "uniqueid": "MTK1638:3VFJCI1K406PR2GWHD7M1J88L1GGRI", "dateTime": 1516060037787}, {"current_trial": 109, "trialdata": {"rt": -1, "trial_type": "single-stim", "stimulus": "<p id=\"stim\">7</p>", "internal_node_id": "0.0-79.0-3.0", "time_elapsed": 538147, "key_press": -1, "trial_index": 109}, "uniqueid": "MTK1638:3VFJCI1K406PR2GWHD7M1J88L1GGRI", "dateTime": 1516060038792}, {"current_trial": 110, "trialdata": {"rt": -1, "trial_type": "single-stim", "stimulus": "<p id=\"stim\">6</p>", "internal_node_id": "0.0-79.0-4.0", "time_elapsed": 539151, "key_press": -1, "trial_index": 110}, "uniqueid": "MTK1638:3VFJCI1K406PR2GWHD7M1J88L1GGRI", "dateTime": 1516060039796}, {"current_trial": 111, "trialdata": {"rt": -1, "trial_type": "single-stim", "stimulus": "<p id=\"stim\">5</p>", "internal_node_id": "0.0-79.0-5.0", "time_elapsed": 540152, "key_press": -1, "trial_index": 111}, "uniqueid": "MTK1638:3VFJCI1K406PR2GWHD7M1J88L1GGRI", "dateTime": 1516060040797}, {"current_trial": 112, "trialdata": {"rt": -1, "trial_type": "single-stim", "stimulus": "<p id=\"stim\">4</p>", "internal_node_id": "0.0-79.0-6.0", "time_elapsed": 541157, "key_press": -1, "trial_index": 112}, "uniqueid": "MTK1638:3VFJCI1K406PR2GWHD7M1J88L1GGRI", "dateTime": 1516060041802}, {"current_trial": 113, "trialdata": {"rt": -1, "trial_type": "single-stim", "stimulus": "<p id=\"stim\">3</p>", "internal_node_id": "0.0-79.0-7.0", "time_elapsed": 542161, "key_press": -1, "trial_index": 113}, "uniqueid": "MTK1638:3VFJCI1K406PR2GWHD7M1J88L1GGRI", "dateTime": 1516060042807}, {"current_trial": 114, "trialdata": {"rt": -1, "trial_type": "single-stim", "stimulus": "<p id=\"stim\">2</p>", "internal_node_id": "0.0-79.0-8.0", "time_elapsed": 543171, "key_press": -1, "trial_index": 114}, "uniqueid": "MTK1638:3VFJCI1K406PR2GWHD7M1J88L1GGRI", "dateTime": 1516060043816}, {"current_trial": 115, "trialdata": {"rt": -1, "trial_type": "single-stim", "stimulus": "<p id=\"stim\">1</p>", "internal_node_id": "0.0-79.0-9.0", "time_elapsed": 544176, "key_press": -1, "trial_index": 115}, "uniqueid": "MTK1638:3VFJCI1K406PR2GWHD7M1J88L1GGRI", "dateTime": 1516060044822}, {"current_trial": 116, "trialdata": {"rt": -1, "trial_type": "single-stim", "stimulus": "<p id=\"stim\">+</p>", "internal_node_id": "0.0-80.0-0.0", "time_elapsed": 545677, "key_press": -1, "type": "FIXATION", "trial_index": 116}, "uniqueid": "MTK1638:3VFJCI1K406PR2GWHD7M1J88L1GGRI", "dateTime": 1516060046322}, {"current_trial": 117, "trialdata": {"rt": -1000, "trial_type": "single-audio", "word": "diner", "stimulus": "/static/audio/wordpool/DINER.wav", "conditions": [24, 800, "a", 12000], "internal_node_id": "0.0-81.0", "trial": 3, "time_elapsed": 547289, "serialpos": 0, "key_press": -1, "wordID": 466, "type": "PRES_AUD", "trial_index": 117}, "uniqueid": "MTK1638:3VFJCI1K406PR2GWHD7M1J88L1GGRI", "dateTime": 1516060047934}, {"current_trial": 118, "trialdata": {"rt": -1000, "trial_type": "single-audio", "word": "waiter", "stimulus": "/static/audio/wordpool/WAITER.wav", "conditions": [24, 800, "a", 12000], "internal_node_id": "0.0-82.0", "trial": 3, "time_elapsed": 549006, "serialpos": 1, "key_press": -1, "wordID": 1579, "type": "PRES_AUD", "trial_index": 118}, "uniqueid": "MTK1638:3VFJCI1K406PR2GWHD7M1J88L1GGRI", "dateTime": 1516060049651}, {"current_trial": 119, "trialdata": {"rt": -1000, "trial_type": "single-audio", "word": "soda", "stimulus": "/static/audio/wordpool/SODA.wav", "conditions": [24, 800, "a", 12000], "internal_node_id": "0.0-83.0", "trial": 3, "time_elapsed": 550996, "serialpos": 2, "key_press": -1, "wordID": 1340, "type": "PRES_AUD", "trial_index": 119}, "uniqueid": "MTK1638:3VFJCI1K406PR2GWHD7M1J88L1GGRI", "dateTime": 1516060051641}, {"current_trial": 120, "trialdata": {"rt": -1000, "trial_type": "single-audio", "word": "maple", "stimulus": "/static/audio/wordpool/MAPLE.wav", "conditions": [24, 800, "a", 12000], "internal_node_id": "0.0-84.0", "trial": 3, "time_elapsed": 552747, "serialpos": 3, "key_press": -1, "wordID": 865, "type": "PRES_AUD", "trial_index": 120}, "uniqueid": "MTK1638:3VFJCI1K406PR2GWHD7M1J88L1GGRI", "dateTime": 1516060053392}, {"current_trial": 121, "trialdata": {"rt": -1000, "trial_type": "single-audio", "word": "typist", "stimulus": "/static/audio/wordpool/TYPIST.wav", "conditions": [24, 800, "a", 12000], "internal_node_id": "0.0-85.0", "trial": 3, "time_elapsed": 554390, "serialpos": 4, "key_press": -1, "wordID": 1531, "type": "PRES_AUD", "trial_index": 121}, "uniqueid": "MTK1638:3VFJCI1K406PR2GWHD7M1J88L1GGRI", "dateTime": 1516060055035}, {"current_trial": 122, "trialdata": {"rt": -1000, "trial_type": "single-audio", "word": "stone", "stimulus": "/static/audio/wordpool/STONE.wav", "conditions": [24, 800, "a", 12000], "internal_node_id": "0.0-86.0", "trial": 3, "time_elapsed": 556087, "serialpos": 5, "key_press": -1, "wordID": 1384, "type": "PRES_AUD", "trial_index": 122}, "uniqueid": "MTK1638:3VFJCI1K406PR2GWHD7M1J88L1GGRI", "dateTime": 1516060056732}, {"current_trial": 123, "trialdata": {"rt": -1000, "trial_type": "single-audio", "word": "snail", "stimulus": "/static/audio/wordpool/SNAIL.wav", "conditions": [24, 800, "a", 12000], "internal_node_id": "0.0-87.0", "trial": 3, "time_elapsed": 557928, "serialpos": 6, "key_press": -1, "wordID": 1331, "type": "PRES_AUD", "trial_index": 123}, "uniqueid": "MTK1638:3VFJCI1K406PR2GWHD7M1J88L1GGRI", "dateTime": 1516060058573}, {"current_trial": 124, "trialdata": {"rt": -1000, "trial_type": "single-audio", "word": "candy", "stimulus": "/static/audio/wordpool/CANDY.wav", "conditions": [24, 800, "a", 12000], "internal_node_id": "0.0-88.0", "trial": 3, "time_elapsed": 559917, "serialpos": 7, "key_press": -1, "wordID": 229, "type": "PRES_AUD", "trial_index": 124}, "uniqueid": "MTK1638:3VFJCI1K406PR2GWHD7M1J88L1GGRI", "dateTime": 1516060060562}, {"current_trial": 125, "trialdata": {"rt": -1000, "trial_type": "single-audio", "word": "thief", "stimulus": "/static/audio/wordpool/THIEF.wav", "conditions": [24, 800, "a", 12000], "internal_node_id": "0.0-89.0", "trial": 3, "time_elapsed": 561801, "serialpos": 8, "key_press": -1, "wordID": 1455, "type": "PRES_AUD", "trial_index": 125}, "uniqueid": "MTK1638:3VFJCI1K406PR2GWHD7M1J88L1GGRI", "dateTime": 1516060062447}, {"current_trial": 126, "trialdata": {"rt": -1000, "trial_type": "single-audio", "word": "trombone", "stimulus": "/static/audio/wordpool/TROMBONE.wav", "conditions": [24, 800, "a", 12000], "internal_node_id": "0.0-90.0", "trial": 3, "time_elapsed": 563477, "serialpos": 9, "key_press": -1, "wordID": 1507, "type": "PRES_AUD", "trial_index": 126}, "uniqueid": "MTK1638:3VFJCI1K406PR2GWHD7M1J88L1GGRI", "dateTime": 1516060064123}, {"current_trial": 127, "trialdata": {"rt": -1000, "trial_type": "single-audio", "word": "tribe", "stimulus": "/static/audio/wordpool/TRIBE.wav", "conditions": [24, 800, "a", 12000], "internal_node_id": "0.0-91.0", "trial": 3, "time_elapsed": 565267, "serialpos": 10, "key_press": -1, "wordID": 1504, "type": "PRES_AUD", "trial_index": 127}, "uniqueid": "MTK1638:3VFJCI1K406PR2GWHD7M1J88L1GGRI", "dateTime": 1516060065912}, {"current_trial": 128, "trialdata": {"rt": -1000, "trial_type": "single-audio", "word": "eagle", "stimulus": "/static/audio/wordpool/EAGLE.wav", "conditions": [24, 800, "a", 12000], "internal_node_id": "0.0-92.0", "trial": 3, "time_elapsed": 566885, "serialpos": 11, "key_press": -1, "wordID": 511, "type": "PRES_AUD", "trial_index": 128}, "uniqueid": "MTK1638:3VFJCI1K406PR2GWHD7M1J88L1GGRI", "dateTime": 1516060067530}, {"current_trial": 129, "trialdata": {"rt": -1000, "trial_type": "single-audio", "word": "highway", "stimulus": "/static/audio/wordpool/HIGHWAY.wav", "conditions": [24, 800, "a", 12000], "internal_node_id": "0.0-93.0", "trial": 3, "time_elapsed": 568728, "serialpos": 12, "key_press": -1, "wordID": 706, "type": "PRES_AUD", "trial_index": 129}, "uniqueid": "MTK1638:3VFJCI1K406PR2GWHD7M1J88L1GGRI", "dateTime": 1516060069373}, {"current_trial": 130, "trialdata": {"rt": -1000, "trial_type": "single-audio", "word": "breast", "stimulus": "/static/audio/wordpool/BREAST.wav", "conditions": [24, 800, "a", 12000], "internal_node_id": "0.0-94.0", "trial": 3, "time_elapsed": 570396, "serialpos": 13, "key_press": -1, "wordID": 170, "type": "PRES_AUD", "trial_index": 130}, "uniqueid": "MTK1638:3VFJCI1K406PR2GWHD7M1J88L1GGRI", "dateTime": 1516060071041}, {"current_trial": 131, "trialdata": {"rt": -1000, "trial_type": "single-audio", "word": "nurse", "stimulus": "/static/audio/wordpool/NURSE.wav", "conditions": [24, 800, "a", 12000], "internal_node_id": "0.0-95.0", "trial": 3, "time_elapsed": 572246, "serialpos": 14, "key_press": -1, "wordID": 962, "type": "PRES_AUD", "trial_index": 131}, "uniqueid": "MTK1638:3VFJCI1K406PR2GWHD7M1J88L1GGRI", "dateTime": 1516060072891}, {"current_trial": 132, "trialdata": {"rt": -1000, "trial_type": "single-audio", "word": "actress", "stimulus": "/static/audio/wordpool/ACTRESS.wav", "conditions": [24, 800, "a", 12000], "internal_node_id": "0.0-96.0", "trial": 3, "time_elapsed": 573886, "serialpos": 15, "key_press": -1, "wordID": 5, "type": "PRES_AUD", "trial_index": 132}, "uniqueid": "MTK1638:3VFJCI1K406PR2GWHD7M1J88L1GGRI", "dateTime": 1516060074531}, {"current_trial": 133, "trialdata": {"rt": -1000, "trial_type": "single-audio", "word": "wasp", "stimulus": "/static/audio/wordpool/WASP.wav", "conditions": [24, 800, "a", 12000], "internal_node_id": "0.0-97.0", "trial": 3, "time_elapsed": 575642, "serialpos": 16, "key_press": -1, "wordID": 1592, "type": "PRES_AUD", "trial_index": 133}, "uniqueid": "MTK1638:3VFJCI1K406PR2GWHD7M1J88L1GGRI", "dateTime": 1516060076287}, {"current_trial": 134, "trialdata": {"rt": -1000, "trial_type": "single-audio", "word": "catcher", "stimulus": "/static/audio/wordpool/CATCHER.wav", "conditions": [24, 800, "a", 12000], "internal_node_id": "0.0-98.0", "trial": 3, "time_elapsed": 577388, "serialpos": 17, "key_press": -1, "wordID": 257, "type": "PRES_AUD", "trial_index": 134}, "uniqueid": "MTK1638:3VFJCI1K406PR2GWHD7M1J88L1GGRI", "dateTime": 1516060078033}, {"current_trial": 135, "trialdata": {"rt": -1000, "trial_type": "single-audio", "word": "slime", "stimulus": "/static/audio/wordpool/SLIME.wav", "conditions": [24, 800, "a", 12000], "internal_node_id": "0.0-99.0", "trial": 3, "time_elapsed": 579147, "serialpos": 18, "key_press": -1, "wordID": 1326, "type": "PRES_AUD", "trial_index": 135}, "uniqueid": "MTK1638:3VFJCI1K406PR2GWHD7M1J88L1GGRI", "dateTime": 1516060079792}, {"current_trial": 136, "trialdata": {"rt": -1000, "trial_type": "single-audio", "word": "fungus", "stimulus": "/static/audio/wordpool/FUNGUS.wav", "conditions": [24, 800, "a", 12000], "internal_node_id": "0.0-100.0", "trial": 3, "time_elapsed": 580788, "serialpos": 19, "key_press": -1, "wordID": 613, "type": "PRES_AUD", "trial_index": 136}, "uniqueid": "MTK1638:3VFJCI1K406PR2GWHD7M1J88L1GGRI", "dateTime": 1516060081433}, {"current_trial": 137, "trialdata": {"rt": -1000, "trial_type": "single-audio", "word": "piano", "stimulus": "/static/audio/wordpool/PIANO.wav", "conditions": [24, 800, "a", 12000], "internal_node_id": "0.0-101.0", "trial": 3, "time_elapsed": 582574, "serialpos": 20, "key_press": -1, "wordID": 1056, "type": "PRES_AUD", "trial_index": 137}, "uniqueid": "MTK1638:3VFJCI1K406PR2GWHD7M1J88L1GGRI", "dateTime": 1516060083219}, {"current_trial": 138, "trialdata": {"rt": -1000, "trial_type": "single-audio", "word": "robin", "stimulus": "/static/audio/wordpool/ROBIN.wav", "conditions": [24, 800, "a", 12000], "internal_node_id": "0.0-102.0", "trial": 3, "time_elapsed": 584381, "serialpos": 21, "key_press": -1, "wordID": 1198, "type": "PRES_AUD", "trial_index": 138}, "uniqueid": "MTK1638:3VFJCI1K406PR2GWHD7M1J88L1GGRI", "dateTime": 1516060085026}, {"current_trial": 139, "trialdata": {"rt": -1000, "trial_type": "single-audio", "word": "sparrow", "stimulus": "/static/audio/wordpool/SPARROW.wav", "conditions": [24, 800, "a", 12000], "internal_node_id": "0.0-103.0", "trial": 3, "time_elapsed": 586042, "serialpos": 22, "key_press": -1, "wordID": 1346, "type": "PRES_AUD", "trial_index": 139}, "uniqueid": "MTK1638:3VFJCI1K406PR2GWHD7M1J88L1GGRI", "dateTime": 1516060086687}, {"current_trial": 140, "trialdata": {"rt": -1000, "trial_type": "single-audio", "word": "sphinx", "stimulus": "/static/audio/wordpool/SPHINX.wav", "conditions": [24, 800, "a", 12000], "internal_node_id": "0.0-104.0", "trial": 3, "time_elapsed": 587751, "serialpos": 23, "key_press": -1, "wordID": 1348, "type": "PRES_AUD", "trial_index": 140}, "uniqueid": "MTK1638:3VFJCI1K406PR2GWHD7M1J88L1GGRI", "dateTime": 1516060088396}, {"current_trial": 141, "trialdata": {"rt": -1, "trial_type": "single-stim", "stimulus": "", "internal_node_id": "0.0-105.0-0.0", "time_elapsed": 589039, "key_press": -1, "type": "PRE_RECALL_DELAY", "trial_index": 141}, "uniqueid": "MTK1638:3VFJCI1K406PR2GWHD7M1J88L1GGRI", "dateTime": 1516060089684}, {"current_trial": 142, "trialdata": {"rt": -1000, "trial_type": "single-audio", "stimulus": "/static/audio/400Hz.wav", "internal_node_id": "0.0-106.0", "time_elapsed": 589551, "key_press": -1, "type": "PRE_RECALL_ALERT", "trial_index": 142}, "uniqueid": "MTK1638:3VFJCI1K406PR2GWHD7M1J88L1GGRI", "dateTime": 1516060090196}, {"current_trial": 143, "trialdata": {"rt": [6240, 8183, 11903, 14583, 16823, 18871, 22143, 27959, 35311, 49631], "recwords": ["robin]", "piano", "sparrow", "spinx", "piano", "waiter", "soda", "maple", "breast", "diner"], "key_times": [3711, 4055, 4327, 4703, 4919, 5103, 5239, 5367, 5487, 5639, 6240, 6240, 6991, 7071, 7319, 7479, 7599, 7951, 8183, 8919, 9031, 9591, 10159, 10367, 10727, 11007, 11199, 11287, 11399, 11903, 12367, 12663, 12943, 13263, 14031, 14271, 14583, 15383, 15890, 15920, 15926, 16143, 16295, 16383, 16543, 16823, 17727, 17887, 18151, 18247, 18392, 18607, 18703, 18871, 19855, 20103, 20215, 20415, 20543, 20935, 21167, 21335, 21567, 21751, 21966, 22143, 24335, 24837, 24868, 24900, 24919, 25295, 25447, 26031, 26311, 26815, 27047, 27447, 27551, 27959, 33239, 33744, 33775, 33783, 34119, 34383, 34535, 34879, 35079, 35311, 48239, 48703, 48871, 49335, 49447, 49631], "trial_type": "free-recall", "conditions": [24, 800, "a", 12000], "internal_node_id": "0.0-107.0-0.0", "key_presses": [16, 84, 79, 8, 8, 82, 79, 66, 73, 78, 221, 13, 16, 80, 73, 65, 78, 79, 13, 83, 16, 8, 83, 80, 65, 82, 82, 79, 87, 13, 16, 83, 80, 73, 78, 88, 13, 16, 16, 16, 80, 73, 65, 78, 79, 13, 16, 87, 65, 73, 84, 69, 82, 13, 16, 83, 79, 68, 65, 8, 8, 8, 79, 68, 65, 13, 16, 16, 16, 16, 77, 65, 80, 66, 76, 8, 8, 76, 69, 13, 16, 16, 16, 66, 82, 69, 65, 83, 84, 13, 68, 73, 78, 69, 82, 13], "trial": 3, "time_elapsed": 649554, "type": "FREE_RECALL", "trial_index": 143}, "uniqueid": "MTK1638:3VFJCI1K406PR2GWHD7M1J88L1GGRI", "dateTime": 1516060150200}, {"current_trial": 144, "trialdata": {"rt": 24366, "trial_type": "text", "internal_node_id": "0.0-108.0", "time_elapsed": 675927, "key_press": 98, "type": "INSTRUCTIONS", "trial_index": 144}, "uniqueid": "MTK1638:3VFJCI1K406PR2GWHD7M1J88L1GGRI", "dateTime": 1516060176572}, {"current_trial": 145, "trialdata": {"rt": [11345], "trial_type": "math-distractor", "key_times": [9969, 10657, 11345], "responses": ["13"], "num2": [2, 9], "num3": [7, 2], "conditions": [12, 800, "a", 12000], "internal_node_id": "0.0-109.0", "key_presses": [49, 51, 13], "trial": 4, "time_elapsed": 689937, "type": "DISTRACTOR", "trial_index": 145, "num1": [4, 9]}, "uniqueid": "MTK1638:3VFJCI1K406PR2GWHD7M1J88L1GGRI", "dateTime": 1516060190582}, {"current_trial": 146, "trialdata": {"rt": -1, "trial_type": "single-stim", "stimulus": "<p id=\"stim\">10</p>", "internal_node_id": "0.0-110.0-0.0", "time_elapsed": 692949, "key_press": -1, "trial_index": 146}, "uniqueid": "MTK1638:3VFJCI1K406PR2GWHD7M1J88L1GGRI", "dateTime": 1516060193594}, {"current_trial": 147, "trialdata": {"rt": -1, "trial_type": "single-stim", "stimulus": "<p id=\"stim\">9</p>", "internal_node_id": "0.0-110.0-1.0", "time_elapsed": 693964, "key_press": -1, "trial_index": 147}, "uniqueid": "MTK1638:3VFJCI1K406PR2GWHD7M1J88L1GGRI", "dateTime": 1516060194609}, {"current_trial": 148, "trialdata": {"rt": -1, "trial_type": "single-stim", "stimulus": "<p id=\"stim\">8</p>", "internal_node_id": "0.0-110.0-2.0", "time_elapsed": 694967, "key_press": -1, "trial_index": 148}, "uniqueid": "MTK1638:3VFJCI1K406PR2GWHD7M1J88L1GGRI", "dateTime": 1516060195612}, {"current_trial": 149, "trialdata": {"rt": -1, "trial_type": "single-stim", "stimulus": "<p id=\"stim\">7</p>", "internal_node_id": "0.0-110.0-3.0", "time_elapsed": 695981, "key_press": -1, "trial_index": 149}, "uniqueid": "MTK1638:3VFJCI1K406PR2GWHD7M1J88L1GGRI", "dateTime": 1516060196626}, {"current_trial": 150, "trialdata": {"rt": -1, "trial_type": "single-stim", "stimulus": "<p id=\"stim\">6</p>", "internal_node_id": "0.0-110.0-4.0", "time_elapsed": 696981, "key_press": -1, "trial_index": 150}, "uniqueid": "MTK1638:3VFJCI1K406PR2GWHD7M1J88L1GGRI", "dateTime": 1516060197626}, {"current_trial": 151, "trialdata": {"rt": -1, "trial_type": "single-stim", "stimulus": "<p id=\"stim\">5</p>", "internal_node_id": "0.0-110.0-5.0", "time_elapsed": 697984, "key_press": -1, "trial_index": 151}, "uniqueid": "MTK1638:3VFJCI1K406PR2GWHD7M1J88L1GGRI", "dateTime": 1516060198629}, {"current_trial": 152, "trialdata": {"rt": -1, "trial_type": "single-stim", "stimulus": "<p id=\"stim\">4</p>", "internal_node_id": "0.0-110.0-6.0", "time_elapsed": 698985, "key_press": -1, "trial_index": 152}, "uniqueid": "MTK1638:3VFJCI1K406PR2GWHD7M1J88L1GGRI", "dateTime": 1516060199630}, {"current_trial": 153, "trialdata": {"rt": -1, "trial_type": "single-stim", "stimulus": "<p id=\"stim\">3</p>", "internal_node_id": "0.0-110.0-7.0", "time_elapsed": 699986, "key_press": -1, "trial_index": 153}, "uniqueid": "MTK1638:3VFJCI1K406PR2GWHD7M1J88L1GGRI", "dateTime": 1516060200631}, {"current_trial": 154, "trialdata": {"rt": -1, "trial_type": "single-stim", "stimulus": "<p id=\"stim\">2</p>", "internal_node_id": "0.0-110.0-8.0", "time_elapsed": 700995, "key_press": -1, "trial_index": 154}, "uniqueid": "MTK1638:3VFJCI1K406PR2GWHD7M1J88L1GGRI", "dateTime": 1516060201640}, {"current_trial": 155, "trialdata": {"rt": -1, "trial_type": "single-stim", "stimulus": "<p id=\"stim\">1</p>", "internal_node_id": "0.0-110.0-9.0", "time_elapsed": 701996, "key_press": -1, "trial_index": 155}, "uniqueid": "MTK1638:3VFJCI1K406PR2GWHD7M1J88L1GGRI", "dateTime": 1516060202641}, {"current_trial": 156, "trialdata": {"rt": -1, "trial_type": "single-stim", "stimulus": "<p id=\"stim\">+</p>", "internal_node_id": "0.0-111.0-0.0", "time_elapsed": 703512, "key_press": -1, "type": "FIXATION", "trial_index": 156}, "uniqueid": "MTK1638:3VFJCI1K406PR2GWHD7M1J88L1GGRI", "dateTime": 1516060204157}, {"current_trial": 157, "trialdata": {"rt": -1000, "trial_type": "single-audio", "word": "climber", "stimulus": "/static/audio/wordpool/CLIMBER.wav", "conditions": [12, 800, "a", 12000], "internal_node_id": "0.0-112.0", "trial": 4, "time_elapsed": 705254, "serialpos": 0, "key_press": -1, "wordID": 322, "type": "PRES_AUD", "trial_index": 157}, "uniqueid": "MTK1638:3VFJCI1K406PR2GWHD7M1J88L1GGRI", "dateTime": 1516060205899}, {"current_trial": 158, "trialdata": {"rt": -1000, "trial_type": "single-audio", "word": "skillet", "stimulus": "/static/audio/wordpool/SKILLET.wav", "conditions": [12, 800, "a", 12000], "internal_node_id": "0.0-113.0", "trial": 4, "time_elapsed": 707026, "serialpos": 1, "key_press": -1, "wordID": 1316, "type": "PRES_AUD", "trial_index": 158}, "uniqueid": "MTK1638:3VFJCI1K406PR2GWHD7M1J88L1GGRI", "dateTime": 1516060207671}, {"current_trial": 159, "trialdata": {"rt": -1000, "trial_type": "single-audio", "word": "blender", "stimulus": "/static/audio/wordpool/BLENDER.wav", "conditions": [12, 800, "a", 12000], "internal_node_id": "0.0-114.0", "trial": 4, "time_elapsed": 708854, "serialpos": 2, "key_press": -1, "wordID": 135, "type": "PRES_AUD", "trial_index": 159}, "uniqueid": "MTK1638:3VFJCI1K406PR2GWHD7M1J88L1GGRI", "dateTime": 1516060209499}, {"current_trial": 160, "trialdata": {"rt": -1000, "trial_type": "single-audio", "word": "basement", "stimulus": "/static/audio/wordpool/BASEMENT.wav", "conditions": [12, 800, "a", 12000], "internal_node_id": "0.0-115.0", "trial": 4, "time_elapsed": 710702, "serialpos": 3, "key_press": -1, "wordID": 93, "type": "PRES_AUD", "trial_index": 160}, "uniqueid": "MTK1638:3VFJCI1K406PR2GWHD7M1J88L1GGRI", "dateTime": 1516060211348}, {"current_trial": 161, "trialdata": {"rt": -1000, "trial_type": "single-audio", "word": "creature", "stimulus": "/static/audio/wordpool/CREATURE.wav", "conditions": [12, 800, "a", 12000], "internal_node_id": "0.0-116.0", "trial": 4, "time_elapsed": 712404, "serialpos": 4, "key_press": -1, "wordID": 402, "type": "PRES_AUD", "trial_index": 161}, "uniqueid": "MTK1638:3VFJCI1K406PR2GWHD7M1J88L1GGRI", "dateTime": 1516060213050}, {"current_trial": 162, "trialdata": {"rt": -1000, "trial_type": "single-audio", "word": "freckle", "stimulus": "/static/audio/wordpool/FRECKLE.wav", "conditions": [12, 800, "a", 12000], "internal_node_id": "0.0-117.0", "trial": 4, "time_elapsed": 714038, "serialpos": 5, "key_press": -1, "wordID": 601, "type": "PRES_AUD", "trial_index": 162}, "uniqueid": "MTK1638:3VFJCI1K406PR2GWHD7M1J88L1GGRI", "dateTime": 1516060214684}, {"current_trial": 163, "trialdata": {"rt": -1000, "trial_type": "single-audio", "word": "blackboard", "stimulus": "/static/audio/wordpool/BLACKBOARD.wav", "conditions": [12, 800, "a", 12000], "internal_node_id": "0.0-118.0", "trial": 4, "time_elapsed": 715713, "serialpos": 6, "key_press": -1, "wordID": 132, "type": "PRES_AUD", "trial_index": 163}, "uniqueid": "MTK1638:3VFJCI1K406PR2GWHD7M1J88L1GGRI", "dateTime": 1516060216358}, {"current_trial": 164, "trialdata": {"rt": -1000, "trial_type": "single-audio", "word": "sister", "stimulus": "/static/audio/wordpool/SISTER.wav", "conditions": [12, 800, "a", 12000], "internal_node_id": "0.0-119.0", "trial": 4, "time_elapsed": 717453, "serialpos": 7, "key_press": -1, "wordID": 1311, "type": "PRES_AUD", "trial_index": 164}, "uniqueid": "MTK1638:3VFJCI1K406PR2GWHD7M1J88L1GGRI", "dateTime": 1516060218098}, {"current_trial": 165, "trialdata": {"rt": -1000, "trial_type": "single-audio", "word": "coin", "stimulus": "/static/audio/wordpool/COIN.wav", "conditions": [12, 800, "a", 12000], "internal_node_id": "0.0-120.0", "trial": 4, "time_elapsed": 719060, "serialpos": 8, "key_press": -1, "wordID": 342, "type": "PRES_AUD", "trial_index": 165}, "uniqueid": "MTK1638:3VFJCI1K406PR2GWHD7M1J88L1GGRI", "dateTime": 1516060219705}, {"current_trial": 166, "trialdata": {"rt": -1000, "trial_type": "single-audio", "word": "omelet", "stimulus": "/static/audio/wordpool/OMELET.wav", "conditions": [12, 800, "a", 12000], "internal_node_id": "0.0-121.0", "trial": 4, "time_elapsed": 720821, "serialpos": 9, "key_press": -1, "wordID": 975, "type": "PRES_AUD", "trial_index": 166}, "uniqueid": "MTK1638:3VFJCI1K406PR2GWHD7M1J88L1GGRI", "dateTime": 1516060221466}, {"current_trial": 167, "trialdata": {"rt": -1000, "trial_type": "single-audio", "word": "suspect", "stimulus": "/static/audio/wordpool/SUSPECT.wav", "conditions": [12, 800, "a", 12000], "internal_node_id": "0.0-122.0", "trial": 4, "time_elapsed": 722531, "serialpos": 10, "key_press": -1, "wordID": 1414, "type": "PRES_AUD", "trial_index": 167}, "uniqueid": "MTK1638:3VFJCI1K406PR2GWHD7M1J88L1GGRI", "dateTime": 1516060223176}, {"current_trial": 168, "trialdata": {"rt": -1000, "trial_type": "single-audio", "word": "monster", "stimulus": "/static/audio/wordpool/MONSTER.wav", "conditions": [12, 800, "a", 12000], "internal_node_id": "0.0-123.0", "trial": 4, "time_elapsed": 724303, "serialpos": 11, "key_press": -1, "wordID": 911, "type": "PRES_AUD", "trial_index": 168}, "uniqueid": "MTK1638:3VFJCI1K406PR2GWHD7M1J88L1GGRI", "dateTime": 1516060224948}, {"current_trial": 169, "trialdata": {"rt": -1, "trial_type": "single-stim", "stimulus": "", "internal_node_id": "0.0-124.0-0.0", "time_elapsed": 725526, "key_press": -1, "type": "PRE_RECALL_DELAY", "trial_index": 169}, "uniqueid": "MTK1638:3VFJCI1K406PR2GWHD7M1J88L1GGRI", "dateTime": 1516060226171}, {"current_trial": 170, "trialdata": {"rt": -1000, "trial_type": "single-audio", "stimulus": "/static/audio/400Hz.wav", "internal_node_id": "0.0-125.0", "time_elapsed": 726037, "key_press": -1, "type": "PRE_RECALL_ALERT", "trial_index": 170}, "uniqueid": "MTK1638:3VFJCI1K406PR2GWHD7M1J88L1GGRI", "dateTime": 1516060226682}, {"current_trial": 171, "trialdata": {"rt": [], "recwords": [], "key_times": [], "trial_type": "free-recall", "conditions": [12, 800, "a", 12000], "internal_node_id": "0.0-126.0-0.0", "key_presses": [], "trial": 4, "time_elapsed": 786050, "type": "FREE_RECALL", "trial_index": 171}, "uniqueid": "MTK1638:3VFJCI1K406PR2GWHD7M1J88L1GGRI", "dateTime": 1516060286696}, {"current_trial": 172, "trialdata": {"rt": 1531, "trial_type": "text", "internal_node_id": "0.0-127.0", "time_elapsed": 789583, "key_press": 74, "type": "INSTRUCTIONS", "trial_index": 172}, "uniqueid": "MTK1638:3VFJCI1K406PR2GWHD7M1J88L1GGRI", "dateTime": 1516060290228}, {"current_trial": 173, "trialdata": {"rt": [15083, 19691], "trial_type": "math-distractor", "key_times": [6219, 6323, 6828, 13060, 13275, 13467, 13643, 14323, 14795, 15083, 19403, 19691], "responses": ["19", "6"], "num2": [7, 3, 3], "num3": [6, 1, 9], "conditions": [12, 1600, "a", 24000], "internal_node_id": "0.0-128.0", "key_presses": [71, 97, 105, 8, 8, 8, 8, 97, 105, 13, 102, 13], "trial": 5, "time_elapsed": 815588, "type": "DISTRACTOR", "trial_index": 173, "num1": [6, 2, 8]}, "uniqueid": "MTK1638:3VFJCI1K406PR2GWHD7M1J88L1GGRI", "dateTime": 1516060316234}, {"current_trial": 174, "trialdata": {"rt": -1, "trial_type": "single-stim", "stimulus": "<p id=\"stim\">10</p>", "internal_node_id": "0.0-129.0-0.0", "time_elapsed": 818597, "key_press": -1, "trial_index": 174}, "uniqueid": "MTK1638:3VFJCI1K406PR2GWHD7M1J88L1GGRI", "dateTime": 1516060319243}, {"current_trial": 175, "trialdata": {"rt": -1, "trial_type": "single-stim", "stimulus": "<p id=\"stim\">9</p>", "internal_node_id": "0.0-129.0-1.0", "time_elapsed": 819613, "key_press": -1, "trial_index": 175}, "uniqueid": "MTK1638:3VFJCI1K406PR2GWHD7M1J88L1GGRI", "dateTime": 1516060320258}, {"current_trial": 176, "trialdata": {"rt": -1, "trial_type": "single-stim", "stimulus": "<p id=\"stim\">8</p>", "internal_node_id": "0.0-129.0-2.0", "time_elapsed": 820623, "key_press": -1, "trial_index": 176}, "uniqueid": "MTK1638:3VFJCI1K406PR2GWHD7M1J88L1GGRI", "dateTime": 1516060321269}, {"current_trial": 177, "trialdata": {"rt": -1, "trial_type": "single-stim", "stimulus": "<p id=\"stim\">7</p>", "internal_node_id": "0.0-129.0-3.0", "time_elapsed": 821630, "key_press": -1, "trial_index": 177}, "uniqueid": "MTK1638:3VFJCI1K406PR2GWHD7M1J88L1GGRI", "dateTime": 1516060322275}, {"current_trial": 178, "trialdata": {"rt": -1, "trial_type": "single-stim", "stimulus": "<p id=\"stim\">6</p>", "internal_node_id": "0.0-129.0-4.0", "time_elapsed": 822646, "key_press": -1, "trial_index": 178}, "uniqueid": "MTK1638:3VFJCI1K406PR2GWHD7M1J88L1GGRI", "dateTime": 1516060323291}, {"current_trial": 179, "trialdata": {"rt": -1, "trial_type": "single-stim", "stimulus": "<p id=\"stim\">5</p>", "internal_node_id": "0.0-129.0-5.0", "time_elapsed": 823648, "key_press": -1, "trial_index": 179}, "uniqueid": "MTK1638:3VFJCI1K406PR2GWHD7M1J88L1GGRI", "dateTime": 1516060324293}, {"current_trial": 180, "trialdata": {"rt": -1, "trial_type": "single-stim", "stimulus": "<p id=\"stim\">4</p>", "internal_node_id": "0.0-129.0-6.0", "time_elapsed": 824651, "key_press": -1, "trial_index": 180}, "uniqueid": "MTK1638:3VFJCI1K406PR2GWHD7M1J88L1GGRI", "dateTime": 1516060325296}, {"current_trial": 181, "trialdata": {"rt": -1, "trial_type": "single-stim", "stimulus": "<p id=\"stim\">3</p>", "internal_node_id": "0.0-129.0-7.0", "time_elapsed": 825657, "key_press": -1, "trial_index": 181}, "uniqueid": "MTK1638:3VFJCI1K406PR2GWHD7M1J88L1GGRI", "dateTime": 1516060326302}, {"current_trial": 182, "trialdata": {"rt": -1, "trial_type": "single-stim", "stimulus": "<p id=\"stim\">2</p>", "internal_node_id": "0.0-129.0-8.0", "time_elapsed": 826663, "key_press": -1, "trial_index": 182}, "uniqueid": "MTK1638:3VFJCI1K406PR2GWHD7M1J88L1GGRI", "dateTime": 1516060327308}, {"current_trial": 183, "trialdata": {"rt": -1, "trial_type": "single-stim", "stimulus": "<p id=\"stim\">1</p>", "internal_node_id": "0.0-129.0-9.0", "time_elapsed": 827677, "key_press": -1, "trial_index": 183}, "uniqueid": "MTK1638:3VFJCI1K406PR2GWHD7M1J88L1GGRI", "dateTime": 1516060328322}, {"current_trial": 184, "trialdata": {"rt": -1, "trial_type": "single-stim", "stimulus": "<p id=\"stim\">+</p>", "internal_node_id": "0.0-130.0-0.0", "time_elapsed": 829187, "key_press": -1, "type": "FIXATION", "trial_index": 184}, "uniqueid": "MTK1638:3VFJCI1K406PR2GWHD7M1J88L1GGRI", "dateTime": 1516060329832}, {"current_trial": 185, "trialdata": {"rt": -1000, "trial_type": "single-audio", "word": "harp", "stimulus": "/static/audio/wordpool/HARP.wav", "conditions": [12, 1600, "a", 24000], "internal_node_id": "0.0-131.0", "trial": 5, "time_elapsed": 831824, "serialpos": 0, "key_press": -1, "wordID": 688, "type": "PRES_AUD", "trial_index": 185}, "uniqueid": "MTK1638:3VFJCI1K406PR2GWHD7M1J88L1GGRI", "dateTime": 1516060332469}, {"current_trial": 186, "trialdata": {"rt": -1000, "trial_type": "single-audio", "word": "turkey", "stimulus": "/static/audio/wordpool/TURKEY.wav", "conditions": [12, 1600, "a", 24000], "internal_node_id": "0.0-132.0", "trial": 5, "time_elapsed": 834344, "serialpos": 1, "key_press": -1, "wordID": 1519, "type": "PRES_AUD", "trial_index": 186}, "uniqueid": "MTK1638:3VFJCI1K406PR2GWHD7M1J88L1GGRI", "dateTime": 1516060334989}, {"current_trial": 187, "trialdata": {"rt": -1000, "trial_type": "single-audio", "word": "london", "stimulus": "/static/audio/wordpool/LONDON.wav", "conditions": [12, 1600, "a", 24000], "internal_node_id": "0.0-133.0", "trial": 5, "time_elapsed": 837065, "serialpos": 2, "key_press": -1, "wordID": 842, "type": "PRES_AUD", "trial_index": 187}, "uniqueid": "MTK1638:3VFJCI1K406PR2GWHD7M1J88L1GGRI", "dateTime": 1516060337710}, {"current_trial": 188, "trialdata": {"rt": -1000, "trial_type": "single-audio", "word": "baby", "stimulus": "/static/audio/wordpool/BABY.wav", "conditions": [12, 1600, "a", 24000], "internal_node_id": "0.0-134.0", "trial": 5, "time_elapsed": 839814, "serialpos": 3, "key_press": -1, "wordID": 63, "type": "PRES_AUD", "trial_index": 188}, "uniqueid": "MTK1638:3VFJCI1K406PR2GWHD7M1J88L1GGRI", "dateTime": 1516060340459}, {"current_trial": 189, "trialdata": {"rt": -1000, "trial_type": "single-audio", "word": "victim", "stimulus": "/static/audio/wordpool/VICTIM.wav", "conditions": [12, 1600, "a", 24000], "internal_node_id": "0.0-135.0", "trial": 5, "time_elapsed": 842498, "serialpos": 4, "key_press": -1, "wordID": 1561, "type": "PRES_AUD", "trial_index": 189}, "uniqueid": "MTK1638:3VFJCI1K406PR2GWHD7M1J88L1GGRI", "dateTime": 1516060343143}, {"current_trial": 190, "trialdata": {"rt": -1000, "trial_type": "single-audio", "word": "puppy", "stimulus": "/static/audio/wordpool/PUPPY.wav", "conditions": [12, 1600, "a", 24000], "internal_node_id": "0.0-136.0", "trial": 5, "time_elapsed": 845028, "serialpos": 5, "key_press": -1, "wordID": 1143, "type": "PRES_AUD", "trial_index": 190}, "uniqueid": "MTK1638:3VFJCI1K406PR2GWHD7M1J88L1GGRI", "dateTime": 1516060345673}, {"current_trial": 191, "trialdata": {"rt": -1000, "trial_type": "single-audio", "word": "poet", "stimulus": "/static/audio/wordpool/POET.wav", "conditions": [12, 1600, "a", 24000], "internal_node_id": "0.0-137.0", "trial": 5, "time_elapsed": 847697, "serialpos": 6, "key_press": -1, "wordID": 1094, "type": "PRES_AUD", "trial_index": 191}, "uniqueid": "MTK1638:3VFJCI1K406PR2GWHD7M1J88L1GGRI", "dateTime": 1516060348342}, {"current_trial": 192, "trialdata": {"rt": -1000, "trial_type": "single-audio", "word": "pork", "stimulus": "/static/audio/wordpool/PORK.wav", "conditions": [12, 1600, "a", 24000], "internal_node_id": "0.0-138.0", "trial": 5, "time_elapsed": 850364, "serialpos": 7, "key_press": -1, "wordID": 1107, "type": "PRES_AUD", "trial_index": 192}, "uniqueid": "MTK1638:3VFJCI1K406PR2GWHD7M1J88L1GGRI", "dateTime": 1516060351009}, {"current_trial": 193, "trialdata": {"rt": -1000, "trial_type": "single-audio", "word": "fleet", "stimulus": "/static/audio/wordpool/FLEET.wav", "conditions": [12, 1600, "a", 24000], "internal_node_id": "0.0-139.0", "trial": 5, "time_elapsed": 852968, "serialpos": 8, "key_press": -1, "wordID": 577, "type": "PRES_AUD", "trial_index": 193}, "uniqueid": "MTK1638:3VFJCI1K406PR2GWHD7M1J88L1GGRI", "dateTime": 1516060353613}, {"current_trial": 194, "trialdata": {"rt": -1000, "trial_type": "single-audio", "word": "pistol", "stimulus": "/static/audio/wordpool/PISTOL.wav", "conditions": [12, 1600, "a", 24000], "internal_node_id": "0.0-140.0", "trial": 5, "time_elapsed": 855730, "serialpos": 9, "key_press": -1, "wordID": 1074, "type": "PRES_AUD", "trial_index": 194}, "uniqueid": "MTK1638:3VFJCI1K406PR2GWHD7M1J88L1GGRI", "dateTime": 1516060356376}, {"current_trial": 195, "trialdata": {"rt": -1000, "trial_type": "single-audio", "word": "knife", "stimulus": "/static/audio/wordpool/KNIFE.wav", "conditions": [12, 1600, "a", 24000], "internal_node_id": "0.0-141.0", "trial": 5, "time_elapsed": 858518, "serialpos": 10, "key_press": -1, "wordID": 784, "type": "PRES_AUD", "trial_index": 195}, "uniqueid": "MTK1638:3VFJCI1K406PR2GWHD7M1J88L1GGRI", "dateTime": 1516060359164}, {"current_trial": 196, "trialdata": {"rt": -1000, "trial_type": "single-audio", "word": "glass", "stimulus": "/static/audio/wordpool/GLASS.wav", "conditions": [12, 1600, "a", 24000], "internal_node_id": "0.0-142.0", "trial": 5, "time_elapsed": 861159, "serialpos": 11, "key_press": -1, "wordID": 638, "type": "PRES_AUD", "trial_index": 196}, "uniqueid": "MTK1638:3VFJCI1K406PR2GWHD7M1J88L1GGRI", "dateTime": 1516060361804}, {"current_trial": 197, "trialdata": {"rt": -1, "trial_type": "single-stim", "stimulus": "", "internal_node_id": "0.0-143.0-0.0", "time_elapsed": 862504, "key_press": -1, "type": "PRE_RECALL_DELAY", "trial_index": 197}, "uniqueid": "MTK1638:3VFJCI1K406PR2GWHD7M1J88L1GGRI", "dateTime": 1516060363149}, {"current_trial": 198, "trialdata": {"rt": -1000, "trial_type": "single-audio", "stimulus": "/static/audio/400Hz.wav", "internal_node_id": "0.0-144.0", "time_elapsed": 863012, "key_press": -1, "type": "PRE_RECALL_ALERT", "trial_index": 198}, "uniqueid": "MTK1638:3VFJCI1K406PR2GWHD7M1J88L1GGRI", "dateTime": 1516060363657}, {"current_trial": 199, "trialdata": {"rt": [3026, 4362, 5986, 10418, 14242, 17034, 19154, 24066, 30586, 33122, 38794, 42570], "recwords": ["knife", "glass", "pistol", "peach", "puddle", "diner", "waiter", "maple", "glass", "pitcher", "soda", "chickmunk"], "key_times": [2002, 2186, 2362, 2498, 2674, 3026, 3410, 3650, 3770, 4010, 4194, 4362, 4962, 5186, 5298, 5490, 5578, 5778, 5986, 9378, 9522, 9698, 10034, 10162, 10418, 13314, 13506, 13650, 13842, 13954, 14106, 14242, 16442, 16610, 16730, 16826, 16922, 17034, 18130, 18354, 18586, 18698, 18922, 19034, 19154, 22906, 23066, 23210, 23434, 23546, 24066, 29690, 29826, 29994, 30290, 30474, 30586, 31178, 31314, 32002, 32234, 32282, 32594, 32666, 32882, 33002, 33122, 37954, 38090, 38242, 38450, 38794, 40866, 40970, 41090, 41225, 41354, 41770, 41962, 42162, 42330, 42570], "trial_type": "free-recall", "conditions": [12, 1600, "a", 24000], "internal_node_id": "0.0-145.0-0.0", "key_presses": [75, 78, 73, 70, 69, 13, 71, 76, 65, 83, 83, 13, 80, 73, 83, 84, 79, 76, 13, 80, 69, 65, 67, 72, 13, 80, 85, 68, 68, 76, 69, 13, 68, 73, 78, 69, 82, 13, 87, 65, 73, 84, 69, 82, 13, 77, 65, 80, 76, 69, 13, 71, 76, 65, 83, 83, 13, 80, 84, 8, 73, 84, 67, 72, 69, 82, 13, 83, 79, 68, 65, 13, 67, 72, 73, 67, 75, 77, 85, 78, 75, 13], "trial": 5, "time_elapsed": 923022, "type": "FREE_RECALL", "trial_index": 199}, "uniqueid": "MTK1638:3VFJCI1K406PR2GWHD7M1J88L1GGRI", "dateTime": 1516060423669}, {"current_trial": 200, "trialdata": {"rt": 3915, "trial_type": "text", "internal_node_id": "0.0-146.0", "time_elapsed": 928943, "key_press": 75, "type": "INSTRUCTIONS", "trial_index": 200}, "uniqueid": "MTK1638:3VFJCI1K406PR2GWHD7M1J88L1GGRI", "dateTime": 1516060429588}, {"current_trial": 201, "trialdata": {"rt": [3720, 8488, 10752, 12984, 18464, 22720], "trial_type": "math-distractor", "key_times": [3224, 3400, 3720, 8064, 8256, 8488, 10336, 10528, 10752, 12752, 12984, 17896, 18136, 18464, 22264, 22456, 22720], "responses": ["14", "15", "10", "6", "18", "15"], "num2": [4, 6, 6, 3, 6, 7, 9], "num3": [2, 2, 2, 1, 5, 2, 3], "conditions": [24, 800, "a", 24000], "internal_node_id": "0.0-147.0", "key_presses": [97, 100, 13, 97, 101, 13, 97, 96, 13, 102, 13, 97, 104, 13, 97, 101, 13], "trial": 6, "time_elapsed": 954963, "type": "DISTRACTOR", "trial_index": 201, "num1": [8, 7, 2, 2, 7, 6, 1]}, "uniqueid": "MTK1638:3VFJCI1K406PR2GWHD7M1J88L1GGRI", "dateTime": 1516060455608}, {"current_trial": 202, "trialdata": {"rt": -1, "trial_type": "single-stim", "stimulus": "<p id=\"stim\">10</p>", "internal_node_id": "0.0-148.0-0.0", "time_elapsed": 957979, "key_press": -1, "trial_index": 202}, "uniqueid": "MTK1638:3VFJCI1K406PR2GWHD7M1J88L1GGRI", "dateTime": 1516060458624}, {"current_trial": 203, "trialdata": {"rt": -1, "trial_type": "single-stim", "stimulus": "<p id=\"stim\">9</p>", "internal_node_id": "0.0-148.0-1.0", "time_elapsed": 958987, "key_press": -1, "trial_index": 203}, "uniqueid": "MTK1638:3VFJCI1K406PR2GWHD7M1J88L1GGRI", "dateTime": 1516060459632}, {"current_trial": 204, "trialdata": {"rt": -1, "trial_type": "single-stim", "stimulus": "<p id=\"stim\">8</p>", "internal_node_id": "0.0-148.0-2.0", "time_elapsed": 959994, "key_press": -1, "trial_index": 204}, "uniqueid": "MTK1638:3VFJCI1K406PR2GWHD7M1J88L1GGRI", "dateTime": 1516060460639}, {"current_trial": 205, "trialdata": {"rt": -1, "trial_type": "single-stim", "stimulus": "<p id=\"stim\">7</p>", "internal_node_id": "0.0-148.0-3.0", "time_elapsed": 960994, "key_press": -1, "trial_index": 205}, "uniqueid": "MTK1638:3VFJCI1K406PR2GWHD7M1J88L1GGRI", "dateTime": 1516060461639}, {"current_trial": 206, "trialdata": {"rt": -1, "trial_type": "single-stim", "stimulus": "<p id=\"stim\">6</p>", "internal_node_id": "0.0-148.0-4.0", "time_elapsed": 961998, "key_press": -1, "trial_index": 206}, "uniqueid": "MTK1638:3VFJCI1K406PR2GWHD7M1J88L1GGRI", "dateTime": 1516060462643}, {"current_trial": 207, "trialdata": {"rt": -1, "trial_type": "single-stim", "stimulus": "<p id=\"stim\">5</p>", "internal_node_id": "0.0-148.0-5.0", "time_elapsed": 963001, "key_press": -1, "trial_index": 207}, "uniqueid": "MTK1638:3VFJCI1K406PR2GWHD7M1J88L1GGRI", "dateTime": 1516060463646}, {"current_trial": 208, "trialdata": {"rt": -1, "trial_type": "single-stim", "stimulus": "<p id=\"stim\">4</p>", "internal_node_id": "0.0-148.0-6.0", "time_elapsed": 964009, "key_press": -1, "trial_index": 208}, "uniqueid": "MTK1638:3VFJCI1K406PR2GWHD7M1J88L1GGRI", "dateTime": 1516060464654}, {"current_trial": 209, "trialdata": {"rt": -1, "trial_type": "single-stim", "stimulus": "<p id=\"stim\">3</p>", "internal_node_id": "0.0-148.0-7.0", "time_elapsed": 965021, "key_press": -1, "trial_index": 209}, "uniqueid": "MTK1638:3VFJCI1K406PR2GWHD7M1J88L1GGRI", "dateTime": 1516060465666}, {"current_trial": 210, "trialdata": {"rt": -1, "trial_type": "single-stim", "stimulus": "<p id=\"stim\">2</p>", "internal_node_id": "0.0-148.0-8.0", "time_elapsed": 966036, "key_press": -1, "trial_index": 210}, "uniqueid": "MTK1638:3VFJCI1K406PR2GWHD7M1J88L1GGRI", "dateTime": 1516060466681}, {"current_trial": 211, "trialdata": {"rt": -1, "trial_type": "single-stim", "stimulus": "<p id=\"stim\">1</p>", "internal_node_id": "0.0-148.0-9.0", "time_elapsed": 967039, "key_press": -1, "trial_index": 211}, "uniqueid": "MTK1638:3VFJCI1K406PR2GWHD7M1J88L1GGRI", "dateTime": 1516060467685}, {"current_trial": 212, "trialdata": {"rt": -1, "trial_type": "single-stim", "stimulus": "<p id=\"stim\">+</p>", "internal_node_id": "0.0-149.0-0.0", "time_elapsed": 968555, "key_press": -1, "type": "FIXATION", "trial_index": 212}, "uniqueid": "MTK1638:3VFJCI1K406PR2GWHD7M1J88L1GGRI", "dateTime": 1516060469200}, {"current_trial": 213, "trialdata": {"rt": -1000, "trial_type": "single-audio", "word": "goblin", "stimulus": "/static/audio/wordpool/GOBLIN.wav", "conditions": [24, 800, "a", 24000], "internal_node_id": "0.0-150.0", "trial": 6, "time_elapsed": 970311, "serialpos": 0, "key_press": -1, "wordID": 644, "type": "PRES_AUD", "trial_index": 213}, "uniqueid": "MTK1638:3VFJCI1K406PR2GWHD7M1J88L1GGRI", "dateTime": 1516060470956}, {"current_trial": 214, "trialdata": {"rt": -1000, "trial_type": "single-audio", "word": "rust", "stimulus": "/static/audio/wordpool/RUST.wav", "conditions": [24, 800, "a", 24000], "internal_node_id": "0.0-151.0", "trial": 6, "time_elapsed": 971928, "serialpos": 1, "key_press": -1, "wordID": 1218, "type": "PRES_AUD", "trial_index": 214}, "uniqueid": "MTK1638:3VFJCI1K406PR2GWHD7M1J88L1GGRI", "dateTime": 1516060472573}, {"current_trial": 215, "trialdata": {"rt": -1000, "trial_type": "single-audio", "word": "lagoon", "stimulus": "/static/audio/wordpool/LAGOON.wav", "conditions": [24, 800, "a", 24000], "internal_node_id": "0.0-152.0", "trial": 6, "time_elapsed": 973749, "serialpos": 2, "key_press": -1, "wordID": 794, "type": "PRES_AUD", "trial_index": 215}, "uniqueid": "MTK1638:3VFJCI1K406PR2GWHD7M1J88L1GGRI", "dateTime": 1516060474394}, {"current_trial": 216, "trialdata": {"rt": -1000, "trial_type": "single-audio", "word": "atlas", "stimulus": "/static/audio/wordpool/ATLAS.wav", "conditions": [24, 800, "a", 24000], "internal_node_id": "0.0-153.0", "trial": 6, "time_elapsed": 975662, "serialpos": 3, "key_press": -1, "wordID": 52, "type": "PRES_AUD", "trial_index": 216}, "uniqueid": "MTK1638:3VFJCI1K406PR2GWHD7M1J88L1GGRI", "dateTime": 1516060476307}, {"current_trial": 217, "trialdata": {"rt": -1000, "trial_type": "single-audio", "word": "child", "stimulus": "/static/audio/wordpool/CHILD.wav", "conditions": [24, 800, "a", 24000], "internal_node_id": "0.0-154.0", "trial": 6, "time_elapsed": 977490, "serialpos": 4, "key_press": -1, "wordID": 298, "type": "PRES_AUD", "trial_index": 217}, "uniqueid": "MTK1638:3VFJCI1K406PR2GWHD7M1J88L1GGRI", "dateTime": 1516060478135}, {"current_trial": 218, "trialdata": {"rt": -1000, "trial_type": "single-audio", "word": "bunny", "stimulus": "/static/audio/wordpool/BUNNY.wav", "conditions": [24, 800, "a", 24000], "internal_node_id": "0.0-155.0", "trial": 6, "time_elapsed": 979433, "serialpos": 5, "key_press": -1, "wordID": 197, "type": "PRES_AUD", "trial_index": 218}, "uniqueid": "MTK1638:3VFJCI1K406PR2GWHD7M1J88L1GGRI", "dateTime": 1516060480078}, {"current_trial": 219, "trialdata": {"rt": -1000, "trial_type": "single-audio", "word": "peanut", "stimulus": "/static/audio/wordpool/PEANUT.wav", "conditions": [24, 800, "a", 24000], "internal_node_id": "0.0-156.0", "trial": 6, "time_elapsed": 981166, "serialpos": 6, "key_press": -1, "wordID": 1031, "type": "PRES_AUD", "trial_index": 219}, "uniqueid": "MTK1638:3VFJCI1K406PR2GWHD7M1J88L1GGRI", "dateTime": 1516060481811}, {"current_trial": 220, "trialdata": {"rt": -1000, "trial_type": "single-audio", "word": "gallon", "stimulus": "/static/audio/wordpool/GALLON.wav", "conditions": [24, 800, "a", 24000], "internal_node_id": "0.0-157.0", "trial": 6, "time_elapsed": 983150, "serialpos": 7, "key_press": -1, "wordID": 617, "type": "PRES_AUD", "trial_index": 220}, "uniqueid": "MTK1638:3VFJCI1K406PR2GWHD7M1J88L1GGRI", "dateTime": 1516060483795}, {"current_trial": 221, "trialdata": {"rt": -1000, "trial_type": "single-audio", "word": "tourist", "stimulus": "/static/audio/wordpool/TOURIST.wav", "conditions": [24, 800, "a", 24000], "internal_node_id": "0.0-158.0", "trial": 6, "time_elapsed": 985139, "serialpos": 8, "key_press": -1, "wordID": 1487, "type": "PRES_AUD", "trial_index": 221}, "uniqueid": "MTK1638:3VFJCI1K406PR2GWHD7M1J88L1GGRI", "dateTime": 1516060485785}, {"current_trial": 222, "trialdata": {"rt": -1000, "trial_type": "single-audio", "word": "fragrance", "stimulus": "/static/audio/wordpool/FRAGRANCE.wav", "conditions": [24, 800, "a", 24000], "internal_node_id": "0.0-159.0", "trial": 6, "time_elapsed": 986949, "serialpos": 9, "key_press": -1, "wordID": 598, "type": "PRES_AUD", "trial_index": 222}, "uniqueid": "MTK1638:3VFJCI1K406PR2GWHD7M1J88L1GGRI", "dateTime": 1516060487594}, {"current_trial": 223, "trialdata": {"rt": -1000, "trial_type": "single-audio", "word": "perfume", "stimulus": "/static/audio/wordpool/PERFUME.wav", "conditions": [24, 800, "a", 24000], "internal_node_id": "0.0-160.0", "trial": 6, "time_elapsed": 988846, "serialpos": 10, "key_press": -1, "wordID": 1048, "type": "PRES_AUD", "trial_index": 223}, "uniqueid": "MTK1638:3VFJCI1K406PR2GWHD7M1J88L1GGRI", "dateTime": 1516060489491}, {"current_trial": 224, "trialdata": {"rt": -1000, "trial_type": "single-audio", "word": "penguin", "stimulus": "/static/audio/wordpool/PENGUIN.wav", "conditions": [24, 800, "a", 24000], "internal_node_id": "0.0-161.0", "trial": 6, "time_elapsed": 990732, "serialpos": 11, "key_press": -1, "wordID": 1043, "type": "PRES_AUD", "trial_index": 224}, "uniqueid": "MTK1638:3VFJCI1K406PR2GWHD7M1J88L1GGRI", "dateTime": 1516060491378}, {"current_trial": 225, "trialdata": {"rt": -1000, "trial_type": "single-audio", "word": "cattle", "stimulus": "/static/audio/wordpool/CATTLE.wav", "conditions": [24, 800, "a", 24000], "internal_node_id": "0.0-162.0", "trial": 6, "time_elapsed": 992519, "serialpos": 12, "key_press": -1, "wordID": 260, "type": "PRES_AUD", "trial_index": 225}, "uniqueid": "MTK1638:3VFJCI1K406PR2GWHD7M1J88L1GGRI", "dateTime": 1516060493164}, {"current_trial": 226, "trialdata": {"rt": -1000, "trial_type": "single-audio", "word": "daisy", "stimulus": "/static/audio/wordpool/DAISY.wav", "conditions": [24, 800, "a", 24000], "internal_node_id": "0.0-163.0", "trial": 6, "time_elapsed": 994367, "serialpos": 13, "key_press": -1, "wordID": 434, "type": "PRES_AUD", "trial_index": 226}, "uniqueid": "MTK1638:3VFJCI1K406PR2GWHD7M1J88L1GGRI", "dateTime": 1516060495012}, {"current_trial": 227, "trialdata": {"rt": -1000, "trial_type": "single-audio", "word": "tombstone", "stimulus": "/static/audio/wordpool/TOMBSTONE.wav", "conditions": [24, 800, "a", 24000], "internal_node_id": "0.0-164.0", "trial": 6, "time_elapsed": 996217, "serialpos": 14, "key_press": -1, "wordID": 1477, "type": "PRES_AUD", "trial_index": 227}, "uniqueid": "MTK1638:3VFJCI1K406PR2GWHD7M1J88L1GGRI", "dateTime": 1516060496862}, {"current_trial": 228, "trialdata": {"rt": -1000, "trial_type": "single-audio", "word": "stove", "stimulus": "/static/audio/wordpool/STOVE.wav", "conditions": [24, 800, "a", 24000], "internal_node_id": "0.0-165.0", "trial": 6, "time_elapsed": 998217, "serialpos": 15, "key_press": -1, "wordID": 1387, "type": "PRES_AUD", "trial_index": 228}, "uniqueid": "MTK1638:3VFJCI1K406PR2GWHD7M1J88L1GGRI", "dateTime": 1516060498862}, {"current_trial": 229, "trialdata": {"rt": -1000, "trial_type": "single-audio", "word": "scalpel", "stimulus": "/static/audio/wordpool/SCALPEL.wav", "conditions": [24, 800, "a", 24000], "internal_node_id": "0.0-166.0", "trial": 6, "time_elapsed": 999958, "serialpos": 16, "key_press": -1, "wordID": 1242, "type": "PRES_AUD", "trial_index": 229}, "uniqueid": "MTK1638:3VFJCI1K406PR2GWHD7M1J88L1GGRI", "dateTime": 1516060500603}, {"current_trial": 230, "trialdata": {"rt": -1000, "trial_type": "single-audio", "word": "barley", "stimulus": "/static/audio/wordpool/BARLEY.wav", "conditions": [24, 800, "a", 24000], "internal_node_id": "0.0-167.0", "trial": 6, "time_elapsed": 1001766, "serialpos": 17, "key_press": -1, "wordID": 87, "type": "PRES_AUD", "trial_index": 230}, "uniqueid": "MTK1638:3VFJCI1K406PR2GWHD7M1J88L1GGRI", "dateTime": 1516060502411}, {"current_trial": 231, "trialdata": {"rt": -1000, "trial_type": "single-audio", "word": "kitchen", "stimulus": "/static/audio/wordpool/KITCHEN.wav", "conditions": [24, 800, "a", 24000], "internal_node_id": "0.0-168.0", "trial": 6, "time_elapsed": 1003638, "serialpos": 18, "key_press": -1, "wordID": 777, "type": "PRES_AUD", "trial_index": 231}, "uniqueid": "MTK1638:3VFJCI1K406PR2GWHD7M1J88L1GGRI", "dateTime": 1516060504283}, {"current_trial": 232, "trialdata": {"rt": -1000, "trial_type": "single-audio", "word": "fireplace", "stimulus": "/static/audio/wordpool/FIREPLACE.wav", "conditions": [24, 800, "a", 24000], "internal_node_id": "0.0-169.0", "trial": 6, "time_elapsed": 1005588, "serialpos": 19, "key_press": -1, "wordID": 569, "type": "PRES_AUD", "trial_index": 232}, "uniqueid": "MTK1638:3VFJCI1K406PR2GWHD7M1J88L1GGRI", "dateTime": 1516060506233}, {"current_trial": 233, "trialdata": {"rt": -1000, "trial_type": "single-audio", "word": "airport", "stimulus": "/static/audio/wordpool/AIRPORT.wav", "conditions": [24, 800, "a", 24000], "internal_node_id": "0.0-170.0", "trial": 6, "time_elapsed": 1007492, "serialpos": 20, "key_press": -1, "wordID": 12, "type": "PRES_AUD", "trial_index": 233}, "uniqueid": "MTK1638:3VFJCI1K406PR2GWHD7M1J88L1GGRI", "dateTime": 1516060508137}, {"current_trial": 234, "trialdata": {"rt": -1000, "trial_type": "single-audio", "word": "razor", "stimulus": "/static/audio/wordpool/RAZOR.wav", "conditions": [24, 800, "a", 24000], "internal_node_id": "0.0-171.0", "trial": 6, "time_elapsed": 1009427, "serialpos": 21, "key_press": -1, "wordID": 1170, "type": "PRES_AUD", "trial_index": 234}, "uniqueid": "MTK1638:3VFJCI1K406PR2GWHD7M1J88L1GGRI", "dateTime": 1516060510072}, {"current_trial": 235, "trialdata": {"rt": -1000, "trial_type": "single-audio", "word": "gymnast", "stimulus": "/static/audio/wordpool/GYMNAST.wav", "conditions": [24, 800, "a", 24000], "internal_node_id": "0.0-172.0", "trial": 6, "time_elapsed": 1011154, "serialpos": 22, "key_press": -1, "wordID": 674, "type": "PRES_AUD", "trial_index": 235}, "uniqueid": "MTK1638:3VFJCI1K406PR2GWHD7M1J88L1GGRI", "dateTime": 1516060511799}, {"current_trial": 236, "trialdata": {"rt": -1000, "trial_type": "single-audio", "word": "expert", "stimulus": "/static/audio/wordpool/EXPERT.wav", "conditions": [24, 800, "a", 24000], "internal_node_id": "0.0-173.0", "trial": 6, "time_elapsed": 1012792, "serialpos": 23, "key_press": -1, "wordID": 542, "type": "PRES_AUD", "trial_index": 236}, "uniqueid": "MTK1638:3VFJCI1K406PR2GWHD7M1J88L1GGRI", "dateTime": 1516060513437}, {"current_trial": 237, "trialdata": {"rt": -1, "trial_type": "single-stim", "stimulus": "", "internal_node_id": "0.0-174.0-0.0", "time_elapsed": 1014156, "key_press": -1, "type": "PRE_RECALL_DELAY", "trial_index": 237}, "uniqueid": "MTK1638:3VFJCI1K406PR2GWHD7M1J88L1GGRI", "dateTime": 1516060514801}, {"current_trial": 238, "trialdata": {"rt": -1000, "trial_type": "single-audio", "stimulus": "/static/audio/400Hz.wav", "internal_node_id": "0.0-175.0", "time_elapsed": 1014659, "key_press": -1, "type": "PRE_RECALL_ALERT", "trial_index": 238}, "uniqueid": "MTK1638:3VFJCI1K406PR2GWHD7M1J88L1GGRI", "dateTime": 1516060515304}, {"current_trial": 239, "trialdata": {"rt": [3579, 5307, 8187, 10331, 13179, 40683], "recwords": ["gymnist", "expert", "daisy", "cattle", "oven", "expert"], "key_times": [1523, 1643, 1995, 2587, 2787, 2851, 3003, 3579, 4235, 4499, 4691, 4827, 4915, 5131, 5307, 7227, 7427, 7571, 7715, 7858, 8187, 8611, 8779, 8939, 9419, 9579, 9795, 9915, 10067, 10331, 12475, 12627, 12835, 12947, 13179, 37779, 38027, 38211, 38355, 38443, 38651, 39187, 40339, 40683], "trial_type": "free-recall", "conditions": [24, 800, "a", 24000], "internal_node_id": "0.0-176.0-0.0", "key_presses": [71, 89, 77, 78, 73, 83, 84, 13, 69, 88, 80, 69, 82, 84, 13, 68, 65, 73, 83, 89, 13, 67, 65, 76, 8, 84, 84, 76, 69, 13, 79, 86, 69, 78, 13, 69, 88, 80, 69, 82, 84, 221, 8, 13], "trial": 6, "time_elapsed": 1074660, "type": "FREE_RECALL", "trial_index": 239}, "uniqueid": "MTK1638:3VFJCI1K406PR2GWHD7M1J88L1GGRI", "dateTime": 1516060575308}, {"current_trial": 240, "trialdata": {"rt": 6187, "trial_type": "text", "internal_node_id": "0.0-177.0", "time_elapsed": 1082855, "key_press": 72, "type": "INSTRUCTIONS", "trial_index": 240}, "uniqueid": "MTK1638:3VFJCI1K406PR2GWHD7M1J88L1GGRI", "dateTime": 1516060583500}, {"current_trial": 241, "trialdata": {"rt": [5299, 9563, 14467, 19123, 22619], "trial_type": "math-distractor", "key_times": [4595, 5011, 5299, 8795, 8987, 9563, 13731, 14187, 14467, 18491, 18771, 19123, 22171, 22387, 22619], "responses": ["19", "15", "19", "19", "13"], "num2": [8, 7, 6, 6, 8, 6], "num3": [7, 2, 9, 7, 4, 4], "conditions": [12, 800, "a", 24000], "internal_node_id": "0.0-178.0", "key_presses": [97, 105, 13, 97, 101, 13, 97, 105, 13, 97, 105, 13, 97, 99, 13], "trial": 7, "time_elapsed": 1108878, "type": "DISTRACTOR", "trial_index": 241, "num1": [4, 6, 4, 6, 1, 9]}, "uniqueid": "MTK1638:3VFJCI1K406PR2GWHD7M1J88L1GGRI", "dateTime": 1516060609523}, {"current_trial": 242, "trialdata": {"rt": -1, "trial_type": "single-stim", "stimulus": "<p id=\"stim\">10</p>", "internal_node_id": "0.0-179.0-0.0", "time_elapsed": 1111890, "key_press": -1, "trial_index": 242}, "uniqueid": "MTK1638:3VFJCI1K406PR2GWHD7M1J88L1GGRI", "dateTime": 1516060612535}, {"current_trial": 243, "trialdata": {"rt": -1, "trial_type": "single-stim", "stimulus": "<p id=\"stim\">9</p>", "internal_node_id": "0.0-179.0-1.0", "time_elapsed": 1112890, "key_press": -1, "trial_index": 243}, "uniqueid": "MTK1638:3VFJCI1K406PR2GWHD7M1J88L1GGRI", "dateTime": 1516060613536}, {"current_trial": 244, "trialdata": {"rt": -1, "trial_type": "single-stim", "stimulus": "<p id=\"stim\">8</p>", "internal_node_id": "0.0-179.0-2.0", "time_elapsed": 1113903, "key_press": -1, "trial_index": 244}, "uniqueid": "MTK1638:3VFJCI1K406PR2GWHD7M1J88L1GGRI", "dateTime": 1516060614548}, {"current_trial": 245, "trialdata": {"rt": -1, "trial_type": "single-stim", "stimulus": "<p id=\"stim\">7</p>", "internal_node_id": "0.0-179.0-3.0", "time_elapsed": 1114904, "key_press": -1, "trial_index": 245}, "uniqueid": "MTK1638:3VFJCI1K406PR2GWHD7M1J88L1GGRI", "dateTime": 1516060615549}, {"current_trial": 246, "trialdata": {"rt": -1, "trial_type": "single-stim", "stimulus": "<p id=\"stim\">6</p>", "internal_node_id": "0.0-179.0-4.0", "time_elapsed": 1115907, "key_press": -1, "trial_index": 246}, "uniqueid": "MTK1638:3VFJCI1K406PR2GWHD7M1J88L1GGRI", "dateTime": 1516060616552}, {"current_trial": 247, "trialdata": {"rt": -1, "trial_type": "single-stim", "stimulus": "<p id=\"stim\">5</p>", "internal_node_id": "0.0-179.0-5.0", "time_elapsed": 1116913, "key_press": -1, "trial_index": 247}, "uniqueid": "MTK1638:3VFJCI1K406PR2GWHD7M1J88L1GGRI", "dateTime": 1516060617558}, {"current_trial": 248, "trialdata": {"rt": -1, "trial_type": "single-stim", "stimulus": "<p id=\"stim\">4</p>", "internal_node_id": "0.0-179.0-6.0", "time_elapsed": 1117914, "key_press": -1, "trial_index": 248}, "uniqueid": "MTK1638:3VFJCI1K406PR2GWHD7M1J88L1GGRI", "dateTime": 1516060618559}, {"current_trial": 249, "trialdata": {"rt": -1, "trial_type": "single-stim", "stimulus": "<p id=\"stim\">3</p>", "internal_node_id": "0.0-179.0-7.0", "time_elapsed": 1118916, "key_press": -1, "trial_index": 249}, "uniqueid": "MTK1638:3VFJCI1K406PR2GWHD7M1J88L1GGRI", "dateTime": 1516060619561}, {"current_trial": 250, "trialdata": {"rt": -1, "trial_type": "single-stim", "stimulus": "<p id=\"stim\">2</p>", "internal_node_id": "0.0-179.0-8.0", "time_elapsed": 1119931, "key_press": -1, "trial_index": 250}, "uniqueid": "MTK1638:3VFJCI1K406PR2GWHD7M1J88L1GGRI", "dateTime": 1516060620577}, {"current_trial": 251, "trialdata": {"rt": -1, "trial_type": "single-stim", "stimulus": "<p id=\"stim\">1</p>", "internal_node_id": "0.0-179.0-9.0", "time_elapsed": 1120937, "key_press": -1, "trial_index": 251}, "uniqueid": "MTK1638:3VFJCI1K406PR2GWHD7M1J88L1GGRI", "dateTime": 1516060621582}, {"current_trial": 252, "trialdata": {"rt": -1, "trial_type": "single-stim", "stimulus": "<p id=\"stim\">+</p>", "internal_node_id": "0.0-180.0-0.0", "time_elapsed": 1122448, "key_press": -1, "type": "FIXATION", "trial_index": 252}, "uniqueid": "MTK1638:3VFJCI1K406PR2GWHD7M1J88L1GGRI", "dateTime": 1516060623093}, {"current_trial": 253, "trialdata": {"rt": -1000, "trial_type": "single-audio", "word": "pastry", "stimulus": "/static/audio/wordpool/PASTRY.wav", "conditions": [12, 800, "a", 24000], "internal_node_id": "0.0-181.0", "trial": 7, "time_elapsed": 1124253, "serialpos": 0, "key_pr