{"condition": 0, "counterbalance": 1438, "assignmentId": "3WI0P0II62ZMFI65FN6EVY5B5A6DRA", "workerId": "MTK1079", "hitId": "3XDJY5RK5SSZ8UHZ04VO8L25JMB4UB", "currenttrial": 626, "bonus": 0, "data": [{"uniqueid": "MTK1079:3WI0P0II62ZMFI65FN6EVY5B5A6DRA", "current_trial": 0, "dateTime": 1513097692327, "trialdata": {"rt": 32661, "key_press": 32, "type": "INSTRUCTIONS", "trial_type": "text", "trial_index": 0, "time_elapsed": 32662, "internal_node_id": "0.0-0.0"}}, {"uniqueid": "MTK1079:3WI0P0II62ZMFI65FN6EVY5B5A6DRA", "current_trial": 1, "dateTime": 1513097745201, "trialdata": {"rt": 52873, "key_press": 32, "type": "INSTRUCTIONS", "trial_type": "text", "trial_index": 1, "time_elapsed": 85536, "internal_node_id": "0.0-1.0"}}, {"uniqueid": "MTK1079:3WI0P0II62ZMFI65FN6EVY5B5A6DRA", "current_trial": 2, "dateTime": 1513097754848, "trialdata": {"rt": [9639], "responses": ["ocean"], "type": "AUDIO_TEST", "trial_type": "audio-test", "trial_index": 2, "time_elapsed": 95183, "internal_node_id": "0.0-2.0"}}, {"uniqueid": "MTK1079:3WI0P0II62ZMFI65FN6EVY5B5A6DRA", "current_trial": 3, "dateTime": 1513097762334, "trialdata": {"rt": [7483], "responses": ["crystal"], "type": "AUDIO_TEST", "trial_type": "audio-test", "trial_index": 3, "time_elapsed": 102669, "internal_node_id": "0.0-3.0"}}, {"uniqueid": "MTK1079:3WI0P0II62ZMFI65FN6EVY5B5A6DRA", "current_trial": 4, "dateTime": 1513097771785, "trialdata": {"rt": [9447], "responses": ["spice"], "type": "AUDIO_TEST", "trial_type": "audio-test", "trial_index": 4, "time_elapsed": 112120, "internal_node_id": "0.0-4.0"}}, {"uniqueid": "MTK1079:3WI0P0II62ZMFI65FN6EVY5B5A6DRA", "current_trial": 5, "dateTime": 1513097790462, "trialdata": {"rt": 17925, "responses": "{\"Q0\":\"11pm\",\"Q1\":\"8am\",\"Q2\":\"5\"}", "type": "SLEEP_SURVEY", "trial_type": "survey-text", "trial_index": 5, "time_elapsed": 130797, "internal_node_id": "0.0-5.0"}}, {"uniqueid": "MTK1079:3WI0P0II62ZMFI65FN6EVY5B5A6DRA", "current_trial": 6, "dateTime": 1513098010389, "trialdata": {"rt": 218925, "key_press": 32, "type": "INSTRUCTIONS", "trial_type": "text", "trial_index": 6, "time_elapsed": 350724, "internal_node_id": "0.0-6.0"}}, {"uniqueid": "MTK1079:3WI0P0II62ZMFI65FN6EVY5B5A6DRA", "current_trial": 7, "dateTime": 1513098035226, "trialdata": {"rt": 24337, "key_press": 32, "type": "INSTRUCTIONS", "trial_type": "text", "trial_index": 7, "time_elapsed": 375561, "internal_node_id": "0.0-7.0"}}, {"uniqueid": "MTK1079:3WI0P0II62ZMFI65FN6EVY5B5A6DRA", "current_trial": 8, "dateTime": 1513098049010, "trialdata": {"rt": 13283, "key_press": 32, "type": "INSTRUCTIONS", "trial_type": "text", "trial_index": 8, "time_elapsed": 389345, "internal_node_id": "0.0-8.0"}}, {"uniqueid": "MTK1079:3WI0P0II62ZMFI65FN6EVY5B5A6DRA", "current_trial": 9, "dateTime": 1513098068015, "trialdata": {"rt": [2865, 5300, 7237, 9096, 11128, 13965, 16958], "responses": ["7", "14", "14", "20", "19", "18", "22"], "num1": [2, 7, 7, 8, 9, 9, 7, 3], "num2": [4, 1, 4, 4, 7, 3, 7, 4], "num3": [1, 6, 3, 8, 3, 6, 8, 2], "type": "DISTRACTOR", "conditions": [18, 1200, "v", 18000], "trial": 0, "trial_type": "math-distractor", "trial_index": 9, "time_elapsed": 408350, "internal_node_id": "0.0-9.0"}}, {"uniqueid": "MTK1079:3WI0P0II62ZMFI65FN6EVY5B5A6DRA", "current_trial": 10, "dateTime": 1513098071016, "trialdata": {"rt": -1, "stimulus": "<p id=\"stim\">10</p>", "key_press": -1, "trial_type": "single-stim", "trial_index": 10, "time_elapsed": 411351, "internal_node_id": "0.0-10.0-0.0"}}, {"uniqueid": "MTK1079:3WI0P0II62ZMFI65FN6EVY5B5A6DRA", "current_trial": 11, "dateTime": 1513098072017, "trialdata": {"rt": -1, "stimulus": "<p id=\"stim\">9</p>", "key_press": -1, "trial_type": "single-stim", "trial_index": 11, "time_elapsed": 412352, "internal_node_id": "0.0-10.0-1.0"}}, {"uniqueid": "MTK1079:3WI0P0II62ZMFI65FN6EVY5B5A6DRA", "current_trial": 12, "dateTime": 1513098073018, "trialdata": {"rt": -1, "stimulus": "<p id=\"stim\">8</p>", "key_press": -1, "trial_type": "single-stim", "trial_index": 12, "time_elapsed": 413353, "internal_node_id": "0.0-10.0-2.0"}}, {"uniqueid": "MTK1079:3WI0P0II62ZMFI65FN6EVY5B5A6DRA", "current_trial": 13, "dateTime": 1513098074020, "trialdata": {"rt": -1, "stimulus": "<p id=\"stim\">7</p>", "key_press": -1, "trial_type": "single-stim", "trial_index": 13, "time_elapsed": 414355, "internal_node_id": "0.0-10.0-3.0"}}, {"uniqueid": "MTK1079:3WI0P0II62ZMFI65FN6EVY5B5A6DRA", "current_trial": 14, "dateTime": 1513098075021, "trialdata": {"rt": -1, "stimulus": "<p id=\"stim\">6</p>", "key_press": -1, "trial_type": "single-stim", "trial_index": 14, "time_elapsed": 415356, "internal_node_id": "0.0-10.0-4.0"}}, {"uniqueid": "MTK1079:3WI0P0II62ZMFI65FN6EVY5B5A6DRA", "current_trial": 15, "dateTime": 1513098076022, "trialdata": {"rt": -1, "stimulus": "<p id=\"stim\">5</p>", "key_press": -1, "trial_type": "single-stim", "trial_index": 15, "time_elapsed": 416357, "internal_node_id": "0.0-10.0-5.0"}}, {"uniqueid": "MTK1079:3WI0P0II62ZMFI65FN6EVY5B5A6DRA", "current_trial": 16, "dateTime": 1513098077023, "trialdata": {"rt": -1, "stimulus": "<p id=\"stim\">4</p>", "key_press": -1, "trial_type": "single-stim", "trial_index": 16, "time_elapsed": 417358, "internal_node_id": "0.0-10.0-6.0"}}, {"uniqueid": "MTK1079:3WI0P0II62ZMFI65FN6EVY5B5A6DRA", "current_trial": 17, "dateTime": 1513098078023, "trialdata": {"rt": -1, "stimulus": "<p id=\"stim\">3</p>", "key_press": -1, "trial_type": "single-stim", "trial_index": 17, "time_elapsed": 418358, "internal_node_id": "0.0-10.0-7.0"}}, {"uniqueid": "MTK1079:3WI0P0II62ZMFI65FN6EVY5B5A6DRA", "current_trial": 18, "dateTime": 1513098079024, "trialdata": {"rt": -1, "stimulus": "<p id=\"stim\">2</p>", "key_press": -1, "trial_type": "single-stim", "trial_index": 18, "time_elapsed": 419359, "internal_node_id": "0.0-10.0-8.0"}}, {"uniqueid": "MTK1079:3WI0P0II62ZMFI65FN6EVY5B5A6DRA", "current_trial": 19, "dateTime": 1513098080025, "trialdata": {"rt": -1, "stimulus": "<p id=\"stim\">1</p>", "key_press": -1, "trial_type": "single-stim", "trial_index": 19, "time_elapsed": 420360, "internal_node_id": "0.0-10.0-9.0"}}, {"uniqueid": "MTK1079:3WI0P0II62ZMFI65FN6EVY5B5A6DRA", "current_trial": 20, "dateTime": 1513098081525, "trialdata": {"rt": -1, "stimulus": "<p id=\"stim\">+</p>", "key_press": -1, "type": "FIXATION", "trial_type": "single-stim", "trial_index": 20, "time_elapsed": 421860, "internal_node_id": "0.0-11.0-0.0"}}, {"uniqueid": "MTK1079:3WI0P0II62ZMFI65FN6EVY5B5A6DRA", "current_trial": 21, "dateTime": 1513098082725, "trialdata": {"rt": -1, "stimulus": "<p id=\"stim\">DIME</p>", "key_press": -1, "type": "PRES_VIS", "word": "dime", "wordID": 465, "conditions": [18, 1200, "v", 18000], "trial": 0, "serialpos": 0, "trial_type": "single-stim", "trial_index": 21, "time_elapsed": 423060, "internal_node_id": "0.0-12.0"}}, {"uniqueid": "MTK1079:3WI0P0II62ZMFI65FN6EVY5B5A6DRA", "current_trial": 22, "dateTime": 1513098085103, "trialdata": {"rt": -1, "stimulus": "<p id=\"stim\">TEMPLE</p>", "key_press": -1, "type": "PRES_VIS", "word": "temple", "wordID": 1447, "conditions": [18, 1200, "v", 18000], "trial": 0, "serialpos": 1, "trial_type": "single-stim", "trial_index": 22, "time_elapsed": 425438, "internal_node_id": "0.0-13.0"}}, {"uniqueid": "MTK1079:3WI0P0II62ZMFI65FN6EVY5B5A6DRA", "current_trial": 23, "dateTime": 1513098087361, "trialdata": {"rt": -1, "stimulus": "<p id=\"stim\">GUITAR</p>", "key_press": -1, "type": "PRES_VIS", "word": "guitar", "wordID": 669, "conditions": [18, 1200, "v", 18000], "trial": 0, "serialpos": 2, "trial_type": "single-stim", "trial_index": 23, "time_elapsed": 427696, "internal_node_id": "0.0-14.0"}}, {"uniqueid": "MTK1079:3WI0P0II62ZMFI65FN6EVY5B5A6DRA", "current_trial": 24, "dateTime": 1513098089716, "trialdata": {"rt": -1, "stimulus": "<p id=\"stim\">SOFTBALL</p>", "key_press": -1, "type": "PRES_VIS", "word": "softball", "wordID": 1342, "conditions": [18, 1200, "v", 18000], "trial": 0, "serialpos": 3, "trial_type": "single-stim", "trial_index": 24, "time_elapsed": 430050, "internal_node_id": "0.0-15.0"}}, {"uniqueid": "MTK1079:3WI0P0II62ZMFI65FN6EVY5B5A6DRA", "current_trial": 25, "dateTime": 1513098091941, "trialdata": {"rt": -1, "stimulus": "<p id=\"stim\">RECORD</p>", "key_press": -1, "type": "PRES_VIS", "word": "record", "wordID": 1175, "conditions": [18, 1200, "v", 18000], "trial": 0, "serialpos": 4, "trial_type": "single-stim", "trial_index": 25, "time_elapsed": 432276, "internal_node_id": "0.0-16.0"}}, {"uniqueid": "MTK1079:3WI0P0II62ZMFI65FN6EVY5B5A6DRA", "current_trial": 26, "dateTime": 1513098094214, "trialdata": {"rt": -1, "stimulus": "<p id=\"stim\">BOYFRIEND</p>", "key_press": -1, "type": "PRES_VIS", "word": "boyfriend", "wordID": 161, "conditions": [18, 1200, "v", 18000], "trial": 0, "serialpos": 5, "trial_type": "single-stim", "trial_index": 26, "time_elapsed": 434549, "internal_node_id": "0.0-17.0"}}, {"uniqueid": "MTK1079:3WI0P0II62ZMFI65FN6EVY5B5A6DRA", "current_trial": 27, "dateTime": 1513098096534, "trialdata": {"rt": -1, "stimulus": "<p id=\"stim\">PARENT</p>", "key_press": -1, "type": "PRES_VIS", "word": "parent", "wordID": 1012, "conditions": [18, 1200, "v", 18000], "trial": 0, "serialpos": 6, "trial_type": "single-stim", "trial_index": 27, "time_elapsed": 436869, "internal_node_id": "0.0-18.0"}}, {"uniqueid": "MTK1079:3WI0P0II62ZMFI65FN6EVY5B5A6DRA", "current_trial": 28, "dateTime": 1513098098832, "trialdata": {"rt": -1, "stimulus": "<p id=\"stim\">FIREMAN</p>", "key_press": -1, "type": "PRES_VIS", "word": "fireman", "wordID": 568, "conditions": [18, 1200, "v", 18000], "trial": 0, "serialpos": 7, "trial_type": "single-stim", "trial_index": 28, "time_elapsed": 439167, "internal_node_id": "0.0-19.0"}}, {"uniqueid": "MTK1079:3WI0P0II62ZMFI65FN6EVY5B5A6DRA", "current_trial": 29, "dateTime": 1513098100960, "trialdata": {"rt": -1, "stimulus": "<p id=\"stim\">MILK</p>", "key_press": -1, "type": "PRES_VIS", "word": "milk", "wordID": 894, "conditions": [18, 1200, "v", 18000], "trial": 0, "serialpos": 8, "trial_type": "single-stim", "trial_index": 29, "time_elapsed": 441295, "internal_node_id": "0.0-20.0"}}, {"uniqueid": "MTK1079:3WI0P0II62ZMFI65FN6EVY5B5A6DRA", "current_trial": 30, "dateTime": 1513098103076, "trialdata": {"rt": -1, "stimulus": "<p id=\"stim\">ITEM</p>", "key_press": -1, "type": "PRES_VIS", "word": "item", "wordID": 745, "conditions": [18, 1200, "v", 18000], "trial": 0, "serialpos": 9, "trial_type": "single-stim", "trial_index": 30, "time_elapsed": 443411, "internal_node_id": "0.0-21.0"}}, {"uniqueid": "MTK1079:3WI0P0II62ZMFI65FN6EVY5B5A6DRA", "current_trial": 31, "dateTime": 1513098105397, "trialdata": {"rt": -1, "stimulus": "<p id=\"stim\">TEACHER</p>", "key_press": -1, "type": "PRES_VIS", "word": "teacher", "wordID": 1439, "conditions": [18, 1200, "v", 18000], "trial": 0, "serialpos": 10, "trial_type": "single-stim", "trial_index": 31, "time_elapsed": 445732, "internal_node_id": "0.0-22.0"}}, {"uniqueid": "MTK1079:3WI0P0II62ZMFI65FN6EVY5B5A6DRA", "current_trial": 32, "dateTime": 1513098107612, "trialdata": {"rt": -1, "stimulus": "<p id=\"stim\">CAFE</p>", "key_press": -1, "type": "PRES_VIS", "word": "cafe", "wordID": 215, "conditions": [18, 1200, "v", 18000], "trial": 0, "serialpos": 11, "trial_type": "single-stim", "trial_index": 32, "time_elapsed": 447946, "internal_node_id": "0.0-23.0"}}, {"uniqueid": "MTK1079:3WI0P0II62ZMFI65FN6EVY5B5A6DRA", "current_trial": 33, "dateTime": 1513098109931, "trialdata": {"rt": -1, "stimulus": "<p id=\"stim\">YACHT</p>", "key_press": -1, "type": "PRES_VIS", "word": "yacht", "wordID": 1628, "conditions": [18, 1200, "v", 18000], "trial": 0, "serialpos": 12, "trial_type": "single-stim", "trial_index": 33, "time_elapsed": 450265, "internal_node_id": "0.0-24.0"}}, {"uniqueid": "MTK1079:3WI0P0II62ZMFI65FN6EVY5B5A6DRA", "current_trial": 34, "dateTime": 1513098111980, "trialdata": {"rt": -1, "stimulus": "<p id=\"stim\">BASEMENT</p>", "key_press": -1, "type": "PRES_VIS", "word": "basement", "wordID": 93, "conditions": [18, 1200, "v", 18000], "trial": 0, "serialpos": 13, "trial_type": "single-stim", "trial_index": 34, "time_elapsed": 452315, "internal_node_id": "0.0-25.0"}}, {"uniqueid": "MTK1079:3WI0P0II62ZMFI65FN6EVY5B5A6DRA", "current_trial": 35, "dateTime": 1513098114356, "trialdata": {"rt": -1, "stimulus": "<p id=\"stim\">HAND</p>", "key_press": -1, "type": "PRES_VIS", "word": "hand", "wordID": 682, "conditions": [18, 1200, "v", 18000], "trial": 0, "serialpos": 14, "trial_type": "single-stim", "trial_index": 35, "time_elapsed": 454691, "internal_node_id": "0.0-26.0"}}, {"uniqueid": "MTK1079:3WI0P0II62ZMFI65FN6EVY5B5A6DRA", "current_trial": 36, "dateTime": 1513098116493, "trialdata": {"rt": -1, "stimulus": "<p id=\"stim\">COSTUME</p>", "key_press": -1, "type": "PRES_VIS", "word": "costume", "wordID": 382, "conditions": [18, 1200, "v", 18000], "trial": 0, "serialpos": 15, "trial_type": "single-stim", "trial_index": 36, "time_elapsed": 456828, "internal_node_id": "0.0-27.0"}}, {"uniqueid": "MTK1079:3WI0P0II62ZMFI65FN6EVY5B5A6DRA", "current_trial": 37, "dateTime": 1513098118876, "trialdata": {"rt": -1, "stimulus": "<p id=\"stim\">BEAST</p>", "key_press": -1, "type": "PRES_VIS", "word": "beast", "wordID": 107, "conditions": [18, 1200, "v", 18000], "trial": 0, "serialpos": 16, "trial_type": "single-stim", "trial_index": 37, "time_elapsed": 459211, "internal_node_id": "0.0-28.0"}}, {"uniqueid": "MTK1079:3WI0P0II62ZMFI65FN6EVY5B5A6DRA", "current_trial": 38, "dateTime": 1513098121095, "trialdata": {"rt": -1, "stimulus": "<p id=\"stim\">LONDON</p>", "key_press": -1, "type": "PRES_VIS", "word": "london", "wordID": 842, "conditions": [18, 1200, "v", 18000], "trial": 0, "serialpos": 17, "trial_type": "single-stim", "trial_index": 38, "time_elapsed": 461429, "internal_node_id": "0.0-29.0"}}, {"uniqueid": "MTK1079:3WI0P0II62ZMFI65FN6EVY5B5A6DRA", "current_trial": 39, "dateTime": 1513098123402, "trialdata": {"rt": -1, "stimulus": "", "key_press": -1, "type": "PRE_RECALL_DELAY", "trial_type": "single-stim", "trial_index": 39, "time_elapsed": 463736, "internal_node_id": "0.0-30.0-0.0"}}, {"uniqueid": "MTK1079:3WI0P0II62ZMFI65FN6EVY5B5A6DRA", "current_trial": 40, "dateTime": 1513098123903, "trialdata": {"rt": -1000, "stimulus": "/static/audio/400Hz.wav", "key_press": -1, "type": "PRE_RECALL_ALERT", "trial_type": "single-audio", "trial_index": 40, "time_elapsed": 464238, "internal_node_id": "0.0-31.0"}}, {"uniqueid": "MTK1079:3WI0P0II62ZMFI65FN6EVY5B5A6DRA", "current_trial": 41, "dateTime": 1513098183906, "trialdata": {"rt": [2861, 4888, 7321, 8856, 11073, 18516, 19644, 21444], "recwords": ["dime", "record", "softball", "beast", "yacht", "teacher", "", ""], "type": "FREE_RECALL", "conditions": [18, 1200, "v", 18000], "trial": 0, "trial_type": "free-recall", "trial_index": 41, "time_elapsed": 524240, "internal_node_id": "0.0-32.0-0.0"}}, {"uniqueid": "MTK1079:3WI0P0II62ZMFI65FN6EVY5B5A6DRA", "current_trial": 42, "dateTime": 1513098187767, "trialdata": {"rt": 1859, "key_press": 32, "type": "INSTRUCTIONS", "trial_type": "text", "trial_index": 42, "time_elapsed": 528101, "internal_node_id": "0.0-33.0"}}, {"uniqueid": "MTK1079:3WI0P0II62ZMFI65FN6EVY5B5A6DRA", "current_trial": 43, "dateTime": 1513098207769, "trialdata": {"rt": [2625, 4625, 6801, 8337, 9901, 11257, 13077, 14560, 16344, 17949], "responses": ["18", "17", "13", "11", "11", "4", "7", "11", "18", "10"], "num1": [9, 4, 9, 8, 1, 1, 4, 1, 8, 2, 3], "num2": [7, 7, 2, 2, 5, 2, 1, 3, 6, 7, 2], "num3": [2, 6, 2, 1, 5, 1, 2, 7, 4, 1, 9], "type": "DISTRACTOR", "conditions": [18, 1200, "a", 18000], "trial": 1, "trial_type": "math-distractor", "trial_index": 43, "time_elapsed": 548104, "internal_node_id": "0.0-34.0"}}, {"uniqueid": "MTK1079:3WI0P0II62ZMFI65FN6EVY5B5A6DRA", "current_trial": 44, "dateTime": 1513098210770, "trialdata": {"rt": -1, "stimulus": "<p id=\"stim\">10</p>", "key_press": -1, "trial_type": "single-stim", "trial_index": 44, "time_elapsed": 551105, "internal_node_id": "0.0-35.0-0.0"}}, {"uniqueid": "MTK1079:3WI0P0II62ZMFI65FN6EVY5B5A6DRA", "current_trial": 45, "dateTime": 1513098211771, "trialdata": {"rt": -1, "stimulus": "<p id=\"stim\">9</p>", "key_press": -1, "trial_type": "single-stim", "trial_index": 45, "time_elapsed": 552106, "internal_node_id": "0.0-35.0-1.0"}}, {"uniqueid": "MTK1079:3WI0P0II62ZMFI65FN6EVY5B5A6DRA", "current_trial": 46, "dateTime": 1513098212772, "trialdata": {"rt": -1, "stimulus": "<p id=\"stim\">8</p>", "key_press": -1, "trial_type": "single-stim", "trial_index": 46, "time_elapsed": 553107, "internal_node_id": "0.0-35.0-2.0"}}, {"uniqueid": "MTK1079:3WI0P0II62ZMFI65FN6EVY5B5A6DRA", "current_trial": 47, "dateTime": 1513098213772, "trialdata": {"rt": -1, "stimulus": "<p id=\"stim\">7</p>", "key_press": -1, "trial_type": "single-stim", "trial_index": 47, "time_elapsed": 554107, "internal_node_id": "0.0-35.0-3.0"}}, {"uniqueid": "MTK1079:3WI0P0II62ZMFI65FN6EVY5B5A6DRA", "current_trial": 48, "dateTime": 1513098214773, "trialdata": {"rt": -1, "stimulus": "<p id=\"stim\">6</p>", "key_press": -1, "trial_type": "single-stim", "trial_index": 48, "time_elapsed": 555108, "internal_node_id": "0.0-35.0-4.0"}}, {"uniqueid": "MTK1079:3WI0P0II62ZMFI65FN6EVY5B5A6DRA", "current_trial": 49, "dateTime": 1513098215774, "trialdata": {"rt": -1, "stimulus": "<p id=\"stim\">5</p>", "key_press": -1, "trial_type": "single-stim", "trial_index": 49, "time_elapsed": 556109, "internal_node_id": "0.0-35.0-5.0"}}, {"uniqueid": "MTK1079:3WI0P0II62ZMFI65FN6EVY5B5A6DRA", "current_trial": 50, "dateTime": 1513098216775, "trialdata": {"rt": -1, "stimulus": "<p id=\"stim\">4</p>", "key_press": -1, "trial_type": "single-stim", "trial_index": 50, "time_elapsed": 557110, "internal_node_id": "0.0-35.0-6.0"}}, {"uniqueid": "MTK1079:3WI0P0II62ZMFI65FN6EVY5B5A6DRA", "current_trial": 51, "dateTime": 1513098217775, "trialdata": {"rt": -1, "stimulus": "<p id=\"stim\">3</p>", "key_press": -1, "trial_type": "single-stim", "trial_index": 51, "time_elapsed": 558110, "internal_node_id": "0.0-35.0-7.0"}}, {"uniqueid": "MTK1079:3WI0P0II62ZMFI65FN6EVY5B5A6DRA", "current_trial": 52, "dateTime": 1513098218776, "trialdata": {"rt": -1, "stimulus": "<p id=\"stim\">2</p>", "key_press": -1, "trial_type": "single-stim", "trial_index": 52, "time_elapsed": 559111, "internal_node_id": "0.0-35.0-8.0"}}, {"uniqueid": "MTK1079:3WI0P0II62ZMFI65FN6EVY5B5A6DRA", "current_trial": 53, "dateTime": 1513098219777, "trialdata": {"rt": -1, "stimulus": "<p id=\"stim\">1</p>", "key_press": -1, "trial_type": "single-stim", "trial_index": 53, "time_elapsed": 560112, "internal_node_id": "0.0-35.0-9.0"}}, {"uniqueid": "MTK1079:3WI0P0II62ZMFI65FN6EVY5B5A6DRA", "current_trial": 54, "dateTime": 1513098221278, "trialdata": {"rt": -1, "stimulus": "<p id=\"stim\">+</p>", "key_press": -1, "type": "FIXATION", "trial_type": "single-stim", "trial_index": 54, "time_elapsed": 561613, "internal_node_id": "0.0-36.0-0.0"}}, {"uniqueid": "MTK1079:3WI0P0II62ZMFI65FN6EVY5B5A6DRA", "current_trial": 55, "dateTime": 1513098223648, "trialdata": {"rt": -1000, "stimulus": "/static/audio/wordpool/COUSIN.wav", "key_press": -1, "type": "PRES_AUD", "word": "cousin", "wordID": 391, "conditions": [18, 1200, "a", 18000], "trial": 1, "serialpos": 0, "trial_type": "single-audio", "trial_index": 55, "time_elapsed": 563983, "internal_node_id": "0.0-37.0"}}, {"uniqueid": "MTK1079:3WI0P0II62ZMFI65FN6EVY5B5A6DRA", "current_trial": 56, "dateTime": 1513098225875, "trialdata": {"rt": -1000, "stimulus": "/static/audio/wordpool/POLICE.wav", "key_press": -1, "type": "PRES_AUD", "word": "police", "wordID": 1097, "conditions": [18, 1200, "a", 18000], "trial": 1, "serialpos": 1, "trial_type": "single-audio", "trial_index": 56, "time_elapsed": 566210, "internal_node_id": "0.0-38.0"}}, {"uniqueid": "MTK1079:3WI0P0II62ZMFI65FN6EVY5B5A6DRA", "current_trial": 57, "dateTime": 1513098228081, "trialdata": {"rt": -1000, "stimulus": "/static/audio/wordpool/SILK.wav", "key_press": -1, "type": "PRES_AUD", "word": "silk", "wordID": 1306, "conditions": [18, 1200, "a", 18000], "trial": 1, "serialpos": 2, "trial_type": "single-audio", "trial_index": 57, "time_elapsed": 568416, "internal_node_id": "0.0-39.0"}}, {"uniqueid": "MTK1079:3WI0P0II62ZMFI65FN6EVY5B5A6DRA", "current_trial": 58, "dateTime": 1513098230109, "trialdata": {"rt": -1000, "stimulus": "/static/audio/wordpool/SEAFOOD.wav", "key_press": -1, "type": "PRES_AUD", "word": "seafood", "wordID": 1259, "conditions": [18, 1200, "a", 18000], "trial": 1, "serialpos": 3, "trial_type": "single-audio", "trial_index": 58, "time_elapsed": 570444, "internal_node_id": "0.0-40.0"}}, {"uniqueid": "MTK1079:3WI0P0II62ZMFI65FN6EVY5B5A6DRA", "current_trial": 59, "dateTime": 1513098232484, "trialdata": {"rt": -1000, "stimulus": "/static/audio/wordpool/CATTLE.wav", "key_press": -1, "type": "PRES_AUD", "word": "cattle", "wordID": 260, "conditions": [18, 1200, "a", 18000], "trial": 1, "serialpos": 4, "trial_type": "single-audio", "trial_index": 59, "time_elapsed": 572819, "internal_node_id": "0.0-41.0"}}, {"uniqueid": "MTK1079:3WI0P0II62ZMFI65FN6EVY5B5A6DRA", "current_trial": 60, "dateTime": 1513098234592, "trialdata": {"rt": -1000, "stimulus": "/static/audio/wordpool/HIKER.wav", "key_press": -1, "type": "PRES_AUD", "word": "hiker", "wordID": 707, "conditions": [18, 1200, "a", 18000], "trial": 1, "serialpos": 5, "trial_type": "single-audio", "trial_index": 60, "time_elapsed": 574927, "internal_node_id": "0.0-42.0"}}, {"uniqueid": "MTK1079:3WI0P0II62ZMFI65FN6EVY5B5A6DRA", "current_trial": 61, "dateTime": 1513098236891, "trialdata": {"rt": -1000, "stimulus": "/static/audio/wordpool/ACTRESS.wav", "key_press": -1, "type": "PRES_AUD", "word": "actress", "wordID": 5, "conditions": [18, 1200, "a", 18000], "trial": 1, "serialpos": 6, "trial_type": "single-audio", "trial_index": 61, "time_elapsed": 577226, "internal_node_id": "0.0-43.0"}}, {"uniqueid": "MTK1079:3WI0P0II62ZMFI65FN6EVY5B5A6DRA", "current_trial": 62, "dateTime": 1513098238967, "trialdata": {"rt": -1000, "stimulus": "/static/audio/wordpool/PICNIC.wav", "key_press": -1, "type": "PRES_AUD", "word": "picnic", "wordID": 1059, "conditions": [18, 1200, "a", 18000], "trial": 1, "serialpos": 7, "trial_type": "single-audio", "trial_index": 62, "time_elapsed": 579302, "internal_node_id": "0.0-44.0"}}, {"uniqueid": "MTK1079:3WI0P0II62ZMFI65FN6EVY5B5A6DRA", "current_trial": 63, "dateTime": 1513098241180, "trialdata": {"rt": -1000, "stimulus": "/static/audio/wordpool/MARINE.wav", "key_press": -1, "type": "PRES_AUD", "word": "marine", "wordID": 868, "conditions": [18, 1200, "a", 18000], "trial": 1, "serialpos": 8, "trial_type": "single-audio", "trial_index": 63, "time_elapsed": 581514, "internal_node_id": "0.0-45.0"}}, {"uniqueid": "MTK1079:3WI0P0II62ZMFI65FN6EVY5B5A6DRA", "current_trial": 64, "dateTime": 1513098243534, "trialdata": {"rt": -1000, "stimulus": "/static/audio/wordpool/INFANT.wav", "key_press": -1, "type": "PRES_AUD", "word": "infant", "wordID": 736, "conditions": [18, 1200, "a", 18000], "trial": 1, "serialpos": 9, "trial_type": "single-audio", "trial_index": 64, "time_elapsed": 583869, "internal_node_id": "0.0-46.0"}}, {"uniqueid": "MTK1079:3WI0P0II62ZMFI65FN6EVY5B5A6DRA", "current_trial": 65, "dateTime": 1513098245642, "trialdata": {"rt": -1000, "stimulus": "/static/audio/wordpool/POISON.wav", "key_press": -1, "type": "PRES_AUD", "word": "poison", "wordID": 1095, "conditions": [18, 1200, "a", 18000], "trial": 1, "serialpos": 10, "trial_type": "single-audio", "trial_index": 65, "time_elapsed": 585977, "internal_node_id": "0.0-47.0"}}, {"uniqueid": "MTK1079:3WI0P0II62ZMFI65FN6EVY5B5A6DRA", "current_trial": 66, "dateTime": 1513098247986, "trialdata": {"rt": -1000, "stimulus": "/static/audio/wordpool/CASHEW.wav", "key_press": -1, "type": "PRES_AUD", "word": "cashew", "wordID": 252, "conditions": [18, 1200, "a", 18000], "trial": 1, "serialpos": 11, "trial_type": "single-audio", "trial_index": 66, "time_elapsed": 588321, "internal_node_id": "0.0-48.0"}}, {"uniqueid": "MTK1079:3WI0P0II62ZMFI65FN6EVY5B5A6DRA", "current_trial": 67, "dateTime": 1513098250162, "trialdata": {"rt": -1000, "stimulus": "/static/audio/wordpool/HORNET.wav", "key_press": -1, "type": "PRES_AUD", "word": "hornet", "wordID": 717, "conditions": [18, 1200, "a", 18000], "trial": 1, "serialpos": 12, "trial_type": "single-audio", "trial_index": 67, "time_elapsed": 590497, "internal_node_id": "0.0-49.0"}}, {"uniqueid": "MTK1079:3WI0P0II62ZMFI65FN6EVY5B5A6DRA", "current_trial": 68, "dateTime": 1513098252332, "trialdata": {"rt": -1000, "stimulus": "/static/audio/wordpool/ATLAS.wav", "key_press": -1, "type": "PRES_AUD", "word": "atlas", "wordID": 52, "conditions": [18, 1200, "a", 18000], "trial": 1, "serialpos": 13, "trial_type": "single-audio", "trial_index": 68, "time_elapsed": 592666, "internal_node_id": "0.0-50.0"}}, {"uniqueid": "MTK1079:3WI0P0II62ZMFI65FN6EVY5B5A6DRA", "current_trial": 69, "dateTime": 1513098254360, "trialdata": {"rt": -1000, "stimulus": "/static/audio/wordpool/SPHINX.wav", "key_press": -1, "type": "PRES_AUD", "word": "sphinx", "wordID": 1348, "conditions": [18, 1200, "a", 18000], "trial": 1, "serialpos": 14, "trial_type": "single-audio", "trial_index": 69, "time_elapsed": 594695, "internal_node_id": "0.0-51.0"}}, {"uniqueid": "MTK1079:3WI0P0II62ZMFI65FN6EVY5B5A6DRA", "current_trial": 70, "dateTime": 1513098256658, "trialdata": {"rt": -1000, "stimulus": "/static/audio/wordpool/BLADE.wav", "key_press": -1, "type": "PRES_AUD", "word": "blade", "wordID": 133, "conditions": [18, 1200, "a", 18000], "trial": 1, "serialpos": 15, "trial_type": "single-audio", "trial_index": 70, "time_elapsed": 596993, "internal_node_id": "0.0-52.0"}}, {"uniqueid": "MTK1079:3WI0P0II62ZMFI65FN6EVY5B5A6DRA", "current_trial": 71, "dateTime": 1513098258948, "trialdata": {"rt": -1000, "stimulus": "/static/audio/wordpool/BACON.wav", "key_press": -1, "type": "PRES_AUD", "word": "bacon", "wordID": 66, "conditions": [18, 1200, "a", 18000], "trial": 1, "serialpos": 16, "trial_type": "single-audio", "trial_index": 71, "time_elapsed": 599283, "internal_node_id": "0.0-53.0"}}, {"uniqueid": "MTK1079:3WI0P0II62ZMFI65FN6EVY5B5A6DRA", "current_trial": 72, "dateTime": 1513098261314, "trialdata": {"rt": -1000, "stimulus": "/static/audio/wordpool/FILM.wav", "key_press": -1, "type": "PRES_AUD", "word": "film", "wordID": 564, "conditions": [18, 1200, "a", 18000], "trial": 1, "serialpos": 17, "trial_type": "single-audio", "trial_index": 72, "time_elapsed": 601649, "internal_node_id": "0.0-54.0"}}, {"uniqueid": "MTK1079:3WI0P0II62ZMFI65FN6EVY5B5A6DRA", "current_trial": 73, "dateTime": 1513098262617, "trialdata": {"rt": -1, "stimulus": "", "key_press": -1, "type": "PRE_RECALL_DELAY", "trial_type": "single-stim", "trial_index": 73, "time_elapsed": 602951, "internal_node_id": "0.0-55.0-0.0"}}, {"uniqueid": "MTK1079:3WI0P0II62ZMFI65FN6EVY5B5A6DRA", "current_trial": 74, "dateTime": 1513098263118, "trialdata": {"rt": -1000, "stimulus": "/static/audio/400Hz.wav", "key_press": -1, "type": "PRE_RECALL_ALERT", "trial_type": "single-audio", "trial_index": 74, "time_elapsed": 603453, "internal_node_id": "0.0-56.0"}}, {"uniqueid": "MTK1079:3WI0P0II62ZMFI65FN6EVY5B5A6DRA", "current_trial": 75, "dateTime": 1513098323121, "trialdata": {"rt": [4606, 6579, 8755, 10743, 12523, 14547, 17018], "recwords": ["cousin", "silk", "seafood", "police", "infant", "poison", "film"], "type": "FREE_RECALL", "conditions": [18, 1200, "a", 18000], "trial": 1, "trial_type": "free-recall", "trial_index": 75, "time_elapsed": 663454, "internal_node_id": "0.0-57.0-0.0"}}, {"uniqueid": "MTK1079:3WI0P0II62ZMFI65FN6EVY5B5A6DRA", "current_trial": 76, "dateTime": 1513098329022, "trialdata": {"rt": 3898, "key_press": 32, "type": "INSTRUCTIONS", "trial_type": "text", "trial_index": 76, "time_elapsed": 669354, "internal_node_id": "0.0-58.0"}}, {"uniqueid": "MTK1079:3WI0P0II62ZMFI65FN6EVY5B5A6DRA", "current_trial": 77, "dateTime": 1513098342023, "trialdata": {"rt": [2520, 5714, 7935, 9262, 11175], "responses": ["16", "21", "18", "3", "14"], "num1": [2, 4, 3, 1, 4, 4], "num2": [6, 9, 8, 1, 5, 8], "num3": [8, 8, 7, 1, 5, 5], "type": "DISTRACTOR", "conditions": [12, 800, "v", 12000], "trial": 2, "trial_type": "math-distractor", "trial_index": 77, "time_elapsed": 682358, "internal_node_id": "0.0-59.0"}}, {"uniqueid": "MTK1079:3WI0P0II62ZMFI65FN6EVY5B5A6DRA", "current_trial": 78, "dateTime": 1513098345024, "trialdata": {"rt": -1, "stimulus": "<p id=\"stim\">10</p>", "key_press": -1, "trial_type": "single-stim", "trial_index": 78, "time_elapsed": 685359, "internal_node_id": "0.0-60.0-0.0"}}, {"uniqueid": "MTK1079:3WI0P0II62ZMFI65FN6EVY5B5A6DRA", "current_trial": 79, "dateTime": 1513098346025, "trialdata": {"rt": -1, "stimulus": "<p id=\"stim\">9</p>", "key_press": -1, "trial_type": "single-stim", "trial_index": 79, "time_elapsed": 686360, "internal_node_id": "0.0-60.0-1.0"}}, {"uniqueid": "MTK1079:3WI0P0II62ZMFI65FN6EVY5B5A6DRA", "current_trial": 80, "dateTime": 1513098347025, "trialdata": {"rt": -1, "stimulus": "<p id=\"stim\">8</p>", "key_press": -1, "trial_type": "single-stim", "trial_index": 80, "time_elapsed": 687360, "internal_node_id": "0.0-60.0-2.0"}}, {"uniqueid": "MTK1079:3WI0P0II62ZMFI65FN6EVY5B5A6DRA", "current_trial": 81, "dateTime": 1513098348026, "trialdata": {"rt": -1, "stimulus": "<p id=\"stim\">7</p>", "key_press": -1, "trial_type": "single-stim", "trial_index": 81, "time_elapsed": 688361, "internal_node_id": "0.0-60.0-3.0"}}, {"uniqueid": "MTK1079:3WI0P0II62ZMFI65FN6EVY5B5A6DRA", "current_trial": 82, "dateTime": 1513098349027, "trialdata": {"rt": -1, "stimulus": "<p id=\"stim\">6</p>", "key_press": -1, "trial_type": "single-stim", "trial_index": 82, "time_elapsed": 689362, "internal_node_id": "0.0-60.0-4.0"}}, {"uniqueid": "MTK1079:3WI0P0II62ZMFI65FN6EVY5B5A6DRA", "current_trial": 83, "dateTime": 1513098350028, "trialdata": {"rt": -1, "stimulus": "<p id=\"stim\">5</p>", "key_press": -1, "trial_type": "single-stim", "trial_index": 83, "time_elapsed": 690363, "internal_node_id": "0.0-60.0-5.0"}}, {"uniqueid": "MTK1079:3WI0P0II62ZMFI65FN6EVY5B5A6DRA", "current_trial": 84, "dateTime": 1513098351029, "trialdata": {"rt": -1, "stimulus": "<p id=\"stim\">4</p>", "key_press": -1, "trial_type": "single-stim", "trial_index": 84, "time_elapsed": 691364, "internal_node_id": "0.0-60.0-6.0"}}, {"uniqueid": "MTK1079:3WI0P0II62ZMFI65FN6EVY5B5A6DRA", "current_trial": 85, "dateTime": 1513098352030, "trialdata": {"rt": -1, "stimulus": "<p id=\"stim\">3</p>", "key_press": -1, "trial_type": "single-stim", "trial_index": 85, "time_elapsed": 692365, "internal_node_id": "0.0-60.0-7.0"}}, {"uniqueid": "MTK1079:3WI0P0II62ZMFI65FN6EVY5B5A6DRA", "current_trial": 86, "dateTime": 1513098353031, "trialdata": {"rt": -1, "stimulus": "<p id=\"stim\">2</p>", "key_press": -1, "trial_type": "single-stim", "trial_index": 86, "time_elapsed": 693366, "internal_node_id": "0.0-60.0-8.0"}}, {"uniqueid": "MTK1079:3WI0P0II62ZMFI65FN6EVY5B5A6DRA", "current_trial": 87, "dateTime": 1513098354031, "trialdata": {"rt": -1, "stimulus": "<p id=\"stim\">1</p>", "key_press": -1, "trial_type": "single-stim", "trial_index": 87, "time_elapsed": 694366, "internal_node_id": "0.0-60.0-9.0"}}, {"uniqueid": "MTK1079:3WI0P0II62ZMFI65FN6EVY5B5A6DRA", "current_trial": 88, "dateTime": 1513098355532, "trialdata": {"rt": -1, "stimulus": "<p id=\"stim\">+</p>", "key_press": -1, "type": "FIXATION", "trial_type": "single-stim", "trial_index": 88, "time_elapsed": 695866, "internal_node_id": "0.0-61.0-0.0"}}, {"uniqueid": "MTK1079:3WI0P0II62ZMFI65FN6EVY5B5A6DRA", "current_trial": 89, "dateTime": 1513098356333, "trialdata": {"rt": -1, "stimulus": "<p id=\"stim\">TYPIST</p>", "key_press": -1, "type": "PRES_VIS", "word": "typist", "wordID": 1531, "conditions": [12, 800, "v", 12000], "trial": 2, "serialpos": 0, "trial_type": "single-stim", "trial_index": 89, "time_elapsed": 696668, "internal_node_id": "0.0-62.0"}}, {"uniqueid": "MTK1079:3WI0P0II62ZMFI65FN6EVY5B5A6DRA", "current_trial": 90, "dateTime": 1513098358063, "trialdata": {"rt": -1, "stimulus": "<p id=\"stim\">MONSTER</p>", "key_press": -1, "type": "PRES_VIS", "word": "monster", "wordID": 911, "conditions": [12, 800, "v", 12000], "trial": 2, "serialpos": 1, "trial_type": "single-stim", "trial_index": 90, "time_elapsed": 698398, "internal_node_id": "0.0-63.0"}}, {"uniqueid": "MTK1079:3WI0P0II62ZMFI65FN6EVY5B5A6DRA", "current_trial": 91, "dateTime": 1513098360046, "trialdata": {"rt": -1, "stimulus": "<p id=\"stim\">DOUGHNUT</p>", "key_press": -1, "type": "PRES_VIS", "word": "doughnut", "wordID": 489, "conditions": [12, 800, "v", 12000], "trial": 2, "serialpos": 2, "trial_type": "single-stim", "trial_index": 91, "time_elapsed": 700381, "internal_node_id": "0.0-64.0"}}, {"uniqueid": "MTK1079:3WI0P0II62ZMFI65FN6EVY5B5A6DRA", "current_trial": 92, "dateTime": 1513098362012, "trialdata": {"rt": -1, "stimulus": "<p id=\"stim\">FLOWER</p>", "key_press": -1, "type": "PRES_VIS", "word": "flower", "wordID": 583, "conditions": [12, 800, "v", 12000], "trial": 2, "serialpos": 3, "trial_type": "single-stim", "trial_index": 92, "time_elapsed": 702347, "internal_node_id": "0.0-65.0"}}, {"uniqueid": "MTK1079:3WI0P0II62ZMFI65FN6EVY5B5A6DRA", "current_trial": 93, "dateTime": 1513098363720, "trialdata": {"rt": -1, "stimulus": "<p id=\"stim\">FRUIT</p>", "key_press": -1, "type": "PRES_VIS", "word": "fruit", "wordID": 609, "conditions": [12, 800, "v", 12000], "trial": 2, "serialpos": 4, "trial_type": "single-stim", "trial_index": 93, "time_elapsed": 704055, "internal_node_id": "0.0-66.0"}}, {"uniqueid": "MTK1079:3WI0P0II62ZMFI65FN6EVY5B5A6DRA", "current_trial": 94, "dateTime": 1513098365354, "trialdata": {"rt": -1, "stimulus": "<p id=\"stim\">CLIMBER</p>", "key_press": -1, "type": "PRES_VIS", "word": "climber", "wordID": 322, "conditions": [12, 800, "v", 12000], "trial": 2, "serialpos": 5, "trial_type": "single-stim", "trial_index": 94, "time_elapsed": 705688, "internal_node_id": "0.0-67.0"}}, {"uniqueid": "MTK1079:3WI0P0II62ZMFI65FN6EVY5B5A6DRA", "current_trial": 95, "dateTime": 1513098366962, "trialdata": {"rt": -1, "stimulus": "<p id=\"stim\">CABBAGE</p>", "key_press": -1, "type": "PRES_VIS", "word": "cabbage", "wordID": 209, "conditions": [12, 800, "v", 12000], "trial": 2, "serialpos": 6, "trial_type": "single-stim", "trial_index": 95, "time_elapsed": 707297, "internal_node_id": "0.0-68.0"}}, {"uniqueid": "MTK1079:3WI0P0II62ZMFI65FN6EVY5B5A6DRA", "current_trial": 96, "dateTime": 1513098368778, "trialdata": {"rt": -1, "stimulus": "<p id=\"stim\">GRAPE</p>", "key_press": -1, "type": "PRES_VIS", "word": "grape", "wordID": 653, "conditions": [12, 800, "v", 12000], "trial": 2, "serialpos": 7, "trial_type": "single-stim", "trial_index": 96, "time_elapsed": 709113, "internal_node_id": "0.0-69.0"}}, {"uniqueid": "MTK1079:3WI0P0II62ZMFI65FN6EVY5B5A6DRA", "current_trial": 97, "dateTime": 1513098370539, "trialdata": {"rt": -1, "stimulus": "<p id=\"stim\">DASHBOARD</p>", "key_press": -1, "type": "PRES_VIS", "word": "dashboard", "wordID": 440, "conditions": [12, 800, "v", 12000], "trial": 2, "serialpos": 8, "trial_type": "single-stim", "trial_index": 97, "time_elapsed": 710874, "internal_node_id": "0.0-70.0"}}, {"uniqueid": "MTK1079:3WI0P0II62ZMFI65FN6EVY5B5A6DRA", "current_trial": 98, "dateTime": 1513098372189, "trialdata": {"rt": -1, "stimulus": "<p id=\"stim\">BARREL</p>", "key_press": -1, "type": "PRES_VIS", "word": "barrel", "wordID": 90, "conditions": [12, 800, "v", 12000], "trial": 2, "serialpos": 9, "trial_type": "single-stim", "trial_index": 98, "time_elapsed": 712524, "internal_node_id": "0.0-71.0"}}, {"uniqueid": "MTK1079:3WI0P0II62ZMFI65FN6EVY5B5A6DRA", "current_trial": 99, "dateTime": 1513098373956, "trialdata": {"rt": -1, "stimulus": "<p id=\"stim\">SUMMIT</p>", "key_press": -1, "type": "PRES_VIS", "word": "summit", "wordID": 1404, "conditions": [12, 800, "v", 12000], "trial": 2, "serialpos": 10, "trial_type": "single-stim", "trial_index": 99, "time_elapsed": 714291, "internal_node_id": "0.0-72.0"}}, {"uniqueid": "MTK1079:3WI0P0II62ZMFI65FN6EVY5B5A6DRA", "current_trial": 100, "dateTime": 1513098375851, "trialdata": {"rt": -1, "stimulus": "<p id=\"stim\">BARLEY</p>", "key_press": -1, "type": "PRES_VIS", "word": "barley", "wordID": 87, "conditions": [12, 800, "v", 12000], "trial": 2, "serialpos": 11, "trial_type": "single-stim", "trial_index": 100, "time_elapsed": 716186, "internal_node_id": "0.0-73.0"}}, {"uniqueid": "MTK1079:3WI0P0II62ZMFI65FN6EVY5B5A6DRA", "current_trial": 101, "dateTime": 1513098378179, "trialdata": {"rt": -1, "stimulus": "", "key_press": -1, "type": "PRE_RECALL_DELAY", "trial_type": "single-stim", "trial_index": 101, "time_elapsed": 718514, "internal_node_id": "0.0-74.0-0.0"}}, {"uniqueid": "MTK1079:3WI0P0II62ZMFI65FN6EVY5B5A6DRA", "current_trial": 102, "dateTime": 1513098378680, "trialdata": {"rt": -1000, "stimulus": "/static/audio/400Hz.wav", "key_press": -1, "type": "PRE_RECALL_ALERT", "trial_type": "single-audio", "trial_index": 102, "time_elapsed": 719014, "internal_node_id": "0.0-75.0"}}, {"uniqueid": "MTK1079:3WI0P0II62ZMFI65FN6EVY5B5A6DRA", "current_trial": 103, "dateTime": 1513098438683, "trialdata": {"rt": [2831, 4979, 6751, 8874], "recwords": ["typist", "monster", "doughnut", "summit"], "type": "FREE_RECALL", "conditions": [12, 800, "v", 12000], "trial": 2, "trial_type": "free-recall", "trial_index": 103, "time_elapsed": 779016, "internal_node_id": "0.0-76.0-0.0"}}, {"uniqueid": "MTK1079:3WI0P0II62ZMFI65FN6EVY5B5A6DRA", "current_trial": 104, "dateTime": 1513098441948, "trialdata": {"rt": 1264, "key_press": 32, "type": "INSTRUCTIONS", "trial_type": "text", "trial_index": 104, "time_elapsed": 782283, "internal_node_id": "0.0-77.0"}}, {"uniqueid": "MTK1079:3WI0P0II62ZMFI65FN6EVY5B5A6DRA", "current_trial": 105, "dateTime": 1513098455949, "trialdata": {"rt": [2359, 4775, 7014, 8694, 9811, 11455], "responses": ["16", "23", "19", "15", "3", "12"], "num1": [4, 9, 6, 5, 1, 2, 9], "num2": [6, 8, 7, 8, 1, 5, 8], "num3": [6, 6, 6, 2, 1, 5, 9], "type": "DISTRACTOR", "conditions": [12, 1600, "v", 12000], "trial": 3, "trial_type": "math-distractor", "trial_index": 105, "time_elapsed": 796284, "internal_node_id": "0.0-78.0"}}, {"uniqueid": "MTK1079:3WI0P0II62ZMFI65FN6EVY5B5A6DRA", "current_trial": 106, "dateTime": 1513098458952, "trialdata": {"rt": -1, "stimulus": "<p id=\"stim\">10</p>", "key_press": -1, "trial_type": "single-stim", "trial_index": 106, "time_elapsed": 799287, "internal_node_id": "0.0-79.0-0.0"}}, {"uniqueid": "MTK1079:3WI0P0II62ZMFI65FN6EVY5B5A6DRA", "current_trial": 107, "dateTime": 1513098459953, "trialdata": {"rt": -1, "stimulus": "<p id=\"stim\">9</p>", "key_press": -1, "trial_type": "single-stim", "trial_index": 107, "time_elapsed": 800288, "internal_node_id": "0.0-79.0-1.0"}}, {"uniqueid": "MTK1079:3WI0P0II62ZMFI65FN6EVY5B5A6DRA", "current_trial": 108, "dateTime": 1513098460954, "trialdata": {"rt": -1, "stimulus": "<p id=\"stim\">8</p>", "key_press": -1, "trial_type": "single-stim", "trial_index": 108, "time_elapsed": 801289, "internal_node_id": "0.0-79.0-2.0"}}, {"uniqueid": "MTK1079:3WI0P0II62ZMFI65FN6EVY5B5A6DRA", "current_trial": 109, "dateTime": 1513098461955, "trialdata": {"rt": -1, "stimulus": "<p id=\"stim\">7</p>", "key_press": -1, "trial_type": "single-stim", "trial_index": 109, "time_elapsed": 802290, "internal_node_id": "0.0-79.0-3.0"}}, {"uniqueid": "MTK1079:3WI0P0II62ZMFI65FN6EVY5B5A6DRA", "current_trial": 110, "dateTime": 1513098462956, "trialdata": {"rt": -1, "stimulus": "<p id=\"stim\">6</p>", "key_press": -1, "trial_type": "single-stim", "trial_index": 110, "time_elapsed": 803291, "internal_node_id": "0.0-79.0-4.0"}}, {"uniqueid": "MTK1079:3WI0P0II62ZMFI65FN6EVY5B5A6DRA", "current_trial": 111, "dateTime": 1513098463957, "trialdata": {"rt": -1, "stimulus": "<p id=\"stim\">5</p>", "key_press": -1, "trial_type": "single-stim", "trial_index": 111, "time_elapsed": 804292, "internal_node_id": "0.0-79.0-5.0"}}, {"uniqueid": "MTK1079:3WI0P0II62ZMFI65FN6EVY5B5A6DRA", "current_trial": 112, "dateTime": 1513098464958, "trialdata": {"rt": -1, "stimulus": "<p id=\"stim\">4</p>", "key_press": -1, "trial_type": "single-stim", "trial_index": 112, "time_elapsed": 805293, "internal_node_id": "0.0-79.0-6.0"}}, {"uniqueid": "MTK1079:3WI0P0II62ZMFI65FN6EVY5B5A6DRA", "current_trial": 113, "dateTime": 1513098465958, "trialdata": {"rt": -1, "stimulus": "<p id=\"stim\">3</p>", "key_press": -1, "trial_type": "single-stim", "trial_index": 113, "time_elapsed": 806293, "internal_node_id": "0.0-79.0-7.0"}}, {"uniqueid": "MTK1079:3WI0P0II62ZMFI65FN6EVY5B5A6DRA", "current_trial": 114, "dateTime": 1513098466958, "trialdata": {"rt": -1, "stimulus": "<p id=\"stim\">2</p>", "key_press": -1, "trial_type": "single-stim", "trial_index": 114, "time_elapsed": 807293, "internal_node_id": "0.0-79.0-8.0"}}, {"uniqueid": "MTK1079:3WI0P0II62ZMFI65FN6EVY5B5A6DRA", "current_trial": 115, "dateTime": 1513098467959, "trialdata": {"rt": -1, "stimulus": "<p id=\"stim\">1</p>", "key_press": -1, "trial_type": "single-stim", "trial_index": 115, "time_elapsed": 808294, "internal_node_id": "0.0-79.0-9.0"}}, {"uniqueid": "MTK1079:3WI0P0II62ZMFI65FN6EVY5B5A6DRA", "current_trial": 116, "dateTime": 1513098469460, "trialdata": {"rt": -1, "stimulus": "<p id=\"stim\">+</p>", "key_press": -1, "type": "FIXATION", "trial_type": "single-stim", "trial_index": 116, "time_elapsed": 809795, "internal_node_id": "0.0-80.0-0.0"}}, {"uniqueid": "MTK1079:3WI0P0II62ZMFI65FN6EVY5B5A6DRA", "current_trial": 117, "dateTime": 1513098471061, "trialdata": {"rt": -1, "stimulus": "<p id=\"stim\">SKETCH</p>", "key_press": -1, "type": "PRES_VIS", "word": "sketch", "wordID": 1314, "conditions": [12, 1600, "v", 12000], "trial": 3, "serialpos": 0, "trial_type": "single-stim", "trial_index": 117, "time_elapsed": 811396, "internal_node_id": "0.0-81.0"}}, {"uniqueid": "MTK1079:3WI0P0II62ZMFI65FN6EVY5B5A6DRA", "current_trial": 118, "dateTime": 1513098473609, "trialdata": {"rt": -1, "stimulus": "<p id=\"stim\">PICTURE</p>", "key_press": -1, "type": "PRES_VIS", "word": "picture", "wordID": 1060, "conditions": [12, 1600, "v", 12000], "trial": 3, "serialpos": 1, "trial_type": "single-stim", "trial_index": 118, "time_elapsed": 813940, "internal_node_id": "0.0-82.0"}}, {"uniqueid": "MTK1079:3WI0P0II62ZMFI65FN6EVY5B5A6DRA", "current_trial": 119, "dateTime": 1513098476314, "trialdata": {"rt": -1, "stimulus": "<p id=\"stim\">PORTRAIT</p>", "key_press": -1, "type": "PRES_VIS", "word": "portrait", "wordID": 1110, "conditions": [12, 1600, "v", 12000], "trial": 3, "serialpos": 2, "trial_type": "single-stim", "trial_index": 119, "time_elapsed": 816649, "internal_node_id": "0.0-83.0"}}, {"uniqueid": "MTK1079:3WI0P0II62ZMFI65FN6EVY5B5A6DRA", "current_trial": 120, "dateTime": 1513098479003, "trialdata": {"rt": -1, "stimulus": "<p id=\"stim\">GARDEN</p>", "key_press": -1, "type": "PRES_VIS", "word": "garden", "wordID": 622, "conditions": [12, 1600, "v", 12000], "trial": 3, "serialpos": 3, "trial_type": "single-stim", "trial_index": 120, "time_elapsed": 819338, "internal_node_id": "0.0-84.0"}}, {"uniqueid": "MTK1079:3WI0P0II62ZMFI65FN6EVY5B5A6DRA", "current_trial": 121, "dateTime": 1513098481694, "trialdata": {"rt": -1, "stimulus": "<p id=\"stim\">CROWN</p>", "key_press": -1, "type": "PRES_VIS", "word": "crown", "wordID": 414, "conditions": [12, 1600, "v", 12000], "trial": 3, "serialpos": 4, "trial_type": "single-stim", "trial_index": 121, "time_elapsed": 822029, "internal_node_id": "0.0-85.0"}}, {"uniqueid": "MTK1079:3WI0P0II62ZMFI65FN6EVY5B5A6DRA", "current_trial": 122, "dateTime": 1513098484108, "trialdata": {"rt": -1, "stimulus": "<p id=\"stim\">ORCHID</p>", "key_press": -1, "type": "PRES_VIS", "word": "orchid", "wordID": 981, "conditions": [12, 1600, "v", 12000], "trial": 3, "serialpos": 5, "trial_type": "single-stim", "trial_index": 122, "time_elapsed": 824443, "internal_node_id": "0.0-86.0"}}, {"uniqueid": "MTK1079:3WI0P0II62ZMFI65FN6EVY5B5A6DRA", "current_trial": 123, "dateTime": 1513098486544, "trialdata": {"rt": -1, "stimulus": "<p id=\"stim\">SNACK</p>", "key_press": -1, "type": "PRES_VIS", "word": "snack", "wordID": 1330, "conditions": [12, 1600, "v", 12000], "trial": 3, "serialpos": 6, "trial_type": "single-stim", "trial_index": 123, "time_elapsed": 826879, "internal_node_id": "0.0-87.0"}}, {"uniqueid": "MTK1079:3WI0P0II62ZMFI65FN6EVY5B5A6DRA", "current_trial": 124, "dateTime": 1513098489030, "trialdata": {"rt": -1, "stimulus": "<p id=\"stim\">GANGSTER</p>", "key_press": -1, "type": "PRES_VIS", "word": "gangster", "wordID": 619, "conditions": [12, 1600, "v", 12000], "trial": 3, "serialpos": 7, "trial_type": "single-stim", "trial_index": 124, "time_elapsed": 829365, "internal_node_id": "0.0-88.0"}}, {"uniqueid": "MTK1079:3WI0P0II62ZMFI65FN6EVY5B5A6DRA", "current_trial": 125, "dateTime": 1513098491695, "trialdata": {"rt": -1, "stimulus": "<p id=\"stim\">PANTHER</p>", "key_press": -1, "type": "PRES_VIS", "word": "panther", "wordID": 1008, "conditions": [12, 1600, "v", 12000], "trial": 3, "serialpos": 8, "trial_type": "single-stim", "trial_index": 125, "time_elapsed": 832030, "internal_node_id": "0.0-89.0"}}, {"uniqueid": "MTK1079:3WI0P0II62ZMFI65FN6EVY5B5A6DRA", "current_trial": 126, "dateTime": 1513098494115, "trialdata": {"rt": -1, "stimulus": "<p id=\"stim\">LETTUCE</p>", "key_press": -1, "type": "PRES_VIS", "word": "lettuce", "wordID": 813, "conditions": [12, 1600, "v", 12000], "trial": 3, "serialpos": 9, "trial_type": "single-stim", "trial_index": 126, "time_elapsed": 834450, "internal_node_id": "0.0-90.0"}}, {"uniqueid": "MTK1079:3WI0P0II62ZMFI65FN6EVY5B5A6DRA", "current_trial": 127, "dateTime": 1513098496551, "trialdata": {"rt": -1, "stimulus": "<p id=\"stim\">MUFFIN</p>", "key_press": -1, "type": "PRES_VIS", "word": "muffin", "wordID": 928, "conditions": [12, 1600, "v", 12000], "trial": 3, "serialpos": 10, "trial_type": "single-stim", "trial_index": 127, "time_elapsed": 836886, "internal_node_id": "0.0-91.0"}}, {"uniqueid": "MTK1079:3WI0P0II62ZMFI65FN6EVY5B5A6DRA", "current_trial": 128, "dateTime": 1513098499276, "trialdata": {"rt": -1, "stimulus": "<p id=\"stim\">CASHIER</p>", "key_press": -1, "type": "PRES_VIS", "word": "cashier", "wordID": 253, "conditions": [12, 1600, "v", 12000], "trial": 3, "serialpos": 11, "trial_type": "single-stim", "trial_index": 128, "time_elapsed": 839611, "internal_node_id": "0.0-92.0"}}, {"uniqueid": "MTK1079:3WI0P0II62ZMFI65FN6EVY5B5A6DRA", "current_trial": 129, "dateTime": 1513098501462, "trialdata": {"rt": -1, "stimulus": "", "key_press": -1, "type": "PRE_RECALL_DELAY", "trial_type": "single-stim", "trial_index": 129, "time_elapsed": 841797, "internal_node_id": "0.0-93.0-0.0"}}, {"uniqueid": "MTK1079:3WI0P0II62ZMFI65FN6EVY5B5A6DRA", "current_trial": 130, "dateTime": 1513098501963, "trialdata": {"rt": -1000, "stimulus": "/static/audio/400Hz.wav", "key_press": -1, "type": "PRE_RECALL_ALERT", "trial_type": "single-audio", "trial_index": 130, "time_elapsed": 842298, "internal_node_id": "0.0-94.0"}}, {"uniqueid": "MTK1079:3WI0P0II62ZMFI65FN6EVY5B5A6DRA", "current_trial": 131, "dateTime": 1513098561966, "trialdata": {"rt": [6617, 8801, 12784, 16956, 20496, 23368], "recwords": ["sketch", "picture", "portrait", "muffin", "cashier", "lettuce"], "type": "FREE_RECALL", "conditions": [12, 1600, "v", 12000], "trial": 3, "trial_type": "free-recall", "trial_index": 131, "time_elapsed": 902299, "internal_node_id": "0.0-95.0-0.0"}}, {"uniqueid": "MTK1079:3WI0P0II62ZMFI65FN6EVY5B5A6DRA", "current_trial": 132, "dateTime": 1513098566641, "trialdata": {"rt": 2675, "key_press": 32, "type": "INSTRUCTIONS", "trial_type": "text", "trial_index": 132, "time_elapsed": 906976, "internal_node_id": "0.0-96.0"}}, {"uniqueid": "MTK1079:3WI0P0II62ZMFI65FN6EVY5B5A6DRA", "current_trial": 133, "dateTime": 1513098592642, "trialdata": {"rt": [1855, 3611, 5639, 7294, 10115, 12854, 14891, 17077, 19586, 21329, 23542], "responses": ["14", "15", "14", "15", "25", "17", "20", "24", "14", "12", "13"], "num1": [4, 8, 1, 7, 8, 5, 4, 8, 7, 2, 6, 4], "num2": [9, 4, 8, 6, 8, 8, 9, 8, 4, 8, 2, 5], "num3": [1, 3, 5, 2, 9, 4, 7, 8, 3, 2, 5, 2], "type": "DISTRACTOR", "conditions": [12, 800, "a", 24000], "trial": 4, "trial_type": "math-distractor", "trial_index": 133, "time_elapsed": 932977, "internal_node_id": "0.0-97.0"}}, {"uniqueid": "MTK1079:3WI0P0II62ZMFI65FN6EVY5B5A6DRA", "current_trial": 134, "dateTime": 1513098595643, "trialdata": {"rt": -1, "stimulus": "<p id=\"stim\">10</p>", "key_press": -1, "trial_type": "single-stim", "trial_index": 134, "time_elapsed": 935978, "internal_node_id": "0.0-98.0-0.0"}}, {"uniqueid": "MTK1079:3WI0P0II62ZMFI65FN6EVY5B5A6DRA", "current_trial": 135, "dateTime": 1513098596644, "trialdata": {"rt": -1, "stimulus": "<p id=\"stim\">9</p>", "key_press": -1, "trial_type": "single-stim", "trial_index": 135, "time_elapsed": 936978, "internal_node_id": "0.0-98.0-1.0"}}, {"uniqueid": "MTK1079:3WI0P0II62ZMFI65FN6EVY5B5A6DRA", "current_trial": 136, "dateTime": 1513098597644, "trialdata": {"rt": -1, "stimulus": "<p id=\"stim\">8</p>", "key_press": -1, "trial_type": "single-stim", "trial_index": 136, "time_elapsed": 937979, "internal_node_id": "0.0-98.0-2.0"}}, {"uniqueid": "MTK1079:3WI0P0II62ZMFI65FN6EVY5B5A6DRA", "current_trial": 137, "dateTime": 1513098598646, "trialdata": {"rt": -1, "stimulus": "<p id=\"stim\">7</p>", "key_press": -1, "trial_type": "single-stim", "trial_index": 137, "time_elapsed": 938981, "internal_node_id": "0.0-98.0-3.0"}}, {"uniqueid": "MTK1079:3WI0P0II62ZMFI65FN6EVY5B5A6DRA", "current_trial": 138, "dateTime": 1513098599646, "trialdata": {"rt": -1, "stimulus": "<p id=\"stim\">6</p>", "key_press": -1, "trial_type": "single-stim", "trial_index": 138, "time_elapsed": 939981, "internal_node_id": "0.0-98.0-4.0"}}, {"uniqueid": "MTK1079:3WI0P0II62ZMFI65FN6EVY5B5A6DRA", "current_trial": 139, "dateTime": 1513098600646, "trialdata": {"rt": -1, "stimulus": "<p id=\"stim\">5</p>", "key_press": -1, "trial_type": "single-stim", "trial_index": 139, "time_elapsed": 940981, "internal_node_id": "0.0-98.0-5.0"}}, {"uniqueid": "MTK1079:3WI0P0II62ZMFI65FN6EVY5B5A6DRA", "current_trial": 140, "dateTime": 1513098601647, "trialdata": {"rt": -1, "stimulus": "<p id=\"stim\">4</p>", "key_press": -1, "trial_type": "single-stim", "trial_index": 140, "time_elapsed": 941982, "internal_node_id": "0.0-98.0-6.0"}}, {"uniqueid": "MTK1079:3WI0P0II62ZMFI65FN6EVY5B5A6DRA", "current_trial": 141, "dateTime": 1513098602647, "trialdata": {"rt": -1, "stimulus": "<p id=\"stim\">3</p>", "key_press": -1, "trial_type": "single-stim", "trial_index": 141, "time_elapsed": 942982, "internal_node_id": "0.0-98.0-7.0"}}, {"uniqueid": "MTK1079:3WI0P0II62ZMFI65FN6EVY5B5A6DRA", "current_trial": 142, "dateTime": 1513098603648, "trialdata": {"rt": -1, "stimulus": "<p id=\"stim\">2</p>", "key_press": -1, "trial_type": "single-stim", "trial_index": 142, "time_elapsed": 943983, "internal_node_id": "0.0-98.0-8.0"}}, {"uniqueid": "MTK1079:3WI0P0II62ZMFI65FN6EVY5B5A6DRA", "current_trial": 143, "dateTime": 1513098604648, "trialdata": {"rt": -1, "stimulus": "<p id=\"stim\">1</p>", "key_press": -1, "trial_type": "single-stim", "trial_index": 143, "time_elapsed": 944983, "internal_node_id": "0.0-98.0-9.0"}}, {"uniqueid": "MTK1079:3WI0P0II62ZMFI65FN6EVY5B5A6DRA", "current_trial": 144, "dateTime": 1513098606149, "trialdata": {"rt": -1, "stimulus": "<p id=\"stim\">+</p>", "key_press": -1, "type": "FIXATION", "trial_type": "single-stim", "trial_index": 144, "time_elapsed": 946484, "internal_node_id": "0.0-99.0-0.0"}}, {"uniqueid": "MTK1079:3WI0P0II62ZMFI65FN6EVY5B5A6DRA", "current_trial": 145, "dateTime": 1513098608112, "trialdata": {"rt": -1000, "stimulus": "/static/audio/wordpool/COD.wav", "key_press": -1, "type": "PRES_AUD", "word": "cod", "wordID": 339, "conditions": [12, 800, "a", 24000], "trial": 4, "serialpos": 0, "trial_type": "single-audio", "trial_index": 145, "time_elapsed": 948447, "internal_node_id": "0.0-100.0"}}, {"uniqueid": "MTK1079:3WI0P0II62ZMFI65FN6EVY5B5A6DRA", "current_trial": 146, "dateTime": 1513098610047, "trialdata": {"rt": -1000, "stimulus": "/static/audio/wordpool/TABLE.wav", "key_press": -1, "type": "PRES_AUD", "word": "table", "wordID": 1425, "conditions": [12, 800, "a", 24000], "trial": 4, "serialpos": 1, "trial_type": "single-audio", "trial_index": 146, "time_elapsed": 950382, "internal_node_id": "0.0-101.0"}}, {"uniqueid": "MTK1079:3WI0P0II62ZMFI65FN6EVY5B5A6DRA", "current_trial": 147, "dateTime": 1513098611695, "trialdata": {"rt": -1000, "stimulus": "/static/audio/wordpool/SCARECROW.wav", "key_press": -1, "type": "PRES_AUD", "word": "scarecrow", "wordID": 1244, "conditions": [12, 800, "a", 24000], "trial": 4, "serialpos": 2, "trial_type": "single-audio", "trial_index": 147, "time_elapsed": 952030, "internal_node_id": "0.0-102.0"}}, {"uniqueid": "MTK1079:3WI0P0II62ZMFI65FN6EVY5B5A6DRA", "current_trial": 148, "dateTime": 1513098613436, "trialdata": {"rt": -1000, "stimulus": "/static/audio/wordpool/PARSLEY.wav", "key_press": -1, "type": "PRES_AUD", "word": "parsley", "wordID": 1015, "conditions": [12, 800, "a", 24000], "trial": 4, "serialpos": 3, "trial_type": "single-audio", "trial_index": 148, "time_elapsed": 953770, "internal_node_id": "0.0-103.0"}}, {"uniqueid": "MTK1079:3WI0P0II62ZMFI65FN6EVY5B5A6DRA", "current_trial": 149, "dateTime": 1513098615368, "trialdata": {"rt": -1000, "stimulus": "/static/audio/wordpool/ONION.wav", "key_press": -1, "type": "PRES_AUD", "word": "onion", "wordID": 976, "conditions": [12, 800, "a", 24000], "trial": 4, "serialpos": 4, "trial_type": "single-audio", "trial_index": 149, "time_elapsed": 955703, "internal_node_id": "0.0-104.0"}}, {"uniqueid": "MTK1079:3WI0P0II62ZMFI65FN6EVY5B5A6DRA", "current_trial": 150, "dateTime": 1513098617047, "trialdata": {"rt": -1000, "stimulus": "/static/audio/wordpool/ROBBER.wav", "key_press": -1, "type": "PRES_AUD", "word": "robber", "wordID": 1196, "conditions": [12, 800, "a", 24000], "trial": 4, "serialpos": 5, "trial_type": "single-audio", "trial_index": 150, "time_elapsed": 957382, "internal_node_id": "0.0-105.0"}}, {"uniqueid": "MTK1079:3WI0P0II62ZMFI65FN6EVY5B5A6DRA", "current_trial": 151, "dateTime": 1513098618830, "trialdata": {"rt": -1000, "stimulus": "/static/audio/wordpool/COLLEGE.wav", "key_press": -1, "type": "PRES_AUD", "word": "college", "wordID": 345, "conditions": [12, 800, "a", 24000], "trial": 4, "serialpos": 6, "trial_type": "single-audio", "trial_index": 151, "time_elapsed": 959164, "internal_node_id": "0.0-106.0"}}, {"uniqueid": "MTK1079:3WI0P0II62ZMFI65FN6EVY5B5A6DRA", "current_trial": 152, "dateTime": 1513098620613, "trialdata": {"rt": -1000, "stimulus": "/static/audio/wordpool/BISON.wav", "key_press": -1, "type": "PRES_AUD", "word": "bison", "wordID": 130, "conditions": [12, 800, "a", 24000], "trial": 4, "serialpos": 7, "trial_type": "single-audio", "trial_index": 152, "time_elapsed": 960948, "internal_node_id": "0.0-107.0"}}, {"uniqueid": "MTK1079:3WI0P0II62ZMFI65FN6EVY5B5A6DRA", "current_trial": 153, "dateTime": 1513098622472, "trialdata": {"rt": -1000, "stimulus": "/static/audio/wordpool/WRENCH.wav", "key_press": -1, "type": "PRES_AUD", "word": "wrench", "wordID": 1624, "conditions": [12, 800, "a", 24000], "trial": 4, "serialpos": 8, "trial_type": "single-audio", "trial_index": 153, "time_elapsed": 962807, "internal_node_id": "0.0-108.0"}}, {"uniqueid": "MTK1079:3WI0P0II62ZMFI65FN6EVY5B5A6DRA", "current_trial": 154, "dateTime": 1513098624409, "trialdata": {"rt": -1000, "stimulus": "/static/audio/wordpool/STUDENT.wav", "key_press": -1, "type": "PRES_AUD", "word": "student", "wordID": 1394, "conditions": [12, 800, "a", 24000], "trial": 4, "serialpos": 9, "trial_type": "single-audio", "trial_index": 154, "time_elapsed": 964743, "internal_node_id": "0.0-109.0"}}, {"uniqueid": "MTK1079:3WI0P0II62ZMFI65FN6EVY5B5A6DRA", "current_trial": 155, "dateTime": 1513098626282, "trialdata": {"rt": -1000, "stimulus": "/static/audio/wordpool/DRESSER.wav", "key_press": -1, "type": "PRES_AUD", "word": "dresser", "wordID": 495, "conditions": [12, 800, "a", 24000], "trial": 4, "serialpos": 10, "trial_type": "single-audio", "trial_index": 155, "time_elapsed": 966617, "internal_node_id": "0.0-110.0"}}, {"uniqueid": "MTK1079:3WI0P0II62ZMFI65FN6EVY5B5A6DRA", "current_trial": 156, "dateTime": 1513098628156, "trialdata": {"rt": -1000, "stimulus": "/static/audio/wordpool/FRIEND.wav", "key_press": -1, "type": "PRES_AUD", "word": "friend", "wordID": 605, "conditions": [12, 800, "a", 24000], "trial": 4, "serialpos": 11, "trial_type": "single-audio", "trial_index": 156, "time_elapsed": 968491, "internal_node_id": "0.0-111.0"}}, {"uniqueid": "MTK1079:3WI0P0II62ZMFI65FN6EVY5B5A6DRA", "current_trial": 157, "dateTime": 1513098629419, "trialdata": {"rt": -1, "stimulus": "", "key_press": -1, "type": "PRE_RECALL_DELAY", "trial_type": "single-stim", "trial_index": 157, "time_elapsed": 969754, "internal_node_id": "0.0-112.0-0.0"}}, {"uniqueid": "MTK1079:3WI0P0II62ZMFI65FN6EVY5B5A6DRA", "current_trial": 158, "dateTime": 1513098629919, "trialdata": {"rt": -1000, "stimulus": "/static/audio/400Hz.wav", "key_press": -1, "type": "PRE_RECALL_ALERT", "trial_type": "single-audio", "trial_index": 158, "time_elapsed": 970254, "internal_node_id": "0.0-113.0"}}, {"uniqueid": "MTK1079:3WI0P0II62ZMFI65FN6EVY5B5A6DRA", "current_trial": 159, "dateTime": 1513098689924, "trialdata": {"rt": [3525, 6960, 12540, 16460, 22000], "recwords": ["cod", "friend", "dresser", "friend", "bagel"], "type": "FREE_RECALL", "conditions": [12, 800, "a", 24000], "trial": 4, "trial_type": "free-recall", "trial_index": 159, "time_elapsed": 1030257, "internal_node_id": "0.0-114.0-0.0"}}, {"uniqueid": "MTK1079:3WI0P0II62ZMFI65FN6EVY5B5A6DRA", "current_trial": 160, "dateTime": 1513098695258, "trialdata": {"rt": 3334, "key_press": 32, "type": "INSTRUCTIONS", "trial_type": "text", "trial_index": 160, "time_elapsed": 1035593, "internal_node_id": "0.0-115.0"}}, {"uniqueid": "MTK1079:3WI0P0II62ZMFI65FN6EVY5B5A6DRA", "current_trial": 161, "dateTime": 1513098709259, "trialdata": {"rt": [2718, 5434, 7455, 9130], "responses": ["19", "17", "16", "15"], "num1": [8, 3, 6, 9, 8], "num2": [7, 5, 6, 2, 7], "num3": [4, 9, 4, 4, 9], "type": "DISTRACTOR", "conditions": [24, 800, "v", 12000], "trial": 5, "trial_type": "math-distractor", "trial_index": 161, "time_elapsed": 1049594, "internal_node_id": "0.0-116.0"}}, {"uniqueid": "MTK1079:3WI0P0II62ZMFI65FN6EVY5B5A6DRA", "current_trial": 162, "dateTime": 1513098712261, "trialdata": {"rt": -1, "stimulus": "<p id=\"stim\">10</p>", "key_press": -1, "trial_type": "single-stim", "trial_index": 162, "time_elapsed": 1052596, "internal_node_id": "0.0-117.0-0.0"}}, {"uniqueid": "MTK1079:3WI0P0II62ZMFI65FN6EVY5B5A6DRA", "current_trial": 163, "dateTime": 1513098713262, "trialdata": {"rt": -1, "stimulus": "<p id=\"stim\">9</p>", "key_press": -1, "trial_type": "single-stim", "trial_index": 163, "time_elapsed": 1053597, "internal_node_id": "0.0-117.0-1.0"}}, {"uniqueid": "MTK1079:3WI0P0II62ZMFI65FN6EVY5B5A6DRA", "current_trial": 164, "dateTime": 1513098714263, "trialdata": {"rt": -1, "stimulus": "<p id=\"stim\">8</p>", "key_press": -1, "trial_type": "single-stim", "trial_index": 164, "time_elapsed": 1054598, "internal_node_id": "0.0-117.0-2.0"}}, {"uniqueid": "MTK1079:3WI0P0II62ZMFI65FN6EVY5B5A6DRA", "current_trial": 165, "dateTime": 1513098715263, "trialdata": {"rt": -1, "stimulus": "<p id=\"stim\">7</p>", "key_press": -1, "trial_type": "single-stim", "trial_index": 165, "time_elapsed": 1055598, "internal_node_id": "0.0-117.0-3.0"}}, {"uniqueid": "MTK1079:3WI0P0II62ZMFI65FN6EVY5B5A6DRA", "current_trial": 166, "dateTime": 1513098716264, "trialdata": {"rt": -1, "stimulus": "<p id=\"stim\">6</p>", "key_press": -1, "trial_type": "single-stim", "trial_index": 166, "time_elapsed": 1056598, "internal_node_id": "0.0-117.0-4.0"}}, {"uniqueid": "MTK1079:3WI0P0II62ZMFI65FN6EVY5B5A6DRA", "current_trial": 167, "dateTime": 1513098717266, "trialdata": {"rt": -1, "stimulus": "<p id=\"stim\">5</p>", "key_press": -1, "trial_type": "single-stim", "trial_index": 167, "time_elapsed": 1057600, "internal_node_id": "0.0-117.0-5.0"}}, {"uniqueid": "MTK1079:3WI0P0II62ZMFI65FN6EVY5B5A6DRA", "current_trial": 168, "dateTime": 1513098718268, "trialdata": {"rt": -1, "stimulus": "<p id=\"stim\">4</p>", "key_press": -1, "trial_type": "single-stim", "trial_index": 168, "time_elapsed": 1058603, "internal_node_id": "0.0-117.0-6.0"}}, {"uniqueid": "MTK1079:3WI0P0II62ZMFI65FN6EVY5B5A6DRA", "current_trial": 169, "dateTime": 1513098719268, "trialdata": {"rt": -1, "stimulus": "<p id=\"stim\">3</p>", "key_press": -1, "trial_type": "single-stim", "trial_index": 169, "time_elapsed": 1059603, "internal_node_id": "0.0-117.0-7.0"}}, {"uniqueid": "MTK1079:3WI0P0II62ZMFI65FN6EVY5B5A6DRA", "current_trial": 170, "dateTime": 1513098720269, "trialdata": {"rt": -1, "stimulus": "<p id=\"stim\">2</p>", "key_press": -1, "trial_type": "single-stim", "trial_index": 170, "time_elapsed": 1060604, "internal_node_id": "0.0-117.0-8.0"}}, {"uniqueid": "MTK1079:3WI0P0II62ZMFI65FN6EVY5B5A6DRA", "current_trial": 171, "dateTime": 1513098721269, "trialdata": {"rt": -1, "stimulus": "<p id=\"stim\">1</p>", "key_press": -1, "trial_type": "single-stim", "trial_index": 171, "time_elapsed": 1061604, "internal_node_id": "0.0-117.0-9.0"}}, {"uniqueid": "MTK1079:3WI0P0II62ZMFI65FN6EVY5B5A6DRA", "current_trial": 172, "dateTime": 1513098722770, "trialdata": {"rt": -1, "stimulus": "<p id=\"stim\">+</p>", "key_press": -1, "type": "FIXATION", "trial_type": "single-stim", "trial_index": 172, "time_elapsed": 1063105, "internal_node_id": "0.0-118.0-0.0"}}, {"uniqueid": "MTK1079:3WI0P0II62ZMFI65FN6EVY5B5A6DRA", "current_trial": 173, "dateTime": 1513098723571, "trialdata": {"rt": -1, "stimulus": "<p id=\"stim\">WINDOW</p>", "key_press": -1, "type": "PRES_VIS", "word": "window", "wordID": 1610, "conditions": [24, 800, "v", 12000], "trial": 5, "serialpos": 0, "trial_type": "single-stim", "trial_index": 173, "time_elapsed": 1063906, "internal_node_id": "0.0-119.0"}}, {"uniqueid": "MTK1079:3WI0P0II62ZMFI65FN6EVY5B5A6DRA", "current_trial": 174, "dateTime": 1513098725186, "trialdata": {"rt": -1, "stimulus": "<p id=\"stim\">KETCHUP</p>", "key_press": -1, "type": "PRES_VIS", "word": "ketchup", "wordID": 770, "conditions": [24, 800, "v", 12000], "trial": 5, "serialpos": 1, "trial_type": "single-stim", "trial_index": 174, "time_elapsed": 1065520, "internal_node_id": "0.0-120.0"}}, {"uniqueid": "MTK1079:3WI0P0II62ZMFI65FN6EVY5B5A6DRA", "current_trial": 175, "dateTime": 1513098726885, "trialdata": {"rt": -1, "stimulus": "<p id=\"stim\">SUITCASE</p>", "key_press": -1, "type": "PRES_VIS", "word": "suitcase", "wordID": 1402, "conditions": [24, 800, "v", 12000], "trial": 5, "serialpos": 2, "trial_type": "single-stim", "trial_index": 175, "time_elapsed": 1067220, "internal_node_id": "0.0-121.0"}}, {"uniqueid": "MTK1079:3WI0P0II62ZMFI65FN6EVY5B5A6DRA", "current_trial": 176, "dateTime": 1513098728759, "trialdata": {"rt": -1, "stimulus": "<p id=\"stim\">HANDBAG</p>", "key_press": -1, "type": "PRES_VIS", "word": "handbag", "wordID": 683, "conditions": [24, 800, "v", 12000], "trial": 5, "serialpos": 3, "trial_type": "single-stim", "trial_index": 176, "time_elapsed": 1069094, "internal_node_id": "0.0-122.0"}}, {"uniqueid": "MTK1079:3WI0P0II62ZMFI65FN6EVY5B5A6DRA", "current_trial": 177, "dateTime": 1513098730399, "trialdata": {"rt": -1, "stimulus": "<p id=\"stim\">RUG</p>", "key_press": -1, "type": "PRES_VIS", "word": "rug", "wordID": 1214, "conditions": [24, 800, "v", 12000], "trial": 5, "serialpos": 4, "trial_type": "single-stim", "trial_index": 177, "time_elapsed": 1070734, "internal_node_id": "0.0-123.0"}}, {"uniqueid": "MTK1079:3WI0P0II62ZMFI65FN6EVY5B5A6DRA", "current_trial": 178, "dateTime": 1513098732275, "trialdata": {"rt": -1, "stimulus": "<p id=\"stim\">ROBIN</p>", "key_press": -1, "type": "PRES_VIS", "word": "robin", "wordID": 1198, "conditions": [24, 800, "v", 12000], "trial": 5, "serialpos": 5, "trial_type": "single-stim", "trial_index": 178, "time_elapsed": 1072610, "internal_node_id": "0.0-124.0"}}, {"uniqueid": "MTK1079:3WI0P0II62ZMFI65FN6EVY5B5A6DRA", "current_trial": 179, "dateTime": 1513098734009, "trialdata": {"rt": -1, "stimulus": "<p id=\"stim\">LAMP</p>", "key_press": -1, "type": "PRES_VIS", "word": "lamp", "wordID": 797, "conditions": [24, 800, "v", 12000], "trial": 5, "serialpos": 6, "trial_type": "single-stim", "trial_index": 179, "time_elapsed": 1074344, "internal_node_id": "0.0-125.0"}}, {"uniqueid": "MTK1079:3WI0P0II62ZMFI65FN6EVY5B5A6DRA", "current_trial": 180, "dateTime": 1513098735821, "trialdata": {"rt": -1, "stimulus": "<p id=\"stim\">WITNESS</p>", "key_press": -1, "type": "PRES_VIS", "word": "witness", "wordID": 1617, "conditions": [24, 800, "v", 12000], "trial": 5, "serialpos": 7, "trial_type": "single-stim", "trial_index": 180, "time_elapsed": 1076156, "internal_node_id": "0.0-126.0"}}, {"uniqueid": "MTK1079:3WI0P0II62ZMFI65FN6EVY5B5A6DRA", "current_trial": 181, "dateTime": 1513098737694, "trialdata": {"rt": -1, "stimulus": "<p id=\"stim\">FREEZER</p>", "key_press": -1, "type": "PRES_VIS", "word": "freezer", "wordID": 603, "conditions": [24, 800, "v", 12000], "trial": 5, "serialpos": 8, "trial_type": "single-stim", "trial_index": 181, "time_elapsed": 1078029, "internal_node_id": "0.0-127.0"}}, {"uniqueid": "MTK1079:3WI0P0II62ZMFI65FN6EVY5B5A6DRA", "current_trial": 182, "dateTime": 1513098739521, "trialdata": {"rt": -1, "stimulus": "<p id=\"stim\">BREAST</p>", "key_press": -1, "type": "PRES_VIS", "word": "breast", "wordID": 170, "conditions": [24, 800, "v", 12000], "trial": 5, "serialpos": 9, "trial_type": "single-stim", "trial_index": 182, "time_elapsed": 1079856, "internal_node_id": "0.0-128.0"}}, {"uniqueid": "MTK1079:3WI0P0II62ZMFI65FN6EVY5B5A6DRA", "current_trial": 183, "dateTime": 1513098741446, "trialdata": {"rt": -1, "stimulus": "<p id=\"stim\">WASP</p>", "key_press": -1, "type": "PRES_VIS", "word": "wasp", "wordID": 1592, "conditions": [24, 800, "v", 12000], "trial": 5, "serialpos": 10, "trial_type": "single-stim", "trial_index": 183, "time_elapsed": 1081781, "internal_node_id": "0.0-129.0"}}, {"uniqueid": "MTK1079:3WI0P0II62ZMFI65FN6EVY5B5A6DRA", "current_trial": 184, "dateTime": 1513098743090, "trialdata": {"rt": -1, "stimulus": "<p id=\"stim\">LAKE</p>", "key_press": -1, "type": "PRES_VIS", "word": "lake", "wordID": 795, "conditions": [24, 800, "v", 12000], "trial": 5, "serialpos": 11, "trial_type": "single-stim", "trial_index": 184, "time_elapsed": 1083425, "internal_node_id": "0.0-130.0"}}, {"uniqueid": "MTK1079:3WI0P0II62ZMFI65FN6EVY5B5A6DRA", "current_trial": 185, "dateTime": 1513098744883, "trialdata": {"rt": -1, "stimulus": "<p id=\"stim\">JUDGE</p>", "key_press": -1, "type": "PRES_VIS", "word": "judge", "wordID": 760, "conditions": [24, 800, "v", 12000], "trial": 5, "serialpos": 12, "trial_type": "single-stim", "trial_index": 185, "time_elapsed": 1085218, "internal_node_id": "0.0-131.0"}}, {"uniqueid": "MTK1079:3WI0P0II62ZMFI65FN6EVY5B5A6DRA", "current_trial": 186, "dateTime": 1513098746698, "trialdata": {"rt": -1, "stimulus": "<p id=\"stim\">ANKLE</p>", "key_press": -1, "type": "PRES_VIS", "word": "ankle", "wordID": 23, "conditions": [24, 800, "v", 12000], "trial": 5, "serialpos": 13, "trial_type": "single-stim", "trial_index": 186, "time_elapsed": 1087033, "internal_node_id": "0.0-132.0"}}, {"uniqueid": "MTK1079:3WI0P0II62ZMFI65FN6EVY5B5A6DRA", "current_trial": 187, "dateTime": 1513098748648, "trialdata": {"rt": -1, "stimulus": "<p id=\"stim\">BADGE</p>", "key_press": -1, "type": "PRES_VIS", "word": "badge", "wordID": 67, "conditions": [24, 800, "v", 12000], "trial": 5, "serialpos": 14, "trial_type": "single-stim", "trial_index": 187, "time_elapsed": 1088983, "internal_node_id": "0.0-133.0"}}, {"uniqueid": "MTK1079:3WI0P0II62ZMFI65FN6EVY5B5A6DRA", "current_trial": 188, "dateTime": 1513098750496, "trialdata": {"rt": -1, "stimulus": "<p id=\"stim\">LACE</p>", "key_press": -1, "type": "PRES_VIS", "word": "lace", "wordID": 791, "conditions": [24, 800, "v", 12000], "trial": 5, "serialpos": 15, "trial_type": "single-stim", "trial_index": 188, "time_elapsed": 1090831, "internal_node_id": "0.0-134.0"}}, {"uniqueid": "MTK1079:3WI0P0II62ZMFI65FN6EVY5B5A6DRA", "current_trial": 189, "dateTime": 1513098752149, "trialdata": {"rt": -1, "stimulus": "<p id=\"stim\">LILY</p>", "key_press": -1, "type": "PRES_VIS", "word": "lily", "wordID": 820, "conditions": [24, 800, "v", 12000], "trial": 5, "serialpos": 16, "trial_type": "single-stim", "trial_index": 189, "time_elapsed": 1092484, "internal_node_id": "0.0-135.0"}}, {"uniqueid": "MTK1079:3WI0P0II62ZMFI65FN6EVY5B5A6DRA", "current_trial": 190, "dateTime": 1513098754082, "trialdata": {"rt": -1, "stimulus": "<p id=\"stim\">BLOCKADE</p>", "key_press": -1, "type": "PRES_VIS", "word": "blockade", "wordID": 136, "conditions": [24, 800, "v", 12000], "trial": 5, "serialpos": 17, "trial_type": "single-stim", "trial_index": 190, "time_elapsed": 1094417, "internal_node_id": "0.0-136.0"}}, {"uniqueid": "MTK1079:3WI0P0II62ZMFI65FN6EVY5B5A6DRA", "current_trial": 191, "dateTime": 1513098755692, "trialdata": {"rt": -1, "stimulus": "<p id=\"stim\">JURY</p>", "key_press": -1, "type": "PRES_VIS", "word": "jury", "wordID": 765, "conditions": [24, 800, "v", 12000], "trial": 5, "serialpos": 18, "trial_type": "single-stim", "trial_index": 191, "time_elapsed": 1096027, "internal_node_id": "0.0-137.0"}}, {"uniqueid": "MTK1079:3WI0P0II62ZMFI65FN6EVY5B5A6DRA", "current_trial": 192, "dateTime": 1513098757409, "trialdata": {"rt": -1, "stimulus": "<p id=\"stim\">LADY</p>", "key_press": -1, "type": "PRES_VIS", "word": "lady", "wordID": 793, "conditions": [24, 800, "v", 12000], "trial": 5, "serialpos": 19, "trial_type": "single-stim", "trial_index": 192, "time_elapsed": 1097743, "internal_node_id": "0.0-138.0"}}, {"uniqueid": "MTK1079:3WI0P0II62ZMFI65FN6EVY5B5A6DRA", "current_trial": 193, "dateTime": 1513098759342, "trialdata": {"rt": -1, "stimulus": "<p id=\"stim\">DAUGHTER</p>", "key_press": -1, "type": "PRES_VIS", "word": "daughter", "wordID": 441, "conditions": [24, 800, "v", 12000], "trial": 5, "serialpos": 20, "trial_type": "single-stim", "trial_index": 193, "time_elapsed": 1099677, "internal_node_id": "0.0-139.0"}}, {"uniqueid": "MTK1079:3WI0P0II62ZMFI65FN6EVY5B5A6DRA", "current_trial": 194, "dateTime": 1513098761222, "trialdata": {"rt": -1, "stimulus": "<p id=\"stim\">WIDOW</p>", "key_press": -1, "type": "PRES_VIS", "word": "widow", "wordID": 1607, "conditions": [24, 800, "v", 12000], "trial": 5, "serialpos": 21, "trial_type": "single-stim", "trial_index": 194, "time_elapsed": 1101557, "internal_node_id": "0.0-140.0"}}, {"uniqueid": "MTK1079:3WI0P0II62ZMFI65FN6EVY5B5A6DRA", "current_trial": 195, "dateTime": 1513098762851, "trialdata": {"rt": -1, "stimulus": "<p id=\"stim\">BRICK</p>", "key_press": -1, "type": "PRES_VIS", "word": "brick", "wordID": 171, "conditions": [24, 800, "v", 12000], "trial": 5, "serialpos": 22, "trial_type": "single-stim", "trial_index": 195, "time_elapsed": 1103186, "internal_node_id": "0.0-141.0"}}, {"uniqueid": "MTK1079:3WI0P0II62ZMFI65FN6EVY5B5A6DRA", "current_trial": 196, "dateTime": 1513098764452, "trialdata": {"rt": -1, "stimulus": "<p id=\"stim\">CYCLONE</p>", "key_press": -1, "type": "PRES_VIS", "word": "cyclone", "wordID": 430, "conditions": [24, 800, "v", 12000], "trial": 5, "serialpos": 23, "trial_type": "single-stim", "trial_index": 196, "time_elapsed": 1104787, "internal_node_id": "0.0-142.0"}}, {"uniqueid": "MTK1079:3WI0P0II62ZMFI65FN6EVY5B5A6DRA", "current_trial": 197, "dateTime": 1513098766847, "trialdata": {"rt": -1, "stimulus": "", "key_press": -1, "type": "PRE_RECALL_DELAY", "trial_type": "single-stim", "trial_index": 197, "time_elapsed": 1107182, "internal_node_id": "0.0-143.0-0.0"}}, {"uniqueid": "MTK1079:3WI0P0II62ZMFI65FN6EVY5B5A6DRA", "current_trial": 198, "dateTime": 1513098767348, "trialdata": {"rt": -1000, "stimulus": "/static/audio/400Hz.wav", "key_press": -1, "type": "PRE_RECALL_ALERT", "trial_type": "single-audio", "trial_index": 198, "time_elapsed": 1107683, "internal_node_id": "0.0-144.0"}}, {"uniqueid": "MTK1079:3WI0P0II62ZMFI65FN6EVY5B5A6DRA", "current_trial": 199, "dateTime": 1513098827352, "trialdata": {"rt": [2789, 5533, 8292, 11304, 13672, 16076, 18076, 25500], "recwords": ["window", "ketchup", "suitcase", "father", "breast", "lady", "daughter", "fox"], "type": "FREE_RECALL", "conditions": [24, 800, "v", 12000], "trial": 5, "trial_type": "free-recall", "trial_index": 199, "time_elapsed": 1167685, "internal_node_id": "0.0-145.0-0.0"}}, {"uniqueid": "MTK1079:3WI0P0II62ZMFI65FN6EVY5B5A6DRA", "current_trial": 200, "dateTime": 1513098830806, "trialdata": {"rt": 1453, "key_press": 32, "type": "INSTRUCTIONS", "trial_type": "text", "trial_index": 200, "time_elapsed": 1171140, "internal_node_id": "0.0-146.0"}}, {"uniqueid": "MTK1079:3WI0P0II62ZMFI65FN6EVY5B5A6DRA", "current_trial": 201, "dateTime": 1513098844808, "trialdata": {"rt": [2089, 3690, 5738, 7701, 9614, 11729], "responses": ["16", "11", "17", "16", "11", "21"], "num1": [8, 1, 8, 2, 2, 8, 4], "num2": [3, 9, 1, 5, 2, 5, 7], "num3": [5, 1, 8, 9, 7, 8, 3], "type": "DISTRACTOR", "conditions": [24, 800, "a", 12000], "trial": 6, "trial_type": "math-distractor", "trial_index": 201, "time_elapsed": 1185143, "internal_node_id": "0.0-147.0"}}, {"uniqueid": "MTK1079:3WI0P0II62ZMFI65FN6EVY5B5A6DRA", "current_trial": 202, "dateTime": 1513098847808, "trialdata": {"rt": -1, "stimulus": "<p id=\"stim\">10</p>", "key_press": -1, "trial_type": "single-stim", "trial_index": 202, "time_elapsed": 1188143, "internal_node_id": "0.0-148.0-0.0"}}, {"uniqueid": "MTK1079:3WI0P0II62ZMFI65FN6EVY5B5A6DRA", "current_trial": 203, "dateTime": 1513098848808, "trialdata": {"rt": -1, "stimulus": "<p id=\"stim\">9</p>", "key_press": -1, "trial_type": "single-stim", "trial_index": 203, "time_elapsed": 1189143, "internal_node_id": "0.0-148.0-1.0"}}, {"uniqueid": "MTK1079:3WI0P0II62ZMFI65FN6EVY5B5A6DRA", "current_trial": 204, "dateTime": 1513098849809, "trialdata": {"rt": -1, "stimulus": "<p id=\"stim\">8</p>", "key_press": -1, "trial_type": "single-stim", "trial_index": 204, "time_elapsed": 1190144, "internal_node_id": "0.0-148.0-2.0"}}, {"uniqueid": "MTK1079:3WI0P0II62ZMFI65FN6EVY5B5A6DRA", "current_trial": 205, "dateTime": 1513098850810, "trialdata": {"rt": -1, "stimulus": "<p id=\"stim\">7</p>", "key_press": -1, "trial_type": "single-stim", "trial_index": 205, "time_elapsed": 1191145, "internal_node_id": "0.0-148.0-3.0"}}, {"uniqueid": "MTK1079:3WI0P0II62ZMFI65FN6EVY5B5A6DRA", "current_trial": 206, "dateTime": 1513098851811, "trialdata": {"rt": -1, "stimulus": "<p id=\"stim\">6</p>", "key_press": -1, "trial_type": "single-stim", "trial_index": 206, "time_elapsed": 1192146, "internal_node_id": "0.0-148.0-4.0"}}, {"uniqueid": "MTK1079:3WI0P0II62ZMFI65FN6EVY5B5A6DRA", "current_trial": 207, "dateTime": 1513098852812, "trialdata": {"rt": -1, "stimulus": "<p id=\"stim\">5</p>", "key_press": -1, "trial_type": "single-stim", "trial_index": 207, "time_elapsed": 1193147, "internal_node_id": "0.0-148.0-5.0"}}, {"uniqueid": "MTK1079:3WI0P0II62ZMFI65FN6EVY5B5A6DRA", "current_trial": 208, "dateTime": 1513098853812, "trialdata": {"rt": -1, "stimulus": "<p id=\"stim\">4</p>", "key_press": -1, "trial_type": "single-stim", "trial_index": 208, "time_elapsed": 1194147, "internal_node_id": "0.0-148.0-6.0"}}, {"uniqueid": "MTK1079:3WI0P0II62ZMFI65FN6EVY5B5A6DRA", "current_trial": 209, "dateTime": 1513098854812, "trialdata": {"rt": -1, "stimulus": "<p id=\"stim\">3</p>", "key_press": -1, "trial_type": "single-stim", "trial_index": 209, "time_elapsed": 1195147, "internal_node_id": "0.0-148.0-7.0"}}, {"uniqueid": "MTK1079:3WI0P0II62ZMFI65FN6EVY5B5A6DRA", "current_trial": 210, "dateTime": 1513098855813, "trialdata": {"rt": -1, "stimulus": "<p id=\"stim\">2</p>", "key_press": -1, "trial_type": "single-stim", "trial_index": 210, "time_elapsed": 1196148, "internal_node_id": "0.0-148.0-8.0"}}, {"uniqueid": "MTK1079:3WI0P0II62ZMFI65FN6EVY5B5A6DRA", "current_trial": 211, "dateTime": 1513098856814, "trialdata": {"rt": -1, "stimulus": "<p id=\"stim\">1</p>", "key_press": -1, "trial_type": "single-stim", "trial_index": 211, "time_elapsed": 1197149, "internal_node_id": "0.0-148.0-9.0"}}, {"uniqueid": "MTK1079:3WI0P0II62ZMFI65FN6EVY5B5A6DRA", "current_trial": 212, "dateTime": 1513098858315, "trialdata": {"rt": -1, "stimulus": "<p id=\"stim\">+</p>", "key_press": -1, "type": "FIXATION", "trial_type": "single-stim", "trial_index": 212, "time_elapsed": 1198650, "internal_node_id": "0.0-149.0-0.0"}}, {"uniqueid": "MTK1079:3WI0P0II62ZMFI65FN6EVY5B5A6DRA", "current_trial": 213, "dateTime": 1513098860150, "trialdata": {"rt": -1000, "stimulus": "/static/audio/wordpool/GOBLIN.wav", "key_press": -1, "type": "PRES_AUD", "word": "goblin", "wordID": 644, "conditions": [24, 800, "a", 12000], "trial": 6, "serialpos": 0, "trial_type": "single-audio", "trial_index": 213, "time_elapsed": 1200485, "internal_node_id": "0.0-150.0"}}, {"uniqueid": "MTK1079:3WI0P0II62ZMFI65FN6EVY5B5A6DRA", "current_trial": 214, "dateTime": 1513098862073, "trialdata": {"rt": -1000, "stimulus": "/static/audio/wordpool/CHEST.wav", "key_press": -1, "type": "PRES_AUD", "word": "chest", "wordID": 294, "conditions": [24, 800, "a", 12000], "trial": 6, "serialpos": 1, "trial_type": "single-audio", "trial_index": 214, "time_elapsed": 1202408, "internal_node_id": "0.0-151.0"}}, {"uniqueid": "MTK1079:3WI0P0II62ZMFI65FN6EVY5B5A6DRA", "current_trial": 215, "dateTime": 1513098863957, "trialdata": {"rt": -1000, "stimulus": "/static/audio/wordpool/FOREHEAD.wav", "key_press": -1, "type": "PRES_AUD", "word": "forehead", "wordID": 591, "conditions": [24, 800, "a", 12000], "trial": 6, "serialpos": 2, "trial_type": "single-audio", "trial_index": 215, "time_elapsed": 1204292, "internal_node_id": "0.0-152.0"}}, {"uniqueid": "MTK1079:3WI0P0II62ZMFI65FN6EVY5B5A6DRA", "current_trial": 216, "dateTime": 1513098865920, "trialdata": {"rt": -1000, "stimulus": "/static/audio/wordpool/DINER.wav", "key_press": -1, "type": "PRES_AUD", "word": "diner", "wordID": 466, "conditions": [24, 800, "a", 12000], "trial": 6, "serialpos": 3, "trial_type": "single-audio", "trial_index": 216, "time_elapsed": 1206255, "internal_node_id": "0.0-153.0"}}, {"uniqueid": "MTK1079:3WI0P0II62ZMFI65FN6EVY5B5A6DRA", "current_trial": 217, "dateTime": 1513098867530, "trialdata": {"rt": -1000, "stimulus": "/static/audio/wordpool/CRAYON.wav", "key_press": -1, "type": "PRES_AUD", "word": "crayon", "wordID": 400, "conditions": [24, 800, "a", 12000], "trial": 6, "serialpos": 4, "trial_type": "single-audio", "trial_index": 217, "time_elapsed": 1207865, "internal_node_id": "0.0-154.0"}}, {"uniqueid": "MTK1079:3WI0P0II62ZMFI65FN6EVY5B5A6DRA", "current_trial": 218, "dateTime": 1513098869252, "trialdata": {"rt": -1000, "stimulus": "/static/audio/wordpool/DRAWING.wav", "key_press": -1, "type": "PRES_AUD", "word": "drawing", "wordID": 493, "conditions": [24, 800, "a", 12000], "trial": 6, "serialpos": 5, "trial_type": "single-audio", "trial_index": 218, "time_elapsed": 1209587, "internal_node_id": "0.0-155.0"}}, {"uniqueid": "MTK1079:3WI0P0II62ZMFI65FN6EVY5B5A6DRA", "current_trial": 219, "dateTime": 1513098871070, "trialdata": {"rt": -1000, "stimulus": "/static/audio/wordpool/DRINK.wav", "key_press": -1, "type": "PRES_AUD", "word": "drink", "wordID": 497, "conditions": [24, 800, "a", 12000], "trial": 6, "serialpos": 6, "trial_type": "single-audio", "trial_index": 219, "time_elapsed": 1211405, "internal_node_id": "0.0-156.0"}}, {"uniqueid": "MTK1079:3WI0P0II62ZMFI65FN6EVY5B5A6DRA", "current_trial": 220, "dateTime": 1513098872875, "trialdata": {"rt": -1000, "stimulus": "/static/audio/wordpool/SANDWICH.wav", "key_press": -1, "type": "PRES_AUD", "word": "sandwich", "wordID": 1231, "conditions": [24, 800, "a", 12000], "trial": 6, "serialpos": 7, "trial_type": "single-audio", "trial_index": 220, "time_elapsed": 1213209, "internal_node_id": "0.0-157.0"}}, {"uniqueid": "MTK1079:3WI0P0II62ZMFI65FN6EVY5B5A6DRA", "current_trial": 221, "dateTime": 1513098874871, "trialdata": {"rt": -1000, "stimulus": "/static/audio/wordpool/AUTHOR.wav", "key_press": -1, "type": "PRES_AUD", "word": "author", "wordID": 60, "conditions": [24, 800, "a", 12000], "trial": 6, "serialpos": 8, "trial_type": "single-audio", "trial_index": 221, "time_elapsed": 1215206, "internal_node_id": "0.0-158.0"}}, {"uniqueid": "MTK1079:3WI0P0II62ZMFI65FN6EVY5B5A6DRA", "current_trial": 222, "dateTime": 1513098876649, "trialdata": {"rt": -1000, "stimulus": "/static/audio/wordpool/STOVE.wav", "key_press": -1, "type": "PRES_AUD", "word": "stove", "wordID": 1387, "conditions": [24, 800, "a", 12000], "trial": 6, "serialpos": 9, "trial_type": "single-audio", "trial_index": 222, "time_elapsed": 1216984, "internal_node_id": "0.0-159.0"}}, {"uniqueid": "MTK1079:3WI0P0II62ZMFI65FN6EVY5B5A6DRA", "current_trial": 223, "dateTime": 1513098878301, "trialdata": {"rt": -1000, "stimulus": "/static/audio/wordpool/CRAB.wav", "key_press": -1, "type": "PRES_AUD", "word": "crab", "wordID": 396, "conditions": [24, 800, "a", 12000], "trial": 6, "serialpos": 10, "trial_type": "single-audio", "trial_index": 223, "time_elapsed": 1218636, "internal_node_id": "0.0-160.0"}}, {"uniqueid": "MTK1079:3WI0P0II62ZMFI65FN6EVY5B5A6DRA", "current_trial": 224, "dateTime": 1513098880226, "trialdata": {"rt": -1000, "stimulus": "/static/audio/wordpool/JOURNAL.wav", "key_press": -1, "type": "PRES_AUD", "word": "journal", "wordID": 759, "conditions": [24, 800, "a", 12000], "trial": 6, "serialpos": 11, "trial_type": "single-audio", "trial_index": 224, "time_elapsed": 1220561, "internal_node_id": "0.0-161.0"}}, {"uniqueid": "MTK1079:3WI0P0II62ZMFI65FN6EVY5B5A6DRA", "current_trial": 225, "dateTime": 1513098882148, "trialdata": {"rt": -1000, "stimulus": "/static/audio/wordpool/JELLY.wav", "key_press": -1, "type": "PRES_AUD", "word": "jelly", "wordID": 754, "conditions": [24, 800, "a", 12000], "trial": 6, "serialpos": 12, "trial_type": "single-audio", "trial_index": 225, "time_elapsed": 1222483, "internal_node_id": "0.0-162.0"}}, {"uniqueid": "MTK1079:3WI0P0II62ZMFI65FN6EVY5B5A6DRA", "current_trial": 226, "dateTime": 1513098884103, "trialdata": {"rt": -1000, "stimulus": "/static/audio/wordpool/JELLO.wav", "key_press": -1, "type": "PRES_AUD", "word": "jello", "wordID": 753, "conditions": [24, 800, "a", 12000], "trial": 6, "serialpos": 13, "trial_type": "single-audio", "trial_index": 226, "time_elapsed": 1224437, "internal_node_id": "0.0-163.0"}}, {"uniqueid": "MTK1079:3WI0P0II62ZMFI65FN6EVY5B5A6DRA", "current_trial": 227, "dateTime": 1513098885923, "trialdata": {"rt": -1000, "stimulus": "/static/audio/wordpool/ACTOR.wav", "key_press": -1, "type": "PRES_AUD", "word": "actor", "wordID": 4, "conditions": [24, 800, "a", 12000], "trial": 6, "serialpos": 14, "trial_type": "single-audio", "trial_index": 227, "time_elapsed": 1226258, "internal_node_id": "0.0-164.0"}}, {"uniqueid": "MTK1079:3WI0P0II62ZMFI65FN6EVY5B5A6DRA", "current_trial": 228, "dateTime": 1513098887833, "trialdata": {"rt": -1000, "stimulus": "/static/audio/wordpool/GIRL.wav", "key_press": -1, "type": "PRES_AUD", "word": "girl", "wordID": 636, "conditions": [24, 800, "a", 12000], "trial": 6, "serialpos": 15, "trial_type": "single-audio", "trial_index": 228, "time_elapsed": 1228168, "internal_node_id": "0.0-165.0"}}, {"uniqueid": "MTK1079:3WI0P0II62ZMFI65FN6EVY5B5A6DRA", "current_trial": 229, "dateTime": 1513098889514, "trialdata": {"rt": -1000, "stimulus": "/static/audio/wordpool/SHELTER.wav", "key_press": -1, "type": "PRES_AUD", "word": "shelter", "wordID": 1281, "conditions": [24, 800, "a", 12000], "trial": 6, "serialpos": 16, "trial_type": "single-audio", "trial_index": 229, "time_elapsed": 1229849, "internal_node_id": "0.0-166.0"}}, {"uniqueid": "MTK1079:3WI0P0II62ZMFI65FN6EVY5B5A6DRA", "current_trial": 230, "dateTime": 1513098891288, "trialdata": {"rt": -1000, "stimulus": "/static/audio/wordpool/CHURCH.wav", "key_press": -1, "type": "PRES_AUD", "word": "church", "wordID": 306, "conditions": [24, 800, "a", 12000], "trial": 6, "serialpos": 17, "trial_type": "single-audio", "trial_index": 230, "time_elapsed": 1231623, "internal_node_id": "0.0-167.0"}}, {"uniqueid": "MTK1079:3WI0P0II62ZMFI65FN6EVY5B5A6DRA", "current_trial": 231, "dateTime": 1513098893077, "trialdata": {"rt": -1000, "stimulus": "/static/audio/wordpool/RELISH.wav", "key_press": -1, "type": "PRES_AUD", "word": "relish", "wordID": 1182, "conditions": [24, 800, "a", 12000], "trial": 6, "serialpos": 18, "trial_type": "single-audio", "trial_index": 231, "time_elapsed": 1233412, "internal_node_id": "0.0-168.0"}}, {"uniqueid": "MTK1079:3WI0P0II62ZMFI65FN6EVY5B5A6DRA", "current_trial": 232, "dateTime": 1513098894720, "trialdata": {"rt": -1000, "stimulus": "/static/audio/wordpool/PRINCESS.wav", "key_press": -1, "type": "PRES_AUD", "word": "princess", "wordID": 1124, "conditions": [24, 800, "a", 12000], "trial": 6, "serialpos": 19, "trial_type": "single-audio", "trial_index": 232, "time_elapsed": 1235055, "internal_node_id": "0.0-169.0"}}, {"uniqueid": "MTK1079:3WI0P0II62ZMFI65FN6EVY5B5A6DRA", "current_trial": 233, "dateTime": 1513098896442, "trialdata": {"rt": -1000, "stimulus": "/static/audio/wordpool/SHIRT.wav", "key_press": -1, "type": "PRES_AUD", "word": "shirt", "wordID": 1286, "conditions": [24, 800, "a", 12000], "trial": 6, "serialpos": 20, "trial_type": "single-audio", "trial_index": 233, "time_elapsed": 1236776, "internal_node_id": "0.0-170.0"}}, {"uniqueid": "MTK1079:3WI0P0II62ZMFI65FN6EVY5B5A6DRA", "current_trial": 234, "dateTime": 1513098898376, "trialdata": {"rt": -1000, "stimulus": "/static/audio/wordpool/MARKET.wav", "key_press": -1, "type": "PRES_AUD", "word": "market", "wordID": 870, "conditions": [24, 800, "a", 12000], "trial": 6, "serialpos": 21, "trial_type": "single-audio", "trial_index": 234, "time_elapsed": 1238711, "internal_node_id": "0.0-171.0"}}, {"uniqueid": "MTK1079:3WI0P0II62ZMFI65FN6EVY5B5A6DRA", "current_trial": 235, "dateTime": 1513098900239, "trialdata": {"rt": -1000, "stimulus": "/static/audio/wordpool/SPACE.wav", "key_press": -1, "type": "PRES_AUD", "word": "space", "wordID": 1344, "conditions": [24, 800, "a", 12000], "trial": 6, "serialpos": 22, "trial_type": "single-audio", "trial_index": 235, "time_elapsed": 1240574, "internal_node_id": "0.0-172.0"}}, {"uniqueid": "MTK1079:3WI0P0II62ZMFI65FN6EVY5B5A6DRA", "current_trial": 236, "dateTime": 1513098901865, "trialdata": {"rt": -1000, "stimulus": "/static/audio/wordpool/DORM.wav", "key_press": -1, "type": "PRES_AUD", "word": "dorm", "wordID": 487, "conditions": [24, 800, "a", 12000], "trial": 6, "serialpos": 23, "trial_type": "single-audio", "trial_index": 236, "time_elapsed": 1242200, "internal_node_id": "0.0-173.0"}}, {"uniqueid": "MTK1079:3WI0P0II62ZMFI65FN6EVY5B5A6DRA", "current_trial": 237, "dateTime": 1513098903098, "trialdata": {"rt": -1, "stimulus": "", "key_press": -1, "type": "PRE_RECALL_DELAY", "trial_type": "single-stim", "trial_index": 237, "time_elapsed": 1243433, "internal_node_id": "0.0-174.0-0.0"}}, {"uniqueid": "MTK1079:3WI0P0II62ZMFI65FN6EVY5B5A6DRA", "current_trial": 238, "dateTime": 1513098903599, "trialdata": {"rt": -1000, "stimulus": "/static/audio/400Hz.wav", "key_press": -1, "type": "PRE_RECALL_ALERT", "trial_type": "single-audio", "trial_index": 238, "time_elapsed": 1243934, "internal_node_id": "0.0-175.0"}}, {"uniqueid": "MTK1079:3WI0P0II62ZMFI65FN6EVY5B5A6DRA", "current_trial": 239, "dateTime": 1513098963605, "trialdata": {"rt": [15018, 16821, 19617, 21069], "recwords": ["jelly", "jello", "space", "dorm"], "type": "FREE_RECALL", "conditions": [24, 800, "a", 12000], "trial": 6, "trial_type": "free-recall", "trial_index": 239, "time_elapsed": 1303937, "internal_node_id": "0.0-176.0-0.0"}}, {"uniqueid": "MTK1079:3WI0P0II62ZMFI65FN6EVY5B5A6DRA", "current_trial": 240, "dateTime": 1513098967259, "trialdata": {"rt": 1654, "key_press": 32, "type": "INSTRUCTIONS", "trial_type": "text", "trial_index": 240, "time_elapsed": 1307594, "internal_node_id": "0.0-177.0"}}, {"uniqueid": "MTK1079:3WI0P0II62ZMFI65FN6EVY5B5A6DRA", "current_trial": 241, "dateTime": 1513098993259, "trialdata": {"rt": [2108, 3842, 6139, 8103, 10202, 12395, 14384, 16231, 17803, 19779, 21873, 23339], "responses": ["16", "20", "12", "16", "15", "21", "16", "20", "9", "15", "18", "12"], "num1": [8, 9, 4, 5, 8, 7, 8, 8, 5, 2, 1, 4, 1], "num2": [4, 2, 4, 8, 5, 8, 5, 8, 2, 6, 8, 4, 8], "num3": [4, 9, 4, 3, 2, 6, 3, 4, 2, 7, 9, 4, 4], "type": "DISTRACTOR", "conditions": [12, 800, "v", 24000], "trial": 7, "trial_type": "math-distractor", "trial_index": 241, "time_elapsed": 1333594, "internal_node_id": "0.0-178.0"}}, {"uniqueid": "MTK1079:3WI0P0II62ZMFI65FN6EVY5B5A6DRA", "current_trial": 242, "dateTime": 1513098996260, "trialdata": {"rt": -1, "stimulus": "<p id=\"stim\">10</p>", "key_press": -1, "trial_type": "single-stim", "trial_index": 242, "time_elapsed": 1336595, "internal_node_id": "0.0-179.0-0.0"}}, {"uniqueid": "MTK1079:3WI0P0II62ZMFI65FN6EVY5B5A6DRA", "current_trial": 243, "dateTime": 1513098997262, "trialdata": {"rt": -1, "stimulus": "<p id=\"stim\">9</p>", "key_press": -1, "trial_type": "single-stim", "trial_index": 243, "time_elapsed": 1337597, "internal_node_id": "0.0-179.0-1.0"}}, {"uniqueid": "MTK1079:3WI0P0II62ZMFI65FN6EVY5B5A6DRA", "current_trial": 244, "dateTime": 1513098998263, "trialdata": {"rt": -1, "stimulus": "<p id=\"stim\">8</p>", "key_press": -1, "trial_type": "single-stim", "trial_index": 244, "time_elapsed": 1338598, "internal_node_id": "0.0-179.0-2.0"}}, {"uniqueid": "MTK1079:3WI0P0II62ZMFI65FN6EVY5B5A6DRA", "current_trial": 245, "dateTime": 1513098999263, "trialdata": {"rt": -1, "stimulus": "<p id=\"stim\">7</p>", "key_press": -1, "trial_type": "single-stim", "trial_index": 245, "time_elapsed": 1339598, "internal_node_id": "0.0-179.0-3.0"}}, {"uniqueid": "MTK1079:3WI0P0II62ZMFI65FN6EVY5B5A6DRA", "current_trial": 246, "dateTime": 1513099000263, "trialdata": {"rt": -1, "stimulus": "<p id=\"stim\">6</p>", "key_press": -1, "trial_type": "single-stim", "trial_index": 246, "time_elapsed": 1340598, "internal_node_id": "0.0-179.0-4.0"}}, {"uniqueid": "MTK1079:3WI0P0II62ZMFI65FN6EVY5B5A6DRA", "current_trial": 247, "dateTime": 1513099001264, "trialdata": {"rt": -1, "stimulus": "<p id=\"stim\">5</p>", "key_press": -1, "trial_type": "single-stim", "trial_index": 247, "time_elapsed": 1341599, "internal_node_id": "0.0-179.0-5.0"}}, {"uniqueid": "MTK1079:3WI0P0II62ZMFI65FN6EVY5B5A6DRA", "current_trial": 248, "dateTime": 1513099002265, "trialdata": {"rt": -1, "stimulus": "<p id=\"stim\">4</p>", "key_press": -1, "trial_type": "single-stim", "trial_index": 248, "time_elapsed": 1342600, "internal_node_id": "0.0-179.0-6.0"}}, {"uniqueid": "MTK1079:3WI0P0II62ZMFI65FN6EVY5B5A6DRA", "current_trial": 249, "dateTime": 1513099003266, "trialdata": {"rt": -1, "stimulus": "<p id=\"stim\">3</p>", "key_press": -1, "trial_type": "single-stim", "trial_index": 249, "time_elapsed": 1343601, "internal_node_id": "0.0-179.0-7.0"}}, {"uniqueid": "MTK1079:3WI0P0II62ZMFI65FN6EVY5B5A6DRA", "current_trial": 250, "dateTime": 1513099004266, "trialdata": {"rt": -1, "stimulus": "<p id=\"stim\">2</p>", "key_press": -1, "trial_type": "single-stim", "trial_index": 250, "time_elapsed": 1344601, "internal_node_id": "0.0-179.0-8.0"}}, {"uniqueid": "MTK1079:3WI0P0II62ZMFI65FN6EVY5B5A6DRA", "current_trial": 251, "dateTime": 1513099005267, "trialdata": {"rt": -1, "stimulus": "<p id=\"stim\">1</p>", "key_press": -1, "trial_type": "single-stim", "trial_index": 251, "time_elapsed": 1345602, "internal_node_id": "0.0-179.0-9.0"}}, {"uniqueid": "MTK1079:3WI0P0II62ZMFI65FN6EVY5B5A6DRA", "current_trial": 252, "dateTime": 1513099006768, "trialdata": {"rt": -1, "stimulus": "<p id=\"stim\">+</p>", "key_press": -1, "type": "FIXATION", "trial_type": "single-stim", "trial_index": 252, "time_elapsed": 1347103, "internal_node_id": "0.0-180.0-0.0"}}, {"uniqueid": "MTK1079:3WI0P0II62ZMFI65FN6EVY5B5A6DRA", "current_trial": 253, "dateTime": 1513099007569, "trialdata": {"rt": -1, "stimulus": "<p id=\"stim\">PORK</p>", "key_press": -1, "type": "PRES_VIS", "word": "pork", "wordID": 1107, "conditions": [12, 800, "v", 24000], "trial": 7, "serialpos": 0, "trial_type": "single-stim", "trial_index": 253, "time_elapsed": 1347904, "internal_node_id": "0.0-181.0"}}, {"uniqueid": "MTK1079:3WI0P0II62ZMFI65FN6EVY5B5A6DRA", "current_trial": 254, "dateTime": 1513099009421, "trialdata": {"rt": -1, "stimulus": "<p id=\"stim\">KITCHEN</p>", "key_press": -1, "type": "PRES_VIS", "word": "kitchen", "wordID": 777, "conditions": [12, 800, "v", 24000], "trial": 7, "serialpos": 1, "trial_type": "single-stim", "trial_index": 254, "time_elapsed": 1349756, "internal_node_id": "0.0-182.0"}}, {"uniqueid": "MTK1079:3WI0P0II62ZMFI65FN6EVY5B5A6DRA", "current_trial": 255, "dateTime": 1513099011222, "trialdata": {"rt": -1, "stimulus": "<p id=\"stim\">FIREPLACE</p>", "key_press": -1, "type": "PRES_VIS", "word": "fireplace", "wordID": 569, "conditions": [12, 800, "v", 24000], "trial": 7, "serialpos": 2, "trial_type": "single-stim", "trial_index": 255, "time_elapsed": 1351557, "internal_node_id": "0.0-183.0"}}, {"uniqueid": "MTK1079:3WI0P0II62ZMFI65FN6EVY5B5A6DRA", "current_trial": 256, "dateTime": 1513099012904, "trialdata": {"rt": -1, "stimulus": "<p id=\"stim\">NECKLACE</p>", "key_press": -1, "type": "PRES_VIS", "word": "necklace", "wordID": 939, "conditions": [12, 800, "v", 24000], "trial": 7, "serialpos": 3, "trial_type": "single-stim", "trial_index": 256, "time_elapsed": 1353239, "internal_node_id": "0.0-184.0"}}, {"uniqueid": "MTK1079:3WI0P0II62ZMFI65FN6EVY5B5A6DRA", "current_trial": 257, "dateTime": 1513099014667, "trialdata": {"rt": -1, "stimulus": "<p id=\"stim\">WARDROBE</p>", "key_press": -1, "type": "PRES_VIS", "word": "wardrobe", "wordID": 1586, "conditions": [12, 800, "v", 24000], "trial": 7, "serialpos": 4, "trial_type": "single-stim", "trial_index": 257, "time_elapsed": 1355002, "internal_node_id": "0.0-185.0"}}, {"uniqueid": "MTK1079:3WI0P0II62ZMFI65FN6EVY5B5A6DRA", "current_trial": 258, "dateTime": 1513099016318, "trialdata": {"rt": -1, "stimulus": "<p id=\"stim\">TWIG</p>", "key_press": -1, "type": "PRES_VIS", "word": "twig", "wordID": 1526, "conditions": [12, 800, "v", 24000], "trial": 7, "serialpos": 5, "trial_type": "single-stim", "trial_index": 258, "time_elapsed": 1356653, "internal_node_id": "0.0-186.0"}}, {"uniqueid": "MTK1079:3WI0P0II62ZMFI65FN6EVY5B5A6DRA", "current_trial": 259, "dateTime": 1513099017977, "trialdata": {"rt": -1, "stimulus": "<p id=\"stim\">MILDEW</p>", "key_press": -1, "type": "PRES_VIS", "word": "mildew", "wordID": 892, "conditions": [12, 800, "v", 24000], "trial": 7, "serialpos": 6, "trial_type": "single-stim", "trial_index": 259, "time_elapsed": 1358312, "internal_node_id": "0.0-187.0"}}, {"uniqueid": "MTK1079:3WI0P0II62ZMFI65FN6EVY5B5A6DRA", "current_trial": 260, "dateTime": 1513099019758, "trialdata": {"rt": -1, "stimulus": "<p id=\"stim\">MATTRESS</p>", "key_press": -1, "type": "PRES_VIS", "word": "mattress", "wordID": 878, "conditions": [12, 800, "v", 24000], "trial": 7, "serialpos": 7, "trial_type": "single-stim", "trial_index": 260, "time_elapsed": 1360093, "internal_node_id": "0.0-188.0"}}, {"uniqueid": "MTK1079:3WI0P0II62ZMFI65FN6EVY5B5A6DRA", "current_trial": 261, "dateTime": 1513099021609, "trialdata": {"rt": -1, "stimulus": "<p id=\"stim\">PERCH</p>", "key_press": -1, "type": "PRES_VIS", "word": "perch", "wordID": 1047, "conditions": [12, 800, "v", 24000], "trial": 7, "serialpos": 8, "trial_type": "single-stim", "trial_index": 261, "time_elapsed": 1361944, "internal_node_id": "0.0-189.0"}}, {"uniqueid": "MTK1079:3WI0P0II62ZMFI65FN6EVY5B5A6DRA", "current_trial": 262, "dateTime": 1513099023521, "trialdata": {"rt": -1, "stimulus": "<p id=\"stim\">COOK</p>", "key_press": -1, "type": "PRES_VIS", "word": "cook", "wordID": 371, "conditions": [12, 800, "v", 24000], "trial": 7, "serialpos": 9, "trial_type": "single-stim", "trial_index": 262, "time_elapsed": 1363856, "internal_node_id": "0.0-190.0"}}, {"uniqueid": "MTK1079:3WI0P0II62ZMFI65FN6EVY5B5A6DRA", "current_trial": 263, "dateTime": 1513099025235, "trialdata": {"rt": -1, "stimulus": "<p id=\"stim\">SAUSAGE</p>", "key_press": -1, "type": "PRES_VIS", "word": "sausage", "wordID": 1237, "conditions": [12, 800, "v", 24000], "trial": 7, "serialpos": 10, "trial_type": "single-stim", "trial_index": 263, "time_elapsed": 1365570, "internal_node_id": "0.0-191.0"}}, {"uniqueid": "MTK1079:3WI0P0II62ZMFI65FN6EVY5B5A6DRA", "current_trial": 264, "dateTime": 1513099027141, "trialdata": {"rt": -1, "stimulus": "<p id=\"stim\">PEACH</p>", "key_press": -1, "type": "PRES_VIS", "word": "peach", "wordID": 1030, "conditions": [12, 800, "v", 24000], "trial": 7, "serialpos": 11, "trial_type": "single-stim", "trial_index": 264, "time_elapsed": 1367476, "internal_node_id": "0.0-192.0"}}, {"uniqueid": "MTK1079:3WI0P0II62ZMFI65FN6EVY5B5A6DRA", "current_trial": 265, "dateTime": 1513099029655, "trialdata": {"rt": -1, "stimulus": "", "key_press": -1, "type": "PRE_RECALL_DELAY", "trial_type": "single-stim", "trial_index": 265, "time_elapsed": 1369990, "internal_node_id": "0.0-193.0-0.0"}}, {"uniqueid": "MTK1079:3WI0P0II62ZMFI65FN6EVY5B5A6DRA", "current_trial": 266, "dateTime": 1513099030156, "trialdata": {"rt": -1000, "stimulus": "/static/audio/400Hz.wav", "key_press": -1, "type": "PRE_RECALL_ALERT", "trial_type": "single-audio", "trial_index": 266, "time_elapsed": 1370491, "internal_node_id": "0.0-194.0"}}, {"uniqueid": "MTK1079:3WI0P0II62ZMFI65FN6EVY5B5A6DRA", "current_trial": 267, "dateTime": 1513099090162, "trialdata": {"rt": [2550, 4386, 6450], "recwords": ["pork", "kitchen", "fireplace"], "type": "FREE_RECALL", "conditions": [12, 800, "v", 24000], "trial": 7, "trial_type": "free-recall", "trial_index": 267, "time_elapsed": 1430493, "internal_node_id": "0.0-195.0-0.0"}}, {"uniqueid": "MTK1079:3WI0P0II62ZMFI65FN6EVY5B5A6DRA", "current_trial": 268, "dateTime": 1513099094848, "trialdata": {"rt": 2683, "key_press": 32, "type": "INSTRUCTIONS", "trial_type": "text", "trial_index": 268, "time_elapsed": 1435183, "internal_node_id": "0.0-196.0"}}, {"uniqueid": "MTK1079:3WI0P0II62ZMFI65FN6EVY5B5A6DRA", "current_trial": 269, "dateTime": 1513099108849, "trialdata": {"rt": [1858, 3840, 5761, 7296, 8993, 10813], "responses": ["9", "19", "14", "10", "13", "17"], "num1": [7, 3, 7, 7, 5, 8, 7], "num2": [1, 8, 4, 2, 7, 2, 3], "num3": [1, 8, 3, 1, 1, 7, 1], "type": "DISTRACTOR", "conditions": [12, 1600, "a", 12000], "trial": 8, "trial_type": "math-distractor", "trial_index": 269, "time_elapsed": 1449184, "internal_node_id": "0.0-197.0"}}, {"uniqueid": "MTK1079:3WI0P0II62ZMFI65FN6EVY5B5A6DRA", "current_trial": 270, "dateTime": 1513099111851, "trialdata": {"rt": -1, "stimulus": "<p id=\"stim\">10</p>", "key_press": -1, "trial_type": "single-stim", "trial_index": 270, "time_elapsed": 1452186, "internal_node_id": "0.0-198.0-0.0"}}, {"uniqueid": "MTK1079:3WI0P0II62ZMFI65FN6EVY5B5A6DRA", "current_trial": 271, "dateTime": 1513099112852, "trialdata": {"rt": -1, "stimulus": "<p id=\"stim\">9</p>", "key_press": -1, "trial_type": "single-stim", "trial_index": 271, "time_elapsed": 1453187, "internal_node_id": "0.0-198.0-1.0"}}, {"uniqueid": "MTK1079:3WI0P0II62ZMFI65FN6EVY5B5A6DRA", "current_trial": 272, "dateTime": 1513099113852, "trialdata": {"rt": -1, "stimulus": "<p id=\"stim\">8</p>", "key_press": -1, "trial_type": "single-stim", "trial_index": 272, "time_elapsed": 1454187, "internal_node_id": "0.0-198.0-2.0"}}, {"uniqueid": "MTK1079:3WI0P0II62ZMFI65FN6EVY5B5A6DRA", "current_trial": 273, "dateTime": 1513099114853, "trialdata": {"rt": -1, "stimulus": "<p id=\"stim\">7</p>", "key_press": -1, "trial_type": "single-stim", "trial_index": 273, "time_elapsed": 1455188, "internal_node_id": "0.0-198.0-3.0"}}, {"uniqueid": "MTK1079:3WI0P0II62ZMFI65FN6EVY5B5