{"condition": 0, "counterbalance": 1436, "assignmentId": "3EG49X351VJ7R5D2EZ4SEAH7PAE6XR", "workerId": "MTK1170", "hitId": "3UL5XDRDNCQJ6GEMB6DTHLQUNSM85F", "currenttrial": 626, "bonus": 0, "data": [{"uniqueid": "MTK1170:3EG49X351VJ7R5D2EZ4SEAH7PAE6XR", "current_trial": 0, "dateTime": 1513268370408, "trialdata": {"rt": 2227, "key_press": 32, "type": "INSTRUCTIONS", "trial_type": "text", "trial_index": 0, "time_elapsed": 2230, "internal_node_id": "0.0-0.0"}}, {"uniqueid": "MTK1170:3EG49X351VJ7R5D2EZ4SEAH7PAE6XR", "current_trial": 1, "dateTime": 1513268397919, "trialdata": {"rt": 27509, "key_press": 32, "type": "INSTRUCTIONS", "trial_type": "text", "trial_index": 1, "time_elapsed": 29742, "internal_node_id": "0.0-1.0"}}, {"uniqueid": "MTK1170:3EG49X351VJ7R5D2EZ4SEAH7PAE6XR", "current_trial": 2, "dateTime": 1513268423532, "trialdata": {"rt": [25598], "responses": ["ocean"], "type": "AUDIO_TEST", "trial_type": "audio-test", "trial_index": 2, "time_elapsed": 55355, "internal_node_id": "0.0-2.0"}}, {"uniqueid": "MTK1170:3EG49X351VJ7R5D2EZ4SEAH7PAE6XR", "current_trial": 3, "dateTime": 1513268433366, "trialdata": {"rt": [9830], "responses": ["crystal"], "type": "AUDIO_TEST", "trial_type": "audio-test", "trial_index": 3, "time_elapsed": 65188, "internal_node_id": "0.0-3.0"}}, {"uniqueid": "MTK1170:3EG49X351VJ7R5D2EZ4SEAH7PAE6XR", "current_trial": 4, "dateTime": 1513268438404, "trialdata": {"rt": [5036], "responses": ["spice"], "type": "AUDIO_TEST", "trial_type": "audio-test", "trial_index": 4, "time_elapsed": 70227, "internal_node_id": "0.0-4.0"}}, {"uniqueid": "MTK1170:3EG49X351VJ7R5D2EZ4SEAH7PAE6XR", "current_trial": 5, "dateTime": 1513268479891, "trialdata": {"rt": 40734, "responses": "{\"Q0\":\"12:30am\",\"Q1\":\"10:00am\",\"Q2\":\"5\"}", "type": "SLEEP_SURVEY", "trial_type": "survey-text", "trial_index": 5, "time_elapsed": 111714, "internal_node_id": "0.0-5.0"}}, {"uniqueid": "MTK1170:3EG49X351VJ7R5D2EZ4SEAH7PAE6XR", "current_trial": 6, "dateTime": 1513268672180, "trialdata": {"rt": 191286, "key_press": 32, "type": "INSTRUCTIONS", "trial_type": "text", "trial_index": 6, "time_elapsed": 304003, "internal_node_id": "0.0-6.0"}}, {"uniqueid": "MTK1170:3EG49X351VJ7R5D2EZ4SEAH7PAE6XR", "current_trial": 7, "dateTime": 1513268724347, "trialdata": {"rt": 51667, "key_press": 32, "type": "INSTRUCTIONS", "trial_type": "text", "trial_index": 7, "time_elapsed": 356170, "internal_node_id": "0.0-7.0"}}, {"uniqueid": "MTK1170:3EG49X351VJ7R5D2EZ4SEAH7PAE6XR", "current_trial": 8, "dateTime": 1513268741884, "trialdata": {"rt": 17035, "key_press": 32, "type": "INSTRUCTIONS", "trial_type": "text", "trial_index": 8, "time_elapsed": 373707, "internal_node_id": "0.0-8.0"}}, {"uniqueid": "MTK1170:3EG49X351VJ7R5D2EZ4SEAH7PAE6XR", "current_trial": 9, "dateTime": 1513268760891, "trialdata": {"rt": [3601, 7066, 13841, 17601], "responses": ["8", "24", "10", "16"], "num1": [3, 8, 2, 3, 3], "num2": [4, 7, 5, 4, 4], "num3": [1, 8, 3, 9, 4], "type": "DISTRACTOR", "conditions": [18, 1200, "v", 18000], "trial": 0, "trial_type": "math-distractor", "trial_index": 9, "time_elapsed": 392714, "internal_node_id": "0.0-9.0"}}, {"uniqueid": "MTK1170:3EG49X351VJ7R5D2EZ4SEAH7PAE6XR", "current_trial": 10, "dateTime": 1513268763894, "trialdata": {"rt": -1, "stimulus": "<p id=\"stim\">10</p>", "key_press": -1, "trial_type": "single-stim", "trial_index": 10, "time_elapsed": 395717, "internal_node_id": "0.0-10.0-0.0"}}, {"uniqueid": "MTK1170:3EG49X351VJ7R5D2EZ4SEAH7PAE6XR", "current_trial": 11, "dateTime": 1513268764895, "trialdata": {"rt": -1, "stimulus": "<p id=\"stim\">9</p>", "key_press": -1, "trial_type": "single-stim", "trial_index": 11, "time_elapsed": 396718, "internal_node_id": "0.0-10.0-1.0"}}, {"uniqueid": "MTK1170:3EG49X351VJ7R5D2EZ4SEAH7PAE6XR", "current_trial": 12, "dateTime": 1513268765898, "trialdata": {"rt": -1, "stimulus": "<p id=\"stim\">8</p>", "key_press": -1, "trial_type": "single-stim", "trial_index": 12, "time_elapsed": 397720, "internal_node_id": "0.0-10.0-2.0"}}, {"uniqueid": "MTK1170:3EG49X351VJ7R5D2EZ4SEAH7PAE6XR", "current_trial": 13, "dateTime": 1513268766898, "trialdata": {"rt": -1, "stimulus": "<p id=\"stim\">7</p>", "key_press": -1, "trial_type": "single-stim", "trial_index": 13, "time_elapsed": 398721, "internal_node_id": "0.0-10.0-3.0"}}, {"uniqueid": "MTK1170:3EG49X351VJ7R5D2EZ4SEAH7PAE6XR", "current_trial": 14, "dateTime": 1513268767899, "trialdata": {"rt": -1, "stimulus": "<p id=\"stim\">6</p>", "key_press": -1, "trial_type": "single-stim", "trial_index": 14, "time_elapsed": 399722, "internal_node_id": "0.0-10.0-4.0"}}, {"uniqueid": "MTK1170:3EG49X351VJ7R5D2EZ4SEAH7PAE6XR", "current_trial": 15, "dateTime": 1513268768903, "trialdata": {"rt": -1, "stimulus": "<p id=\"stim\">5</p>", "key_press": -1, "trial_type": "single-stim", "trial_index": 15, "time_elapsed": 400725, "internal_node_id": "0.0-10.0-5.0"}}, {"uniqueid": "MTK1170:3EG49X351VJ7R5D2EZ4SEAH7PAE6XR", "current_trial": 16, "dateTime": 1513268769905, "trialdata": {"rt": -1, "stimulus": "<p id=\"stim\">4</p>", "key_press": -1, "trial_type": "single-stim", "trial_index": 16, "time_elapsed": 401728, "internal_node_id": "0.0-10.0-6.0"}}, {"uniqueid": "MTK1170:3EG49X351VJ7R5D2EZ4SEAH7PAE6XR", "current_trial": 17, "dateTime": 1513268770906, "trialdata": {"rt": -1, "stimulus": "<p id=\"stim\">3</p>", "key_press": -1, "trial_type": "single-stim", "trial_index": 17, "time_elapsed": 402729, "internal_node_id": "0.0-10.0-7.0"}}, {"uniqueid": "MTK1170:3EG49X351VJ7R5D2EZ4SEAH7PAE6XR", "current_trial": 18, "dateTime": 1513268771907, "trialdata": {"rt": -1, "stimulus": "<p id=\"stim\">2</p>", "key_press": -1, "trial_type": "single-stim", "trial_index": 18, "time_elapsed": 403730, "internal_node_id": "0.0-10.0-8.0"}}, {"uniqueid": "MTK1170:3EG49X351VJ7R5D2EZ4SEAH7PAE6XR", "current_trial": 19, "dateTime": 1513268772909, "trialdata": {"rt": -1, "stimulus": "<p id=\"stim\">1</p>", "key_press": -1, "trial_type": "single-stim", "trial_index": 19, "time_elapsed": 404732, "internal_node_id": "0.0-10.0-9.0"}}, {"uniqueid": "MTK1170:3EG49X351VJ7R5D2EZ4SEAH7PAE6XR", "current_trial": 20, "dateTime": 1513268774411, "trialdata": {"rt": -1, "stimulus": "<p id=\"stim\">+</p>", "key_press": -1, "type": "FIXATION", "trial_type": "single-stim", "trial_index": 20, "time_elapsed": 406234, "internal_node_id": "0.0-11.0-0.0"}}, {"uniqueid": "MTK1170:3EG49X351VJ7R5D2EZ4SEAH7PAE6XR", "current_trial": 21, "dateTime": 1513268775613, "trialdata": {"rt": -1, "stimulus": "<p id=\"stim\">DORM</p>", "key_press": -1, "type": "PRES_VIS", "word": "dorm", "wordID": 487, "conditions": [18, 1200, "v", 18000], "trial": 0, "serialpos": 0, "trial_type": "single-stim", "trial_index": 21, "time_elapsed": 407436, "internal_node_id": "0.0-12.0"}}, {"uniqueid": "MTK1170:3EG49X351VJ7R5D2EZ4SEAH7PAE6XR", "current_trial": 22, "dateTime": 1513268777944, "trialdata": {"rt": -1, "stimulus": "<p id=\"stim\">OMELET</p>", "key_press": -1, "type": "PRES_VIS", "word": "omelet", "wordID": 975, "conditions": [18, 1200, "v", 18000], "trial": 0, "serialpos": 1, "trial_type": "single-stim", "trial_index": 22, "time_elapsed": 409767, "internal_node_id": "0.0-13.0"}}, {"uniqueid": "MTK1170:3EG49X351VJ7R5D2EZ4SEAH7PAE6XR", "current_trial": 23, "dateTime": 1513268780048, "trialdata": {"rt": -1, "stimulus": "<p id=\"stim\">BRIEFCASE</p>", "key_press": -1, "type": "PRES_VIS", "word": "briefcase", "wordID": 174, "conditions": [18, 1200, "v", 18000], "trial": 0, "serialpos": 2, "trial_type": "single-stim", "trial_index": 23, "time_elapsed": 411870, "internal_node_id": "0.0-14.0"}}, {"uniqueid": "MTK1170:3EG49X351VJ7R5D2EZ4SEAH7PAE6XR", "current_trial": 24, "dateTime": 1513268782286, "trialdata": {"rt": -1, "stimulus": "<p id=\"stim\">SUBWAY</p>", "key_press": -1, "type": "PRES_VIS", "word": "subway", "wordID": 1399, "conditions": [18, 1200, "v", 18000], "trial": 0, "serialpos": 3, "trial_type": "single-stim", "trial_index": 24, "time_elapsed": 414108, "internal_node_id": "0.0-15.0"}}, {"uniqueid": "MTK1170:3EG49X351VJ7R5D2EZ4SEAH7PAE6XR", "current_trial": 25, "dateTime": 1513268784343, "trialdata": {"rt": -1, "stimulus": "<p id=\"stim\">CROSS</p>", "key_press": -1, "type": "PRES_VIS", "word": "cross", "wordID": 412, "conditions": [18, 1200, "v", 18000], "trial": 0, "serialpos": 4, "trial_type": "single-stim", "trial_index": 25, "time_elapsed": 416166, "internal_node_id": "0.0-16.0"}}, {"uniqueid": "MTK1170:3EG49X351VJ7R5D2EZ4SEAH7PAE6XR", "current_trial": 26, "dateTime": 1513268786379, "trialdata": {"rt": -1, "stimulus": "<p id=\"stim\">STALLION</p>", "key_press": -1, "type": "PRES_VIS", "word": "stallion", "wordID": 1368, "conditions": [18, 1200, "v", 18000], "trial": 0, "serialpos": 5, "trial_type": "single-stim", "trial_index": 26, "time_elapsed": 418202, "internal_node_id": "0.0-17.0"}}, {"uniqueid": "MTK1170:3EG49X351VJ7R5D2EZ4SEAH7PAE6XR", "current_trial": 27, "dateTime": 1513268788535, "trialdata": {"rt": -1, "stimulus": "<p id=\"stim\">BODY</p>", "key_press": -1, "type": "PRES_VIS", "word": "body", "wordID": 144, "conditions": [18, 1200, "v", 18000], "trial": 0, "serialpos": 6, "trial_type": "single-stim", "trial_index": 27, "time_elapsed": 420358, "internal_node_id": "0.0-18.0"}}, {"uniqueid": "MTK1170:3EG49X351VJ7R5D2EZ4SEAH7PAE6XR", "current_trial": 28, "dateTime": 1513268790796, "trialdata": {"rt": -1, "stimulus": "<p id=\"stim\">WASP</p>", "key_press": -1, "type": "PRES_VIS", "word": "wasp", "wordID": 1592, "conditions": [18, 1200, "v", 18000], "trial": 0, "serialpos": 7, "trial_type": "single-stim", "trial_index": 28, "time_elapsed": 422619, "internal_node_id": "0.0-19.0"}}, {"uniqueid": "MTK1170:3EG49X351VJ7R5D2EZ4SEAH7PAE6XR", "current_trial": 29, "dateTime": 1513268792899, "trialdata": {"rt": -1, "stimulus": "<p id=\"stim\">SCULPTURE</p>", "key_press": -1, "type": "PRES_VIS", "word": "sculpture", "wordID": 1257, "conditions": [18, 1200, "v", 18000], "trial": 0, "serialpos": 8, "trial_type": "single-stim", "trial_index": 29, "time_elapsed": 424721, "internal_node_id": "0.0-20.0"}}, {"uniqueid": "MTK1170:3EG49X351VJ7R5D2EZ4SEAH7PAE6XR", "current_trial": 30, "dateTime": 1513268795265, "trialdata": {"rt": -1, "stimulus": "<p id=\"stim\">HOOD</p>", "key_press": -1, "type": "PRES_VIS", "word": "hood", "wordID": 713, "conditions": [18, 1200, "v", 18000], "trial": 0, "serialpos": 9, "trial_type": "single-stim", "trial_index": 30, "time_elapsed": 427088, "internal_node_id": "0.0-21.0"}}, {"uniqueid": "MTK1170:3EG49X351VJ7R5D2EZ4SEAH7PAE6XR", "current_trial": 31, "dateTime": 1513268797404, "trialdata": {"rt": -1, "stimulus": "<p id=\"stim\">QUEEN</p>", "key_press": -1, "type": "PRES_VIS", "word": "queen", "wordID": 1148, "conditions": [18, 1200, "v", 18000], "trial": 0, "serialpos": 10, "trial_type": "single-stim", "trial_index": 31, "time_elapsed": 429227, "internal_node_id": "0.0-22.0"}}, {"uniqueid": "MTK1170:3EG49X351VJ7R5D2EZ4SEAH7PAE6XR", "current_trial": 32, "dateTime": 1513268799529, "trialdata": {"rt": -1, "stimulus": "<p id=\"stim\">DAISY</p>", "key_press": -1, "type": "PRES_VIS", "word": "daisy", "wordID": 434, "conditions": [18, 1200, "v", 18000], "trial": 0, "serialpos": 11, "trial_type": "single-stim", "trial_index": 32, "time_elapsed": 431352, "internal_node_id": "0.0-23.0"}}, {"uniqueid": "MTK1170:3EG49X351VJ7R5D2EZ4SEAH7PAE6XR", "current_trial": 33, "dateTime": 1513268801609, "trialdata": {"rt": -1, "stimulus": "<p id=\"stim\">RUG</p>", "key_press": -1, "type": "PRES_VIS", "word": "rug", "wordID": 1214, "conditions": [18, 1200, "v", 18000], "trial": 0, "serialpos": 12, "trial_type": "single-stim", "trial_index": 33, "time_elapsed": 433432, "internal_node_id": "0.0-24.0"}}, {"uniqueid": "MTK1170:3EG49X351VJ7R5D2EZ4SEAH7PAE6XR", "current_trial": 34, "dateTime": 1513268803794, "trialdata": {"rt": -1, "stimulus": "<p id=\"stim\">ROD</p>", "key_press": -1, "type": "PRES_VIS", "word": "rod", "wordID": 1202, "conditions": [18, 1200, "v", 18000], "trial": 0, "serialpos": 13, "trial_type": "single-stim", "trial_index": 34, "time_elapsed": 435617, "internal_node_id": "0.0-25.0"}}, {"uniqueid": "MTK1170:3EG49X351VJ7R5D2EZ4SEAH7PAE6XR", "current_trial": 35, "dateTime": 1513268806155, "trialdata": {"rt": -1, "stimulus": "<p id=\"stim\">DONOR</p>", "key_press": -1, "type": "PRES_VIS", "word": "donor", "wordID": 484, "conditions": [18, 1200, "v", 18000], "trial": 0, "serialpos": 14, "trial_type": "single-stim", "trial_index": 35, "time_elapsed": 437978, "internal_node_id": "0.0-26.0"}}, {"uniqueid": "MTK1170:3EG49X351VJ7R5D2EZ4SEAH7PAE6XR", "current_trial": 36, "dateTime": 1513268808247, "trialdata": {"rt": -1, "stimulus": "<p id=\"stim\">FILM</p>", "key_press": -1, "type": "PRES_VIS", "word": "film", "wordID": 564, "conditions": [18, 1200, "v", 18000], "trial": 0, "serialpos": 15, "trial_type": "single-stim", "trial_index": 36, "time_elapsed": 440070, "internal_node_id": "0.0-27.0"}}, {"uniqueid": "MTK1170:3EG49X351VJ7R5D2EZ4SEAH7PAE6XR", "current_trial": 37, "dateTime": 1513268810500, "trialdata": {"rt": -1, "stimulus": "<p id=\"stim\">GARLIC</p>", "key_press": -1, "type": "PRES_VIS", "word": "garlic", "wordID": 623, "conditions": [18, 1200, "v", 18000], "trial": 0, "serialpos": 16, "trial_type": "single-stim", "trial_index": 37, "time_elapsed": 442323, "internal_node_id": "0.0-28.0"}}, {"uniqueid": "MTK1170:3EG49X351VJ7R5D2EZ4SEAH7PAE6XR", "current_trial": 38, "dateTime": 1513268812675, "trialdata": {"rt": -1, "stimulus": "<p id=\"stim\">COOKBOOK</p>", "key_press": -1, "type": "PRES_VIS", "word": "cookbook", "wordID": 372, "conditions": [18, 1200, "v", 18000], "trial": 0, "serialpos": 17, "trial_type": "single-stim", "trial_index": 38, "time_elapsed": 444498, "internal_node_id": "0.0-29.0"}}, {"uniqueid": "MTK1170:3EG49X351VJ7R5D2EZ4SEAH7PAE6XR", "current_trial": 39, "dateTime": 1513268815083, "trialdata": {"rt": -1, "stimulus": "", "key_press": -1, "type": "PRE_RECALL_DELAY", "trial_type": "single-stim", "trial_index": 39, "time_elapsed": 446906, "internal_node_id": "0.0-30.0-0.0"}}, {"uniqueid": "MTK1170:3EG49X351VJ7R5D2EZ4SEAH7PAE6XR", "current_trial": 40, "dateTime": 1513268815585, "trialdata": {"rt": -1000, "stimulus": "/static/audio/400Hz.wav", "key_press": -1, "type": "PRE_RECALL_ALERT", "trial_type": "single-audio", "trial_index": 40, "time_elapsed": 447408, "internal_node_id": "0.0-31.0"}}, {"uniqueid": "MTK1170:3EG49X351VJ7R5D2EZ4SEAH7PAE6XR", "current_trial": 41, "dateTime": 1513268875588, "trialdata": {"rt": [3433, 5058, 6338, 8202, 9922, 13097, 15498, 18922, 21154, 22681, 31225, 36689, 40113], "recwords": ["dorm", "film", "garlic", "cookbook", "subway", "briefcase", "omelet", "rug", "daisy", "rod", "subway", "stallion", "cross"], "type": "FREE_RECALL", "conditions": [18, 1200, "v", 18000], "trial": 0, "trial_type": "free-recall", "trial_index": 41, "time_elapsed": 507410, "internal_node_id": "0.0-32.0-0.0"}}, {"uniqueid": "MTK1170:3EG49X351VJ7R5D2EZ4SEAH7PAE6XR", "current_trial": 42, "dateTime": 1513268879708, "trialdata": {"rt": 2119, "key_press": 32, "type": "INSTRUCTIONS", "trial_type": "text", "trial_index": 42, "time_elapsed": 511531, "internal_node_id": "0.0-33.0"}}, {"uniqueid": "MTK1170:3EG49X351VJ7R5D2EZ4SEAH7PAE6XR", "current_trial": 43, "dateTime": 1513268899712, "trialdata": {"rt": [4789, 9462, 13013, 15493, 17358], "responses": ["12", "21", "21", "21", "8"], "num1": [6, 8, 6, 9, 1, 1], "num2": [5, 7, 9, 9, 5, 2], "num3": [1, 6, 6, 3, 2, 7], "type": "DISTRACTOR", "conditions": [18, 1200, "a", 18000], "trial": 1, "trial_type": "math-distractor", "trial_index": 43, "time_elapsed": 531535, "internal_node_id": "0.0-34.0"}}, {"uniqueid": "MTK1170:3EG49X351VJ7R5D2EZ4SEAH7PAE6XR", "current_trial": 44, "dateTime": 1513268902713, "trialdata": {"rt": -1, "stimulus": "<p id=\"stim\">10</p>", "key_press": -1, "trial_type": "single-stim", "trial_index": 44, "time_elapsed": 534536, "internal_node_id": "0.0-35.0-0.0"}}, {"uniqueid": "MTK1170:3EG49X351VJ7R5D2EZ4SEAH7PAE6XR", "current_trial": 45, "dateTime": 1513268903715, "trialdata": {"rt": -1, "stimulus": "<p id=\"stim\">9</p>", "key_press": -1, "trial_type": "single-stim", "trial_index": 45, "time_elapsed": 535538, "internal_node_id": "0.0-35.0-1.0"}}, {"uniqueid": "MTK1170:3EG49X351VJ7R5D2EZ4SEAH7PAE6XR", "current_trial": 46, "dateTime": 1513268904717, "trialdata": {"rt": -1, "stimulus": "<p id=\"stim\">8</p>", "key_press": -1, "trial_type": "single-stim", "trial_index": 46, "time_elapsed": 536539, "internal_node_id": "0.0-35.0-2.0"}}, {"uniqueid": "MTK1170:3EG49X351VJ7R5D2EZ4SEAH7PAE6XR", "current_trial": 47, "dateTime": 1513268905718, "trialdata": {"rt": -1, "stimulus": "<p id=\"stim\">7</p>", "key_press": -1, "trial_type": "single-stim", "trial_index": 47, "time_elapsed": 537541, "internal_node_id": "0.0-35.0-3.0"}}, {"uniqueid": "MTK1170:3EG49X351VJ7R5D2EZ4SEAH7PAE6XR", "current_trial": 48, "dateTime": 1513268906719, "trialdata": {"rt": -1, "stimulus": "<p id=\"stim\">6</p>", "key_press": -1, "trial_type": "single-stim", "trial_index": 48, "time_elapsed": 538542, "internal_node_id": "0.0-35.0-4.0"}}, {"uniqueid": "MTK1170:3EG49X351VJ7R5D2EZ4SEAH7PAE6XR", "current_trial": 49, "dateTime": 1513268907721, "trialdata": {"rt": -1, "stimulus": "<p id=\"stim\">5</p>", "key_press": -1, "trial_type": "single-stim", "trial_index": 49, "time_elapsed": 539544, "internal_node_id": "0.0-35.0-5.0"}}, {"uniqueid": "MTK1170:3EG49X351VJ7R5D2EZ4SEAH7PAE6XR", "current_trial": 50, "dateTime": 1513268908722, "trialdata": {"rt": -1, "stimulus": "<p id=\"stim\">4</p>", "key_press": -1, "trial_type": "single-stim", "trial_index": 50, "time_elapsed": 540545, "internal_node_id": "0.0-35.0-6.0"}}, {"uniqueid": "MTK1170:3EG49X351VJ7R5D2EZ4SEAH7PAE6XR", "current_trial": 51, "dateTime": 1513268909723, "trialdata": {"rt": -1, "stimulus": "<p id=\"stim\">3</p>", "key_press": -1, "trial_type": "single-stim", "trial_index": 51, "time_elapsed": 541546, "internal_node_id": "0.0-35.0-7.0"}}, {"uniqueid": "MTK1170:3EG49X351VJ7R5D2EZ4SEAH7PAE6XR", "current_trial": 52, "dateTime": 1513268910724, "trialdata": {"rt": -1, "stimulus": "<p id=\"stim\">2</p>", "key_press": -1, "trial_type": "single-stim", "trial_index": 52, "time_elapsed": 542547, "internal_node_id": "0.0-35.0-8.0"}}, {"uniqueid": "MTK1170:3EG49X351VJ7R5D2EZ4SEAH7PAE6XR", "current_trial": 53, "dateTime": 1513268911726, "trialdata": {"rt": -1, "stimulus": "<p id=\"stim\">1</p>", "key_press": -1, "trial_type": "single-stim", "trial_index": 53, "time_elapsed": 543549, "internal_node_id": "0.0-35.0-9.0"}}, {"uniqueid": "MTK1170:3EG49X351VJ7R5D2EZ4SEAH7PAE6XR", "current_trial": 54, "dateTime": 1513268913228, "trialdata": {"rt": -1, "stimulus": "<p id=\"stim\">+</p>", "key_press": -1, "type": "FIXATION", "trial_type": "single-stim", "trial_index": 54, "time_elapsed": 545051, "internal_node_id": "0.0-36.0-0.0"}}, {"uniqueid": "MTK1170:3EG49X351VJ7R5D2EZ4SEAH7PAE6XR", "current_trial": 55, "dateTime": 1513268915572, "trialdata": {"rt": -1000, "stimulus": "/static/audio/wordpool/SOFTBALL.wav", "key_press": -1, "type": "PRES_AUD", "word": "softball", "wordID": 1342, "conditions": [18, 1200, "a", 18000], "trial": 1, "serialpos": 0, "trial_type": "single-audio", "trial_index": 55, "time_elapsed": 547395, "internal_node_id": "0.0-37.0"}}, {"uniqueid": "MTK1170:3EG49X351VJ7R5D2EZ4SEAH7PAE6XR", "current_trial": 56, "dateTime": 1513268917729, "trialdata": {"rt": -1000, "stimulus": "/static/audio/wordpool/GUARD.wav", "key_press": -1, "type": "PRES_AUD", "word": "guard", "wordID": 666, "conditions": [18, 1200, "a", 18000], "trial": 1, "serialpos": 1, "trial_type": "single-audio", "trial_index": 56, "time_elapsed": 549552, "internal_node_id": "0.0-38.0"}}, {"uniqueid": "MTK1170:3EG49X351VJ7R5D2EZ4SEAH7PAE6XR", "current_trial": 57, "dateTime": 1513268919924, "trialdata": {"rt": -1000, "stimulus": "/static/audio/wordpool/VELVET.wav", "key_press": -1, "type": "PRES_AUD", "word": "velvet", "wordID": 1554, "conditions": [18, 1200, "a", 18000], "trial": 1, "serialpos": 2, "trial_type": "single-audio", "trial_index": 57, "time_elapsed": 551747, "internal_node_id": "0.0-39.0"}}, {"uniqueid": "MTK1170:3EG49X351VJ7R5D2EZ4SEAH7PAE6XR", "current_trial": 58, "dateTime": 1513268922214, "trialdata": {"rt": -1000, "stimulus": "/static/audio/wordpool/FOREST.wav", "key_press": -1, "type": "PRES_AUD", "word": "forest", "wordID": 592, "conditions": [18, 1200, "a", 18000], "trial": 1, "serialpos": 3, "trial_type": "single-audio", "trial_index": 58, "time_elapsed": 554036, "internal_node_id": "0.0-40.0"}}, {"uniqueid": "MTK1170:3EG49X351VJ7R5D2EZ4SEAH7PAE6XR", "current_trial": 59, "dateTime": 1513268924514, "trialdata": {"rt": -1000, "stimulus": "/static/audio/wordpool/SCARECROW.wav", "key_press": -1, "type": "PRES_AUD", "word": "scarecrow", "wordID": 1244, "conditions": [18, 1200, "a", 18000], "trial": 1, "serialpos": 4, "trial_type": "single-audio", "trial_index": 59, "time_elapsed": 556337, "internal_node_id": "0.0-41.0"}}, {"uniqueid": "MTK1170:3EG49X351VJ7R5D2EZ4SEAH7PAE6XR", "current_trial": 60, "dateTime": 1513268926689, "trialdata": {"rt": -1000, "stimulus": "/static/audio/wordpool/HELMET.wav", "key_press": -1, "type": "PRES_AUD", "word": "helmet", "wordID": 701, "conditions": [18, 1200, "a", 18000], "trial": 1, "serialpos": 5, "trial_type": "single-audio", "trial_index": 60, "time_elapsed": 558512, "internal_node_id": "0.0-42.0"}}, {"uniqueid": "MTK1170:3EG49X351VJ7R5D2EZ4SEAH7PAE6XR", "current_trial": 61, "dateTime": 1513268928802, "trialdata": {"rt": -1000, "stimulus": "/static/audio/wordpool/SPHINX.wav", "key_press": -1, "type": "PRES_AUD", "word": "sphinx", "wordID": 1348, "conditions": [18, 1200, "a", 18000], "trial": 1, "serialpos": 6, "trial_type": "single-audio", "trial_index": 61, "time_elapsed": 560625, "internal_node_id": "0.0-43.0"}}, {"uniqueid": "MTK1170:3EG49X351VJ7R5D2EZ4SEAH7PAE6XR", "current_trial": 62, "dateTime": 1513268930993, "trialdata": {"rt": -1000, "stimulus": "/static/audio/wordpool/WITNESS.wav", "key_press": -1, "type": "PRES_AUD", "word": "witness", "wordID": 1617, "conditions": [18, 1200, "a", 18000], "trial": 1, "serialpos": 7, "trial_type": "single-audio", "trial_index": 62, "time_elapsed": 562815, "internal_node_id": "0.0-44.0"}}, {"uniqueid": "MTK1170:3EG49X351VJ7R5D2EZ4SEAH7PAE6XR", "current_trial": 63, "dateTime": 1513268933143, "trialdata": {"rt": -1000, "stimulus": "/static/audio/wordpool/KLEENEX.wav", "key_press": -1, "type": "PRES_AUD", "word": "kleenex", "wordID": 781, "conditions": [18, 1200, "a", 18000], "trial": 1, "serialpos": 8, "trial_type": "single-audio", "trial_index": 63, "time_elapsed": 564966, "internal_node_id": "0.0-45.0"}}, {"uniqueid": "MTK1170:3EG49X351VJ7R5D2EZ4SEAH7PAE6XR", "current_trial": 64, "dateTime": 1513268935424, "trialdata": {"rt": -1000, "stimulus": "/static/audio/wordpool/DASHBOARD.wav", "key_press": -1, "type": "PRES_AUD", "word": "dashboard", "wordID": 440, "conditions": [18, 1200, "a", 18000], "trial": 1, "serialpos": 9, "trial_type": "single-audio", "trial_index": 64, "time_elapsed": 567247, "internal_node_id": "0.0-46.0"}}, {"uniqueid": "MTK1170:3EG49X351VJ7R5D2EZ4SEAH7PAE6XR", "current_trial": 65, "dateTime": 1513268937524, "trialdata": {"rt": -1000, "stimulus": "/static/audio/wordpool/BIKE.wav", "key_press": -1, "type": "PRES_AUD", "word": "bike", "wordID": 124, "conditions": [18, 1200, "a", 18000], "trial": 1, "serialpos": 10, "trial_type": "single-audio", "trial_index": 65, "time_elapsed": 569347, "internal_node_id": "0.0-47.0"}}, {"uniqueid": "MTK1170:3EG49X351VJ7R5D2EZ4SEAH7PAE6XR", "current_trial": 66, "dateTime": 1513268939546, "trialdata": {"rt": -1000, "stimulus": "/static/audio/wordpool/STAMP.wav", "key_press": -1, "type": "PRES_AUD", "word": "stamp", "wordID": 1369, "conditions": [18, 1200, "a", 18000], "trial": 1, "serialpos": 11, "trial_type": "single-audio", "trial_index": 66, "time_elapsed": 571369, "internal_node_id": "0.0-48.0"}}, {"uniqueid": "MTK1170:3EG49X351VJ7R5D2EZ4SEAH7PAE6XR", "current_trial": 67, "dateTime": 1513268941837, "trialdata": {"rt": -1000, "stimulus": "/static/audio/wordpool/SHRUB.wav", "key_press": -1, "type": "PRES_AUD", "word": "shrub", "wordID": 1298, "conditions": [18, 1200, "a", 18000], "trial": 1, "serialpos": 12, "trial_type": "single-audio", "trial_index": 67, "time_elapsed": 573660, "internal_node_id": "0.0-49.0"}}, {"uniqueid": "MTK1170:3EG49X351VJ7R5D2EZ4SEAH7PAE6XR", "current_trial": 68, "dateTime": 1513268943908, "trialdata": {"rt": -1000, "stimulus": "/static/audio/wordpool/SUITCASE.wav", "key_press": -1, "type": "PRES_AUD", "word": "suitcase", "wordID": 1402, "conditions": [18, 1200, "a", 18000], "trial": 1, "serialpos": 13, "trial_type": "single-audio", "trial_index": 68, "time_elapsed": 575727, "internal_node_id": "0.0-50.0"}}, {"uniqueid": "MTK1170:3EG49X351VJ7R5D2EZ4SEAH7PAE6XR", "current_trial": 69, "dateTime": 1513268946241, "trialdata": {"rt": -1000, "stimulus": "/static/audio/wordpool/STATUE.wav", "key_press": -1, "type": "PRES_AUD", "word": "statue", "wordID": 1373, "conditions": [18, 1200, "a", 18000], "trial": 1, "serialpos": 14, "trial_type": "single-audio", "trial_index": 69, "time_elapsed": 578064, "internal_node_id": "0.0-51.0"}}, {"uniqueid": "MTK1170:3EG49X351VJ7R5D2EZ4SEAH7PAE6XR", "current_trial": 70, "dateTime": 1513268948602, "trialdata": {"rt": -1000, "stimulus": "/static/audio/wordpool/SCOTCH.wav", "key_press": -1, "type": "PRES_AUD", "word": "scotch", "wordID": 1250, "conditions": [18, 1200, "a", 18000], "trial": 1, "serialpos": 15, "trial_type": "single-audio", "trial_index": 70, "time_elapsed": 580425, "internal_node_id": "0.0-52.0"}}, {"uniqueid": "MTK1170:3EG49X351VJ7R5D2EZ4SEAH7PAE6XR", "current_trial": 71, "dateTime": 1513268950741, "trialdata": {"rt": -1000, "stimulus": "/static/audio/wordpool/FLUTE.wav", "key_press": -1, "type": "PRES_AUD", "word": "flute", "wordID": 584, "conditions": [18, 1200, "a", 18000], "trial": 1, "serialpos": 16, "trial_type": "single-audio", "trial_index": 71, "time_elapsed": 582564, "internal_node_id": "0.0-53.0"}}, {"uniqueid": "MTK1170:3EG49X351VJ7R5D2EZ4SEAH7PAE6XR", "current_trial": 72, "dateTime": 1513268952753, "trialdata": {"rt": -1000, "stimulus": "/static/audio/wordpool/SKETCH.wav", "key_press": -1, "type": "PRES_AUD", "word": "sketch", "wordID": 1314, "conditions": [18, 1200, "a", 18000], "trial": 1, "serialpos": 17, "trial_type": "single-audio", "trial_index": 72, "time_elapsed": 584576, "internal_node_id": "0.0-54.0"}}, {"uniqueid": "MTK1170:3EG49X351VJ7R5D2EZ4SEAH7PAE6XR", "current_trial": 73, "dateTime": 1513268953996, "trialdata": {"rt": -1, "stimulus": "", "key_press": -1, "type": "PRE_RECALL_DELAY", "trial_type": "single-stim", "trial_index": 73, "time_elapsed": 585819, "internal_node_id": "0.0-55.0-0.0"}}, {"uniqueid": "MTK1170:3EG49X351VJ7R5D2EZ4SEAH7PAE6XR", "current_trial": 74, "dateTime": 1513268954497, "trialdata": {"rt": -1000, "stimulus": "/static/audio/400Hz.wav", "key_press": -1, "type": "PRE_RECALL_ALERT", "trial_type": "single-audio", "trial_index": 74, "time_elapsed": 586320, "internal_node_id": "0.0-56.0"}}, {"uniqueid": "MTK1170:3EG49X351VJ7R5D2EZ4SEAH7PAE6XR", "current_trial": 75, "dateTime": 1513269014499, "trialdata": {"rt": [3090, 4498, 7417, 10122, 15969, 19426, 26378, 29417, 37618, 39081], "recwords": ["sketch", "flute", "suitcase", "statue", "helmet", "kleenex", "forest", "scarecrow", "sphinx", "witness"], "type": "FREE_RECALL", "conditions": [18, 1200, "a", 18000], "trial": 1, "trial_type": "free-recall", "trial_index": 75, "time_elapsed": 646321, "internal_node_id": "0.0-57.0-0.0"}}, {"uniqueid": "MTK1170:3EG49X351VJ7R5D2EZ4SEAH7PAE6XR", "current_trial": 76, "dateTime": 1513269019321, "trialdata": {"rt": 2816, "key_press": 32, "type": "INSTRUCTIONS", "trial_type": "text", "trial_index": 76, "time_elapsed": 651139, "internal_node_id": "0.0-58.0"}}, {"uniqueid": "MTK1170:3EG49X351VJ7R5D2EZ4SEAH7PAE6XR", "current_trial": 77, "dateTime": 1513269044324, "trialdata": {"rt": [3178, 5274, 6577, 9410, 10778, 12401, 14425, 18090, 19634, 23082], "responses": ["13", "14", "12", "15", "18", "13", "22", "14", "11", "22"], "num1": [4, 7, 7, 2, 9, 2, 8, 1, 8, 9, 6], "num2": [3, 2, 3, 4, 1, 3, 8, 5, 1, 5, 2], "num3": [6, 5, 2, 9, 8, 8, 6, 8, 2, 8, 7], "type": "DISTRACTOR", "conditions": [24, 800, "a", 24000], "trial": 2, "trial_type": "math-distractor", "trial_index": 77, "time_elapsed": 676147, "internal_node_id": "0.0-59.0"}}, {"uniqueid": "MTK1170:3EG49X351VJ7R5D2EZ4SEAH7PAE6XR", "current_trial": 78, "dateTime": 1513269047325, "trialdata": {"rt": -1, "stimulus": "<p id=\"stim\">10</p>", "key_press": -1, "trial_type": "single-stim", "trial_index": 78, "time_elapsed": 679148, "internal_node_id": "0.0-60.0-0.0"}}, {"uniqueid": "MTK1170:3EG49X351VJ7R5D2EZ4SEAH7PAE6XR", "current_trial": 79, "dateTime": 1513269048327, "trialdata": {"rt": -1, "stimulus": "<p id=\"stim\">9</p>", "key_press": -1, "trial_type": "single-stim", "trial_index": 79, "time_elapsed": 680149, "internal_node_id": "0.0-60.0-1.0"}}, {"uniqueid": "MTK1170:3EG49X351VJ7R5D2EZ4SEAH7PAE6XR", "current_trial": 80, "dateTime": 1513269049328, "trialdata": {"rt": -1, "stimulus": "<p id=\"stim\">8</p>", "key_press": -1, "trial_type": "single-stim", "trial_index": 80, "time_elapsed": 681151, "internal_node_id": "0.0-60.0-2.0"}}, {"uniqueid": "MTK1170:3EG49X351VJ7R5D2EZ4SEAH7PAE6XR", "current_trial": 81, "dateTime": 1513269050329, "trialdata": {"rt": -1, "stimulus": "<p id=\"stim\">7</p>", "key_press": -1, "trial_type": "single-stim", "trial_index": 81, "time_elapsed": 682152, "internal_node_id": "0.0-60.0-3.0"}}, {"uniqueid": "MTK1170:3EG49X351VJ7R5D2EZ4SEAH7PAE6XR", "current_trial": 82, "dateTime": 1513269051330, "trialdata": {"rt": -1, "stimulus": "<p id=\"stim\">6</p>", "key_press": -1, "trial_type": "single-stim", "trial_index": 82, "time_elapsed": 683153, "internal_node_id": "0.0-60.0-4.0"}}, {"uniqueid": "MTK1170:3EG49X351VJ7R5D2EZ4SEAH7PAE6XR", "current_trial": 83, "dateTime": 1513269052332, "trialdata": {"rt": -1, "stimulus": "<p id=\"stim\">5</p>", "key_press": -1, "trial_type": "single-stim", "trial_index": 83, "time_elapsed": 684155, "internal_node_id": "0.0-60.0-5.0"}}, {"uniqueid": "MTK1170:3EG49X351VJ7R5D2EZ4SEAH7PAE6XR", "current_trial": 84, "dateTime": 1513269053334, "trialdata": {"rt": -1, "stimulus": "<p id=\"stim\">4</p>", "key_press": -1, "trial_type": "single-stim", "trial_index": 84, "time_elapsed": 685157, "internal_node_id": "0.0-60.0-6.0"}}, {"uniqueid": "MTK1170:3EG49X351VJ7R5D2EZ4SEAH7PAE6XR", "current_trial": 85, "dateTime": 1513269054334, "trialdata": {"rt": -1, "stimulus": "<p id=\"stim\">3</p>", "key_press": -1, "trial_type": "single-stim", "trial_index": 85, "time_elapsed": 686157, "internal_node_id": "0.0-60.0-7.0"}}, {"uniqueid": "MTK1170:3EG49X351VJ7R5D2EZ4SEAH7PAE6XR", "current_trial": 86, "dateTime": 1513269055336, "trialdata": {"rt": -1, "stimulus": "<p id=\"stim\">2</p>", "key_press": -1, "trial_type": "single-stim", "trial_index": 86, "time_elapsed": 687159, "internal_node_id": "0.0-60.0-8.0"}}, {"uniqueid": "MTK1170:3EG49X351VJ7R5D2EZ4SEAH7PAE6XR", "current_trial": 87, "dateTime": 1513269056336, "trialdata": {"rt": -1, "stimulus": "<p id=\"stim\">1</p>", "key_press": -1, "trial_type": "single-stim", "trial_index": 87, "time_elapsed": 688159, "internal_node_id": "0.0-60.0-9.0"}}, {"uniqueid": "MTK1170:3EG49X351VJ7R5D2EZ4SEAH7PAE6XR", "current_trial": 88, "dateTime": 1513269057838, "trialdata": {"rt": -1, "stimulus": "<p id=\"stim\">+</p>", "key_press": -1, "type": "FIXATION", "trial_type": "single-stim", "trial_index": 88, "time_elapsed": 689661, "internal_node_id": "0.0-61.0-0.0"}}, {"uniqueid": "MTK1170:3EG49X351VJ7R5D2EZ4SEAH7PAE6XR", "current_trial": 89, "dateTime": 1513269059568, "trialdata": {"rt": -1000, "stimulus": "/static/audio/wordpool/ATOM.wav", "key_press": -1, "type": "PRES_AUD", "word": "atom", "wordID": 54, "conditions": [24, 800, "a", 24000], "trial": 2, "serialpos": 0, "trial_type": "single-audio", "trial_index": 89, "time_elapsed": 691388, "internal_node_id": "0.0-62.0"}}, {"uniqueid": "MTK1170:3EG49X351VJ7R5D2EZ4SEAH7PAE6XR", "current_trial": 90, "dateTime": 1513269061325, "trialdata": {"rt": -1000, "stimulus": "/static/audio/wordpool/REPORT.wav", "key_press": -1, "type": "PRES_AUD", "word": "report", "wordID": 1183, "conditions": [24, 800, "a", 24000], "trial": 2, "serialpos": 1, "trial_type": "single-audio", "trial_index": 90, "time_elapsed": 693148, "internal_node_id": "0.0-63.0"}}, {"uniqueid": "MTK1170:3EG49X351VJ7R5D2EZ4SEAH7PAE6XR", "current_trial": 91, "dateTime": 1513269063311, "trialdata": {"rt": -1000, "stimulus": "/static/audio/wordpool/SPIDER.wav", "key_press": -1, "type": "PRES_AUD", "word": "spider", "wordID": 1350, "conditions": [24, 800, "a", 24000], "trial": 2, "serialpos": 2, "trial_type": "single-audio", "trial_index": 91, "time_elapsed": 695134, "internal_node_id": "0.0-64.0"}}, {"uniqueid": "MTK1170:3EG49X351VJ7R5D2EZ4SEAH7PAE6XR", "current_trial": 92, "dateTime": 1513269065157, "trialdata": {"rt": -1000, "stimulus": "/static/audio/wordpool/HOOK.wav", "key_press": -1, "type": "PRES_AUD", "word": "hook", "wordID": 714, "conditions": [24, 800, "a", 24000], "trial": 2, "serialpos": 3, "trial_type": "single-audio", "trial_index": 92, "time_elapsed": 696980, "internal_node_id": "0.0-65.0"}}, {"uniqueid": "MTK1170:3EG49X351VJ7R5D2EZ4SEAH7PAE6XR", "current_trial": 93, "dateTime": 1513269067042, "trialdata": {"rt": -1000, "stimulus": "/static/audio/wordpool/DIVER.wav", "key_press": -1, "type": "PRES_AUD", "word": "diver", "wordID": 475, "conditions": [24, 800, "a", 24000], "trial": 2, "serialpos": 4, "trial_type": "single-audio", "trial_index": 93, "time_elapsed": 698865, "internal_node_id": "0.0-66.0"}}, {"uniqueid": "MTK1170:3EG49X351VJ7R5D2EZ4SEAH7PAE6XR", "current_trial": 94, "dateTime": 1513269068994, "trialdata": {"rt": -1000, "stimulus": "/static/audio/wordpool/SNAKE.wav", "key_press": -1, "type": "PRES_AUD", "word": "snake", "wordID": 1332, "conditions": [24, 800, "a", 24000], "trial": 2, "serialpos": 5, "trial_type": "single-audio", "trial_index": 94, "time_elapsed": 700817, "internal_node_id": "0.0-67.0"}}, {"uniqueid": "MTK1170:3EG49X351VJ7R5D2EZ4SEAH7PAE6XR", "current_trial": 95, "dateTime": 1513269070824, "trialdata": {"rt": -1000, "stimulus": "/static/audio/wordpool/WOMAN.wav", "key_press": -1, "type": "PRES_AUD", "word": "woman", "wordID": 1619, "conditions": [24, 800, "a", 24000], "trial": 2, "serialpos": 6, "trial_type": "single-audio", "trial_index": 95, "time_elapsed": 702647, "internal_node_id": "0.0-68.0"}}, {"uniqueid": "MTK1170:3EG49X351VJ7R5D2EZ4SEAH7PAE6XR", "current_trial": 96, "dateTime": 1513269072743, "trialdata": {"rt": -1000, "stimulus": "/static/audio/wordpool/LADY.wav", "key_press": -1, "type": "PRES_AUD", "word": "lady", "wordID": 793, "conditions": [24, 800, "a", 24000], "trial": 2, "serialpos": 7, "trial_type": "single-audio", "trial_index": 96, "time_elapsed": 704566, "internal_node_id": "0.0-69.0"}}, {"uniqueid": "MTK1170:3EG49X351VJ7R5D2EZ4SEAH7PAE6XR", "current_trial": 97, "dateTime": 1513269074626, "trialdata": {"rt": -1000, "stimulus": "/static/audio/wordpool/TRENCH.wav", "key_press": -1, "type": "PRES_AUD", "word": "trench", "wordID": 1502, "conditions": [24, 800, "a", 24000], "trial": 2, "serialpos": 8, "trial_type": "single-audio", "trial_index": 97, "time_elapsed": 706449, "internal_node_id": "0.0-70.0"}}, {"uniqueid": "MTK1170:3EG49X351VJ7R5D2EZ4SEAH7PAE6XR", "current_trial": 98, "dateTime": 1513269076425, "trialdata": {"rt": -1000, "stimulus": "/static/audio/wordpool/WORKER.wav", "key_press": -1, "type": "PRES_AUD", "word": "worker", "wordID": 1620, "conditions": [24, 800, "a", 24000], "trial": 2, "serialpos": 9, "trial_type": "single-audio", "trial_index": 98, "time_elapsed": 708248, "internal_node_id": "0.0-71.0"}}, {"uniqueid": "MTK1170:3EG49X351VJ7R5D2EZ4SEAH7PAE6XR", "current_trial": 99, "dateTime": 1513269078158, "trialdata": {"rt": -1000, "stimulus": "/static/audio/wordpool/INFANT.wav", "key_press": -1, "type": "PRES_AUD", "word": "infant", "wordID": 736, "conditions": [24, 800, "a", 24000], "trial": 2, "serialpos": 10, "trial_type": "single-audio", "trial_index": 99, "time_elapsed": 709981, "internal_node_id": "0.0-72.0"}}, {"uniqueid": "MTK1170:3EG49X351VJ7R5D2EZ4SEAH7PAE6XR", "current_trial": 100, "dateTime": 1513269079845, "trialdata": {"rt": -1000, "stimulus": "/static/audio/wordpool/SUNSET.wav", "key_press": -1, "type": "PRES_AUD", "word": "sunset", "wordID": 1407, "conditions": [24, 800, "a", 24000], "trial": 2, "serialpos": 11, "trial_type": "single-audio", "trial_index": 100, "time_elapsed": 711668, "internal_node_id": "0.0-73.0"}}, {"uniqueid": "MTK1170:3EG49X351VJ7R5D2EZ4SEAH7PAE6XR", "current_trial": 101, "dateTime": 1513269081779, "trialdata": {"rt": -1000, "stimulus": "/static/audio/wordpool/STICKER.wav", "key_press": -1, "type": "PRES_AUD", "word": "sticker", "wordID": 1381, "conditions": [24, 800, "a", 24000], "trial": 2, "serialpos": 12, "trial_type": "single-audio", "trial_index": 101, "time_elapsed": 713602, "internal_node_id": "0.0-74.0"}}, {"uniqueid": "MTK1170:3EG49X351VJ7R5D2EZ4SEAH7PAE6XR", "current_trial": 102, "dateTime": 1513269083771, "trialdata": {"rt": -1000, "stimulus": "/static/audio/wordpool/FLASK.wav", "key_press": -1, "type": "PRES_AUD", "word": "flask", "wordID": 575, "conditions": [24, 800, "a", 24000], "trial": 2, "serialpos": 13, "trial_type": "single-audio", "trial_index": 102, "time_elapsed": 715594, "internal_node_id": "0.0-75.0"}}, {"uniqueid": "MTK1170:3EG49X351VJ7R5D2EZ4SEAH7PAE6XR", "current_trial": 103, "dateTime": 1513269085742, "trialdata": {"rt": -1000, "stimulus": "/static/audio/wordpool/VALLEY.wav", "key_press": -1, "type": "PRES_AUD", "word": "valley", "wordID": 1544, "conditions": [24, 800, "a", 24000], "trial": 2, "serialpos": 14, "trial_type": "single-audio", "trial_index": 103, "time_elapsed": 717565, "internal_node_id": "0.0-76.0"}}, {"uniqueid": "MTK1170:3EG49X351VJ7R5D2EZ4SEAH7PAE6XR", "current_trial": 104, "dateTime": 1513269087473, "trialdata": {"rt": -1000, "stimulus": "/static/audio/wordpool/SMOG.wav", "key_press": -1, "type": "PRES_AUD", "word": "smog", "wordID": 1329, "conditions": [24, 800, "a", 24000], "trial": 2, "serialpos": 15, "trial_type": "single-audio", "trial_index": 104, "time_elapsed": 719296, "internal_node_id": "0.0-77.0"}}, {"uniqueid": "MTK1170:3EG49X351VJ7R5D2EZ4SEAH7PAE6XR", "current_trial": 105, "dateTime": 1513269089363, "trialdata": {"rt": -1000, "stimulus": "/static/audio/wordpool/GALLON.wav", "key_press": -1, "type": "PRES_AUD", "word": "gallon", "wordID": 617, "conditions": [24, 800, "a", 24000], "trial": 2, "serialpos": 16, "trial_type": "single-audio", "trial_index": 105, "time_elapsed": 721186, "internal_node_id": "0.0-78.0"}}, {"uniqueid": "MTK1170:3EG49X351VJ7R5D2EZ4SEAH7PAE6XR", "current_trial": 106, "dateTime": 1513269091330, "trialdata": {"rt": -1000, "stimulus": "/static/audio/wordpool/PICTURE.wav", "key_press": -1, "type": "PRES_AUD", "word": "picture", "wordID": 1060, "conditions": [24, 800, "a", 24000], "trial": 2, "serialpos": 17, "trial_type": "single-audio", "trial_index": 106, "time_elapsed": 723153, "internal_node_id": "0.0-79.0"}}, {"uniqueid": "MTK1170:3EG49X351VJ7R5D2EZ4SEAH7PAE6XR", "current_trial": 107, "dateTime": 1513269093159, "trialdata": {"rt": -1000, "stimulus": "/static/audio/wordpool/PORTRAIT.wav", "key_press": -1, "type": "PRES_AUD", "word": "portrait", "wordID": 1110, "conditions": [24, 800, "a", 24000], "trial": 2, "serialpos": 18, "trial_type": "single-audio", "trial_index": 107, "time_elapsed": 724982, "internal_node_id": "0.0-80.0"}}, {"uniqueid": "MTK1170:3EG49X351VJ7R5D2EZ4SEAH7PAE6XR", "current_trial": 108, "dateTime": 1513269094950, "trialdata": {"rt": -1000, "stimulus": "/static/audio/wordpool/TWISTER.wav", "key_press": -1, "type": "PRES_AUD", "word": "twister", "wordID": 1529, "conditions": [24, 800, "a", 24000], "trial": 2, "serialpos": 19, "trial_type": "single-audio", "trial_index": 108, "time_elapsed": 726773, "internal_node_id": "0.0-81.0"}}, {"uniqueid": "MTK1170:3EG49X351VJ7R5D2EZ4SEAH7PAE6XR", "current_trial": 109, "dateTime": 1513269096810, "trialdata": {"rt": -1000, "stimulus": "/static/audio/wordpool/TOASTER.wav", "key_press": -1, "type": "PRES_AUD", "word": "toaster", "wordID": 1471, "conditions": [24, 800, "a", 24000], "trial": 2, "serialpos": 20, "trial_type": "single-audio", "trial_index": 109, "time_elapsed": 728633, "internal_node_id": "0.0-82.0"}}, {"uniqueid": "MTK1170:3EG49X351VJ7R5D2EZ4SEAH7PAE6XR", "current_trial": 110, "dateTime": 1513269098770, "trialdata": {"rt": -1000, "stimulus": "/static/audio/wordpool/BEAKER.wav", "key_press": -1, "type": "PRES_AUD", "word": "beaker", "wordID": 103, "conditions": [24, 800, "a", 24000], "trial": 2, "serialpos": 21, "trial_type": "single-audio", "trial_index": 110, "time_elapsed": 730593, "internal_node_id": "0.0-83.0"}}, {"uniqueid": "MTK1170:3EG49X351VJ7R5D2EZ4SEAH7PAE6XR", "current_trial": 111, "dateTime": 1513269100683, "trialdata": {"rt": -1000, "stimulus": "/static/audio/wordpool/MACHINE.wav", "key_press": -1, "type": "PRES_AUD", "word": "machine", "wordID": 851, "conditions": [24, 800, "a", 24000], "trial": 2, "serialpos": 22, "trial_type": "single-audio", "trial_index": 111, "time_elapsed": 732506, "internal_node_id": "0.0-84.0"}}, {"uniqueid": "MTK1170:3EG49X351VJ7R5D2EZ4SEAH7PAE6XR", "current_trial": 112, "dateTime": 1513269102292, "trialdata": {"rt": -1000, "stimulus": "/static/audio/wordpool/COCKTAIL.wav", "key_press": -1, "type": "PRES_AUD", "word": "cocktail", "wordID": 337, "conditions": [24, 800, "a", 24000], "trial": 2, "serialpos": 23, "trial_type": "single-audio", "trial_index": 112, "time_elapsed": 734115, "internal_node_id": "0.0-85.0"}}, {"uniqueid": "MTK1170:3EG49X351VJ7R5D2EZ4SEAH7PAE6XR", "current_trial": 113, "dateTime": 1513269103516, "trialdata": {"rt": -1, "stimulus": "", "key_press": -1, "type": "PRE_RECALL_DELAY", "trial_type": "single-stim", "trial_index": 113, "time_elapsed": 735339, "internal_node_id": "0.0-86.0-0.0"}}, {"uniqueid": "MTK1170:3EG49X351VJ7R5D2EZ4SEAH7PAE6XR", "current_trial": 114, "dateTime": 1513269104017, "trialdata": {"rt": -1000, "stimulus": "/static/audio/400Hz.wav", "key_press": -1, "type": "PRE_RECALL_ALERT", "trial_type": "single-audio", "trial_index": 114, "time_elapsed": 735840, "internal_node_id": "0.0-87.0"}}, {"uniqueid": "MTK1170:3EG49X351VJ7R5D2EZ4SEAH7PAE6XR", "current_trial": 115, "dateTime": 1513269164022, "trialdata": {"rt": [2362, 3971, 5778, 7987, 14971, 16538, 19355, 22267, 25483, 30755, 32963], "recwords": ["cocktail", "beaker", "flask", "infant", "woman", "lady", "hook", "snake", "swimmer", "toaster", "twister"], "type": "FREE_RECALL", "conditions": [24, 800, "a", 24000], "trial": 2, "trial_type": "free-recall", "trial_index": 115, "time_elapsed": 795840, "internal_node_id": "0.0-88.0-0.0"}}, {"uniqueid": "MTK1170:3EG49X351VJ7R5D2EZ4SEAH7PAE6XR", "current_trial": 116, "dateTime": 1513269172492, "trialdata": {"rt": 6467, "key_press": 32, "type": "INSTRUCTIONS", "trial_type": "text", "trial_index": 116, "time_elapsed": 804315, "internal_node_id": "0.0-89.0"}}, {"uniqueid": "MTK1170:3EG49X351VJ7R5D2EZ4SEAH7PAE6XR", "current_trial": 117, "dateTime": 1513269186494, "trialdata": {"rt": [2332, 4116, 6565, 7869, 9924, 11949], "responses": ["13", "16", "17", "14", "12", "21"], "num1": [1, 6, 8, 4, 4, 3, 5], "num2": [3, 2, 4, 9, 5, 9, 9], "num3": [9, 8, 5, 1, 3, 9, 2], "type": "DISTRACTOR", "conditions": [24, 800, "a", 12000], "trial": 3, "trial_type": "math-distractor", "trial_index": 117, "time_elapsed": 818317, "internal_node_id": "0.0-90.0"}}, {"uniqueid": "MTK1170:3EG49X351VJ7R5D2EZ4SEAH7PAE6XR", "current_trial": 118, "dateTime": 1513269189497, "trialdata": {"rt": -1, "stimulus": "<p id=\"stim\">10</p>", "key_press": -1, "trial_type": "single-stim", "trial_index": 118, "time_elapsed": 821320, "internal_node_id": "0.0-91.0-0.0"}}, {"uniqueid": "MTK1170:3EG49X351VJ7R5D2EZ4SEAH7PAE6XR", "current_trial": 119, "dateTime": 1513269190498, "trialdata": {"rt": -1, "stimulus": "<p id=\"stim\">9</p>", "key_press": -1, "trial_type": "single-stim", "trial_index": 119, "time_elapsed": 822321, "internal_node_id": "0.0-91.0-1.0"}}, {"uniqueid": "MTK1170:3EG49X351VJ7R5D2EZ4SEAH7PAE6XR", "current_trial": 120, "dateTime": 1513269191500, "trialdata": {"rt": -1, "stimulus": "<p id=\"stim\">8</p>", "key_press": -1, "trial_type": "single-stim", "trial_index": 120, "time_elapsed": 823323, "internal_node_id": "0.0-91.0-2.0"}}, {"uniqueid": "MTK1170:3EG49X351VJ7R5D2EZ4SEAH7PAE6XR", "current_trial": 121, "dateTime": 1513269192501, "trialdata": {"rt": -1, "stimulus": "<p id=\"stim\">7</p>", "key_press": -1, "trial_type": "single-stim", "trial_index": 121, "time_elapsed": 824324, "internal_node_id": "0.0-91.0-3.0"}}, {"uniqueid": "MTK1170:3EG49X351VJ7R5D2EZ4SEAH7PAE6XR", "current_trial": 122, "dateTime": 1513269193503, "trialdata": {"rt": -1, "stimulus": "<p id=\"stim\">6</p>", "key_press": -1, "trial_type": "single-stim", "trial_index": 122, "time_elapsed": 825326, "internal_node_id": "0.0-91.0-4.0"}}, {"uniqueid": "MTK1170:3EG49X351VJ7R5D2EZ4SEAH7PAE6XR", "current_trial": 123, "dateTime": 1513269194504, "trialdata": {"rt": -1, "stimulus": "<p id=\"stim\">5</p>", "key_press": -1, "trial_type": "single-stim", "trial_index": 123, "time_elapsed": 826327, "internal_node_id": "0.0-91.0-5.0"}}, {"uniqueid": "MTK1170:3EG49X351VJ7R5D2EZ4SEAH7PAE6XR", "current_trial": 124, "dateTime": 1513269195507, "trialdata": {"rt": -1, "stimulus": "<p id=\"stim\">4</p>", "key_press": -1, "trial_type": "single-stim", "trial_index": 124, "time_elapsed": 827330, "internal_node_id": "0.0-91.0-6.0"}}, {"uniqueid": "MTK1170:3EG49X351VJ7R5D2EZ4SEAH7PAE6XR", "current_trial": 125, "dateTime": 1513269196508, "trialdata": {"rt": -1, "stimulus": "<p id=\"stim\">3</p>", "key_press": -1, "trial_type": "single-stim", "trial_index": 125, "time_elapsed": 828331, "internal_node_id": "0.0-91.0-7.0"}}, {"uniqueid": "MTK1170:3EG49X351VJ7R5D2EZ4SEAH7PAE6XR", "current_trial": 126, "dateTime": 1513269197509, "trialdata": {"rt": -1, "stimulus": "<p id=\"stim\">2</p>", "key_press": -1, "trial_type": "single-stim", "trial_index": 126, "time_elapsed": 829332, "internal_node_id": "0.0-91.0-8.0"}}, {"uniqueid": "MTK1170:3EG49X351VJ7R5D2EZ4SEAH7PAE6XR", "current_trial": 127, "dateTime": 1513269198510, "trialdata": {"rt": -1, "stimulus": "<p id=\"stim\">1</p>", "key_press": -1, "trial_type": "single-stim", "trial_index": 127, "time_elapsed": 830333, "internal_node_id": "0.0-91.0-9.0"}}, {"uniqueid": "MTK1170:3EG49X351VJ7R5D2EZ4SEAH7PAE6XR", "current_trial": 128, "dateTime": 1513269200012, "trialdata": {"rt": -1, "stimulus": "<p id=\"stim\">+</p>", "key_press": -1, "type": "FIXATION", "trial_type": "single-stim", "trial_index": 128, "time_elapsed": 831835, "internal_node_id": "0.0-92.0-0.0"}}, {"uniqueid": "MTK1170:3EG49X351VJ7R5D2EZ4SEAH7PAE6XR", "current_trial": 129, "dateTime": 1513269201654, "trialdata": {"rt": -1000, "stimulus": "/static/audio/wordpool/WAGON.wav", "key_press": -1, "type": "PRES_AUD", "word": "wagon", "wordID": 1577, "conditions": [24, 800, "a", 12000], "trial": 3, "serialpos": 0, "trial_type": "single-audio", "trial_index": 129, "time_elapsed": 833476, "internal_node_id": "0.0-93.0"}}, {"uniqueid": "MTK1170:3EG49X351VJ7R5D2EZ4SEAH7PAE6XR", "current_trial": 130, "dateTime": 1513269203517, "trialdata": {"rt": -1000, "stimulus": "/static/audio/wordpool/ACTOR.wav", "key_press": -1, "type": "PRES_AUD", "word": "actor", "wordID": 4, "conditions": [24, 800, "a", 12000], "trial": 3, "serialpos": 1, "trial_type": "single-audio", "trial_index": 130, "time_elapsed": 835340, "internal_node_id": "0.0-94.0"}}, {"uniqueid": "MTK1170:3EG49X351VJ7R5D2EZ4SEAH7PAE6XR", "current_trial": 131, "dateTime": 1513269205468, "trialdata": {"rt": -1000, "stimulus": "/static/audio/wordpool/ACTRESS.wav", "key_press": -1, "type": "PRES_AUD", "word": "actress", "wordID": 5, "conditions": [24, 800, "a", 12000], "trial": 3, "serialpos": 2, "trial_type": "single-audio", "trial_index": 131, "time_elapsed": 837291, "internal_node_id": "0.0-95.0"}}, {"uniqueid": "MTK1170:3EG49X351VJ7R5D2EZ4SEAH7PAE6XR", "current_trial": 132, "dateTime": 1513269207336, "trialdata": {"rt": -1000, "stimulus": "/static/audio/wordpool/JELLO.wav", "key_press": -1, "type": "PRES_AUD", "word": "jello", "wordID": 753, "conditions": [24, 800, "a", 12000], "trial": 3, "serialpos": 3, "trial_type": "single-audio", "trial_index": 132, "time_elapsed": 839159, "internal_node_id": "0.0-96.0"}}, {"uniqueid": "MTK1170:3EG49X351VJ7R5D2EZ4SEAH7PAE6XR", "current_trial": 133, "dateTime": 1513269209210, "trialdata": {"rt": -1000, "stimulus": "/static/audio/wordpool/CONCERT.wav", "key_press": -1, "type": "PRES_AUD", "word": "concert", "wordID": 359, "conditions": [24, 800, "a", 12000], "trial": 3, "serialpos": 4, "trial_type": "single-audio", "trial_index": 133, "time_elapsed": 841033, "internal_node_id": "0.0-97.0"}}, {"uniqueid": "MTK1170:3EG49X351VJ7R5D2EZ4SEAH7PAE6XR", "current_trial": 134, "dateTime": 1513269210959, "trialdata": {"rt": -1000, "stimulus": "/static/audio/wordpool/CUPBOARD.wav", "key_press": -1, "type": "PRES_AUD", "word": "cupboard", "wordID": 424, "conditions": [24, 800, "a", 12000], "trial": 3, "serialpos": 5, "trial_type": "single-audio", "trial_index": 134, "time_elapsed": 842782, "internal_node_id": "0.0-98.0"}}, {"uniqueid": "MTK1170:3EG49X351VJ7R5D2EZ4SEAH7PAE6XR", "current_trial": 135, "dateTime": 1513269212817, "trialdata": {"rt": -1000, "stimulus": "/static/audio/wordpool/ASIA.wav", "key_press": -1, "type": "PRES_AUD", "word": "asia", "wordID": 45, "conditions": [24, 800, "a", 12000], "trial": 3, "serialpos": 6, "trial_type": "single-audio", "trial_index": 135, "time_elapsed": 844640, "internal_node_id": "0.0-99.0"}}, {"uniqueid": "MTK1170:3EG49X351VJ7R5D2EZ4SEAH7PAE6XR", "current_trial": 136, "dateTime": 1513269214631, "trialdata": {"rt": -1000, "stimulus": "/static/audio/wordpool/ORCHID.wav", "key_press": -1, "type": "PRES_AUD", "word": "orchid", "wordID": 981, "conditions": [24, 800, "a", 12000], "trial": 3, "serialpos": 7, "trial_type": "single-audio", "trial_index": 136, "time_elapsed": 846454, "internal_node_id": "0.0-100.0"}}, {"uniqueid": "MTK1170:3EG49X351VJ7R5D2EZ4SEAH7PAE6XR", "current_trial": 137, "dateTime": 1513269216265, "trialdata": {"rt": -1000, "stimulus": "/static/audio/wordpool/LAKE.wav", "key_press": -1, "type": "PRES_AUD", "word": "lake", "wordID": 795, "conditions": [24, 800, "a", 12000], "trial": 3, "serialpos": 8, "trial_type": "single-audio", "trial_index": 137, "time_elapsed": 848088, "internal_node_id": "0.0-101.0"}}, {"uniqueid": "MTK1170:3EG49X351VJ7R5D2EZ4SEAH7PAE6XR", "current_trial": 138, "dateTime": 1513269217887, "trialdata": {"rt": -1000, "stimulus": "/static/audio/wordpool/WAITRESS.wav", "key_press": -1, "type": "PRES_AUD", "word": "waitress", "wordID": 1580, "conditions": [24, 800, "a", 12000], "trial": 3, "serialpos": 9, "trial_type": "single-audio", "trial_index": 138, "time_elapsed": 849710, "internal_node_id": "0.0-102.0"}}, {"uniqueid": "MTK1170:3EG49X351VJ7R5D2EZ4SEAH7PAE6XR", "current_trial": 139, "dateTime": 1513269219576, "trialdata": {"rt": -1000, "stimulus": "/static/audio/wordpool/FLEET.wav", "key_press": -1, "type": "PRES_AUD", "word": "fleet", "wordID": 577, "conditions": [24, 800, "a", 12000], "trial": 3, "serialpos": 10, "trial_type": "single-audio", "trial_index": 139, "time_elapsed": 851399, "internal_node_id": "0.0-103.0"}}, {"uniqueid": "MTK1170:3EG49X351VJ7R5D2EZ4SEAH7PAE6XR", "current_trial": 140, "dateTime": 1513269221233, "trialdata": {"rt": -1000, "stimulus": "/static/audio/wordpool/KITCHEN.wav", "key_press": -1, "type": "PRES_AUD", "word": "kitchen", "wordID": 777, "conditions": [24, 800, "a", 12000], "trial": 3, "serialpos": 11, "trial_type": "single-audio", "trial_index": 140, "time_elapsed": 853056, "internal_node_id": "0.0-104.0"}}, {"uniqueid": "MTK1170:3EG49X351VJ7R5D2EZ4SEAH7PAE6XR", "current_trial": 141, "dateTime": 1513269222902, "trialdata": {"rt": -1000, "stimulus": "/static/audio/wordpool/SIDEWALK.wav", "key_press": -1, "type": "PRES_AUD", "word": "sidewalk", "wordID": 1302, "conditions": [24, 800, "a", 12000], "trial": 3, "serialpos": 12, "trial_type": "single-audio", "trial_index": 141, "time_elapsed": 854725, "internal_node_id": "0.0-105.0"}}, {"uniqueid": "MTK1170:3EG49X351VJ7R5D2EZ4SEAH7PAE6XR", "current_trial": 142, "dateTime": 1513269224548, "trialdata": {"rt": -1000, "stimulus": "/static/audio/wordpool/FLOWER.wav", "key_press": -1, "type": "PRES_AUD", "word": "flower", "wordID": 583, "conditions": [24, 800, "a", 12000], "trial": 3, "serialpos": 13, "trial_type": "single-audio", "trial_index": 142, "time_elapsed": 856371, "internal_node_id": "0.0-106.0"}}, {"uniqueid": "MTK1170:3EG49X351VJ7R5D2EZ4SEAH7PAE6XR", "current_trial": 143, "dateTime": 1513269226509, "trialdata": {"rt": -1000, "stimulus": "/static/audio/wordpool/BUNNY.wav", "key_press": -1, "type": "PRES_AUD", "word": "bunny", "wordID": 197, "conditions": [24, 800, "a", 12000], "trial": 3, "serialpos": 14, "trial_type": "single-audio", "trial_index": 143, "time_elapsed": 858332, "internal_node_id": "0.0-107.0"}}, {"uniqueid": "MTK1170:3EG49X351VJ7R5D2EZ4SEAH7PAE6XR", "current_trial": 144, "dateTime": 1513269228300, "trialdata": {"rt": -1000, "stimulus": "/static/audio/wordpool/COSTUME.wav", "key_press": -1, "type": "PRES_AUD", "word": "costume", "wordID": 382, "conditions": [24, 800, "a", 12000], "trial": 3, "serialpos": 15, "trial_type": "single-audio", "trial_index": 144, "time_elapsed": 860123, "internal_node_id": "0.0-108.0"}}, {"uniqueid": "MTK1170:3EG49X351VJ7R5D2EZ4SEAH7PAE6XR", "current_trial": 145, "dateTime": 1513269229945, "trialdata": {"rt": -1000, "stimulus": "/static/audio/wordpool/DOUGHNUT.wav", "key_press": -1, "type": "PRES_AUD", "word": "doughnut", "wordID": 489, "conditions": [24, 800, "a", 12000], "trial": 3, "serialpos": 16, "trial_type": "single-audio", "trial_index": 145, "time_elapsed": 861768, "internal_node_id": "0.0-109.0"}}, {"uniqueid": "MTK1170:3EG49X351VJ7R5D2EZ4SEAH7PAE6XR", "current_trial": 146, "dateTime": 1513269231935, "trialdata": {"rt": -1000, "stimulus": "/static/audio/wordpool/LEG.wav", "key_press": -1, "type": "PRES_AUD", "word": "leg", "wordID": 808, "conditions": [24, 800, "a", 12000], "trial": 3, "serialpos": 17, "trial_type": "single-audio", "trial_index": 146, "time_elapsed": 863757, "internal_node_id": "0.0-110.0"}}, {"uniqueid": "MTK1170:3EG49X351VJ7R5D2EZ4SEAH7PAE6XR", "current_trial": 147, "dateTime": 1513269233826, "trialdata": {"rt": -1000, "stimulus": "/static/audio/wordpool/ANKLE.wav", "key_press": -1, "type": "PRES_AUD", "word": "ankle", "wordID": 23, "conditions": [24, 800, "a", 12000], "trial": 3, "serialpos": 18, "trial_type": "single-audio", "trial_index": 147, "time_elapsed": 865648, "internal_node_id": "0.0-111.0"}}, {"uniqueid": "MTK1170:3EG49X351VJ7R5D2EZ4SEAH7PAE6XR", "current_trial": 148, "dateTime": 1513269235578, "trialdata": {"rt": -1000, "stimulus": "/static/audio/wordpool/CHIPMUNK.wav", "key_press": -1, "type": "PRES_AUD", "word": "chipmunk", "wordID": 303, "conditions": [24, 800, "a", 12000], "trial": 3, "serialpos": 19, "trial_type": "single-audio", "trial_index": 148, "time_elapsed": 867401, "internal_node_id": "0.0-112.0"}}, {"uniqueid": "MTK1170:3EG49X351VJ7R5D2EZ4SEAH7PAE6XR", "current_trial": 149, "dateTime": 1513269237198, "trialdata": {"rt": -1000, "stimulus": "/static/audio/wordpool/BOUQUET.wav", "key_press": -1, "type": "PRES_AUD", "word": "bouquet", "wordID": 156, "conditions": [24, 800, "a", 12000], "trial": 3, "serialpos": 20, "trial_type": "single-audio", "trial_index": 149, "time_elapsed": 869021, "internal_node_id": "0.0-113.0"}}, {"uniqueid": "MTK1170:3EG49X351VJ7R5D2EZ4SEAH7PAE6XR", "current_trial": 150, "dateTime": 1513269238951, "trialdata": {"rt": -1000, "stimulus": "/static/audio/wordpool/CARROT.wav", "key_press": -1, "type": "PRES_AUD", "word": "carrot", "wordID": 248, "conditions": [24, 800, "a", 12000], "trial": 3, "serialpos": 21, "trial_type": "single-audio", "trial_index": 150, "time_elapsed": 870773, "internal_node_id": "0.0-114.0"}}, {"uniqueid": "MTK1170:3EG49X351VJ7R5D2EZ4SEAH7PAE6XR", "current_trial": 151, "dateTime": 1513269240757, "trialdata": {"rt": -1000, "stimulus": "/static/audio/wordpool/DENIM.wav", "key_press": -1, "type": "PRES_AUD", "word": "denim", "wordID": 445, "conditions": [24, 800, "a", 12000], "trial": 3, "serialpos": 22, "trial_type": "single-audio", "trial_index": 151, "time_elapsed": 872579, "internal_node_id": "0.0-115.0"}}, {"uniqueid": "MTK1170:3EG49X351VJ7R5D2EZ4SEAH7PAE6XR", "current_trial": 152, "dateTime": 1513269242470, "trialdata": {"rt": -1000, "stimulus": "/static/audio/wordpool/TERMITE.wav", "key_press": -1, "type": "PRES_AUD", "word": "termite", "wordID": 1450, "conditions": [24, 800, "a", 12000], "trial": 3, "serialpos": 23, "trial_type": "single-audio", "trial_index": 152, "time_elapsed": 874293, "internal_node_id": "0.0-116.0"}}, {"uniqueid": "MTK1170:3EG49X351VJ7R5D2EZ4SEAH7PAE6XR", "current_trial": 153, "dateTime": 1513269243716, "trialdata": {"rt": -1, "stimulus": "", "key_press": -1, "type": "PRE_RECALL_DELAY", "trial_type": "single-stim", "trial_index": 153, "time_elapsed": 875539, "internal_node_id": "0.0-117.0-0.0"}}, {"uniqueid": "MTK1170:3EG49X351VJ7R5D2EZ4SEAH7PAE6XR", "current_trial": 154, "dateTime": 1513269244217, "trialdata": {"rt": -1000, "stimulus": "/static/audio/400Hz.wav", "key_press": -1, "type": "PRE_RECALL_ALERT", "trial_type": "single-audio", "trial_index": 154, "time_elapsed": 876040, "internal_node_id": "0.0-118.0"}}, {"uniqueid": "MTK1170:3EG49X351VJ7R5D2EZ4SEAH7PAE6XR", "current_trial": 155, "dateTime": 1513269304223, "trialdata": {"rt": [3744, 6400, 6472, 12031, 13983, 16296, 18096, 19977, 21569, 29145, 43528, 44688, 45841, 52377, 58768], "recwords": ["termite", "demin", "", "bunny", "squirrel", "chipmunk", "sidwalk", "bouquet", "carrot", "kitten", "actress", "wagon", "actor", "flower", "sidewalk"], "type": "FREE_RECALL", "conditions": [24, 800, "a", 12000], "trial": 3, "trial_type": "free-recall", "trial_index": 155, "time_elapsed": 936045, "internal_node_id": "0.0-119.0-0.0"}}, {"uniqueid": "MTK1170:3EG49X351VJ7R5D2EZ4SEAH7PAE6XR", "current_trial": 156, "dateTime": 1513269307637, "trialdata": {"rt": 1414, "key_press": 32, "type": "INSTRUCTIONS", "trial_type": "text", "trial_index": 156, "time_elapsed": 939460, "internal_node_id": "0.0-120.0"}}, {"uniqueid": "MTK1170:3EG49X351VJ7R5D2EZ4SEAH7PAE6XR", "current_trial": 157, "dateTime": 1513269321642, "trialdata": {"rt": [2564, 4276, 10180, 11611], "responses": ["17", "16", "20", "10"], "num1": [7, 8, 6, 1, 9], "num2": [1, 2, 5, 5, 2], "num3": [9, 6, 9, 4, 3], "type": "DISTRACTOR", "conditions": [24, 1600, "v", 12000], "trial": 4, "trial_type": "math-distractor", "trial_index": 157, "time_elapsed": 953465, "internal_node_id": "0.0-121.0"}}, {"uniqueid": "MTK1170:3EG49X351VJ7R5D2EZ4SEAH7PAE6XR", "current_trial": 158, "dateTime": 1513269324644, "trialdata": {"rt": -1, "stimulus": "<p id=\"stim\">10</p>", "key_press": -1, "trial_type": "single-stim", "trial_index": 158, "time_elapsed": 956467, "internal_node_id": "0.0-122.0-0.0"}}, {"uniqueid": "MTK1170:3EG49X351VJ7R5D2EZ4SEAH7PAE6XR", "current_trial": 159, "dateTime": 1513269325645, "trialdata": {"rt": -1, "stimulus": "<p id=\"stim\">9</p>", "key_press": -1, "trial_type": "single-stim", "trial_index": 159, "time_elapsed": 957468, "internal_node_id": "0.0-122.0-1.0"}}, {"uniqueid": "MTK1170:3EG49X351VJ7R5D2EZ4SEAH7PAE6XR", "current_trial": 160, "dateTime": 1513269326647, "trialdata": {"rt": -1, "stimulus": "<p id=\"stim\">8</p>", "key_press": -1, "trial_type": "single-stim", "trial_index": 160, "time_elapsed": 958470, "internal_node_id": "0.0-122.0-2.0"}}, {"uniqueid": "MTK1170:3EG49X351VJ7R5D2EZ4SEAH7PAE6XR", "current_trial": 161, "dateTime": 1513269327649, "trialdata": {"rt": -1, "stimulus": "<p id=\"stim\">7</p>", "key_press": -1, "trial_type": "single-stim", "trial_index": 161, "time_elapsed": 959472, "internal_node_id": "0.0-122.0-3.0"}}, {"uniqueid": "MTK1170:3EG49X351VJ7R5D2EZ4SEAH7PAE6XR", "current_trial": 162, "dateTime": 1513269328652, "trialdata": {"rt": -1, "stimulus": "<p id=\"stim\">6</p>", "key_press": -1, "trial_type": "single-stim", "trial_index": 162, "time_elapsed": 960475, "internal_node_id": "0.0-122.0-4.0"}}, {"uniqueid": "MTK1170:3EG49X351VJ7R5D2EZ4SEAH7PAE6XR", "current_trial": 163, "dateTime": 1513269329653, "trialdata": {"rt": -1, "stimulus": "<p id=\"stim\">5</p>", "key_press": -1, "trial_type": "single-stim", "trial_index": 163, "time_elapsed": 961476, "internal_node_id": "0.0-122.0-5.0"}}, {"uniqueid": "MTK1170:3EG49X351VJ7R5D2EZ4SEAH7PAE6XR", "current_trial": 164, "dateTime": 1513269330656, "trialdata": {"rt": -1, "stimulus": "<p id=\"stim\">4</p>", "key_press": -1, "trial_type": "single-stim", "trial_index": 164, "time_elapsed": 962479, "internal_node_id": "0.0-122.0-6.0"}}, {"uniqueid": "MTK1170:3EG49X351VJ7R5D2EZ4SEAH7PAE6XR", "current_trial": 165, "dateTime": 1513269331657, "trialdata": {"rt": -1, "stimulus": "<p id=\"stim\">3</p>", "key_press": -1, "trial_type": "single-stim", "trial_index": 165, "time_elapsed": 963480, "internal_node_id": "0.0-122.0-7.0"}}, {"uniqueid": "MTK1170:3EG49X351VJ7R5D2EZ4SEAH7PAE6XR", "current_trial": 166, "dateTime": 1513269332659, "trialdata": {"rt": -1, "stimulus": "<p id=\"stim\">2</p>", "key_press": -1, "trial_type": "single-stim", "trial_index": 166, "time_elapsed": 964482, "internal_node_id": "0.0-122.0-8.0"}}, {"uniqueid": "MTK1170:3EG49X351VJ7R5D2EZ4SEAH7PAE6XR", "current_trial": 167, "dateTime": 1513269333660, "trialdata": {"rt": -1, "stimulus": "<p id=\"stim\">1</p>", "key_press": -1, "trial_type": "single-stim", "trial_index": 167, "time_elapsed": 965483, "internal_node_id": "0.0-122.0-9.0"}}, {"uniqueid": "MTK1170:3EG49X351VJ7R5D2EZ4SEAH7PAE6XR", "current_trial": 168, "dateTime": 1513269335162, "trialdata": {"rt": -1, "stimulus": "<p id=\"stim\">+</p>", "key_press": -1, "type": "FIXATION", "trial_type": "single-stim", "trial_index": 168, "time_elapsed": 966985, "internal_node_id": "0.0-123.0-0.0"}}, {"uniqueid": "MTK1170:3EG49X351VJ7R5D2EZ4SEAH7PAE6XR", "current_trial": 169, "dateTime": 1513269336763, "trialdata": {"rt": -1, "stimulus": "<p id=\"stim\">HEDGE</p>", "key_press": -1, "type": "PRES_VIS", "word": "hedge", "wordID": 698, "conditions": [24, 1600, "v", 12000], "trial": 4, "serialpos": 0, "trial_type": "single-stim", "trial_index": 169, "time_elapsed": 968586, "internal_node_id": "0.0-124.0"}}, {"uniqueid": "MTK1170:3EG49X351VJ7R5D2EZ4SEAH7PAE6XR", "current_trial": 170, "dateTime": 1513269339535, "trialdata": {"rt": -1, "stimulus": "<p id=\"stim\">BASEMENT</p>", "key_press": -1, "type": "PRES_VIS", "word": "basement", "wordID": 93, "conditions": [24, 1600, "v", 12000], "trial": 4, "serialpos": 1, "trial_type": "single-stim", "trial_index": 170, "time_elapsed": 971358, "internal_node_id": "0.0-125.0"}}, {"uniqueid": "MTK1170:3EG49X351VJ7R5D2EZ4SEAH7PAE6XR", "current_trial": 171, "dateTime": 1513269341952, "trialdata": {"rt": -1, "stimulus": "<p id=\"stim\">MARROW</p>", "key_press": -1, "type": "PRES_VIS", "word": "marrow", "wordID": 871, "conditions": [24, 1600, "v", 12000], "trial": 4, "serialpos": 2, "trial_type": "single-stim", "trial_index": 171, "time_elapsed": 973775, "internal_node_id": "0.0-126.0"}}, {"uniqueid": "MTK1170:3EG49X351VJ7R5D2EZ4SEAH7PAE6XR", "current_trial": 172, "dateTime": 1513269344679, "trialdata": {"rt": -1, "stimulus": "<p id=\"stim\">LIVER</p>", "key_press": -1, "type": "PRES_VIS", "word": "liver", "wordID": 832, "conditions": [24, 1600, "v", 12000], "trial": 4, "serialpos": 3, "trial_type": "single-stim", "trial_index": 172, "time_elapsed": 976502, "internal_node_id": "0.0-127.0"}}, {"uniqueid": "MTK1170:3EG49X351VJ7R5D2EZ4SEAH7PAE6XR", "current_trial": 173, "dateTime": 1513269347143, "trialdata": {"rt": -1, "stimulus": "<p id=\"stim\">PATIENT</p>", "key_press": -1, "type": "PRES_VIS", "word": "patient", "wordID": 1023, "conditions": [24, 1600, "v", 12000], "trial": 4, "serialpos": 4, "trial_type": "single-stim", "trial_index": 173, "time_elapsed": 978966, "internal_node_id": "0.0-128.0"}}, {"uniqueid": "MTK1170:3EG49X351VJ7R5D2EZ4SEAH7PAE6XR", "current_trial": 174, "dateTime": 1513269349895, "trialdata": {"rt": -1, "stimulus": "<p id=\"stim\">BUREAU</p>", "key_press": -1, "type": "PRES_VIS", "word": "bureau", "wordID": 198, "conditions": [24, 1600, "v", 12000], "trial": 4, "serialpos": 5, "trial_type": "single-stim", "trial_index": 174, "time_elapsed": 981718, "internal_node_id": "0.0-129.0"}}, {"uniqueid": "MTK1170:3EG49X351VJ7R5D2EZ4SEAH7PAE6XR", "current_trial": 175, "dateTime": 1513269352575, "trialdata": {"rt": -1, "stimulus": "<p id=\"stim\">TOURIST</p>", "key_press": -1, "type": "PRES_VIS", "word": "tourist", "wordID": 1487, "conditions": [24, 1600, "v", 12000], "trial": 4, "serialpos": 6, "trial_type": "single-stim", "trial_index": 175, "time_elapsed": 984398, "internal_node_id": "0.0-130.0"}}, {"uniqueid": "MTK1170:3EG49X351VJ7R5D2EZ4SEAH7PAE6XR", "current_trial": 176, "dateTime": 1513269355180, "trialdata": {"rt": -1, "stimulus": "<p id=\"stim\">DIME</p>", "key_press": -1, "type": "PRES_VIS", "word": "dime", "wordID": 465, "conditions": [24, 1600, "v", 12000], "trial": 4, "serialpos": 7, "trial_type": "single-stim", "trial_index": 176, "time_elapsed": 987003, "internal_node_id": "0.0-131.0"}}, {"uniqueid": "MTK1170:3EG49X351VJ7R5D2EZ4SEAH7PAE6XR", "current_trial": 177, "dateTime": 1513269357870, "trialdata": {"rt": -1, "stimulus": "<p id=\"stim\">FLIPPER</p>", "key_press": -1, "type": "PRES_VIS", "word": "flipper", "wordID": 579, "conditions": [24, 1600, "v", 12000], "trial": 4, "serialpos": 8, "trial_type": "single-stim", "trial_index": 177, "time_elapsed": 989693, "internal_node_id": "0.0-132.0"}}, {"uniqueid": "MTK1170:3EG49X351VJ7R5D2EZ4SEAH7PAE6XR", "current_trial": 178, "dateTime": 1513269360328, "trialdata": {"rt": -1, "stimulus": "<p id=\"stim\">CELLAR</p>", "key_press": -1, "type": "PRES_VIS", "word": "cellar", "wordID": 266, "conditions": [24, 1600, "v", 12000], "trial": 4, "serialpos": 9, "trial_type": "single-stim", "trial_index": 178, "time_elapsed": 992151, "internal_node_id": "0.0-133.0"}}, {"uniqueid": "MTK1170:3EG49X351VJ7R5D2EZ4SEAH7PAE6XR", "current_trial": 179, "dateTime": 1513269363128, "trialdata": {"rt": -1, "stimulus": "<p id=\"stim\">PIANO</p>", "key_press": -1, "type": "PRES_VIS", "word": "piano", "wordID": 1056, "conditions": [24, 1600, "v", 12000], "trial": 4, "serialpos": 10, "trial_type": "single-stim", "trial_index": 179, "time_elapsed": 994951, "internal_node_id": "0.0-134.0"}}, {"uniqueid": "MTK1170:3EG49X351VJ7R5D2EZ4SEAH7PAE6XR", "current_trial": 180, "dateTime": 1513269365796, "trialdata": {"rt": -1, "stimulus": "<p id=\"stim\">PROTON</p>", "key_press": -1, "type": "PRES_VIS", "word": "proton", "wordID": 1131, "conditions": [24, 1600, "v", 12000], "trial": 4, "serialpos": 11, "trial_type": "single-stim", "trial_index": 180, "time_elapsed": 997619, "internal_node_id": "0.0-135.0"}}, {"uniqueid": "MTK1170:3EG49X351VJ7R5D2EZ4SEAH7PAE6XR", "current_trial": 181, "dateTime": 1513269368526, "trialdata": {"rt": -1, "stimulus": "<p id=\"stim\">TART</p>", "key_press": -1, "type": "PRES_VIS", "word": "tart", "wordID": 1435, "conditions": [24, 1600, "v", 12000], "trial": 4, "serialpos": 12, "trial_type": "single-stim", "trial_index": 181, "time_elapsed": 1000349, "internal_node_id": "0.0-136.0"}}, {"uniqueid": "MTK1170:3EG49X351VJ7R5D2EZ4SEAH7PAE6XR", "current_trial": 182, "dateTime": 1513269371291, "trialdata": {"rt": -1, "stimulus": "<p id=\"stim\">PORK</p>", "key_press": -1, "type": "PRES_VIS", "word": "pork", "wordID": 1107, "conditions": [24, 1600, "v", 12000], "trial": 4, "serialpos": 13, "trial_type": "single-stim", "trial_index": 182, "time_elapsed": 1003114, "internal_node_id": "0.0-137.0"}}, {"uniqueid": "MTK1170:3EG49X351VJ7R5D2EZ4SEAH7PAE6XR", "current_trial": 183, "dateTime": 1513269373803, "trialdata": {"rt": -1, "stimulus": "<p id=\"stim\">SPARROW</p>", "key_press": -1, "type": "PRES_VIS", "word": "sparrow", "wordID": 1346, "conditions": [24, 1600, "v", 12000], "trial": 4, "serialpos": 14, "trial_type": "single-stim", "trial_index": 183, "time_elapsed": 1005626, "internal_node_id": "0.0-138.0"}}, {"uniqueid": "MTK1170:3EG49X351VJ7R5D2EZ4SEAH7PAE6XR", "current_trial": 184, "dateTime": 1513269376262, "trialdata": {"rt": -1, "stimulus": "<p id=\"stim\">SKIRT</p>", "key_press": -1, "type": "PRES_VIS", "word": "skirt", "wordID": 1318, "conditions": [24, 1600, "v", 12000], "trial": 4, "serialpos": 15, "trial_type": "single-stim", "trial_index": 184, "time_elapsed": 1008085, "internal_node_id": "0.0-139.0"}}, {"uniqueid": "MTK1170:3EG49X351VJ7R5D2EZ4SEAH7PAE6XR", "current_trial": 185, "dateTime": 1513269378679, "trialdata": {"rt": -1, "stimulus": "<p id=\"stim\">BEEF</p>", "key_press": -1, "type": "PRES_VIS", "word": "beef", "wordID": 112, "conditions": [24, 1600, "v", 12000], "trial": 4, "serialpos": 16, "trial_type": "single-stim", "trial_index": 185, "time_elapsed": 1010502, "internal_node_id": "0.0-140.0"}}, {"uniqueid": "MTK1170:3EG49X351VJ7R5D2EZ4SEAH7PAE6XR", "current_trial": 186, "dateTime": 1513269381218, "trialdata": {"rt": -1, "stimulus": "<p id=\"stim\">CRITIC</p>", "key_press": -1, "type": "PRES_VIS", "word": "critic", "wordID": 409, "conditions": [24, 1600, "v", 12000], "trial": 4, "serialpos": 17, "trial_type": "single-stim", "trial_index": 186, "time_elapsed": 1013041, "internal_node_id": "0.0-141.0"}}, {"uniqueid": "MTK1170:3EG49X351VJ7R5D2EZ4SEAH7PAE6XR", "current_trial": 187, "dateTime": 1513269383994, "trialdata": {"rt": -1, "stimulus": "<p id=\"stim\">XEROX</p>", "key_press": -1, "type": "PRES_VIS", "word": "xerox", "wordID": 1627, "conditions": [24, 1600, "v", 12000], "trial": 4, "serialpos": 18, "trial_type": "single-stim", "trial_index": 187, "time_elapsed": 1015817, "internal_node_id": "0.0-142.0"}}, {"uniqueid": "MTK1170:3EG49X351VJ7R5D2EZ4SEAH7PAE6XR", "current_trial": 188, "dateTime": 1513269386763, "trialdata": {"rt": -1, "stimulus": "<p id=\"stim\">RAZOR</p>", "key_press": -1, "type": "PRES_VIS", "word": "razor", "wordID": 1170, "conditions": [24, 1600, "v", 12000], "trial": 4, "serialpos": 19, "trial_type": "single-stim", "trial_index": 188, "time_elapsed": 1018586, "internal_node_id": "0.0-143.0"}}, {"uniqueid": "MTK1170:3EG49X351VJ7R5D2EZ4SEAH7PAE6XR", "current_trial": 189, "dateTime": 1513269389436, "trialdata": {"rt": -1, "stimulus": "<p id=\"stim\">TUBA</p>", "key_press": -1, "type": "PRES_VIS", "word": "tuba", "wordID": 1514, "conditions": [24, 1600, "v", 12000], "trial": 4, "serialpos": 20, "trial_type": "single-stim", "trial_index": 189, "time_elapsed": 1021259, "internal_node_id": "0.0-144.0"}}, {"uniqueid": "MTK1170:3EG49X351VJ7R5D2EZ4SEAH7PAE6XR", "current_trial": 190, "dateTime": 1513269391881, "trialdata": {"rt": -1, "stimulus": "<p id=\"stim\">FLASHLIGHT</p>", "key_press": -1, "type": "PRES_VIS", "word": "flashlight", "wordID": 574, "conditions": [24, 1600, "v", 12000], "trial": 4, "serialpos": 21, "trial_type": "single-stim", "trial_index": 190, "time_elapsed": 1023704, "internal_node_id": "0.0-145.0"}}, {"uniqueid": "MTK1170:3EG49X351VJ7R5D2EZ4SEAH7PAE6XR", "current_trial": 191, "dateTime": 1513269394512, "trialdata": {"rt": -1, "stimulus": "<p id=\"stim\">PARSLEY</p>", "key_press": -1, "type": "PRES_VIS", "word": "parsley", "wordID": 1015, "conditions": [24, 1600, "v", 12000], "trial": 4, "serialpos": 22, "trial_type": "single-stim", "trial_index": 191, "time_elapsed": 1026335, "internal_node_id": "0.0-146.0"}}, {"uniqueid": "MTK1170:3EG49X351VJ7R5D2EZ4SEAH7PAE6XR", "current_trial": 192, "dateTime": 1513269396972, "trialdata": {"rt": -1, "stimulus": "<p id=\"stim\">RADISH</p>", "key_press": -1, "type": "PRES_VIS", "word": "radish", "wordID": 1157, "conditions": [24, 1600, "v", 12000], "trial": 4, "serialpos": 23, "trial_type": "single-stim", "trial_index": 192, "time_elapsed": 1028795, "internal_node_id": "0.0-147.0"}}, {"uniqueid": "MTK1170:3EG49X351VJ7R5D2EZ4SEAH7PAE6XR", "current_trial": 193, "dateTime": 1513269399515, "trialdata": {"rt": -1, "stimulus": "", "key_press": -1, "type": "PRE_RECALL_DELAY", "trial_type": "single-stim", "trial_index": 193, "time_elapsed": 1031338, "internal_node_id": "0.0-148.0-0.0"}}, {"uniqueid": "MTK1170:3EG49X351VJ7R5D2EZ4SEAH7PAE6XR", "current_trial": 194, "dateTime": 1513269400016, "trialdata": {"rt": -1000, "stimulus": "/static/audio/400Hz.wav", "key_press": -1, "type": "PRE_RECALL_ALERT", "trial_type": "single-audio", "trial_index": 194, "time_elapsed": 1031839, "internal_node_id": "0.0-149.0"}}, {"uniqueid": "MTK1170:3EG49X351VJ7R5D2EZ4SEAH7PAE6XR", "current_trial": 195, "dateTime": 1513269460028, "trialdata": {"rt": [1905, 4129, 5633, 9289, 11185, 12801, 15249, 18209, 31976, 33337], "recwords": ["radish", "basement", "cellar", "tuba", "xerox", "liver", "patient", "parsley", "pork", "beef"], "type": "FREE_RECALL", "conditions": [24, 1600, "v", 12000], "trial": 4, "trial_type": "free-recall", "trial_index": 195, "time_elapsed": 1091844, "internal_node_id": "0.0-150.0-0.0"}}, {"uniqueid": "MTK1170:3EG49X351VJ7R5D2EZ4SEAH7PAE6XR", "current_trial": 196, "dateTime": 1513269464156, "trialdata": {"rt": 2126, "key_press": 13, "type": "INSTRUCTIONS", "trial_type": "text", "trial_index": 196, "time_elapsed": 1095979, "internal_node_id": "0.0-151.0"}}, {"uniqueid": "MTK1170:3EG49X351VJ7R5D2EZ4SEAH7PAE6XR", "current_trial": 197, "dateTime": 1513269490159, "trialdata": {"rt": [1918, 6918, 9205, 11414, 14510, 16877, 20365], "responses": ["15", "16", "15", "19", "17", "16", "20"], "num1": [5, 9, 4, 2, 9, 2, 3, 7], "num2": [3, 4, 3, 8, 3, 9, 8, 4], "num3": [7, 3, 8, 9, 5, 5, 9, 1], "type": "DISTRACTOR", "conditions": [24, 800, "v", 24000], "trial": 5, "trial_type": "math-distractor", "trial_index": 197, "time_elapsed": 1121982, "internal_node_id": "0.0-152.0"}}, {"uniqueid": "MTK1170:3EG49X351VJ7R5D2EZ4SEAH7PAE6XR", "current_trial": 198, "dateTime": 1513269493161, "trialdata": {"rt": -1, "stimulus": "<p id=\"stim\">10</p>", "key_press": -1, "trial_type": "single-stim", "trial_index": 198, "time_elapsed": 1124984, "internal_node_id": "0.0-153.0-0.0"}}, {"uniqueid": "MTK1170:3EG49X351VJ7R5D2EZ4SEAH7PAE6XR", "current_trial": 199, "dateTime": 1513269494162, "trialdata": {"rt": -1, "stimulus": "<p id=\"stim\">9</p>", "key_press": -1, "trial_type": "single-stim", "trial_index": 199, "time_elapsed": 1125985, "internal_node_id": "0.0-153.0-1.0"}}, {"uniqueid": "MTK1170:3EG49X351VJ7R5D2EZ4SEAH7PAE6XR", "current_trial": 200, "dateTime": 1513269495164, "trialdata": {"rt": -1, "stimulus": "<p id=\"stim\">8</p>", "key_press": -1, "trial_type": "single-stim", "trial_index": 200, "time_elapsed": 1126987, "internal_node_id": "0.0-153.0-2.0"}}, {"uniqueid": "MTK1170:3EG49X351VJ7R5D2EZ4SEAH7PAE6XR", "current_trial": 201, "dateTime": 1513269496165, "trialdata": {"rt": -1, "stimulus": "<p id=\"stim\">7</p>", "key_press": -1, "trial_type": "single-stim", "trial_index": 201, "time_elapsed": 1127988, "internal_node_id": "0.0-153.0-3.0"}}, {"uniqueid": "MTK1170:3EG49X351VJ7R5D2EZ4SEAH7PAE6XR", "current_trial": 202, "dateTime": 1513269497167, "trialdata": {"rt": -1, "stimulus": "<p id=\"stim\">6</p>", "key_press": -1, "trial_type": "single-stim", "trial_index": 202, "time_elapsed": 1128990, "internal_node_id": "0.0-153.0-4.0"}}, {"uniqueid": "MTK1170:3EG49X351VJ7R5D2EZ4SEAH7PAE6XR", "current_trial": 203, "dateTime": 1513269498168, "trialdata": {"rt": -1, "stimulus": "<p id=\"stim\">5</p>", "key_press": -1, "trial_type": "single-stim", "trial_index": 203, "time_elapsed": 1129991, "internal_node_id": "0.0-153.0-5.0"}}, {"uniqueid": "MTK1170:3EG49X351VJ7R5D2EZ4SEAH7PAE6XR", "current_trial": 204, "dateTime": 1513269499169, "trialdata": {"rt": -1, "stimulus": "<p id=\"stim\">4</p>", "key_press": -1, "trial_type": "single-stim", "trial_index": 204, "time_elapsed": 1130992, "internal_node_id": "0.0-153.0-6.0"}}, {"uniqueid": "MTK1170:3EG49X351VJ7R5D2EZ4SEAH7PAE6XR", "current_trial": 205, "dateTime": 1513269500171, "trialdata": {"rt": -1, "stimulus": "<p id=\"stim\">3</p>", "key_press": -1, "trial_type": "single-stim", "trial_index": 205, "time_elapsed": 1131994, "internal_node_id": "0.0-153.0-7.0"}}, {"uniqueid": "MTK1170:3EG49X351VJ7R5D2EZ4SEAH7PAE6XR", "current_trial": 206, "dateTime": 1513269501173, "trialdata": {"rt": -1, "stimulus": "<p id=\"stim\">2</p>", "key_press": -1, "trial_type": "single-stim", "trial_index": 206, "time_elapsed": 1132996, "internal_node_id": "0.0-153.0-8.0"}}, {"uniqueid": "MTK1170:3EG49X351VJ7R5D2EZ4SEAH7PAE6XR", "current_trial": 207, "dateTime": 1513269502175, "trialdata": {"rt": -1, "stimulus": "<p id=\"stim\">1</p>", "key_press": -1, "trial_type": "single-stim", "trial_index": 207, "time_elapsed": 1133998, "internal_node_id": "0.0-153.0-9.0"}}, {"uniqueid": "MTK1170:3EG49X351VJ7R5D2EZ4SEAH7PAE6XR", "current_trial": 208, "dateTime": 1513269503676, "trialdata": {"rt": -1, "stimulus": "<p id=\"stim\">+</p>", "key_press": -1, "type": "FIXATION", "trial_type": "single-stim", "trial_index": 208, "time_elapsed": 1135499, "internal_node_id": "0.0-154.0-0.0"}}, {"uniqueid": "MTK1170:3EG49X351VJ7R5D2EZ4SEAH7PAE6XR", "current_trial": 209, "dateTime": 1513269504477, "trialdata": {"rt": -1, "stimulus": "<p id=\"stim\">JUDGE</p>", "key_press": -1, "type": "PRES_VIS", "word": "judge", "wordID": 760, "conditions": [24, 800, "v", 24000], "trial": 5, "serialpos": 0, "trial_type": "single-stim", "trial_index": 209, "time_elapsed": 1136300, "internal_node_id": "0.0-155.0"}}, {"uniqueid": "MTK1170:3EG49X351VJ7R5D2EZ4SEAH7PAE6XR", "current_trial": 210, "dateTime": 1513269506212, "trialdata": {"rt": -1, "stimulus": "<p id=\"stim\">EAGLE</p>", "key_press": -1, "type": "PRES_VIS", "word": "eagle", "wordID": 511, "conditions": [24, 800, "v", 24000], "trial": 5, "serialpos": 1, "trial_type": "single-stim", "trial_index": 210, "time_elapsed": 1138034, "internal_node_id": "0.0-156.0"}}, {"uniqueid": "MTK1170:3EG49X351VJ7R5D2EZ4SEAH7PAE6XR", "current_trial": 211, "dateTime": 1513269508135, "trialdata": {"rt": -1, "stimulus": "<p id=\"stim\">GLOBE</p>", "key_press": -1, "type": "PRES_VIS", "word": "globe", "wordID": 640, "conditions": [24, 800, "v", 24000], "trial": 5, "serialpos": 2, "trial_type": "single-stim", "trial_index": 211, "time_elapsed": 1139958, "internal_node_id": "0.0-157.0"}}, {"uniqueid": "MTK1170:3EG49X351VJ7R5D2EZ4SEAH7PAE6XR", "current_trial": 212, "dateTime": 1513269509856, "trialdata": {"rt": -1, "stimulus": "<p id=\"stim\">COLLEGE</p>", "key_press": -1, "type": "PRES_VIS", "word": "college", "wordID": 345, "conditions": [24, 800, "v", 24000], "trial": 5, "serialpos": 3, "trial_type": "single-stim", "trial_index": 212, "time_elapsed": 1141678, "internal_node_id": "0.0-158.0"}}, {"uniqueid": "MTK1170:3EG49X351VJ7R5D2EZ4SEAH7PAE6XR", "current_trial": 213, "dateTime": 1513269511778, "trialdata": {"rt": -1, "stimulus": "<p id=\"stim\">KNIFE</p>", "key_press": -1, "type": "PRES_VIS", "word": "knife", "wordID": 784, "conditions": [24, 800, "v", 24000], "trial": 5, "serialpos": 4, "trial_type": "single-stim", "trial_index": 213, "time_elapsed": 1143601, "internal_node_id": "0.0-159.0"}}, {"uniqueid": "MTK1170:3EG49X351VJ7R5D2EZ4SEAH7PAE6XR", "current_trial": 214, "dateTime": 1513269513735, "trialdata": {"rt": -1, "stimulus": "<p id=\"stim\">PISTOL</p>", "key_press": -1, "type": "PRES_VIS", "word": "pistol", "wordID": 1074, "conditions": [24, 800, "v", 24000], "trial": 5, "serialpos": 5, "trial_type": "single-stim", "trial_index": 214, "time_elapsed": 1145557, "internal_node_id": "0.0-160.0"}}, {"uniqueid": "MTK1170:3EG49X351VJ7R5D2EZ4SEAH7PAE6XR", "current_trial": 215, "dateTime": 1513269515491, "trialdata": {"rt": -1, "stimulus": "<p id=\"stim\">BACON</p>", "key_press": -1, "type": "PRES_VIS", "word": "bacon", "wordID": 66, "conditions": [24, 800, "v", 24000], "trial": 5, "serialpos": 6, "trial_type": "single-stim", "trial_index": 215, "time_elapsed": 1147314, "internal_node_id": "0.0-161.0"}}, {"uniqueid": "MTK1170:3EG49X351VJ7R5D2EZ4SEAH7PAE6XR", "current_trial": 216, "dateTime": 1513269517381, "trialdata": {"rt": -1, "stimulus": "<p id=\"stim\">RELISH</p>", "key_press": -1, "type": "PRES_VIS", "word": "relish", "wordID": 1182, "conditions": [24, 800, "v", 24000], "trial": 5, "serialpos": 7, "trial_type": "single-stim", "trial_index": 216, "time_elapsed": 1149203, "internal_node_id": "0.0-162.0"}}, {"uniqueid": "MTK1170:3EG49X351VJ7R5D2EZ4SEAH7PAE6XR", "current_trial": 217, "dateTime": 1513269519276, "trialdata": {"rt": -1, "stimulus": "<p id=\"stim\">FOX</p>", "key_press": -1, "type": "PRES_VIS", "word": "fox", "wordID": 597, "conditions": [24, 800, "v", 24000], "trial": 5, "serialpos": 8, "trial_type": "single-stim", "trial_index": 217, "time_elapsed": 1151099, "internal_node_id": "0.0-163.0"}}, {"uniqueid": "MTK1170:3EG49X351VJ7R5D2EZ4SEAH7PAE6XR", "current_trial": 218, "dateTime": 1513269520918, "trialdata": {"rt": -1, "stimulus": "<p id=\"stim\">JURY</p>", "key_press": -1, "type": "PRES_VIS", "word": "jury", "wordID": 765, "conditions": [24, 800, "v", 24000], "trial": 5, "serialpos": 9, "trial_type": "single-stim", "trial_index": 218, "time_elapsed": 1152741, "internal_node_id": "0.0-164.0"}}, {"uniqueid": "MTK1170:3EG49X351VJ7R5D2EZ4SEAH7PAE6XR", "current_trial": 219, "dateTime": 1513269522842, "trialdata": {"rt": -1, "stimulus": "<p id=\"stim\">PUPPY</p>", "key_press": -1, "type": "PRES_VIS", "word": "puppy", "wordID": 1143, "conditions": [24, 800, "v", 24000], "trial": 5, "serialpos": 10, "trial_type": "single-stim", "trial_index": 219, "time_elapsed": 1154665, "internal_node_id": "0.0-165.0"}}, {"uniqueid": "MTK1170:3EG49X351VJ7R5D2EZ4SEAH7PAE6XR", "current_trial": 220, "dateTime": 1513269524795, "trialdata": {"rt": -1, "stimulus": "<p id=\"stim\">BRICK</p>", "key_press": -1, "type": "PRES_VIS", "word": "brick", "wordID": 171, "conditions": [24, 800, "v", 24000], "trial": 5, "serialpos": 11, "trial_type": "single-stim", "trial_index": 220, "time_elapsed": 1156618, "internal_node_id": "0.0-166.0"}}, {"uniqueid": "MTK1170:3EG49X351VJ7R5D2EZ4SEAH7PAE6XR", "current_trial": 221, "dateTime": 1513269526539, "trialdata": {"rt": -1, "stimulus": "<p id=\"stim\">PEACH</p>", "key_press": -1, "type": "PRES_VIS", "word": "peach", "wordID": 1030, "conditions": [24, 800, "v", 24000], "trial": 5, "serialpos": 12, "trial_type": "single-stim", "trial_index": 221, "time_elapsed": 1158362, "internal_node_id": "0.0-167.0"}}, {"uniqueid": "MTK1170:3EG49X351VJ7R5D2EZ4SEAH7PAE6XR", "current_trial": 222, "dateTime": 1513269528391, "trialdata": {"rt": -1, "stimulus": "<p id=\"stim\">GARDEN</p>", "key_press": -1, "type": "PRES_VIS", "word": "garden", "wordID": 622, "conditions": [24, 800, "v", 24000], "trial": 5, "serialpos": 13, "trial_type": "single-stim", "trial_index": 222, "time_elapsed": 1160214, "internal_node_id": "0.0-168.0"}}, {"uniqueid": "MTK1170:3EG49X351VJ7R5D2EZ4SEAH7PAE6XR", "current_trial": 223, "dateTime": 1513269530150, "trialdata": {"rt": -1, "stimulus": "<p id=\"stim\">CHAMPAGNE</p>", "key_press": -1, "type": "PRES_VIS", "word": "champagne", "wordID": 277, "conditions": [24, 800, "v", 24000], "trial": 5, "serialpos": 14, "trial_type": "single-stim", "trial_index": 223, "time_elapsed": 1161973, "internal_node_id": "0.0-169.0"}}, {"uniqueid": "MTK1170:3EG49X351VJ7R5D2EZ4SEAH7PAE6XR", "current_trial": 224, "dateTime": 1513269531899, "trialdata": {"rt": -1, "stimulus": "<p id=\"stim\">ZEBRA</p>", "key_press": -1, "type": "PRES_VIS", "word": "zebra", "wordID": 1634, "conditions": [24, 800, "v", 24000], "trial": 5, "serialpos": 15, "trial_type": "single-stim", "trial_index": 224, "time_elapsed": 1163722, "internal_node_id": "0.0-170.0"}}, {"uniqueid": "MTK1170:3EG49X351VJ7R5D2EZ4SEAH7PAE6XR", "current_trial": 225, "dateTime": 1513269533838, "trialdata": {"rt": -1, "stimulus": "<p id=\"stim\">ROBIN</p>", "key_press": -1, "type": "PRES_VIS", "word": "robin", "wordID": 1198, "conditions": [24, 800, "v", 24000], "trial": 5, "serialpos": 16, "trial_type": "single-stim", "trial_index": 225, "time_elapsed": 1165661, "internal_node_id": "0.0-171.0"}}, {"uniqueid": "MTK1170:3EG49X351VJ7R5D2EZ4SEAH7PAE6XR", "current_trial": 226, "dateTime": 1513269535458, "trialdata": {"rt": -1, "stimulus": "<p id=\"stim\">COCOON</p>", "key_press": -1, "type": "PRES_VIS", "word": "cocoon", "wordID": 338, "conditions": [24, 800, "v", 24000], "trial": 5, "serialpos": 17, "trial_type": "single-stim", "trial_index": 226, "time_elapsed": 1167281, "internal_node_id": "0.0-172.0"}}, {"uniqueid": "MTK1170:3EG49X351VJ7R5D2EZ4SEAH7PAE6XR", "current_trial": 227, "dateTime": 1513269537302, "trialdata": {"rt": -1, "stimulus": "<p id=\"stim\">MATTRESS</p>", "key_press": -1, "type": "PRES_VIS", "word": "mattress", "wordID": 878, "conditions": [24, 800, "v", 24000], "trial": 5, "serialpos": 18, "trial_type": "single-stim", "trial_index": 227, "time_elapsed": 1169125, "internal_node_id": "0.0-173.0"}}, {"uniqueid": "MTK1170:3EG49X351VJ7R5D2EZ4SEAH7PAE6XR", "current_trial": 228, "dateTime": 1513269539143, "trialdata": {"rt": -1, "stimulus": "<p id=\"stim\">COUCH</p>", "key_press": -1, "type": "PRES_VIS", "word": "couch", "wordID": 385, "conditions": [24, 800, "v", 24000], "trial": 5, "serialpos": 19, "trial_type": "single-stim", "trial_index": 228, "time_elapsed": 1170965, "internal_node_id": "0.0-174.0"}}, {"uniqueid": "MTK1170:3EG49X351VJ7R5D2EZ4SEAH7PAE6XR", "current_trial": 229, "dateTime": 1513269540844, "trialdata": {"rt": -1, "stimulus": "<p id=\"stim\">MARSH</p>", "key_press": -1, "type": "PRES_VIS", "word": "marsh", "wordID": 873, "conditions": [24, 800, "v", 24000], "trial": 5, "serialpos": 20, "trial_type": "single-stim", "trial_index": 229, "time_elapsed": 1172667, "internal_node_id": "0.0-175.0"}}, {"uniqueid": "MTK1170:3EG49X351VJ7R5D2EZ4SEAH7PAE6XR", "current_trial": 230, "dateTime": 1513269542694, "trialdata": {"rt": -1, "stimulus": "<p id=\"stim\">SWITCH</p>", "key_press": -1, "type": "PRES_VIS", "word": "switch", "wordID": 1421, "conditions": [24, 800, "v", 24000], "trial": 5, "serialpos": 21, "trial_type": "single-stim", "trial_index": 230, "time_elapsed": 1174516, "internal_node_id": "0.0-176.0"}}, {"uniqueid": "MTK1170:3EG49X351VJ7R5D2EZ4SEAH7PAE6XR", "current_trial": 231, "dateTime": 1513269544415, "trialdata": {"rt": -1, "stimulus": "<p id=\"stim\">SNACK</p>", "key_press": -1, "type": "PRES_VIS", "word": "snack", "wordID": 1330, "conditions": [24, 800, "v", 24000], "trial": 5, "serialpos": 22, "trial_type": "single-stim", "trial_index": 231, "time_elapsed": 1176238, "internal_node_id": "0.0-177.0"}}, {"uniqueid": "MTK1170:3EG49X351VJ7R5D2EZ4SEAH7PAE6XR", "current_trial": 232, "dateTime": 1513269546279, "trialdata": {"rt": -1, "stimulus": "<p id=\"stim\">PECAN</p>", "key_press": -1, "type": "PRES_VIS", "word": "pecan", "wordID": 1035, "conditions": [24, 800, "v", 24000], "trial": 5, "serialpos": 23, "trial_type": "single-stim", "trial_index": 232, "time_elapsed": 1178102, "internal_node_id": "0.0-178.0"}}, {"uniqueid": "MTK1170:3EG49X351VJ7R5D2EZ4SEAH7PAE6XR", "current_trial": 233, "dateTime": 1513269548598, "trialdata": {"rt": -1, "stimulus": "", "key_press": -1, "type": "PRE_RECALL_DELAY", "trial_type": "single-stim", "trial_index": 233, "time_elapsed": 1180421, "internal_node_id": "0.0-179.0-0.0"}}, {"uniqueid": "MTK1170:3EG49X351VJ7R5D2EZ4SEAH7PAE6XR", "current_trial": 234, "dateTime": 1513269549100, "trialdata": {"rt": -1000, "stimulus": "/static/audio/400Hz.wav", "key_press": -1, "type": "PRE_RECALL_ALERT", "trial_type": "single-audio", "trial_index": 234, "time_elapsed": 1180922, "internal_node_id": "0.0-180.0"}}, {"uniqueid": "MTK1170:3EG49X351VJ7R5D2EZ4SEAH7PAE6XR", "current_trial": 235, "dateTime": 1513269609107, "trialdata": {"rt": [2062, 5142, 5815, 8286, 12782, 14926, 22206, 24311, 38399], "recwords": ["judge", "eagle", "g", "globe", "switch", "marsh", "knife", "pistol", "jury"], "type": "FREE_RECALL", "conditions": [24, 800, "v", 24000], "trial": 5, "trial_type": "free-recall", "trial_index": 235, "time_elapsed": 1240926, "internal_node_id": "0.0-181.0-0.0"}}, {"uniqueid": "MTK1170:3EG49X351VJ7R5D2EZ4SEAH7PAE6XR", "current_trial": 236, "dateTime": 1513269653195, "trialdata": {"rt": 42087, "key_press": 13, "type": "INSTRUCTIONS", "trial_type": "text", "trial_index": 236, "time_elapsed": 1285018, "internal_node_id": "0.0-182.0"}}, {"uniqueid": "MTK1170:3EG49X351VJ7R5D2EZ4SEAH7PAE6XR", "current_trial": 237, "dateTime": 1513269679198, "trialdata": {"rt": [4013, 7741, 9629, 11101, 14941, 16845, 19277, 20661, 23765], "responses": ["16", "20", "8", "14", "12", "10", "12", "111", "17"], "num1": [5, 6, 3, 4, 7, 2, 5, 7, 7, 5], "num2": [9, 8, 3, 8, 1, 3, 1, 3, 3, 4], "num3": [2, 7, 2, 2, 4, 5, 6, 1, 7, 3], "type": "DISTRACTOR", "conditions": [12, 1600, "a", 24000], "trial": 6, "trial_type": "math-distractor", "trial_index": 237, "time_elapsed": 1311021, "internal_node_id": "0.0-183.0"}}, {"uniqueid": "MTK1170:3EG49X351VJ7R5D2EZ4SEAH7PAE6XR", "current_trial": 238, "dateTime": 1513269682201, "trialdata": {"rt": -1, "stimulus": "<p id=\"stim\">10</p>", "key_press": -1, "trial_type": "single-stim", "trial_index": 238, "time_elapsed": 1314023, "internal_node_id": "0.0-184.0-0.0"}}, {"uniqueid": "MTK1170:3EG49X351VJ7R5D2EZ4SEAH7PAE6XR", "current_trial": 239, "dateTime": 1513269683202, "trialdata": {"rt": -1, "stimulus": "<p id=\"stim\">9</p>", "key_press": -1, "trial_type": "single-stim", "trial_index": 239, "time_elapsed": 1315025, "internal_node_id": "0.0-184.0-1.0"}}, {"uniqueid": "MTK1170:3EG49X351VJ7R5D2EZ4SEAH7PAE6XR", "current_trial": 240, "dateTime": 1513269684204, "trialdata": {"rt": -1, "stimulus": "<p id=\"stim\">8</p>", "key_press": -1, "trial_type": "single-stim", "trial_index": 240, "time_elapsed": 1316026, "internal_node_id": "0.0-184.0-2.0"}}, {"uniqueid": "MTK1170:3EG49X351VJ7R5D2EZ4SEAH7PAE6XR", "current_trial": 241, "dateTime": 1513269685205, "trialdata": {"rt": -1, "stimulus": "<p id=\"stim\">7</p>", "key_press": -1, "trial_type": "single-stim", "trial_index": 241, "time_elapsed": 1317028, "internal_node_id": "0.0-184.0-3.0"}}, {"uniqueid": "MTK1170:3EG49X351VJ7R5D2EZ4SEAH7PAE6XR", "current_trial": 242, "dateTime": 1513269686206, "trialdata": {"rt": -1, "stimulus": "<p id=\"stim\">6</p>", "key_press": -1, "trial_type": "single-stim", "trial_index": 242, "time_elapsed": 1318029, "internal_node_id": "0.0-184.0-4.0"}}, {"uniqueid": "MTK1170:3EG49X351VJ7R5D2EZ4SEAH7PAE6XR", "current_trial": 243, "dateTime": 1513269687207, "trialdata": {"rt": -1, "stimulus": "<p id=\"stim\">5</p>", "key_press": -1, "trial_type": "single-stim", "trial_index": 243, "time_elapsed": 1319030, "internal_node_id": "0.0-184.0-5.0"}}, {"uniqueid": "MTK1170:3EG49X351VJ7R5D2EZ4SEAH7PAE6XR", "current_trial": 244, "dateTime": 1513269688208, "trialdata": {"rt": -1, "stimulus": "<p id=\"stim\">4</p>", "key_press": -1, "trial_type": "single-stim", "trial_index": 244, "time_elapsed": 1320031, "internal_node_id": "0.0-184.0-6.0"}}, {"uniqueid": "MTK1170:3EG49X351VJ7R5D2EZ4SEAH7PAE6XR", "current_trial": 245, "dateTime": 1513269689209, "trialdata": {"rt": -1, "stimulus": "<p id=\"stim\">3</p>", "key_press": -1, "trial_type": "single-stim", "trial_index": 245, "time_elapsed": 1321032, "internal_node_id": "0.0-184.0-7.0"}}, {"uniqueid": "MTK1170:3EG49X351VJ7R5D2EZ4SEAH7PAE6XR", "current_trial": 246, "dateTime": 1513269690211, "trialdata": {"rt": -1, "stimulus": "<p id=\"stim\">2</p>", "key_press": -1, "trial_type": "single-stim", "trial_index": 246, "time_elapsed": 1322034, "internal_node_id": "0.0-184.0-8.0"}}, {"uniqueid": "MTK1170:3EG49X351VJ7R5D2EZ4SEAH7PAE6XR", "current_trial": 247, "dateTime": 1513269691212, "trialdata": {"rt": -1, "stimulus": "<p id=\"stim\">1</p>", "key_press": -1, "trial_type": "single-stim", "trial_index": 247, "time_elapsed": 1323035, "internal_node_id": "0.0-184.0-9.0"}}, {"uniqueid": "MTK1170:3EG49X351VJ7R5D2EZ4SEAH7PAE6XR", "current_trial": 248, "dateTime": 1513269692715, "trialdata": {"rt": -1, "stimulus": "<p id=\"stim\">+</p>", "key_press": -1, "type": "FIXATION", "trial_type": "single-stim", "trial_index": 248, "time_elapsed": 1324537, "internal_node_id": "0.0-185.0-0.0"}}, {"uniqueid": "MTK1170:3EG49X351VJ7R5D2EZ4SEAH7PAE6XR", "current_trial": 249, "dateTime": 1513269695412, "trialdata": {"rt": -1000, "stimulus": "/static/audio/wordpool/FRIEND.wav", "key_press": -1, "type": "PRES_AUD", "word": "friend", "wordID": 605, "conditions": [12, 1600, "a", 24000], "trial": 6, "serialpos": 0, "trial_type": "single-audio", "trial_index": 249, "time_elapsed": 1327235, "internal_node_id": "0.0-186.0"}}, {"uniqueid": "MTK1170:3EG49X351VJ7R5D2EZ4SEAH7PAE6XR", "current_trial": 250, "dateTime": 1513269698010, "trialdata": {"rt": -1000, "stimulus": "/static/audio/wordpool/LAMP.wav", "key_press": -1, "type": "PRES_AUD", "word": "lamp", "wordID": 797, "conditions": [12, 1600, "a", 24000], "trial": 6, "serialpos": 1, "trial_type": "single-audio", "trial_index": 250, "time_elapsed": 1329833, "internal_node_id": "0.0-187.0"}}, {"uniqueid": "MTK1170:3EG49X351VJ7R5D2EZ4SEAH7PAE6XR", "current_trial": 251, "dateTime": 1513269700718, "trialdata": {"rt": -1000, "stimulus": "/static/audio/wordpool/SUSPECT.wav", "key_press": -1, "type": "PRES_AUD", "word": "suspect", "wordID": 1414, "conditions": [12, 1600, "a", 24000], "trial": 6, "serialpos": 2, "trial_type": "single-audio", "trial_index": 251, "time_elapsed": 1332541, "internal_node_id": "0.0-188.0"}}, {"uniqueid": "MTK1170:3EG49X351VJ7R5D2EZ4SEAH7PAE6XR", "current_trial": 252, "dateTime": 1513269703442, "trialdata": {"rt": -1000, "stimulus": "/static/audio/wordpool/SHIRT.wav", "key_press": -1, "type": "PRES_AUD", "word": "shirt", "wordID": 1286, "conditions": [12, 1600, "a", 24000], "trial": 6, "serialpos": 3, "trial_type": "single-audio", "trial_index": 252, "time_elapsed": 1335265, "internal_node_id": "0.0-189.0"}}, {"uniqueid": "MTK1170:3EG49X351VJ7R5D2EZ4SEAH7PAE6XR", "current_trial": 253, "dateTime": 1513269706084, "trialdata": {"rt": -1000, "stimulus": "/static/audio/wordpool/HEADBAND.wav", "key_press": -1, "type": "PRES_AUD", "word": "headband", "wordID": 695, "conditions": [12, 1600, "a", 24000], "trial": 6, "serialpos": 4, "trial_type": "single-audio", "trial_index": 253, "time_elapsed": 1337906, "internal_node_id": "0.0-190.0"}}, {"uniqueid": "MTK1170:3EG49X351VJ7R5D2EZ4SEAH7PAE6XR", "current_trial": 254, "dateTime": 1513269708871, "trialdata": {"rt": -1000, "stimulus": "/static/audio/wordpool/VICTIM.wav", "key_press": -1, "type": "PRES_AUD", "word": "victim", "wordID": 1561, "conditions": [12, 1600, "a", 24000], "trial": 6, "serialpos": 5, "trial_type": "single-audio", "trial_index": 254, "time_elapsed": 1340694, "internal_node_id": "0.0-191.0"}}, {"uniqueid": "MTK1170:3EG49X351VJ7R5D2EZ4SEAH7PAE6XR", "current_trial": 255, "dateTime": 1513269711304, "trialdata": {"rt": -1000, "stimulus": "/static/audio/wordpool/DINER.wav", "key_press": -1, "type": "PRES_AUD", "word": "diner", "wordID": 466, "conditions": [12, 1600, "a", 24000], "trial": 6, "serialpos": 6, "trial_type": "single-audio", "trial_index": 255, "time_elapsed": 1343127, "internal_node_id": "0.0-192.0"}}, {"uniqueid": "MTK1170:3EG49X351VJ7R5D2EZ4SEAH7PAE6XR", "current_trial": 256, "dateTime": 1513269714001, "trialdata": {"rt": -1000, "stimulus": "/static/audio/wordpool/FARMER.wav", "key_press": -1, "type": "PRES_AUD", "word": "farmer", "wordID": 552, "conditions": [12, 1600, "a", 24000], "trial": 6, "serialpos": 7, "trial_type": "single-audio", "trial_index": 256, "time_elapsed": 1345824, "internal_node_id": "0.0-193.0"}}, {"uniqueid": "MTK1170:3EG49X351VJ7R5D2EZ4SEAH7PAE6XR", "current_trial": 257, "dateTime": 1513269716713, "trialdata": {"rt": -1000, "stimulus": "/static/audio/wordpool/SERVER.wav", "key_press": -1, "type": "PRES_AUD", "word": "server", "wordID": 1271, "conditions": [12, 1600, "a", 24000], "trial": 6, "serialpos": 8, "trial_type": "single-audio", "trial_index": 257, "time_elapsed": 1348536, "internal_node_id": "0.0-194.0"}}, {"uniqueid": "MTK1170:3EG49X351VJ7R5D2EZ4SEAH7PAE6XR", "current_trial": 258, "dateTime": 1513269719155, "trialdata": {"rt": -1000, "stimulus": "/static/audio/wordpool/WINDOW.wav", "key_press": -1, "type": "PRES_AUD", "word": "window", "wordID": 1610, "conditions": [12, 1600, "a", 24000], "trial": 6, "serialpos": 9, "trial_type": "single-audio", "trial_index": 258, "time_elapsed": 1350978, "internal_node_id": "0.0-195.0"}}, {"uniqueid": "MTK1170:3EG49X351VJ7R5D2EZ4SEAH7PAE6XR", "current_trial": 259, "dateTime": 1513269721922, "trialdata": {"rt": -1000, "stimulus": "/static/audio/wordpool/STUDENT.wav", "key_press": -1, "type": "PRES_AUD", "word": "student", "wordID": 1394, "conditions": [12, 1600, "a", 24000], "trial": 6, "serialpos": 10, "trial_type": "single-audio", "trial_index": 259, "time_elapsed": 1353745, "internal_node_id": "0.0-196.0"}}, {"uniqueid": "MTK1170:3EG49X351VJ7R5D2EZ4SEAH7PAE6XR", "current_trial": 260, "dateTime": 1513269724682, "trialdata": {"rt": -1000, "stimulus": "/static/audio/wordpool/MAMMAL.wav", "key_press": -1, "type": "PRES_AUD", "word": "mammal", "wordID": 860, "conditions": [12, 1600, "a", 24000], "trial": 6, "serialpos": 11, "trial_type": "single-audio", "trial_index": 260, "time_elapsed": 1356505, "internal_node_id": "0.0-197.0"}}, {"uniqueid": "MTK1170:3EG49X351VJ7R5D2EZ4SEAH7PAE6XR", "current_trial": 261, "dateTime": 1513269725887, "trialdata": {"rt": -1, "stimulus": "", "key_press": -1, "type": "PRE_RECALL_DELAY", "trial_type": "single-stim", "trial_index": 261, "time_elapsed": 1357710, "internal_node_id": "0.0-198.0-0.0"}}, {"uniqueid": "MTK1170:3EG49X351VJ7R5D2EZ4SEAH7PAE6XR", "current_trial": 262, "dateTime": 1513269726389, "trialdata": {"rt": -1000, "stimulus": "/static/audio/400Hz.wav", "key_press": -1, "type": "PRE_RECALL_ALERT", "trial_type": "single-audio", "trial_index": 262, "time_elapsed": 1358211, "internal_node_id": "0.0-199.0"}}, {"uniqueid": "MTK1170:3EG49X351VJ7R5D2EZ4SEAH7PAE6XR", "current_trial": 263, "dateTime": 1513269786397, "trialdata": {"rt": [3717, 5165, 10589, 12477, 14445, 19670, 25302, 28030, 29414, 30006, 30198, 33190, 41134, 52022], "recwords": ["mammal", "student", "diner", "window", "farmer", "student", "friend", "suspect", "shirt", "", "a", "lamp", "victim", "headband"], "type": "FREE_RECALL", "conditions": [12, 1600, "a", 24000], "trial": 6, "trial_type": "free-recall", "trial_index": 263, "time_elapsed": 1418215, "internal_node_id": "0.0-200.0-0.0"}}, {"uniqueid": "MTK1170:3EG49X351VJ7R5D2EZ4SEAH7PAE6XR", "current_trial": 264, "dateTime": 1513269790613, "trialdata": {"rt": 2215, "key_press": 13, "type": "INSTRUCTIONS", "trial_type": "text", "trial_index": 264, "time_elapsed": 1422436, "internal_node_id": "0.0-201.0"}}, {"uniqueid": "MTK1170:3EG49X351VJ7R5D2EZ4SEAH7PAE6XR", "current_trial": 265, "dateTime": 1513269804615, "trialdata": {"rt": [2326, 4102, 6014, 11294], "responses": ["16", "10", "14", "23"], "num1": [4, 2, 6, 9, 6], "num2": [3, 1, 4, 8, 1], "num3": [9, 7, 4, 6, 6], "type": "DISTRACTOR", "conditions": [24, 800, "v", 12000], "trial": 7, "trial_type": "math-distractor", "trial_index": 265, "time_elapsed": 1436438, "internal_node_id": "0.0-202.0"}}, {"uniqueid": "MTK1170:3EG49X351VJ7R5D2EZ4SEAH7PAE6XR", "current_trial": 266, "dateTime": 1513269807616, "trialdata": {"rt": -1, "stimulus": "<p id=\"stim\">10</p>", "key_press": -1, "trial_type": "single-stim", "trial_index": 266, "time_elapsed": 1439439, "internal_node_id": "0.0-203.0-0.0"}}, {"uniqueid": "MTK1170:3EG49X351VJ7R5D2EZ4SEAH7PAE6XR", "current_trial": 267, "dateTime": 1513269808619, "trialdata": {"rt": -1, "stimulus": "<p id=\"stim\">9</p>", "key_press": -1, "trial_type": "single-stim", "trial_index": 267, "time_elapsed": 1440442, "i