{"assignmentId": "3DYGAII7PMFVSEUV7H89Q2CVR6RQPM", "workerId": "MTK1932", "questiondata": {"origin": "United States", "strat-rehearsal": "40", "marital": "Married/Domestic Partnership", "education": "Bachelor's degree", "ethnicity": "Not Hispanic", "color_depth": 24, "distracted": "No", "wrote-notes": "No", "strat-other": "", "screen_width": 1366, "avail_screen_width": 1366, "avail_screen_height": 728, "strat-image": "50", "language": "English", "gender": "Female", "age": "24", "gender_other": "", "race": ["Asian"], "strat-categorize": "80", "pixel_depth": 24, "strat-spatial": "5", "strat-story": "10", "race_other": "", "screen_height": 768}, "bonus": 0, "hitId": "3GS542CVJVUJKLXWGYJ7HHL58ZK95O", "counterbalance": 2914, "useragent": "Mozilla/5.0 (Windows NT 6.1; Win64; x64) AppleWebKit/537.36 (KHTML, like Gecko) Chrome/63.0.3239.132 Safari/537.36", "eventdata": [{"eventtype": "initialized", "interval": 0, "value": null, "timestamp": 1516558257344}, {"eventtype": "window_resize", "interval": 0, "value": [1366, 678], "timestamp": 1516558257344}, {"eventtype": "focus", "interval": 20748, "value": "off", "timestamp": 1516558278092}, {"eventtype": "focus", "interval": 54555, "value": "on", "timestamp": 1516558332647}, {"eventtype": "focus", "interval": 9682, "value": "off", "timestamp": 1516558342329}, {"eventtype": "focus", "interval": 1, "value": "on", "timestamp": 1516558342330}, {"eventtype": "focus", "interval": 57042, "value": "off", "timestamp": 1516558399372}, {"eventtype": "focus", "interval": 16686, "value": "on", "timestamp": 1516558416058}, {"eventtype": "focus", "interval": 466517, "value": "off", "timestamp": 1516558882575}, {"eventtype": "focus", "interval": 9267, "value": "on", "timestamp": 1516558891842}, {"eventtype": "focus", "interval": 222783, "value": "off", "timestamp": 1516559114625}, {"eventtype": "focus", "interval": 14332, "value": "on", "timestamp": 1516559128957}, {"eventtype": "focus", "interval": 546119, "value": "off", "timestamp": 1516559675076}, {"eventtype": "focus", "interval": 8841, "value": "on", "timestamp": 1516559683917}, {"eventtype": "focus", "interval": 25298, "value": "off", "timestamp": 1516559709215}, {"eventtype": "focus", "interval": 1792, "value": "on", "timestamp": 1516559711007}, {"eventtype": "focus", "interval": 1070, "value": "off", "timestamp": 1516559712077}, {"eventtype": "focus", "interval": 1231, "value": "on", "timestamp": 1516559713308}, {"eventtype": "focus", "interval": 835, "value": "off", "timestamp": 1516559714143}, {"eventtype": "focus", "interval": 1761, "value": "on", "timestamp": 1516559715904}, {"eventtype": "focus", "interval": 597377, "value": "off", "timestamp": 1516560313281}, {"eventtype": "focus", "interval": 3102, "value": "on", "timestamp": 1516560316383}, {"eventtype": "focus", "interval": 4537, "value": "off", "timestamp": 1516560320920}, {"eventtype": "focus", "interval": 3850, "value": "on", "timestamp": 1516560324770}, {"eventtype": "focus", "interval": 687239, "value": "off", "timestamp": 1516561012009}, {"eventtype": "focus", "interval": 4311, "value": "on", "timestamp": 1516561016320}], "data": [{"current_trial": 0, "trialdata": {"rt": 1802, "trial_type": "text", "internal_node_id": "0.0-0.0", "time_elapsed": 1808, "key_press": 74, "type": "INSTRUCTIONS", "trial_index": 0}, "uniqueid": "MTK1932:3DYGAII7PMFVSEUV7H89Q2CVR6RQPM", "dateTime": 1516558261555}, {"current_trial": 1, "trialdata": {"rt": 73538, "trial_type": "text", "internal_node_id": "0.0-1.0", "time_elapsed": 75351, "key_press": 13, "type": "INSTRUCTIONS", "trial_index": 1}, "uniqueid": "MTK1932:3DYGAII7PMFVSEUV7H89Q2CVR6RQPM", "dateTime": 1516558335097}, {"current_trial": 2, "trialdata": {"rt": [5580, 8985], "trial_type": "audio-test", "responses": ["o", "ocean"], "internal_node_id": "0.0-2.0", "time_elapsed": 84357, "type": "AUDIO_TEST", "trial_index": 2}, "uniqueid": "MTK1932:3DYGAII7PMFVSEUV7H89Q2CVR6RQPM", "dateTime": 1516558344103}, {"current_trial": 3, "trialdata": {"rt": [6597], "trial_type": "audio-test", "responses": ["crystal"], "internal_node_id": "0.0-3.0", "time_elapsed": 90966, "type": "AUDIO_TEST", "trial_index": 3}, "uniqueid": "MTK1932:3DYGAII7PMFVSEUV7H89Q2CVR6RQPM", "dateTime": 1516558350711}, {"current_trial": 4, "trialdata": {"rt": [6196], "trial_type": "audio-test", "responses": ["spice"], "internal_node_id": "0.0-4.0", "time_elapsed": 97174, "type": "AUDIO_TEST", "trial_index": 4}, "uniqueid": "MTK1932:3DYGAII7PMFVSEUV7H89Q2CVR6RQPM", "dateTime": 1516558356919}, {"current_trial": 5, "trialdata": {"rt": 24717, "trial_type": "survey-text", "responses": "{\"Q0\":\"2am\",\"Q1\":\"10am\",\"Q2\":\"4\"}", "internal_node_id": "0.0-5.0", "time_elapsed": 122648, "type": "SLEEP_SURVEY", "trial_index": 5}, "uniqueid": "MTK1932:3DYGAII7PMFVSEUV7H89Q2CVR6RQPM", "dateTime": 1516558382393}, {"current_trial": 6, "trialdata": {"rt": 65328, "trial_type": "text", "internal_node_id": "0.0-6.0", "time_elapsed": 188978, "key_press": 13, "type": "INSTRUCTIONS", "trial_index": 6}, "uniqueid": "MTK1932:3DYGAII7PMFVSEUV7H89Q2CVR6RQPM", "dateTime": 1516558448723}, {"current_trial": 7, "trialdata": {"rt": 43978, "trial_type": "text", "internal_node_id": "0.0-7.0", "time_elapsed": 233459, "key_press": 32, "type": "INSTRUCTIONS", "trial_index": 7}, "uniqueid": "MTK1932:3DYGAII7PMFVSEUV7H89Q2CVR6RQPM", "dateTime": 1516558493204}, {"current_trial": 8, "trialdata": {"rt": 13627, "trial_type": "text", "internal_node_id": "0.0-8.0", "time_elapsed": 247586, "key_press": 32, "type": "INSTRUCTIONS", "trial_index": 8}, "uniqueid": "MTK1932:3DYGAII7PMFVSEUV7H89Q2CVR6RQPM", "dateTime": 1516558507331}, {"current_trial": 9, "trialdata": {"rt": [7199, 10890, 13249, 16779], "trial_type": "math-distractor", "key_times": [6602, 6682, 7199, 10409, 10559, 10890, 13010, 13130, 13249, 15853, 16023, 16779], "responses": ["23", "19", "20", "11"], "num2": [9, 8, 9, 4, 6], "num3": [9, 4, 3, 5, 4], "conditions": [18, 1200, "v", 18000], "internal_node_id": "0.0-9.0", "key_presses": [98, 99, 13, 97, 105, 13, 98, 96, 13, 97, 97, 13], "trial": 0, "time_elapsed": 266594, "type": "DISTRACTOR", "trial_index": 9, "num1": [5, 7, 8, 2, 2]}, "uniqueid": "MTK1932:3DYGAII7PMFVSEUV7H89Q2CVR6RQPM", "dateTime": 1516558526340}, {"current_trial": 10, "trialdata": {"rt": -1, "trial_type": "single-stim", "stimulus": "<p id=\"stim\">10</p>", "internal_node_id": "0.0-10.0-0.0", "time_elapsed": 269599, "key_press": -1, "trial_index": 10}, "uniqueid": "MTK1932:3DYGAII7PMFVSEUV7H89Q2CVR6RQPM", "dateTime": 1516558529344}, {"current_trial": 11, "trialdata": {"rt": -1, "trial_type": "single-stim", "stimulus": "<p id=\"stim\">9</p>", "internal_node_id": "0.0-10.0-1.0", "time_elapsed": 270602, "key_press": -1, "trial_index": 11}, "uniqueid": "MTK1932:3DYGAII7PMFVSEUV7H89Q2CVR6RQPM", "dateTime": 1516558530347}, {"current_trial": 12, "trialdata": {"rt": -1, "trial_type": "single-stim", "stimulus": "<p id=\"stim\">8</p>", "internal_node_id": "0.0-10.0-2.0", "time_elapsed": 271603, "key_press": -1, "trial_index": 12}, "uniqueid": "MTK1932:3DYGAII7PMFVSEUV7H89Q2CVR6RQPM", "dateTime": 1516558531348}, {"current_trial": 13, "trialdata": {"rt": -1, "trial_type": "single-stim", "stimulus": "<p id=\"stim\">7</p>", "internal_node_id": "0.0-10.0-3.0", "time_elapsed": 272605, "key_press": -1, "trial_index": 13}, "uniqueid": "MTK1932:3DYGAII7PMFVSEUV7H89Q2CVR6RQPM", "dateTime": 1516558532350}, {"current_trial": 14, "trialdata": {"rt": -1, "trial_type": "single-stim", "stimulus": "<p id=\"stim\">6</p>", "internal_node_id": "0.0-10.0-4.0", "time_elapsed": 273606, "key_press": -1, "trial_index": 14}, "uniqueid": "MTK1932:3DYGAII7PMFVSEUV7H89Q2CVR6RQPM", "dateTime": 1516558533351}, {"current_trial": 15, "trialdata": {"rt": -1, "trial_type": "single-stim", "stimulus": "<p id=\"stim\">5</p>", "internal_node_id": "0.0-10.0-5.0", "time_elapsed": 274608, "key_press": -1, "trial_index": 15}, "uniqueid": "MTK1932:3DYGAII7PMFVSEUV7H89Q2CVR6RQPM", "dateTime": 1516558534353}, {"current_trial": 16, "trialdata": {"rt": -1, "trial_type": "single-stim", "stimulus": "<p id=\"stim\">4</p>", "internal_node_id": "0.0-10.0-6.0", "time_elapsed": 275610, "key_press": -1, "trial_index": 16}, "uniqueid": "MTK1932:3DYGAII7PMFVSEUV7H89Q2CVR6RQPM", "dateTime": 1516558535355}, {"current_trial": 17, "trialdata": {"rt": -1, "trial_type": "single-stim", "stimulus": "<p id=\"stim\">3</p>", "internal_node_id": "0.0-10.0-7.0", "time_elapsed": 276611, "key_press": -1, "trial_index": 17}, "uniqueid": "MTK1932:3DYGAII7PMFVSEUV7H89Q2CVR6RQPM", "dateTime": 1516558536356}, {"current_trial": 18, "trialdata": {"rt": -1, "trial_type": "single-stim", "stimulus": "<p id=\"stim\">2</p>", "internal_node_id": "0.0-10.0-8.0", "time_elapsed": 277612, "key_press": -1, "trial_index": 18}, "uniqueid": "MTK1932:3DYGAII7PMFVSEUV7H89Q2CVR6RQPM", "dateTime": 1516558537358}, {"current_trial": 19, "trialdata": {"rt": -1, "trial_type": "single-stim", "stimulus": "<p id=\"stim\">1</p>", "internal_node_id": "0.0-10.0-9.0", "time_elapsed": 278613, "key_press": -1, "trial_index": 19}, "uniqueid": "MTK1932:3DYGAII7PMFVSEUV7H89Q2CVR6RQPM", "dateTime": 1516558538359}, {"current_trial": 20, "trialdata": {"rt": -1, "trial_type": "single-stim", "stimulus": "<p id=\"stim\">+</p>", "internal_node_id": "0.0-11.0-0.0", "time_elapsed": 280114, "key_press": -1, "type": "FIXATION", "trial_index": 20}, "uniqueid": "MTK1932:3DYGAII7PMFVSEUV7H89Q2CVR6RQPM", "dateTime": 1516558539860}, {"current_trial": 21, "trialdata": {"rt": -1, "trial_type": "single-stim", "word": "coin", "stimulus": "<p id=\"stim\">COIN</p>", "conditions": [18, 1200, "v", 18000], "internal_node_id": "0.0-12.0", "trial": 0, "time_elapsed": 281316, "serialpos": 0, "key_press": -1, "wordID": 342, "type": "PRES_VIS", "trial_index": 21}, "uniqueid": "MTK1932:3DYGAII7PMFVSEUV7H89Q2CVR6RQPM", "dateTime": 1516558541061}, {"current_trial": 22, "trialdata": {"rt": -1, "trial_type": "single-stim", "word": "neutron", "stimulus": "<p id=\"stim\">NEUTRON</p>", "conditions": [18, 1200, "v", 18000], "internal_node_id": "0.0-13.0", "trial": 0, "time_elapsed": 283687, "serialpos": 1, "key_press": -1, "wordID": 946, "type": "PRES_VIS", "trial_index": 22}, "uniqueid": "MTK1932:3DYGAII7PMFVSEUV7H89Q2CVR6RQPM", "dateTime": 1516558543432}, {"current_trial": 23, "trialdata": {"rt": -1, "trial_type": "single-stim", "word": "viking", "stimulus": "<p id=\"stim\">VIKING</p>", "conditions": [18, 1200, "v", 18000], "internal_node_id": "0.0-14.0", "trial": 0, "time_elapsed": 285777, "serialpos": 2, "key_press": -1, "wordID": 1564, "type": "PRES_VIS", "trial_index": 23}, "uniqueid": "MTK1932:3DYGAII7PMFVSEUV7H89Q2CVR6RQPM", "dateTime": 1516558545522}, {"current_trial": 24, "trialdata": {"rt": -1, "trial_type": "single-stim", "word": "servant", "stimulus": "<p id=\"stim\">SERVANT</p>", "conditions": [18, 1200, "v", 18000], "internal_node_id": "0.0-15.0", "trial": 0, "time_elapsed": 287951, "serialpos": 3, "key_press": -1, "wordID": 1270, "type": "PRES_VIS", "trial_index": 24}, "uniqueid": "MTK1932:3DYGAII7PMFVSEUV7H89Q2CVR6RQPM", "dateTime": 1516558547696}, {"current_trial": 25, "trialdata": {"rt": -1, "trial_type": "single-stim", "word": "bucket", "stimulus": "<p id=\"stim\">BUCKET</p>", "conditions": [18, 1200, "v", 18000], "internal_node_id": "0.0-16.0", "trial": 0, "time_elapsed": 290248, "serialpos": 4, "key_press": -1, "wordID": 183, "type": "PRES_VIS", "trial_index": 25}, "uniqueid": "MTK1932:3DYGAII7PMFVSEUV7H89Q2CVR6RQPM", "dateTime": 1516558549994}, {"current_trial": 26, "trialdata": {"rt": -1, "trial_type": "single-stim", "word": "sponge", "stimulus": "<p id=\"stim\">SPONGE</p>", "conditions": [18, 1200, "v", 18000], "internal_node_id": "0.0-17.0", "trial": 0, "time_elapsed": 292424, "serialpos": 5, "key_press": -1, "wordID": 1354, "type": "PRES_VIS", "trial_index": 26}, "uniqueid": "MTK1932:3DYGAII7PMFVSEUV7H89Q2CVR6RQPM", "dateTime": 1516558552169}, {"current_trial": 27, "trialdata": {"rt": -1, "trial_type": "single-stim", "word": "princess", "stimulus": "<p id=\"stim\">PRINCESS</p>", "conditions": [18, 1200, "v", 18000], "internal_node_id": "0.0-18.0", "trial": 0, "time_elapsed": 294475, "serialpos": 6, "key_press": -1, "wordID": 1124, "type": "PRES_VIS", "trial_index": 27}, "uniqueid": "MTK1932:3DYGAII7PMFVSEUV7H89Q2CVR6RQPM", "dateTime": 1516558554220}, {"current_trial": 28, "trialdata": {"rt": -1, "trial_type": "single-stim", "word": "summit", "stimulus": "<p id=\"stim\">SUMMIT</p>", "conditions": [18, 1200, "v", 18000], "internal_node_id": "0.0-19.0", "trial": 0, "time_elapsed": 296673, "serialpos": 7, "key_press": -1, "wordID": 1404, "type": "PRES_VIS", "trial_index": 28}, "uniqueid": "MTK1932:3DYGAII7PMFVSEUV7H89Q2CVR6RQPM", "dateTime": 1516558556418}, {"current_trial": 29, "trialdata": {"rt": -1, "trial_type": "single-stim", "word": "pastry", "stimulus": "<p id=\"stim\">PASTRY</p>", "conditions": [18, 1200, "v", 18000], "internal_node_id": "0.0-20.0", "trial": 0, "time_elapsed": 298747, "serialpos": 8, "key_press": -1, "wordID": 1021, "type": "PRES_VIS", "trial_index": 29}, "uniqueid": "MTK1932:3DYGAII7PMFVSEUV7H89Q2CVR6RQPM", "dateTime": 1516558558492}, {"current_trial": 30, "trialdata": {"rt": -1, "trial_type": "single-stim", "word": "female", "stimulus": "<p id=\"stim\">FEMALE</p>", "conditions": [18, 1200, "v", 18000], "internal_node_id": "0.0-21.0", "trial": 0, "time_elapsed": 300943, "serialpos": 9, "key_press": -1, "wordID": 558, "type": "PRES_VIS", "trial_index": 30}, "uniqueid": "MTK1932:3DYGAII7PMFVSEUV7H89Q2CVR6RQPM", "dateTime": 1516558560688}, {"current_trial": 31, "trialdata": {"rt": -1, "trial_type": "single-stim", "word": "apron", "stimulus": "<p id=\"stim\">APRON</p>", "conditions": [18, 1200, "v", 18000], "internal_node_id": "0.0-22.0", "trial": 0, "time_elapsed": 303122, "serialpos": 10, "key_press": -1, "wordID": 34, "type": "PRES_VIS", "trial_index": 31}, "uniqueid": "MTK1932:3DYGAII7PMFVSEUV7H89Q2CVR6RQPM", "dateTime": 1516558562867}, {"current_trial": 32, "trialdata": {"rt": -1, "trial_type": "single-stim", "word": "quail", "stimulus": "<p id=\"stim\">QUAIL</p>", "conditions": [18, 1200, "v", 18000], "internal_node_id": "0.0-23.0", "trial": 0, "time_elapsed": 305322, "serialpos": 11, "key_press": -1, "wordID": 1146, "type": "PRES_VIS", "trial_index": 32}, "uniqueid": "MTK1932:3DYGAII7PMFVSEUV7H89Q2CVR6RQPM", "dateTime": 1516558565067}, {"current_trial": 33, "trialdata": {"rt": -1, "trial_type": "single-stim", "word": "paper", "stimulus": "<p id=\"stim\">PAPER</p>", "conditions": [18, 1200, "v", 18000], "internal_node_id": "0.0-24.0", "trial": 0, "time_elapsed": 307380, "serialpos": 12, "key_press": -1, "wordID": 1010, "type": "PRES_VIS", "trial_index": 33}, "uniqueid": "MTK1932:3DYGAII7PMFVSEUV7H89Q2CVR6RQPM", "dateTime": 1516558567125}, {"current_trial": 34, "trialdata": {"rt": -1, "trial_type": "single-stim", "word": "seagull", "stimulus": "<p id=\"stim\">SEAGULL</p>", "conditions": [18, 1200, "v", 18000], "internal_node_id": "0.0-25.0", "trial": 0, "time_elapsed": 309600, "serialpos": 13, "key_press": -1, "wordID": 1260, "type": "PRES_VIS", "trial_index": 34}, "uniqueid": "MTK1932:3DYGAII7PMFVSEUV7H89Q2CVR6RQPM", "dateTime": 1516558569345}, {"current_trial": 35, "trialdata": {"rt": -1, "trial_type": "single-stim", "word": "cocoon", "stimulus": "<p id=\"stim\">COCOON</p>", "conditions": [18, 1200, "v", 18000], "internal_node_id": "0.0-26.0", "trial": 0, "time_elapsed": 311700, "serialpos": 14, "key_press": -1, "wordID": 338, "type": "PRES_VIS", "trial_index": 35}, "uniqueid": "MTK1932:3DYGAII7PMFVSEUV7H89Q2CVR6RQPM", "dateTime": 1516558571445}, {"current_trial": 36, "trialdata": {"rt": -1, "trial_type": "single-stim", "word": "tart", "stimulus": "<p id=\"stim\">TART</p>", "conditions": [18, 1200, "v", 18000], "internal_node_id": "0.0-27.0", "trial": 0, "time_elapsed": 314009, "serialpos": 15, "key_press": -1, "wordID": 1435, "type": "PRES_VIS", "trial_index": 36}, "uniqueid": "MTK1932:3DYGAII7PMFVSEUV7H89Q2CVR6RQPM", "dateTime": 1516558573754}, {"current_trial": 37, "trialdata": {"rt": -1, "trial_type": "single-stim", "word": "dragon", "stimulus": "<p id=\"stim\">DRAGON</p>", "conditions": [18, 1200, "v", 18000], "internal_node_id": "0.0-28.0", "trial": 0, "time_elapsed": 316029, "serialpos": 16, "key_press": -1, "wordID": 491, "type": "PRES_VIS", "trial_index": 37}, "uniqueid": "MTK1932:3DYGAII7PMFVSEUV7H89Q2CVR6RQPM", "dateTime": 1516558575774}, {"current_trial": 38, "trialdata": {"rt": -1, "trial_type": "single-stim", "word": "banker", "stimulus": "<p id=\"stim\">BANKER</p>", "conditions": [18, 1200, "v", 18000], "internal_node_id": "0.0-29.0", "trial": 0, "time_elapsed": 318035, "serialpos": 17, "key_press": -1, "wordID": 83, "type": "PRES_VIS", "trial_index": 38}, "uniqueid": "MTK1932:3DYGAII7PMFVSEUV7H89Q2CVR6RQPM", "dateTime": 1516558577780}, {"current_trial": 39, "trialdata": {"rt": -1, "trial_type": "single-stim", "stimulus": "", "internal_node_id": "0.0-30.0-0.0", "time_elapsed": 320456, "key_press": -1, "type": "PRE_RECALL_DELAY", "trial_index": 39}, "uniqueid": "MTK1932:3DYGAII7PMFVSEUV7H89Q2CVR6RQPM", "dateTime": 1516558580201}, {"current_trial": 40, "trialdata": {"rt": -1000, "trial_type": "single-audio", "stimulus": "/static/audio/400Hz.wav", "internal_node_id": "0.0-31.0", "time_elapsed": 320958, "key_press": -1, "type": "PRE_RECALL_ALERT", "trial_index": 40}, "uniqueid": "MTK1932:3DYGAII7PMFVSEUV7H89Q2CVR6RQPM", "dateTime": 1516558580703}, {"current_trial": 41, "trialdata": {"rt": [6982, 8268, 9588, 14505, 16741, 18967, 20676, 24345, 30991, 46047], "recwords": ["tart", "pastry", "dragon", "coin", "apron", "viking", "servant", "princess", "bucket", "summit"], "key_times": [6261, 6482, 6543, 6764, 6982, 7184, 7306, 7475, 7634, 7807, 7928, 8268, 8855, 9035, 9105, 9228, 9299, 9408, 9588, 10116, 10198, 10253, 10429, 14505, 14814, 14914, 15075, 15204, 15683, 15933, 16002, 16741, 18116, 18197, 18386, 18557, 18618, 18737, 18967, 19039, 19347, 19427, 19639, 19729, 19872, 20099, 20676, 23213, 23323, 23417, 23559, 23675, 23735, 23776, 23977, 24345, 30227, 30337, 30539, 30609, 30750, 30860, 30991, 37864, 37945, 38315, 38444, 38564, 38804, 44494, 44676, 44943, 45033, 45244, 45631, 45833, 45952, 46047], "trial_type": "free-recall", "conditions": [18, 1200, "v", 18000], "internal_node_id": "0.0-32.0-0.0", "key_presses": [84, 65, 82, 84, 13, 80, 65, 83, 84, 82, 89, 13, 68, 82, 65, 71, 79, 78, 13, 67, 79, 73, 78, 13, 65, 80, 82, 73, 8, 79, 78, 13, 86, 73, 75, 73, 78, 71, 13, 83, 69, 82, 86, 65, 78, 84, 13, 80, 82, 73, 78, 67, 69, 83, 83, 13, 66, 85, 67, 75, 69, 84, 13, 66, 65, 8, 8, 8, 8, 83, 85, 77, 77, 77, 8, 73, 84, 13], "trial": 0, "time_elapsed": 380964, "type": "FREE_RECALL", "trial_index": 41}, "uniqueid": "MTK1932:3DYGAII7PMFVSEUV7H89Q2CVR6RQPM", "dateTime": 1516558640711}, {"current_trial": 42, "trialdata": {"rt": 1328, "trial_type": "text", "internal_node_id": "0.0-33.0", "time_elapsed": 384294, "key_press": 78, "type": "INSTRUCTIONS", "trial_index": 42}, "uniqueid": "MTK1932:3DYGAII7PMFVSEUV7H89Q2CVR6RQPM", "dateTime": 1516558644039}, {"current_trial": 43, "trialdata": {"rt": [1901, 4333, 7107, 9755, 12051, 13834, 15152, 16818], "trial_type": "math-distractor", "key_times": [1680, 1733, 1901, 4032, 4214, 4333, 6678, 6916, 7107, 9466, 9506, 9755, 11662, 11712, 12051, 13287, 13576, 13834, 14910, 15002, 15152, 16580, 16679, 16818], "responses": ["15", "14", "14", "12", "12", "14", "10", "20"], "num2": [3, 2, 2, 3, 3, 5, 1, 9, 6], "num3": [5, 7, 6, 6, 3, 4, 8, 2, 6], "conditions": [18, 1200, "v", 18000], "internal_node_id": "0.0-34.0", "key_presses": [97, 101, 13, 97, 100, 13, 97, 100, 13, 97, 98, 13, 97, 98, 13, 97, 100, 13, 97, 96, 13, 98, 96, 13], "trial": 1, "time_elapsed": 404298, "type": "DISTRACTOR", "trial_index": 43, "num1": [7, 5, 6, 3, 6, 5, 1, 9, 1]}, "uniqueid": "MTK1932:3DYGAII7PMFVSEUV7H89Q2CVR6RQPM", "dateTime": 1516558664043}, {"current_trial": 44, "trialdata": {"rt": -1, "trial_type": "single-stim", "stimulus": "<p id=\"stim\">10</p>", "internal_node_id": "0.0-35.0-0.0", "time_elapsed": 407301, "key_press": -1, "trial_index": 44}, "uniqueid": "MTK1932:3DYGAII7PMFVSEUV7H89Q2CVR6RQPM", "dateTime": 1516558667046}, {"current_trial": 45, "trialdata": {"rt": -1, "trial_type": "single-stim", "stimulus": "<p id=\"stim\">9</p>", "internal_node_id": "0.0-35.0-1.0", "time_elapsed": 408303, "key_press": -1, "trial_index": 45}, "uniqueid": "MTK1932:3DYGAII7PMFVSEUV7H89Q2CVR6RQPM", "dateTime": 1516558668048}, {"current_trial": 46, "trialdata": {"rt": -1, "trial_type": "single-stim", "stimulus": "<p id=\"stim\">8</p>", "internal_node_id": "0.0-35.0-2.0", "time_elapsed": 409304, "key_press": -1, "trial_index": 46}, "uniqueid": "MTK1932:3DYGAII7PMFVSEUV7H89Q2CVR6RQPM", "dateTime": 1516558669049}, {"current_trial": 47, "trialdata": {"rt": -1, "trial_type": "single-stim", "stimulus": "<p id=\"stim\">7</p>", "internal_node_id": "0.0-35.0-3.0", "time_elapsed": 410305, "key_press": -1, "trial_index": 47}, "uniqueid": "MTK1932:3DYGAII7PMFVSEUV7H89Q2CVR6RQPM", "dateTime": 1516558670050}, {"current_trial": 48, "trialdata": {"rt": -1, "trial_type": "single-stim", "stimulus": "<p id=\"stim\">6</p>", "internal_node_id": "0.0-35.0-4.0", "time_elapsed": 411306, "key_press": -1, "trial_index": 48}, "uniqueid": "MTK1932:3DYGAII7PMFVSEUV7H89Q2CVR6RQPM", "dateTime": 1516558671051}, {"current_trial": 49, "trialdata": {"rt": -1, "trial_type": "single-stim", "stimulus": "<p id=\"stim\">5</p>", "internal_node_id": "0.0-35.0-5.0", "time_elapsed": 412307, "key_press": -1, "trial_index": 49}, "uniqueid": "MTK1932:3DYGAII7PMFVSEUV7H89Q2CVR6RQPM", "dateTime": 1516558672052}, {"current_trial": 50, "trialdata": {"rt": -1, "trial_type": "single-stim", "stimulus": "<p id=\"stim\">4</p>", "internal_node_id": "0.0-35.0-6.0", "time_elapsed": 413308, "key_press": -1, "trial_index": 50}, "uniqueid": "MTK1932:3DYGAII7PMFVSEUV7H89Q2CVR6RQPM", "dateTime": 1516558673053}, {"current_trial": 51, "trialdata": {"rt": -1, "trial_type": "single-stim", "stimulus": "<p id=\"stim\">3</p>", "internal_node_id": "0.0-35.0-7.0", "time_elapsed": 414309, "key_press": -1, "trial_index": 51}, "uniqueid": "MTK1932:3DYGAII7PMFVSEUV7H89Q2CVR6RQPM", "dateTime": 1516558674054}, {"current_trial": 52, "trialdata": {"rt": -1, "trial_type": "single-stim", "stimulus": "<p id=\"stim\">2</p>", "internal_node_id": "0.0-35.0-8.0", "time_elapsed": 415311, "key_press": -1, "trial_index": 52}, "uniqueid": "MTK1932:3DYGAII7PMFVSEUV7H89Q2CVR6RQPM", "dateTime": 1516558675056}, {"current_trial": 53, "trialdata": {"rt": -1, "trial_type": "single-stim", "stimulus": "<p id=\"stim\">1</p>", "internal_node_id": "0.0-35.0-9.0", "time_elapsed": 416312, "key_press": -1, "trial_index": 53}, "uniqueid": "MTK1932:3DYGAII7PMFVSEUV7H89Q2CVR6RQPM", "dateTime": 1516558676057}, {"current_trial": 54, "trialdata": {"rt": -1, "trial_type": "single-stim", "stimulus": "<p id=\"stim\">+</p>", "internal_node_id": "0.0-36.0-0.0", "time_elapsed": 417813, "key_press": -1, "type": "FIXATION", "trial_index": 54}, "uniqueid": "MTK1932:3DYGAII7PMFVSEUV7H89Q2CVR6RQPM", "dateTime": 1516558677558}, {"current_trial": 55, "trialdata": {"rt": -1, "trial_type": "single-stim", "word": "ox", "stimulus": "<p id=\"stim\">OX</p>", "conditions": [18, 1200, "v", 18000], "internal_node_id": "0.0-37.0", "trial": 1, "time_elapsed": 419013, "serialpos": 0, "key_press": -1, "wordID": 993, "type": "PRES_VIS", "trial_index": 55}, "uniqueid": "MTK1932:3DYGAII7PMFVSEUV7H89Q2CVR6RQPM", "dateTime": 1516558678759}, {"current_trial": 56, "trialdata": {"rt": -1, "trial_type": "single-stim", "word": "report", "stimulus": "<p id=\"stim\">REPORT</p>", "conditions": [18, 1200, "v", 18000], "internal_node_id": "0.0-38.0", "trial": 1, "time_elapsed": 421183, "serialpos": 1, "key_press": -1, "wordID": 1183, "type": "PRES_VIS", "trial_index": 56}, "uniqueid": "MTK1932:3DYGAII7PMFVSEUV7H89Q2CVR6RQPM", "dateTime": 1516558680928}, {"current_trial": 57, "trialdata": {"rt": -1, "trial_type": "single-stim", "word": "waiter", "stimulus": "<p id=\"stim\">WAITER</p>", "conditions": [18, 1200, "v", 18000], "internal_node_id": "0.0-39.0", "trial": 1, "time_elapsed": 423366, "serialpos": 2, "key_press": -1, "wordID": 1579, "type": "PRES_VIS", "trial_index": 57}, "uniqueid": "MTK1932:3DYGAII7PMFVSEUV7H89Q2CVR6RQPM", "dateTime": 1516558683111}, {"current_trial": 58, "trialdata": {"rt": -1, "trial_type": "single-stim", "word": "velvet", "stimulus": "<p id=\"stim\">VELVET</p>", "conditions": [18, 1200, "v", 18000], "internal_node_id": "0.0-40.0", "trial": 1, "time_elapsed": 425658, "serialpos": 3, "key_press": -1, "wordID": 1554, "type": "PRES_VIS", "trial_index": 58}, "uniqueid": "MTK1932:3DYGAII7PMFVSEUV7H89Q2CVR6RQPM", "dateTime": 1516558685403}, {"current_trial": 59, "trialdata": {"rt": -1, "trial_type": "single-stim", "word": "ghetto", "stimulus": "<p id=\"stim\">GHETTO</p>", "conditions": [18, 1200, "v", 18000], "internal_node_id": "0.0-41.0", "trial": 1, "time_elapsed": 427799, "serialpos": 4, "key_press": -1, "wordID": 632, "type": "PRES_VIS", "trial_index": 59}, "uniqueid": "MTK1932:3DYGAII7PMFVSEUV7H89Q2CVR6RQPM", "dateTime": 1516558687544}, {"current_trial": 60, "trialdata": {"rt": -1, "trial_type": "single-stim", "word": "fragrance", "stimulus": "<p id=\"stim\">FRAGRANCE</p>", "conditions": [18, 1200, "v", 18000], "internal_node_id": "0.0-42.0", "trial": 1, "time_elapsed": 430073, "serialpos": 5, "key_press": -1, "wordID": 598, "type": "PRES_VIS", "trial_index": 60}, "uniqueid": "MTK1932:3DYGAII7PMFVSEUV7H89Q2CVR6RQPM", "dateTime": 1516558689818}, {"current_trial": 61, "trialdata": {"rt": -1, "trial_type": "single-stim", "word": "umpire", "stimulus": "<p id=\"stim\">UMPIRE</p>", "conditions": [18, 1200, "v", 18000], "internal_node_id": "0.0-43.0", "trial": 1, "time_elapsed": 432275, "serialpos": 6, "key_press": -1, "wordID": 1534, "type": "PRES_VIS", "trial_index": 61}, "uniqueid": "MTK1932:3DYGAII7PMFVSEUV7H89Q2CVR6RQPM", "dateTime": 1516558692020}, {"current_trial": 62, "trialdata": {"rt": -1, "trial_type": "single-stim", "word": "shirt", "stimulus": "<p id=\"stim\">SHIRT</p>", "conditions": [18, 1200, "v", 18000], "internal_node_id": "0.0-44.0", "trial": 1, "time_elapsed": 434307, "serialpos": 7, "key_press": -1, "wordID": 1286, "type": "PRES_VIS", "trial_index": 62}, "uniqueid": "MTK1932:3DYGAII7PMFVSEUV7H89Q2CVR6RQPM", "dateTime": 1516558694052}, {"current_trial": 63, "trialdata": {"rt": -1, "trial_type": "single-stim", "word": "journal", "stimulus": "<p id=\"stim\">JOURNAL</p>", "conditions": [18, 1200, "v", 18000], "internal_node_id": "0.0-45.0", "trial": 1, "time_elapsed": 436670, "serialpos": 8, "key_press": -1, "wordID": 759, "type": "PRES_VIS", "trial_index": 63}, "uniqueid": "MTK1932:3DYGAII7PMFVSEUV7H89Q2CVR6RQPM", "dateTime": 1516558696415}, {"current_trial": 64, "trialdata": {"rt": -1, "trial_type": "single-stim", "word": "muffin", "stimulus": "<p id=\"stim\">MUFFIN</p>", "conditions": [18, 1200, "v", 18000], "internal_node_id": "0.0-46.0", "trial": 1, "time_elapsed": 439065, "serialpos": 9, "key_press": -1, "wordID": 928, "type": "PRES_VIS", "trial_index": 64}, "uniqueid": "MTK1932:3DYGAII7PMFVSEUV7H89Q2CVR6RQPM", "dateTime": 1516558698810}, {"current_trial": 65, "trialdata": {"rt": -1, "trial_type": "single-stim", "word": "possum", "stimulus": "<p id=\"stim\">POSSUM</p>", "conditions": [18, 1200, "v", 18000], "internal_node_id": "0.0-47.0", "trial": 1, "time_elapsed": 441401, "serialpos": 10, "key_press": -1, "wordID": 1111, "type": "PRES_VIS", "trial_index": 65}, "uniqueid": "MTK1932:3DYGAII7PMFVSEUV7H89Q2CVR6RQPM", "dateTime": 1516558701146}, {"current_trial": 66, "trialdata": {"rt": -1, "trial_type": "single-stim", "word": "patient", "stimulus": "<p id=\"stim\">PATIENT</p>", "conditions": [18, 1200, "v", 18000], "internal_node_id": "0.0-48.0", "trial": 1, "time_elapsed": 443566, "serialpos": 11, "key_press": -1, "wordID": 1023, "type": "PRES_VIS", "trial_index": 66}, "uniqueid": "MTK1932:3DYGAII7PMFVSEUV7H89Q2CVR6RQPM", "dateTime": 1516558703311}, {"current_trial": 67, "trialdata": {"rt": -1, "trial_type": "single-stim", "word": "laser", "stimulus": "<p id=\"stim\">LASER</p>", "conditions": [18, 1200, "v", 18000], "internal_node_id": "0.0-49.0", "trial": 1, "time_elapsed": 445594, "serialpos": 12, "key_press": -1, "wordID": 800, "type": "PRES_VIS", "trial_index": 67}, "uniqueid": "MTK1932:3DYGAII7PMFVSEUV7H89Q2CVR6RQPM", "dateTime": 1516558705339}, {"current_trial": 68, "trialdata": {"rt": -1, "trial_type": "single-stim", "word": "plaid", "stimulus": "<p id=\"stim\">PLAID</p>", "conditions": [18, 1200, "v", 18000], "internal_node_id": "0.0-50.0", "trial": 1, "time_elapsed": 447599, "serialpos": 13, "key_press": -1, "wordID": 1079, "type": "PRES_VIS", "trial_index": 68}, "uniqueid": "MTK1932:3DYGAII7PMFVSEUV7H89Q2CVR6RQPM", "dateTime": 1516558707346}, {"current_trial": 69, "trialdata": {"rt": -1, "trial_type": "single-stim", "word": "turkey", "stimulus": "<p id=\"stim\">TURKEY</p>", "conditions": [18, 1200, "v", 18000], "internal_node_id": "0.0-51.0", "trial": 1, "time_elapsed": 449974, "serialpos": 14, "key_press": -1, "wordID": 1519, "type": "PRES_VIS", "trial_index": 69}, "uniqueid": "MTK1932:3DYGAII7PMFVSEUV7H89Q2CVR6RQPM", "dateTime": 1516558709720}, {"current_trial": 70, "trialdata": {"rt": -1, "trial_type": "single-stim", "word": "beast", "stimulus": "<p id=\"stim\">BEAST</p>", "conditions": [18, 1200, "v", 18000], "internal_node_id": "0.0-52.0", "trial": 1, "time_elapsed": 452111, "serialpos": 15, "key_press": -1, "wordID": 107, "type": "PRES_VIS", "trial_index": 70}, "uniqueid": "MTK1932:3DYGAII7PMFVSEUV7H89Q2CVR6RQPM", "dateTime": 1516558711856}, {"current_trial": 71, "trialdata": {"rt": -1, "trial_type": "single-stim", "word": "pepper", "stimulus": "<p id=\"stim\">PEPPER</p>", "conditions": [18, 1200, "v", 18000], "internal_node_id": "0.0-53.0", "trial": 1, "time_elapsed": 454234, "serialpos": 16, "key_press": -1, "wordID": 1046, "type": "PRES_VIS", "trial_index": 71}, "uniqueid": "MTK1932:3DYGAII7PMFVSEUV7H89Q2CVR6RQPM", "dateTime": 1516558713979}, {"current_trial": 72, "trialdata": {"rt": -1, "trial_type": "single-stim", "word": "braces", "stimulus": "<p id=\"stim\">BRACES</p>", "conditions": [18, 1200, "v", 18000], "internal_node_id": "0.0-54.0", "trial": 1, "time_elapsed": 456485, "serialpos": 17, "key_press": -1, "wordID": 163, "type": "PRES_VIS", "trial_index": 72}, "uniqueid": "MTK1932:3DYGAII7PMFVSEUV7H89Q2CVR6RQPM", "dateTime": 1516558716230}, {"current_trial": 73, "trialdata": {"rt": -1, "trial_type": "single-stim", "stimulus": "", "internal_node_id": "0.0-55.0-0.0", "time_elapsed": 458673, "key_press": -1, "type": "PRE_RECALL_DELAY", "trial_index": 73}, "uniqueid": "MTK1932:3DYGAII7PMFVSEUV7H89Q2CVR6RQPM", "dateTime": 1516558718418}, {"current_trial": 74, "trialdata": {"rt": -1000, "trial_type": "single-audio", "stimulus": "/static/audio/400Hz.wav", "internal_node_id": "0.0-56.0", "time_elapsed": 459174, "key_press": -1, "type": "PRE_RECALL_ALERT", "trial_index": 74}, "uniqueid": "MTK1932:3DYGAII7PMFVSEUV7H89Q2CVR6RQPM", "dateTime": 1516558718919}, {"current_trial": 75, "trialdata": {"rt": [7651, 8173, 8997, 12866, 14792, 16798, 18916, 21145, 26176, 31387, 40042, 44796], "recwords": ["braces", "ox", "pepper", "turkey", "plaid", "patient", "shirt", "journal", "waiter", "fragrance", "shirt", "journey"], "key_times": [6451, 6660, 6711, 7219, 7299, 7350, 7651, 7840, 7923, 8173, 8413, 8473, 8589, 8725, 8776, 8855, 8997, 10190, 10315, 10431, 10515, 10613, 10723, 12575, 12676, 12866, 14249, 14380, 14481, 14595, 14631, 14792, 16015, 16145, 16327, 16410, 16488, 16558, 16648, 16798, 17858, 17928, 17978, 18118, 18765, 18916, 19134, 19254, 19575, 19714, 19905, 20025, 20164, 20486, 20635, 20846, 20936, 21145, 25564, 25634, 25717, 25838, 25977, 26057, 26176, 28100, 28413, 28702, 29010, 29231, 29460, 29531, 29811, 30078, 30139, 30285, 30431, 30481, 31387, 38863, 39113, 39193, 39324, 39544, 40042, 43360, 43504, 43573, 43634, 43923, 44035, 44205, 44305, 44399, 44485, 44611, 44796], "trial_type": "free-recall", "conditions": [18, 1200, "v", 18000], "internal_node_id": "0.0-57.0-0.0", "key_presses": [66, 82, 65, 67, 69, 83, 13, 79, 88, 13, 80, 69, 80, 80, 69, 82, 13, 84, 85, 82, 75, 69, 84, 8, 89, 13, 80, 76, 65, 73, 68, 13, 80, 65, 84, 73, 69, 78, 84, 13, 83, 72, 73, 82, 84, 13, 74, 79, 85, 82, 78, 69, 65, 8, 8, 65, 76, 13, 87, 65, 73, 84, 69, 82, 13, 71, 82, 8, 8, 70, 82, 65, 71, 82, 65, 78, 67, 69, 13, 83, 72, 73, 82, 84, 13, 74, 79, 73, 82, 8, 8, 85, 82, 78, 69, 89, 13], "trial": 1, "time_elapsed": 519178, "type": "FREE_RECALL", "trial_index": 75}, "uniqueid": "MTK1932:3DYGAII7PMFVSEUV7H89Q2CVR6RQPM", "dateTime": 1516558778925}, {"current_trial": 76, "trialdata": {"rt": 3323, "trial_type": "text", "internal_node_id": "0.0-58.0", "time_elapsed": 524505, "key_press": 66, "type": "INSTRUCTIONS", "trial_index": 76}, "uniqueid": "MTK1932:3DYGAII7PMFVSEUV7H89Q2CVR6RQPM", "dateTime": 1516558784250}, {"current_trial": 77, "trialdata": {"rt": [2433, 6967, 8661, 11675], "trial_type": "math-distractor", "key_times": [1755, 2433, 6518, 6727, 6967, 8513, 8661, 11097, 11305, 11675], "responses": ["7", "16", "5", "18"], "num2": [3, 6, 1, 7, 1], "num3": [2, 8, 3, 7, 1], "conditions": [12, 800, "v", 12000], "internal_node_id": "0.0-59.0", "key_presses": [103, 13, 97, 102, 13, 101, 13, 97, 104, 13], "trial": 2, "time_elapsed": 537511, "type": "DISTRACTOR", "trial_index": 77, "num1": [2, 2, 1, 4, 3]}, "uniqueid": "MTK1932:3DYGAII7PMFVSEUV7H89Q2CVR6RQPM", "dateTime": 1516558797256}, {"current_trial": 78, "trialdata": {"rt": -1, "trial_type": "single-stim", "stimulus": "<p id=\"stim\">10</p>", "internal_node_id": "0.0-60.0-0.0", "time_elapsed": 540513, "key_press": -1, "trial_index": 78}, "uniqueid": "MTK1932:3DYGAII7PMFVSEUV7H89Q2CVR6RQPM", "dateTime": 1516558800258}, {"current_trial": 79, "trialdata": {"rt": -1, "trial_type": "single-stim", "stimulus": "<p id=\"stim\">9</p>", "internal_node_id": "0.0-60.0-1.0", "time_elapsed": 541514, "key_press": -1, "trial_index": 79}, "uniqueid": "MTK1932:3DYGAII7PMFVSEUV7H89Q2CVR6RQPM", "dateTime": 1516558801259}, {"current_trial": 80, "trialdata": {"rt": -1, "trial_type": "single-stim", "stimulus": "<p id=\"stim\">8</p>", "internal_node_id": "0.0-60.0-2.0", "time_elapsed": 542516, "key_press": -1, "trial_index": 80}, "uniqueid": "MTK1932:3DYGAII7PMFVSEUV7H89Q2CVR6RQPM", "dateTime": 1516558802261}, {"current_trial": 81, "trialdata": {"rt": -1, "trial_type": "single-stim", "stimulus": "<p id=\"stim\">7</p>", "internal_node_id": "0.0-60.0-3.0", "time_elapsed": 543518, "key_press": -1, "trial_index": 81}, "uniqueid": "MTK1932:3DYGAII7PMFVSEUV7H89Q2CVR6RQPM", "dateTime": 1516558803263}, {"current_trial": 82, "trialdata": {"rt": -1, "trial_type": "single-stim", "stimulus": "<p id=\"stim\">6</p>", "internal_node_id": "0.0-60.0-4.0", "time_elapsed": 544518, "key_press": -1, "trial_index": 82}, "uniqueid": "MTK1932:3DYGAII7PMFVSEUV7H89Q2CVR6RQPM", "dateTime": 1516558804263}, {"current_trial": 83, "trialdata": {"rt": -1, "trial_type": "single-stim", "stimulus": "<p id=\"stim\">5</p>", "internal_node_id": "0.0-60.0-5.0", "time_elapsed": 545520, "key_press": -1, "trial_index": 83}, "uniqueid": "MTK1932:3DYGAII7PMFVSEUV7H89Q2CVR6RQPM", "dateTime": 1516558805265}, {"current_trial": 84, "trialdata": {"rt": -1, "trial_type": "single-stim", "stimulus": "<p id=\"stim\">4</p>", "internal_node_id": "0.0-60.0-6.0", "time_elapsed": 546521, "key_press": -1, "trial_index": 84}, "uniqueid": "MTK1932:3DYGAII7PMFVSEUV7H89Q2CVR6RQPM", "dateTime": 1516558806266}, {"current_trial": 85, "trialdata": {"rt": -1, "trial_type": "single-stim", "stimulus": "<p id=\"stim\">3</p>", "internal_node_id": "0.0-60.0-7.0", "time_elapsed": 547522, "key_press": -1, "trial_index": 85}, "uniqueid": "MTK1932:3DYGAII7PMFVSEUV7H89Q2CVR6RQPM", "dateTime": 1516558807267}, {"current_trial": 86, "trialdata": {"rt": -1, "trial_type": "single-stim", "stimulus": "<p id=\"stim\">2</p>", "internal_node_id": "0.0-60.0-8.0", "time_elapsed": 548523, "key_press": -1, "trial_index": 86}, "uniqueid": "MTK1932:3DYGAII7PMFVSEUV7H89Q2CVR6RQPM", "dateTime": 1516558808268}, {"current_trial": 87, "trialdata": {"rt": -1, "trial_type": "single-stim", "stimulus": "<p id=\"stim\">1</p>", "internal_node_id": "0.0-60.0-9.0", "time_elapsed": 549524, "key_press": -1, "trial_index": 87}, "uniqueid": "MTK1932:3DYGAII7PMFVSEUV7H89Q2CVR6RQPM", "dateTime": 1516558809269}, {"current_trial": 88, "trialdata": {"rt": -1, "trial_type": "single-stim", "stimulus": "<p id=\"stim\">+</p>", "internal_node_id": "0.0-61.0-0.0", "time_elapsed": 551025, "key_press": -1, "type": "FIXATION", "trial_index": 88}, "uniqueid": "MTK1932:3DYGAII7PMFVSEUV7H89Q2CVR6RQPM", "dateTime": 1516558810771}, {"current_trial": 89, "trialdata": {"rt": -1, "trial_type": "single-stim", "word": "zipper", "stimulus": "<p id=\"stim\">ZIPPER</p>", "conditions": [12, 800, "v", 12000], "internal_node_id": "0.0-62.0", "trial": 2, "time_elapsed": 551827, "serialpos": 0, "key_press": -1, "wordID": 1635, "type": "PRES_VIS", "trial_index": 89}, "uniqueid": "MTK1932:3DYGAII7PMFVSEUV7H89Q2CVR6RQPM", "dateTime": 1516558811572}, {"current_trial": 90, "trialdata": {"rt": -1, "trial_type": "single-stim", "word": "drink", "stimulus": "<p id=\"stim\">DRINK</p>", "conditions": [12, 800, "v", 12000], "internal_node_id": "0.0-63.0", "trial": 2, "time_elapsed": 553480, "serialpos": 1, "key_press": -1, "wordID": 497, "type": "PRES_VIS", "trial_index": 90}, "uniqueid": "MTK1932:3DYGAII7PMFVSEUV7H89Q2CVR6RQPM", "dateTime": 1516558813225}, {"current_trial": 91, "trialdata": {"rt": -1, "trial_type": "single-stim", "word": "police", "stimulus": "<p id=\"stim\">POLICE</p>", "conditions": [12, 800, "v", 12000], "internal_node_id": "0.0-64.0", "trial": 2, "time_elapsed": 555319, "serialpos": 2, "key_press": -1, "wordID": 1097, "type": "PRES_VIS", "trial_index": 91}, "uniqueid": "MTK1932:3DYGAII7PMFVSEUV7H89Q2CVR6RQPM", "dateTime": 1516558815064}, {"current_trial": 92, "trialdata": {"rt": -1, "trial_type": "single-stim", "word": "drug", "stimulus": "<p id=\"stim\">DRUG</p>", "conditions": [12, 800, "v", 12000], "internal_node_id": "0.0-65.0", "trial": 2, "time_elapsed": 557293, "serialpos": 3, "key_press": -1, "wordID": 500, "type": "PRES_VIS", "trial_index": 92}, "uniqueid": "MTK1932:3DYGAII7PMFVSEUV7H89Q2CVR6RQPM", "dateTime": 1516558817038}, {"current_trial": 93, "trialdata": {"rt": -1, "trial_type": "single-stim", "word": "brandy", "stimulus": "<p id=\"stim\">BRANDY</p>", "conditions": [12, 800, "v", 12000], "internal_node_id": "0.0-66.0", "trial": 2, "time_elapsed": 559231, "serialpos": 4, "key_press": -1, "wordID": 168, "type": "PRES_VIS", "trial_index": 93}, "uniqueid": "MTK1932:3DYGAII7PMFVSEUV7H89Q2CVR6RQPM", "dateTime": 1516558818976}, {"current_trial": 94, "trialdata": {"rt": -1, "trial_type": "single-stim", "word": "candy", "stimulus": "<p id=\"stim\">CANDY</p>", "conditions": [12, 800, "v", 12000], "internal_node_id": "0.0-67.0", "trial": 2, "time_elapsed": 560915, "serialpos": 5, "key_press": -1, "wordID": 229, "type": "PRES_VIS", "trial_index": 94}, "uniqueid": "MTK1932:3DYGAII7PMFVSEUV7H89Q2CVR6RQPM", "dateTime": 1516558820660}, {"current_trial": 95, "trialdata": {"rt": -1, "trial_type": "single-stim", "word": "pilot", "stimulus": "<p id=\"stim\">PILOT</p>", "conditions": [12, 800, "v", 12000], "internal_node_id": "0.0-68.0", "trial": 2, "time_elapsed": 562648, "serialpos": 6, "key_press": -1, "wordID": 1069, "type": "PRES_VIS", "trial_index": 95}, "uniqueid": "MTK1932:3DYGAII7PMFVSEUV7H89Q2CVR6RQPM", "dateTime": 1516558822393}, {"current_trial": 96, "trialdata": {"rt": -1, "trial_type": "single-stim", "word": "victim", "stimulus": "<p id=\"stim\">VICTIM</p>", "conditions": [12, 800, "v", 12000], "internal_node_id": "0.0-69.0", "trial": 2, "time_elapsed": 564397, "serialpos": 7, "key_press": -1, "wordID": 1561, "type": "PRES_VIS", "trial_index": 96}, "uniqueid": "MTK1932:3DYGAII7PMFVSEUV7H89Q2CVR6RQPM", "dateTime": 1516558824142}, {"current_trial": 97, "trialdata": {"rt": -1, "trial_type": "single-stim", "word": "popcorn", "stimulus": "<p id=\"stim\">POPCORN</p>", "conditions": [12, 800, "v", 12000], "internal_node_id": "0.0-70.0", "trial": 2, "time_elapsed": 566166, "serialpos": 8, "key_press": -1, "wordID": 1103, "type": "PRES_VIS", "trial_index": 97}, "uniqueid": "MTK1932:3DYGAII7PMFVSEUV7H89Q2CVR6RQPM", "dateTime": 1516558825911}, {"current_trial": 98, "trialdata": {"rt": -1, "trial_type": "single-stim", "word": "fungus", "stimulus": "<p id=\"stim\">FUNGUS</p>", "conditions": [12, 800, "v", 12000], "internal_node_id": "0.0-71.0", "trial": 2, "time_elapsed": 568080, "serialpos": 9, "key_press": -1, "wordID": 613, "type": "PRES_VIS", "trial_index": 98}, "uniqueid": "MTK1932:3DYGAII7PMFVSEUV7H89Q2CVR6RQPM", "dateTime": 1516558827825}, {"current_trial": 99, "trialdata": {"rt": -1, "trial_type": "single-stim", "word": "mildew", "stimulus": "<p id=\"stim\">MILDEW</p>", "conditions": [12, 800, "v", 12000], "internal_node_id": "0.0-72.0", "trial": 2, "time_elapsed": 569894, "serialpos": 10, "key_press": -1, "wordID": 892, "type": "PRES_VIS", "trial_index": 99}, "uniqueid": "MTK1932:3DYGAII7PMFVSEUV7H89Q2CVR6RQPM", "dateTime": 1516558829639}, {"current_trial": 100, "trialdata": {"rt": -1, "trial_type": "single-stim", "word": "softball", "stimulus": "<p id=\"stim\">SOFTBALL</p>", "conditions": [12, 800, "v", 12000], "internal_node_id": "0.0-73.0", "trial": 2, "time_elapsed": 571846, "serialpos": 11, "key_press": -1, "wordID": 1342, "type": "PRES_VIS", "trial_index": 100}, "uniqueid": "MTK1932:3DYGAII7PMFVSEUV7H89Q2CVR6RQPM", "dateTime": 1516558831591}, {"current_trial": 101, "trialdata": {"rt": -1, "trial_type": "single-stim", "stimulus": "", "internal_node_id": "0.0-74.0-0.0", "time_elapsed": 574214, "key_press": -1, "type": "PRE_RECALL_DELAY", "trial_index": 101}, "uniqueid": "MTK1932:3DYGAII7PMFVSEUV7H89Q2CVR6RQPM", "dateTime": 1516558833959}, {"current_trial": 102, "trialdata": {"rt": -1000, "trial_type": "single-audio", "stimulus": "/static/audio/400Hz.wav", "internal_node_id": "0.0-75.0", "time_elapsed": 574715, "key_press": -1, "type": "PRE_RECALL_ALERT", "trial_index": 102}, "uniqueid": "MTK1932:3DYGAII7PMFVSEUV7H89Q2CVR6RQPM", "dateTime": 1516558834460}, {"current_trial": 103, "trialdata": {"rt": [9582, 12077, 13719, 15877, 18105, 20599, 21963, 22875, 26890], "recwords": ["softball", "victim", "mildew", "drink", "police", "drug", "brandy", "candy", "popcorn"], "key_times": [7048, 7204, 7299, 7528, 7641, 7830, 7890, 8200, 8340, 8549, 8650, 8851, 9100, 9151, 9233, 9364, 9582, 10612, 10903, 11012, 11128, 11236, 11563, 11726, 11788, 12077, 12727, 12838, 12903, 13038, 13260, 13320, 13719, 15206, 15375, 15465, 15559, 15647, 15877, 16066, 16150, 17284, 17364, 17474, 17545, 18105, 18293, 19637, 19762, 19858, 20599, 20731, 20910, 20991, 21075, 21175, 21318, 21963, 22065, 22125, 22189, 22267, 22416, 22875, 24630, 24790, 24931, 25710, 25780, 25940, 26103, 26890], "trial_type": "free-recall", "conditions": [12, 800, "v", 12000], "internal_node_id": "0.0-76.0-0.0", "key_presses": [83, 73, 70, 8, 8, 80, 70, 8, 8, 79, 70, 84, 66, 65, 76, 76, 13, 73, 8, 86, 73, 67, 84, 73, 77, 13, 77, 73, 76, 68, 69, 87, 13, 68, 82, 73, 78, 75, 13, 80, 79, 76, 73, 67, 69, 13, 68, 82, 85, 71, 13, 66, 82, 65, 78, 68, 89, 13, 67, 65, 78, 68, 89, 13, 80, 79, 80, 67, 79, 82, 78, 13], "trial": 2, "time_elapsed": 634720, "type": "FREE_RECALL", "trial_index": 103}, "uniqueid": "MTK1932:3DYGAII7PMFVSEUV7H89Q2CVR6RQPM", "dateTime": 1516558894470}, {"current_trial": 104, "trialdata": {"rt": 2305, "trial_type": "text", "internal_node_id": "0.0-77.0", "time_elapsed": 639032, "key_press": 77, "type": "INSTRUCTIONS", "trial_index": 104}, "uniqueid": "MTK1932:3DYGAII7PMFVSEUV7H89Q2CVR6RQPM", "dateTime": 1516558898777}, {"current_trial": 105, "trialdata": {"rt": [1094, 4654, 6688, 8716, 10640], "trial_type": "math-distractor", "key_times": [906, 1094, 4316, 4486, 4654, 6380, 6549, 6688, 8288, 8535, 8716, 10313, 10472, 10640], "responses": ["3", "19", "14", "17", "16"], "num2": [1, 8, 8, 2, 9, 7], "num3": [1, 3, 3, 6, 6, 8], "conditions": [12, 800, "v", 12000], "internal_node_id": "0.0-78.0", "key_presses": [99, 13, 97, 105, 13, 97, 100, 13, 97, 103, 13, 97, 102, 13], "trial": 3, "time_elapsed": 653040, "type": "DISTRACTOR", "trial_index": 105, "num1": [1, 8, 3, 9, 1, 2]}, "uniqueid": "MTK1932:3DYGAII7PMFVSEUV7H89Q2CVR6RQPM", "dateTime": 1516558912786}, {"current_trial": 106, "trialdata": {"rt": -1, "trial_type": "single-stim", "stimulus": "<p id=\"stim\">10</p>", "internal_node_id": "0.0-79.0-0.0", "time_elapsed": 656044, "key_press": -1, "trial_index": 106}, "uniqueid": "MTK1932:3DYGAII7PMFVSEUV7H89Q2CVR6RQPM", "dateTime": 1516558915789}, {"current_trial": 107, "trialdata": {"rt": -1, "trial_type": "single-stim", "stimulus": "<p id=\"stim\">9</p>", "internal_node_id": "0.0-79.0-1.0", "time_elapsed": 657048, "key_press": -1, "trial_index": 107}, "uniqueid": "MTK1932:3DYGAII7PMFVSEUV7H89Q2CVR6RQPM", "dateTime": 1516558916793}, {"current_trial": 108, "trialdata": {"rt": -1, "trial_type": "single-stim", "stimulus": "<p id=\"stim\">8</p>", "internal_node_id": "0.0-79.0-2.0", "time_elapsed": 658050, "key_press": -1, "trial_index": 108}, "uniqueid": "MTK1932:3DYGAII7PMFVSEUV7H89Q2CVR6RQPM", "dateTime": 1516558917795}, {"current_trial": 109, "trialdata": {"rt": -1, "trial_type": "single-stim", "stimulus": "<p id=\"stim\">7</p>", "internal_node_id": "0.0-79.0-3.0", "time_elapsed": 659052, "key_press": -1, "trial_index": 109}, "uniqueid": "MTK1932:3DYGAII7PMFVSEUV7H89Q2CVR6RQPM", "dateTime": 1516558918797}, {"current_trial": 110, "trialdata": {"rt": -1, "trial_type": "single-stim", "stimulus": "<p id=\"stim\">6</p>", "internal_node_id": "0.0-79.0-4.0", "time_elapsed": 660054, "key_press": -1, "trial_index": 110}, "uniqueid": "MTK1932:3DYGAII7PMFVSEUV7H89Q2CVR6RQPM", "dateTime": 1516558919799}, {"current_trial": 111, "trialdata": {"rt": -1, "trial_type": "single-stim", "stimulus": "<p id=\"stim\">5</p>", "internal_node_id": "0.0-79.0-5.0", "time_elapsed": 661056, "key_press": -1, "trial_index": 111}, "uniqueid": "MTK1932:3DYGAII7PMFVSEUV7H89Q2CVR6RQPM", "dateTime": 1516558920801}, {"current_trial": 112, "trialdata": {"rt": -1, "trial_type": "single-stim", "stimulus": "<p id=\"stim\">4</p>", "internal_node_id": "0.0-79.0-6.0", "time_elapsed": 662058, "key_press": -1, "trial_index": 112}, "uniqueid": "MTK1932:3DYGAII7PMFVSEUV7H89Q2CVR6RQPM", "dateTime": 1516558921803}, {"current_trial": 113, "trialdata": {"rt": -1, "trial_type": "single-stim", "stimulus": "<p id=\"stim\">3</p>", "internal_node_id": "0.0-79.0-7.0", "time_elapsed": 663060, "key_press": -1, "trial_index": 113}, "uniqueid": "MTK1932:3DYGAII7PMFVSEUV7H89Q2CVR6RQPM", "dateTime": 1516558922805}, {"current_trial": 114, "trialdata": {"rt": -1, "trial_type": "single-stim", "stimulus": "<p id=\"stim\">2</p>", "internal_node_id": "0.0-79.0-8.0", "time_elapsed": 664062, "key_press": -1, "trial_index": 114}, "uniqueid": "MTK1932:3DYGAII7PMFVSEUV7H89Q2CVR6RQPM", "dateTime": 1516558923807}, {"current_trial": 115, "trialdata": {"rt": -1, "trial_type": "single-stim", "stimulus": "<p id=\"stim\">1</p>", "internal_node_id": "0.0-79.0-9.0", "time_elapsed": 665064, "key_press": -1, "trial_index": 115}, "uniqueid": "MTK1932:3DYGAII7PMFVSEUV7H89Q2CVR6RQPM", "dateTime": 1516558924809}, {"current_trial": 116, "trialdata": {"rt": -1, "trial_type": "single-stim", "stimulus": "<p id=\"stim\">+</p>", "internal_node_id": "0.0-80.0-0.0", "time_elapsed": 666566, "key_press": -1, "type": "FIXATION", "trial_index": 116}, "uniqueid": "MTK1932:3DYGAII7PMFVSEUV7H89Q2CVR6RQPM", "dateTime": 1516558926311}, {"current_trial": 117, "trialdata": {"rt": -1, "trial_type": "single-stim", "word": "bunny", "stimulus": "<p id=\"stim\">BUNNY</p>", "conditions": [12, 800, "v", 12000], "internal_node_id": "0.0-81.0", "trial": 3, "time_elapsed": 667368, "serialpos": 0, "key_press": -1, "wordID": 197, "type": "PRES_VIS", "trial_index": 117}, "uniqueid": "MTK1932:3DYGAII7PMFVSEUV7H89Q2CVR6RQPM", "dateTime": 1516558927113}, {"current_trial": 118, "trialdata": {"rt": -1, "trial_type": "single-stim", "word": "france", "stimulus": "<p id=\"stim\">FRANCE</p>", "conditions": [12, 800, "v", 12000], "internal_node_id": "0.0-82.0", "trial": 3, "time_elapsed": 669317, "serialpos": 1, "key_press": -1, "wordID": 600, "type": "PRES_VIS", "trial_index": 118}, "uniqueid": "MTK1932:3DYGAII7PMFVSEUV7H89Q2CVR6RQPM", "dateTime": 1516558929062}, {"current_trial": 119, "trialdata": {"rt": -1, "trial_type": "single-stim", "word": "picnic", "stimulus": "<p id=\"stim\">PICNIC</p>", "conditions": [12, 800, "v", 12000], "internal_node_id": "0.0-83.0", "trial": 3, "time_elapsed": 670929, "serialpos": 2, "key_press": -1, "wordID": 1059, "type": "PRES_VIS", "trial_index": 119}, "uniqueid": "MTK1932:3DYGAII7PMFVSEUV7H89Q2CVR6RQPM", "dateTime": 1516558930675}, {"current_trial": 120, "trialdata": {"rt": -1, "trial_type": "single-stim", "word": "scotch", "stimulus": "<p id=\"stim\">SCOTCH</p>", "conditions": [12, 800, "v", 12000], "internal_node_id": "0.0-84.0", "trial": 3, "time_elapsed": 672928, "serialpos": 3, "key_press": -1, "wordID": 1250, "type": "PRES_VIS", "trial_index": 120}, "uniqueid": "MTK1932:3DYGAII7PMFVSEUV7H89Q2CVR6RQPM", "dateTime": 1516558932674}, {"current_trial": 121, "trialdata": {"rt": -1, "trial_type": "single-stim", "word": "slug", "stimulus": "<p id=\"stim\">SLUG</p>", "conditions": [12, 800, "v", 12000], "internal_node_id": "0.0-85.0", "trial": 3, "time_elapsed": 674710, "serialpos": 4, "key_press": -1, "wordID": 1328, "type": "PRES_VIS", "trial_index": 121}, "uniqueid": "MTK1932:3DYGAII7PMFVSEUV7H89Q2CVR6RQPM", "dateTime": 1516558934456}, {"current_trial": 122, "trialdata": {"rt": -1, "trial_type": "single-stim", "word": "staple", "stimulus": "<p id=\"stim\">STAPLE</p>", "conditions": [12, 800, "v", 12000], "internal_node_id": "0.0-86.0", "trial": 3, "time_elapsed": 676695, "serialpos": 5, "key_press": -1, "wordID": 1370, "type": "PRES_VIS", "trial_index": 122}, "uniqueid": "MTK1932:3DYGAII7PMFVSEUV7H89Q2CVR6RQPM", "dateTime": 1516558936440}, {"current_trial": 123, "trialdata": {"rt": -1, "trial_type": "single-stim", "word": "pimple", "stimulus": "<p id=\"stim\">PIMPLE</p>", "conditions": [12, 800, "v", 12000], "internal_node_id": "0.0-87.0", "trial": 3, "time_elapsed": 678448, "serialpos": 6, "key_press": -1, "wordID": 1070, "type": "PRES_VIS", "trial_index": 123}, "uniqueid": "MTK1932:3DYGAII7PMFVSEUV7H89Q2CVR6RQPM", "dateTime": 1516558938193}, {"current_trial": 124, "trialdata": {"rt": -1, "trial_type": "single-stim", "word": "hawk", "stimulus": "<p id=\"stim\">HAWK</p>", "conditions": [12, 800, "v", 12000], "internal_node_id": "0.0-88.0", "trial": 3, "time_elapsed": 680088, "serialpos": 7, "key_press": -1, "wordID": 691, "type": "PRES_VIS", "trial_index": 124}, "uniqueid": "MTK1932:3DYGAII7PMFVSEUV7H89Q2CVR6RQPM", "dateTime": 1516558939833}, {"current_trial": 125, "trialdata": {"rt": -1, "trial_type": "single-stim", "word": "kidney", "stimulus": "<p id=\"stim\">KIDNEY</p>", "conditions": [12, 800, "v", 12000], "internal_node_id": "0.0-89.0", "trial": 3, "time_elapsed": 681893, "serialpos": 8, "key_press": -1, "wordID": 775, "type": "PRES_VIS", "trial_index": 125}, "uniqueid": "MTK1932:3DYGAII7PMFVSEUV7H89Q2CVR6RQPM", "dateTime": 1516558941638}, {"current_trial": 126, "trialdata": {"rt": -1, "trial_type": "single-stim", "word": "liver", "stimulus": "<p id=\"stim\">LIVER</p>", "conditions": [12, 800, "v", 12000], "internal_node_id": "0.0-90.0", "trial": 3, "time_elapsed": 683511, "serialpos": 9, "key_press": -1, "wordID": 832, "type": "PRES_VIS", "trial_index": 126}, "uniqueid": "MTK1932:3DYGAII7PMFVSEUV7H89Q2CVR6RQPM", "dateTime": 1516558943256}, {"current_trial": 127, "trialdata": {"rt": -1, "trial_type": "single-stim", "word": "london", "stimulus": "<p id=\"stim\">LONDON</p>", "conditions": [12, 800, "v", 12000], "internal_node_id": "0.0-91.0", "trial": 3, "time_elapsed": 685212, "serialpos": 10, "key_press": -1, "wordID": 842, "type": "PRES_VIS", "trial_index": 127}, "uniqueid": "MTK1932:3DYGAII7PMFVSEUV7H89Q2CVR6RQPM", "dateTime": 1516558944957}, {"current_trial": 128, "trialdata": {"rt": -1, "trial_type": "single-stim", "word": "bureau", "stimulus": "<p id=\"stim\">BUREAU</p>", "conditions": [12, 800, "v", 12000], "internal_node_id": "0.0-92.0", "trial": 3, "time_elapsed": 687014, "serialpos": 11, "key_press": -1, "wordID": 198, "type": "PRES_VIS", "trial_index": 128}, "uniqueid": "MTK1932:3DYGAII7PMFVSEUV7H89Q2CVR6RQPM", "dateTime": 1516558946760}, {"current_trial": 129, "trialdata": {"rt": -1, "trial_type": "single-stim", "stimulus": "", "internal_node_id": "0.0-93.0-0.0", "time_elapsed": 689507, "key_press": -1, "type": "PRE_RECALL_DELAY", "trial_index": 129}, "uniqueid": "MTK1932:3DYGAII7PMFVSEUV7H89Q2CVR6RQPM", "dateTime": 1516558949253}, {"current_trial": 130, "trialdata": {"rt": -1000, "trial_type": "single-audio", "stimulus": "/static/audio/400Hz.wav", "internal_node_id": "0.0-94.0", "time_elapsed": 690009, "key_press": -1, "type": "PRE_RECALL_ALERT", "trial_index": 130}, "uniqueid": "MTK1932:3DYGAII7PMFVSEUV7H89Q2CVR6RQPM", "dateTime": 1516558949754}, {"current_trial": 131, "trialdata": {"rt": [30810, 33858, 35921, 37628, 38295, 42798, 43955, 47234, 52293], "recwords": ["bureau", "bunny", "london", "kidney", "liver", "staple", "pimple", "scotch", "france"], "key_times": [2298, 2397, 2467, 2576, 2708, 2900, 3019, 3130, 3198, 4010, 4149, 4301, 4442, 5708, 5819, 6058, 6349, 6498, 6637, 6839, 8267, 9221, 9293, 9610, 9763, 9912, 11197, 11396, 11507, 11925, 12138, 12257, 12427, 12905, 13275, 15496, 15618, 16424, 16504, 17609, 17769, 17938, 19683, 20579, 21086, 21386, 21597, 21983, 22207, 22353, 22533, 22674, 22823, 23929, 24021, 24380, 24543, 25121, 25211, 25531, 25720, 26755, 27116, 27196, 27305, 27490, 27954, 28117, 28285, 29930, 30023, 30223, 30810, 33018, 33108, 33287, 33599, 33723, 33858, 35086, 35278, 35337, 35469, 35510, 35586, 35921, 36897, 37078, 37167, 37271, 37368, 37449, 37628, 37817, 37909, 38001, 38101, 38211, 38295, 40385, 40633, 40713, 40813, 40927, 41038, 41178, 41557, 41697, 41848, 41992, 42350, 42389, 42576, 42798, 43010, 43181, 43294, 43502, 43532, 43712, 43955, 45966, 46385, 46577, 46664, 46885, 46965, 47234, 51623, 51846, 51975, 52079, 52135, 52209, 52293], "trial_type": "free-recall", "conditions": [12, 800, "v", 12000], "internal_node_id": "0.0-95.0-0.0", "key_presses": [66, 69, 65, 85, 82, 8, 8, 82, 85, 8, 8, 8, 8, 65, 69, 85, 8, 8, 8, 69, 85, 82, 85, 8, 8, 8, 8, 65, 69, 82, 8, 8, 82, 8, 8, 69, 65, 82, 85, 8, 8, 8, 65, 8, 82, 65, 82, 85, 8, 8, 8, 8, 8, 85, 82, 65, 69, 8, 82, 8, 85, 8, 8, 65, 69, 85, 8, 8, 8, 69, 65, 85, 13, 66, 85, 78, 78, 89, 13, 76, 79, 78, 68, 79, 78, 13, 75, 73, 68, 78, 69, 89, 13, 76, 73, 86, 69, 82, 13, 83, 84, 65, 77, 80, 76, 69, 8, 8, 8, 8, 80, 76, 69, 13, 80, 73, 77, 80, 76, 69, 13, 83, 67, 79, 84, 67, 72, 13, 70, 82, 65, 78, 67, 69, 13], "trial": 3, "time_elapsed": 750016, "type": "FREE_RECALL", "trial_index": 131}, "uniqueid": "MTK1932:3DYGAII7PMFVSEUV7H89Q2CVR6RQPM", "dateTime": 1516559009767}, {"current_trial": 132, "trialdata": {"rt": 5805, "trial_type": "text", "internal_node_id": "0.0-96.0", "time_elapsed": 757828, "key_press": 78, "type": "INSTRUCTIONS", "trial_index": 132}, "uniqueid": "MTK1932:3DYGAII7PMFVSEUV7H89Q2CVR6RQPM", "dateTime": 1516559017574}, {"current_trial": 133, "trialdata": {"rt": [3369, 4498, 6649, 8651, 10885], "trial_type": "math-distractor", "key_times": [3089, 3231, 3369, 4310, 4390, 4498, 6369, 6459, 6649, 8353, 8432, 8651, 10645, 10696, 10885], "responses": ["22", "10", "12", "12", "15"], "num2": [8, 1, 4, 4, 5, 6], "num3": [5, 1, 4, 1, 4, 2], "conditions": [12, 1600, "v", 12000], "internal_node_id": "0.0-97.0", "key_presses": [98, 98, 13, 97, 96, 13, 97, 98, 13, 97, 98, 13, 97, 101, 13], "trial": 4, "time_elapsed": 771833, "type": "DISTRACTOR", "trial_index": 133, "num1": [9, 8, 4, 7, 6, 8]}, "uniqueid": "MTK1932:3DYGAII7PMFVSEUV7H89Q2CVR6RQPM", "dateTime": 1516559031578}, {"current_trial": 134, "trialdata": {"rt": -1, "trial_type": "single-stim", "stimulus": "<p id=\"stim\">10</p>", "internal_node_id": "0.0-98.0-0.0", "time_elapsed": 774836, "key_press": -1, "trial_index": 134}, "uniqueid": "MTK1932:3DYGAII7PMFVSEUV7H89Q2CVR6RQPM", "dateTime": 1516559034581}, {"current_trial": 135, "trialdata": {"rt": -1, "trial_type": "single-stim", "stimulus": "<p id=\"stim\">9</p>", "internal_node_id": "0.0-98.0-1.0", "time_elapsed": 775838, "key_press": -1, "trial_index": 135}, "uniqueid": "MTK1932:3DYGAII7PMFVSEUV7H89Q2CVR6RQPM", "dateTime": 1516559035583}, {"current_trial": 136, "trialdata": {"rt": -1, "trial_type": "single-stim", "stimulus": "<p id=\"stim\">8</p>", "internal_node_id": "0.0-98.0-2.0", "time_elapsed": 776841, "key_press": -1, "trial_index": 136}, "uniqueid": "MTK1932:3DYGAII7PMFVSEUV7H89Q2CVR6RQPM", "dateTime": 1516559036586}, {"current_trial": 137, "trialdata": {"rt": -1, "trial_type": "single-stim", "stimulus": "<p id=\"stim\">7</p>", "internal_node_id": "0.0-98.0-3.0", "time_elapsed": 777844, "key_press": -1, "trial_index": 137}, "uniqueid": "MTK1932:3DYGAII7PMFVSEUV7H89Q2CVR6RQPM", "dateTime": 1516559037589}, {"current_trial": 138, "trialdata": {"rt": -1, "trial_type": "single-stim", "stimulus": "<p id=\"stim\">6</p>", "internal_node_id": "0.0-98.0-4.0", "time_elapsed": 778846, "key_press": -1, "trial_index": 138}, "uniqueid": "MTK1932:3DYGAII7PMFVSEUV7H89Q2CVR6RQPM", "dateTime": 1516559038591}, {"current_trial": 139, "trialdata": {"rt": -1, "trial_type": "single-stim", "stimulus": "<p id=\"stim\">5</p>", "internal_node_id": "0.0-98.0-5.0", "time_elapsed": 779848, "key_press": -1, "trial_index": 139}, "uniqueid": "MTK1932:3DYGAII7PMFVSEUV7H89Q2CVR6RQPM", "dateTime": 1516559039593}, {"current_trial": 140, "trialdata": {"rt": -1, "trial_type": "single-stim", "stimulus": "<p id=\"stim\">4</p>", "internal_node_id": "0.0-98.0-6.0", "time_elapsed": 780850, "key_press": -1, "trial_index": 140}, "uniqueid": "MTK1932:3DYGAII7PMFVSEUV7H89Q2CVR6RQPM", "dateTime": 1516559040595}, {"current_trial": 141, "trialdata": {"rt": -1, "trial_type": "single-stim", "stimulus": "<p id=\"stim\">3</p>", "internal_node_id": "0.0-98.0-7.0", "time_elapsed": 781852, "key_press": -1, "trial_index": 141}, "uniqueid": "MTK1932:3DYGAII7PMFVSEUV7H89Q2CVR6RQPM", "dateTime": 1516559041597}, {"current_trial": 142, "trialdata": {"rt": -1, "trial_type": "single-stim", "stimulus": "<p id=\"stim\">2</p>", "internal_node_id": "0.0-98.0-8.0", "time_elapsed": 782854, "key_press": -1, "trial_index": 142}, "uniqueid": "MTK1932:3DYGAII7PMFVSEUV7H89Q2CVR6RQPM", "dateTime": 1516559042599}, {"current_trial": 143, "trialdata": {"rt": -1, "trial_type": "single-stim", "stimulus": "<p id=\"stim\">1</p>", "internal_node_id": "0.0-98.0-9.0", "time_elapsed": 783856, "key_press": -1, "trial_index": 143}, "uniqueid": "MTK1932:3DYGAII7PMFVSEUV7H89Q2CVR6RQPM", "dateTime": 1516559043601}, {"current_trial": 144, "trialdata": {"rt": -1, "trial_type": "single-stim", "stimulus": "<p id=\"stim\">+</p>", "internal_node_id": "0.0-99.0-0.0", "time_elapsed": 785358, "key_press": -1, "type": "FIXATION", "trial_index": 144}, "uniqueid": "MTK1932:3DYGAII7PMFVSEUV7H89Q2CVR6RQPM", "dateTime": 1516559045103}, {"current_trial": 145, "trialdata": {"rt": -1, "trial_type": "single-stim", "word": "brook", "stimulus": "<p id=\"stim\">BROOK</p>", "conditions": [12, 1600, "v", 12000], "internal_node_id": "0.0-100.0", "trial": 4, "time_elapsed": 786960, "serialpos": 0, "key_press": -1, "wordID": 176, "type": "PRES_VIS", "trial_index": 145}, "uniqueid": "MTK1932:3DYGAII7PMFVSEUV7H89Q2CVR6RQPM", "dateTime": 1516559046705}, {"current_trial": 146, "trialdata": {"rt": -1, "trial_type": "single-stim", "word": "gazelle", "stimulus": "<p id=\"stim\">GAZELLE</p>", "conditions": [12, 1600, "v", 12000], "internal_node_id": "0.0-101.0", "trial": 4, "time_elapsed": 789715, "serialpos": 1, "key_press": -1, "wordID": 627, "type": "PRES_VIS", "trial_index": 146}, "uniqueid": "MTK1932:3DYGAII7PMFVSEUV7H89Q2CVR6RQPM", "dateTime": 1516559049460}, {"current_trial": 147, "trialdata": {"rt": -1, "trial_type": "single-stim", "word": "hostess", "stimulus": "<p id=\"stim\">HOSTESS</p>", "conditions": [12, 1600, "v", 12000], "internal_node_id": "0.0-102.0", "trial": 4, "time_elapsed": 792504, "serialpos": 2, "key_press": -1, "wordID": 722, "type": "PRES_VIS", "trial_index": 147}, "uniqueid": "MTK1932:3DYGAII7PMFVSEUV7H89Q2CVR6RQPM", "dateTime": 1516559052250}, {"current_trial": 148, "trialdata": {"rt": -1, "trial_type": "single-stim", "word": "frame", "stimulus": "<p id=\"stim\">FRAME</p>", "conditions": [12, 1600, "v", 12000], "internal_node_id": "0.0-103.0", "trial": 4, "time_elapsed": 794915, "serialpos": 3, "key_press": -1, "wordID": 599, "type": "PRES_VIS", "trial_index": 148}, "uniqueid": "MTK1932:3DYGAII7PMFVSEUV7H89Q2CVR6RQPM", "dateTime": 1516559054660}, {"current_trial": 149, "trialdata": {"rt": -1, "trial_type": "single-stim", "word": "fireplace", "stimulus": "<p id=\"stim\">FIREPLACE</p>", "conditions": [12, 1600, "v", 12000], "internal_node_id": "0.0-104.0", "trial": 4, "time_elapsed": 797451, "serialpos": 4, "key_press": -1, "wordID": 569, "type": "PRES_VIS", "trial_index": 149}, "uniqueid": "MTK1932:3DYGAII7PMFVSEUV7H89Q2CVR6RQPM", "dateTime": 1516559057197}, {"current_trial": 150, "trialdata": {"rt": -1, "trial_type": "single-stim", "word": "playground", "stimulus": "<p id=\"stim\">PLAYGROUND</p>", "conditions": [12, 1600, "v", 12000], "internal_node_id": "0.0-105.0", "trial": 4, "time_elapsed": 800242, "serialpos": 5, "key_press": -1, "wordID": 1086, "type": "PRES_VIS", "trial_index": 150}, "uniqueid": "MTK1932:3DYGAII7PMFVSEUV7H89Q2CVR6RQPM", "dateTime": 1516559059988}, {"current_trial": 151, "trialdata": {"rt": -1, "trial_type": "single-stim", "word": "plaza", "stimulus": "<p id=\"stim\">PLAZA</p>", "conditions": [12, 1600, "v", 12000], "internal_node_id": "0.0-106.0", "trial": 4, "time_elapsed": 802794, "serialpos": 6, "key_press": -1, "wordID": 1087, "type": "PRES_VIS", "trial_index": 151}, "uniqueid": "MTK1932:3DYGAII7PMFVSEUV7H89Q2CVR6RQPM", "dateTime": 1516559062539}, {"current_trial": 152, "trialdata": {"rt": -1, "trial_type": "single-stim", "word": "dress", "stimulus": "<p id=\"stim\">DRESS</p>", "conditions": [12, 1600, "v", 12000], "internal_node_id": "0.0-107.0", "trial": 4, "time_elapsed": 805380, "serialpos": 7, "key_press": -1, "wordID": 494, "type": "PRES_VIS", "trial_index": 152}, "uniqueid": "MTK1932:3DYGAII7PMFVSEUV7H89Q2CVR6RQPM", "dateTime": 1516559065125}, {"current_trial": 153, "trialdata": {"rt": -1, "trial_type": "single-stim", "word": "scissors", "stimulus": "<p id=\"stim\">SCISSORS</p>", "conditions": [12, 1600, "v", 12000], "internal_node_id": "0.0-108.0", "trial": 4, "time_elapsed": 808036, "serialpos": 8, "key_press": -1, "wordID": 1249, "type": "PRES_VIS", "trial_index": 153}, "uniqueid": "MTK1932:3DYGAII7PMFVSEUV7H89Q2CVR6RQPM", "dateTime": 1516559067782}, {"current_trial": 154, "trialdata": {"rt": -1, "trial_type": "single-stim", "word": "tweezers", "stimulus": "<p id=\"stim\">TWEEZERS</p>", "conditions": [12, 1600, "v", 12000], "internal_node_id": "0.0-109.0", "trial": 4, "time_elapsed": 810626, "serialpos": 9, "key_press": -1, "wordID": 1525, "type": "PRES_VIS", "trial_index": 154}, "uniqueid": "MTK1932:3DYGAII7PMFVSEUV7H89Q2CVR6RQPM", "dateTime": 1516559070371}, {"current_trial": 155, "trialdata": {"rt": -1, "trial_type": "single-stim", "word": "skirt", "stimulus": "<p id=\"stim\">SKIRT</p>", "conditions": [12, 1600, "v", 12000], "internal_node_id": "0.0-110.0", "trial": 4, "time_elapsed": 813077, "serialpos": 10, "key_press": -1, "wordID": 1318, "type": "PRES_VIS", "trial_index": 155}, "uniqueid": "MTK1932:3DYGAII7PMFVSEUV7H89Q2CVR6RQPM", "dateTime": 1516559072823}, {"current_trial": 156, "trialdata": {"rt": -1, "trial_type": "single-stim", "word": "swamp", "stimulus": "<p id=\"stim\">SWAMP</p>", "conditions": [12, 1600, "v", 12000], "internal_node_id": "0.0-111.0", "trial": 4, "time_elapsed": 815703, "serialpos": 11, "key_press": -1, "wordID": 1415, "type": "PRES_VIS", "trial_index": 156}, "uniqueid": "MTK1932:3DYGAII7PMFVSEUV7H89Q2CVR6RQPM", "dateTime": 1516559075448}, {"current_trial": 157, "trialdata": {"rt": -1, "trial_type": "single-stim", "stimulus": "", "internal_node_id": "0.0-112.0-0.0", "time_elapsed": 818097, "key_press": -1, "type": "PRE_RECALL_DELAY", "trial_index": 157}, "uniqueid": "MTK1932:3DYGAII7PMFVSEUV7H89Q2CVR6RQPM", "dateTime": 1516559077842}, {"current_trial": 158, "trialdata": {"rt": -1000, "trial_type": "single-audio", "stimulus": "/static/audio/400Hz.wav", "internal_node_id": "0.0-113.0", "time_elapsed": 818600, "key_press": -1, "type": "PRE_RECALL_ALERT", "trial_index": 158}, "uniqueid": "MTK1932:3DYGAII7PMFVSEUV7H89Q2CVR6RQPM", "dateTime": 1516559078345}, {"current_trial": 159, "trialdata": {"rt": [5568, 6627, 9085, 11612, 13141, 17969, 19120, 24272, 25941], "recwords": ["swamp", "skirt", "tweezers", "brook", "gazelle", "playground", "plaza", "dress", "hostess"], "key_times": [4438, 4689, 4799, 4958, 5107, 5568, 5679, 5852, 6046, 6218, 6467, 6627, 7940, 8099, 8171, 8342, 8600, 8713, 8803, 8853, 9085, 10234, 10472, 10821, 10980, 11060, 11612, 11730, 11810, 12119, 12312, 12726, 12885, 13004, 13141, 16062, 16173, 16252, 16411, 16800, 17018, 17155, 17202, 17491, 17563, 17969, 18299, 18430, 18520, 18749, 18958, 19120, 22806, 23125, 23574, 23713, 23932, 24272, 24741, 24821, 25073, 25232, 25452, 25521, 25692, 25941], "trial_type": "free-recall", "conditions": [12, 1600, "v", 12000], "internal_node_id": "0.0-114.0-0.0", "key_presses": [83, 87, 65, 77, 80, 13, 83, 75, 73, 82, 84, 13, 84, 87, 69, 69, 90, 69, 82, 83, 13, 66, 82, 79, 79, 75, 13, 71, 65, 90, 69, 76, 76, 69, 13, 80, 76, 65, 89, 71, 82, 79, 85, 78, 68, 13, 80, 76, 65, 90, 65, 13, 68, 82, 69, 83, 83, 13, 72, 79, 83, 84, 69, 83, 83, 13], "trial": 4, "time_elapsed": 878608, "type": "FREE_RECALL", "trial_index": 159}, "uniqueid": "MTK1932:3DYGAII7PMFVSEUV7H89Q2CVR6RQPM", "dateTime": 1516559138360}, {"current_trial": 160, "trialdata": {"rt": 1985, "trial_type": "text", "internal_node_id": "0.0-115.0", "time_elapsed": 882602, "key_press": 74, "type": "INSTRUCTIONS", "trial_index": 160}, "uniqueid": "MTK1932:3DYGAII7PMFVSEUV7H89Q2CVR6RQPM", "dateTime": 1516559142347}, {"current_trial": 161, "trialdata": {"rt": [1511, 3194, 5574, 8939, 11514], "trial_type": "math-distractor", "key_times": [1349, 1421, 1511, 2626, 2805, 3194, 4380, 4986, 5355, 5505, 5574, 8352, 8811, 8939, 11116, 11195, 11514], "responses": ["10", "17", "10", "22", "20"], "num2": [7, 5, 5, 7, 4, 7], "num3": [2, 7, 3, 7, 9, 9], "conditions": [24, 1600, "v", 12000], "internal_node_id": "0.0-116.0", "key_presses": [97, 96, 13, 97, 103, 13, 98, 8, 97, 96, 13, 98, 98, 13, 98, 96, 13], "trial": 5, "time_elapsed": 896609, "type": "DISTRACTOR", "trial_index": 161, "num1": [1, 5, 2, 9, 7, 1]}, "uniqueid": "MTK1932:3DYGAII7PMFVSEUV7H89Q2CVR6RQPM", "dateTime": 1516559156354}, {"current_trial": 162, "trialdata": {"rt": -1, "trial_type": "single-stim", "stimulus": "<p id=\"stim\">10</p>", "internal_node_id": "0.0-117.0-0.0", "time_elapsed": 899612, "key_press": -1, "trial_index": 162}, "uniqueid": "MTK1932:3DYGAII7PMFVSEUV7H89Q2CVR6RQPM", "dateTime": 1516559159357}, {"current_trial": 163, "trialdata": {"rt": -1, "trial_type": "single-stim", "stimulus": "<p id=\"stim\">9</p>", "internal_node_id": "0.0-117.0-1.0", "time_elapsed": 900614, "key_press": -1, "trial_index": 163}, "uniqueid": "MTK1932:3DYGAII7PMFVSEUV7H89Q2CVR6RQPM", "dateTime": 1516559160360}, {"current_trial": 164, "trialdata": {"rt": -1, "trial_type": "single-stim", "stimulus": "<p id=\"stim\">8</p>", "internal_node_id": "0.0-117.0-2.0", "time_elapsed": 901616, "key_press": -1, "trial_index": 164}, "uniqueid": "MTK1932:3DYGAII7PMFVSEUV7H89Q2CVR6RQPM", "dateTime": 1516559161362}, {"current_trial": 165, "trialdata": {"rt": -1, "trial_type": "single-stim", "stimulus": "<p id=\"stim\">7</p>", "internal_node_id": "0.0-117.0-3.0", "time_elapsed": 902618, "key_press": -1, "trial_index": 165}, "uniqueid": "MTK1932:3DYGAII7PMFVSEUV7H89Q2CVR6RQPM", "dateTime": 1516559162364}, {"current_trial": 166, "trialdata": {"rt": -1, "trial_type": "single-stim", "stimulus": "<p id=\"stim\">6</p>", "internal_node_id": "0.0-117.0-4.0", "time_elapsed": 903620, "key_press": -1, "trial_index": 166}, "uniqueid": "MTK1932:3DYGAII7PMFVSEUV7H89Q2CVR6RQPM", "dateTime": 1516559163366}, {"current_trial": 167, "trialdata": {"rt": -1, "trial_type": "single-stim", "stimulus": "<p id=\"stim\">5</p>", "internal_node_id": "0.0-117.0-5.0", "time_elapsed": 904622, "key_press": -1, "trial_index": 167}, "uniqueid": "MTK1932:3DYGAII7PMFVSEUV7H89Q2CVR6RQPM", "dateTime": 1516559164368}, {"current_trial": 168, "trialdata": {"rt": -1, "trial_type": "single-stim", "stimulus": "<p id=\"stim\">4</p>", "internal_node_id": "0.0-117.0-6.0", "time_elapsed": 905625, "key_press": -1, "trial_index": 168}, "uniqueid": "MTK1932:3DYGAII7PMFVSEUV7H89Q2CVR6RQPM", "dateTime": 1516559165370}, {"current_trial": 169, "trialdata": {"rt": -1, "trial_type": "single-stim", "stimulus": "<p id=\"stim\">3</p>", "internal_node_id": "0.0-117.0-7.0", "time_elapsed": 906626, "key_press": -1, "trial_index": 169}, "uniqueid": "MTK1932:3DYGAII7PMFVSEUV7H89Q2CVR6RQPM", "dateTime": 1516559166372}, {"current_trial": 170, "trialdata": {"rt": -1, "trial_type": "single-stim", "stimulus": "<p id=\"stim\">2</p>", "internal_node_id": "0.0-117.0-8.0", "time_elapsed": 907628, "key_press": -1, "trial_index": 170}, "uniqueid": "MTK1932:3DYGAII7PMFVSEUV7H89Q2CVR6RQPM", "dateTime": 1516559167374}, {"current_trial": 171, "trialdata": {"rt": -1, "trial_type": "single-stim", "stimulus": "<p id=\"stim\">1</p>", "internal_node_id": "0.0-117.0-9.0", "time_elapsed": 908631, "key_press": -1, "trial_index": 171}, "uniqueid": "MTK1932:3DYGAII7PMFVSEUV7H89Q2CVR6RQPM", "dateTime": 1516559168376}, {"current_trial": 172, "trialdata": {"rt": -1, "trial_type": "single-stim", "stimulus": "<p id=\"stim\">+</p>", "internal_node_id": "0.0-118.0-0.0", "time_elapsed": 910133, "key_press": -1, "type": "FIXATION", "trial_index": 172}, "uniqueid": "MTK1932:3DYGAII7PMFVSEUV7H89Q2CVR6RQPM", "dateTime": 1516559169878}, {"current_trial": 173, "trialdata": {"rt": -1, "trial_type": "single-stim", "word": "tuba", "stimulus": "<p id=\"stim\">TUBA</p>", "conditions": [24, 1600, "v", 12000], "internal_node_id": "0.0-119.0", "trial": 5, "time_elapsed": 911735, "serialpos": 0, "key_press": -1, "wordID": 1514, "type": "PRES_VIS", "trial_index": 173}, "uniqueid": "MTK1932:3DYGAII7PMFVSEUV7H89Q2CVR6RQPM", "dateTime": 1516559171480}, {"current_trial": 174, "trialdata": {"rt": -1, "trial_type": "single-stim", "word": "curtain", "stimulus": "<p id=\"stim\">CURTAIN</p>", "conditions": [24, 1600, "v", 12000], "internal_node_id": "0.0-120.0", "trial": 5, "time_elapsed": 914254, "serialpos": 1, "key_press": -1, "wordID": 426, "type": "PRES_VIS", "trial_index": 174}, "uniqueid": "MTK1932:3DYGAII7PMFVSEUV7H89Q2CVR6RQPM", "dateTime": 1516559173999}, {"current_trial": 175, "trialdata": {"rt": -1, "trial_type": "single-stim", "word": "gymnast", "stimulus": "<p id=\"stim\">GYMNAST</p>", "conditions": [24, 1600, "v", 12000], "internal_node_id": "0.0-121.0", "trial": 5, "time_elapsed": 916934, "serialpos": 2, "key_press": -1, "wordID": 674, "type": "PRES_VIS", "trial_index": 175}, "uniqueid": "MTK1932:3DYGAII7PMFVSEUV7H89Q2CVR6RQPM", "dateTime": 1516559176679}, {"current_trial": 176, "trialdata": {"rt": -1, "trial_type": "single-stim", "word": "onion", "stimulus": "<p id=\"stim\">ONION</p>", "conditions": [24, 1600, "v", 12000], "internal_node_id": "0.0-122.0", "trial": 5, "time_elapsed": 919590, "serialpos": 3, "key_press": -1, "wordID": 976, "type": "PRES_VIS", "trial_index": 176}, "uniqueid": "MTK1932:3DYGAII7PMFVSEUV7H89Q2CVR6RQPM", "dateTime": 1516559179335}, {"current_trial": 177, "trialdata": {"rt": -1, "trial_type": "single-stim", "word": "rooster", "stimulus": "<p id=\"stim\">ROOSTER</p>", "conditions": [24, 1600, "v", 12000], "internal_node_id": "0.0-123.0", "trial": 5, "time_elapsed": 922117, "serialpos": 4, "key_press": -1, "wordID": 1208, "type": "PRES_VIS", "trial_index": 177}, "uniqueid": "MTK1932:3DYGAII7PMFVSEUV7H89Q2CVR6RQPM", "dateTime": 1516559181863}, {"current_trial": 178, "trialdata": {"rt": -1, "trial_type": "single-stim", "word": "fireman", "stimulus": "<p id=\"stim\">FIREMAN</p>", "conditions": [24, 1600, "v", 12000], "internal_node_id": "0.0-124.0", "trial": 5, "time_elapsed": 924809, "serialpos": 5, "key_press": -1, "wordID": 568, "type": "PRES_VIS", "trial_index": 178}, "uniqueid": "MTK1932:3DYGAII7PMFVSEUV7H89Q2CVR6RQPM", "dateTime": 1516559184554}, {"current_trial": 179, "trialdata": {"rt": -1, "trial_type": "single-stim", "word": "salmon", "stimulus": "<p id=\"stim\">SALMON</p>", "conditions": [24, 1600, "v", 12000], "internal_node_id": "0.0-125.0", "trial": 5, "time_elapsed": 927577, "serialpos": 6, "key_press": -1, "wordID": 1226, "type": "PRES_VIS", "trial_index": 179}, "uniqueid": "MTK1932:3DYGAII7PMFVSEUV7H89Q2CVR6RQPM", "dateTime": 1516559187322}, {"current_trial": 180, "trialdata": {"rt": -1, "trial_type": "single-stim", "word": "trout", "stimulus": "<p id=\"stim\">TROUT</p>", "conditions": [24, 1600, "v", 12000], "internal_node_id": "0.0-126.0", "trial": 5, "time_elapsed": 930109, "serialpos": 7, "key_press": -1, "wordID": 1510, "type": "PRES_VIS", "trial_index": 180}, "uniqueid": "MTK1932:3DYGAII7PMFVSEUV7H89Q2CVR6RQPM", "dateTime": 1516559189854}, {"current_trial": 181, "trialdata": {"rt": -1, "trial_type": "single-stim", "word": "robber", "stimulus": "<p id=\"stim\">ROBBER</p>", "conditions": [24, 1600, "v", 12000], "internal_node_id": "0.0-127.0", "trial": 5, "time_elapsed": 932838, "serialpos": 8, "key_press": -1, "wordID": 1196, "type": "PRES_VIS", "trial_index": 181}, "uniqueid": "MTK1932:3DYGAII7PMFVSEUV7H89Q2CVR6RQPM", "dateTime": 1516559192583}, {"current_trial": 182, "trialdata": {"rt": -1, "trial_type": "single-stim", "word": "wife", "stimulus": "<p id=\"stim\">WIFE</p>", "conditions": [24, 1600, "v", 12000], "internal_node_id": "0.0-128.0", "trial": 5, "time_elapsed": 935619, "serialpos": 9, "key_press": -1, "wordID": 1608, "type": "PRES_VIS", "trial_index": 182}, "uniqueid": "MTK1932:3DYGAII7PMFVSEUV7H89Q2CVR6RQPM", "dateTime": 1516559195364}, {"current_trial": 183, "trialdata": {"rt": -1, "trial_type": "single-stim", "word": "shoulder", "stimulus": "<p id=\"stim\">SHOULDER</p>", "conditions": [24, 1600, "v", 12000], "internal_node_id": "0.0-129.0", "trial": 5, "time_elapsed": 938216, "serialpos": 10, "key_press": -1, "wordID": 1293, "type": "PRES_VIS", "trial_index": 183}, "uniqueid": "MTK1932:3DYGAII7PMFVSEUV7H89Q2CVR6RQPM", "dateTime": 1516559197961}, {"current_trial": 184, "trialdata": {"rt": -1, "trial_type": "single-stim", "word": "harp", "stimulus": "<p id=\"stim\">HARP</p>", "conditions": [24, 1600, "v", 12000], "internal_node_id": "0.0-130.0", "trial": 5, "time_elapsed": 940624, "serialpos": 11, "key_press": -1, "wordID": 688, "type": "PRES_VIS", "trial_index": 184}, "uniqueid": "MTK1932:3DYGAII7PMFVSEUV7H89Q2CVR6RQPM", "dateTime": 1516559200369}, {"current_trial": 185, "trialdata": {"rt": -1, "trial_type": "single-stim", "word": "arm", "stimulus": "<p id=\"stim\">ARM</p>", "conditions": [24, 1600, "v", 12000], "internal_node_id": "0.0-131.0", "trial": 5, "time_elapsed": 943233, "serialpos": 12, "key_press": -1, "wordID": 37, "type": "PRES_VIS", "trial_index": 185}, "uniqueid": "MTK1932:3DYGAII7PMFVSEUV7H89Q2CVR6RQPM", "dateTime": 1516559202978}, {"current_trial": 186, "trialdata": {"rt": -1, "trial_type": "single-stim", "word": "actor", "stimulus": "<p id=\"stim\">ACTOR</p>", "conditions": [24, 1600, "v", 12000], "internal_node_id": "0.0-132.0", "trial": 5, "time_elapsed": 946034, "serialpos": 13, "key_press": -1, "wordID": 4, "type": "PRES_VIS", "trial_index": 186}, "uniqueid": "MTK1932:3DYGAII7PMFVSEUV7H89Q2CVR6RQPM", "dateTime": 1516559205779}, {"current_trial": 187, "trialdata": {"rt": -1, "trial_type": "single-stim", "word": "film", "stimulus": "<p id=\"stim\">FILM</p>", "conditions": [24, 1600, "v", 12000], "internal_node_id": "0.0-133.0", "trial": 5, "time_elapsed": 948735, "serialpos": 14, "key_press": -1, "wordID": 564, "type": "PRES_VIS", "trial_index": 187}, "uniqueid": "MTK1932:3DYGAII7PMFVSEUV7H89Q2CVR6RQPM", "dateTime": 1516559208482}, {"current_trial": 188, "trialdata": {"rt": -1, "trial_type": "single-stim", "word": "blender", "stimulus": "<p id=\"stim\">BLENDER</p>", "conditions": [24, 1600, "v", 12000], "internal_node_id": "0.0-134.0", "trial": 5, "time_elapsed": 951331, "serialpos": 15, "key_press": -1, "wordID": 135, "type": "PRES_VIS", "trial_index": 188}, "uniqueid": "MTK1932:3DYGAII7PMFVSEUV7H89Q2CVR6RQPM", "dateTime": 1516559211076}, {"current_trial": 189, "trialdata": {"rt": -1, "trial_type": "single-stim", "word": "grave", "stimulus": "<p id=\"stim\">GRAVE</p>", "conditions": [24, 1600, "v", 12000], "internal_node_id": "0.0-135.0", "trial": 5, "time_elapsed": 953907, "serialpos": 16, "key_press": -1, "wordID": 657, "type": "PRES_VIS", "trial_index": 189}, "uniqueid": "MTK1932:3DYGAII7PMFVSEUV7H89Q2CVR6RQPM", "dateTime": 1516559213652}, {"current_trial": 190, "trialdata": {"rt": -1, "trial_type": "single-stim", "word": "antler", "stimulus": "<p id=\"stim\">ANTLER</p>", "conditions": [24, 1600, "v", 12000], "internal_node_id": "0.0-136.0", "trial": 5, "time_elapsed": 956417, "serialpos": 17, "key_press": -1, "wordID": 28, "type": "PRES_VIS", "trial_index": 190}, "uniqueid": "MTK1932:3DYGAII7PMFVSEUV7H89Q2CVR6RQPM", "dateTime": 1516559216162}, {"current_trial": 191, "trialdata": {"rt": -1, "trial_type": "single-stim", "word": "compass", "stimulus": "<p id=\"stim\">COMPASS</p>", "conditions": [24, 1600, "v", 12000], "internal_node_id": "0.0-137.0", "trial": 5, "time_elapsed": 959165, "serialpos": 18, "key_press": -1, "wordID": 357, "type": "PRES_VIS", "trial_index": 191}, "uniqueid": "MTK1932:3DYGAII7PMFVSEUV7H89Q2CVR6RQPM", "dateTime": 1516559218910}, {"current_trial": 192, "trialdata": {"rt": -1, "trial_type": "single-stim", "word": "perfume", "stimulus": "<p id=\"stim\">PERFUME</p>", "conditions": [24, 1600, "v", 12000], "internal_node_id": "0.0-138.0", "trial": 5, "time_elapsed": 961606, "serialpos": 19, "key_press": -1, "wordID": 1048, "type": "PRES_VIS", "trial_index": 192}, "uniqueid": "MTK1932:3DYGAII7PMFVSEUV7H89Q2CVR6RQPM", "dateTime": 1516559221351}, {"current_trial": 193, "trialdata": {"rt": -1, "trial_type": "single-stim", "word": "icing", "stimulus": "<p id=\"stim\">ICING</p>", "conditions": [24, 1600, "v", 12000], "internal_node_id": "0.0-139.0", "trial": 5, "time_elapsed": 964362, "serialpos": 20, "key_press": -1, "wordID": 731, "type": "PRES_VIS", "trial_index": 193}, "uniqueid": "MTK1932:3DYGAII7PMFVSEUV7H89Q2CVR6RQPM", "dateTime": 1516559224108}, {"current_trial": 194, "trialdata": {"rt": -1, "trial_type": "single-stim", "word": "cloud", "stimulus": "<p id=\"stim\">CLOUD</p>", "conditions": [24, 1600, "v", 12000], "internal_node_id": "0.0-140.0", "trial": 5, "time_elapsed": 967022, "serialpos": 21, "key_press": -1, "wordID": 327, "type": "PRES_VIS", "trial_index": 194}, "uniqueid": "MTK1932:3DYGAII7PMFVSEUV7H89Q2CVR6RQPM", "dateTime": 1516559226767}, {"current_trial": 195, "trialdata": {"rt": -1, "trial_type": "single-stim", "word": "clam", "stimulus": "<p id=\"stim\">CLAM</p>", "conditions": [24, 1600, "v", 12000], "internal_node_id": "0.0-141.0", "trial": 5, "time_elapsed": 969479, "serialpos": 22, "key_press": -1, "wordID": 314, "type": "PRES_VIS", "trial_index": 195}, "uniqueid": "MTK1932:3DYGAII7PMFVSEUV7H89Q2CVR6RQPM", "dateTime": 1516559229225}, {"current_trial": 196, "trialdata": {"rt": -1, "trial_type": "single-stim", "word": "leg", "stimulus": "<p id=\"stim\">LEG</p>", "conditions": [24, 1600, "v", 12000], "internal_node_id": "0.0-142.0", "trial": 5, "time_elapsed": 972279, "serialpos": 23, "key_press": -1, "wordID": 808, "type": "PRES_VIS", "trial_index": 196}, "uniqueid": "MTK1932:3DYGAII7PMFVSEUV7H89Q2CVR6RQPM", "dateTime": 1516559232025}, {"current_trial": 197, "trialdata": {"rt": -1, "trial_type": "single-stim", "stimulus": "", "internal_node_id": "0.0-143.0-0.0", "time_elapsed": 974385, "key_press": -1, "type": "PRE_RECALL_DELAY", "trial_index": 197}, "uniqueid": "MTK1932:3DYGAII7PMFVSEUV7H89Q2CVR6RQPM", "dateTime": 1516559234131}, {"current_trial": 198, "trialdata": {"rt": -1000, "trial_type": "single-audio", "stimulus": "/static/audio/400Hz.wav", "internal_node_id": "0.0-144.0", "time_elapsed": 974887, "key_press": -1, "type": "PRE_RECALL_ALERT", "trial_index": 198}, "uniqueid": "MTK1932:3DYGAII7PMFVSEUV7H89Q2CVR6RQPM", "dateTime": 1516559234633}, {"current_trial": 199, "trialdata": {"rt": [2561, 3409, 4460, 5019, 9407, 16672, 19550, 20179, 22940, 23614, 26147, 26903, 35397], "recwords": ["icing", "cloud", "clam", "leg", "perfume", "grave", "shoulder", "arm", "actor", "film", "salmon", "trout", "wife"], "key_times": [1272, 1422, 2199, 2271, 2341, 2561, 2661, 2770, 2900, 2982, 3083, 3409, 3699, 3779, 3950, 4240, 4460, 4757, 4837, 4908, 5019, 7530, 7650, 7719, 8001, 8259, 8600, 8749, 8820, 8922, 9183, 9303, 9407, 15821, 16030, 16090, 16304, 16403, 16672, 18381, 18490, 18604, 18679, 18803, 18872, 19141, 19260, 19550, 19669, 19759, 19876, 20179, 22148, 22237, 22449, 22523, 22629, 22940, 23070, 23241, 23313, 23424, 23614, 25005, 25115, 25477, 25675, 25746, 25859, 26147, 26270, 26420, 26510, 26580, 26732, 26903, 34646, 34790, 34936, 35056, 35397], "trial_type": "free-recall", "conditions": [24, 1600, "v", 12000], "internal_node_id": "0.0-145.0-0.0", "key_presses": [73, 67, 73, 78, 71, 13, 67, 76, 79, 85, 68, 13, 67, 76, 65, 77, 13, 76, 69, 71, 13, 80, 69, 82, 71, 85, 8, 8, 70, 85, 77, 69, 13, 71, 82, 65, 86, 69, 13, 83, 72, 79, 85, 76, 68, 69, 82, 13, 65, 82, 77, 13, 65, 67, 84, 79, 82, 13, 70, 73, 76, 77, 13, 83, 65, 76, 77, 79, 78, 13, 84, 82, 79, 85, 84, 13, 87, 73, 70, 69, 13], "trial": 5, "time_elapsed": 1034896, "type": "FREE_RECALL", "trial_index": 199}, "uniqueid": "MTK1932:3DYGAII7PMFVSEUV7H89Q2CVR6RQPM", "dateTime": 1516559294649}, {"current_trial": 200, "trialdata": {"rt": 3129, "trial_type": "text", "internal_node_id": "0.0-146.0", "time_elapsed": 1040036, "key_press": 72, "type": "INSTRUCTIONS", "trial_index": 200}, "uniqueid": "MTK1932:3DYGAII7PMFVSEUV7H89Q2CVR6RQPM", "dateTime": 1516559299781}, {"current_trial": 201, "trialdata": {"rt": [1556, 3337, 5806, 8205, 10106, 12065, 13350, 15588, 17488, 18725, 22570], "trial_type": "math-distractor", "key_times": [1335, 1395, 1556, 3128, 3209, 3337, 4959, 5121, 5806, 7996, 8067, 8205, 9668, 9768, 10106, 11784, 11946, 12065, 13080, 13239, 13350, 15370, 15450, 15588, 17228, 17380, 17488, 18527, 18616, 18725, 22392, 22442, 22570], "responses": ["15", "10", "13", "15", "13", "14", "11", "12", "14", "10", "21"], "num2": [5, 6, 6, 3, 3, 1, 1, 1, 8, 1, 3, 5], "num3": [3, 2, 5, 6, 4, 9, 2, 8, 4, 3, 9, 8], "conditions": [12, 1600, "v", 24000], "internal_node_id": "0.0-147.0", "key_presses": [97, 101, 13, 97, 96, 13, 97, 99, 13, 97, 101, 13, 97, 99, 13, 97, 100, 13, 97, 97, 13, 97, 98, 13, 97, 100, 13, 97, 96, 13, 98, 97, 13], "trial": 6, "time_elapsed": 1066042, "type": "DISTRACTOR", "trial_index": 201, "num1": [7, 2, 2, 6, 6, 4, 8, 3, 2, 6, 9, 7]}, "uniqueid": "MTK1932:3DYGAII7PMFVSEUV7H89Q2CVR6RQPM", "dateTime": 1516559325788}, {"current_trial": 202, "trialdata": {"rt": -1, "trial_type": "single-stim", "stimulus": "<p id=\"stim\">10</p>", "internal_node_id": "0.0-148.0-0.0", "time_elapsed": 1069045, "key_press": -1, "trial_index": 202}, "uniqueid": "MTK1932:3DYGAII7PMFVSEUV7H89Q2CVR6RQPM", "dateTime": 1516559328791}, {"current_trial": 203, "trialdata": {"rt": -1, "trial_type": "single-stim", "stimulus": "<p id=\"stim\">9</p>", "internal_node_id": "0.0-148.0-1.0", "time_elapsed": 1070047, "key_press": -1, "trial_index": 203}, "uniqueid": "MTK1932:3DYGAII7PMFVSEUV7H89Q2CVR6RQPM", "dateTime": 1516559329793}, {"current_trial": 204, "trialdata": {"rt": -1, "trial_type": "single-stim", "stimulus": "<p id=\"stim\">8</p>", "internal_node_id": "0.0-148.0-2.0", "time_elapsed": 1071049, "key_press": -1, "trial_index": 204}, "uniqueid": "MTK1932:3DYGAII7PMFVSEUV7H89Q2CVR6RQPM", "dateTime": 1516559330795}, {"current_trial": 205, "trialdata": {"rt": -1, "trial_type": "single-stim", "stimulus": "<p id=\"stim\">7</p>", "internal_node_id": "0.0-148.0-3.0", "time_elapsed": 1072051, "key_press": -1, "trial_index": 205}, "uniqueid": "MTK1932:3DYGAII7PMFVSEUV7H89Q2CVR6RQPM", "dateTime": 1516559331797}, {"current_trial": 206, "trialdata": {"rt": -1, "trial_type": "single-stim", "stimulus": "<p id=\"stim\">6</p>", "internal_node_id": "0.0-148.0-4.0", "time_elapsed": 1073053, "key_press": -1, "trial_index": 206}, "uniqueid": "MTK1932:3DYGAII7PMFVSEUV7H89Q2CVR6RQPM", "dateTime": 1516559332799}, {"current_trial": 207, "trialdata": {"rt": -1, "trial_type": "single-stim", "stimulus": "<p id=\"stim\">5</p>", "internal_node_id": "0.0-148.0-5.0", "time_elapsed": 1074056, "key_press": -1, "trial_index": 207}, "uniqueid": "MTK1932:3DYGAII7PMFVSEUV7H89Q2CVR6RQPM", "dateTime": 1516559333801}, {"current_trial": 208, "trialdata": {"rt": -1, "trial_type": "single-stim", "stimulus": "<p id=\"stim\">4</p>", "internal_node_id": "0.0-148.0-6.0", "time_elapsed": 1075058, "key_press": -1, "trial_index": 208}, "uniqueid": "MTK1932:3DYGAII7PMFVSEUV7H89Q2CVR6RQPM", "dateTime": 1516559334803}, {"current_trial": 209, "trialdata": {"rt": -1, "trial_type": "single-stim", "stimulus": "<p id=\"stim\">3</p>", "internal_node_id": "0.0-148.0-7.0", "time_elapsed": 1076059, "key_press": -1, "trial_index": 209}, "uniqueid": "MTK1932:3DYGAII7PMFVSEUV7H89Q2CVR6RQPM", "dateTime": 1516559335805}, {"current_trial": 210, "trialdata": {"rt": -1, "trial_type": "single-stim", "stimulus": "<p id=\"stim\">2</p>", "internal_node_id": "0.0-148.0-8.0", "time_elapsed": 1077062, "key_press": -1, "trial_index": 210}, "uniqueid": "MTK1932:3DYGAII7PMFVSEUV7H89Q2CVR6RQPM", "dateTime": 1516559336807}, {"current_trial": 211, "trialdata": {"rt": -1, "trial_type": "single-stim", "stimulus": "<p id=\"stim\">1</p>", "internal_node_id": "0.0-148.0-9.0", "time_elapsed": 1078064, "key_press": -1, "trial_index": 211}, "uniqueid": "MTK1932:3DYGAII7PMFVSEUV7H89Q2CVR6RQPM", "dateTime": 1516559337811}, {"current_trial": 212, "trialdata": {"rt": -1, "trial_type": "single-stim", "stimulus": "<p id=\"stim\">+</p>", "internal_node_id": "0.0-149.0-0.0", "time_elapsed": 1079568, "key_press": -1, "type": "FIXATION", "trial_index": 212}, "uniqueid": "MTK1932:3DYGAII7PMFVSEUV7H89Q2CVR6RQPM", "dateTime": 1516559339313}, {"current_trial": 213, "trialdata": {"rt": -1, "trial_type": "single-stim", "word": "mummy", "stimulus": "<p id=\"stim\">MUMMY</p>", "conditions": [12, 1600, "v", 24000], "internal_node_id": "0.0-150.0", "trial": 6, "time_elapsed": 1081170, "serialpos": 0, "key_press": -1, "wordID": 931, "type": "PRES_VIS", "trial_index": 213}, "uniqueid": "MTK1932:3DYGAII7PMFVSEUV7H89Q2CVR6RQPM", "dateTime": 1516559340915}, {"current_trial": 214, "trialdata": {"rt": -1, "trial_type": "single-stim", "word": "silk", "stimulus": "<p id=\"stim\">SILK</p>", "conditions": [12, 1600, "v", 24000], "internal_node_id": "0.0-151.0", "trial": 6, "time_elapsed": 1083666, "serialpos": 1, "key_press": -1, "wordID": 1306, "type": "PRES_VIS", "trial_index": 214}, "uniqueid": "MTK1932:3DYGAII7PMFVSEUV7H89Q2CVR6RQPM", "dateTime": 1516559343411}, {"current_trial": 215, "trialdata": {"rt": -1, "trial_type": "single-stim", "word": "couch", "stimulus": "<p id=\"stim\">COUCH</p>", "conditions": [12, 1600, "v", 24000], "internal_node_id": "0.0-152.0", "trial": 6, "time_elapsed": 1086328, "serialpos": 2, "key_press": -1, "wordID": 385, "type": "PRES_VIS", "trial_index": 215}, "uniqueid": "MTK1932:3DYGAII7PMFVSEUV7H89Q2CVR6RQPM", "dateTime": 1516559346073}, {"current_trial": 216, "trialdata": {"rt": -1, "trial_type": "single-stim", "word": "bug", "stimulus": "<p id=\"stim\">BUG</p>", "conditions": [12, 1600, "v", 24000], "internal_node_id": "0.0-153.0", "trial": 6, "time_elapsed": 1088975, "serialpos": 3, "key_press": -1, "wordID": 186, "type": "PRES_VIS", "trial_index": 216}, "uniqueid": "MTK1932:3DYGAII7PMFVSEUV7H89Q2CVR6RQPM", "dateTime": 1516559348720}, {"current_trial": 217, "trialdata": {"rt": -1, "trial_type": "single-stim", "word": "husband", "stimulus": "<p id=\"stim\">HUSBAND</p>", "conditions": [12, 1600, "v", 24000], "internal_node_id": "0.0-154.0", "trial": 6, "time_elapsed": 1091493, "serialpos": 4, "key_press": -1, "wordID": 727, "type": "PRES_VIS", "trial_index": 217}, "uniqueid": "MTK1932:3DYGAII7PMFVSEUV7H89Q2CVR6RQPM", "dateTime": 1516559351238}, {"current_trial": 218, "trialdata": {"rt": -1, "trial_type": "single-stim", "word": "sister", "stimulus": "<p id=\"stim\">SISTER</p>", "conditions": [12, 1600, "v", 24000], "internal_node_id": "0.0-155.0", "trial": 6, "time_elapsed": 1094001, "serialpos": 5, "key_press": -1, "wordID": 1311, "type": "PRES_VIS", "trial_index": 218}, "uniqueid": "MTK1932:3DYGAII7PMFVSEUV7H89Q2CVR6RQPM", "dateTime": 1516559353747}, {"current_trial": 219, "trialdata": {"rt": -1, "trial_type": "single-stim", "word": "juggler", "stimulus": "<p id=\"stim\">JUGGLER</p>", "conditions": [12, 1600, "v", 24000], "internal_node_id": "0.0-156.0", "trial": 6, "time_elapsed": 1096548, "serialpos": 6, "key_press": -1, "wordID": 762, "type": "PRES_VIS", "trial_index": 219}, "uniqueid": "MTK1932:3DYGAII7PMFVSEUV7H89Q2CVR6RQPM", "dateTime": 1516559356294}, {"current_trial": 220, "trialdata": {"rt": -1, "trial_type": "single-stim", "word": "guitar", "stimulus": "<p id=\"stim\">GUITAR</p>", "conditions": [12, 1600, "v", 24000], "internal_node_id": "0.0-157.0", "trial": 6, "time_elapsed": 1099093, "serialpos": 7, "key_press": -1, "wordID": 669, "type": "PRES_VIS", "trial_index": 220}, "uniqueid": "MTK1932:3DYGAII7PMFVSEUV7H89Q2CVR6RQPM", "dateTime": 1516559358839}, {"current_trial": 221, "trialdata": {"rt": -1, "trial_type": "single-stim", "word": "primate", "stimulus": "<p id=\"stim\">PRIMATE</p>", "conditions": [12, 1600, "v", 24000], "internal_node_id": "0.0-158.0", "trial": 6, "time_elapsed": 1101613, "serialpos": 8, "key_press": -1, "wordID": 1122, "type": "PRES_VIS", "trial_index": 221}, "uniqueid": "MTK1932:3DYGAII7PMFVSEUV7H89Q2CVR6RQPM", "dateTime": 1516559361358}, {"current_trial": 222, "trialdata": {"rt": -1, "trial_type": "single-stim", "word": "toaster", "stimulus": "<p id=\"stim\">TOASTER</p>", "conditions": [12, 1600, "v", 24000], "internal_node_id": "0.0-159.0", "trial": 6, "time_elapsed": 1104317, "serialpos": 9, "key_press": -1, "wordID": 1471, "type": "PRES_VIS", "trial_index": 222}, "uniqueid": "MTK1932:3DYGAII7PMFVSEUV7H89Q2CVR6RQPM", "dateTime": 1516559364062}, {"current_trial": 223, "trialdata": {"rt": -1, "trial_type": "single-stim", "word": "virus", "stimulus": "<p id=\"stim\">VIRUS</p>", "conditions": [12, 1600, "v", 24000], "internal_node_id": "0.0-160.0", "trial": 6, "time_elapsed": 1106792, "serialpos": 10, "key_press": -1, "wordID": 1571, "type": "PRES_VIS", "trial_index": 223}, "uniqueid": "MTK1932:3DYGAII7PMFVSEUV7H89Q2CVR6RQPM", "dateTime": 1516559366537}, {"current_trial": 224, "trialdata": {"rt": -1, "trial_type": "single-stim", "word": "critic", "stimulus": "<p id=\"stim\">CRITIC</p>", "conditions": [12, 1600, "v", 24000], "internal_node_id": "0.0-161.0", "trial": 6, "time_elapsed": 1109384, "serialpos": 11, "key_press": -1, "wordID": 409, "type": "PRES_VIS", "trial_index": 224}, "uniqueid": "MTK1932:3DYGAII7PMFVSEUV7H89Q2CVR6RQPM", "dateTime": 1516559369129}, {"current_trial": 225, "trialdata": {"rt": -1, "trial_type": "single-stim", "stimulus": "", "internal_node_id": "0.0-162.0-0.0", "time_elapsed": 1111895, "key_press": -1, "type": "PRE_RECALL_DELAY", "trial_index": 225}, "uniqueid": "MTK1932:3DYGAII7PMFVSEUV7H89Q2CVR6RQPM", "dateTime": 1516559371640}, {"current_trial": 226, "trialdata": {"rt": -1000, "trial_type": "single-audio", "stimulus": "/static/audio/400Hz.wav", "internal_node_id": "0.0-163.0", "time_elapsed": 1112397, "key_press": -1, "type": "PRE_RECALL_ALERT", "trial_index": 226}, "uniqueid": "MTK1932:3DYGAII7PMFVSEUV7H89Q2CVR6RQPM", "dateTime": 1516559372142}, {"current_trial": 227, "trialdata": {"rt": [3912, 5666, 10520, 11781, 18634, 22045, 30321], "recwords": ["critic", "virus", "sister", "husband", "mummy", "guitar", "juggler"], "key_times": [2431, 2759, 2891, 3115, 3175, 3376, 3912, 4170, 4252, 4401, 4500, 4840, 4949, 5299, 5432, 5566, 5666, 9708, 9788, 9918, 10128, 10287, 10377, 10520, 10816, 11085, 11167, 11326, 11416, 11535, 11656, 11781, 16244, 16532, 17022, 17259, 17488, 17639, 17867, 18634, 21232, 21332, 21411, 21663, 21802, 21893, 22045, 28394, 28603, 28732, 28892, 29031, 29091, 29689, 29828, 30037, 30118, 30188, 30321], "trial_type": "free-recall", "conditions": [12, 1600, "v", 24000], "internal_node_id": "0.0-164.0-0.0", "key_presses": [67, 82, 73, 84, 73, 67, 13, 86, 73, 67, 73, 8, 8, 82, 85, 83, 13, 83, 73, 83, 84, 69, 82, 13, 72, 85, 83, 66, 65, 78, 68, 13, 77, 79, 8, 85, 77, 77, 89, 13, 71, 85, 73, 84, 65, 82, 13, 74, 85, 71, 71, 69, 76, 8, 8, 76, 69, 82, 13], "trial": 6, "time_elapsed": 1172402, "type": "FREE_RECALL", "trial_index": 227}, "uniqueid": "MTK1932:3DYGAII7PMFVSEUV7H89Q2CVR6RQPM", "dateTime": 1516559432151}, {"current_trial": 228, "trialdata": {"rt": 1575, "trial_type": "text", "internal_node_id": "0.0-165.0", "time_elapsed": 1175983, "key_press": 72, "type": "INSTRUCTIONS", "trial_index": 228}, "uniqueid": "MTK1932:3DYGAII7PMFVSEUV7H89Q2CVR6RQPM", "dateTime": 1516559435728}, {"current_trial": 229, "trialdata": {"rt": [1964, 3642, 5922, 8190, 10375, 13503, 15444, 19050, 21894], "trial_type": "math-distractor", "key_times": [1755, 1806, 1964, 3455, 3642, 5492, 5922, 7761, 7969, 8190, 9975, 10124, 10375, 13084, 13295, 13503, 15116, 15295, 15444, 18703, 18851, 19050, 20723, 21329, 21608, 21894], "responses": ["21", "7", "6", "13", "14", "23", "14", "23", "6"], "num2": [7, 1, 2, 7, 4, 8, 7, 6, 3, 8], "num3": [7, 2, 3, 2, 2, 5, 6, 8, 1, 9], "conditions": [24, 800, "v", 24000], "internal_node_id": "0.0-166.0", "key_presses": [98, 97, 13, 103, 13, 102, 13, 97, 99, 13, 97, 100, 13, 98, 99, 13, 97, 100, 13, 98, 99, 13, 100, 8, 102, 13], "trial": 7, "time_elapsed": 1201989, "type": "DISTRACTOR", "trial_index": 229, "num1": [7, 4, 1, 4, 8, 9, 1, 9, 2, 8]}, "uniqueid": "MTK1932:3DYGAII7PMFVSEUV7H89Q2CVR6RQPM", "dateTime": 1516559461735}, {"current_trial": 230, "trialdata": {"rt": -1, "trial_type": "single-stim", "stimulus": "<p id=\"stim\">10</p>", "internal_node_id": "0.0-167.0-0.0", "time_elapsed": 1204993, "key_press": -1, "trial_index": 230}, "uniqueid": "MTK1932:3DYGAII7PMFVSEUV7H89Q2CVR6RQPM", "dateTime": 1516559464738}, {"current_trial": 231, "trialdata": {"rt": -1, "trial_type": "single-stim", "stimulus": "<p id=\"stim\">9</p>", "internal_node_id": "0.0-167.0-1.0", "time_elapsed": 1205995, "key_press": -1, "trial_index": 231}, "uniqueid": "MTK1932:3DYGAII7PMFVSEUV7H89Q2CVR6RQPM", "dateTime": 1516559465740}, {"current_trial": 232, "trialdata": {"rt": -1, "trial_type": "single-stim", "stimulus": "<p id=\"stim\">8</p>", "internal_node_id": "0.0-167.0-2.0", "time_elapsed": 1206997, "key_press": -1, "trial_index": 232}, "uniqueid": "MTK1932:3DYGAII7PMFVSEUV7H89Q2CVR6RQPM", "dateTime": 1516559466742}, {"current_trial": 233, "trialdata": {"rt": -1, "trial_type": "single-stim", "stimulus": "<p id=\"stim\">7</p>", "internal_node_id": "0.0-167.0-3.0", "time_elapsed": 1207999, "key_press": -1, "trial_index": 233}, "uniqueid": "MTK1932:3DYGAII7PMFVSEUV7H89Q2CVR6RQPM", "dateTime": 1516559467744}, {"current_trial": 234, "trialdata": {"rt": -1, "trial_type": "single-stim", "stimulus": "<p id=\"stim\">6</p>", "internal_node_id": "0.0-167.0-4.0", "time_elapsed": 1209001, "key_press": -1, "trial_index": 234}, "uniqueid": "MTK1932:3DYGAII7PMFVSEUV7H89Q2CVR6RQPM", "dateTime": 1516559468746}, {"current_trial": 235, "trialdata": {"rt": -1, "trial_type": "single-stim", "stimulus": "<p id=\"stim\">5</p>", "internal_node_id": "0.0-167.0-5.0", "time_elapsed": 1210003, "key_press": -1, "trial_index": 235}, "uniqueid": "MTK1932:3DYGAII7PMFVSEUV7H89Q2CVR6RQPM", "dateTime": 1516559469748}, {"current_trial": 236, "trialdata": {"rt": -1, "trial_type": "single-stim", "stimulus": "<p id=\"stim\">4</p>", "internal_node_id": "0.0-167.0-6.0", "time_elapsed": 1211005, "key_press": -1, "trial_index": 236}, "uniqueid": "MTK1932:3DYGAII7PMFVSEUV7H89Q2CVR6RQPM", "dateTime": 1516559470750}, {"current_trial": 237, "trialdata": {"rt": -1, "trial_type": "single-stim", "stimulus": "<p id=\"stim\">3</p>", "internal_node_id": "0.0-167.0-7.0", "time_elapsed": 1212007, "key_press": -1, "trial_index": 237}, "uniqueid": "MTK1932:3DYGAII7PMFVSEUV7H89Q2CVR6RQPM", "dateTime": 1516559471752}, {"current_trial": 238, "trialdata": {"rt": -1, "trial_type": "single-stim", "stimulus": "<p id=\"stim\">2</p>", "internal_node_id": "0.0-167.0-8.0", "time_elapsed": 1213009, "key_press": -1, "trial_index": 238}, "uniqueid": "MTK1932:3DYGAII7PMFVSEUV7H89Q2CVR6RQPM", "dateTime": 1516559472754}, {"current_trial": 239, "trialdata": {"rt": -1, "trial_type": "single-stim", "stimulus": "<p id=\"stim\">1</p>", "internal_node_id": "0.0-167.0-9.0", "time_elapsed": 1214011, "key_press": -1, "trial_index": 239}, "uniqueid": "MTK1932:3DYGAII7PMFVSEUV7H89Q2CVR6RQPM", "dateTime": 1516559473756}, {"current_trial": 240, "trialdata": {"rt": -1, "trial_type": "single-stim", "stimulus": "<p id=\"stim\">+</p>", "internal_node_id": "0.0-168.0-0.0", "time_elapsed": 1215513, "key_press": -1, "type": "FIXATION", "trial_index": 240}, "uniqueid": "MTK1932:3DYGAII7PMFVSEUV7H89Q2CVR6RQPM", "dateTime": 1516559475258}, {"current_trial": 241, "trialdata": {"rt": -1, "trial_type": "single-stim", "word": "fox", "stimulus": "<p id=\"stim\">FOX</p>", "conditions": [24, 800, "v", 24000], "internal_node_id": "0.0-169.0", "trial": 7, "time_elapsed": 1216316, "serialpos": 0, "key_press": -1, "wordID": 597, "type": "PRES_VIS", "trial_index": 241}, "uniqueid": "MTK1932:3DYGAII7PMFVSEUV7H89Q2CVR6RQPM", "dateTime": 1516559476061}, {"current_trial": 242, "trialdata": {"rt": -1, "trial_type": "single-stim", "word": "fruit", "stimulus": "<p id=\"stim\">FRUIT</p>", "conditions": [24, 800, "v", 24000], "internal_node_id": "0.0-170.0", "trial": 7, "time_elapsed": 1217964, "serialpos": 1, "key_press": -1, "wordID": 609, "type": "PRES_VIS", "trial_index": 242}, "uniqueid": "MTK1932:3DYGAII7PMFVSEUV7H89Q2CVR6RQPM", "dateTime": 1516559477709}, {"current_trial": 243, "trialdata": {"rt": -1, "trial_type": "single-stim", "word": "flask", "stimulus": "<p id=\"stim\">FLASK</p>", "conditions": [24, 800, "v", 24000], "internal_node_id": "0.0-171.0", "trial": 7, "time_elapsed": 1219964, "serialpos": 2, "key_press": -1, "wordID": 575, "type": "PRES_VIS", "trial_index": 243}, "uniqueid": "MTK1932:3DYGAII7PMFVSEUV7H89Q2CVR6RQPM", "dateTime": 1516559479710}, {"current_trial": 244, "trialdata": {"rt": -1, "trial_type": "single-stim", "word": "passage", "stimulus": "<p id=\"stim\">PASSAGE</p>", "conditions": [24, 800, "v", 24000], "internal_node_id": "0.0-172.0", "trial": 7, "time_elapsed": 1221567, "serialpos": 3, "key_press": -1, "wordID": 1018, "type": "PRES_VIS", "trial_index": 244}, "uniqueid": "MTK1932:3DYGAII7PMFVSEUV7H89Q2CVR6RQPM", "dateTime": 1516559481313}, {"current_trial": 245, "trialdata": {"rt": -1, "trial_type": "single-stim", "word": "novel", "stimulus": "<p id=\"stim\">NOVEL</p>", "conditions": [24, 800, "v", 24000], "internal_node_id": "0.0-173.0", "trial": 7, "time_elapsed": 1223385, "serialpos": 4, "key_press": -1, "wordID": 959, "type": "PRES_VIS", "trial_index": 245}, "uniqueid": "MTK1932:3DYGAII7PMFVSEUV7H89Q2CVR6RQPM", "dateTime": 1516559483131}, {"cu