{"assignmentId": "3ON104KXQL3ENI4YL6FRFTJMMT5W4W", "workerId": "MTK1388", "questiondata": {"origin": "United States", "strat-rehearsal": "43", "marital": "Married/Domestic Partnership", "education": "Associate degree", "ethnicity": "Not Hispanic", "color_depth": 24, "distracted": "No", "wrote-notes": "Yes", "strat-other": "", "screen_width": 1280, "avail_screen_width": 1276, "avail_screen_height": 777, "strat-image": "86", "language": "english", "gender": "Male", "age": "33", "gender_other": "", "race": ["White"], "strat-categorize": "75", "pixel_depth": 24, "strat-spatial": "43", "strat-story": "82", "race_other": "", "screen_height": 800}, "bonus": 0, "hitId": "30ZKOOGW2WDY1M6I7HVVAMJ81QOA1Q", "counterbalance": 1683, "useragent": "Mozilla/5.0 (Macintosh; Intel Mac OS X 10_11_0) AppleWebKit/537.36 (KHTML, like Gecko) Chrome/63.0.3239.132 Safari/537.36", "eventdata": [{"eventtype": "initialized", "interval": 0, "value": null, "timestamp": 1515871334591}, {"eventtype": "window_resize", "interval": 0, "value": [1276, 726], "timestamp": 1515871334591}], "data": [{"current_trial": 0, "trialdata": {"rt": 1452, "trial_type": "text", "internal_node_id": "0.0-0.0", "time_elapsed": 1455, "key_press": 13, "type": "INSTRUCTIONS", "trial_index": 0}, "uniqueid": "MTK1388:3ON104KXQL3ENI4YL6FRFTJMMT5W4W", "dateTime": 1515871336557}, {"current_trial": 1, "trialdata": {"rt": 23107, "trial_type": "text", "internal_node_id": "0.0-1.0", "time_elapsed": 24565, "key_press": 13, "type": "INSTRUCTIONS", "trial_index": 1}, "uniqueid": "MTK1388:3ON104KXQL3ENI4YL6FRFTJMMT5W4W", "dateTime": 1515871359666}, {"current_trial": 2, "trialdata": {"rt": [13781], "trial_type": "audio-test", "responses": ["ocean"], "internal_node_id": "0.0-2.0", "time_elapsed": 38360, "type": "AUDIO_TEST", "trial_index": 2}, "uniqueid": "MTK1388:3ON104KXQL3ENI4YL6FRFTJMMT5W4W", "dateTime": 1515871373461}, {"current_trial": 3, "trialdata": {"rt": [7878], "trial_type": "audio-test", "responses": ["crystal"], "internal_node_id": "0.0-3.0", "time_elapsed": 46245, "type": "AUDIO_TEST", "trial_index": 3}, "uniqueid": "MTK1388:3ON104KXQL3ENI4YL6FRFTJMMT5W4W", "dateTime": 1515871381347}, {"current_trial": 4, "trialdata": {"rt": [7025], "trial_type": "audio-test", "responses": ["spice"], "internal_node_id": "0.0-4.0", "time_elapsed": 53277, "type": "AUDIO_TEST", "trial_index": 4}, "uniqueid": "MTK1388:3ON104KXQL3ENI4YL6FRFTJMMT5W4W", "dateTime": 1515871388378}, {"current_trial": 5, "trialdata": {"rt": 34151, "trial_type": "survey-text", "responses": "{\"Q0\":\"12:00 midnight\",\"Q1\":\"9:00 am\",\"Q2\":\"3\"}", "internal_node_id": "0.0-5.0", "time_elapsed": 88187, "type": "SLEEP_SURVEY", "trial_index": 5}, "uniqueid": "MTK1388:3ON104KXQL3ENI4YL6FRFTJMMT5W4W", "dateTime": 1515871423289}, {"current_trial": 6, "trialdata": {"rt": 72326, "trial_type": "text", "internal_node_id": "0.0-6.0", "time_elapsed": 161520, "key_press": 13, "type": "INSTRUCTIONS", "trial_index": 6}, "uniqueid": "MTK1388:3ON104KXQL3ENI4YL6FRFTJMMT5W4W", "dateTime": 1515871496621}, {"current_trial": 7, "trialdata": {"rt": 24514, "trial_type": "text", "internal_node_id": "0.0-7.0", "time_elapsed": 186535, "key_press": 13, "type": "INSTRUCTIONS", "trial_index": 7}, "uniqueid": "MTK1388:3ON104KXQL3ENI4YL6FRFTJMMT5W4W", "dateTime": 1515871521637}, {"current_trial": 8, "trialdata": {"rt": 9923, "trial_type": "text", "internal_node_id": "0.0-8.0", "time_elapsed": 196959, "key_press": 13, "type": "INSTRUCTIONS", "trial_index": 8}, "uniqueid": "MTK1388:3ON104KXQL3ENI4YL6FRFTJMMT5W4W", "dateTime": 1515871532061}, {"current_trial": 9, "trialdata": {"rt": [5884, 14079, 17399], "trial_type": "math-distractor", "key_times": [4365, 5084, 5884, 13056, 13415, 14079, 16727, 17399], "responses": ["16", "24", "9"], "num2": [9, 7, 3, 8], "num3": [6, 9, 2, 6], "conditions": [18, 1200, "v", 18000], "internal_node_id": "0.0-9.0", "key_presses": [49, 54, 13, 50, 52, 13, 57, 13], "trial": 0, "time_elapsed": 215977, "type": "DISTRACTOR", "trial_index": 9, "num1": [1, 8, 4, 8]}, "uniqueid": "MTK1388:3ON104KXQL3ENI4YL6FRFTJMMT5W4W", "dateTime": 1515871551078}, {"current_trial": 10, "trialdata": {"rt": -1, "trial_type": "single-stim", "stimulus": "<p id=\"stim\">10</p>", "internal_node_id": "0.0-10.0-0.0", "time_elapsed": 218988, "key_press": -1, "trial_index": 10}, "uniqueid": "MTK1388:3ON104KXQL3ENI4YL6FRFTJMMT5W4W", "dateTime": 1515871554089}, {"current_trial": 11, "trialdata": {"rt": -1, "trial_type": "single-stim", "stimulus": "<p id=\"stim\">9</p>", "internal_node_id": "0.0-10.0-1.0", "time_elapsed": 219992, "key_press": -1, "trial_index": 11}, "uniqueid": "MTK1388:3ON104KXQL3ENI4YL6FRFTJMMT5W4W", "dateTime": 1515871555093}, {"current_trial": 12, "trialdata": {"rt": -1, "trial_type": "single-stim", "stimulus": "<p id=\"stim\">8</p>", "internal_node_id": "0.0-10.0-2.0", "time_elapsed": 220996, "key_press": -1, "trial_index": 12}, "uniqueid": "MTK1388:3ON104KXQL3ENI4YL6FRFTJMMT5W4W", "dateTime": 1515871556097}, {"current_trial": 13, "trialdata": {"rt": -1, "trial_type": "single-stim", "stimulus": "<p id=\"stim\">7</p>", "internal_node_id": "0.0-10.0-3.0", "time_elapsed": 222000, "key_press": -1, "trial_index": 13}, "uniqueid": "MTK1388:3ON104KXQL3ENI4YL6FRFTJMMT5W4W", "dateTime": 1515871557101}, {"current_trial": 14, "trialdata": {"rt": -1, "trial_type": "single-stim", "stimulus": "<p id=\"stim\">6</p>", "internal_node_id": "0.0-10.0-4.0", "time_elapsed": 223004, "key_press": -1, "trial_index": 14}, "uniqueid": "MTK1388:3ON104KXQL3ENI4YL6FRFTJMMT5W4W", "dateTime": 1515871558105}, {"current_trial": 15, "trialdata": {"rt": -1, "trial_type": "single-stim", "stimulus": "<p id=\"stim\">5</p>", "internal_node_id": "0.0-10.0-5.0", "time_elapsed": 224008, "key_press": -1, "trial_index": 15}, "uniqueid": "MTK1388:3ON104KXQL3ENI4YL6FRFTJMMT5W4W", "dateTime": 1515871559109}, {"current_trial": 16, "trialdata": {"rt": -1, "trial_type": "single-stim", "stimulus": "<p id=\"stim\">4</p>", "internal_node_id": "0.0-10.0-6.0", "time_elapsed": 225012, "key_press": -1, "trial_index": 16}, "uniqueid": "MTK1388:3ON104KXQL3ENI4YL6FRFTJMMT5W4W", "dateTime": 1515871560113}, {"current_trial": 17, "trialdata": {"rt": -1, "trial_type": "single-stim", "stimulus": "<p id=\"stim\">3</p>", "internal_node_id": "0.0-10.0-7.0", "time_elapsed": 226017, "key_press": -1, "trial_index": 17}, "uniqueid": "MTK1388:3ON104KXQL3ENI4YL6FRFTJMMT5W4W", "dateTime": 1515871561118}, {"current_trial": 18, "trialdata": {"rt": -1, "trial_type": "single-stim", "stimulus": "<p id=\"stim\">2</p>", "internal_node_id": "0.0-10.0-8.0", "time_elapsed": 227020, "key_press": -1, "trial_index": 18}, "uniqueid": "MTK1388:3ON104KXQL3ENI4YL6FRFTJMMT5W4W", "dateTime": 1515871562121}, {"current_trial": 19, "trialdata": {"rt": -1, "trial_type": "single-stim", "stimulus": "<p id=\"stim\">1</p>", "internal_node_id": "0.0-10.0-9.0", "time_elapsed": 228024, "key_press": -1, "trial_index": 19}, "uniqueid": "MTK1388:3ON104KXQL3ENI4YL6FRFTJMMT5W4W", "dateTime": 1515871563126}, {"current_trial": 20, "trialdata": {"rt": -1, "trial_type": "single-stim", "stimulus": "<p id=\"stim\">+</p>", "internal_node_id": "0.0-11.0-0.0", "time_elapsed": 229527, "key_press": -1, "type": "FIXATION", "trial_index": 20}, "uniqueid": "MTK1388:3ON104KXQL3ENI4YL6FRFTJMMT5W4W", "dateTime": 1515871564628}, {"current_trial": 21, "trialdata": {"rt": -1, "trial_type": "single-stim", "word": "salad", "stimulus": "<p id=\"stim\">SALAD</p>", "conditions": [18, 1200, "v", 18000], "internal_node_id": "0.0-12.0", "trial": 0, "time_elapsed": 230733, "serialpos": 0, "key_press": -1, "wordID": 1223, "type": "PRES_VIS", "trial_index": 21}, "uniqueid": "MTK1388:3ON104KXQL3ENI4YL6FRFTJMMT5W4W", "dateTime": 1515871565834}, {"current_trial": 22, "trialdata": {"rt": -1, "trial_type": "single-stim", "word": "mailbox", "stimulus": "<p id=\"stim\">MAILBOX</p>", "conditions": [18, 1200, "v", 18000], "internal_node_id": "0.0-13.0", "trial": 0, "time_elapsed": 232888, "serialpos": 1, "key_press": -1, "wordID": 856, "type": "PRES_VIS", "trial_index": 22}, "uniqueid": "MTK1388:3ON104KXQL3ENI4YL6FRFTJMMT5W4W", "dateTime": 1515871567989}, {"current_trial": 23, "trialdata": {"rt": -1, "trial_type": "single-stim", "word": "hand", "stimulus": "<p id=\"stim\">HAND</p>", "conditions": [18, 1200, "v", 18000], "internal_node_id": "0.0-14.0", "trial": 0, "time_elapsed": 235291, "serialpos": 2, "key_press": -1, "wordID": 682, "type": "PRES_VIS", "trial_index": 23}, "uniqueid": "MTK1388:3ON104KXQL3ENI4YL6FRFTJMMT5W4W", "dateTime": 1515871570392}, {"current_trial": 24, "trialdata": {"rt": -1, "trial_type": "single-stim", "word": "banker", "stimulus": "<p id=\"stim\">BANKER</p>", "conditions": [18, 1200, "v", 18000], "internal_node_id": "0.0-15.0", "trial": 0, "time_elapsed": 237386, "serialpos": 3, "key_press": -1, "wordID": 83, "type": "PRES_VIS", "trial_index": 24}, "uniqueid": "MTK1388:3ON104KXQL3ENI4YL6FRFTJMMT5W4W", "dateTime": 1515871572487}, {"current_trial": 25, "trialdata": {"rt": -1, "trial_type": "single-stim", "word": "staple", "stimulus": "<p id=\"stim\">STAPLE</p>", "conditions": [18, 1200, "v", 18000], "internal_node_id": "0.0-16.0", "trial": 0, "time_elapsed": 239677, "serialpos": 4, "key_press": -1, "wordID": 1370, "type": "PRES_VIS", "trial_index": 25}, "uniqueid": "MTK1388:3ON104KXQL3ENI4YL6FRFTJMMT5W4W", "dateTime": 1515871574778}, {"current_trial": 26, "trialdata": {"rt": -1, "trial_type": "single-stim", "word": "paper", "stimulus": "<p id=\"stim\">PAPER</p>", "conditions": [18, 1200, "v", 18000], "internal_node_id": "0.0-17.0", "trial": 0, "time_elapsed": 241959, "serialpos": 5, "key_press": -1, "wordID": 1010, "type": "PRES_VIS", "trial_index": 26}, "uniqueid": "MTK1388:3ON104KXQL3ENI4YL6FRFTJMMT5W4W", "dateTime": 1515871577061}, {"current_trial": 27, "trialdata": {"rt": -1, "trial_type": "single-stim", "word": "necklace", "stimulus": "<p id=\"stim\">NECKLACE</p>", "conditions": [18, 1200, "v", 18000], "internal_node_id": "0.0-18.0", "trial": 0, "time_elapsed": 244316, "serialpos": 6, "key_press": -1, "wordID": 939, "type": "PRES_VIS", "trial_index": 27}, "uniqueid": "MTK1388:3ON104KXQL3ENI4YL6FRFTJMMT5W4W", "dateTime": 1515871579417}, {"current_trial": 28, "trialdata": {"rt": -1, "trial_type": "single-stim", "word": "rifle", "stimulus": "<p id=\"stim\">RIFLE</p>", "conditions": [18, 1200, "v", 18000], "internal_node_id": "0.0-19.0", "trial": 0, "time_elapsed": 246533, "serialpos": 7, "key_press": -1, "wordID": 1191, "type": "PRES_VIS", "trial_index": 28}, "uniqueid": "MTK1388:3ON104KXQL3ENI4YL6FRFTJMMT5W4W", "dateTime": 1515871581634}, {"current_trial": 29, "trialdata": {"rt": -1, "trial_type": "single-stim", "word": "fox", "stimulus": "<p id=\"stim\">FOX</p>", "conditions": [18, 1200, "v", 18000], "internal_node_id": "0.0-20.0", "trial": 0, "time_elapsed": 248790, "serialpos": 8, "key_press": -1, "wordID": 597, "type": "PRES_VIS", "trial_index": 29}, "uniqueid": "MTK1388:3ON104KXQL3ENI4YL6FRFTJMMT5W4W", "dateTime": 1515871583892}, {"current_trial": 30, "trialdata": {"rt": -1, "trial_type": "single-stim", "word": "fireman", "stimulus": "<p id=\"stim\">FIREMAN</p>", "conditions": [18, 1200, "v", 18000], "internal_node_id": "0.0-21.0", "trial": 0, "time_elapsed": 250991, "serialpos": 9, "key_press": -1, "wordID": 568, "type": "PRES_VIS", "trial_index": 30}, "uniqueid": "MTK1388:3ON104KXQL3ENI4YL6FRFTJMMT5W4W", "dateTime": 1515871586092}, {"current_trial": 31, "trialdata": {"rt": -1, "trial_type": "single-stim", "word": "plaza", "stimulus": "<p id=\"stim\">PLAZA</p>", "conditions": [18, 1200, "v", 18000], "internal_node_id": "0.0-22.0", "trial": 0, "time_elapsed": 253266, "serialpos": 10, "key_press": -1, "wordID": 1087, "type": "PRES_VIS", "trial_index": 31}, "uniqueid": "MTK1388:3ON104KXQL3ENI4YL6FRFTJMMT5W4W", "dateTime": 1515871588367}, {"current_trial": 32, "trialdata": {"rt": -1, "trial_type": "single-stim", "word": "sponge", "stimulus": "<p id=\"stim\">SPONGE</p>", "conditions": [18, 1200, "v", 18000], "internal_node_id": "0.0-23.0", "trial": 0, "time_elapsed": 255489, "serialpos": 11, "key_press": -1, "wordID": 1354, "type": "PRES_VIS", "trial_index": 32}, "uniqueid": "MTK1388:3ON104KXQL3ENI4YL6FRFTJMMT5W4W", "dateTime": 1515871590590}, {"current_trial": 33, "trialdata": {"rt": -1, "trial_type": "single-stim", "word": "dancer", "stimulus": "<p id=\"stim\">DANCER</p>", "conditions": [18, 1200, "v", 18000], "internal_node_id": "0.0-24.0", "trial": 0, "time_elapsed": 257624, "serialpos": 12, "key_press": -1, "wordID": 436, "type": "PRES_VIS", "trial_index": 33}, "uniqueid": "MTK1388:3ON104KXQL3ENI4YL6FRFTJMMT5W4W", "dateTime": 1515871592725}, {"current_trial": 34, "trialdata": {"rt": -1, "trial_type": "single-stim", "word": "chest", "stimulus": "<p id=\"stim\">CHEST</p>", "conditions": [18, 1200, "v", 18000], "internal_node_id": "0.0-25.0", "trial": 0, "time_elapsed": 259655, "serialpos": 13, "key_press": -1, "wordID": 294, "type": "PRES_VIS", "trial_index": 34}, "uniqueid": "MTK1388:3ON104KXQL3ENI4YL6FRFTJMMT5W4W", "dateTime": 1515871594756}, {"current_trial": 35, "trialdata": {"rt": -1, "trial_type": "single-stim", "word": "lunch", "stimulus": "<p id=\"stim\">LUNCH</p>", "conditions": [18, 1200, "v", 18000], "internal_node_id": "0.0-26.0", "trial": 0, "time_elapsed": 262030, "serialpos": 14, "key_press": -1, "wordID": 848, "type": "PRES_VIS", "trial_index": 35}, "uniqueid": "MTK1388:3ON104KXQL3ENI4YL6FRFTJMMT5W4W", "dateTime": 1515871597131}, {"current_trial": 36, "trialdata": {"rt": -1, "trial_type": "single-stim", "word": "gymnast", "stimulus": "<p id=\"stim\">GYMNAST</p>", "conditions": [18, 1200, "v", 18000], "internal_node_id": "0.0-27.0", "trial": 0, "time_elapsed": 264282, "serialpos": 15, "key_press": -1, "wordID": 674, "type": "PRES_VIS", "trial_index": 36}, "uniqueid": "MTK1388:3ON104KXQL3ENI4YL6FRFTJMMT5W4W", "dateTime": 1515871599383}, {"current_trial": 37, "trialdata": {"rt": -1, "trial_type": "single-stim", "word": "custard", "stimulus": "<p id=\"stim\">CUSTARD</p>", "conditions": [18, 1200, "v", 18000], "internal_node_id": "0.0-28.0", "trial": 0, "time_elapsed": 266440, "serialpos": 16, "key_press": -1, "wordID": 428, "type": "PRES_VIS", "trial_index": 37}, "uniqueid": "MTK1388:3ON104KXQL3ENI4YL6FRFTJMMT5W4W", "dateTime": 1515871601541}, {"current_trial": 38, "trialdata": {"rt": -1, "trial_type": "single-stim", "word": "supper", "stimulus": "<p id=\"stim\">SUPPER</p>", "conditions": [18, 1200, "v", 18000], "internal_node_id": "0.0-29.0", "trial": 0, "time_elapsed": 268460, "serialpos": 17, "key_press": -1, "wordID": 1410, "type": "PRES_VIS", "trial_index": 38}, "uniqueid": "MTK1388:3ON104KXQL3ENI4YL6FRFTJMMT5W4W", "dateTime": 1515871603562}, {"current_trial": 39, "trialdata": {"rt": -1, "trial_type": "single-stim", "stimulus": "", "internal_node_id": "0.0-30.0-0.0", "time_elapsed": 270828, "key_press": -1, "type": "PRE_RECALL_DELAY", "trial_index": 39}, "uniqueid": "MTK1388:3ON104KXQL3ENI4YL6FRFTJMMT5W4W", "dateTime": 1515871605929}, {"current_trial": 40, "trialdata": {"rt": -1000, "trial_type": "single-audio", "stimulus": "/static/audio/400Hz.wav", "internal_node_id": "0.0-31.0", "time_elapsed": 271332, "key_press": -1, "type": "PRE_RECALL_ALERT", "trial_index": 40}, "uniqueid": "MTK1388:3ON104KXQL3ENI4YL6FRFTJMMT5W4W", "dateTime": 1515871606433}, {"current_trial": 41, "trialdata": {"rt": [4064, 6937, 10576, 15936, 21648, 24632, 29312, 32048, 36337, 38184, 50474, 52626], "recwords": ["supper", "salad", "sniper", "mailbox", "necklace", "banker", "riffle", "custard", "dancer", "lunch", "fireman", "plaza"], "key_times": [1794, 2505, 2961, 3136, 3465, 3545, 4064, 5321, 5480, 5857, 6177, 6361, 6937, 7897, 8432, 8649, 9529, 9985, 10120, 10576, 11713, 12834, 13161, 13433, 14681, 14849, 15593, 15936, 18145, 18529, 19128, 19664, 19888, 20513, 20944, 21161, 21648, 22449, 22842, 23417, 23648, 24064, 24177, 24632, 27001, 27561, 27880, 28016, 28449, 28681, 29312, 29817, 30289, 30673, 30921, 31200, 31425, 31592, 32048, 34073, 34288, 34937, 35278, 35632, 35761, 36337, 36921, 37161, 37384, 37752, 37888, 38184, 47419, 47882, 48210, 48378, 48914, 49410, 49938, 50474, 50882, 51090, 51634, 51858, 52058, 52626], "trial_type": "free-recall", "conditions": [18, 1200, "v", 18000], "internal_node_id": "0.0-32.0-0.0", "key_presses": [83, 85, 80, 80, 69, 82, 13, 83, 65, 76, 65, 68, 13, 83, 78, 73, 80, 69, 82, 13, 77, 65, 73, 76, 66, 79, 88, 13, 78, 69, 67, 75, 76, 65, 67, 69, 13, 66, 65, 78, 75, 69, 82, 13, 82, 73, 70, 70, 76, 69, 13, 67, 85, 83, 84, 65, 82, 68, 13, 68, 65, 78, 67, 69, 82, 13, 76, 85, 78, 67, 72, 13, 70, 73, 82, 69, 77, 65, 78, 13, 80, 76, 65, 90, 65, 13], "trial": 0, "time_elapsed": 331339, "type": "FREE_RECALL", "trial_index": 41}, "uniqueid": "MTK1388:3ON104KXQL3ENI4YL6FRFTJMMT5W4W", "dateTime": 1515871666442}, {"current_trial": 42, "trialdata": {"rt": 1711, "trial_type": "text", "internal_node_id": "0.0-33.0", "time_elapsed": 335058, "key_press": 13, "type": "INSTRUCTIONS", "trial_index": 42}, "uniqueid": "MTK1388:3ON104KXQL3ENI4YL6FRFTJMMT5W4W", "dateTime": 1515871670159}, {"current_trial": 43, "trialdata": {"rt": [4896, 9064, 12176, 15416], "trial_type": "math-distractor", "key_times": [3609, 4408, 4896, 7897, 8537, 9064, 11424, 11792, 12176, 14504, 14944, 15416, 17537, 17920], "responses": ["10", "14", "10", "17"], "num2": [3, 3, 4, 5, 6], "num3": [6, 5, 4, 4, 1], "conditions": [18, 1200, "v", 18000], "internal_node_id": "0.0-34.0", "key_presses": [49, 48, 13, 49, 52, 13, 49, 48, 13, 49, 55, 13, 49, 52], "trial": 1, "time_elapsed": 355066, "type": "DISTRACTOR", "trial_index": 43, "num1": [1, 6, 2, 8, 7]}, "uniqueid": "MTK1388:3ON104KXQL3ENI4YL6FRFTJMMT5W4W", "dateTime": 1515871690167}, {"current_trial": 44, "trialdata": {"rt": -1, "trial_type": "single-stim", "stimulus": "<p id=\"stim\">10</p>", "internal_node_id": "0.0-35.0-0.0", "time_elapsed": 358073, "key_press": -1, "trial_index": 44}, "uniqueid": "MTK1388:3ON104KXQL3ENI4YL6FRFTJMMT5W4W", "dateTime": 1515871693174}, {"current_trial": 45, "trialdata": {"rt": -1, "trial_type": "single-stim", "stimulus": "<p id=\"stim\">9</p>", "internal_node_id": "0.0-35.0-1.0", "time_elapsed": 359077, "key_press": -1, "trial_index": 45}, "uniqueid": "MTK1388:3ON104KXQL3ENI4YL6FRFTJMMT5W4W", "dateTime": 1515871694179}, {"current_trial": 46, "trialdata": {"rt": -1, "trial_type": "single-stim", "stimulus": "<p id=\"stim\">8</p>", "internal_node_id": "0.0-35.0-2.0", "time_elapsed": 360081, "key_press": -1, "trial_index": 46}, "uniqueid": "MTK1388:3ON104KXQL3ENI4YL6FRFTJMMT5W4W", "dateTime": 1515871695182}, {"current_trial": 47, "trialdata": {"rt": -1, "trial_type": "single-stim", "stimulus": "<p id=\"stim\">7</p>", "internal_node_id": "0.0-35.0-3.0", "time_elapsed": 361085, "key_press": -1, "trial_index": 47}, "uniqueid": "MTK1388:3ON104KXQL3ENI4YL6FRFTJMMT5W4W", "dateTime": 1515871696186}, {"current_trial": 48, "trialdata": {"rt": -1, "trial_type": "single-stim", "stimulus": "<p id=\"stim\">6</p>", "internal_node_id": "0.0-35.0-4.0", "time_elapsed": 362089, "key_press": -1, "trial_index": 48}, "uniqueid": "MTK1388:3ON104KXQL3ENI4YL6FRFTJMMT5W4W", "dateTime": 1515871697190}, {"current_trial": 49, "trialdata": {"rt": -1, "trial_type": "single-stim", "stimulus": "<p id=\"stim\">5</p>", "internal_node_id": "0.0-35.0-5.0", "time_elapsed": 363093, "key_press": -1, "trial_index": 49}, "uniqueid": "MTK1388:3ON104KXQL3ENI4YL6FRFTJMMT5W4W", "dateTime": 1515871698194}, {"current_trial": 50, "trialdata": {"rt": -1, "trial_type": "single-stim", "stimulus": "<p id=\"stim\">4</p>", "internal_node_id": "0.0-35.0-6.0", "time_elapsed": 364097, "key_press": -1, "trial_index": 50}, "uniqueid": "MTK1388:3ON104KXQL3ENI4YL6FRFTJMMT5W4W", "dateTime": 1515871699199}, {"current_trial": 51, "trialdata": {"rt": -1, "trial_type": "single-stim", "stimulus": "<p id=\"stim\">3</p>", "internal_node_id": "0.0-35.0-7.0", "time_elapsed": 365101, "key_press": -1, "trial_index": 51}, "uniqueid": "MTK1388:3ON104KXQL3ENI4YL6FRFTJMMT5W4W", "dateTime": 1515871700203}, {"current_trial": 52, "trialdata": {"rt": -1, "trial_type": "single-stim", "stimulus": "<p id=\"stim\">2</p>", "internal_node_id": "0.0-35.0-8.0", "time_elapsed": 366106, "key_press": -1, "trial_index": 52}, "uniqueid": "MTK1388:3ON104KXQL3ENI4YL6FRFTJMMT5W4W", "dateTime": 1515871701207}, {"current_trial": 53, "trialdata": {"rt": -1, "trial_type": "single-stim", "stimulus": "<p id=\"stim\">1</p>", "internal_node_id": "0.0-35.0-9.0", "time_elapsed": 367109, "key_press": -1, "trial_index": 53}, "uniqueid": "MTK1388:3ON104KXQL3ENI4YL6FRFTJMMT5W4W", "dateTime": 1515871702211}, {"current_trial": 54, "trialdata": {"rt": -1, "trial_type": "single-stim", "stimulus": "<p id=\"stim\">+</p>", "internal_node_id": "0.0-36.0-0.0", "time_elapsed": 368613, "key_press": -1, "type": "FIXATION", "trial_index": 54}, "uniqueid": "MTK1388:3ON104KXQL3ENI4YL6FRFTJMMT5W4W", "dateTime": 1515871703714}, {"current_trial": 55, "trialdata": {"rt": -1, "trial_type": "single-stim", "word": "beaker", "stimulus": "<p id=\"stim\">BEAKER</p>", "conditions": [18, 1200, "v", 18000], "internal_node_id": "0.0-37.0", "trial": 1, "time_elapsed": 369814, "serialpos": 0, "key_press": -1, "wordID": 103, "type": "PRES_VIS", "trial_index": 55}, "uniqueid": "MTK1388:3ON104KXQL3ENI4YL6FRFTJMMT5W4W", "dateTime": 1515871704915}, {"current_trial": 56, "trialdata": {"rt": -1, "trial_type": "single-stim", "word": "patient", "stimulus": "<p id=\"stim\">PATIENT</p>", "conditions": [18, 1200, "v", 18000], "internal_node_id": "0.0-38.0", "trial": 1, "time_elapsed": 371875, "serialpos": 1, "key_press": -1, "wordID": 1023, "type": "PRES_VIS", "trial_index": 56}, "uniqueid": "MTK1388:3ON104KXQL3ENI4YL6FRFTJMMT5W4W", "dateTime": 1515871706976}, {"current_trial": 57, "trialdata": {"rt": -1, "trial_type": "single-stim", "word": "panther", "stimulus": "<p id=\"stim\">PANTHER</p>", "conditions": [18, 1200, "v", 18000], "internal_node_id": "0.0-39.0", "trial": 1, "time_elapsed": 374121, "serialpos": 2, "key_press": -1, "wordID": 1008, "type": "PRES_VIS", "trial_index": 57}, "uniqueid": "MTK1388:3ON104KXQL3ENI4YL6FRFTJMMT5W4W", "dateTime": 1515871709222}, {"current_trial": 58, "trialdata": {"rt": -1, "trial_type": "single-stim", "word": "scarecrow", "stimulus": "<p id=\"stim\">SCARECROW</p>", "conditions": [18, 1200, "v", 18000], "internal_node_id": "0.0-40.0", "trial": 1, "time_elapsed": 376344, "serialpos": 3, "key_press": -1, "wordID": 1244, "type": "PRES_VIS", "trial_index": 58}, "uniqueid": "MTK1388:3ON104KXQL3ENI4YL6FRFTJMMT5W4W", "dateTime": 1515871711445}, {"current_trial": 59, "trialdata": {"rt": -1, "trial_type": "single-stim", "word": "college", "stimulus": "<p id=\"stim\">COLLEGE</p>", "conditions": [18, 1200, "v", 18000], "internal_node_id": "0.0-41.0", "trial": 1, "time_elapsed": 378439, "serialpos": 4, "key_press": -1, "wordID": 345, "type": "PRES_VIS", "trial_index": 59}, "uniqueid": "MTK1388:3ON104KXQL3ENI4YL6FRFTJMMT5W4W", "dateTime": 1515871713540}, {"current_trial": 60, "trialdata": {"rt": -1, "trial_type": "single-stim", "word": "mildew", "stimulus": "<p id=\"stim\">MILDEW</p>", "conditions": [18, 1200, "v", 18000], "internal_node_id": "0.0-42.0", "trial": 1, "time_elapsed": 380633, "serialpos": 5, "key_press": -1, "wordID": 892, "type": "PRES_VIS", "trial_index": 60}, "uniqueid": "MTK1388:3ON104KXQL3ENI4YL6FRFTJMMT5W4W", "dateTime": 1515871715734}, {"current_trial": 61, "trialdata": {"rt": -1, "trial_type": "single-stim", "word": "princess", "stimulus": "<p id=\"stim\">PRINCESS</p>", "conditions": [18, 1200, "v", 18000], "internal_node_id": "0.0-43.0", "trial": 1, "time_elapsed": 382793, "serialpos": 6, "key_press": -1, "wordID": 1124, "type": "PRES_VIS", "trial_index": 61}, "uniqueid": "MTK1388:3ON104KXQL3ENI4YL6FRFTJMMT5W4W", "dateTime": 1515871717895}, {"current_trial": 62, "trialdata": {"rt": -1, "trial_type": "single-stim", "word": "outfit", "stimulus": "<p id=\"stim\">OUTFIT</p>", "conditions": [18, 1200, "v", 18000], "internal_node_id": "0.0-44.0", "trial": 1, "time_elapsed": 385119, "serialpos": 7, "key_press": -1, "wordID": 987, "type": "PRES_VIS", "trial_index": 62}, "uniqueid": "MTK1388:3ON104KXQL3ENI4YL6FRFTJMMT5W4W", "dateTime": 1515871720221}, {"current_trial": 63, "trialdata": {"rt": -1, "trial_type": "single-stim", "word": "receipt", "stimulus": "<p id=\"stim\">RECEIPT</p>", "conditions": [18, 1200, "v", 18000], "internal_node_id": "0.0-45.0", "trial": 1, "time_elapsed": 387333, "serialpos": 8, "key_press": -1, "wordID": 1172, "type": "PRES_VIS", "trial_index": 63}, "uniqueid": "MTK1388:3ON104KXQL3ENI4YL6FRFTJMMT5W4W", "dateTime": 1515871722434}, {"current_trial": 64, "trialdata": {"rt": -1, "trial_type": "single-stim", "word": "robot", "stimulus": "<p id=\"stim\">ROBOT</p>", "conditions": [18, 1200, "v", 18000], "internal_node_id": "0.0-46.0", "trial": 1, "time_elapsed": 389588, "serialpos": 9, "key_press": -1, "wordID": 1199, "type": "PRES_VIS", "trial_index": 64}, "uniqueid": "MTK1388:3ON104KXQL3ENI4YL6FRFTJMMT5W4W", "dateTime": 1515871724689}, {"current_trial": 65, "trialdata": {"rt": -1, "trial_type": "single-stim", "word": "zebra", "stimulus": "<p id=\"stim\">ZEBRA</p>", "conditions": [18, 1200, "v", 18000], "internal_node_id": "0.0-47.0", "trial": 1, "time_elapsed": 391875, "serialpos": 10, "key_press": -1, "wordID": 1634, "type": "PRES_VIS", "trial_index": 65}, "uniqueid": "MTK1388:3ON104KXQL3ENI4YL6FRFTJMMT5W4W", "dateTime": 1515871726976}, {"current_trial": 66, "trialdata": {"rt": -1, "trial_type": "single-stim", "word": "mask", "stimulus": "<p id=\"stim\">MASK</p>", "conditions": [18, 1200, "v", 18000], "internal_node_id": "0.0-48.0", "trial": 1, "time_elapsed": 393941, "serialpos": 11, "key_press": -1, "wordID": 875, "type": "PRES_VIS", "trial_index": 66}, "uniqueid": "MTK1388:3ON104KXQL3ENI4YL6FRFTJMMT5W4W", "dateTime": 1515871729042}, {"current_trial": 67, "trialdata": {"rt": -1, "trial_type": "single-stim", "word": "permit", "stimulus": "<p id=\"stim\">PERMIT</p>", "conditions": [18, 1200, "v", 18000], "internal_node_id": "0.0-49.0", "trial": 1, "time_elapsed": 396158, "serialpos": 12, "key_press": -1, "wordID": 1050, "type": "PRES_VIS", "trial_index": 67}, "uniqueid": "MTK1388:3ON104KXQL3ENI4YL6FRFTJMMT5W4W", "dateTime": 1515871731260}, {"current_trial": 68, "trialdata": {"rt": -1, "trial_type": "single-stim", "word": "brick", "stimulus": "<p id=\"stim\">BRICK</p>", "conditions": [18, 1200, "v", 18000], "internal_node_id": "0.0-50.0", "trial": 1, "time_elapsed": 398387, "serialpos": 13, "key_press": -1, "wordID": 171, "type": "PRES_VIS", "trial_index": 68}, "uniqueid": "MTK1388:3ON104KXQL3ENI4YL6FRFTJMMT5W4W", "dateTime": 1515871733488}, {"current_trial": 69, "trialdata": {"rt": -1, "trial_type": "single-stim", "word": "donor", "stimulus": "<p id=\"stim\">DONOR</p>", "conditions": [18, 1200, "v", 18000], "internal_node_id": "0.0-51.0", "trial": 1, "time_elapsed": 400621, "serialpos": 14, "key_press": -1, "wordID": 484, "type": "PRES_VIS", "trial_index": 69}, "uniqueid": "MTK1388:3ON104KXQL3ENI4YL6FRFTJMMT5W4W", "dateTime": 1515871735722}, {"current_trial": 70, "trialdata": {"rt": -1, "trial_type": "single-stim", "word": "pliers", "stimulus": "<p id=\"stim\">PLIERS</p>", "conditions": [18, 1200, "v", 18000], "internal_node_id": "0.0-52.0", "trial": 1, "time_elapsed": 402752, "serialpos": 15, "key_press": -1, "wordID": 1088, "type": "PRES_VIS", "trial_index": 70}, "uniqueid": "MTK1388:3ON104KXQL3ENI4YL6FRFTJMMT5W4W", "dateTime": 1515871737853}, {"current_trial": 71, "trialdata": {"rt": -1, "trial_type": "single-stim", "word": "spoon", "stimulus": "<p id=\"stim\">SPOON</p>", "conditions": [18, 1200, "v", 18000], "internal_node_id": "0.0-53.0", "trial": 1, "time_elapsed": 405097, "serialpos": 16, "key_press": -1, "wordID": 1356, "type": "PRES_VIS", "trial_index": 71}, "uniqueid": "MTK1388:3ON104KXQL3ENI4YL6FRFTJMMT5W4W", "dateTime": 1515871740199}, {"current_trial": 72, "trialdata": {"rt": -1, "trial_type": "single-stim", "word": "survey", "stimulus": "<p id=\"stim\">SURVEY</p>", "conditions": [18, 1200, "v", 18000], "internal_node_id": "0.0-54.0", "trial": 1, "time_elapsed": 407432, "serialpos": 17, "key_press": -1, "wordID": 1413, "type": "PRES_VIS", "trial_index": 72}, "uniqueid": "MTK1388:3ON104KXQL3ENI4YL6FRFTJMMT5W4W", "dateTime": 1515871742534}, {"current_trial": 73, "trialdata": {"rt": -1, "trial_type": "single-stim", "stimulus": "", "internal_node_id": "0.0-55.0-0.0", "time_elapsed": 409530, "key_press": -1, "type": "PRE_RECALL_DELAY", "trial_index": 73}, "uniqueid": "MTK1388:3ON104KXQL3ENI4YL6FRFTJMMT5W4W", "dateTime": 1515871744632}, {"current_trial": 74, "trialdata": {"rt": -1000, "trial_type": "single-audio", "stimulus": "/static/audio/400Hz.wav", "internal_node_id": "0.0-56.0", "time_elapsed": 410034, "key_press": -1, "type": "PRE_RECALL_ALERT", "trial_index": 74}, "uniqueid": "MTK1388:3ON104KXQL3ENI4YL6FRFTJMMT5W4W", "dateTime": 1515871745135}, {"current_trial": 75, "trialdata": {"rt": [5117, 9097, 11451, 22278, 32394], "recwords": ["spoon", "survey", "beaker", "princess", "spoon"], "key_times": [2449, 2825, 3065, 4665, 4865, 5117, 5825, 6426, 6745, 7681, 8129, 8329, 8611, 8753, 9097, 9641, 9993, 10137, 10514, 10785, 10937, 11451, 18998, 19944, 20586, 20718, 21182, 21430, 21654, 21774, 22278, 30619, 31514, 31690, 31834, 32074, 32394], "trial_type": "free-recall", "conditions": [18, 1200, "v", 18000], "internal_node_id": "0.0-57.0-0.0", "key_presses": [83, 80, 79, 79, 78, 13, 83, 85, 86, 8, 82, 86, 69, 89, 13, 66, 69, 65, 75, 69, 82, 13, 80, 82, 73, 78, 67, 69, 83, 83, 13, 83, 80, 79, 79, 78, 13], "trial": 1, "time_elapsed": 470042, "type": "FREE_RECALL", "trial_index": 75}, "uniqueid": "MTK1388:3ON104KXQL3ENI4YL6FRFTJMMT5W4W", "dateTime": 1515871805146}, {"current_trial": 76, "trialdata": {"rt": 4348, "trial_type": "text", "internal_node_id": "0.0-58.0", "time_elapsed": 476397, "key_press": 13, "type": "INSTRUCTIONS", "trial_index": 76}, "uniqueid": "MTK1388:3ON104KXQL3ENI4YL6FRFTJMMT5W4W", "dateTime": 1515871811498}, {"current_trial": 77, "trialdata": {"rt": [4586, 8258, 11138], "trial_type": "math-distractor", "key_times": [2858, 3362, 4586, 7154, 7730, 8258, 10467, 10562, 11138], "responses": ["14", "16", "21"], "num2": [2, 2, 3, 7], "num3": [6, 6, 9, 3], "conditions": [24, 1600, "v", 12000], "internal_node_id": "0.0-59.0", "key_presses": [49, 52, 13, 49, 54, 13, 50, 49, 13], "trial": 2, "time_elapsed": 489406, "type": "DISTRACTOR", "trial_index": 77, "num1": [6, 8, 9, 1]}, "uniqueid": "MTK1388:3ON104KXQL3ENI4YL6FRFTJMMT5W4W", "dateTime": 1515871824507}, {"current_trial": 78, "trialdata": {"rt": -1, "trial_type": "single-stim", "stimulus": "<p id=\"stim\">10</p>", "internal_node_id": "0.0-60.0-0.0", "time_elapsed": 492415, "key_press": -1, "trial_index": 78}, "uniqueid": "MTK1388:3ON104KXQL3ENI4YL6FRFTJMMT5W4W", "dateTime": 1515871827517}, {"current_trial": 79, "trialdata": {"rt": -1, "trial_type": "single-stim", "stimulus": "<p id=\"stim\">9</p>", "internal_node_id": "0.0-60.0-1.0", "time_elapsed": 493420, "key_press": -1, "trial_index": 79}, "uniqueid": "MTK1388:3ON104KXQL3ENI4YL6FRFTJMMT5W4W", "dateTime": 1515871828521}, {"current_trial": 80, "trialdata": {"rt": -1, "trial_type": "single-stim", "stimulus": "<p id=\"stim\">8</p>", "internal_node_id": "0.0-60.0-2.0", "time_elapsed": 494424, "key_press": -1, "trial_index": 80}, "uniqueid": "MTK1388:3ON104KXQL3ENI4YL6FRFTJMMT5W4W", "dateTime": 1515871829525}, {"current_trial": 81, "trialdata": {"rt": -1, "trial_type": "single-stim", "stimulus": "<p id=\"stim\">7</p>", "internal_node_id": "0.0-60.0-3.0", "time_elapsed": 495428, "key_press": -1, "trial_index": 81}, "uniqueid": "MTK1388:3ON104KXQL3ENI4YL6FRFTJMMT5W4W", "dateTime": 1515871830529}, {"current_trial": 82, "trialdata": {"rt": -1, "trial_type": "single-stim", "stimulus": "<p id=\"stim\">6</p>", "internal_node_id": "0.0-60.0-4.0", "time_elapsed": 496432, "key_press": -1, "trial_index": 82}, "uniqueid": "MTK1388:3ON104KXQL3ENI4YL6FRFTJMMT5W4W", "dateTime": 1515871831533}, {"current_trial": 83, "trialdata": {"rt": -1, "trial_type": "single-stim", "stimulus": "<p id=\"stim\">5</p>", "internal_node_id": "0.0-60.0-5.0", "time_elapsed": 497436, "key_press": -1, "trial_index": 83}, "uniqueid": "MTK1388:3ON104KXQL3ENI4YL6FRFTJMMT5W4W", "dateTime": 1515871832537}, {"current_trial": 84, "trialdata": {"rt": -1, "trial_type": "single-stim", "stimulus": "<p id=\"stim\">4</p>", "internal_node_id": "0.0-60.0-6.0", "time_elapsed": 498440, "key_press": -1, "trial_index": 84}, "uniqueid": "MTK1388:3ON104KXQL3ENI4YL6FRFTJMMT5W4W", "dateTime": 1515871833541}, {"current_trial": 85, "trialdata": {"rt": -1, "trial_type": "single-stim", "stimulus": "<p id=\"stim\">3</p>", "internal_node_id": "0.0-60.0-7.0", "time_elapsed": 499444, "key_press": -1, "trial_index": 85}, "uniqueid": "MTK1388:3ON104KXQL3ENI4YL6FRFTJMMT5W4W", "dateTime": 1515871834545}, {"current_trial": 86, "trialdata": {"rt": -1, "trial_type": "single-stim", "stimulus": "<p id=\"stim\">2</p>", "internal_node_id": "0.0-60.0-8.0", "time_elapsed": 500448, "key_press": -1, "trial_index": 86}, "uniqueid": "MTK1388:3ON104KXQL3ENI4YL6FRFTJMMT5W4W", "dateTime": 1515871835550}, {"current_trial": 87, "trialdata": {"rt": -1, "trial_type": "single-stim", "stimulus": "<p id=\"stim\">1</p>", "internal_node_id": "0.0-60.0-9.0", "time_elapsed": 501452, "key_press": -1, "trial_index": 87}, "uniqueid": "MTK1388:3ON104KXQL3ENI4YL6FRFTJMMT5W4W", "dateTime": 1515871836556}, {"current_trial": 88, "trialdata": {"rt": -1, "trial_type": "single-stim", "stimulus": "<p id=\"stim\">+</p>", "internal_node_id": "0.0-61.0-0.0", "time_elapsed": 502961, "key_press": -1, "type": "FIXATION", "trial_index": 88}, "uniqueid": "MTK1388:3ON104KXQL3ENI4YL6FRFTJMMT5W4W", "dateTime": 1515871838062}, {"current_trial": 89, "trialdata": {"rt": -1, "trial_type": "single-stim", "word": "poison", "stimulus": "<p id=\"stim\">POISON</p>", "conditions": [24, 1600, "v", 12000], "internal_node_id": "0.0-62.0", "trial": 2, "time_elapsed": 504563, "serialpos": 0, "key_press": -1, "wordID": 1095, "type": "PRES_VIS", "trial_index": 89}, "uniqueid": "MTK1388:3ON104KXQL3ENI4YL6FRFTJMMT5W4W", "dateTime": 1515871839664}, {"current_trial": 90, "trialdata": {"rt": -1, "trial_type": "single-stim", "word": "perfume", "stimulus": "<p id=\"stim\">PERFUME</p>", "conditions": [24, 1600, "v", 12000], "internal_node_id": "0.0-63.0", "trial": 2, "time_elapsed": 507169, "serialpos": 1, "key_press": -1, "wordID": 1048, "type": "PRES_VIS", "trial_index": 90}, "uniqueid": "MTK1388:3ON104KXQL3ENI4YL6FRFTJMMT5W4W", "dateTime": 1515871842270}, {"current_trial": 91, "trialdata": {"rt": -1, "trial_type": "single-stim", "word": "dresser", "stimulus": "<p id=\"stim\">DRESSER</p>", "conditions": [24, 1600, "v", 12000], "internal_node_id": "0.0-64.0", "trial": 2, "time_elapsed": 509932, "serialpos": 2, "key_press": -1, "wordID": 495, "type": "PRES_VIS", "trial_index": 91}, "uniqueid": "MTK1388:3ON104KXQL3ENI4YL6FRFTJMMT5W4W", "dateTime": 1515871845033}, {"current_trial": 92, "trialdata": {"rt": -1, "trial_type": "single-stim", "word": "cupboard", "stimulus": "<p id=\"stim\">CUPBOARD</p>", "conditions": [24, 1600, "v", 12000], "internal_node_id": "0.0-65.0", "trial": 2, "time_elapsed": 512683, "serialpos": 3, "key_press": -1, "wordID": 424, "type": "PRES_VIS", "trial_index": 92}, "uniqueid": "MTK1388:3ON104KXQL3ENI4YL6FRFTJMMT5W4W", "dateTime": 1515871847784}, {"current_trial": 93, "trialdata": {"rt": -1, "trial_type": "single-stim", "word": "stream", "stimulus": "<p id=\"stim\">STREAM</p>", "conditions": [24, 1600, "v", 12000], "internal_node_id": "0.0-66.0", "trial": 2, "time_elapsed": 515329, "serialpos": 4, "key_press": -1, "wordID": 1391, "type": "PRES_VIS", "trial_index": 93}, "uniqueid": "MTK1388:3ON104KXQL3ENI4YL6FRFTJMMT5W4W", "dateTime": 1515871850431}, {"current_trial": 94, "trialdata": {"rt": -1, "trial_type": "single-stim", "word": "lava", "stimulus": "<p id=\"stim\">LAVA</p>", "conditions": [24, 1600, "v", 12000], "internal_node_id": "0.0-67.0", "trial": 2, "time_elapsed": 517761, "serialpos": 5, "key_press": -1, "wordID": 803, "type": "PRES_VIS", "trial_index": 94}, "uniqueid": "MTK1388:3ON104KXQL3ENI4YL6FRFTJMMT5W4W", "dateTime": 1515871852863}, {"current_trial": 95, "trialdata": {"rt": -1, "trial_type": "single-stim", "word": "suitcase", "stimulus": "<p id=\"stim\">SUITCASE</p>", "conditions": [24, 1600, "v", 12000], "internal_node_id": "0.0-68.0", "trial": 2, "time_elapsed": 520245, "serialpos": 6, "key_press": -1, "wordID": 1402, "type": "PRES_VIS", "trial_index": 95}, "uniqueid": "MTK1388:3ON104KXQL3ENI4YL6FRFTJMMT5W4W", "dateTime": 1515871855346}, {"current_trial": 96, "trialdata": {"rt": -1, "trial_type": "single-stim", "word": "mummy", "stimulus": "<p id=\"stim\">MUMMY</p>", "conditions": [24, 1600, "v", 12000], "internal_node_id": "0.0-69.0", "trial": 2, "time_elapsed": 522875, "serialpos": 7, "key_press": -1, "wordID": 931, "type": "PRES_VIS", "trial_index": 96}, "uniqueid": "MTK1388:3ON104KXQL3ENI4YL6FRFTJMMT5W4W", "dateTime": 1515871857976}, {"current_trial": 97, "trialdata": {"rt": -1, "trial_type": "single-stim", "word": "bacon", "stimulus": "<p id=\"stim\">BACON</p>", "conditions": [24, 1600, "v", 12000], "internal_node_id": "0.0-70.0", "trial": 2, "time_elapsed": 525323, "serialpos": 8, "key_press": -1, "wordID": 66, "type": "PRES_VIS", "trial_index": 97}, "uniqueid": "MTK1388:3ON104KXQL3ENI4YL6FRFTJMMT5W4W", "dateTime": 1515871860424}, {"current_trial": 98, "trialdata": {"rt": -1, "trial_type": "single-stim", "word": "hiker", "stimulus": "<p id=\"stim\">HIKER</p>", "conditions": [24, 1600, "v", 12000], "internal_node_id": "0.0-71.0", "trial": 2, "time_elapsed": 527756, "serialpos": 9, "key_press": -1, "wordID": 707, "type": "PRES_VIS", "trial_index": 98}, "uniqueid": "MTK1388:3ON104KXQL3ENI4YL6FRFTJMMT5W4W", "dateTime": 1515871862857}, {"current_trial": 99, "trialdata": {"rt": -1, "trial_type": "single-stim", "word": "snail", "stimulus": "<p id=\"stim\">SNAIL</p>", "conditions": [24, 1600, "v", 12000], "internal_node_id": "0.0-72.0", "trial": 2, "time_elapsed": 530304, "serialpos": 10, "key_press": -1, "wordID": 1331, "type": "PRES_VIS", "trial_index": 99}, "uniqueid": "MTK1388:3ON104KXQL3ENI4YL6FRFTJMMT5W4W", "dateTime": 1515871865405}, {"current_trial": 100, "trialdata": {"rt": -1, "trial_type": "single-stim", "word": "fragrance", "stimulus": "<p id=\"stim\">FRAGRANCE</p>", "conditions": [24, 1600, "v", 12000], "internal_node_id": "0.0-73.0", "trial": 2, "time_elapsed": 532724, "serialpos": 11, "key_press": -1, "wordID": 598, "type": "PRES_VIS", "trial_index": 100}, "uniqueid": "MTK1388:3ON104KXQL3ENI4YL6FRFTJMMT5W4W", "dateTime": 1515871867825}, {"current_trial": 101, "trialdata": {"rt": -1, "trial_type": "single-stim", "word": "penguin", "stimulus": "<p id=\"stim\">PENGUIN</p>", "conditions": [24, 1600, "v", 12000], "internal_node_id": "0.0-74.0", "trial": 2, "time_elapsed": 535295, "serialpos": 12, "key_press": -1, "wordID": 1043, "type": "PRES_VIS", "trial_index": 101}, "uniqueid": "MTK1388:3ON104KXQL3ENI4YL6FRFTJMMT5W4W", "dateTime": 1515871870396}, {"current_trial": 102, "trialdata": {"rt": -1, "trial_type": "single-stim", "word": "plate", "stimulus": "<p id=\"stim\">PLATE</p>", "conditions": [24, 1600, "v", 12000], "internal_node_id": "0.0-75.0", "trial": 2, "time_elapsed": 537872, "serialpos": 13, "key_press": -1, "wordID": 1085, "type": "PRES_VIS", "trial_index": 102}, "uniqueid": "MTK1388:3ON104KXQL3ENI4YL6FRFTJMMT5W4W", "dateTime": 1515871872973}, {"current_trial": 103, "trialdata": {"rt": -1, "trial_type": "single-stim", "word": "sparrow", "stimulus": "<p id=\"stim\">SPARROW</p>", "conditions": [24, 1600, "v", 12000], "internal_node_id": "0.0-76.0", "trial": 2, "time_elapsed": 540426, "serialpos": 14, "key_press": -1, "wordID": 1346, "type": "PRES_VIS", "trial_index": 103}, "uniqueid": "MTK1388:3ON104KXQL3ENI4YL6FRFTJMMT5W4W", "dateTime": 1515871875527}, {"current_trial": 104, "trialdata": {"rt": -1, "trial_type": "single-stim", "word": "robin", "stimulus": "<p id=\"stim\">ROBIN</p>", "conditions": [24, 1600, "v", 12000], "internal_node_id": "0.0-77.0", "trial": 2, "time_elapsed": 542956, "serialpos": 15, "key_press": -1, "wordID": 1198, "type": "PRES_VIS", "trial_index": 104}, "uniqueid": "MTK1388:3ON104KXQL3ENI4YL6FRFTJMMT5W4W", "dateTime": 1515871878057}, {"current_trial": 105, "trialdata": {"rt": -1, "trial_type": "single-stim", "word": "picture", "stimulus": "<p id=\"stim\">PICTURE</p>", "conditions": [24, 1600, "v", 12000], "internal_node_id": "0.0-78.0", "trial": 2, "time_elapsed": 545754, "serialpos": 16, "key_press": -1, "wordID": 1060, "type": "PRES_VIS", "trial_index": 105}, "uniqueid": "MTK1388:3ON104KXQL3ENI4YL6FRFTJMMT5W4W", "dateTime": 1515871880855}, {"current_trial": 106, "trialdata": {"rt": -1, "trial_type": "single-stim", "word": "tribe", "stimulus": "<p id=\"stim\">TRIBE</p>", "conditions": [24, 1600, "v", 12000], "internal_node_id": "0.0-79.0", "trial": 2, "time_elapsed": 548267, "serialpos": 17, "key_press": -1, "wordID": 1504, "type": "PRES_VIS", "trial_index": 106}, "uniqueid": "MTK1388:3ON104KXQL3ENI4YL6FRFTJMMT5W4W", "dateTime": 1515871883368}, {"current_trial": 107, "trialdata": {"rt": -1, "trial_type": "single-stim", "word": "film", "stimulus": "<p id=\"stim\">FILM</p>", "conditions": [24, 1600, "v", 12000], "internal_node_id": "0.0-80.0", "trial": 2, "time_elapsed": 551012, "serialpos": 18, "key_press": -1, "wordID": 564, "type": "PRES_VIS", "trial_index": 107}, "uniqueid": "MTK1388:3ON104KXQL3ENI4YL6FRFTJMMT5W4W", "dateTime": 1515871886115}, {"current_trial": 108, "trialdata": {"rt": -1, "trial_type": "single-stim", "word": "crater", "stimulus": "<p id=\"stim\">CRATER</p>", "conditions": [24, 1600, "v", 12000], "internal_node_id": "0.0-81.0", "trial": 2, "time_elapsed": 553560, "serialpos": 19, "key_press": -1, "wordID": 399, "type": "PRES_VIS", "trial_index": 108}, "uniqueid": "MTK1388:3ON104KXQL3ENI4YL6FRFTJMMT5W4W", "dateTime": 1515871888661}, {"current_trial": 109, "trialdata": {"rt": -1, "trial_type": "single-stim", "word": "lizard", "stimulus": "<p id=\"stim\">LIZARD</p>", "conditions": [24, 1600, "v", 12000], "internal_node_id": "0.0-82.0", "trial": 2, "time_elapsed": 556166, "serialpos": 20, "key_press": -1, "wordID": 833, "type": "PRES_VIS", "trial_index": 109}, "uniqueid": "MTK1388:3ON104KXQL3ENI4YL6FRFTJMMT5W4W", "dateTime": 1515871891267}, {"current_trial": 110, "trialdata": {"rt": -1, "trial_type": "single-stim", "word": "palace", "stimulus": "<p id=\"stim\">PALACE</p>", "conditions": [24, 1600, "v", 12000], "internal_node_id": "0.0-83.0", "trial": 2, "time_elapsed": 558894, "serialpos": 21, "key_press": -1, "wordID": 1005, "type": "PRES_VIS", "trial_index": 110}, "uniqueid": "MTK1388:3ON104KXQL3ENI4YL6FRFTJMMT5W4W", "dateTime": 1515871893995}, {"current_trial": 111, "trialdata": {"rt": -1, "trial_type": "single-stim", "word": "army", "stimulus": "<p id=\"stim\">ARMY</p>", "conditions": [24, 1600, "v", 12000], "internal_node_id": "0.0-84.0", "trial": 2, "time_elapsed": 561656, "serialpos": 22, "key_press": -1, "wordID": 38, "type": "PRES_VIS", "trial_index": 111}, "uniqueid": "MTK1388:3ON104KXQL3ENI4YL6FRFTJMMT5W4W", "dateTime": 1515871896758}, {"current_trial": 112, "trialdata": {"rt": -1, "trial_type": "single-stim", "word": "drawing", "stimulus": "<p id=\"stim\">DRAWING</p>", "conditions": [24, 1600, "v", 12000], "internal_node_id": "0.0-85.0", "trial": 2, "time_elapsed": 564152, "serialpos": 23, "key_press": -1, "wordID": 493, "type": "PRES_VIS", "trial_index": 112}, "uniqueid": "MTK1388:3ON104KXQL3ENI4YL6FRFTJMMT5W4W", "dateTime": 1515871899254}, {"current_trial": 113, "trialdata": {"rt": -1, "trial_type": "single-stim", "stimulus": "", "internal_node_id": "0.0-86.0-0.0", "time_elapsed": 566403, "key_press": -1, "type": "PRE_RECALL_DELAY", "trial_index": 113}, "uniqueid": "MTK1388:3ON104KXQL3ENI4YL6FRFTJMMT5W4W", "dateTime": 1515871901504}, {"current_trial": 114, "trialdata": {"rt": -1000, "trial_type": "single-audio", "stimulus": "/static/audio/400Hz.wav", "internal_node_id": "0.0-87.0", "time_elapsed": 566905, "key_press": -1, "type": "PRE_RECALL_ALERT", "trial_index": 114}, "uniqueid": "MTK1388:3ON104KXQL3ENI4YL6FRFTJMMT5W4W", "dateTime": 1515871902006}, {"current_trial": 115, "trialdata": {"rt": [3582, 6294, 8838, 16725, 21926, 26261, 32782, 34886, 37614, 40325, 43278, 54392, 58616], "recwords": ["dresser", "lava", "robin", "purfume", "painguin", "cupboard", "suitcase", "bacon", "stream", "plate", "hiker", "poison", "sparrow"], "key_times": [2039, 2206, 2382, 2582, 2718, 2966, 3150, 3582, 4422, 4718, 5350, 5646, 6294, 7190, 7590, 7958, 8174, 8590, 8838, 10310, 10582, 10958, 12519, 12774, 13166, 13574, 13790, 14342, 14486, 14605, 14743, 14846, 15374, 15718, 15942, 16342, 16725, 18038, 19374, 20158, 20326, 20806, 21110, 21438, 21606, 21926, 23639, 24102, 24318, 24736, 25046, 25438, 25630, 25734, 26261, 27998, 28310, 28999, 29238, 29382, 29678, 30102, 30358, 30382, 31382, 31534, 32102, 32238, 32334, 32782, 33293, 33679, 34062, 34422, 34630, 34886, 35990, 36150, 36382, 36582, 36751, 37294, 37614, 38142, 38653, 39286, 39702, 39798, 40325, 41318, 41550, 42198, 42582, 42645, 43278, 51537, 51712, 51896, 52480, 52856, 53040, 53912, 54152, 54392, 55512, 55920, 57025, 57432, 57576, 57872, 58120, 58616, 59712], "trial_type": "free-recall", "conditions": [24, 1600, "v", 12000], "internal_node_id": "0.0-88.0-0.0", "key_presses": [68, 82, 69, 83, 83, 69, 82, 13, 76, 65, 86, 65, 13, 82, 79, 66, 73, 78, 13, 80, 85, 82, 80, 72, 69, 85, 77, 8, 8, 8, 8, 8, 70, 85, 77, 69, 13, 80, 65, 73, 78, 71, 85, 73, 78, 13, 67, 85, 80, 66, 79, 65, 82, 68, 13, 83, 89, 8, 85, 73, 84, 67, 83, 65, 8, 8, 65, 83, 69, 13, 66, 65, 67, 79, 78, 13, 83, 84, 82, 69, 65, 77, 13, 80, 76, 65, 84, 69, 13, 72, 73, 75, 69, 82, 13, 80, 79, 73, 83, 79, 66, 8, 78, 13, 83, 80, 65, 82, 82, 79, 87, 13, 70], "trial": 2, "time_elapsed": 626912, "type": "FREE_RECALL", "trial_index": 115}, "uniqueid": "MTK1388:3ON104KXQL3ENI4YL6FRFTJMMT5W4W", "dateTime": 1515871962017}, {"current_trial": 116, "trialdata": {"rt": 1547, "trial_type": "text", "internal_node_id": "0.0-89.0", "time_elapsed": 630468, "key_press": 16, "type": "INSTRUCTIONS", "trial_index": 116}, "uniqueid": "MTK1388:3ON104KXQL3ENI4YL6FRFTJMMT5W4W", "dateTime": 1515871965569}, {"current_trial": 117, "trialdata": {"rt": [3097, 5898, 9009, 12001, 16113, 19121, 22217], "trial_type": "math-distractor", "key_times": [2417, 2553, 3097, 5265, 5473, 5898, 8146, 8457, 9009, 11081, 11585, 12001, 15193, 15529, 16113, 18306, 18713, 19121, 21577, 21849, 22208, 22217], "responses": ["11", "14", "16", "14", "18", "17", "20"], "num2": [5, 3, 6, 6, 4, 3, 9, 9], "num3": [3, 5, 6, 1, 9, 5, 6, 6], "conditions": [12, 1600, "v", 24000], "internal_node_id": "0.0-90.0", "key_presses": [49, 49, 13, 49, 52, 13, 49, 54, 13, 49, 52, 13, 49, 56, 13, 49, 55, 13, 50, 48, 16, 13], "trial": 3, "time_elapsed": 656478, "type": "DISTRACTOR", "trial_index": 117, "num1": [3, 6, 4, 7, 5, 9, 5, 6]}, "uniqueid": "MTK1388:3ON104KXQL3ENI4YL6FRFTJMMT5W4W", "dateTime": 1515871991579}, {"current_trial": 118, "trialdata": {"rt": -1, "trial_type": "single-stim", "stimulus": "<p id=\"stim\">10</p>", "internal_node_id": "0.0-91.0-0.0", "time_elapsed": 659484, "key_press": -1, "trial_index": 118}, "uniqueid": "MTK1388:3ON104KXQL3ENI4YL6FRFTJMMT5W4W", "dateTime": 1515871994585}, {"current_trial": 119, "trialdata": {"rt": -1, "trial_type": "single-stim", "stimulus": "<p id=\"stim\">9</p>", "internal_node_id": "0.0-91.0-1.0", "time_elapsed": 660488, "key_press": -1, "trial_index": 119}, "uniqueid": "MTK1388:3ON104KXQL3ENI4YL6FRFTJMMT5W4W", "dateTime": 1515871995590}, {"current_trial": 120, "trialdata": {"rt": -1, "trial_type": "single-stim", "stimulus": "<p id=\"stim\">8</p>", "internal_node_id": "0.0-91.0-2.0", "time_elapsed": 661492, "key_press": -1, "trial_index": 120}, "uniqueid": "MTK1388:3ON104KXQL3ENI4YL6FRFTJMMT5W4W", "dateTime": 1515871996593}, {"current_trial": 121, "trialdata": {"rt": -1, "trial_type": "single-stim", "stimulus": "<p id=\"stim\">7</p>", "internal_node_id": "0.0-91.0-3.0", "time_elapsed": 662497, "key_press": -1, "trial_index": 121}, "uniqueid": "MTK1388:3ON104KXQL3ENI4YL6FRFTJMMT5W4W", "dateTime": 1515871997598}, {"current_trial": 122, "trialdata": {"rt": -1, "trial_type": "single-stim", "stimulus": "<p id=\"stim\">6</p>", "internal_node_id": "0.0-91.0-4.0", "time_elapsed": 663498, "key_press": -1, "trial_index": 122}, "uniqueid": "MTK1388:3ON104KXQL3ENI4YL6FRFTJMMT5W4W", "dateTime": 1515871998600}, {"current_trial": 123, "trialdata": {"rt": -1, "trial_type": "single-stim", "stimulus": "<p id=\"stim\">5</p>", "internal_node_id": "0.0-91.0-5.0", "time_elapsed": 664505, "key_press": -1, "trial_index": 123}, "uniqueid": "MTK1388:3ON104KXQL3ENI4YL6FRFTJMMT5W4W", "dateTime": 1515871999606}, {"current_trial": 124, "trialdata": {"rt": -1, "trial_type": "single-stim", "stimulus": "<p id=\"stim\">4</p>", "internal_node_id": "0.0-91.0-6.0", "time_elapsed": 665506, "key_press": -1, "trial_index": 124}, "uniqueid": "MTK1388:3ON104KXQL3ENI4YL6FRFTJMMT5W4W", "dateTime": 1515872000607}, {"current_trial": 125, "trialdata": {"rt": -1, "trial_type": "single-stim", "stimulus": "<p id=\"stim\">3</p>", "internal_node_id": "0.0-91.0-7.0", "time_elapsed": 666507, "key_press": -1, "trial_index": 125}, "uniqueid": "MTK1388:3ON104KXQL3ENI4YL6FRFTJMMT5W4W", "dateTime": 1515872001608}, {"current_trial": 126, "trialdata": {"rt": -1, "trial_type": "single-stim", "stimulus": "<p id=\"stim\">2</p>", "internal_node_id": "0.0-91.0-8.0", "time_elapsed": 667511, "key_press": -1, "trial_index": 126}, "uniqueid": "MTK1388:3ON104KXQL3ENI4YL6FRFTJMMT5W4W", "dateTime": 1515872002612}, {"current_trial": 127, "trialdata": {"rt": -1, "trial_type": "single-stim", "stimulus": "<p id=\"stim\">1</p>", "internal_node_id": "0.0-91.0-9.0", "time_elapsed": 668515, "key_press": -1, "trial_index": 127}, "uniqueid": "MTK1388:3ON104KXQL3ENI4YL6FRFTJMMT5W4W", "dateTime": 1515872003616}, {"current_trial": 128, "trialdata": {"rt": -1, "trial_type": "single-stim", "stimulus": "<p id=\"stim\">+</p>", "internal_node_id": "0.0-92.0-0.0", "time_elapsed": 670018, "key_press": -1, "type": "FIXATION", "trial_index": 128}, "uniqueid": "MTK1388:3ON104KXQL3ENI4YL6FRFTJMMT5W4W", "dateTime": 1515872005119}, {"current_trial": 129, "trialdata": {"rt": -1, "trial_type": "single-stim", "word": "parent", "stimulus": "<p id=\"stim\">PARENT</p>", "conditions": [12, 1600, "v", 24000], "internal_node_id": "0.0-93.0", "trial": 3, "time_elapsed": 671623, "serialpos": 0, "key_press": -1, "wordID": 1012, "type": "PRES_VIS", "trial_index": 129}, "uniqueid": "MTK1388:3ON104KXQL3ENI4YL6FRFTJMMT5W4W", "dateTime": 1515872006725}, {"current_trial": 130, "trialdata": {"rt": -1, "trial_type": "single-stim", "word": "playground", "stimulus": "<p id=\"stim\">PLAYGROUND</p>", "conditions": [12, 1600, "v", 24000], "internal_node_id": "0.0-94.0", "trial": 3, "time_elapsed": 674214, "serialpos": 1, "key_press": -1, "wordID": 1086, "type": "PRES_VIS", "trial_index": 130}, "uniqueid": "MTK1388:3ON104KXQL3ENI4YL6FRFTJMMT5W4W", "dateTime": 1515872009315}, {"current_trial": 131, "trialdata": {"rt": -1, "trial_type": "single-stim", "word": "pizza", "stimulus": "<p id=\"stim\">PIZZA</p>", "conditions": [12, 1600, "v", 24000], "internal_node_id": "0.0-95.0", "trial": 3, "time_elapsed": 676954, "serialpos": 2, "key_press": -1, "wordID": 1078, "type": "PRES_VIS", "trial_index": 131}, "uniqueid": "MTK1388:3ON104KXQL3ENI4YL6FRFTJMMT5W4W", "dateTime": 1515872012056}, {"current_trial": 132, "trialdata": {"rt": -1, "trial_type": "single-stim", "word": "pasta", "stimulus": "<p id=\"stim\">PASTA</p>", "conditions": [12, 1600, "v", 24000], "internal_node_id": "0.0-96.0", "trial": 3, "time_elapsed": 679474, "serialpos": 3, "key_press": -1, "wordID": 1020, "type": "PRES_VIS", "trial_index": 132}, "uniqueid": "MTK1388:3ON104KXQL3ENI4YL6FRFTJMMT5W4W", "dateTime": 1515872014576}, {"current_trial": 133, "trialdata": {"rt": -1, "trial_type": "single-stim", "word": "bunny", "stimulus": "<p id=\"stim\">BUNNY</p>", "conditions": [12, 1600, "v", 24000], "internal_node_id": "0.0-97.0", "trial": 3, "time_elapsed": 682039, "serialpos": 4, "key_press": -1, "wordID": 197, "type": "PRES_VIS", "trial_index": 133}, "uniqueid": "MTK1388:3ON104KXQL3ENI4YL6FRFTJMMT5W4W", "dateTime": 1515872017140}, {"current_trial": 134, "trialdata": {"rt": -1, "trial_type": "single-stim", "word": "stove", "stimulus": "<p id=\"stim\">STOVE</p>", "conditions": [12, 1600, "v", 24000], "internal_node_id": "0.0-98.0", "trial": 3, "time_elapsed": 684824, "serialpos": 5, "key_press": -1, "wordID": 1387, "type": "PRES_VIS", "trial_index": 134}, "uniqueid": "MTK1388:3ON104KXQL3ENI4YL6FRFTJMMT5W4W", "dateTime": 1515872019926}, {"current_trial": 135, "trialdata": {"rt": -1, "trial_type": "single-stim", "word": "spool", "stimulus": "<p id=\"stim\">SPOOL</p>", "conditions": [12, 1600, "v", 24000], "internal_node_id": "0.0-99.0", "trial": 3, "time_elapsed": 687326, "serialpos": 6, "key_press": -1, "wordID": 1355, "type": "PRES_VIS", "trial_index": 135}, "uniqueid": "MTK1388:3ON104KXQL3ENI4YL6FRFTJMMT5W4W", "dateTime": 1515872022427}, {"current_trial": 136, "trialdata": {"rt": -1, "trial_type": "single-stim", "word": "brandy", "stimulus": "<p id=\"stim\">BRANDY</p>", "conditions": [12, 1600, "v", 24000], "internal_node_id": "0.0-100.0", "trial": 3, "time_elapsed": 689997, "serialpos": 7, "key_press": -1, "wordID": 168, "type": "PRES_VIS", "trial_index": 136}, "uniqueid": "MTK1388:3ON104KXQL3ENI4YL6FRFTJMMT5W4W", "dateTime": 1515872025099}, {"current_trial": 137, "trialdata": {"rt": -1, "trial_type": "single-stim", "word": "bubble", "stimulus": "<p id=\"stim\">BUBBLE</p>", "conditions": [12, 1600, "v", 24000], "internal_node_id": "0.0-101.0", "trial": 3, "time_elapsed": 692642, "serialpos": 8, "key_press": -1, "wordID": 182, "type": "PRES_VIS", "trial_index": 137}, "uniqueid": "MTK1388:3ON104KXQL3ENI4YL6FRFTJMMT5W4W", "dateTime": 1515872027744}, {"current_trial": 138, "trialdata": {"rt": -1, "trial_type": "single-stim", "word": "plaster", "stimulus": "<p id=\"stim\">PLASTER</p>", "conditions": [12, 1600, "v", 24000], "internal_node_id": "0.0-102.0", "trial": 3, "time_elapsed": 695318, "serialpos": 9, "key_press": -1, "wordID": 1084, "type": "PRES_VIS", "trial_index": 138}, "uniqueid": "MTK1388:3ON104KXQL3ENI4YL6FRFTJMMT5W4W", "dateTime": 1515872030419}, {"current_trial": 139, "trialdata": {"rt": -1, "trial_type": "single-stim", "word": "ketchup", "stimulus": "<p id=\"stim\">KETCHUP</p>", "conditions": [12, 1600, "v", 24000], "internal_node_id": "0.0-103.0", "trial": 3, "time_elapsed": 698017, "serialpos": 10, "key_press": -1, "wordID": 770, "type": "PRES_VIS", "trial_index": 139}, "uniqueid": "MTK1388:3ON104KXQL3ENI4YL6FRFTJMMT5W4W", "dateTime": 1515872033118}, {"current_trial": 140, "trialdata": {"rt": -1, "trial_type": "single-stim", "word": "scotch", "stimulus": "<p id=\"stim\">SCOTCH</p>", "conditions": [12, 1600, "v", 24000], "internal_node_id": "0.0-104.0", "trial": 3, "time_elapsed": 700571, "serialpos": 11, "key_press": -1, "wordID": 1250, "type": "PRES_VIS", "trial_index": 140}, "uniqueid": "MTK1388:3ON104KXQL3ENI4YL6FRFTJMMT5W4W", "dateTime": 1515872035672}, {"current_trial": 141, "trialdata": {"rt": -1, "trial_type": "single-stim", "stimulus": "", "internal_node_id": "0.0-105.0-0.0", "time_elapsed": 703095, "key_press": -1, "type": "PRE_RECALL_DELAY", "trial_index": 141}, "uniqueid": "MTK1388:3ON104KXQL3ENI4YL6FRFTJMMT5W4W", "dateTime": 1515872038196}, {"current_trial": 142, "trialdata": {"rt": -1000, "trial_type": "single-audio", "stimulus": "/static/audio/400Hz.wav", "internal_node_id": "0.0-106.0", "time_elapsed": 703597, "key_press": -1, "type": "PRE_RECALL_ALERT", "trial_index": 142}, "uniqueid": "MTK1388:3ON104KXQL3ENI4YL6FRFTJMMT5W4W", "dateTime": 1515872038698}, {"current_trial": 143, "trialdata": {"rt": [2695, 6766, 11424, 15295, 17511, 24047, 31012, 41260, 50796], "recwords": ["scotch", "parent", "playground", "pizza", "bunny", "stove", "plaster", "bourbon", "pasta"], "key_times": [1048, 1239, 1799, 2015, 2263, 2383, 2695, 4575, 4975, 5183, 5647, 6295, 6511, 6766, 7407, 7583, 7943, 8423, 8863, 9119, 9543, 9727, 10143, 10823, 11424, 13711, 13911, 14527, 14655, 14823, 15295, 16447, 16583, 16783, 16911, 17207, 17511, 21503, 21655, 22447, 23271, 23551, 24047, 29250, 29442, 29907, 30083, 30258, 30459, 30571, 31012, 37157, 37612, 37804, 38372, 38916, 39060, 39164, 39948, 40108, 40668, 40836, 41260, 48961, 49460, 49660, 49876, 50212, 50796], "trial_type": "free-recall", "conditions": [12, 1600, "v", 24000], "internal_node_id": "0.0-107.0-0.0", "key_presses": [83, 67, 79, 84, 67, 72, 13, 80, 65, 82, 69, 78, 84, 13, 80, 76, 65, 89, 71, 82, 79, 85, 78, 68, 13, 80, 73, 90, 90, 65, 13, 66, 85, 78, 78, 89, 13, 83, 84, 79, 86, 69, 13, 80, 76, 65, 83, 84, 69, 82, 13, 66, 79, 85, 82, 66, 73, 78, 8, 8, 79, 78, 13, 80, 65, 83, 84, 65, 13], "trial": 3, "time_elapsed": 763602, "type": "FREE_RECALL", "trial_index": 143}, "uniqueid": "MTK1388:3ON104KXQL3ENI4YL6FRFTJMMT5W4W", "dateTime": 1515872098706}, {"current_trial": 144, "trialdata": {"rt": 1055, "trial_type": "text", "internal_node_id": "0.0-108.0", "time_elapsed": 766665, "key_press": 13, "type": "INSTRUCTIONS", "trial_index": 144}, "uniqueid": "MTK1388:3ON104KXQL3ENI4YL6FRFTJMMT5W4W", "dateTime": 1515872101767}, {"current_trial": 145, "trialdata": {"rt": [4274, 7442, 11714], "trial_type": "math-distractor", "key_times": [2394, 2778, 3610, 4002, 4274, 6818, 7002, 7442, 10779, 11242, 11714], "responses": ["15", "13", "15"], "num2": [1, 1, 2, 6], "num3": [9, 7, 4, 9], "conditions": [24, 1600, "v", 12000], "internal_node_id": "0.0-109.0", "key_presses": [49, 54, 8, 53, 13, 49, 51, 13, 49, 53, 13], "trial": 4, "time_elapsed": 780672, "type": "DISTRACTOR", "trial_index": 145, "num1": [5, 5, 9, 5]}, "uniqueid": "MTK1388:3ON104KXQL3ENI4YL6FRFTJMMT5W4W", "dateTime": 1515872115773}, {"current_trial": 146, "trialdata": {"rt": -1, "trial_type": "single-stim", "stimulus": "<p id=\"stim\">10</p>", "internal_node_id": "0.0-110.0-0.0", "time_elapsed": 783678, "key_press": -1, "trial_index": 146}, "uniqueid": "MTK1388:3ON104KXQL3ENI4YL6FRFTJMMT5W4W", "dateTime": 1515872118779}, {"current_trial": 147, "trialdata": {"rt": -1, "trial_type": "single-stim", "stimulus": "<p id=\"stim\">9</p>", "internal_node_id": "0.0-110.0-1.0", "time_elapsed": 784682, "key_press": -1, "trial_index": 147}, "uniqueid": "MTK1388:3ON104KXQL3ENI4YL6FRFTJMMT5W4W", "dateTime": 1515872119783}, {"current_trial": 148, "trialdata": {"rt": -1, "trial_type": "single-stim", "stimulus": "<p id=\"stim\">8</p>", "internal_node_id": "0.0-110.0-2.0", "time_elapsed": 785686, "key_press": -1, "trial_index": 148}, "uniqueid": "MTK1388:3ON104KXQL3ENI4YL6FRFTJMMT5W4W", "dateTime": 1515872120787}, {"current_trial": 149, "trialdata": {"rt": -1, "trial_type": "single-stim", "stimulus": "<p id=\"stim\">7</p>", "internal_node_id": "0.0-110.0-3.0", "time_elapsed": 786690, "key_press": -1, "trial_index": 149}, "uniqueid": "MTK1388:3ON104KXQL3ENI4YL6FRFTJMMT5W4W", "dateTime": 1515872121791}, {"current_trial": 150, "trialdata": {"rt": -1, "trial_type": "single-stim", "stimulus": "<p id=\"stim\">6</p>", "internal_node_id": "0.0-110.0-4.0", "time_elapsed": 787694, "key_press": -1, "trial_index": 150}, "uniqueid": "MTK1388:3ON104KXQL3ENI4YL6FRFTJMMT5W4W", "dateTime": 1515872122795}, {"current_trial": 151, "trialdata": {"rt": -1, "trial_type": "single-stim", "stimulus": "<p id=\"stim\">5</p>", "internal_node_id": "0.0-110.0-5.0", "time_elapsed": 788698, "key_press": -1, "trial_index": 151}, "uniqueid": "MTK1388:3ON104KXQL3ENI4YL6FRFTJMMT5W4W", "dateTime": 1515872123799}, {"current_trial": 152, "trialdata": {"rt": -1, "trial_type": "single-stim", "stimulus": "<p id=\"stim\">4</p>", "internal_node_id": "0.0-110.0-6.0", "time_elapsed": 789702, "key_press": -1, "trial_index": 152}, "uniqueid": "MTK1388:3ON104KXQL3ENI4YL6FRFTJMMT5W4W", "dateTime": 1515872124803}, {"current_trial": 153, "trialdata": {"rt": -1, "trial_type": "single-stim", "stimulus": "<p id=\"stim\">3</p>", "internal_node_id": "0.0-110.0-7.0", "time_elapsed": 790706, "key_press": -1, "trial_index": 153}, "uniqueid": "MTK1388:3ON104KXQL3ENI4YL6FRFTJMMT5W4W", "dateTime": 1515872125807}, {"current_trial": 154, "trialdata": {"rt": -1, "trial_type": "single-stim", "stimulus": "<p id=\"stim\">2</p>", "internal_node_id": "0.0-110.0-8.0", "time_elapsed": 791710, "key_press": -1, "trial_index": 154}, "uniqueid": "MTK1388:3ON104KXQL3ENI4YL6FRFTJMMT5W4W", "dateTime": 1515872126811}, {"current_trial": 155, "trialdata": {"rt": -1, "trial_type": "single-stim", "stimulus": "<p id=\"stim\">1</p>", "internal_node_id": "0.0-110.0-9.0", "time_elapsed": 792714, "key_press": -1, "trial_index": 155}, "uniqueid": "MTK1388:3ON104KXQL3ENI4YL6FRFTJMMT5W4W", "dateTime": 1515872127815}, {"current_trial": 156, "trialdata": {"rt": -1, "trial_type": "single-stim", "stimulus": "<p id=\"stim\">+</p>", "internal_node_id": "0.0-111.0-0.0", "time_elapsed": 794218, "key_press": -1, "type": "FIXATION", "trial_index": 156}, "uniqueid": "MTK1388:3ON104KXQL3ENI4YL6FRFTJMMT5W4W", "dateTime": 1515872129319}, {"current_trial": 157, "trialdata": {"rt": -1, "trial_type": "single-stim", "word": "shirt", "stimulus": "<p id=\"stim\">SHIRT</p>", "conditions": [24, 1600, "v", 12000], "internal_node_id": "0.0-112.0", "trial": 4, "time_elapsed": 795820, "serialpos": 0, "key_press": -1, "wordID": 1286, "type": "PRES_VIS", "trial_index": 157}, "uniqueid": "MTK1388:3ON104KXQL3ENI4YL6FRFTJMMT5W4W", "dateTime": 1515872130921}, {"current_trial": 158, "trialdata": {"rt": -1, "trial_type": "single-stim", "word": "headband", "stimulus": "<p id=\"stim\">HEADBAND</p>", "conditions": [24, 1600, "v", 12000], "internal_node_id": "0.0-113.0", "trial": 4, "time_elapsed": 798373, "serialpos": 1, "key_press": -1, "wordID": 695, "type": "PRES_VIS", "trial_index": 158}, "uniqueid": "MTK1388:3ON104KXQL3ENI4YL6FRFTJMMT5W4W", "dateTime": 1515872133475}, {"current_trial": 159, "trialdata": {"rt": -1, "trial_type": "single-stim", "word": "sister", "stimulus": "<p id=\"stim\">SISTER</p>", "conditions": [24, 1600, "v", 12000], "internal_node_id": "0.0-114.0", "trial": 4, "time_elapsed": 800829, "serialpos": 2, "key_press": -1, "wordID": 1311, "type": "PRES_VIS", "trial_index": 159}, "uniqueid": "MTK1388:3ON104KXQL3ENI4YL6FRFTJMMT5W4W", "dateTime": 1515872135930}, {"current_trial": 160, "trialdata": {"rt": -1, "trial_type": "single-stim", "word": "scalpel", "stimulus": "<p id=\"stim\">SCALPEL</p>", "conditions": [24, 1600, "v", 12000], "internal_node_id": "0.0-115.0", "trial": 4, "time_elapsed": 803434, "serialpos": 3, "key_press": -1, "wordID": 1242, "type": "PRES_VIS", "trial_index": 160}, "uniqueid": "MTK1388:3ON104KXQL3ENI4YL6FRFTJMMT5W4W", "dateTime": 1515872138536}, {"current_trial": 161, "trialdata": {"rt": -1, "trial_type": "single-stim", "word": "razor", "stimulus": "<p id=\"stim\">RAZOR</p>", "conditions": [24, 1600, "v", 12000], "internal_node_id": "0.0-116.0", "trial": 4, "time_elapsed": 805982, "serialpos": 4, "key_press": -1, "wordID": 1170, "type": "PRES_VIS", "trial_index": 161}, "uniqueid": "MTK1388:3ON104KXQL3ENI4YL6FRFTJMMT5W4W", "dateTime": 1515872141083}, {"current_trial": 162, "trialdata": {"rt": -1, "trial_type": "single-stim", "word": "lily", "stimulus": "<p id=\"stim\">LILY</p>", "conditions": [24, 1600, "v", 12000], "internal_node_id": "0.0-117.0", "trial": 4, "time_elapsed": 808631, "serialpos": 5, "key_press": -1, "wordID": 820, "type": "PRES_VIS", "trial_index": 162}, "uniqueid": "MTK1388:3ON104KXQL3ENI4YL6FRFTJMMT5W4W", "dateTime": 1515872143733}, {"current_trial": 163, "trialdata": {"rt": -1, "trial_type": "single-stim", "word": "daughter", "stimulus": "<p id=\"stim\">DAUGHTER</p>", "conditions": [24, 1600, "v", 12000], "internal_node_id": "0.0-118.0", "trial": 4, "time_elapsed": 811119, "serialpos": 6, "key_press": -1, "wordID": 441, "type": "PRES_VIS", "trial_index": 163}, "uniqueid": "MTK1388:3ON104KXQL3ENI4YL6FRFTJMMT5W4W", "dateTime": 1515872146220}, {"current_trial": 164, "trialdata": {"rt": -1, "trial_type": "single-stim", "word": "widow", "stimulus": "<p id=\"stim\">WIDOW</p>", "conditions": [24, 1600, "v", 12000], "internal_node_id": "0.0-119.0", "trial": 4, "time_elapsed": 813557, "serialpos": 7, "key_press": -1, "wordID": 1607, "type": "PRES_VIS", "trial_index": 164}, "uniqueid": "MTK1388:3ON104KXQL3ENI4YL6FRFTJMMT5W4W", "dateTime": 1515872148658}, {"current_trial": 165, "trialdata": {"rt": -1, "trial_type": "single-stim", "word": "robber", "stimulus": "<p id=\"stim\">ROBBER</p>", "conditions": [24, 1600, "v", 12000], "internal_node_id": "0.0-120.0", "trial": 4, "time_elapsed": 816220, "serialpos": 8, "key_press": -1, "wordID": 1196, "type": "PRES_VIS", "trial_index": 165}, "uniqueid": "MTK1388:3ON104KXQL3ENI4YL6FRFTJMMT5W4W", "dateTime": 1515872151322}, {"current_trial": 166, "trialdata": {"rt": -1, "trial_type": "single-stim", "word": "kidney", "stimulus": "<p id=\"stim\">KIDNEY</p>", "conditions": [24, 1600, "v", 12000], "internal_node_id": "0.0-121.0", "trial": 4, "time_elapsed": 818815, "serialpos": 9, "key_press": -1, "wordID": 775, "type": "PRES_VIS", "trial_index": 166}, "uniqueid": "MTK1388:3ON104KXQL3ENI4YL6FRFTJMMT5W4W", "dateTime": 1515872153916}, {"current_trial": 167, "trialdata": {"rt": -1, "trial_type": "single-stim", "word": "scissors", "stimulus": "<p id=\"stim\">SCISSORS</p>", "conditions": [24, 1600, "v", 12000], "internal_node_id": "0.0-122.0", "trial": 4, "time_elapsed": 821223, "serialpos": 10, "key_press": -1, "wordID": 1249, "type": "PRES_VIS", "trial_index": 167}, "uniqueid": "MTK1388:3ON104KXQL3ENI4YL6FRFTJMMT5W4W", "dateTime": 1515872156325}, {"current_trial": 168, "trialdata": {"rt": -1, "trial_type": "single-stim", "word": "salt", "stimulus": "<p id=\"stim\">SALT</p>", "conditions": [24, 1600, "v", 12000], "internal_node_id": "0.0-123.0", "trial": 4, "time_elapsed": 823899, "serialpos": 11, "key_press": -1, "wordID": 1228, "type": "PRES_VIS", "trial_index": 168}, "uniqueid": "MTK1388:3ON104KXQL3ENI4YL6FRFTJMMT5W4W", "dateTime": 1515872159000}, {"current_trial": 169, "trialdata": {"rt": -1, "trial_type": "single-stim", "word": "brook", "stimulus": "<p id=\"stim\">BROOK</p>", "conditions": [24, 1600, "v", 12000], "internal_node_id": "0.0-124.0", "trial": 4, "time_elapsed": 826691, "serialpos": 12, "key_press": -1, "wordID": 176, "type": "PRES_VIS", "trial_index": 169}, "uniqueid": "MTK1388:3ON104KXQL3ENI4YL6FRFTJMMT5W4W", "dateTime": 1515872161792}, {"current_trial": 170, "trialdata": {"rt": -1, "trial_type": "single-stim", "word": "river", "stimulus": "<p id=\"stim\">RIVER</p>", "conditions": [24, 1600, "v", 12000], "internal_node_id": "0.0-125.0", "trial": 4, "time_elapsed": 829326, "serialpos": 13, "key_press": -1, "wordID": 1193, "type": "PRES_VIS", "trial_index": 170}, "uniqueid": "MTK1388:3ON104KXQL3ENI4YL6FRFTJMMT5W4W", "dateTime": 1515872164427}, {"current_trial": 171, "trialdata": {"rt": -1, "trial_type": "single-stim", "word": "market", "stimulus": "<p id=\"stim\">MARKET</p>", "conditions": [24, 1600, "v", 12000], "internal_node_id": "0.0-126.0", "trial": 4, "time_elapsed": 832065, "serialpos": 14, "key_press": -1, "wordID": 870, "type": "PRES_VIS", "trial_index": 171}, "uniqueid": "MTK1388:3ON104KXQL3ENI4YL6FRFTJMMT5W4W", "dateTime": 1515872167167}, {"current_trial": 172, "trialdata": {"rt": -1, "trial_type": "single-stim", "word": "oyster", "stimulus": "<p id=\"stim\">OYSTER</p>", "conditions": [24, 1600, "v", 12000], "internal_node_id": "0.0-127.0", "trial": 4, "time_elapsed": 834646, "serialpos": 15, "key_press": -1, "wordID": 994, "type": "PRES_VIS", "trial_index": 172}, "uniqueid": "MTK1388:3ON104KXQL3ENI4YL6FRFTJMMT5W4W", "dateTime": 1515872169747}, {"current_trial": 173, "trialdata": {"rt": -1, "trial_type": "single-stim", "word": "milk", "stimulus": "<p id=\"stim\">MILK</p>", "conditions": [24, 1600, "v", 12000], "internal_node_id": "0.0-128.0", "trial": 4, "time_elapsed": 837196, "serialpos": 16, "key_press": -1, "wordID": 894, "type": "PRES_VIS", "trial_index": 173}, "uniqueid": "MTK1388:3ON104KXQL3ENI4YL6FRFTJMMT5W4W", "dateTime": 1515872172297}, {"current_trial": 174, "trialdata": {"rt": -1, "trial_type": "single-stim", "word": "sandwich", "stimulus": "<p id=\"stim\">SANDWICH</p>", "conditions": [24, 1600, "v", 12000], "internal_node_id": "0.0-129.0", "trial": 4, "time_elapsed": 839814, "serialpos": 17, "key_press": -1, "wordID": 1231, "type": "PRES_VIS", "trial_index": 174}, "uniqueid": "MTK1388:3ON104KXQL3ENI4YL6FRFTJMMT5W4W", "dateTime": 1515872174915}, {"current_trial": 175, "trialdata": {"rt": -1, "trial_type": "single-stim", "word": "marrow", "stimulus": "<p id=\"stim\">MARROW</p>", "conditions": [24, 1600, "v", 12000], "internal_node_id": "0.0-130.0", "trial": 4, "time_elapsed": 842263, "serialpos": 18, "key_press": -1, "wordID": 871, "type": "PRES_VIS", "trial_index": 175}, "uniqueid": "MTK1388:3ON104KXQL3ENI4YL6FRFTJMMT5W4W", "dateTime": 1515872177364}, {"current_trial": 176, "trialdata": {"rt": -1, "trial_type": "single-stim", "word": "rebel", "stimulus": "<p id=\"stim\">REBEL</p>", "conditions": [24, 1600, "v", 12000], "internal_node_id": "0.0-131.0", "trial": 4, "time_elapsed": 844915, "serialpos": 19, "key_press": -1, "wordID": 1171, "type": "PRES_VIS", "trial_index": 176}, "uniqueid": "MTK1388:3ON104KXQL3ENI4YL6FRFTJMMT5W4W", "dateTime": 1515872180017}, {"current_trial": 177, "trialdata": {"rt": -1, "trial_type": "single-stim", "word": "hamper", "stimulus": "<p id=\"stim\">HAMPER</p>", "conditions": [24, 1600, "v", 12000], "internal_node_id": "0.0-132.0", "trial": 4, "time_elapsed": 847347, "serialpos": 20, "key_press": -1, "wordID": 681, "type": "PRES_VIS", "trial_index": 177}, "uniqueid": "MTK1388:3ON104KXQL3ENI4YL6FRFTJMMT5W4W", "dateTime": 1515872182448}, {"current_trial": 178, "trialdata": {"rt": -1, "trial_type": "single-stim", "word": "thread", "stimulus": "<p id=\"stim\">THREAD</p>", "conditions": [24, 1600, "v", 12000], "internal_node_id": "0.0-133.0", "trial": 4, "time_elapsed": 850081, "serialpos": 21, "key_press": -1, "wordID": 1459, "type": "PRES_VIS", "trial_index": 178}, "uniqueid": "MTK1388:3ON104KXQL3ENI4YL6FRFTJMMT5W4W", "dateTime": 1515872185182}, {"current_trial": 179, "trialdata": {"rt": -1, "trial_type": "single-stim", "word": "country", "stimulus": "<p id=\"stim\">COUNTRY</p>", "conditions": [24, 1600, "v", 12000], "internal_node_id": "0.0-134.0", "trial": 4, "time_elapsed": 852625, "serialpos": 22, "key_press": -1, "wordID": 387, "type": "PRES_VIS", "trial_index": 179}, "uniqueid": "MTK1388:3ON104KXQL3ENI4YL6FRFTJMMT5W4W", "dateTime": 1515872187726}, {"current_trial": 180, "trialdata": {"rt": -1, "trial_type": "single-stim", "word": "pastry", "stimulus": "<p id=\"stim\">PASTRY</p>", "conditions": [24, 1600, "v", 12000], "internal_node_id": "0.0-135.0", "trial": 4, "time_elapsed": 855118, "serialpos": 23, "key_press": -1, "wordID": 1021, "type": "PRES_VIS", "trial_index": 180}, "uniqueid": "MTK1388:3ON104KXQL3ENI4YL6FRFTJMMT5W4W", "dateTime": 1515872190220}, {"current_trial": 181, "trialdata": {"rt": -1, "trial_type": "single-stim", "stimulus": "", "internal_node_id": "0.0-136.0-0.0", "time_elapsed": 857624, "key_press": -1, "type": "PRE_RECALL_DELAY", "trial_index": 181}, "uniqueid": "MTK1388:3ON104KXQL3ENI4YL6FRFTJMMT5W4W", "dateTime": 1515872192725}, {"current_trial": 182, "trialdata": {"rt": -1000, "trial_type": "single-audio", "stimulus": "/static/audio/400Hz.wav", "internal_node_id": "0.0-137.0", "time_elapsed": 858126, "key_press": -1, "type": "PRE_RECALL_ALERT", "trial_index": 182}, "uniqueid": "MTK1388:3ON104KXQL3ENI4YL6FRFTJMMT5W4W", "dateTime": 1515872193227}, {"current_trial": 183, "trialdata": {"rt": [6198, 11607, 14422, 16758, 19310, 20998, 29314, 33666, 40122, 42890, 55598], "recwords": ["shirt", "scouple", "sister", "widow", "parent", "milk", "oyster", "sandwich", "country", "thread", "parent"], "key_times": [1536, 2366, 2798, 3814, 4119, 4375, 4934, 5470, 5558, 6198, 8318, 8686, 9134, 9862, 10374, 10582, 10918, 11607, 12662, 13062, 13350, 13638, 13798, 13934, 14422, 14958, 15430, 15678, 15934, 16318, 16758, 17253, 17624, 17814, 18142, 18726, 18974, 19310, 19782, 19958, 20150, 20662, 20998, 27163, 28034, 28298, 28522, 28690, 28826, 29314, 29858, 30036, 30466, 31378, 32114, 32546, 33194, 33298, 33666, 37747, 38138, 38251, 38538, 39154, 39346, 39492, 40122, 40698, 41338, 41674, 41866, 42074, 42330, 42890, 53352, 53943, 54143, 54303, 54871, 55111, 55598], "trial_type": "free-recall", "conditions": [24, 1600, "v", 12000], "internal_node_id": "0.0-138.0-0.0", "key_presses": [80, 8, 83, 72, 73, 84, 8, 82, 84, 13, 83, 67, 79, 85, 80, 76, 69, 13, 83, 73, 83, 84, 69, 82, 13, 87, 73, 68, 79, 87, 13, 80, 65, 82, 69, 78, 84, 13, 77, 73, 76, 75, 13, 79, 89, 83, 84, 69, 82, 13, 83, 65, 78, 68, 87, 73, 67, 72, 13, 67, 79, 85, 78, 84, 82, 89, 13, 84, 72, 82, 69, 65, 68, 13, 80, 65, 82, 69, 78, 84, 13], "trial": 4, "time_elapsed": 918134, "type": "FREE_RECALL", "trial_index": 183}, "uniqueid": "MTK1388:3ON104KXQL3ENI4YL6FRFTJMMT5W4W", "dateTime": 1515872253239}, {"current_trial": 184, "trialdata": {"rt": 1387, "trial_type": "text", "internal_node_id": "0.0-139.0", "time_elapsed": 921528, "key_press": 13, "type": "INSTRUCTIONS", "trial_index": 184}, "uniqueid": "MTK1388:3ON104KXQL3ENI4YL6FRFTJMMT5W4W", "dateTime": 1515872256630}, {"current_trial": 185, "trialdata": {"rt": [3886, 7030, 10693, 19474, 22258], "trial_type": "math-distractor", "key_times": [3302, 3430, 3886, 6438, 6558, 7030, 9927, 10342, 10693, 18746, 18890, 19474, 21675, 21738, 22258], "responses": ["11", "11", "16", "23", "13"], "num2": [2, 4, 1, 5, 2, 7], "num3": [6, 4, 7, 9, 4, 2], "conditions": [12, 800, "v", 24000], "internal_node_id": "0.0-140.0", "key_presses": [49, 49, 13, 49, 49, 13, 49, 54, 13, 50, 51, 13, 49, 51, 13], "trial": 5, "time_elapsed": 947532, "type": "DISTRACTOR", "trial_index": 185, "num1": [3, 3, 8, 9, 7, 9]}, "uniqueid": "MTK1388:3ON104KXQL3ENI4YL6FRFTJMMT5W4W", "dateTime": 1515872282633}, {"current_trial": 186, "trialdata": {"rt": -1, "trial_type": "single-stim", "stimulus": "<p id=\"stim\">10</p>", "internal_node_id": "0.0-141.0-0.0", "time_elapsed": 950537, "key_press": -1, "trial_index": 186}, "uniqueid": "MTK1388:3ON104KXQL3ENI4YL6FRFTJMMT5W4W", "dateTime": 1515872285638}, {"current_trial": 187, "trialdata": {"rt": -1, "trial_type": "single-stim", "stimulus": "<p id=\"stim\">9</p>", "internal_node_id": "0.0-141.0-1.0", "time_elapsed": 951540, "key_press": -1, "trial_index": 187}, "uniqueid": "MTK1388:3ON104KXQL3ENI4YL6FRFTJMMT5W4W", "dateTime": 1515872286642}, {"current_trial": 188, "trialdata": {"rt": -1, "trial_type": "single-stim", "stimulus": "<p id=\"stim\">8</p>", "internal_node_id": "0.0-141.0-2.0", "time_elapsed": 952545, "key_press": -1, "trial_index": 188}, "uniqueid": "MTK1388:3ON104KXQL3ENI4YL6FRFTJMMT5W4W", "dateTime": 1515872287647}, {"current_trial": 189, "trialdata": {"rt": -1, "trial_type": "single-stim", "stimulus": "<p id=\"stim\">7</p>", "internal_node_id": "0.0-141.0-3.0", "time_elapsed": 953547, "key_press": -1, "trial_index": 189}, "uniqueid": "MTK1388:3ON104KXQL3ENI4YL6FRFTJMMT5W4W", "dateTime": 1515872288648}, {"current_trial": 190, "trialdata": {"rt": -1, "trial_type": "single-stim", "stimulus": "<p id=\"stim\">6</p>", "internal_node_id": "0.0-141.0-4.0", "time_elapsed": 954554, "key_press": -1, "trial_index": 190}, "uniqueid": "MTK1388:3ON104KXQL3ENI4YL6FRFTJMMT5W4W", "dateTime": 1515872289655}, {"current_trial": 191, "trialdata": {"rt": -1, "trial_type": "single-stim", "stimulus": "<p id=\"stim\">5</p>", "internal_node_id": "0.0-141.0-5.0", "time_elapsed": 955555, "key_press": -1, "trial_index": 191}, "uniqueid": "MTK1388:3ON104KXQL3ENI4YL6FRFTJMMT5W4W", "dateTime": 1515872290657}, {"current_trial": 192, "trialdata": {"rt": -1, "trial_type": "single-stim", "stimulus": "<p id=\"stim\">4</p>", "internal_node_id": "0.0-141.0-6.0", "time_elapsed": 956562, "key_press": -1, "trial_index": 192}, "uniqueid": "MTK1388:3ON104KXQL3ENI4YL6FRFTJMMT5W4W", "dateTime": 1515872291663}, {"current_trial": 193, "trialdata": {"rt": -1, "trial_type": "single-stim", "stimulus": "<p id=\"stim\">3</p>", "internal_node_id": "0.0-141.0-7.0", "time_elapsed": 957566, "key_press": -1, "trial_index": 193}, "uniqueid": "MTK1388:3ON104KXQL3ENI4YL6FRFTJMMT5W4W", "dateTime": 1515872292667}, {"current_trial": 194, "trialdata": {"rt": -1, "trial_type": "single-stim", "stimulus": "<p id=\"stim\">2</p>", "internal_node_id": "0.0-141.0-8.0", "time_elapsed": 958570, "key_press": -1, "trial_index": 194}, "uniqueid": "MTK1388:3ON104KXQL3ENI4YL6FRFTJMMT5W4W", "dateTime": 1515872293671}, {"current_trial": 195, "trialdata": {"rt": -1, "trial_type": "single-stim", "stimulus": "<p id=\"stim\">1</p>", "internal_node_id": "0.0-141.0-9.0", "time_elapsed": 959574, "key_press": -1, "trial_index": 195}, "uniqueid": "MTK1388:3ON104KXQL3ENI4YL6FRFTJMMT5W4W", "dateTime": 1515872294675}, {"current_trial": 196, "trialdata": {"rt": -1, "trial_type": "single-stim", "stimulus": "<p id=\"stim\">+</p>", "internal_node_id": "0.0-142.0-0.0", "time_elapsed": 961077, "key_press": -1, "type": "FIXATION", "trial_index": 196}, "uniqueid": "MTK1388:3ON104KXQL3ENI4YL6FRFTJMMT5W4W", "dateTime": 1515872296178}, {"current_trial": 197, "trialdata": {"rt": -1, "trial_type": "single-stim", "word": "elbow", "stimulus": "<p id=\"stim\">ELBOW</p>", "conditions": [12, 800, "v", 24000], "internal_node_id": "0.0-143.0", "trial": 5, "time_elapsed": 961883, "serialpos": 0, "key_press": -1, "wordID": 519, "type": "PRES_VIS", "trial_index": 197}, "uniqueid": "MTK1388:3ON104KXQL3ENI4YL6FRFTJMMT5W4W", "dateTime": 1515872296985}, {"current_trial": 198, "trialdata": {"rt": -1, "trial_type": "single-stim", "word": "doughnut", "stimulus": "<p id=\"stim\">DOUGHNUT</p>", "conditions": [12, 800, "v", 24000], "internal_node_id": "0.0-144.0", "trial": 5, "time_elapsed": 963584, "serialpos": 1, "key_press": -1, "wordID": 489, "type": "PRES_VIS", "trial_index": 198}, "uniqueid": "MTK1388:3ON104KXQL3ENI4YL6FRFTJMMT5W4W", "dateTime": 1515872298686}, {"current_trial": 199, "trialdata": {"rt": -1, "trial_type": "single-stim", "word": "seal", "stimulus": "<p id=\"stim\">SEAL</p>", "conditions": [12, 800, "v", 24000], "internal_node_id": "0.0-145.0", "trial": 5, "time_elapsed": 965546, "serialpos": 2, "key_press": -1, "wordID": 1261, "type": "PRES_VIS", "trial_index": 199}, "uniqueid": "MTK1388:3ON104KXQL3ENI4YL6FRFTJMMT5W4W", "dateTime": 1515872300647}, {"current_trial": 200, "trialdata": {"rt": -1, "trial_type": "single-stim", "word": "kleenex", "stimulus": "<p id=\"stim\">KLEENEX</p>", "conditions": [12, 800, "v", 24000], "internal_node_id": "0.0-146.0", "trial": 5, "time_elapsed": 967423, "serialpos": 3, "key_press": -1, "wordID": 781, "type": "PRES_VIS", "trial_index": 200}, "uniqueid": "MTK1388:3ON104KXQL3ENI4YL6FRFTJMMT5W4W", "dateTime": 1515872302524}, {"current_trial": 201, "trialdata": {"rt": -1, "trial_type": "single-stim", "word": "compass", "stimulus": "<p id=\"stim\">COMPASS</p>", "conditions": [12, 800, "v", 24000], "internal_node_id": "0.0-147.0", "trial": 5, "time_elapsed": 969226, "serialpos": 4, "key_press": -1, "wordID": 357, "type": "PRES_VIS", "trial_index": 201}, "uniqueid": "MTK1388:3ON104KXQL3ENI4YL6FRFTJMMT5W4W", "dateTime": 1515872304327}, {"current_trial": 202, "trialdata": {"rt": -1, "trial_type": "single-stim", "word": "crown", "stimulus": "<p id=\"stim\">CROWN</p>", "conditions": [12, 800, "v", 24000], "internal_node_id": "0.0-148.0", "trial": 5, "time_elapsed": 970897, "serialpos": 5, "key_press": -1, "wordID": 414, "type": "PRES_VIS", "trial_index": 202}, "uniqueid": "MTK1388:3ON104KXQL3ENI4YL6FRFTJMMT5W4W", "dateTime": 1515872305999}, {"current_trial": 203, "trialdata": {"rt": -1, "trial_type": "single-stim", "word": "canyon", "stimulus": "<p id=\"stim\">CANYON</p>", "conditions": [12, 800, "v", 24000], "internal_node_id": "0.0-149.0", "trial": 5, "time_elapsed": 972888, "serialpos": 6, "key_press": -1, "wordID": 234, "type": "PRES_VIS", "trial_index": 203}, "uniqueid": "MTK1388:3ON104KXQL3ENI4YL6FRFTJMMT5W4W", "dateTime": 1515872307989}, {"current_trial": 204, "trialdata": {"rt": -1, "trial_type": "single-stim", "word": "valley", "stimulus": "<p id=\"stim\">VALLEY</p>", "conditions": [12, 800, "v", 24000], "internal_node_id": "0.0-150.0", "trial": 5, "time_elapsed": 974705, "serialpos": 7, "key_press": -1, "wordID": 1544, "type": "PRES_VIS", "trial_index": 204}, "uniqueid": "MTK1388:3ON104KXQL3ENI4YL6FRFTJMMT5W4W", "dateTime": 1515872309806}, {"current_trial": 205, "trialdata": {"rt": -1, "trial_type": "single-stim", "word": "ankle", "stimulus": "<p id=\"stim\">ANKLE</p>", "conditions": [12, 800, "v", 24000], "internal_node_id": "0.0-151.0", "trial": 5, "time_elapsed": 976417, "serialpos": 8, "key_press": -1, "wordID": 23, "type": "PRES_VIS", "trial_index": 205}, "uniqueid": "MTK1388:3ON104KXQL3ENI4YL6FRFTJMMT5W4W", "dateTime": 1515872311518}, {"current_trial": 206, "trialdata": {"rt": -1, "trial_type": "single-stim", "word": "space", "stimulus": "<p id=\"stim\">SPACE</p>", "conditions": [12, 800, "v", 24000], "internal_node_id": "0.0-152.0", "trial": 5, "time_elapsed": 978268, "serialpos": 9, "key_press": -1, "wordID": 1344, "type": "PRES_VIS", "trial_index": 206}, "uniqueid": "MTK1388:3ON104KXQL3ENI4YL6FRFTJMMT5W4W", "dateTime": 1515872313369}, {"current_trial": 207, "trialdata": {"rt": -1, "trial_type": "single-stim", "word": "relish", "stimulus": "<p id=\"stim\">RELISH</p>", "conditions": [12, 800, "v", 24000], "internal_node_id": "0.0-153.0", "trial": 5, "time_elapsed": 980068, "serialpos": 10, "key_press": -1, "wordID": 1182, "type": "PRES_VIS", "trial_index": 207}, "uniqueid": "MTK1388:3ON104KXQL3ENI4YL6FRFTJMMT5W4W", "dateTime": 1515872315169}, {"current_trial": 208, "trialdata": {"rt": -1, "trial_type": "single-stim", "word": "frame", "stimulus": "<p id=\"stim\">FRAME</p>", "conditions": [12, 800, "v", 24000], "internal_node_id": "0.0-154.0", "trial": 5, "time_elapsed": 982057, "serialpos": 11, "key_press": -1, "wordID": 599, "type": "PRES_VIS", "trial_index": 208}, "uniqueid": "MTK1388:3ON104KXQL3ENI4YL6FRFTJMMT5W4W", "dateTime": 1515872317158}, {"current_trial": 209, "trialdata": {"rt": -1, "trial_type": "single-stim", "stimulus": "", "internal_node_id": "0.0-155.0-0.0", "time_elapsed": 984478, "key_press": -1, "type": "PRE_RECALL_DELAY", "trial_index": 209}, "uniqueid": "MTK1388:3ON104KXQL3ENI4YL6FRFTJMMT5W4W", "dateTime": 1515872319579}, {"current_trial": 210, "trialdata": {"rt": -1000, "trial_type": "single-audio", "stimulus": "/static/audio/400Hz.wav", "internal_node_id": "0.0-156.0", "time_elapsed": 984980, "key_press": -1, "type": "PRE_RECALL_ALERT", "trial_index": 210}, "uniqueid": "MTK1388:3ON104KXQL3ENI4YL6FRFTJMMT5W4W", "dateTime": 1515872320081}, {"current_trial": 211, "trialdata": {"rt": [3896, 13368, 15080, 17647, 20743, 25112], "recwords": ["elbow", "dounut", "seal", "cannon", "vally", "plain"], "key_times": [1912, 2472, 2880, 3280, 3631, 3896, 7064, 7456, 7881, 8664, 8832, 9271, 9423, 9544, 9664, 9792, 9911, 10504, 10856, 11488, 11984, 12176, 12568, 12728, 12992, 13368, 14000, 14327, 14521, 14768, 15080, 15664, 15960, 16560, 16807, 17032, 17248, 17647, 19329, 19655, 20008, 20159, 20439, 20743, 23488, 23584, 24160, 24768, 24856, 25112], "trial_type": "free-recall", "conditions": [12, 800, "v", 24000], "internal_node_id": "0.0-157.0-0.0", "key_presses": [69, 76, 66, 79, 87, 32, 78, 65, 80, 75, 73, 8, 8, 8, 8, 8, 8, 68, 79, 85, 78, 73, 8, 85, 84, 13, 83, 69, 65, 76, 13, 67, 65, 78, 78, 79, 78, 13, 86, 65, 76, 76, 89, 13, 80, 76, 65, 73, 78, 13], "trial": 5, "time_elapsed": 1044984, "type": "FREE_RECALL", "trial_index": 211}, "uniqueid": "MTK1388:3ON104KXQL3ENI4YL6FRFTJMMT5W4W", "dateTime": 1515872380088}, {"current_trial": 212, "trialdata": {"rt": 1276, "trial_type": "text", "internal_node_id": "0.0-158.0", "time_elapsed": 1048267, "key_press": 13, "type": "INSTRUCTIONS", "trial_index": 212}, "uniqueid": "MTK1388:3ON104KXQL3ENI4YL6FRFTJMMT5W4W", "dateTime": 1515872383368}, {"current_trial": 213, "trialdata": {"rt": [3028, 5444, 7900, 9836], "trial_type": "math-distractor", "key_times": [2341, 2604, 3028, 4909, 4948, 5444, 7212, 7468, 7900, 9173, 9332, 9836, 11940], "responses": ["14", "12", "16", "11"], "num2": [8, 4, 6, 1, 5], "num3": [3, 4, 1, 5, 1], "conditions": [12, 800, "v", 12000], "internal_node_id": "0.0-159.0", "key_presses": [49, 52, 13, 49, 50, 13, 49, 54, 13, 49, 49, 13, 49], "trial": 6, "time_elapsed": 1062274, "type": "DISTRACTOR", "trial_index": 213, "num1": [3, 4, 9, 5, 8]}, "uniqueid": "MTK1388:3ON104KXQL3ENI4YL6FRFTJMMT5W4W", "dateTime": 1515872397376}, {"current_trial": 214, "trialdata": {"rt": -1, "trial_type": "single-stim", "stimulus": "<p id=\"stim\">10</p>", "internal_node_id": "0.0-160.0-0.0", "time_elapsed": 1065284, "key_press": -1, "trial_index": 214}, "uniqueid": "MTK1388:3ON104KXQL3ENI4YL6FRFTJMMT5W4W", "dateTime": 1515872400385}, {"current_trial": 215, "trialdata": {"rt": -1, "trial_type": "single-stim", "stimulus": "<p id=\"stim\">9</p>", "internal_node_id": "0.0-160.0-1.0", "time_elapsed": 1066288, "key_press": -1, "trial_index": 215}, "uniqueid": "MTK1388:3ON104KXQL3ENI4YL6FRFTJMMT5W4W", "dateTime": 1515872401389}, {"current_trial": 216, "trialdata": {"rt": -1, "trial_type": "single-stim", "stimulus": "<p id=\"stim\">8</p>", "internal_node_id": "0.0-160.0-2.0", "time_elapsed": 1067292, "key_press": -1, "trial_index": 216}, "uniqueid": "MTK1388:3ON104KXQL3ENI4YL6FRFTJMMT5W4W", "dateTime": 1515872402393}, {"current_trial": 217, "trialdata": {"rt": -1, "trial_type": "single-stim", "stimulus": "<p id=\"stim\">7</p>", "internal_node_id": "0.0-160.0-3.0", "time_elapsed": 1068297, "key_press": -1, "trial_index": 217}, "uniqueid": "MTK1388:3ON104KXQL3ENI4YL6FRFTJMMT5W4W", "dateTime": 1515872403398}, {"current_trial": 218, "trialdata": {"rt": -1, "trial_type": "single-stim", "stimulus": "<p id=\"stim\">6</p>", "internal_node_id": "0.0-160.0-4.0", "time_elapsed": 1069300, "key_press": -1, "trial_index": 218}, "uniqueid": "MTK1388:3ON104KXQL3ENI4YL6FRFTJMMT5W4W", "dateTime": 1515872404402}, {"current_trial": 219, "trialdata": {"rt": -1, "trial_type": "single-stim", "stimulus": "<p id=\"stim\">5</p>", "internal_node_id": "0.0-160.0-5.0", "time_elapsed": 1070305, "key_press": -1, "trial_index": 219}, "uniqueid": "MTK1388:3ON104KXQL3ENI4YL6FRFTJMMT5W4W", "dateTime": 1515872405406}, {"current_trial": 220, "trialdata": {"rt": -1, "trial_type": "single-stim", "stimulus": "<p id=\"stim\">4</p>", "internal_node_id": "0.0-160.0-6.0", "time_elapsed": 1071309, "key_press": -1, "trial_index": 220}, "uniqueid": "MTK1388:3ON104KXQL3ENI4YL6FRFTJMMT5W4W", "dateTime": 1515872406410}, {"current_trial": 221, "trialdata": {"rt": -1, "trial_type": "single-stim", "stimulus": "<p id=\"stim\">3</p>", "internal_node_id": "0.0-160.0-7.0", "time_elapsed": 1072313, "key_press": -1, "trial_index": 221}, "uniqueid": "MTK1388:3ON104KXQL3ENI4YL6FRFTJMMT5W4W", "dateTime": 1515872407414}, {"current_trial": 222, "trialdata": {"rt": -1, "trial_type": "single-stim", "stimulus": "<p id=\"stim\">2</p>", "internal_node_id": "0.0-160.0-8.0", "time_elapsed": 1073317, "key_press": -1, "trial_index": 222}, "uniqueid": "MTK1388:3ON104KXQL3ENI4YL6FRFTJMMT5W4W", "dateTime": 1515872408418}, {"current_trial": 223, "trialdata": {"rt": -1, "trial_type": "single-stim", "stimulus": "<p id=\"stim\">1</p>", "internal_node_id": "0.0-160.0-9.0", "time_elapsed": 1074321, "key_press": -1, "trial_index": 223}, "uniqueid": "MTK1388:3ON104KXQL3ENI4YL6FRFTJMMT5W4W", "dateTime": 1515872409422}, {"current_trial": 224, "trialdata": {"rt": -1, "trial_type": "single-stim", "stimulus": "<p id=\"stim\">+</p>", "internal_node_id": "0.0-161.0-0.0", "time_elapsed": 1075824, "key_press": -1, "type": "FIXATION", "trial_index": 224}, "uniqueid": "MTK1388:3ON104KXQL3ENI4YL6FRFTJMMT5W4W", "dateTime": 1515872410926}, {"current_trial": 225, "trialdata": {"rt": -1, "trial_type": "single-stim", "word": "soda", "stimulus": "<p id=\"stim\">SODA</p>", "conditions": [12, 800, "v", 12000], "internal_node_id": "0.0-162.0", "trial": 6, "time_elapsed": 1076631, "serialpos": 0, "key_press": -1, "wordID": 1340, "type": "PRES_VIS", "trial_index": 225}, "uniqueid": "MTK1388:3ON104KXQL3ENI4YL6FRFTJMMT5W4W", "dateTime": 1515872411732}, {"current_trial": 226, "trialdata": {"rt": -1, "trial_type": "single-stim", "word": "transplant", "stimulus": "<p id=\"stim\">TRANSPLANT</p>", "conditions": [12, 800, "v", 12000], "internal_node_id": "0.0-163.0", "trial": 6, "time_elapsed": 1078239, "serialpos": 1, "key_press": -1, "wordID": 1495, "type": "PRES_VIS", "trial_index": 226}, "uniqueid": "MTK1388:3ON104KXQL3ENI4YL6FRFTJMMT5W4W", "dateTime": 1515872413340}, {"current_trial": 227, "trialdata": {"rt": -1, "trial_type": "single-stim", "word": "drug", "stimulus": "<p id=\"stim\">DRUG</p>", "conditions": [12, 800, "v", 12000], "internal_node_id": "0.0-164.0", "trial": 6, "time_elapsed": 1080136, "serialpos": 2, "key_press": -1, "wordID": 500, "type": "PRES_VIS", "trial_index": 227}, "uniqueid": "MTK1388:3ON104KXQL3ENI4YL6FRFTJMMT5W4W", "dateTime": 1515872415238}, {"current_trial": 228, "trialdata": {"rt": -1, "trial_type": "single-stim", "word": "clothes", "stimulus": "<p id=\"stim\">CLOTHES</p>", "conditions": [12, 800, "v", 12000], "internal_node_id": "0.0-165.0", "trial": 6, "time_elapsed": 1082098, "serialpos": 3, "key_press": -1, "wordID": 326, "type": "PRES_VIS", "trial_index": 228}, "uniqueid": "MTK1388:3ON104KXQL3ENI4YL6FRFTJMMT5W4W", "dateTime": 1515872417199}, {"current_trial": 229, "trialdata": {"rt": -1, "trial_type": "single-stim", "word": "snake", "stimulus": "<p id=\"stim\">SNAKE</p>", "conditions": [12, 800, "v", 12000], "internal_node_id": "0.0-166.0", "trial": 6, "time_elapsed": 1083781, "serialpos": 4, "key_press": -1, "wordID": 1332, "type": "PRES_VIS", "trial_index": 229}, "uniqueid": "MTK1388:3ON104KXQL3ENI4YL6FRFTJMMT5W4W", "dateTime": 1515872418883}, {"current_trial": 230, "trialdata": {"rt": -1, "trial_type": "single-stim", "word": "blender", "stimulus": "<p id=\"stim\">BLENDER</p>", "conditions": [12, 800, "v", 12000], "internal_node_id": "0.0-167.0", "trial": 6, "time_elapsed": 1085395, "serialpos": 5, "key_press": -1, "wordID": 135, "type": "PRES_VIS", "trial_index": 230}, "uniqueid": "MTK1388:3ON104KXQL3ENI4YL6FRFTJMMT5W4W", "dateTime": 1515872420496}, {"current_trial": 231, "trialdata": {"rt": -1, "trial_type": "single-stim", "word": "bouquet", "stimulus": "<p id=\"stim\">BOUQUET</p>", "conditions": [12, 800, "v", 12000], "internal_node_id": "0.0-168.0", "trial": 6, "time_elapsed": 1087345, "serialpos": 6, "key_press": -1, "wordID": 156, "type": "PRES_VIS", "trial_index": 231}, "uniqueid": "MTK1388:3ON104KXQL3ENI4YL6FRFTJMMT5W4W", "dateTime": 1515872422446}, {"current_trial": 232, "trialdata": {"rt": -1, "trial_type": "single-stim", "word": "kitchen", "stimulus": "<p id=\"stim\">KITCHEN</p>", "conditions": [12, 800, "v", 12000], "internal_node_id": "0.0-169.0", "trial": 6, "time_elapsed": 1089110, "serialpos": 7, "key_press": -1, "wordID": 777, "type": "PRES_VIS", "trial_index": 232}, "uniqueid": "MTK1388:3ON104KXQL3ENI4YL6FRFTJMMT5W4W", "dateTime": 1515872424211}, {"current_trial": 233, "trialdata": {"rt": -1, "trial_type": "single-stim", "word": "basement", "stimulus": "<p id=\"stim\">BASEMENT</p>", "conditions": [12, 800, "v", 12000], "internal_node_id": "0.0-170.0", "trial": 6, "time_elapsed": 1090775, "serialpos": 8, "key_press": -1, "wordID": 93, "type": "PRES_VIS", "trial_index": 233}, "uniqueid": "MTK1388:3ON104KXQL3ENI4YL6FRFTJMMT5W4W", "dateTime": 1515872425876}, {"current_trial": 234, "trialdata": {"rt": -1, "trial_type": "single-stim", "word": "bucket", "stimulus": "<p id=\"stim\">BUCKET</p>", "conditions": [12, 800, "v", 12000], "internal_node_id": "0.0-171.0", "trial": 6, "time_elapsed": 1092656, "serialpos": 9, "key_press": -1, "wordID": 183, "type": "PRES_VIS", "trial_index": 234}, "uniqueid": "MTK1388:3ON104KXQL3ENI4YL6FRFTJMMT5W4W", "dateTime": 1515872427757}, {"current_trial": 235, "trialdata": {"rt": -1, "trial_type": "single-stim", "word": "omelet", "stimulus": "<p id=\"stim\">OMELET</p>", "conditions": [12, 800, "v", 12000], "internal_node_id": "0.0-172.0", "trial": 6, "time_elapsed": 1094269, "serialpos": 10, "key_press": -1, "wordID": 975, "type": "PRES_VIS", "trial_index": 235}, "uniqueid": "MTK1388:3ON104KXQL3ENI4YL6FRFTJMMT5W4W", "dateTime": 1515872429370}, {"current_trial": 236, "trialdata": {"rt": -1, "trial_type": "single-stim", "word": "coffee", "stimulus": "<p id=\"stim\">COFFEE</p>", "conditions": [12, 800, "v", 12000], "internal_node_id": "0.0-173.0", "trial": 6, "time_elapsed": 1096260, "serialpos": 11, "key_press": -1, "wordID": 340, "type": "PRES_VIS", "trial_index": 236}, "uniqueid": "MTK1388:3ON104KXQL3ENI4YL6FRFTJMMT5W4W", "dateTime": 1515872431361}, {"current_trial": 237, "trialdata": {"rt": -1, "trial_type": "single-stim", "stimulus": "", "internal_node_id": "0.0-174.0-0.0", "time_elapsed": 1098729, "key_press": -1, "type": "PRE_RECALL_DELAY", "trial_index": 237}, "uniqueid": "MTK1388:3ON104KXQL3ENI4YL6FRFTJMMT5W4W", "dateTime": 1515872433830}, {"current_trial": 238, "trialdata": {"rt": -1000, "trial_type": "single-audio", "stimulus": "/static/audio/400Hz.wav", "internal_node_id": "0.0-175.0", "time_elapsed": 1099230, "key_press": -1, "type": "PRE_RECALL_ALERT", "trial_index": 238}, "uniqueid": "MTK1388:3ON104KXQL3ENI4YL6FRFTJMMT5W4W", "dateTime": 1515872434332}, {"current_trial": 239, "trialdata": {"rt": [2717, 9925, 12461, 15765, 18333, 23637, 32219, 52935], "recwords": ["soda", "transplant", "drug", "omlet", "coffee", "bucket", "basement", "ketchup"], "key_times": [1438, 1693, 1885, 2333, 2717, 3605, 3813, 4101, 4997, 5358, 5782, 6296, 6997, 7133, 7933, 8157, 8517, 8885, 9390, 9925, 11069, 11277, 11794, 12189, 12461, 13637, 13981, 14341, 14757, 14845, 15765, 16757, 17021, 17269, 17397, 17629, 17765, 18333, 19446, 19613, 20037, 20125, 20438, 21069, 21165, 21749, 21886, 21997, 22109, 22669, 23085, 23125, 23637, 29346, 29754, 29938, 30098, 30730, 31170, 31618, 31866, 32219, 50224, 50615, 50775, 51231, 51503, 52215, 52439, 52935], "trial_type": "free-recall", "conditions": [12, 800, "v", 12000], "internal_node_id": "0.0-176.0-0.0", "key_presses": [83, 79, 68, 65, 32, 84, 82, 65, 78, 83, 219, 80, 8, 8, 80, 76, 65, 78, 84, 13, 68, 82, 85, 71, 13, 79, 77, 76, 69, 84, 13, 67, 79, 70, 70, 69, 69, 13, 66, 85, 67, 67, 75, 69, 84, 8, 8, 8, 8, 75, 69, 84, 13, 66, 65, 83, 69, 77, 69, 78, 84, 13, 75, 69, 84, 67, 72, 85, 80, 13], "trial": 6, "time_elapsed": 1159238, "type": "FREE_RECALL", "trial_index": 239}, "uniqueid": "MTK1388:3ON104KXQL3ENI4YL6FRFTJMMT5W4W", "dateTime": 1515872494345}, {"current_trial": 240, "trialdata": {"rt": 556, "trial_type": "text", "internal_node_id": "0.0-177.0", "time_elapsed": 1161801, "key_press": 13, "type": "INSTRUCTIONS", "trial_index": 240}, "uniqueid": "MTK1388:3ON104KXQL3ENI4YL6FRFTJMMT5W4W", "dateTime": 1515872496902}, {"current_trial": 241, "trialdata": {"rt": [3201, 7473, 9729], "trial_type": "math-distractor", "key_times": [2553, 2889, 3201, 6385, 7025, 7473, 9147, 9273, 9729], "responses": ["10", "14", "11"], "num2": [2, 1, 6, 9], "num3": [2, 8, 4, 4], "conditions": [12, 1600, "v", 12000], "internal_node_id": "0.0-178.0", "key_presses": [49, 48, 13, 49, 52, 13, 49, 49, 13], "trial": 7, "time_elapsed": 1175808, "type": "DISTRACTOR", "trial_index": 241, "num1": [6, 5, 1, 5]}, "uniqueid": "MTK1388:3ON104KXQL3ENI4YL6FRFTJMMT5W4W", "dateTime": 1515872510909}, {"current_trial": 242, "trialdata": {"rt": -1, "trial_type": "single-stim", "stimulus": "<p id=\"stim\">10</p>", "internal_node_id": "0.0-179.0-0.0", "time_elapsed": 1178814, "key_press": -1, "trial_index": 242}, "uniqueid": "MTK1388:3ON104KXQL3ENI4YL6FRFTJMMT5W4W", "dateTime": 1515872513915}, {"current_trial": 243, "trialdata": {"rt": -1, "trial_type": "single-stim", "stimulus": "<p id=\"stim\">9</p>", "internal_node_id": "0.0-179.0-1.0", "time_elapsed": 1179818, "key_press": -1, "trial_index": 243}, "uniqueid": "MTK1388:3ON104KXQL3ENI4YL6FRFTJMMT5W4W", "dateTime": 1515872514919}, {"current_trial": 244, "trialdata": {"rt": -1, "trial_type": "single-stim", "stimulus": "<p id=\"stim\">8</p>", "internal_node_id": "0.0-179.0-2.0", "time_elapsed": 1180822, "key_press": -1, "trial_index": 244}, "uniqueid": "MTK1388:3ON104KXQL3ENI4YL6FRFTJMMT5W4W", "dateTime": 1515872515923}, {"current_trial": 245, "trialdata": {"rt": -1, "trial_type": "single-stim", "stimulus": "<p id=\"stim\">7</p>", "internal_node_id": "0.0-179.0-3.0", "time_elapsed": 1181826, "key_press": -1, "trial_index": 245}, "uniqueid": "MTK1388:3ON104KXQL3ENI4YL6FRFTJMMT5W4W", "dateTime": 1515872516927}, {"current_trial": 246, "trialdata": {"rt": -1, "trial_type": "single-stim", "stimulus": "<p id=\"stim\">6</p>", "internal_node_id": "0.0-179.0-4.0", "time_elapsed": 1182830, "key_press": -1, "trial_index": 246}, "uniqueid": "MTK1388:3ON104KXQL3ENI4YL6FRFTJMMT5W4W", "dateTime": 1515872517931}, {"current_trial": 247, "trialdata": {"rt": -1, "trial_type": "single-stim", "stimulus": "<p id=\"stim\">5</p>", "internal_node_id": "0.0-179.0-5.0", "time_elapsed": 1183834, "key_press": -1, "trial_index": 247}, "uniqueid": "MTK1388:3ON104KXQL3ENI4YL6FRFTJMMT5W4W", "dateTime": 1515872518936}, {"current_trial": 248, "trialdata": {"rt": -1, "trial_type": "single-stim", "stimulus": "<p id=\"stim\">4</p>", "internal_node_id": "0.0-179.0-6.0", "time_elapsed": 1184839, "key_press": -1, "trial_index": 248}, "uniqueid": "MTK1388:3ON104KXQL3ENI4YL6FRFTJMMT5W4W", "dateTime": 1515872519940}, {"current_trial": 249, "trialdata": {"rt": -1, "trial_type": "single-stim", "stimulus": "<p id=\"stim\">3</p>", "internal_node_id": "0.0-179.0-7.0", "time_elapsed": 1185843, "key_press": -1, "trial_index": 249}, "uniqueid": "MTK1388:3ON104KXQL3ENI4YL6FRFTJMMT5W4W", "dateTime": 1515872520944}, {"current_trial": 250, "trialdata": {"rt": -1, "trial_type": "single-stim", "stimulus": "<p id=\"stim\">2</p>", "internal_node_id": "0.0-179.0-8.0", "time_elapsed": 1186846, "key_press": -1, "trial_index": 250}, "uniqueid": "MTK1388:3ON104KXQL3ENI4YL6FRFTJMMT5W4W", "dateTime": 1515872521948}, {"current_trial": 251, "trialdata": {"rt": -1, "trial_type": "single-stim", "stimulus": "<p id=\"stim\">1</p>", "internal_node_id": "0.0-179.0-9.0", "time_elapsed": 1187851, "key_press": -1, "trial_index": 251}, "uniqueid": "MTK1388:3ON104KXQL3ENI4YL6FRFTJMMT5W4W", "dateTime": 1515872522952}, {"current_trial": 252, "trialdata": {"rt": -1, "trial_type": "single-stim", "stimulus": "<p id=\"stim\">+</p>", "internal_node_id": "0.0-180.0-0.0", "time_elapsed": 1189353, "key_press": -1, "type": "FIXATION", "trial_index": 252}, "uniqueid": "MTK1388:3ON104KXQL3ENI4YL6FRFTJMMT5W4W", "dateTime": 1515872524454}, {"current_trial": 253, "trialdata": {"rt": -1, "trial_type": "single-stim", "word": "puddle", "stimulus": "<p id=\"stim\">PUDDLE</p>", "conditions": [12, 1600, "v", 12000], "internal_node_id": "0.0-181.0", "trial": 7, "time_elapsed": 1190957, "serialpos": 0, "key_press": -1, "wordID": 1139, "type": "PRES_VIS", "trial_index": 253}, "uniqueid": "MTK1388:3ON104KXQL3ENI4YL6FRFTJMMT5W4W", "dateTime": 1515872526058}, {"current_trial": 254, "trialdata": {"rt": -1, "trial_type": "single-stim", "word": "jelly", "stimulus": "<p id=\"stim\">JELLY</p>", "conditions": [12, 1600, "v", 12000], "internal_node_id": "0.0-182.0", "trial": 7, "time_elapsed": 1193678, "serialpos": 1, "key_press": -1, "wordID": 754, "type": "PRES_VIS", "trial_index": 254}, "uniqueid": "MTK1388:3ON104KXQL3ENI4YL6FRFTJMMT5W4W", "dateTime": 1515872528779}, {"current_trial": 255, "trialdata": {"rt": -1, "trial_type": "single-stim", "word": "shoulder", "stimulus": "<p id