{"assignmentId": "3NXNZ5RS1B40U999UT364LVLGYU97W", "workerId": "MTK1751", "questiondata": {"origin": "United States", "strat-rehearsal": "36", "marital": "Single", "education": "Some college", "ethnicity": "Not Hispanic", "color_depth": 24, "distracted": "No", "wrote-notes": "No", "strat-other": "", "screen_width": 1366, "avail_screen_width": 1366, "avail_screen_height": 728, "strat-image": "84", "language": "English", "gender": "Male", "age": "29", "gender_other": "", "race": ["White"], "strat-categorize": "99", "pixel_depth": 24, "strat-spatial": "83", "strat-story": "59", "race_other": "", "screen_height": 768}, "bonus": 0, "hitId": "3UYRNV2KIT6NW5KSF69FB2QGECD8NU", "counterbalance": 1746, "useragent": "Mozilla/5.0 (Windows NT 10.0; Win64; x64) AppleWebKit/537.36 (KHTML, like Gecko) Chrome/63.0.3239.132 Safari/537.36", "eventdata": [{"eventtype": "initialized", "interval": 0, "value": null, "timestamp": 1516293691402}, {"eventtype": "window_resize", "interval": 0, "value": [1366, 721], "timestamp": 1516293691402}, {"eventtype": "focus", "interval": 48595, "value": "off", "timestamp": 1516293739997}, {"eventtype": "focus", "interval": 1225, "value": "on", "timestamp": 1516293741222}, {"eventtype": "focus", "interval": 4, "value": "on", "timestamp": 1516293741226}, {"eventtype": "focus", "interval": 1948, "value": "off", "timestamp": 1516293743174}, {"eventtype": "focus", "interval": 952, "value": "on", "timestamp": 1516293744126}, {"eventtype": "focus", "interval": 2, "value": "on", "timestamp": 1516293744128}, {"eventtype": "focus", "interval": 14201, "value": "off", "timestamp": 1516293758329}, {"eventtype": "focus", "interval": 1329, "value": "on", "timestamp": 1516293759658}, {"eventtype": "focus", "interval": 2, "value": "on", "timestamp": 1516293759660}, {"eventtype": "window_resize", "interval": 25824, "value": [1366, 677], "timestamp": 1516293785484}, {"eventtype": "focus", "interval": 992204, "value": "off", "timestamp": 1516294777688}, {"eventtype": "focus", "interval": 6995, "value": "on", "timestamp": 1516294784683}, {"eventtype": "focus", "interval": 807, "value": "off", "timestamp": 1516294785490}, {"eventtype": "focus", "interval": 784, "value": "on", "timestamp": 1516294786274}, {"eventtype": "window_resize", "interval": 759616, "value": [1517, 752], "timestamp": 1516295545890}, {"eventtype": "window_resize", "interval": 1001, "value": [5464, 2708], "timestamp": 1516295546891}, {"eventtype": "window_resize", "interval": 2070, "value": [1707, 846], "timestamp": 1516295548961}], "data": [{"current_trial": 0, "trialdata": {"rt": 20872, "trial_type": "text", "internal_node_id": "0.0-0.0", "time_elapsed": 20876, "key_press": 32, "type": "INSTRUCTIONS", "trial_index": 0}, "uniqueid": "MTK1751:3NXNZ5RS1B40U999UT364LVLGYU97W", "dateTime": 1516293712735}, {"current_trial": 1, "trialdata": {"rt": 2042, "trial_type": "text", "internal_node_id": "0.0-1.0", "time_elapsed": 22921, "key_press": 39, "type": "INSTRUCTIONS", "trial_index": 1}, "uniqueid": "MTK1751:3NXNZ5RS1B40U999UT364LVLGYU97W", "dateTime": 1516293714780}, {"current_trial": 2, "trialdata": {"rt": [27089], "trial_type": "audio-test", "responses": ["ocean"], "internal_node_id": "0.0-2.0", "time_elapsed": 50030, "type": "AUDIO_TEST", "trial_index": 2}, "uniqueid": "MTK1751:3NXNZ5RS1B40U999UT364LVLGYU97W", "dateTime": 1516293741889}, {"current_trial": 3, "trialdata": {"rt": [5572], "trial_type": "audio-test", "responses": ["crystal"], "internal_node_id": "0.0-3.0", "time_elapsed": 55610, "type": "AUDIO_TEST", "trial_index": 3}, "uniqueid": "MTK1751:3NXNZ5RS1B40U999UT364LVLGYU97W", "dateTime": 1516293747468}, {"current_trial": 4, "trialdata": {"rt": [8501], "trial_type": "audio-test", "responses": ["spice"], "internal_node_id": "0.0-4.0", "time_elapsed": 64120, "type": "AUDIO_TEST", "trial_index": 4}, "uniqueid": "MTK1751:3NXNZ5RS1B40U999UT364LVLGYU97W", "dateTime": 1516293755978}, {"current_trial": 5, "trialdata": {"rt": 25736, "trial_type": "survey-text", "responses": "{\"Q0\":\"11:30\",\"Q1\":\"7:45\",\"Q2\":\"5\"}", "internal_node_id": "0.0-5.0", "time_elapsed": 90612, "type": "SLEEP_SURVEY", "trial_index": 5}, "uniqueid": "MTK1751:3NXNZ5RS1B40U999UT364LVLGYU97W", "dateTime": 1516293782470}, {"current_trial": 6, "trialdata": {"rt": 48028, "trial_type": "text", "internal_node_id": "0.0-6.0", "time_elapsed": 139640, "key_press": 13, "type": "INSTRUCTIONS", "trial_index": 6}, "uniqueid": "MTK1751:3NXNZ5RS1B40U999UT364LVLGYU97W", "dateTime": 1516293831499}, {"current_trial": 7, "trialdata": {"rt": 8412, "trial_type": "text", "internal_node_id": "0.0-7.0", "time_elapsed": 148555, "key_press": 13, "type": "INSTRUCTIONS", "trial_index": 7}, "uniqueid": "MTK1751:3NXNZ5RS1B40U999UT364LVLGYU97W", "dateTime": 1516293840413}, {"current_trial": 8, "trialdata": {"rt": 3126, "trial_type": "text", "internal_node_id": "0.0-8.0", "time_elapsed": 152184, "key_press": 13, "type": "INSTRUCTIONS", "trial_index": 8}, "uniqueid": "MTK1751:3NXNZ5RS1B40U999UT364LVLGYU97W", "dateTime": 1516293844042}, {"current_trial": 9, "trialdata": {"rt": [2756, 4888, 6810, 8879, 10707, 14050, 15769, 17314], "trial_type": "math-distractor", "key_times": [2422, 2507, 2756, 4465, 4770, 4888, 6559, 6731, 6810, 8715, 8784, 8879, 10453, 10559, 10707, 13706, 13807, 14050, 15444, 15623, 15769, 17173, 17314], "responses": ["14", "16", "14", "23", "12", "13", "14", "7"], "num2": [7, 1, 2, 8, 7, 1, 6, 3, 2], "num3": [1, 9, 7, 7, 4, 5, 2, 3, 6], "conditions": [18, 1200, "v", 18000], "internal_node_id": "0.0-9.0", "key_presses": [49, 52, 13, 49, 54, 13, 49, 52, 13, 50, 51, 13, 49, 50, 13, 49, 51, 13, 49, 52, 13, 55, 13], "trial": 0, "time_elapsed": 171219, "type": "DISTRACTOR", "trial_index": 9, "num1": [6, 6, 5, 8, 1, 7, 6, 1, 9]}, "uniqueid": "MTK1751:3NXNZ5RS1B40U999UT364LVLGYU97W", "dateTime": 1516293863077}, {"current_trial": 10, "trialdata": {"rt": -1, "trial_type": "single-stim", "stimulus": "<p id=\"stim\">10</p>", "internal_node_id": "0.0-10.0-0.0", "time_elapsed": 174223, "key_press": -1, "trial_index": 10}, "uniqueid": "MTK1751:3NXNZ5RS1B40U999UT364LVLGYU97W", "dateTime": 1516293866082}, {"current_trial": 11, "trialdata": {"rt": -1, "trial_type": "single-stim", "stimulus": "<p id=\"stim\">9</p>", "internal_node_id": "0.0-10.0-1.0", "time_elapsed": 175225, "key_press": -1, "trial_index": 11}, "uniqueid": "MTK1751:3NXNZ5RS1B40U999UT364LVLGYU97W", "dateTime": 1516293867083}, {"current_trial": 12, "trialdata": {"rt": -1, "trial_type": "single-stim", "stimulus": "<p id=\"stim\">8</p>", "internal_node_id": "0.0-10.0-2.0", "time_elapsed": 176227, "key_press": -1, "trial_index": 12}, "uniqueid": "MTK1751:3NXNZ5RS1B40U999UT364LVLGYU97W", "dateTime": 1516293868085}, {"current_trial": 13, "trialdata": {"rt": -1, "trial_type": "single-stim", "stimulus": "<p id=\"stim\">7</p>", "internal_node_id": "0.0-10.0-3.0", "time_elapsed": 177231, "key_press": -1, "trial_index": 13}, "uniqueid": "MTK1751:3NXNZ5RS1B40U999UT364LVLGYU97W", "dateTime": 1516293869089}, {"current_trial": 14, "trialdata": {"rt": -1, "trial_type": "single-stim", "stimulus": "<p id=\"stim\">6</p>", "internal_node_id": "0.0-10.0-4.0", "time_elapsed": 178232, "key_press": -1, "trial_index": 14}, "uniqueid": "MTK1751:3NXNZ5RS1B40U999UT364LVLGYU97W", "dateTime": 1516293870090}, {"current_trial": 15, "trialdata": {"rt": -1, "trial_type": "single-stim", "stimulus": "<p id=\"stim\">5</p>", "internal_node_id": "0.0-10.0-5.0", "time_elapsed": 179234, "key_press": -1, "trial_index": 15}, "uniqueid": "MTK1751:3NXNZ5RS1B40U999UT364LVLGYU97W", "dateTime": 1516293871092}, {"current_trial": 16, "trialdata": {"rt": -1, "trial_type": "single-stim", "stimulus": "<p id=\"stim\">4</p>", "internal_node_id": "0.0-10.0-6.0", "time_elapsed": 180235, "key_press": -1, "trial_index": 16}, "uniqueid": "MTK1751:3NXNZ5RS1B40U999UT364LVLGYU97W", "dateTime": 1516293872093}, {"current_trial": 17, "trialdata": {"rt": -1, "trial_type": "single-stim", "stimulus": "<p id=\"stim\">3</p>", "internal_node_id": "0.0-10.0-7.0", "time_elapsed": 181238, "key_press": -1, "trial_index": 17}, "uniqueid": "MTK1751:3NXNZ5RS1B40U999UT364LVLGYU97W", "dateTime": 1516293873096}, {"current_trial": 18, "trialdata": {"rt": -1, "trial_type": "single-stim", "stimulus": "<p id=\"stim\">2</p>", "internal_node_id": "0.0-10.0-8.0", "time_elapsed": 182240, "key_press": -1, "trial_index": 18}, "uniqueid": "MTK1751:3NXNZ5RS1B40U999UT364LVLGYU97W", "dateTime": 1516293874098}, {"current_trial": 19, "trialdata": {"rt": -1, "trial_type": "single-stim", "stimulus": "<p id=\"stim\">1</p>", "internal_node_id": "0.0-10.0-9.0", "time_elapsed": 183242, "key_press": -1, "trial_index": 19}, "uniqueid": "MTK1751:3NXNZ5RS1B40U999UT364LVLGYU97W", "dateTime": 1516293875100}, {"current_trial": 20, "trialdata": {"rt": -1, "trial_type": "single-stim", "stimulus": "<p id=\"stim\">+</p>", "internal_node_id": "0.0-11.0-0.0", "time_elapsed": 184746, "key_press": -1, "type": "FIXATION", "trial_index": 20}, "uniqueid": "MTK1751:3NXNZ5RS1B40U999UT364LVLGYU97W", "dateTime": 1516293876604}, {"current_trial": 21, "trialdata": {"rt": -1, "trial_type": "single-stim", "word": "cloud", "stimulus": "<p id=\"stim\">CLOUD</p>", "conditions": [18, 1200, "v", 18000], "internal_node_id": "0.0-12.0", "trial": 0, "time_elapsed": 185948, "serialpos": 0, "key_press": -1, "wordID": 327, "type": "PRES_VIS", "trial_index": 21}, "uniqueid": "MTK1751:3NXNZ5RS1B40U999UT364LVLGYU97W", "dateTime": 1516293877806}, {"current_trial": 22, "trialdata": {"rt": -1, "trial_type": "single-stim", "word": "hedge", "stimulus": "<p id=\"stim\">HEDGE</p>", "conditions": [18, 1200, "v", 18000], "internal_node_id": "0.0-13.0", "trial": 0, "time_elapsed": 188243, "serialpos": 1, "key_press": -1, "wordID": 698, "type": "PRES_VIS", "trial_index": 22}, "uniqueid": "MTK1751:3NXNZ5RS1B40U999UT364LVLGYU97W", "dateTime": 1516293880101}, {"current_trial": 23, "trialdata": {"rt": -1, "trial_type": "single-stim", "word": "agent", "stimulus": "<p id=\"stim\">AGENT</p>", "conditions": [18, 1200, "v", 18000], "internal_node_id": "0.0-14.0", "trial": 0, "time_elapsed": 190291, "serialpos": 2, "key_press": -1, "wordID": 9, "type": "PRES_VIS", "trial_index": 23}, "uniqueid": "MTK1751:3NXNZ5RS1B40U999UT364LVLGYU97W", "dateTime": 1516293882149}, {"current_trial": 24, "trialdata": {"rt": -1, "trial_type": "single-stim", "word": "drill", "stimulus": "<p id=\"stim\">DRILL</p>", "conditions": [18, 1200, "v", 18000], "internal_node_id": "0.0-15.0", "trial": 0, "time_elapsed": 192577, "serialpos": 3, "key_press": -1, "wordID": 496, "type": "PRES_VIS", "trial_index": 24}, "uniqueid": "MTK1751:3NXNZ5RS1B40U999UT364LVLGYU97W", "dateTime": 1516293884435}, {"current_trial": 25, "trialdata": {"rt": -1, "trial_type": "single-stim", "word": "pistol", "stimulus": "<p id=\"stim\">PISTOL</p>", "conditions": [18, 1200, "v", 18000], "internal_node_id": "0.0-16.0", "trial": 0, "time_elapsed": 194946, "serialpos": 4, "key_press": -1, "wordID": 1074, "type": "PRES_VIS", "trial_index": 25}, "uniqueid": "MTK1751:3NXNZ5RS1B40U999UT364LVLGYU97W", "dateTime": 1516293886804}, {"current_trial": 26, "trialdata": {"rt": -1, "trial_type": "single-stim", "word": "venus", "stimulus": "<p id=\"stim\">VENUS</p>", "conditions": [18, 1200, "v", 18000], "internal_node_id": "0.0-17.0", "trial": 0, "time_elapsed": 197327, "serialpos": 5, "key_press": -1, "wordID": 1556, "type": "PRES_VIS", "trial_index": 26}, "uniqueid": "MTK1751:3NXNZ5RS1B40U999UT364LVLGYU97W", "dateTime": 1516293889185}, {"current_trial": 27, "trialdata": {"rt": -1, "trial_type": "single-stim", "word": "neutron", "stimulus": "<p id=\"stim\">NEUTRON</p>", "conditions": [18, 1200, "v", 18000], "internal_node_id": "0.0-18.0", "trial": 0, "time_elapsed": 199475, "serialpos": 6, "key_press": -1, "wordID": 946, "type": "PRES_VIS", "trial_index": 27}, "uniqueid": "MTK1751:3NXNZ5RS1B40U999UT364LVLGYU97W", "dateTime": 1516293891333}, {"current_trial": 28, "trialdata": {"rt": -1, "trial_type": "single-stim", "word": "zipper", "stimulus": "<p id=\"stim\">ZIPPER</p>", "conditions": [18, 1200, "v", 18000], "internal_node_id": "0.0-19.0", "trial": 0, "time_elapsed": 201731, "serialpos": 7, "key_press": -1, "wordID": 1635, "type": "PRES_VIS", "trial_index": 28}, "uniqueid": "MTK1751:3NXNZ5RS1B40U999UT364LVLGYU97W", "dateTime": 1516293893590}, {"current_trial": 29, "trialdata": {"rt": -1, "trial_type": "single-stim", "word": "shoulder", "stimulus": "<p id=\"stim\">SHOULDER</p>", "conditions": [18, 1200, "v", 18000], "internal_node_id": "0.0-20.0", "trial": 0, "time_elapsed": 203879, "serialpos": 8, "key_press": -1, "wordID": 1293, "type": "PRES_VIS", "trial_index": 29}, "uniqueid": "MTK1751:3NXNZ5RS1B40U999UT364LVLGYU97W", "dateTime": 1516293895737}, {"current_trial": 30, "trialdata": {"rt": -1, "trial_type": "single-stim", "word": "bug", "stimulus": "<p id=\"stim\">BUG</p>", "conditions": [18, 1200, "v", 18000], "internal_node_id": "0.0-21.0", "trial": 0, "time_elapsed": 206196, "serialpos": 9, "key_press": -1, "wordID": 186, "type": "PRES_VIS", "trial_index": 30}, "uniqueid": "MTK1751:3NXNZ5RS1B40U999UT364LVLGYU97W", "dateTime": 1516293898054}, {"current_trial": 31, "trialdata": {"rt": -1, "trial_type": "single-stim", "word": "scalpel", "stimulus": "<p id=\"stim\">SCALPEL</p>", "conditions": [18, 1200, "v", 18000], "internal_node_id": "0.0-22.0", "trial": 0, "time_elapsed": 208247, "serialpos": 10, "key_press": -1, "wordID": 1242, "type": "PRES_VIS", "trial_index": 31}, "uniqueid": "MTK1751:3NXNZ5RS1B40U999UT364LVLGYU97W", "dateTime": 1516293900105}, {"current_trial": 32, "trialdata": {"rt": -1, "trial_type": "single-stim", "word": "mailman", "stimulus": "<p id=\"stim\">MAILMAN</p>", "conditions": [18, 1200, "v", 18000], "internal_node_id": "0.0-23.0", "trial": 0, "time_elapsed": 210284, "serialpos": 11, "key_press": -1, "wordID": 857, "type": "PRES_VIS", "trial_index": 32}, "uniqueid": "MTK1751:3NXNZ5RS1B40U999UT364LVLGYU97W", "dateTime": 1516293902142}, {"current_trial": 33, "trialdata": {"rt": -1, "trial_type": "single-stim", "word": "cabin", "stimulus": "<p id=\"stim\">CABIN</p>", "conditions": [18, 1200, "v", 18000], "internal_node_id": "0.0-24.0", "trial": 0, "time_elapsed": 212570, "serialpos": 12, "key_press": -1, "wordID": 210, "type": "PRES_VIS", "trial_index": 33}, "uniqueid": "MTK1751:3NXNZ5RS1B40U999UT364LVLGYU97W", "dateTime": 1516293904428}, {"current_trial": 34, "trialdata": {"rt": -1, "trial_type": "single-stim", "word": "mammal", "stimulus": "<p id=\"stim\">MAMMAL</p>", "conditions": [18, 1200, "v", 18000], "internal_node_id": "0.0-25.0", "trial": 0, "time_elapsed": 214801, "serialpos": 13, "key_press": -1, "wordID": 860, "type": "PRES_VIS", "trial_index": 34}, "uniqueid": "MTK1751:3NXNZ5RS1B40U999UT364LVLGYU97W", "dateTime": 1516293906659}, {"current_trial": 35, "trialdata": {"rt": -1, "trial_type": "single-stim", "word": "outdoors", "stimulus": "<p id=\"stim\">OUTDOORS</p>", "conditions": [18, 1200, "v", 18000], "internal_node_id": "0.0-26.0", "trial": 0, "time_elapsed": 216920, "serialpos": 14, "key_press": -1, "wordID": 986, "type": "PRES_VIS", "trial_index": 35}, "uniqueid": "MTK1751:3NXNZ5RS1B40U999UT364LVLGYU97W", "dateTime": 1516293908778}, {"current_trial": 36, "trialdata": {"rt": -1, "trial_type": "single-stim", "word": "daughter", "stimulus": "<p id=\"stim\">DAUGHTER</p>", "conditions": [18, 1200, "v", 18000], "internal_node_id": "0.0-27.0", "trial": 0, "time_elapsed": 219091, "serialpos": 15, "key_press": -1, "wordID": 441, "type": "PRES_VIS", "trial_index": 36}, "uniqueid": "MTK1751:3NXNZ5RS1B40U999UT364LVLGYU97W", "dateTime": 1516293910949}, {"current_trial": 37, "trialdata": {"rt": -1, "trial_type": "single-stim", "word": "waiter", "stimulus": "<p id=\"stim\">WAITER</p>", "conditions": [18, 1200, "v", 18000], "internal_node_id": "0.0-28.0", "trial": 0, "time_elapsed": 221313, "serialpos": 16, "key_press": -1, "wordID": 1579, "type": "PRES_VIS", "trial_index": 37}, "uniqueid": "MTK1751:3NXNZ5RS1B40U999UT364LVLGYU97W", "dateTime": 1516293913172}, {"current_trial": 38, "trialdata": {"rt": -1, "trial_type": "single-stim", "word": "lion", "stimulus": "<p id=\"stim\">LION</p>", "conditions": [18, 1200, "v", 18000], "internal_node_id": "0.0-29.0", "trial": 0, "time_elapsed": 223685, "serialpos": 17, "key_press": -1, "wordID": 826, "type": "PRES_VIS", "trial_index": 38}, "uniqueid": "MTK1751:3NXNZ5RS1B40U999UT364LVLGYU97W", "dateTime": 1516293915543}, {"current_trial": 39, "trialdata": {"rt": -1, "trial_type": "single-stim", "stimulus": "", "internal_node_id": "0.0-30.0-0.0", "time_elapsed": 226027, "key_press": -1, "type": "PRE_RECALL_DELAY", "trial_index": 39}, "uniqueid": "MTK1751:3NXNZ5RS1B40U999UT364LVLGYU97W", "dateTime": 1516293917885}, {"current_trial": 40, "trialdata": {"rt": -1000, "trial_type": "single-audio", "stimulus": "/static/audio/400Hz.wav", "internal_node_id": "0.0-31.0", "time_elapsed": 226530, "key_press": -1, "type": "PRE_RECALL_ALERT", "trial_index": 40}, "uniqueid": "MTK1751:3NXNZ5RS1B40U999UT364LVLGYU97W", "dateTime": 1516293918389}, {"current_trial": 41, "trialdata": {"rt": [2705, 4142, 5481, 6623, 8336, 15305, 21067, 34586], "recwords": ["cloud", "angel", "lion", "mammal", "outdoors", "venus", "print", "scalpel"], "key_times": [1585, 1682, 1877, 2091, 2425, 2705, 3311, 3444, 3682, 3782, 3924, 4142, 4765, 4995, 5153, 5276, 5481, 5876, 5995, 6065, 6192, 6282, 6418, 6623, 7201, 7450, 7581, 7785, 7883, 8006, 8075, 8245, 8336, 14369, 14447, 14543, 14709, 14794, 15305, 20283, 20507, 20627, 20751, 20857, 21067, 32490, 32673, 32774, 32906, 33097, 33102, 33198, 33299, 33663, 33831, 33996, 34259, 34343, 34586, 59022, 59970], "trial_type": "free-recall", "conditions": [18, 1200, "v", 18000], "internal_node_id": "0.0-32.0-0.0", "key_presses": [67, 76, 79, 85, 68, 13, 65, 78, 71, 69, 76, 13, 76, 73, 79, 78, 13, 77, 65, 77, 77, 65, 76, 13, 79, 85, 84, 68, 79, 79, 82, 83, 13, 86, 69, 78, 85, 83, 13, 80, 82, 73, 78, 84, 13, 83, 67, 65, 76, 80, 219, 69, 76, 8, 8, 8, 69, 76, 13, 39, 40], "trial": 0, "time_elapsed": 286535, "type": "FREE_RECALL", "trial_index": 41}, "uniqueid": "MTK1751:3NXNZ5RS1B40U999UT364LVLGYU97W", "dateTime": 1516293978397}, {"current_trial": 42, "trialdata": {"rt": 1116, "trial_type": "text", "internal_node_id": "0.0-33.0", "time_elapsed": 289656, "key_press": 40, "type": "INSTRUCTIONS", "trial_index": 42}, "uniqueid": "MTK1751:3NXNZ5RS1B40U999UT364LVLGYU97W", "dateTime": 1516293981514}, {"current_trial": 43, "trialdata": {"rt": [2110, 3907, 5945, 8221, 10091, 11857, 13290, 14831, 16848], "trial_type": "math-distractor", "key_times": [1902, 1983, 2110, 3637, 3907, 5763, 5816, 5945, 8035, 8099, 8221, 9845, 9980, 10091, 11654, 11857, 13072, 13290, 14635, 14709, 14831, 16585, 16736, 16848], "responses": ["23", "8", "12", "12", "22", "9", "9", "12", "11"], "num2": [9, 2, 2, 2, 7, 5, 1, 8, 5, 5], "num3": [7, 1, 8, 3, 8, 3, 5, 2, 2, 6], "conditions": [18, 1200, "v", 18000], "internal_node_id": "0.0-34.0", "key_presses": [50, 51, 13, 56, 13, 49, 50, 13, 49, 50, 13, 50, 50, 13, 57, 13, 57, 13, 49, 50, 13, 49, 49, 13], "trial": 1, "time_elapsed": 309659, "type": "DISTRACTOR", "trial_index": 43, "num1": [8, 5, 2, 7, 7, 1, 3, 2, 4, 8]}, "uniqueid": "MTK1751:3NXNZ5RS1B40U999UT364LVLGYU97W", "dateTime": 1516294001518}, {"current_trial": 44, "trialdata": {"rt": -1, "trial_type": "single-stim", "stimulus": "<p id=\"stim\">10</p>", "internal_node_id": "0.0-35.0-0.0", "time_elapsed": 312661, "key_press": -1, "trial_index": 44}, "uniqueid": "MTK1751:3NXNZ5RS1B40U999UT364LVLGYU97W", "dateTime": 1516294004519}, {"current_trial": 45, "trialdata": {"rt": -1, "trial_type": "single-stim", "stimulus": "<p id=\"stim\">9</p>", "internal_node_id": "0.0-35.0-1.0", "time_elapsed": 313662, "key_press": -1, "trial_index": 45}, "uniqueid": "MTK1751:3NXNZ5RS1B40U999UT364LVLGYU97W", "dateTime": 1516294005520}, {"current_trial": 46, "trialdata": {"rt": -1, "trial_type": "single-stim", "stimulus": "<p id=\"stim\">8</p>", "internal_node_id": "0.0-35.0-2.0", "time_elapsed": 314663, "key_press": -1, "trial_index": 46}, "uniqueid": "MTK1751:3NXNZ5RS1B40U999UT364LVLGYU97W", "dateTime": 1516294006521}, {"current_trial": 47, "trialdata": {"rt": -1, "trial_type": "single-stim", "stimulus": "<p id=\"stim\">7</p>", "internal_node_id": "0.0-35.0-3.0", "time_elapsed": 315664, "key_press": -1, "trial_index": 47}, "uniqueid": "MTK1751:3NXNZ5RS1B40U999UT364LVLGYU97W", "dateTime": 1516294007522}, {"current_trial": 48, "trialdata": {"rt": -1, "trial_type": "single-stim", "stimulus": "<p id=\"stim\">6</p>", "internal_node_id": "0.0-35.0-4.0", "time_elapsed": 316665, "key_press": -1, "trial_index": 48}, "uniqueid": "MTK1751:3NXNZ5RS1B40U999UT364LVLGYU97W", "dateTime": 1516294008523}, {"current_trial": 49, "trialdata": {"rt": -1, "trial_type": "single-stim", "stimulus": "<p id=\"stim\">5</p>", "internal_node_id": "0.0-35.0-5.0", "time_elapsed": 317667, "key_press": -1, "trial_index": 49}, "uniqueid": "MTK1751:3NXNZ5RS1B40U999UT364LVLGYU97W", "dateTime": 1516294009525}, {"current_trial": 50, "trialdata": {"rt": -1, "trial_type": "single-stim", "stimulus": "<p id=\"stim\">4</p>", "internal_node_id": "0.0-35.0-6.0", "time_elapsed": 318668, "key_press": -1, "trial_index": 50}, "uniqueid": "MTK1751:3NXNZ5RS1B40U999UT364LVLGYU97W", "dateTime": 1516294010526}, {"current_trial": 51, "trialdata": {"rt": -1, "trial_type": "single-stim", "stimulus": "<p id=\"stim\">3</p>", "internal_node_id": "0.0-35.0-7.0", "time_elapsed": 319669, "key_press": -1, "trial_index": 51}, "uniqueid": "MTK1751:3NXNZ5RS1B40U999UT364LVLGYU97W", "dateTime": 1516294011527}, {"current_trial": 52, "trialdata": {"rt": -1, "trial_type": "single-stim", "stimulus": "<p id=\"stim\">2</p>", "internal_node_id": "0.0-35.0-8.0", "time_elapsed": 320670, "key_press": -1, "trial_index": 52}, "uniqueid": "MTK1751:3NXNZ5RS1B40U999UT364LVLGYU97W", "dateTime": 1516294012528}, {"current_trial": 53, "trialdata": {"rt": -1, "trial_type": "single-stim", "stimulus": "<p id=\"stim\">1</p>", "internal_node_id": "0.0-35.0-9.0", "time_elapsed": 321671, "key_press": -1, "trial_index": 53}, "uniqueid": "MTK1751:3NXNZ5RS1B40U999UT364LVLGYU97W", "dateTime": 1516294013529}, {"current_trial": 54, "trialdata": {"rt": -1, "trial_type": "single-stim", "stimulus": "<p id=\"stim\">+</p>", "internal_node_id": "0.0-36.0-0.0", "time_elapsed": 323173, "key_press": -1, "type": "FIXATION", "trial_index": 54}, "uniqueid": "MTK1751:3NXNZ5RS1B40U999UT364LVLGYU97W", "dateTime": 1516294015031}, {"current_trial": 55, "trialdata": {"rt": -1, "trial_type": "single-stim", "word": "teacher", "stimulus": "<p id=\"stim\">TEACHER</p>", "conditions": [18, 1200, "v", 18000], "internal_node_id": "0.0-37.0", "trial": 1, "time_elapsed": 324374, "serialpos": 0, "key_press": -1, "wordID": 1439, "type": "PRES_VIS", "trial_index": 55}, "uniqueid": "MTK1751:3NXNZ5RS1B40U999UT364LVLGYU97W", "dateTime": 1516294016232}, {"current_trial": 56, "trialdata": {"rt": -1, "trial_type": "single-stim", "word": "witness", "stimulus": "<p id=\"stim\">WITNESS</p>", "conditions": [18, 1200, "v", 18000], "internal_node_id": "0.0-38.0", "trial": 1, "time_elapsed": 326514, "serialpos": 1, "key_press": -1, "wordID": 1617, "type": "PRES_VIS", "trial_index": 56}, "uniqueid": "MTK1751:3NXNZ5RS1B40U999UT364LVLGYU97W", "dateTime": 1516294018372}, {"current_trial": 57, "trialdata": {"rt": -1, "trial_type": "single-stim", "word": "inmate", "stimulus": "<p id=\"stim\">INMATE</p>", "conditions": [18, 1200, "v", 18000], "internal_node_id": "0.0-39.0", "trial": 1, "time_elapsed": 328517, "serialpos": 2, "key_press": -1, "wordID": 737, "type": "PRES_VIS", "trial_index": 57}, "uniqueid": "MTK1751:3NXNZ5RS1B40U999UT364LVLGYU97W", "dateTime": 1516294020375}, {"current_trial": 58, "trialdata": {"rt": -1, "trial_type": "single-stim", "word": "cabbage", "stimulus": "<p id=\"stim\">CABBAGE</p>", "conditions": [18, 1200, "v", 18000], "internal_node_id": "0.0-40.0", "trial": 1, "time_elapsed": 330701, "serialpos": 3, "key_press": -1, "wordID": 209, "type": "PRES_VIS", "trial_index": 58}, "uniqueid": "MTK1751:3NXNZ5RS1B40U999UT364LVLGYU97W", "dateTime": 1516294022559}, {"current_trial": 59, "trialdata": {"rt": -1, "trial_type": "single-stim", "word": "robber", "stimulus": "<p id=\"stim\">ROBBER</p>", "conditions": [18, 1200, "v", 18000], "internal_node_id": "0.0-41.0", "trial": 1, "time_elapsed": 332850, "serialpos": 4, "key_press": -1, "wordID": 1196, "type": "PRES_VIS", "trial_index": 59}, "uniqueid": "MTK1751:3NXNZ5RS1B40U999UT364LVLGYU97W", "dateTime": 1516294024708}, {"current_trial": 60, "trialdata": {"rt": -1, "trial_type": "single-stim", "word": "boyfriend", "stimulus": "<p id=\"stim\">BOYFRIEND</p>", "conditions": [18, 1200, "v", 18000], "internal_node_id": "0.0-42.0", "trial": 1, "time_elapsed": 335199, "serialpos": 5, "key_press": -1, "wordID": 161, "type": "PRES_VIS", "trial_index": 60}, "uniqueid": "MTK1751:3NXNZ5RS1B40U999UT364LVLGYU97W", "dateTime": 1516294027057}, {"current_trial": 61, "trialdata": {"rt": -1, "trial_type": "single-stim", "word": "trombone", "stimulus": "<p id=\"stim\">TROMBONE</p>", "conditions": [18, 1200, "v", 18000], "internal_node_id": "0.0-43.0", "trial": 1, "time_elapsed": 337432, "serialpos": 6, "key_press": -1, "wordID": 1507, "type": "PRES_VIS", "trial_index": 61}, "uniqueid": "MTK1751:3NXNZ5RS1B40U999UT364LVLGYU97W", "dateTime": 1516294029291}, {"current_trial": 62, "trialdata": {"rt": -1, "trial_type": "single-stim", "word": "gift", "stimulus": "<p id=\"stim\">GIFT</p>", "conditions": [18, 1200, "v", 18000], "internal_node_id": "0.0-44.0", "trial": 1, "time_elapsed": 339439, "serialpos": 7, "key_press": -1, "wordID": 634, "type": "PRES_VIS", "trial_index": 62}, "uniqueid": "MTK1751:3NXNZ5RS1B40U999UT364LVLGYU97W", "dateTime": 1516294031297}, {"current_trial": 63, "trialdata": {"rt": -1, "trial_type": "single-stim", "word": "rebel", "stimulus": "<p id=\"stim\">REBEL</p>", "conditions": [18, 1200, "v", 18000], "internal_node_id": "0.0-45.0", "trial": 1, "time_elapsed": 341722, "serialpos": 8, "key_press": -1, "wordID": 1171, "type": "PRES_VIS", "trial_index": 63}, "uniqueid": "MTK1751:3NXNZ5RS1B40U999UT364LVLGYU97W", "dateTime": 1516294033580}, {"current_trial": 64, "trialdata": {"rt": -1, "trial_type": "single-stim", "word": "jungle", "stimulus": "<p id=\"stim\">JUNGLE</p>", "conditions": [18, 1200, "v", 18000], "internal_node_id": "0.0-46.0", "trial": 1, "time_elapsed": 344102, "serialpos": 9, "key_press": -1, "wordID": 763, "type": "PRES_VIS", "trial_index": 64}, "uniqueid": "MTK1751:3NXNZ5RS1B40U999UT364LVLGYU97W", "dateTime": 1516294035960}, {"current_trial": 65, "trialdata": {"rt": -1, "trial_type": "single-stim", "word": "racket", "stimulus": "<p id=\"stim\">RACKET</p>", "conditions": [18, 1200, "v", 18000], "internal_node_id": "0.0-47.0", "trial": 1, "time_elapsed": 346504, "serialpos": 10, "key_press": -1, "wordID": 1154, "type": "PRES_VIS", "trial_index": 65}, "uniqueid": "MTK1751:3NXNZ5RS1B40U999UT364LVLGYU97W", "dateTime": 1516294038362}, {"current_trial": 66, "trialdata": {"rt": -1, "trial_type": "single-stim", "word": "brick", "stimulus": "<p id=\"stim\">BRICK</p>", "conditions": [18, 1200, "v", 18000], "internal_node_id": "0.0-48.0", "trial": 1, "time_elapsed": 348519, "serialpos": 11, "key_press": -1, "wordID": 171, "type": "PRES_VIS", "trial_index": 66}, "uniqueid": "MTK1751:3NXNZ5RS1B40U999UT364LVLGYU97W", "dateTime": 1516294040377}, {"current_trial": 67, "trialdata": {"rt": -1, "trial_type": "single-stim", "word": "tweezers", "stimulus": "<p id=\"stim\">TWEEZERS</p>", "conditions": [18, 1200, "v", 18000], "internal_node_id": "0.0-49.0", "trial": 1, "time_elapsed": 350604, "serialpos": 12, "key_press": -1, "wordID": 1525, "type": "PRES_VIS", "trial_index": 67}, "uniqueid": "MTK1751:3NXNZ5RS1B40U999UT364LVLGYU97W", "dateTime": 1516294042462}, {"current_trial": 68, "trialdata": {"rt": -1, "trial_type": "single-stim", "word": "shark", "stimulus": "<p id=\"stim\">SHARK</p>", "conditions": [18, 1200, "v", 18000], "internal_node_id": "0.0-50.0", "trial": 1, "time_elapsed": 352982, "serialpos": 13, "key_press": -1, "wordID": 1274, "type": "PRES_VIS", "trial_index": 68}, "uniqueid": "MTK1751:3NXNZ5RS1B40U999UT364LVLGYU97W", "dateTime": 1516294044874}, {"current_trial": 69, "trialdata": {"rt": -1, "trial_type": "single-stim", "word": "leg", "stimulus": "<p id=\"stim\">LEG</p>", "conditions": [18, 1200, "v", 18000], "internal_node_id": "0.0-51.0", "trial": 1, "time_elapsed": 355065, "serialpos": 14, "key_press": -1, "wordID": 808, "type": "PRES_VIS", "trial_index": 69}, "uniqueid": "MTK1751:3NXNZ5RS1B40U999UT364LVLGYU97W", "dateTime": 1516294046923}, {"current_trial": 70, "trialdata": {"rt": -1, "trial_type": "single-stim", "word": "actress", "stimulus": "<p id=\"stim\">ACTRESS</p>", "conditions": [18, 1200, "v", 18000], "internal_node_id": "0.0-52.0", "trial": 1, "time_elapsed": 357297, "serialpos": 15, "key_press": -1, "wordID": 5, "type": "PRES_VIS", "trial_index": 70}, "uniqueid": "MTK1751:3NXNZ5RS1B40U999UT364LVLGYU97W", "dateTime": 1516294049155}, {"current_trial": 71, "trialdata": {"rt": -1, "trial_type": "single-stim", "word": "candy", "stimulus": "<p id=\"stim\">CANDY</p>", "conditions": [18, 1200, "v", 18000], "internal_node_id": "0.0-53.0", "trial": 1, "time_elapsed": 359301, "serialpos": 16, "key_press": -1, "wordID": 229, "type": "PRES_VIS", "trial_index": 71}, "uniqueid": "MTK1751:3NXNZ5RS1B40U999UT364LVLGYU97W", "dateTime": 1516294051159}, {"current_trial": 72, "trialdata": {"rt": -1, "trial_type": "single-stim", "word": "lettuce", "stimulus": "<p id=\"stim\">LETTUCE</p>", "conditions": [18, 1200, "v", 18000], "internal_node_id": "0.0-54.0", "trial": 1, "time_elapsed": 361667, "serialpos": 17, "key_press": -1, "wordID": 813, "type": "PRES_VIS", "trial_index": 72}, "uniqueid": "MTK1751:3NXNZ5RS1B40U999UT364LVLGYU97W", "dateTime": 1516294053525}, {"current_trial": 73, "trialdata": {"rt": -1, "trial_type": "single-stim", "stimulus": "", "internal_node_id": "0.0-55.0-0.0", "time_elapsed": 363697, "key_press": -1, "type": "PRE_RECALL_DELAY", "trial_index": 73}, "uniqueid": "MTK1751:3NXNZ5RS1B40U999UT364LVLGYU97W", "dateTime": 1516294055555}, {"current_trial": 74, "trialdata": {"rt": -1000, "trial_type": "single-audio", "stimulus": "/static/audio/400Hz.wav", "internal_node_id": "0.0-56.0", "time_elapsed": 364200, "key_press": -1, "type": "PRE_RECALL_ALERT", "trial_index": 74}, "uniqueid": "MTK1751:3NXNZ5RS1B40U999UT364LVLGYU97W", "dateTime": 1516294056058}, {"current_trial": 75, "trialdata": {"rt": [2006, 5899, 12629, 13850, 20238], "recwords": ["cabbage", "gift", "actress", "candy", "rubble"], "key_times": [1154, 1222, 1398, 1528, 1602, 1741, 1853, 2006, 4293, 4466, 4697, 4829, 4882, 5016, 5238, 5676, 5899, 10799, 11157, 11736, 11822, 12064, 12322, 12460, 12629, 13095, 13191, 13281, 13404, 13590, 13850, 18895, 19095, 19329, 19452, 19687, 19767, 20238, 39361, 39954], "trial_type": "free-recall", "conditions": [18, 1200, "v", 18000], "internal_node_id": "0.0-57.0-0.0", "key_presses": [67, 65, 66, 66, 65, 71, 69, 13, 70, 73, 8, 8, 71, 73, 70, 84, 13, 65, 67, 84, 82, 69, 83, 83, 13, 67, 65, 78, 68, 89, 13, 82, 85, 66, 66, 76, 69, 13, 40, 40], "trial": 1, "time_elapsed": 424207, "type": "FREE_RECALL", "trial_index": 75}, "uniqueid": "MTK1751:3NXNZ5RS1B40U999UT364LVLGYU97W", "dateTime": 1516294116070}, {"current_trial": 76, "trialdata": {"rt": 1831, "trial_type": "text", "internal_node_id": "0.0-58.0", "time_elapsed": 428045, "key_press": 32, "type": "INSTRUCTIONS", "trial_index": 76}, "uniqueid": "MTK1751:3NXNZ5RS1B40U999UT364LVLGYU97W", "dateTime": 1516294119903}, {"current_trial": 77, "trialdata": {"rt": [1657, 4180, 6365, 8020, 9965, 11754], "trial_type": "math-distractor", "key_times": [1139, 1302, 1657, 4005, 4079, 4180, 6151, 6365, 7792, 7908, 8020, 9714, 9881, 9965, 11491, 11565, 11754], "responses": ["11", "21", "8", "13", "15", "19"], "num2": [8, 8, 2, 6, 3, 3, 8], "num3": [2, 7, 1, 4, 9, 9, 1], "conditions": [24, 1600, "v", 12000], "internal_node_id": "0.0-59.0", "key_presses": [49, 49, 13, 50, 49, 13, 56, 13, 49, 51, 13, 49, 53, 13, 49, 57, 13], "trial": 2, "time_elapsed": 441068, "type": "DISTRACTOR", "trial_index": 77, "num1": [1, 6, 5, 3, 3, 7, 7]}, "uniqueid": "MTK1751:3NXNZ5RS1B40U999UT364LVLGYU97W", "dateTime": 1516294132926}, {"current_trial": 78, "trialdata": {"rt": -1, "trial_type": "single-stim", "stimulus": "<p id=\"stim\">10</p>", "internal_node_id": "0.0-60.0-0.0", "time_elapsed": 444070, "key_press": -1, "trial_index": 78}, "uniqueid": "MTK1751:3NXNZ5RS1B40U999UT364LVLGYU97W", "dateTime": 1516294135928}, {"current_trial": 79, "trialdata": {"rt": -1, "trial_type": "single-stim", "stimulus": "<p id=\"stim\">9</p>", "internal_node_id": "0.0-60.0-1.0", "time_elapsed": 445073, "key_press": -1, "trial_index": 79}, "uniqueid": "MTK1751:3NXNZ5RS1B40U999UT364LVLGYU97W", "dateTime": 1516294136932}, {"current_trial": 80, "trialdata": {"rt": -1, "trial_type": "single-stim", "stimulus": "<p id=\"stim\">8</p>", "internal_node_id": "0.0-60.0-2.0", "time_elapsed": 446077, "key_press": -1, "trial_index": 80}, "uniqueid": "MTK1751:3NXNZ5RS1B40U999UT364LVLGYU97W", "dateTime": 1516294137935}, {"current_trial": 81, "trialdata": {"rt": -1, "trial_type": "single-stim", "stimulus": "<p id=\"stim\">7</p>", "internal_node_id": "0.0-60.0-3.0", "time_elapsed": 447079, "key_press": -1, "trial_index": 81}, "uniqueid": "MTK1751:3NXNZ5RS1B40U999UT364LVLGYU97W", "dateTime": 1516294138937}, {"current_trial": 82, "trialdata": {"rt": -1, "trial_type": "single-stim", "stimulus": "<p id=\"stim\">6</p>", "internal_node_id": "0.0-60.0-4.0", "time_elapsed": 448080, "key_press": -1, "trial_index": 82}, "uniqueid": "MTK1751:3NXNZ5RS1B40U999UT364LVLGYU97W", "dateTime": 1516294139938}, {"current_trial": 83, "trialdata": {"rt": -1, "trial_type": "single-stim", "stimulus": "<p id=\"stim\">5</p>", "internal_node_id": "0.0-60.0-5.0", "time_elapsed": 449082, "key_press": -1, "trial_index": 83}, "uniqueid": "MTK1751:3NXNZ5RS1B40U999UT364LVLGYU97W", "dateTime": 1516294140940}, {"current_trial": 84, "trialdata": {"rt": -1, "trial_type": "single-stim", "stimulus": "<p id=\"stim\">4</p>", "internal_node_id": "0.0-60.0-6.0", "time_elapsed": 450085, "key_press": -1, "trial_index": 84}, "uniqueid": "MTK1751:3NXNZ5RS1B40U999UT364LVLGYU97W", "dateTime": 1516294141943}, {"current_trial": 85, "trialdata": {"rt": -1, "trial_type": "single-stim", "stimulus": "<p id=\"stim\">3</p>", "internal_node_id": "0.0-60.0-7.0", "time_elapsed": 451087, "key_press": -1, "trial_index": 85}, "uniqueid": "MTK1751:3NXNZ5RS1B40U999UT364LVLGYU97W", "dateTime": 1516294142945}, {"current_trial": 86, "trialdata": {"rt": -1, "trial_type": "single-stim", "stimulus": "<p id=\"stim\">2</p>", "internal_node_id": "0.0-60.0-8.0", "time_elapsed": 452092, "key_press": -1, "trial_index": 86}, "uniqueid": "MTK1751:3NXNZ5RS1B40U999UT364LVLGYU97W", "dateTime": 1516294143950}, {"current_trial": 87, "trialdata": {"rt": -1, "trial_type": "single-stim", "stimulus": "<p id=\"stim\">1</p>", "internal_node_id": "0.0-60.0-9.0", "time_elapsed": 453094, "key_press": -1, "trial_index": 87}, "uniqueid": "MTK1751:3NXNZ5RS1B40U999UT364LVLGYU97W", "dateTime": 1516294144952}, {"current_trial": 88, "trialdata": {"rt": -1, "trial_type": "single-stim", "stimulus": "<p id=\"stim\">+</p>", "internal_node_id": "0.0-61.0-0.0", "time_elapsed": 454596, "key_press": -1, "type": "FIXATION", "trial_index": 88}, "uniqueid": "MTK1751:3NXNZ5RS1B40U999UT364LVLGYU97W", "dateTime": 1516294146454}, {"current_trial": 89, "trialdata": {"rt": -1, "trial_type": "single-stim", "word": "tombstone", "stimulus": "<p id=\"stim\">TOMBSTONE</p>", "conditions": [24, 1600, "v", 12000], "internal_node_id": "0.0-62.0", "trial": 2, "time_elapsed": 456197, "serialpos": 0, "key_press": -1, "wordID": 1477, "type": "PRES_VIS", "trial_index": 89}, "uniqueid": "MTK1751:3NXNZ5RS1B40U999UT364LVLGYU97W", "dateTime": 1516294148055}, {"current_trial": 90, "trialdata": {"rt": -1, "trial_type": "single-stim", "word": "dashboard", "stimulus": "<p id=\"stim\">DASHBOARD</p>", "conditions": [24, 1600, "v", 12000], "internal_node_id": "0.0-63.0", "trial": 2, "time_elapsed": 458797, "serialpos": 1, "key_press": -1, "wordID": 440, "type": "PRES_VIS", "trial_index": 90}, "uniqueid": "MTK1751:3NXNZ5RS1B40U999UT364LVLGYU97W", "dateTime": 1516294150655}, {"current_trial": 91, "trialdata": {"rt": -1, "trial_type": "single-stim", "word": "eyelash", "stimulus": "<p id=\"stim\">EYELASH</p>", "conditions": [24, 1600, "v", 12000], "internal_node_id": "0.0-64.0", "trial": 2, "time_elapsed": 461509, "serialpos": 2, "key_press": -1, "wordID": 545, "type": "PRES_VIS", "trial_index": 91}, "uniqueid": "MTK1751:3NXNZ5RS1B40U999UT364LVLGYU97W", "dateTime": 1516294153367}, {"current_trial": 92, "trialdata": {"rt": -1, "trial_type": "single-stim", "word": "snake", "stimulus": "<p id=\"stim\">SNAKE</p>", "conditions": [24, 1600, "v", 12000], "internal_node_id": "0.0-65.0", "trial": 2, "time_elapsed": 464287, "serialpos": 3, "key_press": -1, "wordID": 1332, "type": "PRES_VIS", "trial_index": 92}, "uniqueid": "MTK1751:3NXNZ5RS1B40U999UT364LVLGYU97W", "dateTime": 1516294156145}, {"current_trial": 93, "trialdata": {"rt": -1, "trial_type": "single-stim", "word": "twig", "stimulus": "<p id=\"stim\">TWIG</p>", "conditions": [24, 1600, "v", 12000], "internal_node_id": "0.0-66.0", "trial": 2, "time_elapsed": 467052, "serialpos": 4, "key_press": -1, "wordID": 1526, "type": "PRES_VIS", "trial_index": 93}, "uniqueid": "MTK1751:3NXNZ5RS1B40U999UT364LVLGYU97W", "dateTime": 1516294158910}, {"current_trial": 94, "trialdata": {"rt": -1, "trial_type": "single-stim", "word": "mildew", "stimulus": "<p id=\"stim\">MILDEW</p>", "conditions": [24, 1600, "v", 12000], "internal_node_id": "0.0-67.0", "trial": 2, "time_elapsed": 469610, "serialpos": 5, "key_press": -1, "wordID": 892, "type": "PRES_VIS", "trial_index": 94}, "uniqueid": "MTK1751:3NXNZ5RS1B40U999UT364LVLGYU97W", "dateTime": 1516294161468}, {"current_trial": 95, "trialdata": {"rt": -1, "trial_type": "single-stim", "word": "yarn", "stimulus": "<p id=\"stim\">YARN</p>", "conditions": [24, 1600, "v", 12000], "internal_node_id": "0.0-68.0", "trial": 2, "time_elapsed": 472287, "serialpos": 6, "key_press": -1, "wordID": 1630, "type": "PRES_VIS", "trial_index": 95}, "uniqueid": "MTK1751:3NXNZ5RS1B40U999UT364LVLGYU97W", "dateTime": 1516294164145}, {"current_trial": 96, "trialdata": {"rt": -1, "trial_type": "single-stim", "word": "tractor", "stimulus": "<p id=\"stim\">TRACTOR</p>", "conditions": [24, 1600, "v", 12000], "internal_node_id": "0.0-69.0", "trial": 2, "time_elapsed": 474988, "serialpos": 7, "key_press": -1, "wordID": 1492, "type": "PRES_VIS", "trial_index": 96}, "uniqueid": "MTK1751:3NXNZ5RS1B40U999UT364LVLGYU97W", "dateTime": 1516294166846}, {"current_trial": 97, "trialdata": {"rt": -1, "trial_type": "single-stim", "word": "valley", "stimulus": "<p id=\"stim\">VALLEY</p>", "conditions": [24, 1600, "v", 12000], "internal_node_id": "0.0-70.0", "trial": 2, "time_elapsed": 477410, "serialpos": 8, "key_press": -1, "wordID": 1544, "type": "PRES_VIS", "trial_index": 97}, "uniqueid": "MTK1751:3NXNZ5RS1B40U999UT364LVLGYU97W", "dateTime": 1516294169268}, {"current_trial": 98, "trialdata": {"rt": -1, "trial_type": "single-stim", "word": "canyon", "stimulus": "<p id=\"stim\">CANYON</p>", "conditions": [24, 1600, "v", 12000], "internal_node_id": "0.0-71.0", "trial": 2, "time_elapsed": 480135, "serialpos": 9, "key_press": -1, "wordID": 234, "type": "PRES_VIS", "trial_index": 98}, "uniqueid": "MTK1751:3NXNZ5RS1B40U999UT364LVLGYU97W", "dateTime": 1516294171993}, {"current_trial": 99, "trialdata": {"rt": -1, "trial_type": "single-stim", "word": "garbage", "stimulus": "<p id=\"stim\">GARBAGE</p>", "conditions": [24, 1600, "v", 12000], "internal_node_id": "0.0-72.0", "trial": 2, "time_elapsed": 482614, "serialpos": 10, "key_press": -1, "wordID": 621, "type": "PRES_VIS", "trial_index": 99}, "uniqueid": "MTK1751:3NXNZ5RS1B40U999UT364LVLGYU97W", "dateTime": 1516294174472}, {"current_trial": 100, "trialdata": {"rt": -1, "trial_type": "single-stim", "word": "truck", "stimulus": "<p id=\"stim\">TRUCK</p>", "conditions": [24, 1600, "v", 12000], "internal_node_id": "0.0-73.0", "trial": 2, "time_elapsed": 485306, "serialpos": 11, "key_press": -1, "wordID": 1511, "type": "PRES_VIS", "trial_index": 100}, "uniqueid": "MTK1751:3NXNZ5RS1B40U999UT364LVLGYU97W", "dateTime": 1516294177164}, {"current_trial": 101, "trialdata": {"rt": -1, "trial_type": "single-stim", "word": "sword", "stimulus": "<p id=\"stim\">SWORD</p>", "conditions": [24, 1600, "v", 12000], "internal_node_id": "0.0-74.0", "trial": 2, "time_elapsed": 487953, "serialpos": 12, "key_press": -1, "wordID": 1422, "type": "PRES_VIS", "trial_index": 101}, "uniqueid": "MTK1751:3NXNZ5RS1B40U999UT364LVLGYU97W", "dateTime": 1516294179811}, {"current_trial": 102, "trialdata": {"rt": -1, "trial_type": "single-stim", "word": "japan", "stimulus": "<p id=\"stim\">JAPAN</p>", "conditions": [24, 1600, "v", 12000], "internal_node_id": "0.0-75.0", "trial": 2, "time_elapsed": 490729, "serialpos": 13, "key_press": -1, "wordID": 748, "type": "PRES_VIS", "trial_index": 102}, "uniqueid": "MTK1751:3NXNZ5RS1B40U999UT364LVLGYU97W", "dateTime": 1516294182587}, {"current_trial": 103, "trialdata": {"rt": -1, "trial_type": "single-stim", "word": "church", "stimulus": "<p id=\"stim\">CHURCH</p>", "conditions": [24, 1600, "v", 12000], "internal_node_id": "0.0-76.0", "trial": 2, "time_elapsed": 493255, "serialpos": 14, "key_press": -1, "wordID": 306, "type": "PRES_VIS", "trial_index": 103}, "uniqueid": "MTK1751:3NXNZ5RS1B40U999UT364LVLGYU97W", "dateTime": 1516294185113}, {"current_trial": 104, "trialdata": {"rt": -1, "trial_type": "single-stim", "word": "concert", "stimulus": "<p id=\"stim\">CONCERT</p>", "conditions": [24, 1600, "v", 12000], "internal_node_id": "0.0-77.0", "trial": 2, "time_elapsed": 495754, "serialpos": 15, "key_press": -1, "wordID": 359, "type": "PRES_VIS", "trial_index": 104}, "uniqueid": "MTK1751:3NXNZ5RS1B40U999UT364LVLGYU97W", "dateTime": 1516294187612}, {"current_trial": 105, "trialdata": {"rt": -1, "trial_type": "single-stim", "word": "gymnast", "stimulus": "<p id=\"stim\">GYMNAST</p>", "conditions": [24, 1600, "v", 12000], "internal_node_id": "0.0-78.0", "trial": 2, "time_elapsed": 498275, "serialpos": 16, "key_press": -1, "wordID": 674, "type": "PRES_VIS", "trial_index": 105}, "uniqueid": "MTK1751:3NXNZ5RS1B40U999UT364LVLGYU97W", "dateTime": 1516294190133}, {"current_trial": 106, "trialdata": {"rt": -1, "trial_type": "single-stim", "word": "swimmer", "stimulus": "<p id=\"stim\">SWIMMER</p>", "conditions": [24, 1600, "v", 12000], "internal_node_id": "0.0-79.0", "trial": 2, "time_elapsed": 500731, "serialpos": 17, "key_press": -1, "wordID": 1419, "type": "PRES_VIS", "trial_index": 106}, "uniqueid": "MTK1751:3NXNZ5RS1B40U999UT364LVLGYU97W", "dateTime": 1516294192589}, {"current_trial": 107, "trialdata": {"rt": -1, "trial_type": "single-stim", "word": "donor", "stimulus": "<p id=\"stim\">DONOR</p>", "conditions": [24, 1600, "v", 12000], "internal_node_id": "0.0-80.0", "trial": 2, "time_elapsed": 503472, "serialpos": 18, "key_press": -1, "wordID": 484, "type": "PRES_VIS", "trial_index": 107}, "uniqueid": "MTK1751:3NXNZ5RS1B40U999UT364LVLGYU97W", "dateTime": 1516294195330}, {"current_trial": 108, "trialdata": {"rt": -1, "trial_type": "single-stim", "word": "report", "stimulus": "<p id=\"stim\">REPORT</p>", "conditions": [24, 1600, "v", 12000], "internal_node_id": "0.0-81.0", "trial": 2, "time_elapsed": 506163, "serialpos": 19, "key_press": -1, "wordID": 1183, "type": "PRES_VIS", "trial_index": 108}, "uniqueid": "MTK1751:3NXNZ5RS1B40U999UT364LVLGYU97W", "dateTime": 1516294198021}, {"current_trial": 109, "trialdata": {"rt": -1, "trial_type": "single-stim", "word": "temple", "stimulus": "<p id=\"stim\">TEMPLE</p>", "conditions": [24, 1600, "v", 12000], "internal_node_id": "0.0-82.0", "trial": 2, "time_elapsed": 508844, "serialpos": 20, "key_press": -1, "wordID": 1447, "type": "PRES_VIS", "trial_index": 109}, "uniqueid": "MTK1751:3NXNZ5RS1B40U999UT364LVLGYU97W", "dateTime": 1516294200702}, {"current_trial": 110, "trialdata": {"rt": -1, "trial_type": "single-stim", "word": "sheriff", "stimulus": "<p id=\"stim\">SHERIFF</p>", "conditions": [24, 1600, "v", 12000], "internal_node_id": "0.0-83.0", "trial": 2, "time_elapsed": 511439, "serialpos": 21, "key_press": -1, "wordID": 1283, "type": "PRES_VIS", "trial_index": 110}, "uniqueid": "MTK1751:3NXNZ5RS1B40U999UT364LVLGYU97W", "dateTime": 1516294203298}, {"current_trial": 111, "trialdata": {"rt": -1, "trial_type": "single-stim", "word": "survey", "stimulus": "<p id=\"stim\">SURVEY</p>", "conditions": [24, 1600, "v", 12000], "internal_node_id": "0.0-84.0", "trial": 2, "time_elapsed": 514179, "serialpos": 22, "key_press": -1, "wordID": 1413, "type": "PRES_VIS", "trial_index": 111}, "uniqueid": "MTK1751:3NXNZ5RS1B40U999UT364LVLGYU97W", "dateTime": 1516294206037}, {"current_trial": 112, "trialdata": {"rt": -1, "trial_type": "single-stim", "word": "badge", "stimulus": "<p id=\"stim\">BADGE</p>", "conditions": [24, 1600, "v", 12000], "internal_node_id": "0.0-85.0", "trial": 2, "time_elapsed": 516706, "serialpos": 23, "key_press": -1, "wordID": 67, "type": "PRES_VIS", "trial_index": 112}, "uniqueid": "MTK1751:3NXNZ5RS1B40U999UT364LVLGYU97W", "dateTime": 1516294208564}, {"current_trial": 113, "trialdata": {"rt": -1, "trial_type": "single-stim", "stimulus": "", "internal_node_id": "0.0-86.0-0.0", "time_elapsed": 519158, "key_press": -1, "type": "PRE_RECALL_DELAY", "trial_index": 113}, "uniqueid": "MTK1751:3NXNZ5RS1B40U999UT364LVLGYU97W", "dateTime": 1516294211016}, {"current_trial": 114, "trialdata": {"rt": -1000, "trial_type": "single-audio", "stimulus": "/static/audio/400Hz.wav", "internal_node_id": "0.0-87.0", "time_elapsed": 519660, "key_press": -1, "type": "PRE_RECALL_ALERT", "trial_index": 114}, "uniqueid": "MTK1751:3NXNZ5RS1B40U999UT364LVLGYU97W", "dateTime": 1516294211518}, {"current_trial": 115, "trialdata": {"rt": [2345, 5048, 6283, 8400, 10109, 31604], "recwords": ["sheriff", "garbage", "truck", "badge", "japan", "sample"], "key_times": [1126, 1260, 1394, 1616, 1845, 2035, 2180, 2345, 3135, 3252, 3368, 3487, 3582, 3912, 4646, 4861, 4936, 5048, 5638, 5681, 5905, 5979, 6103, 6283, 6902, 6966, 7140, 7591, 7890, 8400, 8676, 9154, 9270, 9465, 9518, 9630, 9826, 10109, 30940, 30999, 31132, 31287, 31388, 31477, 31604, 48220], "trial_type": "free-recall", "conditions": [24, 1600, "v", 12000], "internal_node_id": "0.0-88.0-0.0", "key_presses": [83, 72, 69, 82, 73, 70, 70, 13, 71, 65, 82, 66, 65, 69, 8, 71, 69, 13, 84, 82, 85, 67, 75, 13, 66, 65, 68, 71, 69, 13, 16, 16, 74, 65, 80, 65, 78, 13, 83, 65, 77, 80, 76, 69, 13, 40], "trial": 2, "time_elapsed": 579665, "type": "FREE_RECALL", "trial_index": 115}, "uniqueid": "MTK1751:3NXNZ5RS1B40U999UT364LVLGYU97W", "dateTime": 1516294271528}, {"current_trial": 116, "trialdata": {"rt": 6420, "trial_type": "text", "internal_node_id": "0.0-89.0", "time_elapsed": 588091, "key_press": 32, "type": "INSTRUCTIONS", "trial_index": 116}, "uniqueid": "MTK1751:3NXNZ5RS1B40U999UT364LVLGYU97W", "dateTime": 1516294279949}, {"current_trial": 117, "trialdata": {"rt": [1801, 4755, 6625, 7962, 9721, 11312, 12738, 14132, 15802, 17472, 19768, 21314, 23341], "trial_type": "math-distractor", "key_times": [1603, 1801, 3685, 3839, 3845, 4360, 4755, 6477, 6546, 6625, 7819, 7888, 7962, 9308, 9631, 9721, 10976, 11131, 11312, 12447, 12511, 12738, 13985, 14132, 15430, 15682, 15802, 17172, 17400, 17472, 19375, 19526, 19768, 21007, 21169, 21314, 23026, 23121, 23341], "responses": ["9", "17", "21", "12", "15", "17", "10", "5", "15", "15", "17", "11", "27"], "num2": [1, 3, 8, 2, 3, 8, 4, 3, 9, 3, 2, 3, 9, 2], "num3": [2, 5, 4, 2, 7, 6, 2, 1, 4, 6, 9, 2, 9, 1], "conditions": [12, 1600, "v", 24000], "internal_node_id": "0.0-90.0", "key_presses": [57, 13, 49, 55, 56, 8, 13, 50, 49, 13, 49, 50, 13, 49, 53, 13, 49, 55, 13, 49, 48, 13, 53, 13, 49, 53, 13, 49, 53, 13, 49, 55, 13, 49, 49, 13, 50, 55, 13], "trial": 3, "time_elapsed": 614109, "type": "DISTRACTOR", "trial_index": 117, "num1": [6, 9, 9, 8, 5, 3, 4, 1, 2, 6, 6, 6, 9, 9]}, "uniqueid": "MTK1751:3NXNZ5RS1B40U999UT364LVLGYU97W", "dateTime": 1516294305967}, {"current_trial": 118, "trialdata": {"rt": -1, "trial_type": "single-stim", "stimulus": "<p id=\"stim\">10</p>", "internal_node_id": "0.0-91.0-0.0", "time_elapsed": 617110, "key_press": -1, "trial_index": 118}, "uniqueid": "MTK1751:3NXNZ5RS1B40U999UT364LVLGYU97W", "dateTime": 1516294308969}, {"current_trial": 119, "trialdata": {"rt": -1, "trial_type": "single-stim", "stimulus": "<p id=\"stim\">9</p>", "internal_node_id": "0.0-91.0-1.0", "time_elapsed": 618128, "key_press": -1, "trial_index": 119}, "uniqueid": "MTK1751:3NXNZ5RS1B40U999UT364LVLGYU97W", "dateTime": 1516294309986}, {"current_trial": 120, "trialdata": {"rt": -1, "trial_type": "single-stim", "stimulus": "<p id=\"stim\">8</p>", "internal_node_id": "0.0-91.0-2.0", "time_elapsed": 619129, "key_press": -1, "trial_index": 120}, "uniqueid": "MTK1751:3NXNZ5RS1B40U999UT364LVLGYU97W", "dateTime": 1516294310987}, {"current_trial": 121, "trialdata": {"rt": -1, "trial_type": "single-stim", "stimulus": "<p id=\"stim\">7</p>", "internal_node_id": "0.0-91.0-3.0", "time_elapsed": 620132, "key_press": -1, "trial_index": 121}, "uniqueid": "MTK1751:3NXNZ5RS1B40U999UT364LVLGYU97W", "dateTime": 1516294311990}, {"current_trial": 122, "trialdata": {"rt": -1, "trial_type": "single-stim", "stimulus": "<p id=\"stim\">6</p>", "internal_node_id": "0.0-91.0-4.0", "time_elapsed": 621135, "key_press": -1, "trial_index": 122}, "uniqueid": "MTK1751:3NXNZ5RS1B40U999UT364LVLGYU97W", "dateTime": 1516294312993}, {"current_trial": 123, "trialdata": {"rt": -1, "trial_type": "single-stim", "stimulus": "<p id=\"stim\">5</p>", "internal_node_id": "0.0-91.0-5.0", "time_elapsed": 622136, "key_press": -1, "trial_index": 123}, "uniqueid": "MTK1751:3NXNZ5RS1B40U999UT364LVLGYU97W", "dateTime": 1516294313994}, {"current_trial": 124, "trialdata": {"rt": -1, "trial_type": "single-stim", "stimulus": "<p id=\"stim\">4</p>", "internal_node_id": "0.0-91.0-6.0", "time_elapsed": 623138, "key_press": -1, "trial_index": 124}, "uniqueid": "MTK1751:3NXNZ5RS1B40U999UT364LVLGYU97W", "dateTime": 1516294314996}, {"current_trial": 125, "trialdata": {"rt": -1, "trial_type": "single-stim", "stimulus": "<p id=\"stim\">3</p>", "internal_node_id": "0.0-91.0-7.0", "time_elapsed": 624138, "key_press": -1, "trial_index": 125}, "uniqueid": "MTK1751:3NXNZ5RS1B40U999UT364LVLGYU97W", "dateTime": 1516294315996}, {"current_trial": 126, "trialdata": {"rt": -1, "trial_type": "single-stim", "stimulus": "<p id=\"stim\">2</p>", "internal_node_id": "0.0-91.0-8.0", "time_elapsed": 625141, "key_press": -1, "trial_index": 126}, "uniqueid": "MTK1751:3NXNZ5RS1B40U999UT364LVLGYU97W", "dateTime": 1516294316999}, {"current_trial": 127, "trialdata": {"rt": -1, "trial_type": "single-stim", "stimulus": "<p id=\"stim\">1</p>", "internal_node_id": "0.0-91.0-9.0", "time_elapsed": 626142, "key_press": -1, "trial_index": 127}, "uniqueid": "MTK1751:3NXNZ5RS1B40U999UT364LVLGYU97W", "dateTime": 1516294318000}, {"current_trial": 128, "trialdata": {"rt": -1, "trial_type": "single-stim", "stimulus": "<p id=\"stim\">+</p>", "internal_node_id": "0.0-92.0-0.0", "time_elapsed": 627644, "key_press": -1, "type": "FIXATION", "trial_index": 128}, "uniqueid": "MTK1751:3NXNZ5RS1B40U999UT364LVLGYU97W", "dateTime": 1516294319502}, {"current_trial": 129, "trialdata": {"rt": -1, "trial_type": "single-stim", "word": "cook", "stimulus": "<p id=\"stim\">COOK</p>", "conditions": [12, 1600, "v", 24000], "internal_node_id": "0.0-93.0", "trial": 3, "time_elapsed": 629246, "serialpos": 0, "key_press": -1, "wordID": 371, "type": "PRES_VIS", "trial_index": 129}, "uniqueid": "MTK1751:3NXNZ5RS1B40U999UT364LVLGYU97W", "dateTime": 1516294321104}, {"current_trial": 130, "trialdata": {"rt": -1, "trial_type": "single-stim", "word": "liver", "stimulus": "<p id=\"stim\">LIVER</p>", "conditions": [12, 1600, "v", 24000], "internal_node_id": "0.0-94.0", "trial": 3, "time_elapsed": 631824, "serialpos": 1, "key_press": -1, "wordID": 832, "type": "PRES_VIS", "trial_index": 130}, "uniqueid": "MTK1751:3NXNZ5RS1B40U999UT364LVLGYU97W", "dateTime": 1516294323682}, {"current_trial": 131, "trialdata": {"rt": -1, "trial_type": "single-stim", "word": "marrow", "stimulus": "<p id=\"stim\">MARROW</p>", "conditions": [12, 1600, "v", 24000], "internal_node_id": "0.0-95.0", "trial": 3, "time_elapsed": 634612, "serialpos": 2, "key_press": -1, "wordID": 871, "type": "PRES_VIS", "trial_index": 131}, "uniqueid": "MTK1751:3NXNZ5RS1B40U999UT364LVLGYU97W", "dateTime": 1516294326470}, {"current_trial": 132, "trialdata": {"rt": -1, "trial_type": "single-stim", "word": "sphinx", "stimulus": "<p id=\"stim\">SPHINX</p>", "conditions": [12, 1600, "v", 24000], "internal_node_id": "0.0-96.0", "trial": 3, "time_elapsed": 637345, "serialpos": 3, "key_press": -1, "wordID": 1348, "type": "PRES_VIS", "trial_index": 132}, "uniqueid": "MTK1751:3NXNZ5RS1B40U999UT364LVLGYU97W", "dateTime": 1516294329203}, {"current_trial": 133, "trialdata": {"rt": -1, "trial_type": "single-stim", "word": "dress", "stimulus": "<p id=\"stim\">DRESS</p>", "conditions": [12, 1600, "v", 24000], "internal_node_id": "0.0-97.0", "trial": 3, "time_elapsed": 639779, "serialpos": 4, "key_press": -1, "wordID": 494, "type": "PRES_VIS", "trial_index": 133}, "uniqueid": "MTK1751:3NXNZ5RS1B40U999UT364LVLGYU97W", "dateTime": 1516294331638}, {"current_trial": 134, "trialdata": {"rt": -1, "trial_type": "single-stim", "word": "piston", "stimulus": "<p id=\"stim\">PISTON</p>", "conditions": [12, 1600, "v", 24000], "internal_node_id": "0.0-98.0", "trial": 3, "time_elapsed": 642542, "serialpos": 5, "key_press": -1, "wordID": 1075, "type": "PRES_VIS", "trial_index": 134}, "uniqueid": "MTK1751:3NXNZ5RS1B40U999UT364LVLGYU97W", "dateTime": 1516294334400}, {"current_trial": 135, "trialdata": {"rt": -1, "trial_type": "single-stim", "word": "paper", "stimulus": "<p id=\"stim\">PAPER</p>", "conditions": [12, 1600, "v", 24000], "internal_node_id": "0.0-99.0", "trial": 3, "time_elapsed": 645022, "serialpos": 6, "key_press": -1, "wordID": 1010, "type": "PRES_VIS", "trial_index": 135}, "uniqueid": "MTK1751:3NXNZ5RS1B40U999UT364LVLGYU97W", "dateTime": 1516294336880}, {"current_trial": 136, "trialdata": {"rt": -1, "trial_type": "single-stim", "word": "xerox", "stimulus": "<p id=\"stim\">XEROX</p>", "conditions": [12, 1600, "v", 24000], "internal_node_id": "0.0-100.0", "trial": 3, "time_elapsed": 647667, "serialpos": 7, "key_press": -1, "wordID": 1627, "type": "PRES_VIS", "trial_index": 136}, "uniqueid": "MTK1751:3NXNZ5RS1B40U999UT364LVLGYU97W", "dateTime": 1516294339525}, {"current_trial": 137, "trialdata": {"rt": -1, "trial_type": "single-stim", "word": "thread", "stimulus": "<p id=\"stim\">THREAD</p>", "conditions": [12, 1600, "v", 24000], "internal_node_id": "0.0-101.0", "trial": 3, "time_elapsed": 650163, "serialpos": 8, "key_press": -1, "wordID": 1459, "type": "PRES_VIS", "trial_index": 137}, "uniqueid": "MTK1751:3NXNZ5RS1B40U999UT364LVLGYU97W", "dateTime": 1516294342021}, {"current_trial": 138, "trialdata": {"rt": -1, "trial_type": "single-stim", "word": "knife", "stimulus": "<p id=\"stim\">KNIFE</p>", "conditions": [12, 1600, "v", 24000], "internal_node_id": "0.0-102.0", "trial": 3, "time_elapsed": 652643, "serialpos": 9, "key_press": -1, "wordID": 784, "type": "PRES_VIS", "trial_index": 138}, "uniqueid": "MTK1751:3NXNZ5RS1B40U999UT364LVLGYU97W", "dateTime": 1516294344501}, {"current_trial": 139, "trialdata": {"rt": -1, "trial_type": "single-stim", "word": "valve", "stimulus": "<p id=\"stim\">VALVE</p>", "conditions": [12, 1600, "v", 24000], "internal_node_id": "0.0-103.0", "trial": 3, "time_elapsed": 655356, "serialpos": 10, "key_press": -1, "wordID": 1545, "type": "PRES_VIS", "trial_index": 139}, "uniqueid": "MTK1751:3NXNZ5RS1B40U999UT364LVLGYU97W", "dateTime": 1516294347214}, {"current_trial": 140, "trialdata": {"rt": -1, "trial_type": "single-stim", "word": "sculpture", "stimulus": "<p id=\"stim\">SCULPTURE</p>", "conditions": [12, 1600, "v", 24000], "internal_node_id": "0.0-104.0", "trial": 3, "time_elapsed": 658157, "serialpos": 11, "key_press": -1, "wordID": 1257, "type": "PRES_VIS", "trial_index": 140}, "uniqueid": "MTK1751:3NXNZ5RS1B40U999UT364LVLGYU97W", "dateTime": 1516294350015}, {"current_trial": 141, "trialdata": {"rt": -1, "trial_type": "single-stim", "stimulus": "", "internal_node_id": "0.0-105.0-0.0", "time_elapsed": 660436, "key_press": -1, "type": "PRE_RECALL_DELAY", "trial_index": 141}, "uniqueid": "MTK1751:3NXNZ5RS1B40U999UT364LVLGYU97W", "dateTime": 1516294352294}, {"current_trial": 142, "trialdata": {"rt": -1000, "trial_type": "single-audio", "stimulus": "/static/audio/400Hz.wav", "internal_node_id": "0.0-106.0", "time_elapsed": 660937, "key_press": -1, "type": "PRE_RECALL_ALERT", "trial_index": 142}, "uniqueid": "MTK1751:3NXNZ5RS1B40U999UT364LVLGYU97W", "dateTime": 1516294352796}, {"current_trial": 143, "trialdata": {"rt": [2731, 4350, 5617, 7065, 9044, 14383, 21785], "recwords": ["sculpture", "cook", "liver", "valve", "marrow", "piston", "dress"], "key_times": [1126, 1332, 1470, 1699, 1898, 2171, 2386, 2506, 2559, 2731, 3812, 3903, 4069, 4132, 4350, 4767, 4983, 5106, 5202, 5384, 5617, 5970, 6170, 6313, 6443, 6502, 7065, 8201, 8265, 8499, 8647, 8748, 8907, 9044, 12289, 12513, 12587, 12778, 12852, 12971, 14383, 20951, 21164, 21249, 21544, 21690, 21785, 24104, 24114, 24432], "trial_type": "free-recall", "conditions": [12, 1600, "v", 24000], "internal_node_id": "0.0-107.0-0.0", "key_presses": [83, 67, 85, 76, 80, 84, 85, 82, 69, 13, 67, 79, 79, 75, 13, 76, 73, 86, 69, 82, 13, 86, 65, 76, 86, 69, 13, 77, 65, 82, 82, 79, 87, 13, 80, 73, 83, 84, 79, 78, 13, 68, 82, 69, 83, 83, 13, 39, 40, 40], "trial": 3, "time_elapsed": 720942, "type": "FREE_RECALL", "trial_index": 143}, "uniqueid": "MTK1751:3NXNZ5RS1B40U999UT364LVLGYU97W", "dateTime": 1516294412805}, {"current_trial": 144, "trialdata": {"rt": 884, "trial_type": "text", "internal_node_id": "0.0-108.0", "time_elapsed": 723834, "key_press": 32, "type": "INSTRUCTIONS", "trial_index": 144}, "uniqueid": "MTK1751:3NXNZ5RS1B40U999UT364LVLGYU97W", "dateTime": 1516294415692}, {"current_trial": 145, "trialdata": {"rt": [2210, 4278, 6029, 7490, 9040, 10528], "trial_type": "math-distractor", "key_times": [1674, 2073, 2210, 3822, 4085, 4278, 5619, 5851, 6029, 7252, 7394, 7490, 8752, 8945, 9040, 10164, 10421, 10528, 11769], "responses": ["15", "18", "20", "11", "14", "15"], "num2": [2, 5, 5, 1, 4, 3, 5], "num3": [9, 8, 8, 7, 3, 5, 3], "conditions": [12, 1600, "v", 12000], "internal_node_id": "0.0-109.0", "key_presses": [49, 53, 13, 49, 56, 13, 50, 48, 13, 49, 49, 13, 49, 52, 13, 49, 53, 13, 49], "trial": 4, "time_elapsed": 737858, "type": "DISTRACTOR", "trial_index": 145, "num1": [4, 5, 7, 3, 7, 7, 2]}, "uniqueid": "MTK1751:3NXNZ5RS1B40U999UT364LVLGYU97W", "dateTime": 1516294429716}, {"current_trial": 146, "trialdata": {"rt": -1, "trial_type": "single-stim", "stimulus": "<p id=\"stim\">10</p>", "internal_node_id": "0.0-110.0-0.0", "time_elapsed": 740861, "key_press": -1, "trial_index": 146}, "uniqueid": "MTK1751:3NXNZ5RS1B40U999UT364LVLGYU97W", "dateTime": 1516294432719}, {"current_trial": 147, "trialdata": {"rt": -1, "trial_type": "single-stim", "stimulus": "<p id=\"stim\">9</p>", "internal_node_id": "0.0-110.0-1.0", "time_elapsed": 741862, "key_press": -1, "trial_index": 147}, "uniqueid": "MTK1751:3NXNZ5RS1B40U999UT364LVLGYU97W", "dateTime": 1516294433720}, {"current_trial": 148, "trialdata": {"rt": -1, "trial_type": "single-stim", "stimulus": "<p id=\"stim\">8</p>", "internal_node_id": "0.0-110.0-2.0", "time_elapsed": 742863, "key_press": -1, "trial_index": 148}, "uniqueid": "MTK1751:3NXNZ5RS1B40U999UT364LVLGYU97W", "dateTime": 1516294434721}, {"current_trial": 149, "trialdata": {"rt": -1, "trial_type": "single-stim", "stimulus": "<p id=\"stim\">7</p>", "internal_node_id": "0.0-110.0-3.0", "time_elapsed": 743864, "key_press": -1, "trial_index": 149}, "uniqueid": "MTK1751:3NXNZ5RS1B40U999UT364LVLGYU97W", "dateTime": 1516294435722}, {"current_trial": 150, "trialdata": {"rt": -1, "trial_type": "single-stim", "stimulus": "<p id=\"stim\">6</p>", "internal_node_id": "0.0-110.0-4.0", "time_elapsed": 744866, "key_press": -1, "trial_index": 150}, "uniqueid": "MTK1751:3NXNZ5RS1B40U999UT364LVLGYU97W", "dateTime": 1516294436724}, {"current_trial": 151, "trialdata": {"rt": -1, "trial_type": "single-stim", "stimulus": "<p id=\"stim\">5</p>", "internal_node_id": "0.0-110.0-5.0", "time_elapsed": 745868, "key_press": -1, "trial_index": 151}, "uniqueid": "MTK1751:3NXNZ5RS1B40U999UT364LVLGYU97W", "dateTime": 1516294437728}, {"current_trial": 152, "trialdata": {"rt": -1, "trial_type": "single-stim", "stimulus": "<p id=\"stim\">4</p>", "internal_node_id": "0.0-110.0-6.0", "time_elapsed": 746872, "key_press": -1, "trial_index": 152}, "uniqueid": "MTK1751:3NXNZ5RS1B40U999UT364LVLGYU97W", "dateTime": 1516294438730}, {"current_trial": 153, "trialdata": {"rt": -1, "trial_type": "single-stim", "stimulus": "<p id=\"stim\">3</p>", "internal_node_id": "0.0-110.0-7.0", "time_elapsed": 747877, "key_press": -1, "trial_index": 153}, "uniqueid": "MTK1751:3NXNZ5RS1B40U999UT364LVLGYU97W", "dateTime": 1516294439735}, {"current_trial": 154, "trialdata": {"rt": -1, "trial_type": "single-stim", "stimulus": "<p id=\"stim\">2</p>", "internal_node_id": "0.0-110.0-8.0", "time_elapsed": 748878, "key_press": -1, "trial_index": 154}, "uniqueid": "MTK1751:3NXNZ5RS1B40U999UT364LVLGYU97W", "dateTime": 1516294440736}, {"current_trial": 155, "trialdata": {"rt": -1, "trial_type": "single-stim", "stimulus": "<p id=\"stim\">1</p>", "internal_node_id": "0.0-110.0-9.0", "time_elapsed": 749881, "key_press": -1, "trial_index": 155}, "uniqueid": "MTK1751:3NXNZ5RS1B40U999UT364LVLGYU97W", "dateTime": 1516294441739}, {"current_trial": 156, "trialdata": {"rt": -1, "trial_type": "single-stim", "stimulus": "<p id=\"stim\">+</p>", "internal_node_id": "0.0-111.0-0.0", "time_elapsed": 751383, "key_press": -1, "type": "FIXATION", "trial_index": 156}, "uniqueid": "MTK1751:3NXNZ5RS1B40U999UT364LVLGYU97W", "dateTime": 1516294443241}, {"current_trial": 157, "trialdata": {"rt": -1, "trial_type": "single-stim", "word": "girl", "stimulus": "<p id=\"stim\">GIRL</p>", "conditions": [12, 1600, "v", 12000], "internal_node_id": "0.0-112.0", "trial": 4, "time_elapsed": 752995, "serialpos": 0, "key_press": -1, "wordID": 636, "type": "PRES_VIS", "trial_index": 157}, "uniqueid": "MTK1751:3NXNZ5RS1B40U999UT364LVLGYU97W", "dateTime": 1516294444853}, {"current_trial": 158, "trialdata": {"rt": -1, "trial_type": "single-stim", "word": "child", "stimulus": "<p id=\"stim\">CHILD</p>", "conditions": [12, 1600, "v", 12000], "internal_node_id": "0.0-113.0", "trial": 4, "time_elapsed": 755496, "serialpos": 1, "key_press": -1, "wordID": 298, "type": "PRES_VIS", "trial_index": 158}, "uniqueid": "MTK1751:3NXNZ5RS1B40U999UT364LVLGYU97W", "dateTime": 1516294447354}, {"current_trial": 159, "trialdata": {"rt": -1, "trial_type": "single-stim", "word": "proton", "stimulus": "<p id=\"stim\">PROTON</p>", "conditions": [12, 1600, "v", 12000], "internal_node_id": "0.0-114.0", "trial": 4, "time_elapsed": 758212, "serialpos": 2, "key_press": -1, "wordID": 1131, "type": "PRES_VIS", "trial_index": 159}, "uniqueid": "MTK1751:3NXNZ5RS1B40U999UT364LVLGYU97W", "dateTime": 1516294450070}, {"current_trial": 160, "trialdata": {"rt": -1, "trial_type": "single-stim", "word": "fragrance", "stimulus": "<p id=\"stim\">FRAGRANCE</p>", "conditions": [12, 1600, "v", 12000], "internal_node_id": "0.0-115.0", "trial": 4, "time_elapsed": 760947, "serialpos": 3, "key_press": -1, "wordID": 598, "type": "PRES_VIS", "trial_index": 160}, "uniqueid": "MTK1751:3NXNZ5RS1B40U999UT364LVLGYU97W", "dateTime": 1516294452805}, {"current_trial": 161, "trialdata": {"rt": -1, "trial_type": "single-stim", "word": "wardrobe", "stimulus": "<p id=\"stim\">WARDROBE</p>", "conditions": [12, 1600, "v", 12000], "internal_node_id": "0.0-116.0", "trial": 4, "time_elapsed": 763389, "serialpos": 4, "key_press": -1, "wordID": 1586, "type": "PRES_VIS", "trial_index": 161}, "uniqueid": "MTK1751:3NXNZ5RS1B40U999UT364LVLGYU97W", "dateTime": 1516294455247}, {"current_trial": 162, "trialdata": {"rt": -1, "trial_type": "single-stim", "word": "bike", "stimulus": "<p id=\"stim\">BIKE</p>", "conditions": [12, 1600, "v", 12000], "internal_node_id": "0.0-117.0", "trial": 4, "time_elapsed": 766170, "serialpos": 5, "key_press": -1, "wordID": 124, "type": "PRES_VIS", "trial_index": 162}, "uniqueid": "MTK1751:3NXNZ5RS1B40U999UT364LVLGYU97W", "dateTime": 1516294458028}, {"current_trial": 163, "trialdata": {"rt": -1, "trial_type": "single-stim", "word": "spool", "stimulus": "<p id=\"stim\">SPOOL</p>", "conditions": [12, 1600, "v", 12000], "internal_node_id": "0.0-118.0", "trial": 4, "time_elapsed": 768931, "serialpos": 6, "key_press": -1, "wordID": 1355, "type": "PRES_VIS", "trial_index": 163}, "uniqueid": "MTK1751:3NXNZ5RS1B40U999UT364LVLGYU97W", "dateTime": 1516294460789}, {"current_trial": 164, "trialdata": {"rt": -1, "trial_type": "single-stim", "word": "sketch", "stimulus": "<p id=\"stim\">SKETCH</p>", "conditions": [12, 1600, "v", 12000], "internal_node_id": "0.0-119.0", "trial": 4, "time_elapsed": 771336, "serialpos": 7, "key_press": -1, "wordID": 1314, "type": "PRES_VIS", "trial_index": 164}, "uniqueid": "MTK1751:3NXNZ5RS1B40U999UT364LVLGYU97W", "dateTime": 1516294463194}, {"current_trial": 165, "trialdata": {"rt": -1, "trial_type": "single-stim", "word": "sunrise", "stimulus": "<p id=\"stim\">SUNRISE</p>", "conditions": [12, 1600, "v", 12000], "internal_node_id": "0.0-120.0", "trial": 4, "time_elapsed": 773884, "serialpos": 8, "key_press": -1, "wordID": 1406, "type": "PRES_VIS", "trial_index": 165}, "uniqueid": "MTK1751:3NXNZ5RS1B40U999UT364LVLGYU97W", "dateTime": 1516294465742}, {"current_trial": 166, "trialdata": {"rt": -1, "trial_type": "single-stim", "word": "blouse", "stimulus": "<p id=\"stim\">BLOUSE</p>", "conditions": [12, 1600, "v", 12000], "internal_node_id": "0.0-121.0", "trial": 4, "time_elapsed": 776456, "serialpos": 9, "key_press": -1, "wordID": 138, "type": "PRES_VIS", "trial_index": 166}, "uniqueid": "MTK1751:3NXNZ5RS1B40U999UT364LVLGYU97W", "dateTime": 1516294468314}, {"current_trial": 167, "trialdata": {"rt": -1, "trial_type": "single-stim", "word": "market", "stimulus": "<p id=\"stim\">MARKET</p>", "conditions": [12, 1600, "v", 12000], "internal_node_id": "0.0-122.0", "trial": 4, "time_elapsed": 778947, "serialpos": 10, "key_press": -1, "wordID": 870, "type": "PRES_VIS", "trial_index": 167}, "uniqueid": "MTK1751:3NXNZ5RS1B40U999UT364LVLGYU97W", "dateTime": 1516294470806}, {"current_trial": 168, "trialdata": {"rt": -1, "trial_type": "single-stim", "word": "wasp", "stimulus": "<p id=\"stim\">WASP</p>", "conditions": [12, 1600, "v", 12000], "internal_node_id": "0.0-123.0", "trial": 4, "time_elapsed": 781595, "serialpos": 11, "key_press": -1, "wordID": 1592, "type": "PRES_VIS", "trial_index": 168}, "uniqueid": "MTK1751:3NXNZ5RS1B40U999UT364LVLGYU97W", "dateTime": 1516294473453}, {"current_trial": 169, "trialdata": {"rt": -1, "trial_type": "single-stim", "stimulus": "", "internal_node_id": "0.0-124.0-0.0", "time_elapsed": 783949, "key_press": -1, "type": "PRE_RECALL_DELAY", "trial_index": 169}, "uniqueid": "MTK1751:3NXNZ5RS1B40U999UT364LVLGYU97W", "dateTime": 1516294475807}, {"current_trial": 170, "trialdata": {"rt": -1000, "trial_type": "single-audio", "stimulus": "/static/audio/400Hz.wav", "internal_node_id": "0.0-125.0", "time_elapsed": 784451, "key_press": -1, "type": "PRE_RECALL_ALERT", "trial_index": 170}, "uniqueid": "MTK1751:3NXNZ5RS1B40U999UT364LVLGYU97W", "dateTime": 1516294476309}, {"current_trial": 171, "trialdata": {"rt": [1588, 2727, 6548, 7725, 10335, 15528, 27957, 31944, 32766], "recwords": ["wasp", "market", "girl", "child", "dresser", "fragrance", "proton", "bike", "spool"], "key_times": [892, 1081, 1226, 1316, 1588, 2085, 2149, 2333, 2447, 2495, 2600, 2727, 5677, 5816, 5931, 6070, 6548, 6987, 7131, 7329, 7489, 7580, 7725, 9357, 9533, 9597, 9832, 9960, 10122, 10266, 10335, 11225, 11277, 11489, 11656, 11741, 11747, 11924, 12051, 12136, 12158, 12503, 12664, 12865, 12981, 13138, 13429, 13614, 13734, 13819, 15528, 27160, 27259, 27383, 27452, 27570, 27762, 27957, 31511, 31612, 31774, 31859, 31944, 32158, 32248, 32403, 32526, 32666, 32766], "trial_type": "free-recall", "conditions": [12, 1600, "v", 12000], "internal_node_id": "0.0-126.0-0.0", "key_presses": [87, 65, 83, 80, 13, 77, 65, 82, 75, 69, 84, 13, 71, 73, 82, 76, 13, 67, 72, 73, 76, 68, 13, 68, 82, 69, 83, 83, 69, 82, 13, 70, 82, 65, 71, 82, 69, 65, 78, 67, 69, 8, 8, 8, 8, 8, 65, 78, 67, 69, 13, 80, 82, 79, 84, 79, 78, 13, 66, 73, 75, 69, 13, 83, 80, 79, 79, 76, 13], "trial": 4, "time_elapsed": 844455, "type": "FREE_RECALL", "trial_index": 171}, "uniqueid": "MTK1751:3NXNZ5RS1B40U999UT364LVLGYU97W", "dateTime": 1516294536318}, {"current_trial": 172, "trialdata": {"rt": 1942, "trial_type": "text", "internal_node_id": "0.0-127.0", "time_elapsed": 848403, "key_press": 32, "type": "INSTRUCTIONS", "trial_index": 172}, "uniqueid": "MTK1751:3NXNZ5RS1B40U999UT364LVLGYU97W", "dateTime": 1516294540262}, {"current_trial": 173, "trialdata": {"rt": [1534, 3021, 4405, 5862, 7526, 8932, 11905, 13905, 16445, 18037, 20388, 22599], "trial_type": "math-distractor", "key_times": [1297, 1439, 1534, 2814, 2931, 3021, 4262, 4337, 4405, 5598, 5752, 5862, 7241, 7452, 7526, 8752, 8836, 8932, 11443, 11678, 11905, 13543, 13660, 13905, 15592, 16049, 16445, 17863, 17946, 18037, 19603, 20141, 20388, 22048, 22599], "responses": ["11", "13", "12", "11", "13", "12", "24", "10", "19", "12", "17", "8"], "num2": [8, 5, 8, 4, 6, 7, 7, 3, 7, 5, 8, 3, 9], "num3": [1, 6, 1, 1, 3, 3, 9, 1, 8, 3, 5, 1, 8], "conditions": [24, 800, "v", 24000], "internal_node_id": "0.0-128.0", "key_presses": [49, 49, 13, 49, 51, 13, 49, 50, 13, 49, 49, 13, 49, 51, 13, 49, 50, 13, 50, 52, 13, 49, 48, 13, 49, 57, 13, 49, 50, 13, 49, 55, 13, 56, 13], "trial": 5, "time_elapsed": 874450, "type": "DISTRACTOR", "trial_index": 173, "num1": [2, 2, 3, 6, 4, 2, 8, 6, 4, 4, 4, 4, 9]}, "uniqueid": "MTK1751:3NXNZ5RS1B40U999UT364LVLGYU97W", "dateTime": 1516294566308}, {"current_trial": 174, "trialdata": {"rt": -1, "trial_type": "single-stim", "stimulus": "<p id=\"stim\">10</p>", "internal_node_id": "0.0-129.0-0.0", "time_elapsed": 877453, "key_press": -1, "trial_index": 174}, "uniqueid": "MTK1751:3NXNZ5RS1B40U999UT364LVLGYU97W", "dateTime": 1516294569312}, {"current_trial": 175, "trialdata": {"rt": -1, "trial_type": "single-stim", "stimulus": "<p id=\"stim\">9</p>", "internal_node_id": "0.0-129.0-1.0", "time_elapsed": 878455, "key_press": -1, "trial_index": 175}, "uniqueid": "MTK1751:3NXNZ5RS1B40U999UT364LVLGYU97W", "dateTime": 1516294570313}, {"current_trial": 176, "trialdata": {"rt": -1, "trial_type": "single-stim", "stimulus": "<p id=\"stim\">8</p>", "internal_node_id": "0.0-129.0-2.0", "time_elapsed": 879457, "key_press": -1, "trial_index": 176}, "uniqueid": "MTK1751:3NXNZ5RS1B40U999UT364LVLGYU97W", "dateTime": 1516294571315}, {"current_trial": 177, "trialdata": {"rt": -1, "trial_type": "single-stim", "stimulus": "<p id=\"stim\">7</p>", "internal_node_id": "0.0-129.0-3.0", "time_elapsed": 880458, "key_press": -1, "trial_index": 177}, "uniqueid": "MTK1751:3NXNZ5RS1B40U999UT364LVLGYU97W", "dateTime": 1516294572316}, {"current_trial": 178, "trialdata": {"rt": -1, "trial_type": "single-stim", "stimulus": "<p id=\"stim\">6</p>", "internal_node_id": "0.0-129.0-4.0", "time_elapsed": 881459, "key_press": -1, "trial_index": 178}, "uniqueid": "MTK1751:3NXNZ5RS1B40U999UT364LVLGYU97W", "dateTime": 1516294573317}, {"current_trial": 179, "trialdata": {"rt": -1, "trial_type": "single-stim", "stimulus": "<p id=\"stim\">5</p>", "internal_node_id": "0.0-129.0-5.0", "time_elapsed": 882460, "key_press": -1, "trial_index": 179}, "uniqueid": "MTK1751:3NXNZ5RS1B40U999UT364LVLGYU97W", "dateTime": 1516294574318}, {"current_trial": 180, "trialdata": {"rt": -1, "trial_type": "single-stim", "stimulus": "<p id=\"stim\">4</p>", "internal_node_id": "0.0-129.0-6.0", "time_elapsed": 883461, "key_press": -1, "trial_index": 180}, "uniqueid": "MTK1751:3NXNZ5RS1B40U999UT364LVLGYU97W", "dateTime": 1516294575319}, {"current_trial": 181, "trialdata": {"rt": -1, "trial_type": "single-stim", "stimulus": "<p id=\"stim\">3</p>", "internal_node_id": "0.0-129.0-7.0", "time_elapsed": 884463, "key_press": -1, "trial_index": 181}, "uniqueid": "MTK1751:3NXNZ5RS1B40U999UT364LVLGYU97W", "dateTime": 1516294576322}, {"current_trial": 182, "trialdata": {"rt": -1, "trial_type": "single-stim", "stimulus": "<p id=\"stim\">2</p>", "internal_node_id": "0.0-129.0-8.0", "time_elapsed": 885465, "key_press": -1, "trial_index": 182}, "uniqueid": "MTK1751:3NXNZ5RS1B40U999UT364LVLGYU97W", "dateTime": 1516294577323}, {"current_trial": 183, "trialdata": {"rt": -1, "trial_type": "single-stim", "stimulus": "<p id=\"stim\">1</p>", "internal_node_id": "0.0-129.0-9.0", "time_elapsed": 886467, "key_press": -1, "trial_index": 183}, "uniqueid": "MTK1751:3NXNZ5RS1B40U999UT364LVLGYU97W", "dateTime": 1516294578325}, {"current_trial": 184, "trialdata": {"rt": -1, "trial_type": "single-stim", "stimulus": "<p id=\"stim\">+</p>", "internal_node_id": "0.0-130.0-0.0", "time_elapsed": 887971, "key_press": -1, "type": "FIXATION", "trial_index": 184}, "uniqueid": "MTK1751:3NXNZ5RS1B40U999UT364LVLGYU97W", "dateTime": 1516294579829}, {"current_trial": 185, "trialdata": {"rt": -1, "trial_type": "single-stim", "word": "dime", "stimulus": "<p id=\"stim\">DIME</p>", "conditions": [24, 800, "v", 24000], "internal_node_id": "0.0-131.0", "trial": 5, "time_elapsed": 888773, "serialpos": 0, "key_press": -1, "wordID": 465, "type": "PRES_VIS", "trial_index": 185}, "uniqueid": "MTK1751:3NXNZ5RS1B40U999UT364LVLGYU97W", "dateTime": 1516294580631}, {"current_trial": 186, "trialdata": {"rt": -1, "trial_type": "single-stim", "word": "seafood", "stimulus": "<p id=\"stim\">SEAFOOD</p>", "conditions": [24, 800, "v", 24000], "internal_node_id": "0.0-132.0", "trial": 5, "time_elapsed": 890385, "serialpos": 1, "key_press": -1, "wordID": 1259, "type": "PRES_VIS", "trial_index": 186}, "uniqueid": "MTK1751:3NXNZ5RS1B40U999UT364LVLGYU97W", "dateTime": 1516294582243}, {"current_trial": 187, "trialdata": {"rt": -1, "trial_type": "single-stim", "word": "arm", "stimulus": "<p id=\"stim\">ARM</p>", "conditions": [24, 800, "v", 24000], "internal_node_id": "0.0-133.0", "trial": 5, "time_elapsed": 892067, "serialpos": 2, "key_press": -1, "wordID": 37, "type": "PRES_VIS", "trial_index": 187}, "uniqueid": "MTK1751:3NXNZ5RS1B40U999UT364LVLGYU97W", "dateTime": 1516294583925}, {"current_trial": 188, "trialdata": {"rt": -1, "trial_type": "single-stim", "word": "chipmunk", "stimulus": "<p id=\"stim\">CHIPMUNK</p>", "conditions": [24, 800, "v", 24000], "internal_node_id": "0.0-134.0", "trial": 5, "time_elapsed": 893691, "serialpos": 3, "key_press": -1, "wordID": 303, "type": "PRES_VIS", "trial_index": 188}, "uniqueid": "MTK1751:3NXNZ5RS1B40U999UT364LVLGYU97W", "dateTime": 1516294585549}, {"current_trial": 189, "trialdata": {"rt": -1, "trial_type": "single-stim", "word": "cousin", "stimulus": "<p id=\"stim\">COUSIN</p>", "conditions": [24, 800, "v", 24000], "internal_node_id": "0.0-135.0", "trial": 5, "time_elapsed": 895572, "serialpos": 4, "key_press": -1, "wordID": 391, "type": "PRES_VIS", "trial_index": 189}, "uniqueid": "MTK1751:3NXNZ5RS1B40U999UT364LVLGYU97W", "dateTime": 1516294587430}, {"current_trial": 190, "trialdata": {"rt": -1, "trial_type": "single-stim", "word": "thief", "stimulus": "<p id=\"stim\">THIEF</p>", "conditions": [24, 800, "v", 24000], "internal_node_id": "0.0-136.0", "trial": 5, "time_elapsed": 897373, "serialpos": 5, "key_press": -1, "wordID": 1455, "type": "PRES_VIS", "trial_index": 190}, "uniqueid": "MTK1751:3NXNZ5RS1B40U999UT364LVLGYU97W", "dateTime": 1516294589231}, {"current_trial": 191, "trialdata": {"rt": -1, "trial_type": "single-stim", "word": "cod", "stimulus": "<p id=\"stim\">COD</p>", "conditions": [24, 800, "v", 24000], "internal_node_id": "0.0-137.0", "trial": 5, "time_elapsed": 899017, "serialpos": 6, "key_press": -1, "wordID": 339, "type": "PRES_VIS", "trial_index": 191}, "uniqueid": "MTK1751:3NXNZ5RS1B40U999UT364LVLGYU97W", "dateTime": 1516294590875}, {"current_trial": 192, "trialdata": {"rt": -1, "trial_type": "single-stim", "word": "muffin", "stimulus": "<p id=\"stim\">MUFFIN</p>", "conditions": [24, 800, "v", 24000], "internal_node_id": "0.0-138.0", "trial": 5, "time_elapsed": 900836, "serialpos": 7, "key_press": -1, "wordID": 928, "type": "PRES_VIS", "trial_index": 192}, "uniqueid": "MTK1751:3NXNZ5RS1B40U999UT364LVLGYU97W", "dateTime": 1516294592694}, {"current_trial": 193, "trialdata": {"rt": -1, "trial_type": "single-stim", "word": "beast", "stimulus": "<p id=\"stim\">BEAST</p>", "conditions": [24, 800, "v", 24000], "internal_node_id": "0.0-139.0", "trial": 5, "time_elapsed": 902537, "serialpos": 8, "key_press": -1, "wordID": 107, "type": "PRES_VIS", "trial_index": 193}, "uniqueid": "MTK1751:3NXNZ5RS1B40U999UT364LVLGYU97W", "dateTime": 1516294594395}, {"current_trial": 194, "trialdata": {"rt": -1, "trial_type": "single-stim", "word": "creature", "stimulus": "<p id=\"stim\">CREATURE</p>", "conditions": [24, 800, "v", 24000], "internal_node_id": "0.0-140.0", "trial": 5, "time_elapsed": 904388, "serialpos": 9, "key_press": -1, "wordID": 402, "type": "PRES_VIS", "trial_index": 194}, "uniqueid": "MTK1751:3NXNZ5RS1B40U999UT364LVLGYU97W", "dateTime": 1516294596246}, {"current_trial": 195, "trialdata": {"rt": -1, "trial_type": "single-stim", "word": "beaver", "stimulus": "<p id=\"stim\">BEAVER</p>", "conditions": [24, 800, "v", 24000], "internal_node_id": "0.0-141.0", "trial": 5, "time_elapsed": 906357, "serialpos": 10, "key_press": -1, "wordID": 108, "type": "PRES_VIS", "trial_index": 195}, "uniqueid": "MTK1751:3NXNZ5RS1B40U999UT364LVLGYU97W", "dateTime": 1516294598215}, {"current_trial": 196, "trialdata": {"rt": -1, "trial_type": "single-stim", "word": "hatchet", "stimulus": "<p id=\"stim\">HATCHET</p>", "conditions": [24, 800, "v", 24000], "internal_node_id": "0.0-142.0", "trial": 5, "time_elapsed": 907998, "serialpos": 11, "key_press": -1, "wordID": 690, "type": "PRES_VIS", "trial_index": 196}, "uniqueid": "MTK1751:3NXNZ5RS1B40U999UT364LVLGYU97W", "dateTime": 1516294599856}, {"current_trial": 197, "trialdata": {"rt": -1, "trial_type": "single-stim", "word": "kitchen", "stimulus": "<p id=\"stim\">KITCHEN</p>", "conditions": [24, 800, "v", 24000], "internal_node_id": "0.0-143.0", "trial": 5, "time_elapsed": 909660, "serialpos": 12, "key_press": -1, "wordID": 777, "type": "PRES_VIS", "trial_index": 197}, "uniqueid": "MTK1751:3NXNZ5RS1B40U999UT364LVLGYU97W", "dateTime": 1516294601518}, {"current_trial": 198, "trialdata": {"rt": -1, "trial_type": "single-stim", "word": "basement", "stimulus": "<p id=\"stim\">BASEMENT</p>", "conditions": [24, 800, "v", 24000], "internal_node_id": "0.0-144.0", "trial": 5, "time_elapsed": 911268, "serialpos": 13, "key_press": -1, "wordID": 93, "type": "PRES_VIS", "trial_index": 198}, "uniqueid": "MTK1751:3NXNZ5RS1B40U999UT364LVLGYU97W", "dateTime": 1516294603126}, {"current_trial": 199, "trialdata": {"rt": -1, "trial_type": "single-stim", "word": "nightgown", "stimulus": "<p id=\"stim\">NIGHTGOWN</p>", "conditions": [24, 800, "v", 24000], "internal_node_id": "0.0-145.0", "trial": 5, "time_elapsed": 912940, "serialpos": 14, "key_press": -1, "wordID": 952, "type": "PRES_VIS", "trial_index": 199}, "uniqueid": "MTK1751:3NXNZ5RS1B40U999UT364LVLGYU97W", "dateTime": 1516294604798}, {"current_trial": 200, "trialdata": {"rt": -1, "trial_type": "single-stim", "word": "marine", "stimulus": "<p id=\"stim\">MARINE</p>", "conditions": [24, 800, "v", 24000], "internal_node_id": "0.0-146.0", "trial": 5, "time_elapsed": 914621, "serialpos": 15, "key_press": -1, "wordID": 868, "type": "PRES_VIS", "trial_index": 200}, "uniqueid": "MTK1751:3NXNZ5RS1B40U999UT364LVLGYU97W", "dateTime": 1516294606479}, {"current_trial": 201, "trialdata": {"rt": -1, "trial_type": "single-stim", "word": "jury", "stimulus": "<p id=\"stim\">JURY</p>", "conditions": [24, 800, "v", 24000], "internal_node_id": "0.0-147.0", "trial": 5, "time_elapsed": 916577, "serialpos": 16, "key_press": -1, "wordID": 765, "type": "PRES_VIS", "trial_index": 201}, "uniqueid": "MTK1751:3NXNZ5RS1B40U999UT364LVLGYU97W", "dateTime": 1516294608435}, {"current_trial": 202, "trialdata": {"rt": -1, "trial_type": "single-stim", "word": "journal", "stimulus": "<p id=\"stim\">JOURNAL</p>", "conditions": [24, 800, "v", 24000], "internal_node_id": "0.0-148.0", "trial": 5, "time_elapsed": 918418, "serialpos": 17, "key_press": -1, "wordID": 759, "type": "PRES_VIS", "trial_index": 202}, "uniqueid": "MTK1751:3NXNZ5RS1B40U999UT364LVLGYU97W", "dateTime": 1516294610276}, {"current_trial": 203, "trialdata": {"rt": -1, "trial_type": "single-stim", "word": "raft", "stimulus": "<p id=\"stim\">RAFT</p>", "conditions": [24, 800, "v", 24000], "internal_node_id": "0.0-149.0", "trial": 5, "time_elapsed": 920245, "serialpos": 18, "key_press": -1, "wordID": 1158, "type": "PRES_VIS", "trial_index": 203}, "uniqueid": "MTK1751:3NXNZ5RS1B40U999UT364LVLGYU97W", "dateTime": 1516294612103}, {"current_trial": 204, "trialdata": {"rt": -1, "trial_type": "single-stim", "word": "hornet", "stimulus": "<p id=\"stim\">HORNET</p>", "conditions": [24, 800, "v", 24000], "internal_node_id": "0.0-150.0", "trial": 5, "time_elapsed": 921859, "serialpos": 19, "key_press": -1, "wordID": 717, "type": "PRES_VIS", "trial_index": 204}, "uniqueid": "MTK1751:3NXNZ5RS1B40U999UT364LVLGYU97W", "dateTime": 1516294613717}, {"current_trial": 205, "trialdata": {"rt": -1, "trial_type": "single-stim", "word": "atom", "stimulus": "<p id=\"stim\">ATOM</p>", "conditions": [24, 800, "v", 24000], "internal_node_id": "0.0-151.0", "trial": 5, "time_elapsed": 923619, "serialpos": 20, "key_press": -1, "wordID": 54, "type": "PRES_VIS", "trial_index": 205}, "uniqueid": "MTK1751:3NXNZ5RS1B40U999UT364LVLGYU97W", "dateTime": 1516294615477}, {"current_trial": 206, "trialdata": {"rt": -1, "trial_type": "single-stim", "word": "wagon", "stimulus": "<p id=\"stim\">WAGON</p>", "conditions": [24, 800, "v", 24000], "internal_node_id": "0.0-152.0", "trial": 5, "time_elapsed": 925512, "serialpos": 21, "key_press": -1, "wordID": 1577, "type": "PRES_VIS", "trial_index": 206}, "uniqueid": "MTK1751:3NXNZ5RS1B40U999UT364LVLGYU97W", "dateTime": 1516294617370}, {"current_trial": 207, "trialdata": {"rt": -1, "trial_type": "single-stim", "word": "clothes", "stimulus": "<p id=\"stim\">CLOTHES</p>", "conditions": [24, 800, "v", 24000], "internal_node_id": "0.0-153.0", "trial": 5, "time_elapsed": 927381, "serialpos": 22, "key_press": -1, "wordID": 326, "type": "PRES_VIS", "trial_index": 207}, "uniqueid": "MTK1751:3NXNZ5RS1B40U999UT364LVLGYU97W", "dateTime": 1516294619239}, {"current_trial": 208, "trialdata": {"rt": -1, "trial_type": "single-stim", "word": "buggy", "stimulus": "<p id=\"stim\">BUGGY</p>", "conditions": [24, 800, "v", 24000], "internal_node_id": "0.0-154.0", "trial": 5, "time_elapsed": 929074, "serialpos": 23, "key_press": -1, "wordID": 187, "type": "PRES_VIS", "trial_index": 208}, "uniqueid": "MTK1751:3NXNZ5RS1B40U999UT364LVLGYU97W", "dateTime": 1516294620932}, {"current_trial": 209, "trialdata": {"rt": -1, "trial_type": "single-stim", "stimulus": "", "internal_node_id": "0.0-155.0-0.0", "time_elapsed": 931546, "key_press": -1, "type": "PRE_RECALL_DELAY", "trial_index": 209}, "uniqueid": "MTK1751:3NXNZ5RS1B40U999UT364LVLGYU97W", "dateTime": 1516294623404}, {"current_trial": 210, "trialdata": {"rt": -1000, "trial_type": "single-audio", "stimulus": "/static/audio/400Hz.wav", "internal_node_id": "0.0-156.0", "time_elapsed": 932048, "key_press": -1, "type": "PRE_RECALL_ALERT", "trial_index": 210}, "uniqueid": "MTK1751:3NXNZ5RS1B40U999UT364LVLGYU97W", "dateTime": 1516294623906}, {"current_trial": 211, "trialdata": {"rt": [2117, 3183, 4219, 5790, 8878, 11218, 13103, 14276, 17197], "recwords": ["buggy", "clothes", "beast", "creatre", "hornet", "cod", "market", "fish", "atom"], "key_times": [1193, 1397, 1594, 1718, 1893, 2117, 2332, 2470, 2633, 2702, 2838, 2940, 3103, 3183, 3573, 3641, 3721, 3894, 4129, 4219, 4918, 5087, 5130, 5286, 5369, 5621, 5678, 5790, 8076, 8244, 8345, 8585, 8675, 8777, 8878, 10900, 10983, 11127, 11218, 12545, 12615, 12744, 12845, 12914, 13002, 13103, 13754, 13882, 13968, 14108, 14276, 15695, 15858, 15881, 15983, 16462, 16612, 16736, 16852, 16937, 17027, 17197], "trial_type": "free-recall", "conditions": [24, 800, "v", 24000], "internal_node_id": "0.0-157.0-0.0", "key_presses": [66, 85, 71, 71, 89, 13, 67, 76, 79, 84, 72, 69, 83, 13, 66, 69, 65, 83, 84, 13, 67, 82, 69, 65, 84, 82, 69, 13, 72, 79, 82, 78, 69, 84, 13, 67, 79, 68, 13, 77, 65, 82, 75, 69, 84, 13, 70, 73, 83, 72, 13, 65, 82, 84, 79, 8, 8, 8, 84, 79, 77, 13], "trial": 5, "time_elapsed": 992053, "type": "FREE_RECALL", "trial_index": 211}, "uniqueid": "MTK1751:3NXNZ5RS1B40U999UT364LVLGYU97W", "dateTime": 1516294683931}, {"current_trial": 212, "trialdata": {"rt": 1981, "trial_type": "text", "internal_node_id": "0.0-158.0", "time_elapsed": 996056, "key_press": 32, "type": "INSTRUCTIONS", "trial_index": 212}, "uniqueid": "MTK1751:3NXNZ5RS1B40U999UT364LVLGYU97W", "dateTime": 1516294687914}, {"current_trial": 213, "trialdata": {"rt": [1783, 3554, 5548, 7733, 9189, 10809], "trial_type": "math-distractor", "key_times": [1417, 1578, 1783, 3354, 3554, 5373, 5442, 5548, 7553, 7621, 7733, 8993, 9082, 9189, 10587, 10719, 10809], "responses": ["20", "9", "23", "21", "12", "22"], "num2": [5, 2, 7, 8, 2, 9, 1], "num3": [7, 1, 9, 7, 8, 9, 3], "conditions": [12, 800, "v", 12000], "internal_node_id": "0.0-159.0", "key_presses": [50, 48, 13, 57, 13, 50, 51, 13, 50, 49, 13, 49, 50, 13, 50, 50, 13], "trial": 6, "time_elapsed": 1010079, "type": "DISTRACTOR", "trial_index": 213, "num1": [8, 6, 7, 6, 2, 4, 5]}, "uniqueid": "MTK1751:3NXNZ5RS1B40U999UT364LVLGYU97W", "dateTime": 1516294701937}, {"current_trial": 214, "trialdata": {"rt": -1, "trial_type": "single-stim", "stimulus": "<p id=\"stim\">10</p>", "internal_node_id": "0.0-160.0-0.0", "time_elapsed": 1013081, "key_press": -1, "trial_index": 214}, "uniqueid": "MTK1751:3NXNZ5RS1B40U999UT364LVLGYU97W", "dateTime": 1516294704939}, {"current_trial": 215, "trialdata": {"rt": -1, "trial_type": "single-stim", "stimulus": "<p id=\"stim\">9</p>", "internal_node_id": "0.0-160.0-1.0", "time_elapsed": 1014082, "key_press": -1, "trial_index": 215}, "uniqueid": "MTK1751:3NXNZ5RS1B40U999UT364LVLGYU97W", "dateTime": 1516294705940}, {"current_trial": 216, "trialdata": {"rt": -1, "trial_type": "single-stim", "stimulus": "<p id=\"stim\">8</p>", "internal_node_id": "0.0-160.0-2.0", "time_elapsed": 1015084, "key_press": -1, "trial_index": 216}, "uniqueid": "MTK1751:3NXNZ5RS1B40U999UT364LVLGYU97W", "dateTime": 1516294706942}, {"current_trial": 217, "trialdata": {"rt": -1, "trial_type": "single-stim", "stimulus": "<p id=\"stim\">7</p>", "internal_node_id": "0.0-160.0-3.0", "time_elapsed": 1016085, "key_press": -1, "trial_index": 217}, "uniqueid": "MTK1751:3NXNZ5RS1B40U999UT364LVLGYU97W", "dateTime": 1516294707943}, {"current_trial": 218, "trialdata": {"rt": -1, "trial_type": "single-stim", "stimulus": "<p id=\"stim\">6</p>", "internal_node_id": "0.0-160.0-4.0", "time_elapsed": 1017087, "key_press": -1, "trial_index": 218}, "uniqueid": "MTK1751:3NXNZ5RS1B40U999UT364LVLGYU97W", "dateTime": 1516294708945}, {"current_trial": 219, "trialdata": {"rt": -1, "trial_type": "single-stim", "stimulus": "<p id=\"stim\">5</p>", "internal_node_id": "0.0-160.0-5.0", "time_elapsed": 1018089, "key_press": -1, "trial_index": 219}, "uniqueid": "MTK1751:3NXNZ5RS1B40U999UT364LVLGYU97W", "dateTime": 1516294709947}, {"current_trial": 220, "trialdata": {"rt": -1, "trial_type": "single-stim", "stimulus": "<p id=\"stim\">4</p>", "internal_node_id": "0.0-160.0-6.0", "time_elapsed": 1019091, "key_press": -1, "trial_index": 220}, "uniqueid": "MTK1751:3NXNZ5RS1B40U999UT364LVLGYU97W", "dateTime": 1516294710949}, {"current_trial": 221, "trialdata": {"rt": -1, "trial_type": "single-stim", "stimulus": "<p id=\"stim\">3</p>", "internal_node_id": "0.0-160.0-7.0", "time_elapsed": 1020094, "key_press": -1, "trial_index": 221}, "uniqueid": "MTK1751:3NXNZ5RS1B40U999UT364LVLGYU97W", "dateTime": 1516294711952}, {"current_trial": 222, "trialdata": {"rt": -1, "trial_type": "single-stim", "stimulus": "<p id=\"stim\">2</p>", "internal_node_id": "0.0-160.0-8.0", "time_elapsed": 1021096, "key_press": -1, "trial_index": 222}, "uniqueid": "MTK1751:3NXNZ5RS1B40U999UT364LVLGYU97W", "dateTime": 1516294712954}, {"current_trial": 223, "trialdata": {"rt": -1, "trial_type": "single-stim", "stimulus": "<p id=\"stim\">1</p>", "internal_node_id": "0.0-160.0-9.0", "time_elapsed": 1022097, "key_press": -1, "trial_index": 223}, "uniqueid": "MTK1751:3NXNZ5RS1B40U999UT364LVLGYU97W", "dateTime": 1516294713955}, {"current_trial": 224, "trialdata": {"rt": -1, "trial_type": "single-stim", "stimulus": "<p id=\"stim\">+</p>", "internal_node_id": "0.0-161.0-0.0", "time_elapsed": 1023597, "key_press": -1, "type": "FIXATION", "trial_index": 224}, "uniqueid": "MTK1751:3NXNZ5RS1B40U999UT364LVLGYU97W", "dateTime": 1516294715456}, {"current_trial": 225, "trialdata": {"rt": -1, "trial_type": "single-stim", "word": "summit", "stimulus": "<p id=\"stim\">SUMMIT</p>", "conditions": [12, 800, "v", 12000], "internal_node_id": "0.0-162.0", "trial": 6, "time_elapsed": 1024399, "serialpos": 0, "key_press": -1, "wordID": 1404, "type": "PRES_VIS", "trial_index": 225}, "uniqueid": "MTK1751:3NXNZ5RS1B40U999UT364LVLGYU97W", "dateTime": 1516294716257}, {"current_trial": 226, "trialdata": {"rt": -1, "trial_type": "single-stim", "word": "climber", "stimulus": "<p id=\"stim\">CLIMBER</p>", "conditions": [12, 800, "v", 12000], "internal_node_id": "0.0-163.0", "trial": 6, "time_elapsed": 1026341, "serialpos": 1, "key_press": -1, "wordID": 322, "type": "PRES_VIS", "trial_index": 226}, "uniqueid": "MTK1751:3NXNZ5RS1B40U999UT364LVLGYU97W", "dateTime": 1516294718199}, {"current_trial": 227, "trialdata": {"rt": -1, "trial_type": "single-stim", "word": "world", "stimulus": "<p id=\"stim\">WORLD</p>", "conditions": [12, 800, "v", 12000], "internal_node_id": "0.0-164.0", "trial": 6, "time_elapsed": 1028017, "serialpos": 2, "key_press": -1, "wordID": 1621, "type": "PRES_VIS", "trial_index": 227}, "uniqueid": "MTK1751:3NXNZ5RS1B40U999UT364LVLGYU97W", "dateTime": 1516294719876}, {"current_trial": 228, "trialdata": {"rt": -1, "trial_type": "single-stim", "word": "shrub", "stimulus": "<p id=\"stim\">SHRUB</p>", "conditions": [12, 800, "v", 12000], "internal_node_id": "0.0-165.0", "trial": 6, "time_elapsed": 1029949, "serialpos": 3, "key_press": -1, "wordID": 1298, "type": "PRES_VIS", "trial_index": 228}, "uniqueid": "MTK1751:3NXNZ5RS1B40U999UT364LVLGYU97W", "dateTime": 1516294721807}, {"current_trial": 229, "trialdata": {"rt": -1, "trial_type": "single-stim", "word": "pebble", "stimulus": "<p id=\"stim\">PEBBLE</p>", "conditions": [12, 800, "v", 12000], "internal_node_id": "0.0-166.0", "trial": 6, "time_elapsed": 1031785, "serialpos": 4, "key_press": -1, "wordID": 1034, "type": "PRES_VIS", "trial_index": 229}, "uniqueid": "MTK1751:3NXNZ5RS1B40U999UT364LVLGYU97W", "dateTime": 1516294723643}, {"current_trial": 230, "trialdata": {"rt": -1, "trial_type": "single-stim", "word": "skirt", "stimulus": "<p id=\"stim\">SKIRT</p>", "conditions": [12, 800, "v", 12000], "internal_node_id": "0.0-167.0", "trial": 6, "time_elapsed": 1033685, "serialpos": 5, "key_press": -1, "wordID": 1318, "type": "PRES_VIS", "trial_index": 230}, "uniqueid": "MTK1751:3NXNZ5RS1B40U999UT364LVLGYU97W", "dateTime": 1516294725545}, {"current_trial": 231, "trialdata": {"rt": -1, "trial_type": "single-stim", "word": "jelly", "stimulus": "<p id=\"stim\">JELLY</p>", "conditions": [12, 800, "v", 12000], "internal_node_id": "0.0-168.0", "trial": 6, "time_elapsed": 1035340, "serialpos": 6, "key_press": -1, "wordID": 754, "type": "PRES_VIS", "trial_index": 231}, "uniqueid": "MTK1751:3NXNZ5RS1B40U999UT364LVLGYU97W", "dateTime": 1516294727198}, {"current_trial": 232, "trialdata": {"rt": -1, "trial_type": "single-stim", "word": "custard", "stimulus": "<p id=\"stim\">CUSTARD</p>", "conditions": [12, 800, "v", 12000], "internal_node_id": "0.0-169.0", "trial": 6, "time_elapsed": 1037288, "serialpos": 7, "key_press": -1, "wordID": 428, "type": "PRES_VIS", "trial_index": 232}, "uniqueid": "MTK1751:3NXNZ5RS1B40U999UT364LVLGYU97W", "dateTime": 1516294729146}, {"current_trial": 233, "trialdata": {"rt": -1, "trial_type": "single-stim", "word": "twister", "stimulus": "<p id=\"stim\">TWISTER</p>", "conditions": [12, 800, "v", 12000], "internal_node_id": "0.0-170.0", "trial": 6, "time_elapsed": 1039224, "serialpos": 8, "key_press": -1, "wordID": 1529, "type": "PRES_VIS", "trial_index": 233}, "uniqueid": "MTK1751:3NXNZ5RS1B40U999UT364LVLGYU97W", "dateTime": 1516294731082}, {"current_trial": 234, "trialdata": {"rt": -1, "trial_type": "single-stim", "word": "marker", "stimulus": "<p id=\"stim\">MARKER</p>", "conditions": [12, 800, "v", 12000], "internal_node_id": "0.0-171.0", "trial": 6, "time_elapsed": 1041062, "serialpos": 9, "key_press": -1, "wordID": 869, "type": "PRES_VIS", "trial_index": 234}, "uniqueid": "MTK1751:3NXNZ5RS1B40U999UT364LVLGYU97W", "dateTime": 1516294732920}, {"current_trial": 235, "trialdata": {"rt": -1, "trial_type": "single-stim", "word": "flower", "stimulus": "<p id=\"stim\">FLOWER</p>", "conditions": [12, 800, "v", 12000], "internal_node_id": "0.0-172.0", "trial": 6, "time_elapsed": 1043055, "serialpos": 10, "key_press": -1, "wordID": 583, "type": "PRES_VIS", "trial_index": 235}, "uniqueid": "MTK1751:3NXNZ5RS1B40U999UT364LVLGYU97W", "dateTime": 1516294734913}, {"current_trial": 236, "trialdata": {"rt": -1, "trial_type": "single-stim", "word": "briefcase", "stimulus": "<p id=\"stim\">BRIEFCASE</p>", "conditions": [12, 800, "v", 12000], "internal_node_id": "0.0-173.0", "trial": 6, "time_elapsed": 1044786, "serialpos": 11, "key_press": -1, "wordID": 174, "type": "PRES_VIS", "trial_index": 236}, "uniqueid": "MTK1751:3NXNZ5RS1B40U999UT364LVLGYU97W", "dateTime": 1516294736644}, {"current_trial": 237, "trialdata": {"rt": -1, "trial_type": "single-stim", "stimulus": "", "internal_node_id": "0.0-174.0-0.0", "time_elapsed": 1047082, "key_press": -1, "type": "PRE_RECALL_DELAY", "trial_index": 237}, "uniqueid": "MTK1751:3NXNZ5RS1B40U999UT364LVLGYU97W", "dateTime": 1516294738940}, {"current_trial": 238, "trialdata": {"rt": -1000, "trial_type": "single-audio", "stimulus": "/static/audio/400Hz.wav", "internal_node_id": "0.0-175.0", "time_elapsed": 1047584, "key_press": -1, "type": "PRE_RECALL_ALERT", "trial_index": 238}, "uniqueid": "MTK1751:3NXNZ5RS1B40U999UT364LVLGYU97W", "dateTime": 1516294739442}, {"current_trial": 239, "trialdata": {"rt": [2559, 3988, 6067, 28339], "recwords": ["briefcase", "summit", "climber", "world"], "key_times": [1012, 1130, 1259, 1385, 1560, 1689, 1950, 2035, 2120, 2236, 2426, 2559, 3109, 3257, 3505, 3637, 3760, 3835, 3988, 4467, 4552, 4791, 5024, 5225, 5902, 5961, 6067, 27382, 27772, 27879, 28059, 28171, 28339, 38165, 45929], "trial_type": "free-recall", "conditions": [12, 800, "v", 12000], "internal_node_id": "0.0-176.0-0.0", "key_presses": [66, 82, 73, 69, 70, 65, 8, 67, 65, 83, 69, 13, 83, 85, 77, 77, 73, 84, 13, 67, 76, 73, 77, 66, 69, 82, 13, 87, 79, 82, 76, 68, 13, 18, 18], "trial": 6, "time_elapsed": 1107607, "type": "FREE_RECALL", "trial_index": 239}, "uniqueid": "MTK1751:3NXNZ5RS1B40U999UT364LVLGYU97W", "dateTime": 1516294799471}, {"current_trial": 240, "trialdata": {"rt": 730, "trial_type": "text", "internal_node_id": "0.0-177.0", "time_elapsed": 1110344, "key_press": 32, "type": "INSTRUCTIONS", "trial_index": 240}, "uniqueid": "MTK1751:3NXNZ5RS1B40U999UT364LVLGYU97W", "dateTime": 1516294802202}, {"current_trial": 241, "trialdata": {"rt": [1476, 3322, 5344, 6896, 8472, 9921, 11764, 13686, 15501, 17088, 21908, 23634], "trial_type": "math-distractor", "key_times": [1173, 1264, 1476, 3047, 3227, 3322, 5081, 5139, 5344, 6535, 6780, 6896, 8182, 8283, 8472, 9597, 9687, 9921, 11543, 11764, 13118, 13515, 13686, 15202, 15374, 15501, 16824, 16959, 17088, 18537, 18702, 18707, 19253, 19827, 19998, 20192, 20360, 20535, 20683, 20814, 21828, 21908, 23359, 23549, 23634], "responses": ["17", "14", "18", "13", "18", "10", "8", "15", "11", "14", "17", "14"], "num2": [1, 1, 8, 4, 4, 1, 2, 4, 6, 7, 8, 4, 5], "num3": [8, 8, 7, 7, 9, 2, 1, 2, 3, 1, 3, 7, 9], "conditions": [12, 1600, "v", 24000], "internal_node_id": "0.0-178.0", "key_presses": [49, 55, 13, 49, 52, 13, 49, 56, 13, 49, 51, 13, 49, 56, 13, 49, 48, 13, 56, 13, 49, 53, 13, 49, 49, 13, 49, 52, 13, 49, 55, 56, 187, 187, 187, 8, 8, 8, 8, 8, 55, 13, 49, 52, 13], "trial": 7, "time_elapsed": 1136348, "type": "DISTRACTOR", "trial_index": 241, "num1": [8, 6, 3, 2, 5, 7, 5, 9, 2, 6, 6, 3, 5]}, "uniqueid": "MTK1751:3NXNZ5RS1B40U999UT364LVLGYU97W", "dateTime": 1516294828206}, {"current_trial": 242, "trialdata": {"rt": -1, "trial_type": "single-stim", "stimulus": "<p id=\"stim\">10</p>", "internal_node_id": "0.0-179.0-0.0", "time_elapsed": 1139350, "key_press": -1, "trial_index": 242}, "uniqueid": "MTK1751:3NXNZ5RS1B40U999UT364LVLGYU97W", "dateTime": 1516294831208}, {"current_trial": 243, "trialdata": {"rt": -1, "trial_type": "single-stim", "stimulus": "<p id=\"stim\">9</p>", "internal_node_id": "0.0-179.0-1.0", "time_elapsed": 1140351, "key_press": -1, "trial_index": 243}, "uniqueid": "MTK1751:3NXNZ5RS1B40U999UT364LVLGYU97W", "dateTime": 1516294832209}, {"current_trial": 244, "trialdata": {"rt": -1, "trial_type": "single-stim", "stimulus": "<p id=\"stim\">8</p>", "internal_node_id": "0.0-179.0-2.0", "time_elapsed": 1141352, "key_press": -1, "trial_index": 244}, "uniqueid": "MTK1751:3NXNZ5RS1B40U999UT364LVLGYU97W", "dateTime": 1516294833210}, {"current_trial": 245, "trialdata": {"rt": -1, "trial_type": "single-stim", "stimulus": "<p id=\"stim\">7</p>", "internal_node_id": "0.0-179.0-3.0", "time_elapsed": 1142355, "key_press": -1, "trial_index": 245}, "uniqueid": "MTK1751:3NXNZ5RS1B40U999UT364LVLGYU97W", "dateTime": 1516294834214}, {"current_trial": 246, "trialdata": {"rt": -1, "trial_type": "single-stim", "stimulus": "<p id=\"stim\">6</p>", "internal_node_id": "0.0-179.0-4.0", "time_elapsed": 1143358, "key_press": -1, "trial_index": 246}, "uniqueid": "MTK1751:3NXNZ5RS1B40U999UT364LVLGYU97W", "dateTime": 1516294835216}, {"current_trial": 247, "trialdata": {"rt": -1, "trial_type": "single-stim", "stimulus": "<p id=\"stim\">5</p>", "internal_node_id": "0.0-179.0-5.0", "time_elapsed": 1144359, "key_press": -1, "trial_index": 247}, "uniqueid": "MTK1751:3NXNZ5RS1B40U999UT364LVLGYU97W", "dateTime": 1516294836217}, {"current_trial": 248, "trialdata": {"rt": -1, "trial_type": "single-stim", "stimulus": "<p id=\"stim\">4</p>", "internal_node_id": "0.0-179.0-6.0", "time_elapsed": 1145361, "key_press": -1, "trial_index": 248}, "uniqueid": "MTK1751:3NXNZ5RS1B40U999UT364LVLGYU97W", "dateTime": 1516294837219}, {"current_trial": 249, "trialdata": {"rt": -1, "trial_type": "single-stim", "stimulus": "<p id=\"stim\">3</p>", "internal_node_id": "0.0-179.0-7.0", "time_elapsed": 1146363, "key_press": -1, "trial_index": 249}, "uniqueid": "MTK1751:3NXNZ5RS1B40U999UT364LVLGYU97W", "dateTime": 1516294838221}, {"current_trial": 250, "trialdata": {"rt": -1, "trial_type": "single-stim", "stimulus": "<p id=\"stim\">2</p>", "internal_node_id": "0.0-179.0-8.0", "time_elapsed": 1147365, "key_press": -1, "trial_index": 250}, "uniqueid": "MTK1751:3NXNZ5RS1B40U999UT364LVLGYU97W", "dateTime": 15