{"condition": 0, "counterbalance": 2993, "assignmentId": "3COPXFW7XCJ9HBW0UCOCUG0MOBAKPH", "workerId": "MTK1240", "hitId": "33NKDW9FFXPUK2O9YOCTBQDX6KZXC6", "currenttrial": 626, "bonus": 0, "data": [{"uniqueid": "MTK1240:3COPXFW7XCJ9HBW0UCOCUG0MOBAKPH", "current_trial": 0, "dateTime": 1513466463055, "trialdata": {"rt": 6533, "key_press": 32, "type": "INSTRUCTIONS", "trial_type": "text", "trial_index": 0, "time_elapsed": 6536, "internal_node_id": "0.0-0.0"}}, {"uniqueid": "MTK1240:3COPXFW7XCJ9HBW0UCOCUG0MOBAKPH", "current_trial": 1, "dateTime": 1513466502391, "trialdata": {"rt": 39333, "key_press": 32, "type": "INSTRUCTIONS", "trial_type": "text", "trial_index": 1, "time_elapsed": 45874, "internal_node_id": "0.0-1.0"}}, {"uniqueid": "MTK1240:3COPXFW7XCJ9HBW0UCOCUG0MOBAKPH", "current_trial": 2, "dateTime": 1513466515636, "trialdata": {"rt": [13224], "responses": ["ocean"], "type": "AUDIO_TEST", "trial_type": "audio-test", "trial_index": 2, "time_elapsed": 59119, "internal_node_id": "0.0-2.0"}}, {"uniqueid": "MTK1240:3COPXFW7XCJ9HBW0UCOCUG0MOBAKPH", "current_trial": 3, "dateTime": 1513466522924, "trialdata": {"rt": [7284], "responses": ["crystal"], "type": "AUDIO_TEST", "trial_type": "audio-test", "trial_index": 3, "time_elapsed": 66407, "internal_node_id": "0.0-3.0"}}, {"uniqueid": "MTK1240:3COPXFW7XCJ9HBW0UCOCUG0MOBAKPH", "current_trial": 4, "dateTime": 1513466527789, "trialdata": {"rt": [4862], "responses": ["spice"], "type": "AUDIO_TEST", "trial_type": "audio-test", "trial_index": 4, "time_elapsed": 71272, "internal_node_id": "0.0-4.0"}}, {"uniqueid": "MTK1240:3COPXFW7XCJ9HBW0UCOCUG0MOBAKPH", "current_trial": 5, "dateTime": 1513466570716, "trialdata": {"rt": 42173, "responses": "{\"Q0\":\"12:00am\",\"Q1\":\"7:00am\",\"Q2\":\"5\"}", "type": "SLEEP_SURVEY", "trial_type": "survey-text", "trial_index": 5, "time_elapsed": 114199, "internal_node_id": "0.0-5.0"}}, {"uniqueid": "MTK1240:3COPXFW7XCJ9HBW0UCOCUG0MOBAKPH", "current_trial": 6, "dateTime": 1513466697914, "trialdata": {"rt": 126197, "key_press": 32, "type": "INSTRUCTIONS", "trial_type": "text", "trial_index": 6, "time_elapsed": 241397, "internal_node_id": "0.0-6.0"}}, {"uniqueid": "MTK1240:3COPXFW7XCJ9HBW0UCOCUG0MOBAKPH", "current_trial": 7, "dateTime": 1513466729850, "trialdata": {"rt": 31434, "key_press": 32, "type": "INSTRUCTIONS", "trial_type": "text", "trial_index": 7, "time_elapsed": 273333, "internal_node_id": "0.0-7.0"}}, {"uniqueid": "MTK1240:3COPXFW7XCJ9HBW0UCOCUG0MOBAKPH", "current_trial": 8, "dateTime": 1513466754865, "trialdata": {"rt": 24513, "key_press": 32, "type": "INSTRUCTIONS", "trial_type": "text", "trial_index": 8, "time_elapsed": 298348, "internal_node_id": "0.0-8.0"}}, {"uniqueid": "MTK1240:3COPXFW7XCJ9HBW0UCOCUG0MOBAKPH", "current_trial": 9, "dateTime": 1513466773874, "trialdata": {"rt": [9260, 12723, 15841], "responses": ["17", "12", "20"], "num1": [3, 8, 8, 8], "num2": [8, 1, 6, 7], "num3": [6, 3, 6, 2], "type": "DISTRACTOR", "conditions": [18, 1200, "v", 18000], "trial": 0, "trial_type": "math-distractor", "trial_index": 9, "time_elapsed": 317356, "internal_node_id": "0.0-9.0"}}, {"uniqueid": "MTK1240:3COPXFW7XCJ9HBW0UCOCUG0MOBAKPH", "current_trial": 10, "dateTime": 1513466776878, "trialdata": {"rt": -1, "stimulus": "<p id=\"stim\">10</p>", "key_press": -1, "trial_type": "single-stim", "trial_index": 10, "time_elapsed": 320360, "internal_node_id": "0.0-10.0-0.0"}}, {"uniqueid": "MTK1240:3COPXFW7XCJ9HBW0UCOCUG0MOBAKPH", "current_trial": 11, "dateTime": 1513466777879, "trialdata": {"rt": -1, "stimulus": "<p id=\"stim\">9</p>", "key_press": -1, "trial_type": "single-stim", "trial_index": 11, "time_elapsed": 321362, "internal_node_id": "0.0-10.0-1.0"}}, {"uniqueid": "MTK1240:3COPXFW7XCJ9HBW0UCOCUG0MOBAKPH", "current_trial": 12, "dateTime": 1513466778881, "trialdata": {"rt": -1, "stimulus": "<p id=\"stim\">8</p>", "key_press": -1, "trial_type": "single-stim", "trial_index": 12, "time_elapsed": 322364, "internal_node_id": "0.0-10.0-2.0"}}, {"uniqueid": "MTK1240:3COPXFW7XCJ9HBW0UCOCUG0MOBAKPH", "current_trial": 13, "dateTime": 1513466779883, "trialdata": {"rt": -1, "stimulus": "<p id=\"stim\">7</p>", "key_press": -1, "trial_type": "single-stim", "trial_index": 13, "time_elapsed": 323366, "internal_node_id": "0.0-10.0-3.0"}}, {"uniqueid": "MTK1240:3COPXFW7XCJ9HBW0UCOCUG0MOBAKPH", "current_trial": 14, "dateTime": 1513466780885, "trialdata": {"rt": -1, "stimulus": "<p id=\"stim\">6</p>", "key_press": -1, "trial_type": "single-stim", "trial_index": 14, "time_elapsed": 324367, "internal_node_id": "0.0-10.0-4.0"}}, {"uniqueid": "MTK1240:3COPXFW7XCJ9HBW0UCOCUG0MOBAKPH", "current_trial": 15, "dateTime": 1513466781886, "trialdata": {"rt": -1, "stimulus": "<p id=\"stim\">5</p>", "key_press": -1, "trial_type": "single-stim", "trial_index": 15, "time_elapsed": 325369, "internal_node_id": "0.0-10.0-5.0"}}, {"uniqueid": "MTK1240:3COPXFW7XCJ9HBW0UCOCUG0MOBAKPH", "current_trial": 16, "dateTime": 1513466782888, "trialdata": {"rt": -1, "stimulus": "<p id=\"stim\">4</p>", "key_press": -1, "trial_type": "single-stim", "trial_index": 16, "time_elapsed": 326371, "internal_node_id": "0.0-10.0-6.0"}}, {"uniqueid": "MTK1240:3COPXFW7XCJ9HBW0UCOCUG0MOBAKPH", "current_trial": 17, "dateTime": 1513466783891, "trialdata": {"rt": -1, "stimulus": "<p id=\"stim\">3</p>", "key_press": -1, "trial_type": "single-stim", "trial_index": 17, "time_elapsed": 327374, "internal_node_id": "0.0-10.0-7.0"}}, {"uniqueid": "MTK1240:3COPXFW7XCJ9HBW0UCOCUG0MOBAKPH", "current_trial": 18, "dateTime": 1513466784893, "trialdata": {"rt": -1, "stimulus": "<p id=\"stim\">2</p>", "key_press": -1, "trial_type": "single-stim", "trial_index": 18, "time_elapsed": 328376, "internal_node_id": "0.0-10.0-8.0"}}, {"uniqueid": "MTK1240:3COPXFW7XCJ9HBW0UCOCUG0MOBAKPH", "current_trial": 19, "dateTime": 1513466785895, "trialdata": {"rt": -1, "stimulus": "<p id=\"stim\">1</p>", "key_press": -1, "trial_type": "single-stim", "trial_index": 19, "time_elapsed": 329378, "internal_node_id": "0.0-10.0-9.0"}}, {"uniqueid": "MTK1240:3COPXFW7XCJ9HBW0UCOCUG0MOBAKPH", "current_trial": 20, "dateTime": 1513466787397, "trialdata": {"rt": -1, "stimulus": "<p id=\"stim\">+</p>", "key_press": -1, "type": "FIXATION", "trial_type": "single-stim", "trial_index": 20, "time_elapsed": 330880, "internal_node_id": "0.0-11.0-0.0"}}, {"uniqueid": "MTK1240:3COPXFW7XCJ9HBW0UCOCUG0MOBAKPH", "current_trial": 21, "dateTime": 1513466788598, "trialdata": {"rt": -1, "stimulus": "<p id=\"stim\">BODY</p>", "key_press": -1, "type": "PRES_VIS", "word": "body", "wordID": 144, "conditions": [18, 1200, "v", 18000], "trial": 0, "serialpos": 0, "trial_type": "single-stim", "trial_index": 21, "time_elapsed": 332081, "internal_node_id": "0.0-12.0"}}, {"uniqueid": "MTK1240:3COPXFW7XCJ9HBW0UCOCUG0MOBAKPH", "current_trial": 22, "dateTime": 1513466790914, "trialdata": {"rt": -1, "stimulus": "<p id=\"stim\">UNCLE</p>", "key_press": -1, "type": "PRES_VIS", "word": "uncle", "wordID": 1535, "conditions": [18, 1200, "v", 18000], "trial": 0, "serialpos": 1, "trial_type": "single-stim", "trial_index": 22, "time_elapsed": 334396, "internal_node_id": "0.0-13.0"}}, {"uniqueid": "MTK1240:3COPXFW7XCJ9HBW0UCOCUG0MOBAKPH", "current_trial": 23, "dateTime": 1513466793019, "trialdata": {"rt": -1, "stimulus": "<p id=\"stim\">HIKER</p>", "key_press": -1, "type": "PRES_VIS", "word": "hiker", "wordID": 707, "conditions": [18, 1200, "v", 18000], "trial": 0, "serialpos": 2, "trial_type": "single-stim", "trial_index": 23, "time_elapsed": 336502, "internal_node_id": "0.0-14.0"}}, {"uniqueid": "MTK1240:3COPXFW7XCJ9HBW0UCOCUG0MOBAKPH", "current_trial": 24, "dateTime": 1513466795031, "trialdata": {"rt": -1, "stimulus": "<p id=\"stim\">MILDEW</p>", "key_press": -1, "type": "PRES_VIS", "word": "mildew", "wordID": 892, "conditions": [18, 1200, "v", 18000], "trial": 0, "serialpos": 3, "trial_type": "single-stim", "trial_index": 24, "time_elapsed": 338513, "internal_node_id": "0.0-15.0"}}, {"uniqueid": "MTK1240:3COPXFW7XCJ9HBW0UCOCUG0MOBAKPH", "current_trial": 25, "dateTime": 1513466797293, "trialdata": {"rt": -1, "stimulus": "<p id=\"stim\">BATHTUB</p>", "key_press": -1, "type": "PRES_VIS", "word": "bathtub", "wordID": 99, "conditions": [18, 1200, "v", 18000], "trial": 0, "serialpos": 4, "trial_type": "single-stim", "trial_index": 25, "time_elapsed": 340776, "internal_node_id": "0.0-16.0"}}, {"uniqueid": "MTK1240:3COPXFW7XCJ9HBW0UCOCUG0MOBAKPH", "current_trial": 26, "dateTime": 1513466799392, "trialdata": {"rt": -1, "stimulus": "<p id=\"stim\">DONOR</p>", "key_press": -1, "type": "PRES_VIS", "word": "donor", "wordID": 484, "conditions": [18, 1200, "v", 18000], "trial": 0, "serialpos": 5, "trial_type": "single-stim", "trial_index": 26, "time_elapsed": 342875, "internal_node_id": "0.0-17.0"}}, {"uniqueid": "MTK1240:3COPXFW7XCJ9HBW0UCOCUG0MOBAKPH", "current_trial": 27, "dateTime": 1513466801784, "trialdata": {"rt": -1, "stimulus": "<p id=\"stim\">LION</p>", "key_press": -1, "type": "PRES_VIS", "word": "lion", "wordID": 826, "conditions": [18, 1200, "v", 18000], "trial": 0, "serialpos": 6, "trial_type": "single-stim", "trial_index": 27, "time_elapsed": 345267, "internal_node_id": "0.0-18.0"}}, {"uniqueid": "MTK1240:3COPXFW7XCJ9HBW0UCOCUG0MOBAKPH", "current_trial": 28, "dateTime": 1513466804029, "trialdata": {"rt": -1, "stimulus": "<p id=\"stim\">WHISTLE</p>", "key_press": -1, "type": "PRES_VIS", "word": "whistle", "wordID": 1605, "conditions": [18, 1200, "v", 18000], "trial": 0, "serialpos": 7, "trial_type": "single-stim", "trial_index": 28, "time_elapsed": 347511, "internal_node_id": "0.0-19.0"}}, {"uniqueid": "MTK1240:3COPXFW7XCJ9HBW0UCOCUG0MOBAKPH", "current_trial": 29, "dateTime": 1513466806290, "trialdata": {"rt": -1, "stimulus": "<p id=\"stim\">SMOG</p>", "key_press": -1, "type": "PRES_VIS", "word": "smog", "wordID": 1329, "conditions": [18, 1200, "v", 18000], "trial": 0, "serialpos": 8, "trial_type": "single-stim", "trial_index": 29, "time_elapsed": 349773, "internal_node_id": "0.0-20.0"}}, {"uniqueid": "MTK1240:3COPXFW7XCJ9HBW0UCOCUG0MOBAKPH", "current_trial": 30, "dateTime": 1513466808363, "trialdata": {"rt": -1, "stimulus": "<p id=\"stim\">ULCER</p>", "key_press": -1, "type": "PRES_VIS", "word": "ulcer", "wordID": 1532, "conditions": [18, 1200, "v", 18000], "trial": 0, "serialpos": 9, "trial_type": "single-stim", "trial_index": 30, "time_elapsed": 351846, "internal_node_id": "0.0-21.0"}}, {"uniqueid": "MTK1240:3COPXFW7XCJ9HBW0UCOCUG0MOBAKPH", "current_trial": 31, "dateTime": 1513466810651, "trialdata": {"rt": -1, "stimulus": "<p id=\"stim\">ROD</p>", "key_press": -1, "type": "PRES_VIS", "word": "rod", "wordID": 1202, "conditions": [18, 1200, "v", 18000], "trial": 0, "serialpos": 10, "trial_type": "single-stim", "trial_index": 31, "time_elapsed": 354134, "internal_node_id": "0.0-22.0"}}, {"uniqueid": "MTK1240:3COPXFW7XCJ9HBW0UCOCUG0MOBAKPH", "current_trial": 32, "dateTime": 1513466813016, "trialdata": {"rt": -1, "stimulus": "<p id=\"stim\">POWDER</p>", "key_press": -1, "type": "PRES_VIS", "word": "powder", "wordID": 1116, "conditions": [18, 1200, "v", 18000], "trial": 0, "serialpos": 11, "trial_type": "single-stim", "trial_index": 32, "time_elapsed": 356499, "internal_node_id": "0.0-23.0"}}, {"uniqueid": "MTK1240:3COPXFW7XCJ9HBW0UCOCUG0MOBAKPH", "current_trial": 33, "dateTime": 1513466815167, "trialdata": {"rt": -1, "stimulus": "<p id=\"stim\">ROCKET</p>", "key_press": -1, "type": "PRES_VIS", "word": "rocket", "wordID": 1201, "conditions": [18, 1200, "v", 18000], "trial": 0, "serialpos": 12, "trial_type": "single-stim", "trial_index": 33, "time_elapsed": 358650, "internal_node_id": "0.0-24.0"}}, {"uniqueid": "MTK1240:3COPXFW7XCJ9HBW0UCOCUG0MOBAKPH", "current_trial": 34, "dateTime": 1513466817452, "trialdata": {"rt": -1, "stimulus": "<p id=\"stim\">PERCH</p>", "key_press": -1, "type": "PRES_VIS", "word": "perch", "wordID": 1047, "conditions": [18, 1200, "v", 18000], "trial": 0, "serialpos": 13, "trial_type": "single-stim", "trial_index": 34, "time_elapsed": 360935, "internal_node_id": "0.0-25.0"}}, {"uniqueid": "MTK1240:3COPXFW7XCJ9HBW0UCOCUG0MOBAKPH", "current_trial": 35, "dateTime": 1513466819811, "trialdata": {"rt": -1, "stimulus": "<p id=\"stim\">MAILMAN</p>", "key_press": -1, "type": "PRES_VIS", "word": "mailman", "wordID": 857, "conditions": [18, 1200, "v", 18000], "trial": 0, "serialpos": 14, "trial_type": "single-stim", "trial_index": 35, "time_elapsed": 363294, "internal_node_id": "0.0-26.0"}}, {"uniqueid": "MTK1240:3COPXFW7XCJ9HBW0UCOCUG0MOBAKPH", "current_trial": 36, "dateTime": 1513466822000, "trialdata": {"rt": -1, "stimulus": "<p id=\"stim\">BABY</p>", "key_press": -1, "type": "PRES_VIS", "word": "baby", "wordID": 63, "conditions": [18, 1200, "v", 18000], "trial": 0, "serialpos": 15, "trial_type": "single-stim", "trial_index": 36, "time_elapsed": 365483, "internal_node_id": "0.0-27.0"}}, {"uniqueid": "MTK1240:3COPXFW7XCJ9HBW0UCOCUG0MOBAKPH", "current_trial": 37, "dateTime": 1513466824193, "trialdata": {"rt": -1, "stimulus": "<p id=\"stim\">RATTLE</p>", "key_press": -1, "type": "PRES_VIS", "word": "rattle", "wordID": 1169, "conditions": [18, 1200, "v", 18000], "trial": 0, "serialpos": 16, "trial_type": "single-stim", "trial_index": 37, "time_elapsed": 367676, "internal_node_id": "0.0-28.0"}}, {"uniqueid": "MTK1240:3COPXFW7XCJ9HBW0UCOCUG0MOBAKPH", "current_trial": 38, "dateTime": 1513466826434, "trialdata": {"rt": -1, "stimulus": "<p id=\"stim\">OMELET</p>", "key_press": -1, "type": "PRES_VIS", "word": "omelet", "wordID": 975, "conditions": [18, 1200, "v", 18000], "trial": 0, "serialpos": 17, "trial_type": "single-stim", "trial_index": 38, "time_elapsed": 369917, "internal_node_id": "0.0-29.0"}}, {"uniqueid": "MTK1240:3COPXFW7XCJ9HBW0UCOCUG0MOBAKPH", "current_trial": 39, "dateTime": 1513466828815, "trialdata": {"rt": -1, "stimulus": "", "key_press": -1, "type": "PRE_RECALL_DELAY", "trial_type": "single-stim", "trial_index": 39, "time_elapsed": 372297, "internal_node_id": "0.0-30.0-0.0"}}, {"uniqueid": "MTK1240:3COPXFW7XCJ9HBW0UCOCUG0MOBAKPH", "current_trial": 40, "dateTime": 1513466829320, "trialdata": {"rt": -1000, "stimulus": "/static/audio/400Hz.wav", "key_press": -1, "type": "PRE_RECALL_ALERT", "trial_type": "single-audio", "trial_index": 40, "time_elapsed": 372803, "internal_node_id": "0.0-31.0"}}, {"uniqueid": "MTK1240:3COPXFW7XCJ9HBW0UCOCUG0MOBAKPH", "current_trial": 41, "dateTime": 1513466889329, "trialdata": {"rt": [2778, 4112, 5555, 7099, 8227, 17559], "recwords": ["baby", "rattle", "omelet", "smug", "lion", "bathtub"], "type": "FREE_RECALL", "conditions": [18, 1200, "v", 18000], "trial": 0, "trial_type": "free-recall", "trial_index": 41, "time_elapsed": 432808, "internal_node_id": "0.0-32.0-0.0"}}, {"uniqueid": "MTK1240:3COPXFW7XCJ9HBW0UCOCUG0MOBAKPH", "current_trial": 42, "dateTime": 1513466894131, "trialdata": {"rt": 2800, "key_press": 32, "type": "INSTRUCTIONS", "trial_type": "text", "trial_index": 42, "time_elapsed": 437614, "internal_node_id": "0.0-33.0"}}, {"uniqueid": "MTK1240:3COPXFW7XCJ9HBW0UCOCUG0MOBAKPH", "current_trial": 43, "dateTime": 1513466914136, "trialdata": {"rt": [4717, 7764, 9407, 11377, 13031, 14614, 17536], "responses": ["18", "19", "19", "18", "15", "19", "13"], "num1": [8, 6, 4, 2, 8, 7, 6, 2], "num2": [6, 7, 6, 8, 6, 3, 2, 9], "num3": [4, 6, 9, 8, 1, 9, 5, 5], "type": "DISTRACTOR", "conditions": [18, 1200, "a", 18000], "trial": 1, "trial_type": "math-distractor", "trial_index": 43, "time_elapsed": 457619, "internal_node_id": "0.0-34.0"}}, {"uniqueid": "MTK1240:3COPXFW7XCJ9HBW0UCOCUG0MOBAKPH", "current_trial": 44, "dateTime": 1513466917138, "trialdata": {"rt": -1, "stimulus": "<p id=\"stim\">10</p>", "key_press": -1, "trial_type": "single-stim", "trial_index": 44, "time_elapsed": 460621, "internal_node_id": "0.0-35.0-0.0"}}, {"uniqueid": "MTK1240:3COPXFW7XCJ9HBW0UCOCUG0MOBAKPH", "current_trial": 45, "dateTime": 1513466918139, "trialdata": {"rt": -1, "stimulus": "<p id=\"stim\">9</p>", "key_press": -1, "trial_type": "single-stim", "trial_index": 45, "time_elapsed": 461622, "internal_node_id": "0.0-35.0-1.0"}}, {"uniqueid": "MTK1240:3COPXFW7XCJ9HBW0UCOCUG0MOBAKPH", "current_trial": 46, "dateTime": 1513466919141, "trialdata": {"rt": -1, "stimulus": "<p id=\"stim\">8</p>", "key_press": -1, "trial_type": "single-stim", "trial_index": 46, "time_elapsed": 462624, "internal_node_id": "0.0-35.0-2.0"}}, {"uniqueid": "MTK1240:3COPXFW7XCJ9HBW0UCOCUG0MOBAKPH", "current_trial": 47, "dateTime": 1513466920143, "trialdata": {"rt": -1, "stimulus": "<p id=\"stim\">7</p>", "key_press": -1, "trial_type": "single-stim", "trial_index": 47, "time_elapsed": 463626, "internal_node_id": "0.0-35.0-3.0"}}, {"uniqueid": "MTK1240:3COPXFW7XCJ9HBW0UCOCUG0MOBAKPH", "current_trial": 48, "dateTime": 1513466921145, "trialdata": {"rt": -1, "stimulus": "<p id=\"stim\">6</p>", "key_press": -1, "trial_type": "single-stim", "trial_index": 48, "time_elapsed": 464628, "internal_node_id": "0.0-35.0-4.0"}}, {"uniqueid": "MTK1240:3COPXFW7XCJ9HBW0UCOCUG0MOBAKPH", "current_trial": 49, "dateTime": 1513466922147, "trialdata": {"rt": -1, "stimulus": "<p id=\"stim\">5</p>", "key_press": -1, "trial_type": "single-stim", "trial_index": 49, "time_elapsed": 465630, "internal_node_id": "0.0-35.0-5.0"}}, {"uniqueid": "MTK1240:3COPXFW7XCJ9HBW0UCOCUG0MOBAKPH", "current_trial": 50, "dateTime": 1513466923150, "trialdata": {"rt": -1, "stimulus": "<p id=\"stim\">4</p>", "key_press": -1, "trial_type": "single-stim", "trial_index": 50, "time_elapsed": 466633, "internal_node_id": "0.0-35.0-6.0"}}, {"uniqueid": "MTK1240:3COPXFW7XCJ9HBW0UCOCUG0MOBAKPH", "current_trial": 51, "dateTime": 1513466924152, "trialdata": {"rt": -1, "stimulus": "<p id=\"stim\">3</p>", "key_press": -1, "trial_type": "single-stim", "trial_index": 51, "time_elapsed": 467635, "internal_node_id": "0.0-35.0-7.0"}}, {"uniqueid": "MTK1240:3COPXFW7XCJ9HBW0UCOCUG0MOBAKPH", "current_trial": 52, "dateTime": 1513466925154, "trialdata": {"rt": -1, "stimulus": "<p id=\"stim\">2</p>", "key_press": -1, "trial_type": "single-stim", "trial_index": 52, "time_elapsed": 468637, "internal_node_id": "0.0-35.0-8.0"}}, {"uniqueid": "MTK1240:3COPXFW7XCJ9HBW0UCOCUG0MOBAKPH", "current_trial": 53, "dateTime": 1513466926156, "trialdata": {"rt": -1, "stimulus": "<p id=\"stim\">1</p>", "key_press": -1, "trial_type": "single-stim", "trial_index": 53, "time_elapsed": 469639, "internal_node_id": "0.0-35.0-9.0"}}, {"uniqueid": "MTK1240:3COPXFW7XCJ9HBW0UCOCUG0MOBAKPH", "current_trial": 54, "dateTime": 1513466927658, "trialdata": {"rt": -1, "stimulus": "<p id=\"stim\">+</p>", "key_press": -1, "type": "FIXATION", "trial_type": "single-stim", "trial_index": 54, "time_elapsed": 471141, "internal_node_id": "0.0-36.0-0.0"}}, {"uniqueid": "MTK1240:3COPXFW7XCJ9HBW0UCOCUG0MOBAKPH", "current_trial": 55, "dateTime": 1513466930035, "trialdata": {"rt": -1000, "stimulus": "/static/audio/wordpool/TEMPLE.wav", "key_press": -1, "type": "PRES_AUD", "word": "temple", "wordID": 1447, "conditions": [18, 1200, "a", 18000], "trial": 1, "serialpos": 0, "trial_type": "single-audio", "trial_index": 55, "time_elapsed": 473518, "internal_node_id": "0.0-37.0"}}, {"uniqueid": "MTK1240:3COPXFW7XCJ9HBW0UCOCUG0MOBAKPH", "current_trial": 56, "dateTime": 1513466932166, "trialdata": {"rt": -1000, "stimulus": "/static/audio/wordpool/DASHBOARD.wav", "key_press": -1, "type": "PRES_AUD", "word": "dashboard", "wordID": 440, "conditions": [18, 1200, "a", 18000], "trial": 1, "serialpos": 1, "trial_type": "single-audio", "trial_index": 56, "time_elapsed": 475649, "internal_node_id": "0.0-38.0"}}, {"uniqueid": "MTK1240:3COPXFW7XCJ9HBW0UCOCUG0MOBAKPH", "current_trial": 57, "dateTime": 1513466934441, "trialdata": {"rt": -1000, "stimulus": "/static/audio/wordpool/SADDLE.wav", "key_press": -1, "type": "PRES_AUD", "word": "saddle", "wordID": 1220, "conditions": [18, 1200, "a", 18000], "trial": 1, "serialpos": 2, "trial_type": "single-audio", "trial_index": 57, "time_elapsed": 477924, "internal_node_id": "0.0-39.0"}}, {"uniqueid": "MTK1240:3COPXFW7XCJ9HBW0UCOCUG0MOBAKPH", "current_trial": 58, "dateTime": 1513466936503, "trialdata": {"rt": -1000, "stimulus": "/static/audio/wordpool/SPARROW.wav", "key_press": -1, "type": "PRES_AUD", "word": "sparrow", "wordID": 1346, "conditions": [18, 1200, "a", 18000], "trial": 1, "serialpos": 3, "trial_type": "single-audio", "trial_index": 58, "time_elapsed": 479986, "internal_node_id": "0.0-40.0"}}, {"uniqueid": "MTK1240:3COPXFW7XCJ9HBW0UCOCUG0MOBAKPH", "current_trial": 59, "dateTime": 1513466938726, "trialdata": {"rt": -1000, "stimulus": "/static/audio/wordpool/PICNIC.wav", "key_press": -1, "type": "PRES_AUD", "word": "picnic", "wordID": 1059, "conditions": [18, 1200, "a", 18000], "trial": 1, "serialpos": 4, "trial_type": "single-audio", "trial_index": 59, "time_elapsed": 482208, "internal_node_id": "0.0-41.0"}}, {"uniqueid": "MTK1240:3COPXFW7XCJ9HBW0UCOCUG0MOBAKPH", "current_trial": 60, "dateTime": 1513466941097, "trialdata": {"rt": -1000, "stimulus": "/static/audio/wordpool/ASIA.wav", "key_press": -1, "type": "PRES_AUD", "word": "asia", "wordID": 45, "conditions": [18, 1200, "a", 18000], "trial": 1, "serialpos": 5, "trial_type": "single-audio", "trial_index": 60, "time_elapsed": 484579, "internal_node_id": "0.0-42.0"}}, {"uniqueid": "MTK1240:3COPXFW7XCJ9HBW0UCOCUG0MOBAKPH", "current_trial": 61, "dateTime": 1513466943350, "trialdata": {"rt": -1000, "stimulus": "/static/audio/wordpool/COIN.wav", "key_press": -1, "type": "PRES_AUD", "word": "coin", "wordID": 342, "conditions": [18, 1200, "a", 18000], "trial": 1, "serialpos": 6, "trial_type": "single-audio", "trial_index": 61, "time_elapsed": 486833, "internal_node_id": "0.0-43.0"}}, {"uniqueid": "MTK1240:3COPXFW7XCJ9HBW0UCOCUG0MOBAKPH", "current_trial": 62, "dateTime": 1513466945407, "trialdata": {"rt": -1000, "stimulus": "/static/audio/wordpool/KITCHEN.wav", "key_press": -1, "type": "PRES_AUD", "word": "kitchen", "wordID": 777, "conditions": [18, 1200, "a", 18000], "trial": 1, "serialpos": 7, "trial_type": "single-audio", "trial_index": 62, "time_elapsed": 488889, "internal_node_id": "0.0-44.0"}}, {"uniqueid": "MTK1240:3COPXFW7XCJ9HBW0UCOCUG0MOBAKPH", "current_trial": 63, "dateTime": 1513466947469, "trialdata": {"rt": -1000, "stimulus": "/static/audio/wordpool/SPIDER.wav", "key_press": -1, "type": "PRES_AUD", "word": "spider", "wordID": 1350, "conditions": [18, 1200, "a", 18000], "trial": 1, "serialpos": 8, "trial_type": "single-audio", "trial_index": 63, "time_elapsed": 490952, "internal_node_id": "0.0-45.0"}}, {"uniqueid": "MTK1240:3COPXFW7XCJ9HBW0UCOCUG0MOBAKPH", "current_trial": 64, "dateTime": 1513466949610, "trialdata": {"rt": -1000, "stimulus": "/static/audio/wordpool/SUNRISE.wav", "key_press": -1, "type": "PRES_AUD", "word": "sunrise", "wordID": 1406, "conditions": [18, 1200, "a", 18000], "trial": 1, "serialpos": 9, "trial_type": "single-audio", "trial_index": 64, "time_elapsed": 493093, "internal_node_id": "0.0-46.0"}}, {"uniqueid": "MTK1240:3COPXFW7XCJ9HBW0UCOCUG0MOBAKPH", "current_trial": 65, "dateTime": 1513466951703, "trialdata": {"rt": -1000, "stimulus": "/static/audio/wordpool/SNAIL.wav", "key_press": -1, "type": "PRES_AUD", "word": "snail", "wordID": 1331, "conditions": [18, 1200, "a", 18000], "trial": 1, "serialpos": 10, "trial_type": "single-audio", "trial_index": 65, "time_elapsed": 495186, "internal_node_id": "0.0-47.0"}}, {"uniqueid": "MTK1240:3COPXFW7XCJ9HBW0UCOCUG0MOBAKPH", "current_trial": 66, "dateTime": 1513466953705, "trialdata": {"rt": -1000, "stimulus": "/static/audio/wordpool/SISTER.wav", "key_press": -1, "type": "PRES_AUD", "word": "sister", "wordID": 1311, "conditions": [18, 1200, "a", 18000], "trial": 1, "serialpos": 11, "trial_type": "single-audio", "trial_index": 66, "time_elapsed": 497187, "internal_node_id": "0.0-48.0"}}, {"uniqueid": "MTK1240:3COPXFW7XCJ9HBW0UCOCUG0MOBAKPH", "current_trial": 67, "dateTime": 1513466955999, "trialdata": {"rt": -1000, "stimulus": "/static/audio/wordpool/PASTRY.wav", "key_press": -1, "type": "PRES_AUD", "word": "pastry", "wordID": 1021, "conditions": [18, 1200, "a", 18000], "trial": 1, "serialpos": 12, "trial_type": "single-audio", "trial_index": 67, "time_elapsed": 499482, "internal_node_id": "0.0-49.0"}}, {"uniqueid": "MTK1240:3COPXFW7XCJ9HBW0UCOCUG0MOBAKPH", "current_trial": 68, "dateTime": 1513466958083, "trialdata": {"rt": -1000, "stimulus": "/static/audio/wordpool/POSSUM.wav", "key_press": -1, "type": "PRES_AUD", "word": "possum", "wordID": 1111, "conditions": [18, 1200, "a", 18000], "trial": 1, "serialpos": 13, "trial_type": "single-audio", "trial_index": 68, "time_elapsed": 501562, "internal_node_id": "0.0-50.0"}}, {"uniqueid": "MTK1240:3COPXFW7XCJ9HBW0UCOCUG0MOBAKPH", "current_trial": 69, "dateTime": 1513466960173, "trialdata": {"rt": -1000, "stimulus": "/static/audio/wordpool/SANDWICH.wav", "key_press": -1, "type": "PRES_AUD", "word": "sandwich", "wordID": 1231, "conditions": [18, 1200, "a", 18000], "trial": 1, "serialpos": 14, "trial_type": "single-audio", "trial_index": 69, "time_elapsed": 503656, "internal_node_id": "0.0-51.0"}}, {"uniqueid": "MTK1240:3COPXFW7XCJ9HBW0UCOCUG0MOBAKPH", "current_trial": 70, "dateTime": 1513466962459, "trialdata": {"rt": -1000, "stimulus": "/static/audio/wordpool/QUAIL.wav", "key_press": -1, "type": "PRES_AUD", "word": "quail", "wordID": 1146, "conditions": [18, 1200, "a", 18000], "trial": 1, "serialpos": 15, "trial_type": "single-audio", "trial_index": 70, "time_elapsed": 505942, "internal_node_id": "0.0-52.0"}}, {"uniqueid": "MTK1240:3COPXFW7XCJ9HBW0UCOCUG0MOBAKPH", "current_trial": 71, "dateTime": 1513466964610, "trialdata": {"rt": -1000, "stimulus": "/static/audio/wordpool/CRICKET.wav", "key_press": -1, "type": "PRES_AUD", "word": "cricket", "wordID": 407, "conditions": [18, 1200, "a", 18000], "trial": 1, "serialpos": 16, "trial_type": "single-audio", "trial_index": 71, "time_elapsed": 508093, "internal_node_id": "0.0-53.0"}}, {"uniqueid": "MTK1240:3COPXFW7XCJ9HBW0UCOCUG0MOBAKPH", "current_trial": 72, "dateTime": 1513466966971, "trialdata": {"rt": -1000, "stimulus": "/static/audio/wordpool/FIREMAN.wav", "key_press": -1, "type": "PRES_AUD", "word": "fireman", "wordID": 568, "conditions": [18, 1200, "a", 18000], "trial": 1, "serialpos": 17, "trial_type": "single-audio", "trial_index": 72, "time_elapsed": 510453, "internal_node_id": "0.0-54.0"}}, {"uniqueid": "MTK1240:3COPXFW7XCJ9HBW0UCOCUG0MOBAKPH", "current_trial": 73, "dateTime": 1513466968301, "trialdata": {"rt": -1, "stimulus": "", "key_press": -1, "type": "PRE_RECALL_DELAY", "trial_type": "single-stim", "trial_index": 73, "time_elapsed": 511784, "internal_node_id": "0.0-55.0-0.0"}}, {"uniqueid": "MTK1240:3COPXFW7XCJ9HBW0UCOCUG0MOBAKPH", "current_trial": 74, "dateTime": 1513466968803, "trialdata": {"rt": -1000, "stimulus": "/static/audio/400Hz.wav", "key_press": -1, "type": "PRE_RECALL_ALERT", "trial_type": "single-audio", "trial_index": 74, "time_elapsed": 512286, "internal_node_id": "0.0-56.0"}}, {"uniqueid": "MTK1240:3COPXFW7XCJ9HBW0UCOCUG0MOBAKPH", "current_trial": 75, "dateTime": 1513467028811, "trialdata": {"rt": [3390, 4794, 6392, 8005, 9749, 42313], "recwords": ["coin", "cricket", "quail", "sandwich", "fireman", "saddle"], "type": "FREE_RECALL", "conditions": [18, 1200, "a", 18000], "trial": 1, "trial_type": "free-recall", "trial_index": 75, "time_elapsed": 572290, "internal_node_id": "0.0-57.0-0.0"}}, {"uniqueid": "MTK1240:3COPXFW7XCJ9HBW0UCOCUG0MOBAKPH", "current_trial": 76, "dateTime": 1513467035715, "trialdata": {"rt": 4894, "key_press": 32, "type": "INSTRUCTIONS", "trial_type": "text", "trial_index": 76, "time_elapsed": 579190, "internal_node_id": "0.0-58.0"}}, {"uniqueid": "MTK1240:3COPXFW7XCJ9HBW0UCOCUG0MOBAKPH", "current_trial": 77, "dateTime": 1513467060718, "trialdata": {"rt": [2949, 7483, 9544, 11874, 15714, 18174, 20429, 22700], "responses": ["19", "23", "14", "20", "17", "10", "8", "18"], "num1": [8, 8, 2, 4, 6, 2, 6, 3, 7], "num2": [9, 7, 7, 8, 9, 2, 1, 7, 9], "num3": [2, 8, 5, 8, 2, 6, 1, 8, 2], "type": "DISTRACTOR", "conditions": [12, 1600, "v", 24000], "trial": 2, "trial_type": "math-distractor", "trial_index": 77, "time_elapsed": 604201, "internal_node_id": "0.0-59.0"}}, {"uniqueid": "MTK1240:3COPXFW7XCJ9HBW0UCOCUG0MOBAKPH", "current_trial": 78, "dateTime": 1513467063720, "trialdata": {"rt": -1, "stimulus": "<p id=\"stim\">10</p>", "key_press": -1, "trial_type": "single-stim", "trial_index": 78, "time_elapsed": 607203, "internal_node_id": "0.0-60.0-0.0"}}, {"uniqueid": "MTK1240:3COPXFW7XCJ9HBW0UCOCUG0MOBAKPH", "current_trial": 79, "dateTime": 1513467064722, "trialdata": {"rt": -1, "stimulus": "<p id=\"stim\">9</p>", "key_press": -1, "trial_type": "single-stim", "trial_index": 79, "time_elapsed": 608204, "internal_node_id": "0.0-60.0-1.0"}}, {"uniqueid": "MTK1240:3COPXFW7XCJ9HBW0UCOCUG0MOBAKPH", "current_trial": 80, "dateTime": 1513467065723, "trialdata": {"rt": -1, "stimulus": "<p id=\"stim\">8</p>", "key_press": -1, "trial_type": "single-stim", "trial_index": 80, "time_elapsed": 609206, "internal_node_id": "0.0-60.0-2.0"}}, {"uniqueid": "MTK1240:3COPXFW7XCJ9HBW0UCOCUG0MOBAKPH", "current_trial": 81, "dateTime": 1513467066725, "trialdata": {"rt": -1, "stimulus": "<p id=\"stim\">7</p>", "key_press": -1, "trial_type": "single-stim", "trial_index": 81, "time_elapsed": 610208, "internal_node_id": "0.0-60.0-3.0"}}, {"uniqueid": "MTK1240:3COPXFW7XCJ9HBW0UCOCUG0MOBAKPH", "current_trial": 82, "dateTime": 1513467067726, "trialdata": {"rt": -1, "stimulus": "<p id=\"stim\">6</p>", "key_press": -1, "trial_type": "single-stim", "trial_index": 82, "time_elapsed": 611209, "internal_node_id": "0.0-60.0-4.0"}}, {"uniqueid": "MTK1240:3COPXFW7XCJ9HBW0UCOCUG0MOBAKPH", "current_trial": 83, "dateTime": 1513467068728, "trialdata": {"rt": -1, "stimulus": "<p id=\"stim\">5</p>", "key_press": -1, "trial_type": "single-stim", "trial_index": 83, "time_elapsed": 612211, "internal_node_id": "0.0-60.0-5.0"}}, {"uniqueid": "MTK1240:3COPXFW7XCJ9HBW0UCOCUG0MOBAKPH", "current_trial": 84, "dateTime": 1513467069729, "trialdata": {"rt": -1, "stimulus": "<p id=\"stim\">4</p>", "key_press": -1, "trial_type": "single-stim", "trial_index": 84, "time_elapsed": 613212, "internal_node_id": "0.0-60.0-6.0"}}, {"uniqueid": "MTK1240:3COPXFW7XCJ9HBW0UCOCUG0MOBAKPH", "current_trial": 85, "dateTime": 1513467070731, "trialdata": {"rt": -1, "stimulus": "<p id=\"stim\">3</p>", "key_press": -1, "trial_type": "single-stim", "trial_index": 85, "time_elapsed": 614214, "internal_node_id": "0.0-60.0-7.0"}}, {"uniqueid": "MTK1240:3COPXFW7XCJ9HBW0UCOCUG0MOBAKPH", "current_trial": 86, "dateTime": 1513467071732, "trialdata": {"rt": -1, "stimulus": "<p id=\"stim\">2</p>", "key_press": -1, "trial_type": "single-stim", "trial_index": 86, "time_elapsed": 615215, "internal_node_id": "0.0-60.0-8.0"}}, {"uniqueid": "MTK1240:3COPXFW7XCJ9HBW0UCOCUG0MOBAKPH", "current_trial": 87, "dateTime": 1513467072734, "trialdata": {"rt": -1, "stimulus": "<p id=\"stim\">1</p>", "key_press": -1, "trial_type": "single-stim", "trial_index": 87, "time_elapsed": 616216, "internal_node_id": "0.0-60.0-9.0"}}, {"uniqueid": "MTK1240:3COPXFW7XCJ9HBW0UCOCUG0MOBAKPH", "current_trial": 88, "dateTime": 1513467074235, "trialdata": {"rt": -1, "stimulus": "<p id=\"stim\">+</p>", "key_press": -1, "type": "FIXATION", "trial_type": "single-stim", "trial_index": 88, "time_elapsed": 617718, "internal_node_id": "0.0-61.0-0.0"}}, {"uniqueid": "MTK1240:3COPXFW7XCJ9HBW0UCOCUG0MOBAKPH", "current_trial": 89, "dateTime": 1513467075837, "trialdata": {"rt": -1, "stimulus": "<p id=\"stim\">SHORTS</p>", "key_press": -1, "type": "PRES_VIS", "word": "shorts", "wordID": 1292, "conditions": [12, 1600, "v", 24000], "trial": 2, "serialpos": 0, "trial_type": "single-stim", "trial_index": 89, "time_elapsed": 619320, "internal_node_id": "0.0-62.0"}}, {"uniqueid": "MTK1240:3COPXFW7XCJ9HBW0UCOCUG0MOBAKPH", "current_trial": 90, "dateTime": 1513467078242, "trialdata": {"rt": -1, "stimulus": "<p id=\"stim\">LACE</p>", "key_press": -1, "type": "PRES_VIS", "word": "lace", "wordID": 791, "conditions": [12, 1600, "v", 24000], "trial": 2, "serialpos": 1, "trial_type": "single-stim", "trial_index": 90, "time_elapsed": 621725, "internal_node_id": "0.0-63.0"}}, {"uniqueid": "MTK1240:3COPXFW7XCJ9HBW0UCOCUG0MOBAKPH", "current_trial": 91, "dateTime": 1513467080646, "trialdata": {"rt": -1, "stimulus": "<p id=\"stim\">DORM</p>", "key_press": -1, "type": "PRES_VIS", "word": "dorm", "wordID": 487, "conditions": [12, 1600, "v", 24000], "trial": 2, "serialpos": 2, "trial_type": "single-stim", "trial_index": 91, "time_elapsed": 624129, "internal_node_id": "0.0-64.0"}}, {"uniqueid": "MTK1240:3COPXFW7XCJ9HBW0UCOCUG0MOBAKPH", "current_trial": 92, "dateTime": 1513467083419, "trialdata": {"rt": -1, "stimulus": "<p id=\"stim\">DONKEY</p>", "key_press": -1, "type": "PRES_VIS", "word": "donkey", "wordID": 483, "conditions": [12, 1600, "v", 24000], "trial": 2, "serialpos": 3, "trial_type": "single-stim", "trial_index": 92, "time_elapsed": 626902, "internal_node_id": "0.0-65.0"}}, {"uniqueid": "MTK1240:3COPXFW7XCJ9HBW0UCOCUG0MOBAKPH", "current_trial": 93, "dateTime": 1513467085948, "trialdata": {"rt": -1, "stimulus": "<p id=\"stim\">VICTIM</p>", "key_press": -1, "type": "PRES_VIS", "word": "victim", "wordID": 1561, "conditions": [12, 1600, "v", 24000], "trial": 2, "serialpos": 4, "trial_type": "single-stim", "trial_index": 93, "time_elapsed": 629431, "internal_node_id": "0.0-66.0"}}, {"uniqueid": "MTK1240:3COPXFW7XCJ9HBW0UCOCUG0MOBAKPH", "current_trial": 94, "dateTime": 1513467088551, "trialdata": {"rt": -1, "stimulus": "<p id=\"stim\">WOMAN</p>", "key_press": -1, "type": "PRES_VIS", "word": "woman", "wordID": 1619, "conditions": [12, 1600, "v", 24000], "trial": 2, "serialpos": 5, "trial_type": "single-stim", "trial_index": 94, "time_elapsed": 632034, "internal_node_id": "0.0-67.0"}}, {"uniqueid": "MTK1240:3COPXFW7XCJ9HBW0UCOCUG0MOBAKPH", "current_trial": 95, "dateTime": 1513467091197, "trialdata": {"rt": -1, "stimulus": "<p id=\"stim\">CAMEL</p>", "key_press": -1, "type": "PRES_VIS", "word": "camel", "wordID": 222, "conditions": [12, 1600, "v", 24000], "trial": 2, "serialpos": 6, "trial_type": "single-stim", "trial_index": 95, "time_elapsed": 634680, "internal_node_id": "0.0-68.0"}}, {"uniqueid": "MTK1240:3COPXFW7XCJ9HBW0UCOCUG0MOBAKPH", "current_trial": 96, "dateTime": 1513467093809, "trialdata": {"rt": -1, "stimulus": "<p id=\"stim\">COMET</p>", "key_press": -1, "type": "PRES_VIS", "word": "comet", "wordID": 352, "conditions": [12, 1600, "v", 24000], "trial": 2, "serialpos": 7, "trial_type": "single-stim", "trial_index": 96, "time_elapsed": 637290, "internal_node_id": "0.0-69.0"}}, {"uniqueid": "MTK1240:3COPXFW7XCJ9HBW0UCOCUG0MOBAKPH", "current_trial": 97, "dateTime": 1513467096269, "trialdata": {"rt": -1, "stimulus": "<p id=\"stim\">SODA</p>", "key_press": -1, "type": "PRES_VIS", "word": "soda", "wordID": 1340, "conditions": [12, 1600, "v", 24000], "trial": 2, "serialpos": 8, "trial_type": "single-stim", "trial_index": 97, "time_elapsed": 639752, "internal_node_id": "0.0-70.0"}}, {"uniqueid": "MTK1240:3COPXFW7XCJ9HBW0UCOCUG0MOBAKPH", "current_trial": 98, "dateTime": 1513467098685, "trialdata": {"rt": -1, "stimulus": "<p id=\"stim\">FRAME</p>", "key_press": -1, "type": "PRES_VIS", "word": "frame", "wordID": 599, "conditions": [12, 1600, "v", 24000], "trial": 2, "serialpos": 9, "trial_type": "single-stim", "trial_index": 98, "time_elapsed": 642168, "internal_node_id": "0.0-71.0"}}, {"uniqueid": "MTK1240:3COPXFW7XCJ9HBW0UCOCUG0MOBAKPH", "current_trial": 99, "dateTime": 1513467101252, "trialdata": {"rt": -1, "stimulus": "<p id=\"stim\">DOUGHNUT</p>", "key_press": -1, "type": "PRES_VIS", "word": "doughnut", "wordID": 489, "conditions": [12, 1600, "v", 24000], "trial": 2, "serialpos": 10, "trial_type": "single-stim", "trial_index": 99, "time_elapsed": 644735, "internal_node_id": "0.0-72.0"}}, {"uniqueid": "MTK1240:3COPXFW7XCJ9HBW0UCOCUG0MOBAKPH", "current_trial": 100, "dateTime": 1513467103880, "trialdata": {"rt": -1, "stimulus": "<p id=\"stim\">FOOTBALL</p>", "key_press": -1, "type": "PRES_VIS", "word": "football", "wordID": 590, "conditions": [12, 1600, "v", 24000], "trial": 2, "serialpos": 11, "trial_type": "single-stim", "trial_index": 100, "time_elapsed": 647363, "internal_node_id": "0.0-73.0"}}, {"uniqueid": "MTK1240:3COPXFW7XCJ9HBW0UCOCUG0MOBAKPH", "current_trial": 101, "dateTime": 1513467106008, "trialdata": {"rt": -1, "stimulus": "", "key_press": -1, "type": "PRE_RECALL_DELAY", "trial_type": "single-stim", "trial_index": 101, "time_elapsed": 649491, "internal_node_id": "0.0-74.0-0.0"}}, {"uniqueid": "MTK1240:3COPXFW7XCJ9HBW0UCOCUG0MOBAKPH", "current_trial": 102, "dateTime": 1513467106515, "trialdata": {"rt": -1000, "stimulus": "/static/audio/400Hz.wav", "key_press": -1, "type": "PRE_RECALL_ALERT", "trial_type": "single-audio", "trial_index": 102, "time_elapsed": 649998, "internal_node_id": "0.0-75.0"}}, {"uniqueid": "MTK1240:3COPXFW7XCJ9HBW0UCOCUG0MOBAKPH", "current_trial": 103, "dateTime": 1513467166523, "trialdata": {"rt": [3193, 4261, 5083, 8075, 9192, 35650], "recwords": ["shorts", "lace", "dorm", "woman", "donkey", "donkey"], "type": "FREE_RECALL", "conditions": [12, 1600, "v", 24000], "trial": 2, "trial_type": "free-recall", "trial_index": 103, "time_elapsed": 710003, "internal_node_id": "0.0-76.0-0.0"}}, {"uniqueid": "MTK1240:3COPXFW7XCJ9HBW0UCOCUG0MOBAKPH", "current_trial": 104, "dateTime": 1513467171204, "trialdata": {"rt": 2680, "key_press": 32, "type": "INSTRUCTIONS", "trial_type": "text", "trial_index": 104, "time_elapsed": 714687, "internal_node_id": "0.0-77.0"}}, {"uniqueid": "MTK1240:3COPXFW7XCJ9HBW0UCOCUG0MOBAKPH", "current_trial": 105, "dateTime": 1513467197208, "trialdata": {"rt": [2687, 4878, 6802, 12741, 14927, 23121], "responses": ["18", "17", "9", "13", "8", "23"], "num1": [9, 5, 4, 3, 4, 9, 1], "num2": [8, 4, 1, 4, 1, 8, 7], "num3": [1, 8, 4, 6, 3, 6, 1], "type": "DISTRACTOR", "conditions": [12, 800, "a", 24000], "trial": 3, "trial_type": "math-distractor", "trial_index": 105, "time_elapsed": 740691, "internal_node_id": "0.0-78.0"}}, {"uniqueid": "MTK1240:3COPXFW7XCJ9HBW0UCOCUG0MOBAKPH", "current_trial": 106, "dateTime": 1513467200211, "trialdata": {"rt": -1, "stimulus": "<p id=\"stim\">10</p>", "key_press": -1, "trial_type": "single-stim", "trial_index": 106, "time_elapsed": 743694, "internal_node_id": "0.0-79.0-0.0"}}, {"uniqueid": "MTK1240:3COPXFW7XCJ9HBW0UCOCUG0MOBAKPH", "current_trial": 107, "dateTime": 1513467201213, "trialdata": {"rt": -1, "stimulus": "<p id=\"stim\">9</p>", "key_press": -1, "trial_type": "single-stim", "trial_index": 107, "time_elapsed": 744695, "internal_node_id": "0.0-79.0-1.0"}}, {"uniqueid": "MTK1240:3COPXFW7XCJ9HBW0UCOCUG0MOBAKPH", "current_trial": 108, "dateTime": 1513467202214, "trialdata": {"rt": -1, "stimulus": "<p id=\"stim\">8</p>", "key_press": -1, "trial_type": "single-stim", "trial_index": 108, "time_elapsed": 745697, "internal_node_id": "0.0-79.0-2.0"}}, {"uniqueid": "MTK1240:3COPXFW7XCJ9HBW0UCOCUG0MOBAKPH", "current_trial": 109, "dateTime": 1513467203216, "trialdata": {"rt": -1, "stimulus": "<p id=\"stim\">7</p>", "key_press": -1, "trial_type": "single-stim", "trial_index": 109, "time_elapsed": 746698, "internal_node_id": "0.0-79.0-3.0"}}, {"uniqueid": "MTK1240:3COPXFW7XCJ9HBW0UCOCUG0MOBAKPH", "current_trial": 110, "dateTime": 1513467204218, "trialdata": {"rt": -1, "stimulus": "<p id=\"stim\">6</p>", "key_press": -1, "trial_type": "single-stim", "trial_index": 110, "time_elapsed": 747700, "internal_node_id": "0.0-79.0-4.0"}}, {"uniqueid": "MTK1240:3COPXFW7XCJ9HBW0UCOCUG0MOBAKPH", "current_trial": 111, "dateTime": 1513467205219, "trialdata": {"rt": -1, "stimulus": "<p id=\"stim\">5</p>", "key_press": -1, "trial_type": "single-stim", "trial_index": 111, "time_elapsed": 748702, "internal_node_id": "0.0-79.0-5.0"}}, {"uniqueid": "MTK1240:3COPXFW7XCJ9HBW0UCOCUG0MOBAKPH", "current_trial": 112, "dateTime": 1513467206220, "trialdata": {"rt": -1, "stimulus": "<p id=\"stim\">4</p>", "key_press": -1, "trial_type": "single-stim", "trial_index": 112, "time_elapsed": 749703, "internal_node_id": "0.0-79.0-6.0"}}, {"uniqueid": "MTK1240:3COPXFW7XCJ9HBW0UCOCUG0MOBAKPH", "current_trial": 113, "dateTime": 1513467207222, "trialdata": {"rt": -1, "stimulus": "<p id=\"stim\">3</p>", "key_press": -1, "trial_type": "single-stim", "trial_index": 113, "time_elapsed": 750705, "internal_node_id": "0.0-79.0-7.0"}}, {"uniqueid": "MTK1240:3COPXFW7XCJ9HBW0UCOCUG0MOBAKPH", "current_trial": 114, "dateTime": 1513467208224, "trialdata": {"rt": -1, "stimulus": "<p id=\"stim\">2</p>", "key_press": -1, "trial_type": "single-stim", "trial_index": 114, "time_elapsed": 751707, "internal_node_id": "0.0-79.0-8.0"}}, {"uniqueid": "MTK1240:3COPXFW7XCJ9HBW0UCOCUG0MOBAKPH", "current_trial": 115, "dateTime": 1513467209225, "trialdata": {"rt": -1, "stimulus": "<p id=\"stim\">1</p>", "key_press": -1, "trial_type": "single-stim", "trial_index": 115, "time_elapsed": 752708, "internal_node_id": "0.0-79.0-9.0"}}, {"uniqueid": "MTK1240:3COPXFW7XCJ9HBW0UCOCUG0MOBAKPH", "current_trial": 116, "dateTime": 1513467210726, "trialdata": {"rt": -1, "stimulus": "<p id=\"stim\">+</p>", "key_press": -1, "type": "FIXATION", "trial_type": "single-stim", "trial_index": 116, "time_elapsed": 754209, "internal_node_id": "0.0-80.0-0.0"}}, {"uniqueid": "MTK1240:3COPXFW7XCJ9HBW0UCOCUG0MOBAKPH", "current_trial": 117, "dateTime": 1513467212572, "trialdata": {"rt": -1000, "stimulus": "/static/audio/wordpool/BEAKER.wav", "key_press": -1, "type": "PRES_AUD", "word": "beaker", "wordID": 103, "conditions": [12, 800, "a", 24000], "trial": 3, "serialpos": 0, "trial_type": "single-audio", "trial_index": 117, "time_elapsed": 756055, "internal_node_id": "0.0-81.0"}}, {"uniqueid": "MTK1240:3COPXFW7XCJ9HBW0UCOCUG0MOBAKPH", "current_trial": 118, "dateTime": 1513467214536, "trialdata": {"rt": -1000, "stimulus": "/static/audio/wordpool/SLOPE.wav", "key_press": -1, "type": "PRES_AUD", "word": "slope", "wordID": 1327, "conditions": [12, 800, "a", 24000], "trial": 3, "serialpos": 1, "trial_type": "single-audio", "trial_index": 118, "time_elapsed": 758019, "internal_node_id": "0.0-82.0"}}, {"uniqueid": "MTK1240:3COPXFW7XCJ9HBW0UCOCUG0MOBAKPH", "current_trial": 119, "dateTime": 1513467216280, "trialdata": {"rt": -1000, "stimulus": "/static/audio/wordpool/SCULPTURE.wav", "key_press": -1, "type": "PRES_AUD", "word": "sculpture", "wordID": 1257, "conditions": [12, 800, "a", 24000], "trial": 3, "serialpos": 2, "trial_type": "single-audio", "trial_index": 119, "time_elapsed": 759763, "internal_node_id": "0.0-83.0"}}, {"uniqueid": "MTK1240:3COPXFW7XCJ9HBW0UCOCUG0MOBAKPH", "current_trial": 120, "dateTime": 1513467218272, "trialdata": {"rt": -1000, "stimulus": "/static/audio/wordpool/FLASK.wav", "key_press": -1, "type": "PRES_AUD", "word": "flask", "wordID": 575, "conditions": [12, 800, "a", 24000], "trial": 3, "serialpos": 3, "trial_type": "single-audio", "trial_index": 120, "time_elapsed": 761755, "internal_node_id": "0.0-84.0"}}, {"uniqueid": "MTK1240:3COPXFW7XCJ9HBW0UCOCUG0MOBAKPH", "current_trial": 121, "dateTime": 1513467219891, "trialdata": {"rt": -1000, "stimulus": "/static/audio/wordpool/TILE.wav", "key_press": -1, "type": "PRES_AUD", "word": "tile", "wordID": 1467, "conditions": [12, 800, "a", 24000], "trial": 3, "serialpos": 4, "trial_type": "single-audio", "trial_index": 121, "time_elapsed": 763374, "internal_node_id": "0.0-85.0"}}, {"uniqueid": "MTK1240:3COPXFW7XCJ9HBW0UCOCUG0MOBAKPH", "current_trial": 122, "dateTime": 1513467221856, "trialdata": {"rt": -1000, "stimulus": "/static/audio/wordpool/BRICK.wav", "key_press": -1, "type": "PRES_AUD", "word": "brick", "wordID": 171, "conditions": [12, 800, "a", 24000], "trial": 3, "serialpos": 5, "trial_type": "single-audio", "trial_index": 122, "time_elapsed": 765339, "internal_node_id": "0.0-86.0"}}, {"uniqueid": "MTK1240:3COPXFW7XCJ9HBW0UCOCUG0MOBAKPH", "current_trial": 123, "dateTime": 1513467223747, "trialdata": {"rt": -1000, "stimulus": "/static/audio/wordpool/OUTLAW.wav", "key_press": -1, "type": "PRES_AUD", "word": "outlaw", "wordID": 988, "conditions": [12, 800, "a", 24000], "trial": 3, "serialpos": 6, "trial_type": "single-audio", "trial_index": 123, "time_elapsed": 767230, "internal_node_id": "0.0-87.0"}}, {"uniqueid": "MTK1240:3COPXFW7XCJ9HBW0UCOCUG0MOBAKPH", "current_trial": 124, "dateTime": 1513467225417, "trialdata": {"rt": -1000, "stimulus": "/static/audio/wordpool/WAGON.wav", "key_press": -1, "type": "PRES_AUD", "word": "wagon", "wordID": 1577, "conditions": [12, 800, "a", 24000], "trial": 3, "serialpos": 7, "trial_type": "single-audio", "trial_index": 124, "time_elapsed": 768899, "internal_node_id": "0.0-88.0"}}, {"uniqueid": "MTK1240:3COPXFW7XCJ9HBW0UCOCUG0MOBAKPH", "current_trial": 125, "dateTime": 1513467227042, "trialdata": {"rt": -1000, "stimulus": "/static/audio/wordpool/JOURNAL.wav", "key_press": -1, "type": "PRES_AUD", "word": "journal", "wordID": 759, "conditions": [12, 800, "a", 24000], "trial": 3, "serialpos": 8, "trial_type": "single-audio", "trial_index": 125, "time_elapsed": 770524, "internal_node_id": "0.0-89.0"}}, {"uniqueid": "MTK1240:3COPXFW7XCJ9HBW0UCOCUG0MOBAKPH", "current_trial": 126, "dateTime": 1513467229006, "trialdata": {"rt": -1000, "stimulus": "/static/audio/wordpool/RIVER.wav", "key_press": -1, "type": "PRES_AUD", "word": "river", "wordID": 1193, "conditions": [12, 800, "a", 24000], "trial": 3, "serialpos": 9, "trial_type": "single-audio", "trial_index": 126, "time_elapsed": 772489, "internal_node_id": "0.0-90.0"}}, {"uniqueid": "MTK1240:3COPXFW7XCJ9HBW0UCOCUG0MOBAKPH", "current_trial": 127, "dateTime": 1513467230786, "trialdata": {"rt": -1000, "stimulus": "/static/audio/wordpool/JURY.wav", "key_press": -1, "type": "PRES_AUD", "word": "jury", "wordID": 765, "conditions": [12, 800, "a", 24000], "trial": 3, "serialpos": 10, "trial_type": "single-audio", "trial_index": 127, "time_elapsed": 774268, "internal_node_id": "0.0-91.0"}}, {"uniqueid": "MTK1240:3COPXFW7XCJ9HBW0UCOCUG0MOBAKPH", "current_trial": 128, "dateTime": 1513467232698, "trialdata": {"rt": -1000, "stimulus": "/static/audio/wordpool/FEMALE.wav", "key_press": -1, "type": "PRES_AUD", "word": "female", "wordID": 558, "conditions": [12, 800, "a", 24000], "trial": 3, "serialpos": 11, "trial_type": "single-audio", "trial_index": 128, "time_elapsed": 776181, "internal_node_id": "0.0-92.0"}}, {"uniqueid": "MTK1240:3COPXFW7XCJ9HBW0UCOCUG0MOBAKPH", "current_trial": 129, "dateTime": 1513467233924, "trialdata": {"rt": -1, "stimulus": "", "key_press": -1, "type": "PRE_RECALL_DELAY", "trial_type": "single-stim", "trial_index": 129, "time_elapsed": 777407, "internal_node_id": "0.0-93.0-0.0"}}, {"uniqueid": "MTK1240:3COPXFW7XCJ9HBW0UCOCUG0MOBAKPH", "current_trial": 130, "dateTime": 1513467234430, "trialdata": {"rt": -1000, "stimulus": "/static/audio/400Hz.wav", "key_press": -1, "type": "PRE_RECALL_ALERT", "trial_type": "single-audio", "trial_index": 130, "time_elapsed": 777913, "internal_node_id": "0.0-94.0"}}, {"uniqueid": "MTK1240:3COPXFW7XCJ9HBW0UCOCUG0MOBAKPH", "current_trial": 131, "dateTime": 1513467294438, "trialdata": {"rt": [2863, 8006, 9349, 18390, 22515], "recwords": ["female", "beaker", "slope", "slope", "river"], "type": "FREE_RECALL", "conditions": [12, 800, "a", 24000], "trial": 3, "trial_type": "free-recall", "trial_index": 131, "time_elapsed": 837918, "internal_node_id": "0.0-95.0-0.0"}}, {"uniqueid": "MTK1240:3COPXFW7XCJ9HBW0UCOCUG0MOBAKPH", "current_trial": 132, "dateTime": 1513467297425, "trialdata": {"rt": 984, "key_press": 32, "type": "INSTRUCTIONS", "trial_type": "text", "trial_index": 132, "time_elapsed": 840907, "internal_node_id": "0.0-96.0"}}, {"uniqueid": "MTK1240:3COPXFW7XCJ9HBW0UCOCUG0MOBAKPH", "current_trial": 133, "dateTime": 1513467323429, "trialdata": {"rt": [8275, 12755, 15146, 17822, 19211, 22288], "responses": ["24", "20", "18", "7", "19", "17"], "num1": [7, 4, 6, 1, 6, 8, 1], "num2": [8, 7, 9, 4, 4, 7, 1], "num3": [9, 9, 3, 2, 9, 2, 4], "type": "DISTRACTOR", "conditions": [24, 1600, "a", 24000], "trial": 4, "trial_type": "math-distractor", "trial_index": 133, "time_elapsed": 866912, "internal_node_id": "0.0-97.0"}}, {"uniqueid": "MTK1240:3COPXFW7XCJ9HBW0UCOCUG0MOBAKPH", "current_trial": 134, "dateTime": 1513467326431, "trialdata": {"rt": -1, "stimulus": "<p id=\"stim\">10</p>", "key_press": -1, "trial_type": "single-stim", "trial_index": 134, "time_elapsed": 869914, "internal_node_id": "0.0-98.0-0.0"}}, {"uniqueid": "MTK1240:3COPXFW7XCJ9HBW0UCOCUG0MOBAKPH", "current_trial": 135, "dateTime": 1513467327433, "trialdata": {"rt": -1, "stimulus": "<p id=\"stim\">9</p>", "key_press": -1, "trial_type": "single-stim", "trial_index": 135, "time_elapsed": 870916, "internal_node_id": "0.0-98.0-1.0"}}, {"uniqueid": "MTK1240:3COPXFW7XCJ9HBW0UCOCUG0MOBAKPH", "current_trial": 136, "dateTime": 1513467328435, "trialdata": {"rt": -1, "stimulus": "<p id=\"stim\">8</p>", "key_press": -1, "trial_type": "single-stim", "trial_index": 136, "time_elapsed": 871917, "internal_node_id": "0.0-98.0-2.0"}}, {"uniqueid": "MTK1240:3COPXFW7XCJ9HBW0UCOCUG0MOBAKPH", "current_trial": 137, "dateTime": 1513467329436, "trialdata": {"rt": -1, "stimulus": "<p id=\"stim\">7</p>", "key_press": -1, "trial_type": "single-stim", "trial_index": 137, "time_elapsed": 872919, "internal_node_id": "0.0-98.0-3.0"}}, {"uniqueid": "MTK1240:3COPXFW7XCJ9HBW0UCOCUG0MOBAKPH", "current_trial": 138, "dateTime": 1513467330438, "trialdata": {"rt": -1, "stimulus": "<p id=\"stim\">6</p>", "key_press": -1, "trial_type": "single-stim", "trial_index": 138, "time_elapsed": 873921, "internal_node_id": "0.0-98.0-4.0"}}, {"uniqueid": "MTK1240:3COPXFW7XCJ9HBW0UCOCUG0MOBAKPH", "current_trial": 139, "dateTime": 1513467331440, "trialdata": {"rt": -1, "stimulus": "<p id=\"stim\">5</p>", "key_press": -1, "trial_type": "single-stim", "trial_index": 139, "time_elapsed": 874923, "internal_node_id": "0.0-98.0-5.0"}}, {"uniqueid": "MTK1240:3COPXFW7XCJ9HBW0UCOCUG0MOBAKPH", "current_trial": 140, "dateTime": 1513467332442, "trialdata": {"rt": -1, "stimulus": "<p id=\"stim\">4</p>", "key_press": -1, "trial_type": "single-stim", "trial_index": 140, "time_elapsed": 875925, "internal_node_id": "0.0-98.0-6.0"}}, {"uniqueid": "MTK1240:3COPXFW7XCJ9HBW0UCOCUG0MOBAKPH", "current_trial": 141, "dateTime": 1513467333444, "trialdata": {"rt": -1, "stimulus": "<p id=\"stim\">3</p>", "key_press": -1, "trial_type": "single-stim", "trial_index": 141, "time_elapsed": 876926, "internal_node_id": "0.0-98.0-7.0"}}, {"uniqueid": "MTK1240:3COPXFW7XCJ9HBW0UCOCUG0MOBAKPH", "current_trial": 142, "dateTime": 1513467334445, "trialdata": {"rt": -1, "stimulus": "<p id=\"stim\">2</p>", "key_press": -1, "trial_type": "single-stim", "trial_index": 142, "time_elapsed": 877928, "internal_node_id": "0.0-98.0-8.0"}}, {"uniqueid": "MTK1240:3COPXFW7XCJ9HBW0UCOCUG0MOBAKPH", "current_trial": 143, "dateTime": 1513467335446, "trialdata": {"rt": -1, "stimulus": "<p id=\"stim\">1</p>", "key_press": -1, "trial_type": "single-stim", "trial_index": 143, "time_elapsed": 878929, "internal_node_id": "0.0-98.0-9.0"}}, {"uniqueid": "MTK1240:3COPXFW7XCJ9HBW0UCOCUG0MOBAKPH", "current_trial": 144, "dateTime": 1513467336948, "trialdata": {"rt": -1, "stimulus": "<p id=\"stim\">+</p>", "key_press": -1, "type": "FIXATION", "trial_type": "single-stim", "trial_index": 144, "time_elapsed": 880431, "internal_node_id": "0.0-99.0-0.0"}}, {"uniqueid": "MTK1240:3COPXFW7XCJ9HBW0UCOCUG0MOBAKPH", "current_trial": 145, "dateTime": 1513467339383, "trialdata": {"rt": -1000, "stimulus": "/static/audio/wordpool/RADISH.wav", "key_press": -1, "type": "PRES_AUD", "word": "radish", "wordID": 1157, "conditions": [24, 1600, "a", 24000], "trial": 4, "serialpos": 0, "trial_type": "single-audio", "trial_index": 145, "time_elapsed": 882866, "internal_node_id": "0.0-100.0"}}, {"uniqueid": "MTK1240:3COPXFW7XCJ9HBW0UCOCUG0MOBAKPH", "current_trial": 146, "dateTime": 1513467342180, "trialdata": {"rt": -1000, "stimulus": "/static/audio/wordpool/TYPIST.wav", "key_press": -1, "type": "PRES_AUD", "word": "typist", "wordID": 1531, "conditions": [24, 1600, "a", 24000], "trial": 4, "serialpos": 1, "trial_type": "single-audio", "trial_index": 146, "time_elapsed": 885663, "internal_node_id": "0.0-101.0"}}, {"uniqueid": "MTK1240:3COPXFW7XCJ9HBW0UCOCUG0MOBAKPH", "current_trial": 147, "dateTime": 1513467344983, "trialdata": {"rt": -1000, "stimulus": "/static/audio/wordpool/PORTRAIT.wav", "key_press": -1, "type": "PRES_AUD", "word": "portrait", "wordID": 1110, "conditions": [24, 1600, "a", 24000], "trial": 4, "serialpos": 2, "trial_type": "single-audio", "trial_index": 147, "time_elapsed": 888466, "internal_node_id": "0.0-102.0"}}, {"uniqueid": "MTK1240:3COPXFW7XCJ9HBW0UCOCUG0MOBAKPH", "current_trial": 148, "dateTime": 1513467347725, "trialdata": {"rt": -1000, "stimulus": "/static/audio/wordpool/COLLEGE.wav", "key_press": -1, "type": "PRES_AUD", "word": "college", "wordID": 345, "conditions": [24, 1600, "a", 24000], "trial": 4, "serialpos": 3, "trial_type": "single-audio", "trial_index": 148, "time_elapsed": 891208, "internal_node_id": "0.0-103.0"}}, {"uniqueid": "MTK1240:3COPXFW7XCJ9HBW0UCOCUG0MOBAKPH", "current_trial": 149, "dateTime": 1513467350329, "trialdata": {"rt": -1000, "stimulus": "/static/audio/wordpool/SUPPER.wav", "key_press": -1, "type": "PRES_AUD", "word": "supper", "wordID": 1410, "conditions": [24, 1600, "a", 24000], "trial": 4, "serialpos": 4, "trial_type": "single-audio", "trial_index": 149, "time_elapsed": 893812, "internal_node_id": "0.0-104.0"}}, {"uniqueid": "MTK1240:3COPXFW7XCJ9HBW0UCOCUG0MOBAKPH", "current_trial": 150, "dateTime": 1513467352823, "trialdata": {"rt": -1000, "stimulus": "/static/audio/wordpool/PANTHER.wav", "key_press": -1, "type": "PRES_AUD", "word": "panther", "wordID": 1008, "conditions": [24, 1600, "a", 24000], "trial": 4, "serialpos": 5, "trial_type": "single-audio", "trial_index": 150, "time_elapsed": 896306, "internal_node_id": "0.0-105.0"}}, {"uniqueid": "MTK1240:3COPXFW7XCJ9HBW0UCOCUG0MOBAKPH", "current_trial": 151, "dateTime": 1513467355353, "trialdata": {"rt": -1000, "stimulus": "/static/audio/wordpool/DANCER.wav", "key_press": -1, "type": "PRES_AUD", "word": "dancer", "wordID": 436, "conditions": [24, 1600, "a", 24000], "trial": 4, "serialpos": 6, "trial_type": "single-audio", "trial_index": 151, "time_elapsed": 898836, "internal_node_id": "0.0-106.0"}}, {"uniqueid": "MTK1240:3COPXFW7XCJ9HBW0UCOCUG0MOBAKPH", "current_trial": 152, "dateTime": 1513467357803, "trialdata": {"rt": -1000, "stimulus": "/static/audio/wordpool/STUDENT.wav", "key_press": -1, "type": "PRES_AUD", "word": "student", "wordID": 1394, "conditions": [24, 1600, "a", 24000], "trial": 4, "serialpos": 7, "trial_type": "single-audio", "trial_index": 152, "time_elapsed": 901286, "internal_node_id": "0.0-107.0"}}, {"uniqueid": "MTK1240:3COPXFW7XCJ9HBW0UCOCUG0MOBAKPH", "current_trial": 153, "dateTime": 1513467360284, "trialdata": {"rt": -1000, "stimulus": "/static/audio/wordpool/HUSBAND.wav", "key_press": -1, "type": "PRES_AUD", "word": "husband", "wordID": 727, "conditions": [24, 1600, "a", 24000], "trial": 4, "serialpos": 8, "trial_type": "single-audio", "trial_index": 153, "time_elapsed": 903767, "internal_node_id": "0.0-108.0"}}, {"uniqueid": "MTK1240:3COPXFW7XCJ9HBW0UCOCUG0MOBAKPH", "current_trial": 154, "dateTime": 1513467362972, "trialdata": {"rt": -1000, "stimulus": "/static/audio/wordpool/SPOUSE.wav", "key_press": -1, "type": "PRES_AUD", "word": "spouse", "wordID": 1357, "conditions": [24, 1600, "a", 24000], "trial": 4, "serialpos": 9, "trial_type": "single-audio", "trial_index": 154, "time_elapsed": 906455, "internal_node_id": "0.0-109.0"}}, {"uniqueid": "MTK1240:3COPXFW7XCJ9HBW0UCOCUG0MOBAKPH", "current_trial": 155, "dateTime": 1513467365596, "trialdata": {"rt": -1000, "stimulus": "/static/audio/wordpool/MARROW.wav", "key_press": -1, "type": "PRES_AUD", "word": "marrow", "wordID": 871, "conditions": [24, 1600, "a", 24000], "trial": 4, "serialpos": 10, "trial_type": "single-audio", "trial_index": 155, "time_elapsed": 909079, "internal_node_id": "0.0-110.0"}}, {"uniqueid": "MTK1240:3COPXFW7XCJ9HBW0UCOCUG0MOBAKPH", "current_trial": 156, "dateTime": 1513467368310, "trialdata": {"rt": -1000, "stimulus": "/static/audio/wordpool/SPONGE.wav", "key_press": -1, "type": "PRES_AUD", "word": "sponge", "wordID": 1354, "conditions": [24, 1600, "a", 24000], "trial": 4, "serialpos": 11, "trial_type": "single-audio", "trial_index": 156, "time_elapsed": 911793, "internal_node_id": "0.0-111.0"}}, {"uniqueid": "MTK1240:3COPXFW7XCJ9HBW0UCOCUG0MOBAKPH", "current_trial": 157, "dateTime": 1513467370815, "trialdata": {"rt": -1000, "stimulus": "/static/audio/wordpool/CASKET.wav", "key_press": -1, "type": "PRES_AUD", "word": "casket", "wordID": 254, "conditions": [24, 1600, "a", 24000], "trial": 4, "serialpos": 12, "trial_type": "single-audio", "trial_index": 157, "time_elapsed": 914298, "internal_node_id": "0.0-112.0"}}, {"uniqueid": "MTK1240:3COPXFW7XCJ9HBW0UCOCUG0MOBAKPH", "current_trial": 158, "dateTime": 1513467373418, "trialdata": {"rt": -1000, "stimulus": "/static/audio/wordpool/LAGOON.wav", "key_press": -1, "type": "PRES_AUD", "word": "lagoon", "wordID": 794, "conditions": [24, 1600, "a", 24000], "trial": 4, "serialpos": 13, "trial_type": "single-audio", "trial_index": 158, "time_elapsed": 916900, "internal_node_id": "0.0-113.0"}}, {"uniqueid": "MTK1240:3COPXFW7XCJ9HBW0UCOCUG0MOBAKPH", "current_trial": 159, "dateTime": 1513467376162, "trialdata": {"rt": -1000, "stimulus": "/static/audio/wordpool/CANAL.wav", "key_press": -1, "type": "PRES_AUD", "word": "canal", "wordID": 225, "conditions": [24, 1600, "a", 24000], "trial": 4, "serialpos": 14, "trial_type": "single-audio", "trial_index": 159, "time_elapsed": 919645, "internal_node_id": "0.0-114.0"}}, {"uniqueid": "MTK1240:3COPXFW7XCJ9HBW0UCOCUG0MOBAKPH", "current_trial": 160, "dateTime": 1513467378669, "trialdata": {"rt": -1000, "stimulus": "/static/audio/wordpool/ARM.wav", "key_press": -1, "type": "PRES_AUD", "word": "arm", "wordID": 37, "conditions": [24, 1600, "a", 24000], "trial": 4, "serialpos": 15, "trial_type": "single-audio", "trial_index": 160, "time_elapsed": 922152, "internal_node_id": "0.0-115.0"}}, {"uniqueid": "MTK1240:3COPXFW7XCJ9HBW0UCOCUG0MOBAKPH", "current_trial": 161, "dateTime": 1513467381142, "trialdata": {"rt": -1000, "stimulus": "/static/audio/wordpool/TROMBONE.wav", "key_press": -1, "type": "PRES_AUD", "word": "trombone", "wordID": 1507, "conditions": [24, 1600, "a", 24000], "trial": 4, "serialpos": 16, "trial_type": "single-audio", "trial_index": 161, "time_elapsed": 924625, "internal_node_id": "0.0-116.0"}}, {"uniqueid": "MTK1240:3COPXFW7XCJ9HBW0UCOCUG0MOBAKPH", "current_trial": 162, "dateTime": 1513467383805, "trialdata": {"rt": -1000, "stimulus": "/static/audio/wordpool/HORNET.wav", "key_press": -1, "type": "PRES_AUD", "word": "hornet", "wordID": 717, "conditions": [24, 1600, "a", 24000], "trial": 4, "serialpos": 17, "trial_type": "single-audio", "trial_index": 162, "time_elapsed": 927286, "internal_node_id": "0.0-117.0"}}, {"uniqueid": "MTK1240:3COPXFW7XCJ9HBW0UCOCUG0MOBAKPH", "current_trial": 163, "dateTime": 1513467386306, "trialdata": {"rt": -1000, "stimulus": "/static/audio/wordpool/BEAVER.wav", "key_press": -1, "type": "PRES_AUD", "word": "beaver", "wordID": 108, "conditions": [24, 1600, "a", 24000], "trial": 4, "serialpos": 18, "trial_type": "single-audio", "trial_index": 163, "time_elapsed": 929789, "internal_node_id": "0.0-118.0"}}, {"uniqueid": "MTK1240:3COPXFW7XCJ9HBW0UCOCUG0MOBAKPH", "current_trial": 164, "dateTime": 1513467388842, "trialdata": {"rt": -1000, "stimulus": "/static/audio/wordpool/GLOBE.wav", "key_press": -1, "type": "PRES_AUD", "word": "globe", "wordID": 640, "conditions": [24, 1600, "a", 24000], "trial": 4, "serialpos": 19, "trial_type": "single-audio", "trial_index": 164, "time_elapsed": 932325, "internal_node_id": "0.0-119.0"}}, {"uniqueid": "MTK1240:3COPXFW7XCJ9HBW0UCOCUG0MOBAKPH", "current_trial": 165, "dateTime": 1513467391324, "trialdata": {"rt": -1000, "stimulus": "/static/audio/wordpool/STOVE.wav", "key_press": -1, "type": "PRES_AUD", "word": "stove", "wordID": 1387, "conditions": [24, 1600, "a", 24000], "trial": 4, "serialpos": 20, "trial_type": "single-audio", "trial_index": 165, "time_elapsed": 934807, "internal_node_id": "0.0-120.0"}}, {"uniqueid": "MTK1240:3COPXFW7XCJ9HBW0UCOCUG0MOBAKPH", "current_trial": 166, "dateTime": 1513467393904, "trialdata": {"rt": -1000, "stimulus": "/static/audio/wordpool/COOK.wav", "key_press": -1, "type": "PRES_AUD", "word": "cook", "wordID": 371, "conditions": [24, 1600, "a", 24000], "trial": 4, "serialpos": 21, "trial_type": "single-audio", "trial_index": 166, "time_elapsed": 937387, "internal_node_id": "0.0-121.0"}}, {"uniqueid": "MTK1240:3COPXFW7XCJ9HBW0UCOCUG0MOBAKPH", "current_trial": 167, "dateTime": 1513467396410, "trialdata": {"rt": -1000, "stimulus": "/static/audio/wordpool/MARSH.wav", "key_press": -1, "type": "PRES_AUD", "word": "marsh", "wordID": 873, "conditions": [24, 1600, "a", 24000], "trial": 4, "serialpos": 22, "trial_type": "single-audio", "trial_index": 167, "time_elapsed": 939893, "internal_node_id": "0.0-122.0"}}, {"uniqueid": "MTK1240:3COPXFW7XCJ9HBW0UCOCUG0MOBAKPH", "current_trial": 168, "dateTime": 1513467399115, "trialdata": {"rt": -1000, "stimulus": "/static/audio/wordpool/WAITER.wav", "key_press": -1, "type": "PRES_AUD", "word": "waiter", "wordID": 1579, "conditions": [24, 1600, "a", 24000], "trial": 4, "serialpos": 23, "trial_type": "single-audio", "trial_index": 168, "time_elapsed": 942598, "internal_node_id": "0.0-123.0"}}, {"uniqueid": "MTK1240:3COPXFW7XCJ9HBW0UCOCUG0MOBAKPH", "current_trial": 169, "dateTime": 1513467400357, "trialdata": {"rt": -1, "stimulus": "", "key_press": -1, "type": "PRE_RECALL_DELAY", "trial_type": "single-stim", "trial_index": 169, "time_elapsed": 943839, "internal_node_id": "0.0-124.0-0.0"}}, {"uniqueid": "MTK1240:3COPXFW7XCJ9HBW0UCOCUG0MOBAKPH", "current_trial": 170, "dateTime": 1513467400864, "trialdata": {"rt": -1000, "stimulus": "/static/audio/400Hz.wav", "key_press": -1, "type": "PRE_RECALL_ALERT", "trial_type": "single-audio", "trial_index": 170, "time_elapsed": 944346, "internal_node_id": "0.0-125.0"}}, {"uniqueid": "MTK1240:3COPXFW7XCJ9HBW0UCOCUG0MOBAKPH", "current_trial": 171, "dateTime": 1513467460874, "trialdata": {"rt": [4830, 5952, 9050, 9872, 12302, 42183], "recwords": ["husband", "spouse", "raddish", "cook", "waiter", "marsh"], "type": "FREE_RECALL", "conditions": [24, 1600, "a", 24000], "trial": 4, "trial_type": "free-recall", "trial_index": 171, "time_elapsed": 1004351, "internal_node_id": "0.0-126.0-0.0"}}, {"uniqueid": "MTK1240:3COPXFW7XCJ9HBW0UCOCUG0MOBAKPH", "current_trial": 172, "dateTime": 1513467463836, "trialdata": {"rt": 960, "key_press": 32, "type": "INSTRUCTIONS", "trial_type": "text", "trial_index": 172, "time_elapsed": 1007318, "internal_node_id": "0.0-127.0"}}, {"uniqueid": "MTK1240:3COPXFW7XCJ9HBW0UCOCUG0MOBAKPH", "current_trial": 173, "dateTime": 1513467477840, "trialdata": {"rt": [2391, 5158, 7037, 9408], "responses": ["18", "15", "12", "11"], "num1": [9, 2, 3, 1, 9], "num2": [8, 4, 6, 5, 2], "num3": [1, 9, 3, 5, 6], "type": "DISTRACTOR", "conditions": [12, 800, "v", 12000], "trial": 5, "trial_type": "math-distractor", "trial_index": 173, "time_elapsed": 1021323, "internal_node_id": "0.0-128.0"}}, {"uniqueid": "MTK1240:3COPXFW7XCJ9HBW0UCOCUG0MOBAKPH", "current_trial": 174, "dateTime": 1513467480843, "trialdata": {"rt": -1, "stimulus": "<p id=\"stim\">10</p>", "key_press": -1, "trial_type": "single-stim", "trial_index": 174, "time_elapsed": 1024326, "internal_node_id": "0.0-129.0-0.0"}}, {"uniqueid": "MTK1240:3COPXFW7XCJ9HBW0UCOCUG0MOBAKPH", "current_trial": 175, "dateTime": 1513467481844, "trialdata": {"rt": -1, "stimulus": "<p id=\"stim\">9</p>", "key_press": -1, "trial_type": "single-stim", "trial_index": 175, "time_elapsed": 1025327, "internal_node_id": "0.0-129.0-1.0"}}, {"uniqueid": "MTK1240:3COPXFW7XCJ9HBW0UCOCUG0MOBAKPH", "current_trial": 176, "dateTime": 1513467482846, "trialdata": {"rt": -1, "stimulus": "<p id=\"stim\">8</p>", "key_press": -1, "trial_type": "single-stim", "trial_index": 176, "time_elapsed": 1026329, "internal_node_id": "0.0-129.0-2.0"}}, {"uniqueid": "MTK1240:3COPXFW7XCJ9HBW0UCOCUG0MOBAKPH", "current_trial": 177, "dateTime": 1513467483848, "trialdata": {"rt": -1, "stimulus": "<p id=\"stim\">7</p>", "key_press": -1, "trial_type": "single-stim", "trial_index": 177, "time_elapsed": 1027331, "internal_node_id": "0.0-129.0-3.0"}}, {"uniqueid": "MTK1240:3COPXFW7XCJ9HBW0UCOCUG0MOBAKPH", "current_trial": 178, "dateTime": 1513467484850, "trialdata": {"rt": -1, "stimulus": "<p id=\"stim\">6</p>", "key_press": -1, "trial_type": "single-stim", "trial_index": 178, "time_elapsed": 1028333, "internal_node_id": "0.0-129.0-4.0"}}, {"uniqueid": "MTK1240:3COPXFW7XCJ9HBW0UCOCUG0MOBAKPH", "current_trial": 179, "dateTime": 1513467485852, "trialdata": {"rt": -1, "stimulus": "<p id=\"stim\">5</p>", "key_press": -1, "trial_type": "single-stim", "trial_index": 179, "time_elapsed": 1029334, "internal_node_id": "0.0-129.0-5.0"}}, {"uniqueid": "MTK1240:3COPXFW7XCJ9HBW0UCOCUG0MOBAKPH", "current_trial": 180, "dateTime": 1513467486853, "trialdata": {"rt": -1, "stimulus": "<p id=\"stim\">4</p>", "key_press": -1, "trial_type": "single-stim", "trial_index": 180, "time_elapsed": 1030336, "internal_node_id": "0.0-129.0-6.0"}}, {"uniqueid": "MTK1240:3COPXFW7XCJ9HBW0UCOCUG0MOBAKPH", "current_trial": 181, "dateTime": 1513467487854, "trialdata": {"rt": -1, "stimulus": "<p id=\"stim\">3</p>", "key_press": -1, "trial_type": "single-stim", "trial_index": 181, "time_elapsed": 1031337, "internal_node_id": "0.0-129.0-7.0"}}, {"uniqueid": "MTK1240:3COPXFW7XCJ9HBW0UCOCUG0MOBAKPH", "current_trial": 182, "dateTime": 1513467488855, "trialdata": {"rt": -1, "stimulus": "<p id=\"stim\">2</p>", "key_press": -1, "trial_type": "single-stim", "trial_index": 182, "time_elapsed": 1032338, "internal_node_id": "0.0-129.0-8.0"}}, {"uniqueid": "MTK1240:3COPXFW7XCJ9HBW0UCOCUG0MOBAKPH", "current_trial": 183, "dateTime": 1513467489857, "trialdata": {"rt": -1, "stimulus": "<p id=\"stim\">1</p>", "key_press": -1, "trial_type": "single-stim", "trial_index": 183, "time_elapsed": 1033340, "internal_node_id": "0.0-129.0-9.0"}}, {"uniqueid": "MTK1240:3COPXFW7XCJ9HBW0UCOCUG0MOBAKPH", "current_trial": 184, "dateTime": 1513467491359, "trialdata": {"rt": -1, "stimulus": "<p id=\"stim\">+</p>", "key_press": -1, "type": "FIXATION", "trial_type": "single-stim", "trial_index": 184, "time_elapsed": 1034842, "internal_node_id": "0.0-130.0-0.0"}}, {"uniqueid": "MTK1240:3COPXFW7XCJ9HBW0UCOCUG0MOBAKPH", "current_trial": 185, "dateTime": 1513467492161, "trialdata": {"rt": -1, "stimulus": "<p id=\"stim\">SHELTER</p>", "key_press": -1, "type": "PRES_VIS", "word": "shelter", "wordID": 1281, "conditions": [12, 800, "v", 12000], "trial": 5, "serialpos": 0, "trial_type": "single-stim", "trial_index": 185, "time_elapsed": 1035644, "internal_node_id": "0.0-131.0"}}, {"uniqueid": "MTK1240:3COPXFW7XCJ9HBW0UCOCUG0MOBAKPH", "current_trial": 186, "dateTime": 1513467493938, "trialdata": {"rt": -1, "stimulus": "<p id=\"stim\">BARLEY</p>", "key_press": -1, "type": "PRES_VIS", "word": "barley", "wordID": 87, "conditions": [12, 800, "v", 12000], "trial": 5, "serialpos": 1, "trial_type": "single-stim", "trial_index": 186, "time_elapsed": 1037420, "internal_node_id": "0.0-132.0"}}, {"uniqueid": "MTK1240:3COPXFW7XCJ9HBW0UCOCUG0MOBAKPH", "current_trial": 187, "dateTime": 1513467495772, "trialdata": {"rt": -1, "stimulus": "<p id=\"stim\">LUNCH</p>", "key_press": -1, "type": "PRES_VIS", "word": "lunch", "wordID": 848, "conditions": [12, 800, "v", 12000], "trial": 5, "serialpos": 2, "trial_type": "single-stim", "trial_index": 187, "time_elapsed": 1039255, "internal_node_id": "0.0-133.0"}}, {"uniqueid": "MTK1240:3COPXFW7XCJ9HBW0UCOCUG0MOBAKPH", "current_trial": 188, "dateTime": 1513467497389, "trialdata": {"rt": -1, "stimulus": "<p id=\"stim\">ANTLER</p>", "key_press": -1, "type": "PRES_VIS", "word": "antler", "wordID": 28, "conditions": [12, 800, "v", 12000], "trial": 5, "serialpos": 3, "trial_type": "single-stim", "trial_index": 188, "time_elapsed": 1040872, "internal_node_id": "0.0-134.0"}}, {"uniqueid": "MTK1240:3COPXFW7XCJ9HBW0UCOCUG0MOBAKPH", "current_trial": 189, "dateTime": 1513467499002, "trialdata": {"rt": -1, "stimulus": "<p id=\"stim\">TRACTOR</p>", "key_press": -1, "type": "PRES_VIS", "word": "tractor", "wordID": 1492, "conditions": [12, 800, "v", 12000], "trial": 5, "serialpos": 4, "trial_type": "single-stim", "trial_index": 189, "time_elapsed": 1042485, "internal_node_id": "0.0-135.0"}}, {"uniqueid": "MTK1240:3COPXFW7XCJ9HBW0UCOCUG0MOBAKPH", "current_trial": 190, "dateTime": 1513467500750, "trialdata": {"rt": -1, "stimulus": "<p id=\"stim\">SNACK</p>", "key_press": -1, "type": "PRES_VIS", "word": "snack", "wordID": 1330, "conditions": [12, 800, "v", 12000], "trial": 5, "serialpos": 5, "trial_type": "single-stim", "trial_index": 190, "time_elapsed": 1044232, "internal_node_id": "0.0-136.0"}}, {"uniqueid": "MTK1240:3COPXFW7XCJ9HBW0UCOCUG0MOBAKPH", "current_trial": 191, "dateTime": 1513467502672, "trialdata": {"rt": -1, "stimulus": "<p id=\"stim\">JELLO</p>", "key_press": -1, "type": "PRES_VIS", "word": "jello", "wordID": 753, "conditions": [12, 800, "v", 12000], "trial": 5, "serialpos": 6, "trial_type": "single-stim", "trial_index": 191, "time_elapsed": 1046155, "internal_node_id": "0.0-137.0"}}, {"uniqueid": "MTK1240:3COPXFW7XCJ9HBW0UCOCUG0MOBAKPH", "current_trial": 192, "dateTime": 1513467504645, "trialdata": {"rt": -1, "stimulus": "<p id=\"stim\">CRATER</p>", "key_press": -1, "type": "PRES_VIS", "word": "crater", "wordID": 399, "conditions": [12, 800, "v", 12000], "trial": 5, "serialpos": 7, "trial_type": "single-stim", "trial_index": 192, "time_elapsed": 1048128, "internal_node_id": "0.0-138.0"}}, {"uniqueid": "MTK1240:3COPXFW7XCJ9HBW0UCOCUG0MOBAKPH", "current_trial": 193, "dateTime": 1513467506411, "trialdata": {"rt": -1, "stimulus": "<p id=\"stim\">GRAPE</p>", "key_press": -1, "type": "PRES_VIS", "word": "grape", "wordID": 653, "conditions": [12, 800, "v", 12000], "trial": 5, "serialpos": 8, "trial_type": "single-stim", "trial_index": 193, "time_elapsed": 1049894, "internal_node_id": "0.0-139.0"}}, {"uniqueid": "MTK1240:3COPXFW7XCJ9HBW0UCOCUG0MOBAKPH", "current_trial": 194, "dateTime": 1513467508343, "trialdata": {"rt": -1, "stimulus": "<p id=\"stim\">KNIFE</p>", "key_press": -1, "type": "PRES_VIS", "word": "knife", "wordID": 784, "conditions": [12, 800, "v", 12000], "trial": 5, "serialpos": 9, "trial_type": "single-stim", "trial_index": 194, "time_elapsed": 1051826, "internal_node_id": "0.0-140.0"}}, {"uniqueid": "MTK1240:3COPXFW7XCJ9HBW0UCOCUG0MOBAKPH", "current_trial": 195, "dateTime": 1513467510180, "trialdata": {"rt": -1, "stimulus": "<p id=\"stim\">BLADE</p>", "key_press": -1, "type": "PRES_VIS", "word": "blade", "wordID": 133, "conditions": [12, 800, "v", 12000], "trial": 5, "serialpos": 10, "trial_type": "single-stim", "trial_index": 195, "time_elapsed": 1053662, "internal_node_id": "0.0-141.0"}}, {"uniqueid": "MTK1240:3COPXFW7XCJ9HBW0UCOCUG0MOBAKPH", "current_trial": 196, "dateTime": 1513467512030, "trialdata": {"rt": -1, "stimulus": "<p id=\"stim\">SUNSET</p>", "key_press": -1, "type": "PRES_VIS", "word": "sunset", "wordID": 1407, "conditions": [12, 800, "v", 12000], "trial": 5, "serialpos": 11, "trial_type": "single-stim", "trial_index": 196, "time_elapsed": 1055513, "internal_node_id": "0.0-142.0"}}, {"uniqueid": "MTK1240:3COPXFW7XCJ9HBW0UCOCUG0MOBAKPH", "current_trial": 197, "dateTime": 1513467514328, "trialdata": {"rt": -1, "stimulus": "", "key_press": -1, "type": "PRE_RECALL_DELAY", "trial_type": "single-stim", "trial_index": 197, "time_elapsed": 1057811, "internal_node_id": "0.0-143.0-0.0"}}, {"uniqueid": "MTK1240:3COPXFW7XCJ9HBW0UCOCUG0MOBAKPH", "current_trial": 198, "dateTime": 1513467514836, "trialdata": {"rt": -1000, "stimulus": "/static/audio/400Hz.wav", "key_press": -1, "type": "PRE_RECALL_ALERT", "trial_type": "single-audio", "trial_index": 198, "time_elapsed": 1058318, "internal_node_id": "0.0-144.0"}}, {"uniqueid": "MTK1240:3COPXFW7XCJ9HBW0UCOCUG0MOBAKPH", "current_trial": 199, "dateTime": 1513467574844, "trialdata": {"rt": [4698, 6798, 11484, 12386, 16907], "recwords": ["snack", "jello", "knife", "blade", "shelter"], "type": "FREE_RECALL", "conditions": [12, 800, "v", 12000], "trial": 5, "trial_type": "free-recall", "trial_index": 199, "time_elapsed": 1118322, "internal_node_id": "0.0-145.0-0.0"}}, {"uniqueid": "MTK1240:3COPXFW7XCJ9HBW0UCOCUG0MOBAKPH", "current_trial": 200, "dateTime": 1513467578238, "trialdata": {"rt": 1392, "key_press": 32, "type": "INSTRUCTIONS", "trial_type": "text", "trial_index": 200, "time_elapsed": 1121721, "internal_node_id": "0.0-146.0"}}, {"uniqueid": "MTK1240:3COPXFW7XCJ9HBW0UCOCUG0MOBAKPH", "current_trial": 201, "dateTime": 1513467592242, "trialdata": {"rt": [3774, 6346, 9072, 11137], "responses": ["13", "21", "23", "12"], "num1": [8, 3, 8, 3, 6], "num2": [1, 9, 8, 8, 9], "num3": [4, 9, 7, 1, 2], "type": "DISTRACTOR", "conditions": [12, 800, "a", 12000], "trial": 6, "trial_type": "math-distractor", "trial_index": 201, "time_elapsed": 1135724, "internal_node_id": "0.0-147.0"}}, {"uniqueid": "MTK1240:3COPXFW7XCJ9HBW0UCOCUG0MOBAKPH", "current_trial": 202, "dateTime": 1513467595243, "trialdata": {"rt": -1, "stimulus": "<p id=\"stim\">10</p>", "key_press": -1, "trial_type": "single-stim", "trial_index": 202, "time_elapsed": 1138726, "internal_node_id": "0.0-148.0-0.0"}}, {"uniqueid": "MTK1240:3COPXFW7XCJ9HBW0UCOCUG0MOBAKPH", "current_trial": 203, "dateTime": 1513467596244, "trialdata": {"rt": -1, "stimulus": "<p id=\"stim\">9</p>", "key_press": -1, "trial_type": "single-stim", "trial_index": 203, "time_elapsed": 1139727, "internal_node_id": "0.0-148.0-1.0"}}, {"uniqueid": "MTK1240:3COPXFW7XCJ9HBW0UCOCUG0MOBAKPH", "current_trial": 204, "dateTime": 1513467597246, "trialdata": {"rt": -1, "stimulus": "<p id=\"stim\">8</p>", "key_press": -1, "trial_type": "single-stim", "trial_index": 204, "time_elapsed": 1140729, "internal_node_id": "0.0-148.0-2.0"}}, {"uniqueid": "MTK1240:3COPXFW7XCJ9HBW0UCOCUG0MOBAKPH", "current_trial": 205, "dateTime": 1513467598247, "trialdata": {"rt": -1, "stimulus": "<p id=\"stim\">7</p>", "key_press": -1, "trial_type": "single-stim", "trial_index": 205, "time_elapsed": 1141730, "internal_node_id": "0.0-148.0-3.0"}}, {"uniqueid": "MTK1240:3COPXFW7XCJ9HBW0UCOCUG0MOBAKPH", "current_trial": 206, "dateTime": 1513467599249, "trialdata": {"rt": -1, "stimulus": "<p id=\"stim\">6</p>", "key_press": -1, "trial_type": "single-stim", "trial_index": 206, "time_elapsed": 1142732, "internal_node_id": "0.0-148.0-4.0"}}, {"uniqueid": "MTK1240:3COPXFW7XCJ9HBW0UCOCUG0MOBAKPH", "current_trial": 207, "dateTime": 1513467600250, "trialdata": {"rt": -1, "stimulus": "<p id=\"stim\">5</p>", "key_press": -1, "trial_type": "single-stim", "trial_index": 207, "time_elapsed": 1143733, "internal_node_id": "0.0-148.0-5.0"}}, {"uniqueid": "MTK1240:3COPXFW7XCJ9HBW0UCOCUG0MOBAKPH", "current_trial": 208, "dateTime": 1513467601252, "trialdata": {"rt": -1, "stimulus": "<p id=\"stim\">4</p>", "key_press": -1, "trial_type": "single-stim", "trial_index": 208, "time_elapsed": 1144735, "internal_node_id": "0.0-148.0-6.0"}}, {"uniqueid": "MTK1240:3COPXFW7XCJ9HBW0UCOCUG0MOBAKPH", "current_trial": 209, "dateTime": 1513467602253, "trialdata": {"rt": -1, "stimulus": "<p id=\"stim\">3</p>", "key_press": -1, "trial_type": "single-stim", "trial_index": 209, "time_elapsed": 1145736, "internal_node_id": "0.0-148.0-7.0"}}, {"uniqueid": "MTK1240:3COPXFW7XCJ9HBW0UCOCUG0MOBAKPH", "current_trial": 210, "dateTime": 1513467603255, "trialdata": {"rt": -1, "stimulus": "<p id=\"stim\">2</p>", "key_press": -1, "trial_type": "single-stim", "trial_index": 210, "time_elapsed": 1146737, "internal_node_id": "0.0-148.0-8.0"}}, {"uniqueid": "MTK1240:3COPXFW7XCJ9HBW0UCOCUG0MOBAKPH", "current_trial": 211, "dateTime": 1513467604256, "trialdata": {"rt": -1, "stimulus": "<p id=\"stim\">1</p>", "key_press": -1, "trial_type": "single-stim", "trial_index": 211, "time_elapsed": 1147739, "internal_node_id": "0.0-148.0-9.0"}}, {"uniqueid": "MTK1240:3COPXFW7XCJ9HBW0UCOCUG0MOBAKPH", "current_trial": 212, "dateTime": 1513467605758, "trialdata": {"rt": -1, "stimulus": "<p id=\"stim\">+</p>", "key_press": -1, "type": "FIXATION", "trial_type": "single-stim", "trial_index": 212, "time_elapsed": 1149241, "internal_node_id": "0.0-149.0-0.0"}}, {"uniqueid": "MTK1240:3COPXFW7XCJ9HBW0UCOCUG0MOBAKPH", "current_trial": 213, "dateTime": 1513467607603, "trialdata": {"rt": -1000, "stimulus": "/static/audio/wordpool/STATUE.wav", "key_press": -1, "type": "PRES_AUD", "word": "statue", "wordID": 1373, "conditions": [12, 800, "a", 12000], "trial": 6, "serialpos": 0, "trial_type": "single-audio", "trial_index": 213, "time_elapsed": 1151086, "internal_node_id": "0.0-150.0"}}, {"uniqueid": "MTK1240:3COPXFW7XCJ9HBW0UCOCUG0MOBAKPH", "current_trial": 214, "dateTime": 1513467609328, "trialdata": {"rt": -1000, "stimulus": "/static/audio/wordpool/STOMACH.wav", "key_press": -1, "type": "PRES_AUD", "word": "stomach", "wordID": 1383, "conditions": [12, 800, "a", 12000], "trial": 6, "serialpos": 1, "trial_type": "single-audio", "trial_index": 214, "time_elapsed": 1152811, "internal_node_id": "0.0-151.0"}}, {"uniqueid": "MTK1240:3COPXFW7XCJ9HBW0UCOCUG0MOBAKPH", "current_trial": 215, "dateTime": 1513467611158, "trialdata": {"rt": -1000, "stimulus": "/static/audio/wordpool/CANYON.wav", "key_press": -1, "type": "PRES_AUD", "word": "canyon", "wordID": 234, "conditions": [12, 800, "a", 12000], "trial": 6, "serialpos": 2, "trial_type": "single-audio", "trial_index": 215, "time_elapsed": 1154641, "internal_node_id": "0.0-152.0"}}, {"uniqueid": "MTK1240:3COPXFW7XCJ9HBW0UCOCUG0MOBAKPH", "current_trial": 216, "dateTime": 1513467612799, "trialdata": {"rt": -1000, "stimulus": "/static/audio/wordpool/SHRUB.wav", "key_press": -1, "type": "PRES_AUD", "word": "shrub", "wordID": 1298, "conditions": [12, 800, "a", 12000], "trial": 6, "serialpos": 3, "trial_type": "single-audio", "trial_index": 216, "time_elapsed": 1156282, "internal_node_id": "0.0-153.0"}}, {"uniqueid": "MTK1240:3COPXFW7XCJ9HBW0UCOCUG0MOBAKPH", "current_trial": 217, "dateTime": 1513467614577, "trialdata": {"rt": -1000, "stimulus": "/static/audio/wordpool/SHIRT.wav", "key_press": -1, "type": "PRES_AUD", "word": "shirt", "wordID": 1286, "conditions": [12, 800, "a", 12000], "trial": 6, "serialpos": 4, "trial_type": "single-audio", "trial_index": 217, "time_elapsed": 1158060, "internal_node_id": "0.0-154.0"}}, {"uniqueid": "MTK1240:3COPXFW7XCJ9HBW0UCOCUG0MOBAKPH", "current_trial": 218, "dateTime": 1513467616518, "trialdata": {"rt": -1000, "stimulus": "/static/audio/wordpool/HOSTESS.wav", "key_press": -1, "type": "PRES_AUD", "word": "hostess", "wordID": 722, "conditions": [12, 800, "a", 12000], "trial": 6, "serialpos": 5, "trial_type": "single-audio", "trial_index": 218, "time_elapsed": 1160000, "internal_node_id": "0.0-155.0"}}, {"uniqueid": "MTK1240:3COPXFW7XCJ9HBW0UCOCUG0MOBAKPH", "current_trial": 219, "dateTime": 1513467618419, "trialdata": {"rt": -1000, "stimulus": "/static/audio/wordpool/WAITRESS.wav", "key_press": -1, "type": "PRES_AUD", "word": "waitress", "wordID": 1580, "conditions": [12, 800, "a", 12000], "trial": 6, "serialpos": 6, "trial_type": "single-audio", "trial_index": 219, "time_elapsed": 1161902, "internal_node_id": "0.0-156.0"}}, {"uniqueid": "MTK1240:3COPXFW7XCJ9HBW0UCOCUG0MOBAKPH", "current_trial": 220, "dateTime": 1513467620244, "trialdata": {"rt": -1000, "stimulus": "/static/audio/wordpool/ISLAND.wav", "key_press": -1, "type": "PRES_AUD", "word": "island", "wordID": 744, "conditions": [12, 800, "a", 12000], "trial": 6, "serialpos": 7, "trial_type": "single-audio", "trial_index": 220, "time_elapsed": 1163727, "internal_node_id": "0.0-157.0"}}, {"uniqueid": "MTK1240:3COPXFW7XCJ9HBW0UCOCUG0MOBAKPH", "current_trial": 221, "dateTime": 1513467622037, "trialdata": {"rt": -1000, "stimulus": "/static/audio/wordpool/AIRPLANE.wav", "key_press": -1, "type": "PRES_AUD", "word": "airplane", "wordID": 11, "conditions": [12, 800, "a", 12000], "trial": 6, "serialpos": 8, "trial_type": "single-audio", "trial_index": 221, "time_elapsed": 1165520, "internal_node_id": "0.0-158.0"}}, {"uniqueid": "MTK1240:3COPXFW7XCJ9HBW0UCOCUG0MOBAKPH", "current_trial": 222, "dateTime": 1513467624031, "trialdata": {"rt": -1000, "stimulus": "/static/audio/wordpool/SWIMMER.wav", "key_press": -1, "type": "PRES_AUD", "word": "swimmer", "wordID": 1419, "conditions": [12, 800, "a", 12000], "trial": 6, "serialpos": 9, "trial_type": "single-audio", "trial_index": 222, "time_elapsed": 1167514, "internal_node_id": "0.0-159.0"}}, {"uniqueid": "MTK1240:3COPXFW7XCJ9HBW0UCOCUG0MOBAKPH", "current_trial": 223, "dateTime": 1513467625919, "trialdata": {"rt": -1000, "stimulus": "/static/audio/wordpool/CRUTCH.wav", "key_press": -1, "type": "PRES_AUD", "word": "crutch", "wordID": 416, "conditions": [12, 800, "a", 12000], "trial": 6, "serialpos": 10, "trial_type": "single-audio", "trial_index": 223, "time_elapsed": 1169402, "internal_node_id": "0.0-160.0"}}, {"uniqueid": "MTK1240:3COPXFW7XCJ9HBW0UCOCUG0MOBAKPH", "current_trial": 224, "dateTime": 1513467627559, "trialdata": {"rt": -1000, "stimulus": "/static/audio/wordpool/TOMBSTONE.wav", "key_press": -1, "type": "PRES_AUD", "word": "tombstone", "wordID": 1477, "conditions": [12, 800, "a", 12000], "trial": 6, "serialpos": 11, "trial_type": "single-audio", "trial_index": 224, "time_elapsed": 1171042, "internal_node_id": "0.0-161.0"}}, {"uniqueid": "MTK1240:3COPXFW7XCJ9HBW0UCOCUG0MOBAKPH", "current_trial": 225, "dateTime": 1513467628951, "trialdata": {"rt": -1, "stimulus": "", "key_press": -1, "type": "PRE_RECALL_DELAY", "trial_type": "single-stim", "trial_index": 225, "time_elapsed": 1172433, "internal_node_id": "0.0-162.0-0.0"}}, {"uniqueid": "MTK1240:3COPXFW7XCJ9HBW0UCOCUG0MOBAKPH", "current_trial": 226, "dateTime": 1513467629459, "trialdata": {"rt": -1000, "stimulus": "/static/audio/400Hz.wav", "key_press": -1, "type": "PRE_RECALL_ALERT", "trial_type": "single-audio", "trial_index": 226, "time_elapsed": 1172940, "internal_node_id": "0.0-163.0"}}, {"uniqueid": "MTK1240:3COPXFW7XCJ9HBW0UCOCUG0MOBAKPH", "current_trial": 227, "dateTime": 1513467689468, "trialdata": {"rt": [3039, 4522, 5840, 7309, 9018, 59499], "recwords": ["statue", "stomach", "swimmer", "crutch", "tombstone", "stomach"], "type": "FREE_RECALL", "conditions": [12, 800, "a", 12000], "trial": 6, "trial_type": "free-recall", "trial_index": 227, "time_elapsed": 1232946, "internal_node_id": "0.0-164.0-0.0"}}, {"uniqueid": "MTK1240:3COPXFW7XCJ9HBW0UCOCUG0MOBAKPH", "current_trial": 228, "dateTime": 1513467692404, "trialdata": {"rt": 935, "key_press": 32, "type": "INSTRUCTIONS", "trial_type": "text", "trial_index": 228, "time_elapsed": 1235887, "internal_node_id": "0.0-165.0"}}, {"uniqueid": "MTK1240:3COPXFW7XCJ9HBW0UCOCUG0MOBAKPH", "current_trial": 229, "dateTime": 1513467718408, "trialdata": {"rt": [3614, 6236, 10130, 12816, 18309, 21923], "responses": ["21", "7", "22", "15", "15", "22"], "num1": [9, 4, 7, 2, 5, 9, 3], "num2": [8, 1, 6, 8, 2, 6, 2], "num3": [4, 2, 9, 5, 8, 7, 7], "type": "DISTRACTOR", "conditions": [24, 1600, "v", 24000], "trial": 7, "trial_type": "math-distractor", "trial_index": 229, "time_elapsed": 1261891, "internal_node_id": "0.0-166.0"}}, {"uniqueid": "MTK1240:3COPXFW7XCJ9HBW0UCOCUG0MOBAKPH", "current_trial": 230, "dateTime": 1513467721411, "trialdata": {"rt": -1, "stimulus": "<p id=\"stim\">10</p>", "key_press": -1, "trial_type": "single-stim", "trial_index": 230, "time_elapsed": 1264893, "internal_node_id": "0.0-167.0-0.0"}}, {"uniqueid": "MTK1240:3COPXFW7XCJ9HBW0UCOCUG0MOBAKPH", "current_trial": 231, "dateTime": 1513467722412, "trialdata": {"rt": -1, "stimulus": "<p id=\"stim\">9</p>", "key_press": -1, "trial_type": "single-stim", "trial_index": 231, "time_elapsed": 1265895, "internal_node_id": "0.0-167.0-1.0"}}, {"uniqueid": "MTK1240:3COPXFW7XCJ9HBW0UCOCUG0MOBAKPH", "current_trial": 232, "dateTime": 1513467723414, "trialdata": {"rt": -1, "stimulus": "<p id=\"stim\">8</p>", "key_press": -1, "trial_type": "single-stim", "trial_index": 232, "time_elapsed": 1266897, "internal_node_id": "0.0-167.0-2.0"}}, {"uniqueid": "MTK1240:3COPXFW7XCJ9HBW0UCOCUG0MOBAKPH", "current_trial": 233, "dateTime": 1513467724415, "trialdata": {"rt": -1, "stimulus": "<p id=\"stim\">7</p>", "key_press": -1, "trial_type": "single-stim", "trial_index": 233, "time_elapsed": 1267898, "internal_node_id": "0.0-167.0-3.0"}}, {"uniqueid": "MTK1240:3COPXFW7XCJ9HBW0UCOCUG0MOBAKPH", "current_trial": 234, "dateTime": 1513467725417, "trialdata": {"rt": -1, "stimulus": "<p id=\"stim\">6</p>", "key_press": -1, "trial_type": "single-stim", "trial_index": 234, "time_elapsed": 1268900, "internal_node_id": "0.0-167.0-4.0"}}, {"uniqueid": "MTK1240:3COPXFW7XCJ9HBW0UCOCUG0MOBAKPH", "current_trial": 235, "dateTime": 1513467726418, "trialdata": {"rt": -1, "stimulus": "<p id=\"stim\">5</p>", "key_press": -1, "trial_type": "single-stim", "trial_index": 235, "time_elapsed": 1269901, "internal_node_id": "0.0-167.0-5.0"}}, {"uniqueid": "MTK1240:3COPXFW7XCJ9HBW0UCOCUG0MOBAKPH", "current_trial": 236, "dateTime": 1513467727420, "trialdata": {"rt": -1, "stimulus": "<p id=\"stim\">4</p>", "key_press": -1, "trial_type": "single-stim", "trial_index": 236, "time_elapsed": 1270903, "internal_node_id": "0.0-167.0-6.0"}}, {"uniqueid": "MTK1240:3COPXFW7XCJ9HBW0UCOCUG0MOBAKPH", "current_trial": 237, "dateTime": 1513467728422, "trialdata": {"rt": -1, "stimulus": "<p id=\"stim\">3</p>", "key_press": -1, "trial_type": "single-stim", "trial_index": 237, "time_elapsed": 1271904, "internal_node_id": "0.0-167.0-7.0"}}, {"uniqueid": "MTK1240:3COPXFW7XCJ9HBW0UCOCUG0MOBAKPH", "current_trial": 238, "dateTime": 1513467729423, "trialdata": {"rt": -1, "stimulus": "<p id=\"stim\">2</p>", "key_press": -1, "trial_type": "single-stim", "trial_index": 238, "time_elapsed": 1272906, "internal_node_id": "0.0-167.0-8.0"}}, {"uniqueid": "MTK1240:3COPXFW7XCJ9HBW0UCOCUG0MOBAKPH", "current_trial": 239, "dateTime": 1513467730425, "trialdata": {"rt": -1, "stimulus": "<p id=\"stim\">1</p>", "key_press": -1, "trial_type": "single-stim", "trial_index": 239, "time_elapsed": 1273908, "internal_node_id": "0.0-167.0-9.0"}}, {"uniqueid": "MTK1240:3COPXFW7XCJ9HBW0UCOCUG0MOBAKPH", "current_trial": 240, "dateTime": 1513467731927, "trialdata": {"rt": -1, "stimulus": "<p id=\"stim\">+</p>", "key_press": -1, "type": "FIXATION", "trial_type": "single-stim", "trial_index": 240, "time_elapsed": 1275409, "internal_node_id": "0.0-168.0-0.0"}}, {"uniqueid": "MTK1240:3COPXFW7XCJ9HBW0UCOCUG0MOBAKPH", "current_trial": 241, "dateTime": 1513467733528, "trialdata": {"rt": -1, "stimulus": "<p id=\"stim\">SALAD</p>", "key_press": -1, "type": "PRES_VIS", "word": "salad", "wordID": 1223, "conditions": [24, 1600, "v", 24000], "trial": 7, "serialpos": 0, "trial_type": "single-stim", "trial_index": 241, "time_elapsed": 1277011, "internal_node_id": "0.0-169.0"}}, {"uniqueid": "MTK1240:3COPXFW7XCJ9HBW0UCOCUG0MOBAKPH", "current_trial": 242, "dateTime": 1513467735969, "trialdata": {"rt": -1, "stimulus": "<p id=\"stim\">LETTUCE</p>", "key_press": -1, "type": "PRES_VIS", "word": "lettuce", "wordID": 813, "conditions": [24, 1600, "v", 24000], "trial": 7, "serialpos": 1, "trial_type": "single-stim", "trial_index": 242, "time_elapsed": 1279451, "internal_node_id": "0.0-170.0"}}, {"uniqueid": "MTK1240:3COPXFW7XCJ9HBW0UCOCUG0MOBAKPH", "current_trial": 243, "dateTime": 1513467738444, "trialdata": {"rt": -1, "stimulus": "<p id=\"stim\">CLOCK</p>", "key_press": -1, "type": "PRES_VIS", "word": "clock", "wordID": 324, "conditions": [24, 1600, "v", 24000], "trial": 7, "serialpos": 2, "trial_type": "single-stim", "trial_index": 243, "time_elapsed": 1281927, "internal_node_id": "0.0-171.0"}}, {"uniqueid": "MTK1240:3COPXFW7XCJ9HBW0UCOCUG0MOBAKPH", "current_trial": 244, "dateTime": 1513467741055, "trialdata": {"rt": -1, "stimulus": "<p id=\"stim\">GOBLIN</p>", "key_press": -1, "type": "PRES_VIS", "word": "goblin", "wordID": 644, "conditions": [24, 1600, "v", 24000], "trial": 7, "serialpos": 3, "trial_type": "single-stim", "trial_index": 244, "time_elapsed": 1284538, "internal_node_id": "0.0-172.0"}}, {"uniqueid": "MTK1240:3COPXFW7XCJ9HBW0UCOCUG0MOBAKPH", "current_trial": 245, "dateTime": 1513467743852, "trialdata": {"rt": -1, "stimulus": "<p id=\"stim\">KLEENEX</p>", "key_press": -1, "type": "PRES_VIS", "word": "kleenex", "wordID": 781, "conditions": [24, 1600, "v", 24000], "trial": 7, "serialpos": 4, "trial_type": "single-stim", "trial_index": 245, "time_elapsed": 1287334, "internal_node_id": "0.0-173.0"}}, {"uniqueid": "MTK1240:3COPXFW7XCJ9HBW0UCOCUG0MOBAKPH", "current_trial": 246, "dateTime": 1513467746367, "trialdata": {"rt": -1, "stimulus": "<p id=\"stim\">HEART</p>", "key_press": -1, "type": "PRES_VIS", "word": "heart", "wordID": 696, "conditions": [24, 1600, "v", 24000], "trial": 7, "serialpos": 5, "trial_type": "single-stim", "trial_index": 246, "time_elapsed": 1289850, "internal_node_id": "0.0-174.0"}}, {"uniqueid": "MTK1240:3COPXFW7XCJ9HBW0UCOCUG0MOBAKPH", "current_trial": 247, "dateTime": 1513467748940, "trialdata": {"rt": -1, "stimulus": "<p id=\"stim\">BACON</p>", "key_press": -1, "type": "PRES_VIS", "word": "bacon", "wordID": 66, "conditions": [24, 1600, "v", 24000], "trial": 7, "serialpos": 6, "trial_type": "single-stim", "trial_index": 247, "time_elapsed": 1292423, "internal_node_id": "0.0-175.0"}}, {"uniqueid": "MTK1240:3COPXFW7XCJ9HBW0UCOCUG0MOBAKPH", "current_trial": 248, "dateTime": 1513467751682, "trialdata": {"rt": -1, "stimulus": "<p id=\"stim\">GARLIC</p>", "key_press": -1, "type": "PRES_VIS", "word": "garlic", "wordID": 623, "conditions": [24, 1600, "v", 24000], "trial": 7, "serialpos": 7, "trial_type": "single-stim", "trial_index": 248, "time_elapsed": 1295165, "internal_node_id": "0.0-176.0"}}, {"uniqueid": "MTK1240:3COPXFW7XCJ9HBW0UCOCUG0MOBAKPH", "current_trial": 249, "dateTime": 1513467754133, "trialdata": {"rt": -1, "stimulus": "<p id=\"stim\">BUCKET</p>", "key_press": -1, "type": "PRES_VIS", "word": "bucket", "wordID": 183, "conditions": [24, 1600, "v", 24000], "trial": 7, "serialpos": 8, "trial_type": "single-stim", "trial_index": 249, "time_elapsed": 1297616, "internal_node_id": "0.0-177.0"}}, {"uniqueid": "MTK1240:3COPXFW7XCJ9HBW0UCOCUG0MOBAKPH", "current_trial": 250, "dateTime": 1513467756707, "trialdata": {"rt": -1, "stimulus": "<p id=\"stim\">CUSTARD</p>", "key_press": -1, "type": "PRES_VIS", "word": "custard", "wordID": 428, "conditions": [24, 1600, "v", 24000], "trial": 7, "serialpos": 9, "trial_type": "single-stim", "trial_index": 250, "time_elapsed": 1300190, "internal_node_id": "0.0-178.0"}}, {"uniqueid": "MTK1240:3COPXFW7XCJ9HBW0UCOCUG0MOBAKPH", "current_trial": 251, "dateTime": 1513467759346, "trialdata": {"rt": -1, "stimulus": "<p id=\"stim\">PALACE</p>", "key_press": -1, "type": "PRES_VIS", "word": "palace", "wordID": 1005, "conditions": [24, 1600, "v", 24000], "trial": 7, "serialpos": 10, "trial_type": "single-stim", "trial_index": 251, "time_elapsed": 1302829, "internal_node_id": "0.0-179.0"}}, {"uniqueid": "MTK1240:3COPXFW7XCJ9HBW0UCOCUG0MOBAKPH", "current_trial": 252, "dateTime": 1513467762098, "trialdata": {"rt": -1, "stimulus": "<p id=\"stim\">PEPPER</p>", "key_press": -1, "type": "PRES_VIS", "word": "pepper", "wordID": 1046, "conditions": [24, 1600, "v", 24000], "trial": 7, "serialpos": 11, "trial_type": "single-stim", "trial_index": 252, "time_elapsed": 1305581, "internal_node_id": "0.0-180.0"}}, {"uniqueid": "MTK1240:3COPXFW7XCJ9HBW0UCOCUG0MOBAKPH", "current_trial": 253, "dateTime": 1513467764892, "trialdata": {"rt": -1, "stimulus": "<p id=\"stim\">SUSPECT</p>", "key_press": -1, "type": "PRES_VIS", "word": "suspect", "wordID": 1414, "conditions": [24, 1600, "v", 24000], "trial": 7, "serialpos": 12, "trial_type": "single-stim", "trial_index": 253, "time_elapsed": 1308374, "internal_node_id": "0.0-181.0"}}, {"uniqueid": "MTK1240:3COPXFW7XCJ9HBW0UCOCUG0MOBAKPH", "current_trial": 254, "dateTime": 1513467767679, "trialdata": {"rt": -1, "stimulus": "<p id=\"stim\">ROOSTER</p>", "key_press": -1, "type": "PRES_VIS", "word": "rooster", "wordID": 1208, "conditions": [24, 1600, "v", 24000], "trial": 7, "serialpos": 13, "trial_type": "single-stim", "trial_index": 254, "time_elapsed": 1311162, "internal_node_id": "0.0-182.0"}}, {"uniqueid": "MTK1240:3COPXFW7XCJ9HBW0UCOCUG0MOBAKPH", "current_trial": 255, "dateTime": 1513467770250, "trialdata": {"rt": -1, "stimulus": "<p id=\"stim\">COUCH</p>", "key_press": -1, "type": "PRES_VIS", "word": "couch", "wordID": 385, "conditions": [24, 1600, "v", 24000], "trial": 7, "serialpos": 14, "trial_type": "single-stim", "trial_index": 255, "time_elapsed": 1313733, "internal_node_id": "0.0-183.0"}}, {"uniqueid": "MTK1240:3COPXFW7XCJ9HBW0UCOCUG0MOBAKPH", "current_trial": 256, "dateTime": 1513467772792, "trialdata": {"rt": -1, "stimulus": "<p id=\"stim\">EUROPE</p>", "key_press": -1, "type": "PRES_VIS", "word": "europe", "wordID": 540, "conditions": [24, 1600, "v", 24000], "trial": 7, "serialpos": 15, "trial_type": "single-stim", "trial_index": 256, "time_elapsed": 1316275, "internal_node_id": "0.0-184.0"}}, {"uniqueid": "MTK1240:3COPXFW7XCJ9HBW0UCOCUG0MOBAKPH", "current_trial": 257, "dateTime": 1513467775283, "trialdata": {"rt": -1, "stimulus": "<p id=\"stim\">LONDON</p>", "key_press": -1, "type": "PRES_VIS", "word": "london", "wordID": 842, "conditions": [24, 1600, "v", 24000], "trial": 7, "serialpos": 16, "trial_type": "single-stim", "trial_index": 257, "time_elapsed": 1318766, "internal_node_id": "0.0-185.0"}}, {"uniqueid": "MTK1240:3COPXFW7XCJ9HBW0UCOCUG0MOBAKPH", "current_trial": 258, "dateTime": 1513467777715, "trialdata": {"rt": -1, "stimulus": "<p id=\"stim\">LOVER</p>", "key_press": -1, "type": "PRES_VIS", "word": "lover", "wordID": 845, "conditions": [24, 1600, "v", 24000], "trial": 7, "serialpos": 17, "trial_type": "single-stim", "trial_index": 258, "time_elapsed": 1321198, "internal_node_id": "0.0-186.0"}}, {"uniqueid": "MTK1240:3COPXFW7XCJ9HBW0UCOCUG0MOBAKPH", "current_trial": 259, "dateTime": 1513467780168, "trialdata": {"rt": -1, "stimulus": "<p id=\"stim\">KETCHUP</p>", "key_press": -1, "type": "PRES_VIS", "word": "ketchup", "wordID": 770, "conditions": [24, 1600, "v", 24000], "trial": 7, "serialpos": 18, "trial_type": "single-stim", "trial_index": 259, "time_elapsed": 1323650, "internal_node_id": "0.0-187.0"}}, {"uniqueid": "MTK1240:3COPXFW7XCJ9HBW0UCOCUG0MOBAKPH", "current_trial": 260, "dateTime": 1513467782755, "trialdata": {"rt": -1, "stimulus": "<p id=\"stim\">BEEF</p>", "key_press": -1, "type": "PRES_VIS", "word": "beef", "wordID": 112, "conditions": [24, 1600, "v", 24000], "trial": 7, "serialpos": 19, "trial_type": "single-stim", "trial_index": 260, "time_elapsed": 1326238, "internal_node_id": "0.0-188.0"}}, {"uniqueid": "MTK1240:3COPXFW7XCJ9HBW0UCOCUG0MOBAKPH", "current_trial": 261, "dateTime": 1513467785159, "trialdata": {"rt": -1, "stimulus": "<p id=\"stim\">BELLY</p>", "key_press": -1, "type": "PRES_VIS", "word": "belly", "wordID": 118, "conditions": [24, 1600, "v", 24000], "trial": 7, "serialpos": 20, "trial_type": "single-stim", "trial_index": 261, "time_elapsed": 1328642, "internal_node_id": "0.0-189.0"}}, {"uniqueid": "MTK1240:3COPXFW7XCJ9HBW0UCOCUG0MOBAKPH", "current_trial": 262, "dateTime": 1513467787814, "trialdata": {"rt": -1, "stimulus": "<p id=\"stim\">MATTRESS</p>", "key_press": -1, "type": "PRES_VIS", "word": "mattress", "wordID": 878, "conditions": [24, 1600, "v", 24000], "trial": 7, "serialpos": 21, "trial_type": "single-stim", "trial_index": 262, "time_elapsed": 1331296, "internal_node_id": "0.0-190.0"}}, {"uniqueid": "MTK1240:3COPXFW7XCJ9HBW0UCOCUG0MOBAKPH", "current_trial": 263, "dateTime": 1513467790237, "trialdata": {"rt": -1, "stimulus": "<p id=\"stim\">NECKLACE</p>", "key_press": -1, "type": "PRES_VIS", "word": "necklace", "wordID": 939, "conditions": [24, 1600, "v", 24000], "trial": 7, "serialpos": 22, "trial_type": "single-stim", "trial_index": 263, "time_elapsed": 1333720, "internal_node_id": "0.0-191.0"}}, {"uniqueid": "MTK1240:3COPXFW7XCJ9HBW0UCOCUG0MOBAKPH", "current_trial": 264, "dateTime": 1513467793038, "trialdata": {"rt": -1, "stimulus": "<p id=\"stim\">CONCERT</p>", "key_press": -1, "type": "PRES_VIS", "word": "concert", "wordID": 359, "conditions": [24, 1600, "v", 24000], "trial": 7, "serialpos": 23, "trial_type": "single-stim", "trial_index": 264, "time_elapsed": 1336521, "internal_node_id": "0.0-192.0"}}, {"uniqueid": "MTK1240:3COPXFW7XCJ9HBW0UCOCUG0MOBAKPH", "current_trial": 265, "dateTime": 1513467795486, "trialdata": {"rt": -1, "stimulus": "", "key_press": -1, "type": "PRE_RECALL_DELAY", "trial_type": "single-stim", "trial_index": 265, "time_elapsed": 1338969, "internal_node_id": "0.0-193.0-0.0"}}, {"uniqueid": "MTK1240:3COPXFW7XCJ9HBW0UCOCUG0MOBAKPH", "current_trial": 266, "dateTime": 1513467795987, "trialdata": {"rt": -1000, "stimulus": "/static/audio/400Hz.wav", "key_press": -1, "type": "PRE_RECALL_ALERT", "trial_type": "single-audio", "trial_index": 266, "time_elapsed": 1339470, "internal_node_id": "0.0-194.0"}}, {"uniqueid": "MTK1240:3COPXFW7XCJ9HBW0UCOCUG0MOBAKPH", "current_trial": 267, "dateTime": 1513467855997, "trialdata": {"rt": [5604, 9192, 10215, 11402, 16149], "recwords": ["mattress", "necklace", "beef", "salad", "lettuce"], "type": "FREE_RECALL", "conditions": [24, 1600, "v", 24000], "trial": 7, "trial_type": "free-recall", "trial_index": 267, "time_elapsed": 1399474, "internal_node_id": "0.0-195.0-0.0"}}, {"uniqueid": "MTK1240:3COPXFW7XCJ9HBW0UCOCUG0MOBAKPH", "current_trial": 268, "dateTime": 1513467859070, "trialdata": {"rt": 1072, "key_press": 32, "type": "INSTRUCTIONS", "trial_type": "text", "trial_index": 268, "time_elapsed": 1402553, "internal_node_id": "0.0-196.0"}}, {"uniqueid": "MTK1240:3COPXFW7XCJ9HBW0UCOCUG0MOBAKPH", "current_trial": 269, "dateTime": 1513467885074, "trialdata": {"rt": [2277, 5039, 7179, 9048, 10923, 13564, 15419, 17278, 19704, 21704, 23277], "responses": ["7", "16", "8", "12", "13", "21", "14", "19", "12", "17", "15"], "num1": [1, 5, 4, 6, 3, 4, 3, 2, 2, 7, 8, 7], "num2": [2, 8, 2, 4, 5, 8, 8, 8, 4, 9, 6, 4], "num3": [4, 3, 2, 2, 5, 9, 3, 9, 6, 1, 1, 4], "type": "DISTRACTOR", "conditions": [12, 1600, "a", 24000], "trial": 8, "trial_type": "math-distractor", "trial_index": 269, "time_elapsed": 1428557, "internal_node_id": "0.0-197.0"}}, {"uniqueid": "MTK1240:3COPXFW7XCJ9HBW0UCOCUG0MOBAKPH", "current_trial": 270, "dateTime": 1513467888076, "trialdata": {"rt": -1, "stimulus": "<p id=\"stim\">10</p>", "key_press": -1, "trial_type": "single-stim", "trial_index": 270, "time_elapsed": 1431558, "internal_node_id": "0.0-198.0-0.0"}}, {"uniqueid": "MTK1240:3COPXFW7XCJ9HBW0UCOCUG0MOBAKPH", "current_trial": 271, "dateTime": 1513467889078, "trialdata": {"rt": -1, "stimulus": "<p id=\"stim\">9</p>", "key_press": -1, "trial_type": "single-stim", "trial_index": 271, "time_elapsed": 1432560, "internal_node_id": "0.0-198.0-1.0"}}, {"uniqueid": "MTK1240:3COPXFW7XCJ9HBW0UCOCUG0MOBAKPH", "current_trial": 272, "dateTime": 1513467890080, "trialdata": {"rt": -1, "stimulus": "<p id=\"stim\">8</p>", "key_press": -1, "trial_type": "single-stim", "trial_index": 272, "time_elapsed": 1433562, "internal_node_id": "0.0-198.0-2.0"}}, {"uniqueid": "MTK1240:3COPXFW7XCJ9HBW0UCOCUG0MOBAKPH", "current_trial": 273, "dateTime": 1513467891081, "trialdata": {"rt": -1, "stimulus": "<p id=\"stim\">7</p>", "key_press": -1, "trial_type": "single-stim", "trial_index": 273, "time_elapsed": 1434564, "internal_node_id": "0.0-198.0-3.0"}}, {"uniqueid": "MTK1240:3COPXFW7XCJ9HBW0UCOCUG0MOBAKPH", "current_trial": 274, "dateTime": 1513467892084, "tria