{"assignmentId": "3I02618YA1DNK71COQSE039KUNLUPB", "workerId": "MTK1840", "questiondata": {"origin": "United States", "strat-rehearsal": "75", "marital": "Single", "education": "Some graduate education", "ethnicity": "Not Hispanic", "color_depth": 24, "distracted": "No", "wrote-notes": "No", "strat-other": "", "screen_width": 1366, "avail_screen_width": 1366, "avail_screen_height": 728, "strat-image": "0", "language": "English", "gender": "Female", "age": "32", "gender_other": "", "race": ["White"], "strat-categorize": "60", "pixel_depth": 24, "strat-spatial": "0", "strat-story": "0", "race_other": "", "screen_height": 768}, "bonus": 0, "hitId": "31ANT7FQN89CZRFFEA7ZUYJTRBHH59", "counterbalance": 2020, "useragent": "Mozilla/5.0 (Windows NT 10.0; Win64; x64) AppleWebKit/537.36 (KHTML, like Gecko) Chrome/63.0.3239.132 Safari/537.36", "eventdata": [{"eventtype": "initialized", "interval": 0, "value": null, "timestamp": 1516477312110}, {"eventtype": "window_resize", "interval": 0, "value": [1366, 637], "timestamp": 1516477312110}, {"eventtype": "focus", "interval": 1213912, "value": "off", "timestamp": 1516478526022}, {"eventtype": "focus", "interval": 5247, "value": "on", "timestamp": 1516478531269}, {"eventtype": "focus", "interval": 708992, "value": "off", "timestamp": 1516479240261}, {"eventtype": "focus", "interval": 1388, "value": "on", "timestamp": 1516479241649}, {"eventtype": "focus", "interval": 669599, "value": "off", "timestamp": 1516479911248}, {"eventtype": "focus", "interval": 11973, "value": "on", "timestamp": 1516479923221}, {"eventtype": "focus", "interval": 3103, "value": "off", "timestamp": 1516479926324}, {"eventtype": "focus", "interval": 4928, "value": "on", "timestamp": 1516479931252}, {"eventtype": "focus", "interval": 443382, "value": "off", "timestamp": 1516480374634}, {"eventtype": "focus", "interval": 1485, "value": "on", "timestamp": 1516480376119}, {"eventtype": "focus", "interval": 2159, "value": "off", "timestamp": 1516480378278}, {"eventtype": "focus", "interval": 4714, "value": "on", "timestamp": 1516480382992}], "data": [{"current_trial": 0, "trialdata": {"rt": 1911, "trial_type": "text", "internal_node_id": "0.0-0.0", "time_elapsed": 1919, "key_press": 32, "type": "INSTRUCTIONS", "trial_index": 0}, "uniqueid": "MTK1840:3I02618YA1DNK71COQSE039KUNLUPB", "dateTime": 1516477314454}, {"current_trial": 1, "trialdata": {"rt": 16540, "trial_type": "text", "internal_node_id": "0.0-1.0", "time_elapsed": 18464, "key_press": 32, "type": "INSTRUCTIONS", "trial_index": 1}, "uniqueid": "MTK1840:3I02618YA1DNK71COQSE039KUNLUPB", "dateTime": 1516477330998}, {"current_trial": 2, "trialdata": {"rt": [12299], "trial_type": "audio-test", "responses": ["ocean"], "internal_node_id": "0.0-2.0", "time_elapsed": 30791, "type": "AUDIO_TEST", "trial_index": 2}, "uniqueid": "MTK1840:3I02618YA1DNK71COQSE039KUNLUPB", "dateTime": 1516477343324}, {"current_trial": 3, "trialdata": {"rt": [4794], "trial_type": "audio-test", "responses": ["crystal"], "internal_node_id": "0.0-3.0", "time_elapsed": 35588, "type": "AUDIO_TEST", "trial_index": 3}, "uniqueid": "MTK1840:3I02618YA1DNK71COQSE039KUNLUPB", "dateTime": 1516477348122}, {"current_trial": 4, "trialdata": {"rt": [10651], "trial_type": "audio-test", "responses": ["spice"], "internal_node_id": "0.0-4.0", "time_elapsed": 46243, "type": "AUDIO_TEST", "trial_index": 4}, "uniqueid": "MTK1840:3I02618YA1DNK71COQSE039KUNLUPB", "dateTime": 1516477358776}, {"current_trial": 5, "trialdata": {"rt": 19102, "trial_type": "survey-text", "responses": "{\"Q0\":\"12:30\",\"Q1\":\"9:30\",\"Q2\":\"5\"}", "internal_node_id": "0.0-5.0", "time_elapsed": 66102, "type": "SLEEP_SURVEY", "trial_index": 5}, "uniqueid": "MTK1840:3I02618YA1DNK71COQSE039KUNLUPB", "dateTime": 1516477378635}, {"current_trial": 6, "trialdata": {"rt": 27985, "trial_type": "text", "internal_node_id": "0.0-6.0", "time_elapsed": 95090, "key_press": 32, "type": "INSTRUCTIONS", "trial_index": 6}, "uniqueid": "MTK1840:3I02618YA1DNK71COQSE039KUNLUPB", "dateTime": 1516477407623}, {"current_trial": 7, "trialdata": {"rt": 12072, "trial_type": "text", "internal_node_id": "0.0-7.0", "time_elapsed": 107666, "key_press": 32, "type": "INSTRUCTIONS", "trial_index": 7}, "uniqueid": "MTK1840:3I02618YA1DNK71COQSE039KUNLUPB", "dateTime": 1516477420199}, {"current_trial": 8, "trialdata": {"rt": 15495, "trial_type": "text", "internal_node_id": "0.0-8.0", "time_elapsed": 123662, "key_press": 32, "type": "INSTRUCTIONS", "trial_index": 8}, "uniqueid": "MTK1840:3I02618YA1DNK71COQSE039KUNLUPB", "dateTime": 1516477436196}, {"current_trial": 9, "trialdata": {"rt": [3673, 5869, 8354, 10313, 12480, 14078], "trial_type": "math-distractor", "key_times": [2761, 2901, 3673, 5372, 5869, 8046, 8354, 9867, 10012, 10313, 12036, 12338, 12480, 13593, 13907, 14078], "responses": ["11", "8", "8", "19", "16", "16"], "num2": [7, 5, 2, 4, 5, 1, 8], "num3": [2, 2, 2, 9, 5, 8, 7], "conditions": [18, 1200, "v", 18000], "internal_node_id": "0.0-9.0", "key_presses": [49, 49, 13, 56, 13, 56, 13, 49, 57, 13, 49, 54, 13, 49, 54, 13], "trial": 0, "time_elapsed": 142677, "type": "DISTRACTOR", "trial_index": 9, "num1": [2, 1, 4, 6, 6, 7, 9]}, "uniqueid": "MTK1840:3I02618YA1DNK71COQSE039KUNLUPB", "dateTime": 1516477455210}, {"current_trial": 10, "trialdata": {"rt": -1, "trial_type": "single-stim", "stimulus": "<p id=\"stim\">10</p>", "internal_node_id": "0.0-10.0-0.0", "time_elapsed": 145681, "key_press": -1, "trial_index": 10}, "uniqueid": "MTK1840:3I02618YA1DNK71COQSE039KUNLUPB", "dateTime": 1516477458215}, {"current_trial": 11, "trialdata": {"rt": -1, "trial_type": "single-stim", "stimulus": "<p id=\"stim\">9</p>", "internal_node_id": "0.0-10.0-1.0", "time_elapsed": 146687, "key_press": -1, "trial_index": 11}, "uniqueid": "MTK1840:3I02618YA1DNK71COQSE039KUNLUPB", "dateTime": 1516477459220}, {"current_trial": 12, "trialdata": {"rt": -1, "trial_type": "single-stim", "stimulus": "<p id=\"stim\">8</p>", "internal_node_id": "0.0-10.0-2.0", "time_elapsed": 147692, "key_press": -1, "trial_index": 12}, "uniqueid": "MTK1840:3I02618YA1DNK71COQSE039KUNLUPB", "dateTime": 1516477460225}, {"current_trial": 13, "trialdata": {"rt": -1, "trial_type": "single-stim", "stimulus": "<p id=\"stim\">7</p>", "internal_node_id": "0.0-10.0-3.0", "time_elapsed": 148695, "key_press": -1, "trial_index": 13}, "uniqueid": "MTK1840:3I02618YA1DNK71COQSE039KUNLUPB", "dateTime": 1516477461228}, {"current_trial": 14, "trialdata": {"rt": -1, "trial_type": "single-stim", "stimulus": "<p id=\"stim\">6</p>", "internal_node_id": "0.0-10.0-4.0", "time_elapsed": 149700, "key_press": -1, "trial_index": 14}, "uniqueid": "MTK1840:3I02618YA1DNK71COQSE039KUNLUPB", "dateTime": 1516477462233}, {"current_trial": 15, "trialdata": {"rt": -1, "trial_type": "single-stim", "stimulus": "<p id=\"stim\">5</p>", "internal_node_id": "0.0-10.0-5.0", "time_elapsed": 150702, "key_press": -1, "trial_index": 15}, "uniqueid": "MTK1840:3I02618YA1DNK71COQSE039KUNLUPB", "dateTime": 1516477463235}, {"current_trial": 16, "trialdata": {"rt": -1, "trial_type": "single-stim", "stimulus": "<p id=\"stim\">4</p>", "internal_node_id": "0.0-10.0-6.0", "time_elapsed": 151705, "key_press": -1, "trial_index": 16}, "uniqueid": "MTK1840:3I02618YA1DNK71COQSE039KUNLUPB", "dateTime": 1516477464238}, {"current_trial": 17, "trialdata": {"rt": -1, "trial_type": "single-stim", "stimulus": "<p id=\"stim\">3</p>", "internal_node_id": "0.0-10.0-7.0", "time_elapsed": 152710, "key_press": -1, "trial_index": 17}, "uniqueid": "MTK1840:3I02618YA1DNK71COQSE039KUNLUPB", "dateTime": 1516477465243}, {"current_trial": 18, "trialdata": {"rt": -1, "trial_type": "single-stim", "stimulus": "<p id=\"stim\">2</p>", "internal_node_id": "0.0-10.0-8.0", "time_elapsed": 153715, "key_press": -1, "trial_index": 18}, "uniqueid": "MTK1840:3I02618YA1DNK71COQSE039KUNLUPB", "dateTime": 1516477466248}, {"current_trial": 19, "trialdata": {"rt": -1, "trial_type": "single-stim", "stimulus": "<p id=\"stim\">1</p>", "internal_node_id": "0.0-10.0-9.0", "time_elapsed": 154718, "key_press": -1, "trial_index": 19}, "uniqueid": "MTK1840:3I02618YA1DNK71COQSE039KUNLUPB", "dateTime": 1516477467251}, {"current_trial": 20, "trialdata": {"rt": -1, "trial_type": "single-stim", "stimulus": "<p id=\"stim\">+</p>", "internal_node_id": "0.0-11.0-0.0", "time_elapsed": 156222, "key_press": -1, "type": "FIXATION", "trial_index": 20}, "uniqueid": "MTK1840:3I02618YA1DNK71COQSE039KUNLUPB", "dateTime": 1516477468755}, {"current_trial": 21, "trialdata": {"rt": -1, "trial_type": "single-stim", "word": "sunset", "stimulus": "<p id=\"stim\">SUNSET</p>", "conditions": [18, 1200, "v", 18000], "internal_node_id": "0.0-12.0", "trial": 0, "time_elapsed": 157427, "serialpos": 0, "key_press": -1, "wordID": 1407, "type": "PRES_VIS", "trial_index": 21}, "uniqueid": "MTK1840:3I02618YA1DNK71COQSE039KUNLUPB", "dateTime": 1516477469961}, {"current_trial": 22, "trialdata": {"rt": -1, "trial_type": "single-stim", "word": "donor", "stimulus": "<p id=\"stim\">DONOR</p>", "conditions": [18, 1200, "v", 18000], "internal_node_id": "0.0-13.0", "trial": 0, "time_elapsed": 159458, "serialpos": 1, "key_press": -1, "wordID": 484, "type": "PRES_VIS", "trial_index": 22}, "uniqueid": "MTK1840:3I02618YA1DNK71COQSE039KUNLUPB", "dateTime": 1516477471991}, {"current_trial": 23, "trialdata": {"rt": -1, "trial_type": "single-stim", "word": "vagrant", "stimulus": "<p id=\"stim\">VAGRANT</p>", "conditions": [18, 1200, "v", 18000], "internal_node_id": "0.0-14.0", "trial": 0, "time_elapsed": 161757, "serialpos": 2, "key_press": -1, "wordID": 1543, "type": "PRES_VIS", "trial_index": 23}, "uniqueid": "MTK1840:3I02618YA1DNK71COQSE039KUNLUPB", "dateTime": 1516477474290}, {"current_trial": 24, "trialdata": {"rt": -1, "trial_type": "single-stim", "word": "snail", "stimulus": "<p id=\"stim\">SNAIL</p>", "conditions": [18, 1200, "v", 18000], "internal_node_id": "0.0-15.0", "trial": 0, "time_elapsed": 163789, "serialpos": 3, "key_press": -1, "wordID": 1331, "type": "PRES_VIS", "trial_index": 24}, "uniqueid": "MTK1840:3I02618YA1DNK71COQSE039KUNLUPB", "dateTime": 1516477476322}, {"current_trial": 25, "trialdata": {"rt": -1, "trial_type": "single-stim", "word": "server", "stimulus": "<p id=\"stim\">SERVER</p>", "conditions": [18, 1200, "v", 18000], "internal_node_id": "0.0-16.0", "trial": 0, "time_elapsed": 165819, "serialpos": 4, "key_press": -1, "wordID": 1271, "type": "PRES_VIS", "trial_index": 25}, "uniqueid": "MTK1840:3I02618YA1DNK71COQSE039KUNLUPB", "dateTime": 1516477478353}, {"current_trial": 26, "trialdata": {"rt": -1, "trial_type": "single-stim", "word": "outdoors", "stimulus": "<p id=\"stim\">OUTDOORS</p>", "conditions": [18, 1200, "v", 18000], "internal_node_id": "0.0-17.0", "trial": 0, "time_elapsed": 167869, "serialpos": 5, "key_press": -1, "wordID": 986, "type": "PRES_VIS", "trial_index": 26}, "uniqueid": "MTK1840:3I02618YA1DNK71COQSE039KUNLUPB", "dateTime": 1516477480402}, {"current_trial": 27, "trialdata": {"rt": -1, "trial_type": "single-stim", "word": "brandy", "stimulus": "<p id=\"stim\">BRANDY</p>", "conditions": [18, 1200, "v", 18000], "internal_node_id": "0.0-18.0", "trial": 0, "time_elapsed": 170025, "serialpos": 6, "key_press": -1, "wordID": 168, "type": "PRES_VIS", "trial_index": 27}, "uniqueid": "MTK1840:3I02618YA1DNK71COQSE039KUNLUPB", "dateTime": 1516477482558}, {"current_trial": 28, "trialdata": {"rt": -1, "trial_type": "single-stim", "word": "beaker", "stimulus": "<p id=\"stim\">BEAKER</p>", "conditions": [18, 1200, "v", 18000], "internal_node_id": "0.0-19.0", "trial": 0, "time_elapsed": 172316, "serialpos": 7, "key_press": -1, "wordID": 103, "type": "PRES_VIS", "trial_index": 28}, "uniqueid": "MTK1840:3I02618YA1DNK71COQSE039KUNLUPB", "dateTime": 1516477484849}, {"current_trial": 29, "trialdata": {"rt": -1, "trial_type": "single-stim", "word": "frame", "stimulus": "<p id=\"stim\">FRAME</p>", "conditions": [18, 1200, "v", 18000], "internal_node_id": "0.0-20.0", "trial": 0, "time_elapsed": 174714, "serialpos": 8, "key_press": -1, "wordID": 599, "type": "PRES_VIS", "trial_index": 29}, "uniqueid": "MTK1840:3I02618YA1DNK71COQSE039KUNLUPB", "dateTime": 1516477487248}, {"current_trial": 30, "trialdata": {"rt": -1, "trial_type": "single-stim", "word": "donkey", "stimulus": "<p id=\"stim\">DONKEY</p>", "conditions": [18, 1200, "v", 18000], "internal_node_id": "0.0-21.0", "trial": 0, "time_elapsed": 177029, "serialpos": 9, "key_press": -1, "wordID": 483, "type": "PRES_VIS", "trial_index": 30}, "uniqueid": "MTK1840:3I02618YA1DNK71COQSE039KUNLUPB", "dateTime": 1516477489562}, {"current_trial": 31, "trialdata": {"rt": -1, "trial_type": "single-stim", "word": "carriage", "stimulus": "<p id=\"stim\">CARRIAGE</p>", "conditions": [18, 1200, "v", 18000], "internal_node_id": "0.0-22.0", "trial": 0, "time_elapsed": 179067, "serialpos": 10, "key_press": -1, "wordID": 247, "type": "PRES_VIS", "trial_index": 31}, "uniqueid": "MTK1840:3I02618YA1DNK71COQSE039KUNLUPB", "dateTime": 1516477491600}, {"current_trial": 32, "trialdata": {"rt": -1, "trial_type": "single-stim", "word": "grape", "stimulus": "<p id=\"stim\">GRAPE</p>", "conditions": [18, 1200, "v", 18000], "internal_node_id": "0.0-23.0", "trial": 0, "time_elapsed": 181089, "serialpos": 11, "key_press": -1, "wordID": 653, "type": "PRES_VIS", "trial_index": 32}, "uniqueid": "MTK1840:3I02618YA1DNK71COQSE039KUNLUPB", "dateTime": 1516477493622}, {"current_trial": 33, "trialdata": {"rt": -1, "trial_type": "single-stim", "word": "eyelash", "stimulus": "<p id=\"stim\">EYELASH</p>", "conditions": [18, 1200, "v", 18000], "internal_node_id": "0.0-24.0", "trial": 0, "time_elapsed": 183233, "serialpos": 12, "key_press": -1, "wordID": 545, "type": "PRES_VIS", "trial_index": 33}, "uniqueid": "MTK1840:3I02618YA1DNK71COQSE039KUNLUPB", "dateTime": 1516477495766}, {"current_trial": 34, "trialdata": {"rt": -1, "trial_type": "single-stim", "word": "proton", "stimulus": "<p id=\"stim\">PROTON</p>", "conditions": [18, 1200, "v", 18000], "internal_node_id": "0.0-25.0", "trial": 0, "time_elapsed": 185305, "serialpos": 13, "key_press": -1, "wordID": 1131, "type": "PRES_VIS", "trial_index": 34}, "uniqueid": "MTK1840:3I02618YA1DNK71COQSE039KUNLUPB", "dateTime": 1516477497838}, {"current_trial": 35, "trialdata": {"rt": -1, "trial_type": "single-stim", "word": "backbone", "stimulus": "<p id=\"stim\">BACKBONE</p>", "conditions": [18, 1200, "v", 18000], "internal_node_id": "0.0-26.0", "trial": 0, "time_elapsed": 187388, "serialpos": 14, "key_press": -1, "wordID": 65, "type": "PRES_VIS", "trial_index": 35}, "uniqueid": "MTK1840:3I02618YA1DNK71COQSE039KUNLUPB", "dateTime": 1516477499921}, {"current_trial": 36, "trialdata": {"rt": -1, "trial_type": "single-stim", "word": "yarn", "stimulus": "<p id=\"stim\">YARN</p>", "conditions": [18, 1200, "v", 18000], "internal_node_id": "0.0-27.0", "trial": 0, "time_elapsed": 189745, "serialpos": 15, "key_press": -1, "wordID": 1630, "type": "PRES_VIS", "trial_index": 36}, "uniqueid": "MTK1840:3I02618YA1DNK71COQSE039KUNLUPB", "dateTime": 1516477502278}, {"current_trial": 37, "trialdata": {"rt": -1, "trial_type": "single-stim", "word": "woman", "stimulus": "<p id=\"stim\">WOMAN</p>", "conditions": [18, 1200, "v", 18000], "internal_node_id": "0.0-28.0", "trial": 0, "time_elapsed": 192114, "serialpos": 16, "key_press": -1, "wordID": 1619, "type": "PRES_VIS", "trial_index": 37}, "uniqueid": "MTK1840:3I02618YA1DNK71COQSE039KUNLUPB", "dateTime": 1516477504647}, {"current_trial": 38, "trialdata": {"rt": -1, "trial_type": "single-stim", "word": "tablet", "stimulus": "<p id=\"stim\">TABLET</p>", "conditions": [18, 1200, "v", 18000], "internal_node_id": "0.0-29.0", "trial": 0, "time_elapsed": 194143, "serialpos": 17, "key_press": -1, "wordID": 1426, "type": "PRES_VIS", "trial_index": 38}, "uniqueid": "MTK1840:3I02618YA1DNK71COQSE039KUNLUPB", "dateTime": 1516477506677}, {"current_trial": 39, "trialdata": {"rt": -1, "trial_type": "single-stim", "stimulus": "", "internal_node_id": "0.0-30.0-0.0", "time_elapsed": 196494, "key_press": -1, "type": "PRE_RECALL_DELAY", "trial_index": 39}, "uniqueid": "MTK1840:3I02618YA1DNK71COQSE039KUNLUPB", "dateTime": 1516477509027}, {"current_trial": 40, "trialdata": {"rt": -1000, "trial_type": "single-audio", "stimulus": "/static/audio/400Hz.wav", "internal_node_id": "0.0-31.0", "time_elapsed": 197006, "key_press": -1, "type": "PRE_RECALL_ALERT", "trial_index": 40}, "uniqueid": "MTK1840:3I02618YA1DNK71COQSE039KUNLUPB", "dateTime": 1516477509539}, {"current_trial": 41, "trialdata": {"rt": [1631, 2957, 4363, 6039, 7200, 8995, 21458, 38931, 50044], "recwords": ["yarn", "woman", "tablet", "sunset", "grape", "proton", "snail", "vagrant", "sunset"], "key_times": [868, 1093, 1189, 1342, 1631, 2062, 2173, 2351, 2690, 2770, 2957, 3238, 3368, 3493, 3597, 3718, 4202, 4363, 4914, 5007, 5187, 5306, 5502, 5695, 6039, 6547, 6628, 6758, 6957, 7076, 7200, 8288, 8399, 8511, 8680, 8740, 8852, 8995, 20674, 20788, 20910, 21097, 21236, 21458, 37849, 38054, 38231, 38327, 38424, 38514, 38784, 38931, 49217, 49357, 49530, 49651, 49796, 49953, 50044], "trial_type": "free-recall", "conditions": [18, 1200, "v", 18000], "internal_node_id": "0.0-32.0-0.0", "key_presses": [89, 65, 82, 78, 13, 87, 79, 77, 65, 78, 13, 84, 65, 66, 76, 69, 84, 13, 83, 85, 78, 83, 69, 84, 13, 71, 82, 65, 80, 69, 13, 80, 82, 79, 84, 79, 78, 13, 83, 78, 65, 73, 76, 13, 86, 65, 71, 82, 65, 78, 84, 13, 83, 85, 78, 83, 69, 84, 13], "trial": 0, "time_elapsed": 257013, "type": "FREE_RECALL", "trial_index": 41}, "uniqueid": "MTK1840:3I02618YA1DNK71COQSE039KUNLUPB", "dateTime": 1516477569549}, {"current_trial": 42, "trialdata": {"rt": 2103, "trial_type": "text", "internal_node_id": "0.0-33.0", "time_elapsed": 261120, "key_press": 32, "type": "INSTRUCTIONS", "trial_index": 42}, "uniqueid": "MTK1840:3I02618YA1DNK71COQSE039KUNLUPB", "dateTime": 1516477573653}, {"current_trial": 43, "trialdata": {"rt": [2552, 4748, 8610, 10455, 12499, 14024, 16481], "trial_type": "math-distractor", "key_times": [1946, 2078, 2552, 4078, 4470, 4748, 8297, 8444, 8610, 10096, 10216, 10455, 12132, 12225, 12499, 13691, 13861, 14024, 16137, 16306, 16481, 17818], "responses": ["10", "18", "22", "19", "17", "11", "12"], "num2": [4, 8, 7, 5, 2, 7, 1, 7], "num3": [8, 2, 6, 5, 7, 1, 7, 3], "conditions": [18, 1200, "v", 18000], "internal_node_id": "0.0-34.0", "key_presses": [49, 48, 13, 49, 56, 13, 50, 50, 13, 49, 57, 13, 49, 55, 13, 49, 49, 13, 49, 50, 13, 49], "trial": 1, "time_elapsed": 281129, "type": "DISTRACTOR", "trial_index": 43, "num1": [2, 8, 9, 9, 8, 3, 4, 1]}, "uniqueid": "MTK1840:3I02618YA1DNK71COQSE039KUNLUPB", "dateTime": 1516477593662}, {"current_trial": 44, "trialdata": {"rt": -1, "trial_type": "single-stim", "stimulus": "<p id=\"stim\">10</p>", "internal_node_id": "0.0-35.0-0.0", "time_elapsed": 284136, "key_press": -1, "trial_index": 44}, "uniqueid": "MTK1840:3I02618YA1DNK71COQSE039KUNLUPB", "dateTime": 1516477596669}, {"current_trial": 45, "trialdata": {"rt": -1, "trial_type": "single-stim", "stimulus": "<p id=\"stim\">9</p>", "internal_node_id": "0.0-35.0-1.0", "time_elapsed": 285139, "key_press": -1, "trial_index": 45}, "uniqueid": "MTK1840:3I02618YA1DNK71COQSE039KUNLUPB", "dateTime": 1516477597672}, {"current_trial": 46, "trialdata": {"rt": -1, "trial_type": "single-stim", "stimulus": "<p id=\"stim\">8</p>", "internal_node_id": "0.0-35.0-2.0", "time_elapsed": 286143, "key_press": -1, "trial_index": 46}, "uniqueid": "MTK1840:3I02618YA1DNK71COQSE039KUNLUPB", "dateTime": 1516477598676}, {"current_trial": 47, "trialdata": {"rt": -1, "trial_type": "single-stim", "stimulus": "<p id=\"stim\">7</p>", "internal_node_id": "0.0-35.0-3.0", "time_elapsed": 287146, "key_press": -1, "trial_index": 47}, "uniqueid": "MTK1840:3I02618YA1DNK71COQSE039KUNLUPB", "dateTime": 1516477599679}, {"current_trial": 48, "trialdata": {"rt": -1, "trial_type": "single-stim", "stimulus": "<p id=\"stim\">6</p>", "internal_node_id": "0.0-35.0-4.0", "time_elapsed": 288150, "key_press": -1, "trial_index": 48}, "uniqueid": "MTK1840:3I02618YA1DNK71COQSE039KUNLUPB", "dateTime": 1516477600684}, {"current_trial": 49, "trialdata": {"rt": -1, "trial_type": "single-stim", "stimulus": "<p id=\"stim\">5</p>", "internal_node_id": "0.0-35.0-5.0", "time_elapsed": 289152, "key_press": -1, "trial_index": 49}, "uniqueid": "MTK1840:3I02618YA1DNK71COQSE039KUNLUPB", "dateTime": 1516477601686}, {"current_trial": 50, "trialdata": {"rt": -1, "trial_type": "single-stim", "stimulus": "<p id=\"stim\">4</p>", "internal_node_id": "0.0-35.0-6.0", "time_elapsed": 290158, "key_press": -1, "trial_index": 50}, "uniqueid": "MTK1840:3I02618YA1DNK71COQSE039KUNLUPB", "dateTime": 1516477602691}, {"current_trial": 51, "trialdata": {"rt": -1, "trial_type": "single-stim", "stimulus": "<p id=\"stim\">3</p>", "internal_node_id": "0.0-35.0-7.0", "time_elapsed": 291160, "key_press": -1, "trial_index": 51}, "uniqueid": "MTK1840:3I02618YA1DNK71COQSE039KUNLUPB", "dateTime": 1516477603694}, {"current_trial": 52, "trialdata": {"rt": -1, "trial_type": "single-stim", "stimulus": "<p id=\"stim\">2</p>", "internal_node_id": "0.0-35.0-8.0", "time_elapsed": 292165, "key_press": -1, "trial_index": 52}, "uniqueid": "MTK1840:3I02618YA1DNK71COQSE039KUNLUPB", "dateTime": 1516477604698}, {"current_trial": 53, "trialdata": {"rt": -1, "trial_type": "single-stim", "stimulus": "<p id=\"stim\">1</p>", "internal_node_id": "0.0-35.0-9.0", "time_elapsed": 293168, "key_press": -1, "trial_index": 53}, "uniqueid": "MTK1840:3I02618YA1DNK71COQSE039KUNLUPB", "dateTime": 1516477605701}, {"current_trial": 54, "trialdata": {"rt": -1, "trial_type": "single-stim", "stimulus": "<p id=\"stim\">+</p>", "internal_node_id": "0.0-36.0-0.0", "time_elapsed": 294671, "key_press": -1, "type": "FIXATION", "trial_index": 54}, "uniqueid": "MTK1840:3I02618YA1DNK71COQSE039KUNLUPB", "dateTime": 1516477607204}, {"current_trial": 55, "trialdata": {"rt": -1, "trial_type": "single-stim", "word": "liver", "stimulus": "<p id=\"stim\">LIVER</p>", "conditions": [18, 1200, "v", 18000], "internal_node_id": "0.0-37.0", "trial": 1, "time_elapsed": 295876, "serialpos": 0, "key_press": -1, "wordID": 832, "type": "PRES_VIS", "trial_index": 55}, "uniqueid": "MTK1840:3I02618YA1DNK71COQSE039KUNLUPB", "dateTime": 1516477608413}, {"current_trial": 56, "trialdata": {"rt": -1, "trial_type": "single-stim", "word": "silk", "stimulus": "<p id=\"stim\">SILK</p>", "conditions": [18, 1200, "v", 18000], "internal_node_id": "0.0-38.0", "trial": 1, "time_elapsed": 298078, "serialpos": 1, "key_press": -1, "wordID": 1306, "type": "PRES_VIS", "trial_index": 56}, "uniqueid": "MTK1840:3I02618YA1DNK71COQSE039KUNLUPB", "dateTime": 1516477610611}, {"current_trial": 57, "trialdata": {"rt": -1, "trial_type": "single-stim", "word": "whistle", "stimulus": "<p id=\"stim\">WHISTLE</p>", "conditions": [18, 1200, "v", 18000], "internal_node_id": "0.0-39.0", "trial": 1, "time_elapsed": 300219, "serialpos": 2, "key_press": -1, "wordID": 1605, "type": "PRES_VIS", "trial_index": 57}, "uniqueid": "MTK1840:3I02618YA1DNK71COQSE039KUNLUPB", "dateTime": 1516477612752}, {"current_trial": 58, "trialdata": {"rt": -1, "trial_type": "single-stim", "word": "mammal", "stimulus": "<p id=\"stim\">MAMMAL</p>", "conditions": [18, 1200, "v", 18000], "internal_node_id": "0.0-40.0", "trial": 1, "time_elapsed": 302587, "serialpos": 3, "key_press": -1, "wordID": 860, "type": "PRES_VIS", "trial_index": 58}, "uniqueid": "MTK1840:3I02618YA1DNK71COQSE039KUNLUPB", "dateTime": 1516477615120}, {"current_trial": 59, "trialdata": {"rt": -1, "trial_type": "single-stim", "word": "leopard", "stimulus": "<p id=\"stim\">LEOPARD</p>", "conditions": [18, 1200, "v", 18000], "internal_node_id": "0.0-41.0", "trial": 1, "time_elapsed": 304873, "serialpos": 4, "key_press": -1, "wordID": 811, "type": "PRES_VIS", "trial_index": 59}, "uniqueid": "MTK1840:3I02618YA1DNK71COQSE039KUNLUPB", "dateTime": 1516477617406}, {"current_trial": 60, "trialdata": {"rt": -1, "trial_type": "single-stim", "word": "mustard", "stimulus": "<p id=\"stim\">MUSTARD</p>", "conditions": [18, 1200, "v", 18000], "internal_node_id": "0.0-42.0", "trial": 1, "time_elapsed": 307059, "serialpos": 5, "key_press": -1, "wordID": 934, "type": "PRES_VIS", "trial_index": 60}, "uniqueid": "MTK1840:3I02618YA1DNK71COQSE039KUNLUPB", "dateTime": 1516477619593}, {"current_trial": 61, "trialdata": {"rt": -1, "trial_type": "single-stim", "word": "stallion", "stimulus": "<p id=\"stim\">STALLION</p>", "conditions": [18, 1200, "v", 18000], "internal_node_id": "0.0-43.0", "trial": 1, "time_elapsed": 309385, "serialpos": 6, "key_press": -1, "wordID": 1368, "type": "PRES_VIS", "trial_index": 61}, "uniqueid": "MTK1840:3I02618YA1DNK71COQSE039KUNLUPB", "dateTime": 1516477621918}, {"current_trial": 62, "trialdata": {"rt": -1, "trial_type": "single-stim", "word": "penguin", "stimulus": "<p id=\"stim\">PENGUIN</p>", "conditions": [18, 1200, "v", 18000], "internal_node_id": "0.0-44.0", "trial": 1, "time_elapsed": 311473, "serialpos": 7, "key_press": -1, "wordID": 1043, "type": "PRES_VIS", "trial_index": 62}, "uniqueid": "MTK1840:3I02618YA1DNK71COQSE039KUNLUPB", "dateTime": 1516477624006}, {"current_trial": 63, "trialdata": {"rt": -1, "trial_type": "single-stim", "word": "scotch", "stimulus": "<p id=\"stim\">SCOTCH</p>", "conditions": [18, 1200, "v", 18000], "internal_node_id": "0.0-45.0", "trial": 1, "time_elapsed": 313486, "serialpos": 8, "key_press": -1, "wordID": 1250, "type": "PRES_VIS", "trial_index": 63}, "uniqueid": "MTK1840:3I02618YA1DNK71COQSE039KUNLUPB", "dateTime": 1516477626019}, {"current_trial": 64, "trialdata": {"rt": -1, "trial_type": "single-stim", "word": "pudding", "stimulus": "<p id=\"stim\">PUDDING</p>", "conditions": [18, 1200, "v", 18000], "internal_node_id": "0.0-46.0", "trial": 1, "time_elapsed": 315684, "serialpos": 9, "key_press": -1, "wordID": 1138, "type": "PRES_VIS", "trial_index": 64}, "uniqueid": "MTK1840:3I02618YA1DNK71COQSE039KUNLUPB", "dateTime": 1516477628217}, {"current_trial": 65, "trialdata": {"rt": -1, "trial_type": "single-stim", "word": "seafood", "stimulus": "<p id=\"stim\">SEAFOOD</p>", "conditions": [18, 1200, "v", 18000], "internal_node_id": "0.0-47.0", "trial": 1, "time_elapsed": 318044, "serialpos": 10, "key_press": -1, "wordID": 1259, "type": "PRES_VIS", "trial_index": 65}, "uniqueid": "MTK1840:3I02618YA1DNK71COQSE039KUNLUPB", "dateTime": 1516477630577}, {"current_trial": 66, "trialdata": {"rt": -1, "trial_type": "single-stim", "word": "dress", "stimulus": "<p id=\"stim\">DRESS</p>", "conditions": [18, 1200, "v", 18000], "internal_node_id": "0.0-48.0", "trial": 1, "time_elapsed": 320429, "serialpos": 11, "key_press": -1, "wordID": 494, "type": "PRES_VIS", "trial_index": 66}, "uniqueid": "MTK1840:3I02618YA1DNK71COQSE039KUNLUPB", "dateTime": 1516477632962}, {"current_trial": 67, "trialdata": {"rt": -1, "trial_type": "single-stim", "word": "shelter", "stimulus": "<p id=\"stim\">SHELTER</p>", "conditions": [18, 1200, "v", 18000], "internal_node_id": "0.0-49.0", "trial": 1, "time_elapsed": 322519, "serialpos": 12, "key_press": -1, "wordID": 1281, "type": "PRES_VIS", "trial_index": 67}, "uniqueid": "MTK1840:3I02618YA1DNK71COQSE039KUNLUPB", "dateTime": 1516477635052}, {"current_trial": 68, "trialdata": {"rt": -1, "trial_type": "single-stim", "word": "umpire", "stimulus": "<p id=\"stim\">UMPIRE</p>", "conditions": [18, 1200, "v", 18000], "internal_node_id": "0.0-50.0", "trial": 1, "time_elapsed": 324775, "serialpos": 13, "key_press": -1, "wordID": 1534, "type": "PRES_VIS", "trial_index": 68}, "uniqueid": "MTK1840:3I02618YA1DNK71COQSE039KUNLUPB", "dateTime": 1516477637309}, {"current_trial": 69, "trialdata": {"rt": -1, "trial_type": "single-stim", "word": "puppy", "stimulus": "<p id=\"stim\">PUPPY</p>", "conditions": [18, 1200, "v", 18000], "internal_node_id": "0.0-51.0", "trial": 1, "time_elapsed": 327037, "serialpos": 14, "key_press": -1, "wordID": 1143, "type": "PRES_VIS", "trial_index": 69}, "uniqueid": "MTK1840:3I02618YA1DNK71COQSE039KUNLUPB", "dateTime": 1516477639570}, {"current_trial": 70, "trialdata": {"rt": -1, "trial_type": "single-stim", "word": "forest", "stimulus": "<p id=\"stim\">FOREST</p>", "conditions": [18, 1200, "v", 18000], "internal_node_id": "0.0-52.0", "trial": 1, "time_elapsed": 329350, "serialpos": 15, "key_press": -1, "wordID": 592, "type": "PRES_VIS", "trial_index": 70}, "uniqueid": "MTK1840:3I02618YA1DNK71COQSE039KUNLUPB", "dateTime": 1516477641883}, {"current_trial": 71, "trialdata": {"rt": -1, "trial_type": "single-stim", "word": "plate", "stimulus": "<p id=\"stim\">PLATE</p>", "conditions": [18, 1200, "v", 18000], "internal_node_id": "0.0-53.0", "trial": 1, "time_elapsed": 331401, "serialpos": 16, "key_press": -1, "wordID": 1085, "type": "PRES_VIS", "trial_index": 71}, "uniqueid": "MTK1840:3I02618YA1DNK71COQSE039KUNLUPB", "dateTime": 1516477643934}, {"current_trial": 72, "trialdata": {"rt": -1, "trial_type": "single-stim", "word": "airplane", "stimulus": "<p id=\"stim\">AIRPLANE</p>", "conditions": [18, 1200, "v", 18000], "internal_node_id": "0.0-54.0", "trial": 1, "time_elapsed": 333601, "serialpos": 17, "key_press": -1, "wordID": 11, "type": "PRES_VIS", "trial_index": 72}, "uniqueid": "MTK1840:3I02618YA1DNK71COQSE039KUNLUPB", "dateTime": 1516477646134}, {"current_trial": 73, "trialdata": {"rt": -1, "trial_type": "single-stim", "stimulus": "", "internal_node_id": "0.0-55.0-0.0", "time_elapsed": 335894, "key_press": -1, "type": "PRE_RECALL_DELAY", "trial_index": 73}, "uniqueid": "MTK1840:3I02618YA1DNK71COQSE039KUNLUPB", "dateTime": 1516477648427}, {"current_trial": 74, "trialdata": {"rt": -1000, "trial_type": "single-audio", "stimulus": "/static/audio/400Hz.wav", "internal_node_id": "0.0-56.0", "time_elapsed": 336399, "key_press": -1, "type": "PRE_RECALL_ALERT", "trial_index": 74}, "uniqueid": "MTK1840:3I02618YA1DNK71COQSE039KUNLUPB", "dateTime": 1516477648933}, {"current_trial": 75, "trialdata": {"rt": [2738, 3996, 11601, 15161, 18419], "recwords": ["airplane", "forest", "umpire", "dress", "plate"], "key_times": [1214, 1356, 1449, 1552, 2147, 2261, 2389, 2541, 2738, 3076, 3213, 3310, 3475, 3595, 3842, 3996, 9925, 10047, 10384, 10621, 10776, 11283, 11434, 11536, 11601, 14340, 14558, 14713, 14883, 15027, 15161, 17768, 17971, 18089, 18191, 18279, 18419, 28021, 28533], "trial_type": "free-recall", "conditions": [18, 1200, "v", 18000], "internal_node_id": "0.0-57.0-0.0", "key_presses": [65, 73, 82, 80, 76, 65, 78, 69, 13, 70, 79, 82, 69, 83, 84, 13, 85, 80, 8, 77, 80, 73, 82, 69, 13, 68, 82, 69, 83, 83, 13, 80, 76, 65, 84, 69, 13, 83, 8], "trial": 1, "time_elapsed": 396407, "type": "FREE_RECALL", "trial_index": 75}, "uniqueid": "MTK1840:3I02618YA1DNK71COQSE039KUNLUPB", "dateTime": 1516477708944}, {"current_trial": 76, "trialdata": {"rt": 3144, "trial_type": "text", "internal_node_id": "0.0-58.0", "time_elapsed": 401560, "key_press": 32, "type": "INSTRUCTIONS", "trial_index": 76}, "uniqueid": "MTK1840:3I02618YA1DNK71COQSE039KUNLUPB", "dateTime": 1516477714093}, {"current_trial": 77, "trialdata": {"rt": [1939, 5483, 7579, 9405, 11096, 13597, 15816, 18932, 21113], "trial_type": "math-distractor", "key_times": [1615, 1939, 4672, 4824, 5483, 7242, 7484, 7579, 8973, 9157, 9405, 10769, 10945, 11096, 13230, 13484, 13597, 15015, 15247, 15816, 18489, 18661, 18932, 20736, 20890, 21113, 23783, 23909], "responses": ["4", "20", "13", "18", "14", "16", "10", "11", "14"], "num2": [1, 5, 2, 4, 4, 1, 2, 6, 3, 8], "num3": [2, 7, 6, 8, 9, 8, 3, 2, 8, 7], "conditions": [24, 1600, "v", 24000], "internal_node_id": "0.0-59.0", "key_presses": [52, 13, 50, 48, 13, 49, 51, 13, 49, 56, 13, 49, 52, 13, 49, 54, 13, 49, 48, 13, 49, 49, 13, 49, 52, 13, 50, 51], "trial": 2, "time_elapsed": 426567, "type": "DISTRACTOR", "trial_index": 77, "num1": [1, 8, 5, 6, 1, 7, 5, 3, 3, 8]}, "uniqueid": "MTK1840:3I02618YA1DNK71COQSE039KUNLUPB", "dateTime": 1516477739100}, {"current_trial": 78, "trialdata": {"rt": -1, "trial_type": "single-stim", "stimulus": "<p id=\"stim\">10</p>", "internal_node_id": "0.0-60.0-0.0", "time_elapsed": 429573, "key_press": -1, "trial_index": 78}, "uniqueid": "MTK1840:3I02618YA1DNK71COQSE039KUNLUPB", "dateTime": 1516477742106}, {"current_trial": 79, "trialdata": {"rt": -1, "trial_type": "single-stim", "stimulus": "<p id=\"stim\">9</p>", "internal_node_id": "0.0-60.0-1.0", "time_elapsed": 430575, "key_press": -1, "trial_index": 79}, "uniqueid": "MTK1840:3I02618YA1DNK71COQSE039KUNLUPB", "dateTime": 1516477743108}, {"current_trial": 80, "trialdata": {"rt": -1, "trial_type": "single-stim", "stimulus": "<p id=\"stim\">8</p>", "internal_node_id": "0.0-60.0-2.0", "time_elapsed": 431577, "key_press": -1, "trial_index": 80}, "uniqueid": "MTK1840:3I02618YA1DNK71COQSE039KUNLUPB", "dateTime": 1516477744110}, {"current_trial": 81, "trialdata": {"rt": -1, "trial_type": "single-stim", "stimulus": "<p id=\"stim\">7</p>", "internal_node_id": "0.0-60.0-3.0", "time_elapsed": 432583, "key_press": -1, "trial_index": 81}, "uniqueid": "MTK1840:3I02618YA1DNK71COQSE039KUNLUPB", "dateTime": 1516477745116}, {"current_trial": 82, "trialdata": {"rt": -1, "trial_type": "single-stim", "stimulus": "<p id=\"stim\">6</p>", "internal_node_id": "0.0-60.0-4.0", "time_elapsed": 433585, "key_press": -1, "trial_index": 82}, "uniqueid": "MTK1840:3I02618YA1DNK71COQSE039KUNLUPB", "dateTime": 1516477746118}, {"current_trial": 83, "trialdata": {"rt": -1, "trial_type": "single-stim", "stimulus": "<p id=\"stim\">5</p>", "internal_node_id": "0.0-60.0-5.0", "time_elapsed": 434587, "key_press": -1, "trial_index": 83}, "uniqueid": "MTK1840:3I02618YA1DNK71COQSE039KUNLUPB", "dateTime": 1516477747120}, {"current_trial": 84, "trialdata": {"rt": -1, "trial_type": "single-stim", "stimulus": "<p id=\"stim\">4</p>", "internal_node_id": "0.0-60.0-6.0", "time_elapsed": 435591, "key_press": -1, "trial_index": 84}, "uniqueid": "MTK1840:3I02618YA1DNK71COQSE039KUNLUPB", "dateTime": 1516477748124}, {"current_trial": 85, "trialdata": {"rt": -1, "trial_type": "single-stim", "stimulus": "<p id=\"stim\">3</p>", "internal_node_id": "0.0-60.0-7.0", "time_elapsed": 436594, "key_press": -1, "trial_index": 85}, "uniqueid": "MTK1840:3I02618YA1DNK71COQSE039KUNLUPB", "dateTime": 1516477749127}, {"current_trial": 86, "trialdata": {"rt": -1, "trial_type": "single-stim", "stimulus": "<p id=\"stim\">2</p>", "internal_node_id": "0.0-60.0-8.0", "time_elapsed": 437597, "key_press": -1, "trial_index": 86}, "uniqueid": "MTK1840:3I02618YA1DNK71COQSE039KUNLUPB", "dateTime": 1516477750130}, {"current_trial": 87, "trialdata": {"rt": -1, "trial_type": "single-stim", "stimulus": "<p id=\"stim\">1</p>", "internal_node_id": "0.0-60.0-9.0", "time_elapsed": 438598, "key_press": -1, "trial_index": 87}, "uniqueid": "MTK1840:3I02618YA1DNK71COQSE039KUNLUPB", "dateTime": 1516477751131}, {"current_trial": 88, "trialdata": {"rt": -1, "trial_type": "single-stim", "stimulus": "<p id=\"stim\">+</p>", "internal_node_id": "0.0-61.0-0.0", "time_elapsed": 440100, "key_press": -1, "type": "FIXATION", "trial_index": 88}, "uniqueid": "MTK1840:3I02618YA1DNK71COQSE039KUNLUPB", "dateTime": 1516477752633}, {"current_trial": 89, "trialdata": {"rt": -1, "trial_type": "single-stim", "word": "spider", "stimulus": "<p id=\"stim\">SPIDER</p>", "conditions": [24, 1600, "v", 24000], "internal_node_id": "0.0-62.0", "trial": 2, "time_elapsed": 441704, "serialpos": 0, "key_press": -1, "wordID": 1350, "type": "PRES_VIS", "trial_index": 89}, "uniqueid": "MTK1840:3I02618YA1DNK71COQSE039KUNLUPB", "dateTime": 1516477754237}, {"current_trial": 90, "trialdata": {"rt": -1, "trial_type": "single-stim", "word": "lumber", "stimulus": "<p id=\"stim\">LUMBER</p>", "conditions": [24, 1600, "v", 24000], "internal_node_id": "0.0-63.0", "trial": 2, "time_elapsed": 444116, "serialpos": 1, "key_press": -1, "wordID": 847, "type": "PRES_VIS", "trial_index": 90}, "uniqueid": "MTK1840:3I02618YA1DNK71COQSE039KUNLUPB", "dateTime": 1516477756649}, {"current_trial": 91, "trialdata": {"rt": -1, "trial_type": "single-stim", "word": "flute", "stimulus": "<p id=\"stim\">FLUTE</p>", "conditions": [24, 1600, "v", 24000], "internal_node_id": "0.0-64.0", "trial": 2, "time_elapsed": 446830, "serialpos": 2, "key_press": -1, "wordID": 584, "type": "PRES_VIS", "trial_index": 91}, "uniqueid": "MTK1840:3I02618YA1DNK71COQSE039KUNLUPB", "dateTime": 1516477759364}, {"current_trial": 92, "trialdata": {"rt": -1, "trial_type": "single-stim", "word": "piano", "stimulus": "<p id=\"stim\">PIANO</p>", "conditions": [24, 1600, "v", 24000], "internal_node_id": "0.0-65.0", "trial": 2, "time_elapsed": 449370, "serialpos": 3, "key_press": -1, "wordID": 1056, "type": "PRES_VIS", "trial_index": 92}, "uniqueid": "MTK1840:3I02618YA1DNK71COQSE039KUNLUPB", "dateTime": 1516477761903}, {"current_trial": 93, "trialdata": {"rt": -1, "trial_type": "single-stim", "word": "convict", "stimulus": "<p id=\"stim\">CONVICT</p>", "conditions": [24, 1600, "v", 24000], "internal_node_id": "0.0-66.0", "trial": 2, "time_elapsed": 452081, "serialpos": 4, "key_press": -1, "wordID": 370, "type": "PRES_VIS", "trial_index": 93}, "uniqueid": "MTK1840:3I02618YA1DNK71COQSE039KUNLUPB", "dateTime": 1516477764614}, {"current_trial": 94, "trialdata": {"rt": -1, "trial_type": "single-stim", "word": "neutron", "stimulus": "<p id=\"stim\">NEUTRON</p>", "conditions": [24, 1600, "v", 24000], "internal_node_id": "0.0-67.0", "trial": 2, "time_elapsed": 454708, "serialpos": 5, "key_press": -1, "wordID": 946, "type": "PRES_VIS", "trial_index": 94}, "uniqueid": "MTK1840:3I02618YA1DNK71COQSE039KUNLUPB", "dateTime": 1516477767241}, {"current_trial": 95, "trialdata": {"rt": -1, "trial_type": "single-stim", "word": "palace", "stimulus": "<p id=\"stim\">PALACE</p>", "conditions": [24, 1600, "v", 24000], "internal_node_id": "0.0-68.0", "trial": 2, "time_elapsed": 457404, "serialpos": 6, "key_press": -1, "wordID": 1005, "type": "PRES_VIS", "trial_index": 95}, "uniqueid": "MTK1840:3I02618YA1DNK71COQSE039KUNLUPB", "dateTime": 1516477769937}, {"current_trial": 96, "trialdata": {"rt": -1, "trial_type": "single-stim", "word": "body", "stimulus": "<p id=\"stim\">BODY</p>", "conditions": [24, 1600, "v", 24000], "internal_node_id": "0.0-69.0", "trial": 2, "time_elapsed": 460050, "serialpos": 7, "key_press": -1, "wordID": 144, "type": "PRES_VIS", "trial_index": 96}, "uniqueid": "MTK1840:3I02618YA1DNK71COQSE039KUNLUPB", "dateTime": 1516477772583}, {"current_trial": 97, "trialdata": {"rt": -1, "trial_type": "single-stim", "word": "toaster", "stimulus": "<p id=\"stim\">TOASTER</p>", "conditions": [24, 1600, "v", 24000], "internal_node_id": "0.0-70.0", "trial": 2, "time_elapsed": 462704, "serialpos": 8, "key_press": -1, "wordID": 1471, "type": "PRES_VIS", "trial_index": 97}, "uniqueid": "MTK1840:3I02618YA1DNK71COQSE039KUNLUPB", "dateTime": 1516477775237}, {"current_trial": 98, "trialdata": {"rt": -1, "trial_type": "single-stim", "word": "spouse", "stimulus": "<p id=\"stim\">SPOUSE</p>", "conditions": [24, 1600, "v", 24000], "internal_node_id": "0.0-71.0", "trial": 2, "time_elapsed": 465178, "serialpos": 9, "key_press": -1, "wordID": 1357, "type": "PRES_VIS", "trial_index": 98}, "uniqueid": "MTK1840:3I02618YA1DNK71COQSE039KUNLUPB", "dateTime": 1516477777712}, {"current_trial": 99, "trialdata": {"rt": -1, "trial_type": "single-stim", "word": "denim", "stimulus": "<p id=\"stim\">DENIM</p>", "conditions": [24, 1600, "v", 24000], "internal_node_id": "0.0-72.0", "trial": 2, "time_elapsed": 467856, "serialpos": 10, "key_press": -1, "wordID": 445, "type": "PRES_VIS", "trial_index": 99}, "uniqueid": "MTK1840:3I02618YA1DNK71COQSE039KUNLUPB", "dateTime": 1516477780389}, {"current_trial": 100, "trialdata": {"rt": -1, "trial_type": "single-stim", "word": "rabbit", "stimulus": "<p id=\"stim\">RABBIT</p>", "conditions": [24, 1600, "v", 24000], "internal_node_id": "0.0-73.0", "trial": 2, "time_elapsed": 470656, "serialpos": 11, "key_press": -1, "wordID": 1151, "type": "PRES_VIS", "trial_index": 100}, "uniqueid": "MTK1840:3I02618YA1DNK71COQSE039KUNLUPB", "dateTime": 1516477783189}, {"current_trial": 101, "trialdata": {"rt": -1, "trial_type": "single-stim", "word": "sandwich", "stimulus": "<p id=\"stim\">SANDWICH</p>", "conditions": [24, 1600, "v", 24000], "internal_node_id": "0.0-74.0", "trial": 2, "time_elapsed": 473406, "serialpos": 12, "key_press": -1, "wordID": 1231, "type": "PRES_VIS", "trial_index": 101}, "uniqueid": "MTK1840:3I02618YA1DNK71COQSE039KUNLUPB", "dateTime": 1516477785939}, {"current_trial": 102, "trialdata": {"rt": -1, "trial_type": "single-stim", "word": "critic", "stimulus": "<p id=\"stim\">CRITIC</p>", "conditions": [24, 1600, "v", 24000], "internal_node_id": "0.0-75.0", "trial": 2, "time_elapsed": 476080, "serialpos": 13, "key_press": -1, "wordID": 409, "type": "PRES_VIS", "trial_index": 102}, "uniqueid": "MTK1840:3I02618YA1DNK71COQSE039KUNLUPB", "dateTime": 1516477788613}, {"current_trial": 103, "trialdata": {"rt": -1, "trial_type": "single-stim", "word": "expert", "stimulus": "<p id=\"stim\">EXPERT</p>", "conditions": [24, 1600, "v", 24000], "internal_node_id": "0.0-76.0", "trial": 2, "time_elapsed": 478719, "serialpos": 14, "key_press": -1, "wordID": 542, "type": "PRES_VIS", "trial_index": 103}, "uniqueid": "MTK1840:3I02618YA1DNK71COQSE039KUNLUPB", "dateTime": 1516477791252}, {"current_trial": 104, "trialdata": {"rt": -1, "trial_type": "single-stim", "word": "supper", "stimulus": "<p id=\"stim\">SUPPER</p>", "conditions": [24, 1600, "v", 24000], "internal_node_id": "0.0-77.0", "trial": 2, "time_elapsed": 481155, "serialpos": 15, "key_press": -1, "wordID": 1410, "type": "PRES_VIS", "trial_index": 104}, "uniqueid": "MTK1840:3I02618YA1DNK71COQSE039KUNLUPB", "dateTime": 1516477793688}, {"current_trial": 105, "trialdata": {"rt": -1, "trial_type": "single-stim", "word": "cross", "stimulus": "<p id=\"stim\">CROSS</p>", "conditions": [24, 1600, "v", 24000], "internal_node_id": "0.0-78.0", "trial": 2, "time_elapsed": 483704, "serialpos": 16, "key_press": -1, "wordID": 412, "type": "PRES_VIS", "trial_index": 105}, "uniqueid": "MTK1840:3I02618YA1DNK71COQSE039KUNLUPB", "dateTime": 1516477796238}, {"current_trial": 106, "trialdata": {"rt": -1, "trial_type": "single-stim", "word": "flag", "stimulus": "<p id=\"stim\">FLAG</p>", "conditions": [24, 1600, "v", 24000], "internal_node_id": "0.0-79.0", "trial": 2, "time_elapsed": 486462, "serialpos": 17, "key_press": -1, "wordID": 572, "type": "PRES_VIS", "trial_index": 106}, "uniqueid": "MTK1840:3I02618YA1DNK71COQSE039KUNLUPB", "dateTime": 1516477798995}, {"current_trial": 107, "trialdata": {"rt": -1, "trial_type": "single-stim", "word": "camel", "stimulus": "<p id=\"stim\">CAMEL</p>", "conditions": [24, 1600, "v", 24000], "internal_node_id": "0.0-80.0", "trial": 2, "time_elapsed": 489248, "serialpos": 18, "key_press": -1, "wordID": 222, "type": "PRES_VIS", "trial_index": 107}, "uniqueid": "MTK1840:3I02618YA1DNK71COQSE039KUNLUPB", "dateTime": 1516477801781}, {"current_trial": 108, "trialdata": {"rt": -1, "trial_type": "single-stim", "word": "bureau", "stimulus": "<p id=\"stim\">BUREAU</p>", "conditions": [24, 1600, "v", 24000], "internal_node_id": "0.0-81.0", "trial": 2, "time_elapsed": 491929, "serialpos": 19, "key_press": -1, "wordID": 198, "type": "PRES_VIS", "trial_index": 108}, "uniqueid": "MTK1840:3I02618YA1DNK71COQSE039KUNLUPB", "dateTime": 1516477804463}, {"current_trial": 109, "trialdata": {"rt": -1, "trial_type": "single-stim", "word": "lunch", "stimulus": "<p id=\"stim\">LUNCH</p>", "conditions": [24, 1600, "v", 24000], "internal_node_id": "0.0-82.0", "trial": 2, "time_elapsed": 494513, "serialpos": 20, "key_press": -1, "wordID": 848, "type": "PRES_VIS", "trial_index": 109}, "uniqueid": "MTK1840:3I02618YA1DNK71COQSE039KUNLUPB", "dateTime": 1516477807046}, {"current_trial": 110, "trialdata": {"rt": -1, "trial_type": "single-stim", "word": "termite", "stimulus": "<p id=\"stim\">TERMITE</p>", "conditions": [24, 1600, "v", 24000], "internal_node_id": "0.0-83.0", "trial": 2, "time_elapsed": 497014, "serialpos": 21, "key_press": -1, "wordID": 1450, "type": "PRES_VIS", "trial_index": 110}, "uniqueid": "MTK1840:3I02618YA1DNK71COQSE039KUNLUPB", "dateTime": 1516477809547}, {"current_trial": 111, "trialdata": {"rt": -1, "trial_type": "single-stim", "word": "portrait", "stimulus": "<p id=\"stim\">PORTRAIT</p>", "conditions": [24, 1600, "v", 24000], "internal_node_id": "0.0-84.0", "trial": 2, "time_elapsed": 499779, "serialpos": 22, "key_press": -1, "wordID": 1110, "type": "PRES_VIS", "trial_index": 111}, "uniqueid": "MTK1840:3I02618YA1DNK71COQSE039KUNLUPB", "dateTime": 1516477812312}, {"current_trial": 112, "trialdata": {"rt": -1, "trial_type": "single-stim", "word": "picture", "stimulus": "<p id=\"stim\">PICTURE</p>", "conditions": [24, 1600, "v", 24000], "internal_node_id": "0.0-85.0", "trial": 2, "time_elapsed": 502511, "serialpos": 23, "key_press": -1, "wordID": 1060, "type": "PRES_VIS", "trial_index": 112}, "uniqueid": "MTK1840:3I02618YA1DNK71COQSE039KUNLUPB", "dateTime": 1516477815044}, {"current_trial": 113, "trialdata": {"rt": -1, "trial_type": "single-stim", "stimulus": "", "internal_node_id": "0.0-86.0-0.0", "time_elapsed": 504879, "key_press": -1, "type": "PRE_RECALL_DELAY", "trial_index": 113}, "uniqueid": "MTK1840:3I02618YA1DNK71COQSE039KUNLUPB", "dateTime": 1516477817412}, {"current_trial": 114, "trialdata": {"rt": -1000, "trial_type": "single-audio", "stimulus": "/static/audio/400Hz.wav", "internal_node_id": "0.0-87.0", "time_elapsed": 505382, "key_press": -1, "type": "PRE_RECALL_ALERT", "trial_index": 114}, "uniqueid": "MTK1840:3I02618YA1DNK71COQSE039KUNLUPB", "dateTime": 1516477817915}, {"current_trial": 115, "trialdata": {"rt": [2748, 5142, 17478, 18261, 25392, 26562, 36553, 39361], "recwords": ["flute", "piano", "proton", "body", "flag", "cross", "portrait", "camel"], "key_times": [2206, 2307, 2453, 2571, 2667, 2748, 3079, 3251, 3957, 4015, 4280, 4546, 4751, 4843, 4964, 5142, 16236, 16349, 16938, 17107, 17194, 17295, 17478, 17668, 17790, 17902, 18174, 18261, 24355, 24474, 24669, 24805, 25392, 25763, 25983, 26091, 26243, 26349, 26562, 35335, 35450, 35559, 35767, 35859, 35976, 36026, 36224, 36553, 38096, 38217, 38354, 38482, 39204, 39361], "trial_type": "free-recall", "conditions": [24, 1600, "v", 24000], "internal_node_id": "0.0-88.0-0.0", "key_presses": [70, 76, 85, 84, 69, 13, 80, 73, 78, 65, 8, 8, 65, 78, 79, 13, 80, 82, 79, 84, 79, 78, 13, 66, 79, 68, 89, 13, 70, 76, 65, 71, 13, 67, 82, 79, 83, 83, 13, 80, 79, 82, 84, 82, 65, 73, 84, 13, 67, 65, 77, 69, 76, 13], "trial": 2, "time_elapsed": 565387, "type": "FREE_RECALL", "trial_index": 115}, "uniqueid": "MTK1840:3I02618YA1DNK71COQSE039KUNLUPB", "dateTime": 1516477877924}, {"current_trial": 116, "trialdata": {"rt": 2319, "trial_type": "text", "internal_node_id": "0.0-89.0", "time_elapsed": 569714, "key_press": 32, "type": "INSTRUCTIONS", "trial_index": 116}, "uniqueid": "MTK1840:3I02618YA1DNK71COQSE039KUNLUPB", "dateTime": 1516477882247}, {"current_trial": 117, "trialdata": {"rt": [2854, 4996, 11336, 14462, 15966, 17827, 19489, 21175, 22664], "trial_type": "math-distractor", "key_times": [2484, 2693, 2854, 4759, 4996, 10731, 10961, 11336, 14072, 14181, 14462, 15744, 15966, 17517, 17674, 17827, 18979, 19294, 19489, 20838, 20972, 21175, 22522, 22664], "responses": ["12", "7", "24", "20", "9", "15", "13", "15", "7"], "num2": [5, 2, 9, 8, 1, 1, 7, 1, 3, 6], "num3": [4, 4, 8, 9, 1, 7, 3, 5, 1, 2], "conditions": [12, 1600, "v", 24000], "internal_node_id": "0.0-90.0", "key_presses": [49, 50, 13, 55, 13, 50, 52, 13, 50, 48, 13, 57, 13, 49, 53, 13, 49, 51, 13, 49, 53, 13, 55, 13], "trial": 3, "time_elapsed": 595724, "type": "DISTRACTOR", "trial_index": 117, "num1": [3, 1, 7, 3, 7, 7, 3, 9, 3, 1]}, "uniqueid": "MTK1840:3I02618YA1DNK71COQSE039KUNLUPB", "dateTime": 1516477908257}, {"current_trial": 118, "trialdata": {"rt": -1, "trial_type": "single-stim", "stimulus": "<p id=\"stim\">10</p>", "internal_node_id": "0.0-91.0-0.0", "time_elapsed": 598732, "key_press": -1, "trial_index": 118}, "uniqueid": "MTK1840:3I02618YA1DNK71COQSE039KUNLUPB", "dateTime": 1516477911265}, {"current_trial": 119, "trialdata": {"rt": -1, "trial_type": "single-stim", "stimulus": "<p id=\"stim\">9</p>", "internal_node_id": "0.0-91.0-1.0", "time_elapsed": 599736, "key_press": -1, "trial_index": 119}, "uniqueid": "MTK1840:3I02618YA1DNK71COQSE039KUNLUPB", "dateTime": 1516477912269}, {"current_trial": 120, "trialdata": {"rt": -1, "trial_type": "single-stim", "stimulus": "<p id=\"stim\">8</p>", "internal_node_id": "0.0-91.0-2.0", "time_elapsed": 600739, "key_press": -1, "trial_index": 120}, "uniqueid": "MTK1840:3I02618YA1DNK71COQSE039KUNLUPB", "dateTime": 1516477913272}, {"current_trial": 121, "trialdata": {"rt": -1, "trial_type": "single-stim", "stimulus": "<p id=\"stim\">7</p>", "internal_node_id": "0.0-91.0-3.0", "time_elapsed": 601741, "key_press": -1, "trial_index": 121}, "uniqueid": "MTK1840:3I02618YA1DNK71COQSE039KUNLUPB", "dateTime": 1516477914274}, {"current_trial": 122, "trialdata": {"rt": -1, "trial_type": "single-stim", "stimulus": "<p id=\"stim\">6</p>", "internal_node_id": "0.0-91.0-4.0", "time_elapsed": 602746, "key_press": -1, "trial_index": 122}, "uniqueid": "MTK1840:3I02618YA1DNK71COQSE039KUNLUPB", "dateTime": 1516477915279}, {"current_trial": 123, "trialdata": {"rt": -1, "trial_type": "single-stim", "stimulus": "<p id=\"stim\">5</p>", "internal_node_id": "0.0-91.0-5.0", "time_elapsed": 603749, "key_press": -1, "trial_index": 123}, "uniqueid": "MTK1840:3I02618YA1DNK71COQSE039KUNLUPB", "dateTime": 1516477916283}, {"current_trial": 124, "trialdata": {"rt": -1, "trial_type": "single-stim", "stimulus": "<p id=\"stim\">4</p>", "internal_node_id": "0.0-91.0-6.0", "time_elapsed": 604753, "key_press": -1, "trial_index": 124}, "uniqueid": "MTK1840:3I02618YA1DNK71COQSE039KUNLUPB", "dateTime": 1516477917286}, {"current_trial": 125, "trialdata": {"rt": -1, "trial_type": "single-stim", "stimulus": "<p id=\"stim\">3</p>", "internal_node_id": "0.0-91.0-7.0", "time_elapsed": 605755, "key_press": -1, "trial_index": 125}, "uniqueid": "MTK1840:3I02618YA1DNK71COQSE039KUNLUPB", "dateTime": 1516477918288}, {"current_trial": 126, "trialdata": {"rt": -1, "trial_type": "single-stim", "stimulus": "<p id=\"stim\">2</p>", "internal_node_id": "0.0-91.0-8.0", "time_elapsed": 606759, "key_press": -1, "trial_index": 126}, "uniqueid": "MTK1840:3I02618YA1DNK71COQSE039KUNLUPB", "dateTime": 1516477919292}, {"current_trial": 127, "trialdata": {"rt": -1, "trial_type": "single-stim", "stimulus": "<p id=\"stim\">1</p>", "internal_node_id": "0.0-91.0-9.0", "time_elapsed": 607764, "key_press": -1, "trial_index": 127}, "uniqueid": "MTK1840:3I02618YA1DNK71COQSE039KUNLUPB", "dateTime": 1516477920297}, {"current_trial": 128, "trialdata": {"rt": -1, "trial_type": "single-stim", "stimulus": "<p id=\"stim\">+</p>", "internal_node_id": "0.0-92.0-0.0", "time_elapsed": 609268, "key_press": -1, "type": "FIXATION", "trial_index": 128}, "uniqueid": "MTK1840:3I02618YA1DNK71COQSE039KUNLUPB", "dateTime": 1516477921801}, {"current_trial": 129, "trialdata": {"rt": -1, "trial_type": "single-stim", "word": "marrow", "stimulus": "<p id=\"stim\">MARROW</p>", "conditions": [12, 1600, "v", 24000], "internal_node_id": "0.0-93.0", "trial": 3, "time_elapsed": 610872, "serialpos": 0, "key_press": -1, "wordID": 871, "type": "PRES_VIS", "trial_index": 129}, "uniqueid": "MTK1840:3I02618YA1DNK71COQSE039KUNLUPB", "dateTime": 1516477923405}, {"current_trial": 130, "trialdata": {"rt": -1, "trial_type": "single-stim", "word": "hood", "stimulus": "<p id=\"stim\">HOOD</p>", "conditions": [12, 1600, "v", 24000], "internal_node_id": "0.0-94.0", "trial": 3, "time_elapsed": 613401, "serialpos": 1, "key_press": -1, "wordID": 713, "type": "PRES_VIS", "trial_index": 130}, "uniqueid": "MTK1840:3I02618YA1DNK71COQSE039KUNLUPB", "dateTime": 1516477925934}, {"current_trial": 131, "trialdata": {"rt": -1, "trial_type": "single-stim", "word": "suitcase", "stimulus": "<p id=\"stim\">SUITCASE</p>", "conditions": [12, 1600, "v", 24000], "internal_node_id": "0.0-95.0", "trial": 3, "time_elapsed": 616013, "serialpos": 2, "key_press": -1, "wordID": 1402, "type": "PRES_VIS", "trial_index": 131}, "uniqueid": "MTK1840:3I02618YA1DNK71COQSE039KUNLUPB", "dateTime": 1516477928546}, {"current_trial": 132, "trialdata": {"rt": -1, "trial_type": "single-stim", "word": "blade", "stimulus": "<p id=\"stim\">BLADE</p>", "conditions": [12, 1600, "v", 24000], "internal_node_id": "0.0-96.0", "trial": 3, "time_elapsed": 618573, "serialpos": 3, "key_press": -1, "wordID": 133, "type": "PRES_VIS", "trial_index": 132}, "uniqueid": "MTK1840:3I02618YA1DNK71COQSE039KUNLUPB", "dateTime": 1516477931106}, {"current_trial": 133, "trialdata": {"rt": -1, "trial_type": "single-stim", "word": "husband", "stimulus": "<p id=\"stim\">HUSBAND</p>", "conditions": [12, 1600, "v", 24000], "internal_node_id": "0.0-97.0", "trial": 3, "time_elapsed": 621353, "serialpos": 4, "key_press": -1, "wordID": 727, "type": "PRES_VIS", "trial_index": 133}, "uniqueid": "MTK1840:3I02618YA1DNK71COQSE039KUNLUPB", "dateTime": 1516477933886}, {"current_trial": 134, "trialdata": {"rt": -1, "trial_type": "single-stim", "word": "leg", "stimulus": "<p id=\"stim\">LEG</p>", "conditions": [12, 1600, "v", 24000], "internal_node_id": "0.0-98.0", "trial": 3, "time_elapsed": 623998, "serialpos": 5, "key_press": -1, "wordID": 808, "type": "PRES_VIS", "trial_index": 134}, "uniqueid": "MTK1840:3I02618YA1DNK71COQSE039KUNLUPB", "dateTime": 1516477936532}, {"current_trial": 135, "trialdata": {"rt": -1, "trial_type": "single-stim", "word": "arm", "stimulus": "<p id=\"stim\">ARM</p>", "conditions": [12, 1600, "v", 24000], "internal_node_id": "0.0-99.0", "trial": 3, "time_elapsed": 626760, "serialpos": 6, "key_press": -1, "wordID": 37, "type": "PRES_VIS", "trial_index": 135}, "uniqueid": "MTK1840:3I02618YA1DNK71COQSE039KUNLUPB", "dateTime": 1516477939293}, {"current_trial": 136, "trialdata": {"rt": -1, "trial_type": "single-stim", "word": "peanut", "stimulus": "<p id=\"stim\">PEANUT</p>", "conditions": [12, 1600, "v", 24000], "internal_node_id": "0.0-100.0", "trial": 3, "time_elapsed": 629297, "serialpos": 7, "key_press": -1, "wordID": 1031, "type": "PRES_VIS", "trial_index": 136}, "uniqueid": "MTK1840:3I02618YA1DNK71COQSE039KUNLUPB", "dateTime": 1516477941830}, {"current_trial": 137, "trialdata": {"rt": -1, "trial_type": "single-stim", "word": "clam", "stimulus": "<p id=\"stim\">CLAM</p>", "conditions": [12, 1600, "v", 24000], "internal_node_id": "0.0-101.0", "trial": 3, "time_elapsed": 631885, "serialpos": 8, "key_press": -1, "wordID": 314, "type": "PRES_VIS", "trial_index": 137}, "uniqueid": "MTK1840:3I02618YA1DNK71COQSE039KUNLUPB", "dateTime": 1516477944418}, {"current_trial": 138, "trialdata": {"rt": -1, "trial_type": "single-stim", "word": "daughter", "stimulus": "<p id=\"stim\">DAUGHTER</p>", "conditions": [12, 1600, "v", 24000], "internal_node_id": "0.0-102.0", "trial": 3, "time_elapsed": 634662, "serialpos": 9, "key_press": -1, "wordID": 441, "type": "PRES_VIS", "trial_index": 138}, "uniqueid": "MTK1840:3I02618YA1DNK71COQSE039KUNLUPB", "dateTime": 1516477947196}, {"current_trial": 139, "trialdata": {"rt": -1, "trial_type": "single-stim", "word": "nightgown", "stimulus": "<p id=\"stim\">NIGHTGOWN</p>", "conditions": [12, 1600, "v", 24000], "internal_node_id": "0.0-103.0", "trial": 3, "time_elapsed": 637315, "serialpos": 10, "key_press": -1, "wordID": 952, "type": "PRES_VIS", "trial_index": 139}, "uniqueid": "MTK1840:3I02618YA1DNK71COQSE039KUNLUPB", "dateTime": 1516477949848}, {"current_trial": 140, "trialdata": {"rt": -1, "trial_type": "single-stim", "word": "witness", "stimulus": "<p id=\"stim\">WITNESS</p>", "conditions": [12, 1600, "v", 24000], "internal_node_id": "0.0-104.0", "trial": 3, "time_elapsed": 639791, "serialpos": 11, "key_press": -1, "wordID": 1617, "type": "PRES_VIS", "trial_index": 140}, "uniqueid": "MTK1840:3I02618YA1DNK71COQSE039KUNLUPB", "dateTime": 1516477952324}, {"current_trial": 141, "trialdata": {"rt": -1, "trial_type": "single-stim", "stimulus": "", "internal_node_id": "0.0-105.0-0.0", "time_elapsed": 642349, "key_press": -1, "type": "PRE_RECALL_DELAY", "trial_index": 141}, "uniqueid": "MTK1840:3I02618YA1DNK71COQSE039KUNLUPB", "dateTime": 1516477954882}, {"current_trial": 142, "trialdata": {"rt": -1000, "trial_type": "single-audio", "stimulus": "/static/audio/400Hz.wav", "internal_node_id": "0.0-106.0", "time_elapsed": 642857, "key_press": -1, "type": "PRE_RECALL_ALERT", "trial_index": 142}, "uniqueid": "MTK1840:3I02618YA1DNK71COQSE039KUNLUPB", "dateTime": 1516477955390}, {"current_trial": 143, "trialdata": {"rt": [1679, 3025, 5538, 16352, 19970, 50382], "recwords": ["arm", "leg", "husband", "blade", "calm", "hunger"], "key_times": [1240, 1336, 1504, 1679, 2482, 2594, 2725, 3025, 4649, 4749, 4869, 5106, 5192, 5307, 5410, 5538, 15747, 15854, 15917, 16034, 16222, 16352, 19386, 19524, 19595, 19718, 19970, 49227, 49353, 49550, 49988, 50205, 50265, 50382], "trial_type": "free-recall", "conditions": [12, 1600, "v", 24000], "internal_node_id": "0.0-107.0-0.0", "key_presses": [65, 82, 77, 32, 76, 69, 71, 13, 72, 85, 83, 66, 65, 78, 68, 13, 66, 76, 65, 68, 69, 13, 67, 65, 76, 77, 13, 72, 85, 78, 71, 69, 82, 13], "trial": 3, "time_elapsed": 702866, "type": "FREE_RECALL", "trial_index": 143}, "uniqueid": "MTK1840:3I02618YA1DNK71COQSE039KUNLUPB", "dateTime": 1516478015403}, {"current_trial": 144, "trialdata": {"rt": 1217, "trial_type": "text", "internal_node_id": "0.0-108.0", "time_elapsed": 706088, "key_press": 32, "type": "INSTRUCTIONS", "trial_index": 144}, "uniqueid": "MTK1840:3I02618YA1DNK71COQSE039KUNLUPB", "dateTime": 1516478018621}, {"current_trial": 145, "trialdata": {"rt": [4636, 7762, 9257, 10999], "trial_type": "math-distractor", "key_times": [4256, 4368, 4636, 6868, 7335, 7503, 7634, 7762, 9012, 9150, 9257, 10858, 10999], "responses": ["19", "21", "13", "8"], "num2": [8, 8, 3, 5, 5], "num3": [4, 4, 7, 1, 9], "conditions": [12, 1600, "v", 12000], "internal_node_id": "0.0-109.0", "key_presses": [49, 57, 13, 49, 8, 50, 49, 13, 49, 51, 13, 56, 13], "trial": 4, "time_elapsed": 720098, "type": "DISTRACTOR", "trial_index": 145, "num1": [7, 9, 3, 2, 4]}, "uniqueid": "MTK1840:3I02618YA1DNK71COQSE039KUNLUPB", "dateTime": 1516478032631}, {"current_trial": 146, "trialdata": {"rt": -1, "trial_type": "single-stim", "stimulus": "<p id=\"stim\">10</p>", "internal_node_id": "0.0-110.0-0.0", "time_elapsed": 723104, "key_press": -1, "trial_index": 146}, "uniqueid": "MTK1840:3I02618YA1DNK71COQSE039KUNLUPB", "dateTime": 1516478035637}, {"current_trial": 147, "trialdata": {"rt": -1, "trial_type": "single-stim", "stimulus": "<p id=\"stim\">9</p>", "internal_node_id": "0.0-110.0-1.0", "time_elapsed": 724105, "key_press": -1, "trial_index": 147}, "uniqueid": "MTK1840:3I02618YA1DNK71COQSE039KUNLUPB", "dateTime": 1516478036638}, {"current_trial": 148, "trialdata": {"rt": -1, "trial_type": "single-stim", "stimulus": "<p id=\"stim\">8</p>", "internal_node_id": "0.0-110.0-2.0", "time_elapsed": 725110, "key_press": -1, "trial_index": 148}, "uniqueid": "MTK1840:3I02618YA1DNK71COQSE039KUNLUPB", "dateTime": 1516478037643}, {"current_trial": 149, "trialdata": {"rt": -1, "trial_type": "single-stim", "stimulus": "<p id=\"stim\">7</p>", "internal_node_id": "0.0-110.0-3.0", "time_elapsed": 726115, "key_press": -1, "trial_index": 149}, "uniqueid": "MTK1840:3I02618YA1DNK71COQSE039KUNLUPB", "dateTime": 1516478038648}, {"current_trial": 150, "trialdata": {"rt": -1, "trial_type": "single-stim", "stimulus": "<p id=\"stim\">6</p>", "internal_node_id": "0.0-110.0-4.0", "time_elapsed": 727118, "key_press": -1, "trial_index": 150}, "uniqueid": "MTK1840:3I02618YA1DNK71COQSE039KUNLUPB", "dateTime": 1516478039651}, {"current_trial": 151, "trialdata": {"rt": -1, "trial_type": "single-stim", "stimulus": "<p id=\"stim\">5</p>", "internal_node_id": "0.0-110.0-5.0", "time_elapsed": 728121, "key_press": -1, "trial_index": 151}, "uniqueid": "MTK1840:3I02618YA1DNK71COQSE039KUNLUPB", "dateTime": 1516478040654}, {"current_trial": 152, "trialdata": {"rt": -1, "trial_type": "single-stim", "stimulus": "<p id=\"stim\">4</p>", "internal_node_id": "0.0-110.0-6.0", "time_elapsed": 729125, "key_press": -1, "trial_index": 152}, "uniqueid": "MTK1840:3I02618YA1DNK71COQSE039KUNLUPB", "dateTime": 1516478041658}, {"current_trial": 153, "trialdata": {"rt": -1, "trial_type": "single-stim", "stimulus": "<p id=\"stim\">3</p>", "internal_node_id": "0.0-110.0-7.0", "time_elapsed": 730130, "key_press": -1, "trial_index": 153}, "uniqueid": "MTK1840:3I02618YA1DNK71COQSE039KUNLUPB", "dateTime": 1516478042663}, {"current_trial": 154, "trialdata": {"rt": -1, "trial_type": "single-stim", "stimulus": "<p id=\"stim\">2</p>", "internal_node_id": "0.0-110.0-8.0", "time_elapsed": 731136, "key_press": -1, "trial_index": 154}, "uniqueid": "MTK1840:3I02618YA1DNK71COQSE039KUNLUPB", "dateTime": 1516478043669}, {"current_trial": 155, "trialdata": {"rt": -1, "trial_type": "single-stim", "stimulus": "<p id=\"stim\">1</p>", "internal_node_id": "0.0-110.0-9.0", "time_elapsed": 732140, "key_press": -1, "trial_index": 155}, "uniqueid": "MTK1840:3I02618YA1DNK71COQSE039KUNLUPB", "dateTime": 1516478044673}, {"current_trial": 156, "trialdata": {"rt": -1, "trial_type": "single-stim", "stimulus": "<p id=\"stim\">+</p>", "internal_node_id": "0.0-111.0-0.0", "time_elapsed": 733643, "key_press": -1, "type": "FIXATION", "trial_index": 156}, "uniqueid": "MTK1840:3I02618YA1DNK71COQSE039KUNLUPB", "dateTime": 1516478046176}, {"current_trial": 157, "trialdata": {"rt": -1, "trial_type": "single-stim", "word": "swimmer", "stimulus": "<p id=\"stim\">SWIMMER</p>", "conditions": [12, 1600, "v", 12000], "internal_node_id": "0.0-112.0", "trial": 4, "time_elapsed": 735245, "serialpos": 0, "key_press": -1, "wordID": 1419, "type": "PRES_VIS", "trial_index": 157}, "uniqueid": "MTK1840:3I02618YA1DNK71COQSE039KUNLUPB", "dateTime": 1516478047779}, {"current_trial": 158, "trialdata": {"rt": -1, "trial_type": "single-stim", "word": "gravel", "stimulus": "<p id=\"stim\">GRAVEL</p>", "conditions": [12, 1600, "v", 12000], "internal_node_id": "0.0-113.0", "trial": 4, "time_elapsed": 737699, "serialpos": 1, "key_press": -1, "wordID": 658, "type": "PRES_VIS", "trial_index": 158}, "uniqueid": "MTK1840:3I02618YA1DNK71COQSE039KUNLUPB", "dateTime": 1516478050233}, {"current_trial": 159, "trialdata": {"rt": -1, "trial_type": "single-stim", "word": "bouquet", "stimulus": "<p id=\"stim\">BOUQUET</p>", "conditions": [12, 1600, "v", 12000], "internal_node_id": "0.0-114.0", "trial": 4, "time_elapsed": 740287, "serialpos": 2, "key_press": -1, "wordID": 156, "type": "PRES_VIS", "trial_index": 159}, "uniqueid": "MTK1840:3I02618YA1DNK71COQSE039KUNLUPB", "dateTime": 1516478052820}, {"current_trial": 160, "trialdata": {"rt": -1, "trial_type": "single-stim", "word": "diver", "stimulus": "<p id=\"stim\">DIVER</p>", "conditions": [12, 1600, "v", 12000], "internal_node_id": "0.0-115.0", "trial": 4, "time_elapsed": 743035, "serialpos": 3, "key_press": -1, "wordID": 475, "type": "PRES_VIS", "trial_index": 160}, "uniqueid": "MTK1840:3I02618YA1DNK71COQSE039KUNLUPB", "dateTime": 1516478055568}, {"current_trial": 161, "trialdata": {"rt": -1, "trial_type": "single-stim", "word": "panther", "stimulus": "<p id=\"stim\">PANTHER</p>", "conditions": [12, 1600, "v", 12000], "internal_node_id": "0.0-116.0", "trial": 4, "time_elapsed": 745800, "serialpos": 4, "key_press": -1, "wordID": 1008, "type": "PRES_VIS", "trial_index": 161}, "uniqueid": "MTK1840:3I02618YA1DNK71COQSE039KUNLUPB", "dateTime": 1516478058334}, {"current_trial": 162, "trialdata": {"rt": -1, "trial_type": "single-stim", "word": "possum", "stimulus": "<p id=\"stim\">POSSUM</p>", "conditions": [12, 1600, "v", 12000], "internal_node_id": "0.0-117.0", "trial": 4, "time_elapsed": 748379, "serialpos": 5, "key_press": -1, "wordID": 1111, "type": "PRES_VIS", "trial_index": 162}, "uniqueid": "MTK1840:3I02618YA1DNK71COQSE039KUNLUPB", "dateTime": 1516478060912}, {"current_trial": 163, "trialdata": {"rt": -1, "trial_type": "single-stim", "word": "garden", "stimulus": "<p id=\"stim\">GARDEN</p>", "conditions": [12, 1600, "v", 12000], "internal_node_id": "0.0-118.0", "trial": 4, "time_elapsed": 751181, "serialpos": 6, "key_press": -1, "wordID": 622, "type": "PRES_VIS", "trial_index": 163}, "uniqueid": "MTK1840:3I02618YA1DNK71COQSE039KUNLUPB", "dateTime": 1516478063714}, {"current_trial": 164, "trialdata": {"rt": -1, "trial_type": "single-stim", "word": "laser", "stimulus": "<p id=\"stim\">LASER</p>", "conditions": [12, 1600, "v", 12000], "internal_node_id": "0.0-119.0", "trial": 4, "time_elapsed": 753949, "serialpos": 7, "key_press": -1, "wordID": 800, "type": "PRES_VIS", "trial_index": 164}, "uniqueid": "MTK1840:3I02618YA1DNK71COQSE039KUNLUPB", "dateTime": 1516478066482}, {"current_trial": 165, "trialdata": {"rt": -1, "trial_type": "single-stim", "word": "egypt", "stimulus": "<p id=\"stim\">EGYPT</p>", "conditions": [12, 1600, "v", 12000], "internal_node_id": "0.0-120.0", "trial": 4, "time_elapsed": 756506, "serialpos": 8, "key_press": -1, "wordID": 518, "type": "PRES_VIS", "trial_index": 165}, "uniqueid": "MTK1840:3I02618YA1DNK71COQSE039KUNLUPB", "dateTime": 1516478069039}, {"current_trial": 166, "trialdata": {"rt": -1, "trial_type": "single-stim", "word": "world", "stimulus": "<p id=\"stim\">WORLD</p>", "conditions": [12, 1600, "v", 12000], "internal_node_id": "0.0-121.0", "trial": 4, "time_elapsed": 759064, "serialpos": 9, "key_press": -1, "wordID": 1621, "type": "PRES_VIS", "trial_index": 166}, "uniqueid": "MTK1840:3I02618YA1DNK71COQSE039KUNLUPB", "dateTime": 1516478071597}, {"current_trial": 167, "trialdata": {"rt": -1, "trial_type": "single-stim", "word": "radish", "stimulus": "<p id=\"stim\">RADISH</p>", "conditions": [12, 1600, "v", 12000], "internal_node_id": "0.0-122.0", "trial": 4, "time_elapsed": 761576, "serialpos": 10, "key_press": -1, "wordID": 1157, "type": "PRES_VIS", "trial_index": 167}, "uniqueid": "MTK1840:3I02618YA1DNK71COQSE039KUNLUPB", "dateTime": 1516478074109}, {"current_trial": 168, "trialdata": {"rt": -1, "trial_type": "single-stim", "word": "fireman", "stimulus": "<p id=\"stim\">FIREMAN</p>", "conditions": [12, 1600, "v", 12000], "internal_node_id": "0.0-123.0", "trial": 4, "time_elapsed": 764234, "serialpos": 11, "key_press": -1, "wordID": 568, "type": "PRES_VIS", "trial_index": 168}, "uniqueid": "MTK1840:3I02618YA1DNK71COQSE039KUNLUPB", "dateTime": 1516478076767}, {"current_trial": 169, "trialdata": {"rt": -1, "trial_type": "single-stim", "stimulus": "", "internal_node_id": "0.0-124.0-0.0", "time_elapsed": 766544, "key_press": -1, "type": "PRE_RECALL_DELAY", "trial_index": 169}, "uniqueid": "MTK1840:3I02618YA1DNK71COQSE039KUNLUPB", "dateTime": 1516478079077}, {"current_trial": 170, "trialdata": {"rt": -1000, "trial_type": "single-audio", "stimulus": "/static/audio/400Hz.wav", "internal_node_id": "0.0-125.0", "time_elapsed": 767046, "key_press": -1, "type": "PRE_RECALL_ALERT", "trial_index": 170}, "uniqueid": "MTK1840:3I02618YA1DNK71COQSE039KUNLUPB", "dateTime": 1516478079579}, {"current_trial": 171, "trialdata": {"rt": [3220, 4296, 6464, 10315], "recwords": ["swimmer", "garden", "diver", "bouquet"], "key_times": [1143, 1488, 2057, 2381, 2555, 2739, 2866, 2963, 3041, 3220, 3476, 3570, 3674, 3881, 4035, 4116, 4296, 5771, 5956, 6056, 6243, 6347, 6464, 8089, 8311, 8547, 8711, 9378, 9541, 9717, 9808, 9935, 10315], "trial_type": "free-recall", "conditions": [12, 1600, "v", 12000], "internal_node_id": "0.0-126.0-0.0", "key_presses": [83, 73, 8, 87, 73, 77, 77, 69, 82, 13, 71, 65, 82, 68, 69, 78, 13, 68, 73, 86, 69, 82, 13, 66, 79, 85, 71, 8, 81, 85, 69, 84, 13], "trial": 4, "time_elapsed": 827053, "type": "FREE_RECALL", "trial_index": 171}, "uniqueid": "MTK1840:3I02618YA1DNK71COQSE039KUNLUPB", "dateTime": 1516478139590}, {"current_trial": 172, "trialdata": {"rt": 1674, "trial_type": "text", "internal_node_id": "0.0-127.0", "time_elapsed": 830735, "key_press": 32, "type": "INSTRUCTIONS", "trial_index": 172}, "uniqueid": "MTK1840:3I02618YA1DNK71COQSE039KUNLUPB", "dateTime": 1516478143268}, {"current_trial": 173, "trialdata": {"rt": [2169, 3361, 4789, 6673, 8453, 11235, 14011, 16167, 19397, 20984, 23555], "trial_type": "math-distractor", "key_times": [1846, 1929, 2169, 2925, 3098, 3361, 4518, 4690, 4789, 6320, 6457, 6673, 8067, 8269, 8453, 10828, 10967, 11235, 13361, 13706, 14011, 15873, 15976, 16167, 18953, 19108, 19397, 20718, 20843, 20984, 23138, 23171, 23555], "responses": ["17", "11", "15", "18", "15", "17", "13", "13", "26", "24", "13"], "num2": [7, 5, 6, 2, 2, 9, 9, 7, 9, 8, 4, 6], "num3": [3, 1, 4, 9, 8, 7, 3, 4, 8, 8, 2, 1], "conditions": [12, 800, "v", 24000], "internal_node_id": "0.0-128.0", "key_presses": [49, 55, 13, 49, 49, 13, 49, 53, 13, 49, 56, 13, 49, 53, 13, 49, 55, 13, 49, 51, 13, 49, 51, 13, 50, 54, 13, 50, 52, 13, 49, 51, 13], "trial": 5, "time_elapsed": 856744, "type": "DISTRACTOR", "trial_index": 173, "num1": [7, 5, 5, 7, 5, 5, 1, 2, 9, 8, 7, 4]}, "uniqueid": "MTK1840:3I02618YA1DNK71COQSE039KUNLUPB", "dateTime": 1516478169277}, {"current_trial": 174, "trialdata": {"rt": -1, "trial_type": "single-stim", "stimulus": "<p id=\"stim\">10</p>", "internal_node_id": "0.0-129.0-0.0", "time_elapsed": 859749, "key_press": -1, "trial_index": 174}, "uniqueid": "MTK1840:3I02618YA1DNK71COQSE039KUNLUPB", "dateTime": 1516478172283}, {"current_trial": 175, "trialdata": {"rt": -1, "trial_type": "single-stim", "stimulus": "<p id=\"stim\">9</p>", "internal_node_id": "0.0-129.0-1.0", "time_elapsed": 860754, "key_press": -1, "trial_index": 175}, "uniqueid": "MTK1840:3I02618YA1DNK71COQSE039KUNLUPB", "dateTime": 1516478173287}, {"current_trial": 176, "trialdata": {"rt": -1, "trial_type": "single-stim", "stimulus": "<p id=\"stim\">8</p>", "internal_node_id": "0.0-129.0-2.0", "time_elapsed": 861758, "key_press": -1, "trial_index": 176}, "uniqueid": "MTK1840:3I02618YA1DNK71COQSE039KUNLUPB", "dateTime": 1516478174291}, {"current_trial": 177, "trialdata": {"rt": -1, "trial_type": "single-stim", "stimulus": "<p id=\"stim\">7</p>", "internal_node_id": "0.0-129.0-3.0", "time_elapsed": 862763, "key_press": -1, "trial_index": 177}, "uniqueid": "MTK1840:3I02618YA1DNK71COQSE039KUNLUPB", "dateTime": 1516478175297}, {"current_trial": 178, "trialdata": {"rt": -1, "trial_type": "single-stim", "stimulus": "<p id=\"stim\">6</p>", "internal_node_id": "0.0-129.0-4.0", "time_elapsed": 863768, "key_press": -1, "trial_index": 178}, "uniqueid": "MTK1840:3I02618YA1DNK71COQSE039KUNLUPB", "dateTime": 1516478176301}, {"current_trial": 179, "trialdata": {"rt": -1, "trial_type": "single-stim", "stimulus": "<p id=\"stim\">5</p>", "internal_node_id": "0.0-129.0-5.0", "time_elapsed": 864770, "key_press": -1, "trial_index": 179}, "uniqueid": "MTK1840:3I02618YA1DNK71COQSE039KUNLUPB", "dateTime": 1516478177303}, {"current_trial": 180, "trialdata": {"rt": -1, "trial_type": "single-stim", "stimulus": "<p id=\"stim\">4</p>", "internal_node_id": "0.0-129.0-6.0", "time_elapsed": 865774, "key_press": -1, "trial_index": 180}, "uniqueid": "MTK1840:3I02618YA1DNK71COQSE039KUNLUPB", "dateTime": 1516478178307}, {"current_trial": 181, "trialdata": {"rt": -1, "trial_type": "single-stim", "stimulus": "<p id=\"stim\">3</p>", "internal_node_id": "0.0-129.0-7.0", "time_elapsed": 866777, "key_press": -1, "trial_index": 181}, "uniqueid": "MTK1840:3I02618YA1DNK71COQSE039KUNLUPB", "dateTime": 1516478179311}, {"current_trial": 182, "trialdata": {"rt": -1, "trial_type": "single-stim", "stimulus": "<p id=\"stim\">2</p>", "internal_node_id": "0.0-129.0-8.0", "time_elapsed": 867781, "key_press": -1, "trial_index": 182}, "uniqueid": "MTK1840:3I02618YA1DNK71COQSE039KUNLUPB", "dateTime": 1516478180315}, {"current_trial": 183, "trialdata": {"rt": -1, "trial_type": "single-stim", "stimulus": "<p id=\"stim\">1</p>", "internal_node_id": "0.0-129.0-9.0", "time_elapsed": 868786, "key_press": -1, "trial_index": 183}, "uniqueid": "MTK1840:3I02618YA1DNK71COQSE039KUNLUPB", "dateTime": 1516478181319}, {"current_trial": 184, "trialdata": {"rt": -1, "trial_type": "single-stim", "stimulus": "<p id=\"stim\">+</p>", "internal_node_id": "0.0-130.0-0.0", "time_elapsed": 870291, "key_press": -1, "type": "FIXATION", "trial_index": 184}, "uniqueid": "MTK1840:3I02618YA1DNK71COQSE039KUNLUPB", "dateTime": 1516478182824}, {"current_trial": 185, "trialdata": {"rt": -1, "trial_type": "single-stim", "word": "snake", "stimulus": "<p id=\"stim\">SNAKE</p>", "conditions": [12, 800, "v", 24000], "internal_node_id": "0.0-131.0", "trial": 5, "time_elapsed": 871094, "serialpos": 0, "key_press": -1, "wordID": 1332, "type": "PRES_VIS", "trial_index": 185}, "uniqueid": "MTK1840:3I02618YA1DNK71COQSE039KUNLUPB", "dateTime": 1516478183627}, {"current_trial": 186, "trialdata": {"rt": -1, "trial_type": "single-stim", "word": "canal", "stimulus": "<p id=\"stim\">CANAL</p>", "conditions": [12, 800, "v", 24000], "internal_node_id": "0.0-132.0", "trial": 5, "time_elapsed": 872778, "serialpos": 1, "key_press": -1, "wordID": 225, "type": "PRES_VIS", "trial_index": 186}, "uniqueid": "MTK1840:3I02618YA1DNK71COQSE039KUNLUPB", "dateTime": 1516478185311}, {"current_trial": 187, "trialdata": {"rt": -1, "trial_type": "single-stim", "word": "knapsack", "stimulus": "<p id=\"stim\">KNAPSACK</p>", "conditions": [12, 800, "v", 24000], "internal_node_id": "0.0-133.0", "trial": 5, "time_elapsed": 874648, "serialpos": 2, "key_press": -1, "wordID": 782, "type": "PRES_VIS", "trial_index": 187}, "uniqueid": "MTK1840:3I02618YA1DNK71COQSE039KUNLUPB", "dateTime": 1516478187181}, {"current_trial": 188, "trialdata": {"rt": -1, "trial_type": "single-stim", "word": "briefcase", "stimulus": "<p id=\"stim\">BRIEFCASE</p>", "conditions": [12, 800, "v", 24000], "internal_node_id": "0.0-134.0", "trial": 5, "time_elapsed": 876291, "serialpos": 3, "key_press": -1, "wordID": 174, "type": "PRES_VIS", "trial_index": 188}, "uniqueid": "MTK1840:3I02618YA1DNK71COQSE039KUNLUPB", "dateTime": 1516478188824}, {"current_trial": 189, "trialdata": {"rt": -1, "trial_type": "single-stim", "word": "turtle", "stimulus": "<p id=\"stim\">TURTLE</p>", "conditions": [12, 800, "v", 24000], "internal_node_id": "0.0-135.0", "trial": 5, "time_elapsed": 878174, "serialpos": 4, "key_press": -1, "wordID": 1521, "type": "PRES_VIS", "trial_index": 189}, "uniqueid": "MTK1840:3I02618YA1DNK71COQSE039KUNLUPB", "dateTime": 1516478190707}, {"current_trial": 190, "trialdata": {"rt": -1, "trial_type": "single-stim", "word": "police", "stimulus": "<p id=\"stim\">POLICE</p>", "conditions": [12, 800, "v", 24000], "internal_node_id": "0.0-136.0", "trial": 5, "time_elapsed": 879947, "serialpos": 5, "key_press": -1, "wordID": 1097, "type": "PRES_VIS", "trial_index": 190}, "uniqueid": "MTK1840:3I02618YA1DNK71COQSE039KUNLUPB", "dateTime": 1516478192480}, {"current_trial": 191, "trialdata": {"rt": -1, "trial_type": "single-stim", "word": "church", "stimulus": "<p id=\"stim\">CHURCH</p>", "conditions": [12, 800, "v", 24000], "internal_node_id": "0.0-137.0", "trial": 5, "time_elapsed": 881739, "serialpos": 6, "key_press": -1, "wordID": 306, "type": "PRES_VIS", "trial_index": 191}, "uniqueid": "MTK1840:3I02618YA1DNK71COQSE039KUNLUPB", "dateTime": 1516478194272}, {"current_trial": 192, "trialdata": {"rt": -1, "trial_type": "single-stim", "word": "butcher", "stimulus": "<p id=\"stim\">BUTCHER</p>", "conditions": [12, 800, "v", 24000], "internal_node_id": "0.0-138.0", "trial": 5, "time_elapsed": 883734, "serialpos": 7, "key_press": -1, "wordID": 202, "type": "PRES_VIS", "trial_index": 192}, "uniqueid": "MTK1840:3I02618YA1DNK71COQSE039KUNLUPB", "dateTime": 1516478196267}, {"current_trial": 193, "trialdata": {"rt": -1, "trial_type": "single-stim", "word": "lava", "stimulus": "<p id=\"stim\">LAVA</p>", "conditions": [12, 800, "v", 24000], "internal_node_id": "0.0-139.0", "trial": 5, "time_elapsed": 885602, "serialpos": 8, "key_press": -1, "wordID": 803, "type": "PRES_VIS", "trial_index": 193}, "uniqueid": "MTK1840:3I02618YA1DNK71COQSE039KUNLUPB", "dateTime": 1516478198135}, {"current_trial": 194, "trialdata": {"rt": -1, "trial_type": "single-stim", "word": "bike", "stimulus": "<p id=\"stim\">BIKE</p>", "conditions": [12, 800, "v", 24000], "internal_node_id": "0.0-140.0", "trial": 5, "time_elapsed": 887440, "serialpos": 9, "key_press": -1, "wordID": 124, "type": "PRES_VIS", "trial_index": 194}, "uniqueid": "MTK1840:3I02618YA1DNK71COQSE039KUNLUPB", "dateTime": 1516478199973}, {"current_trial": 195, "trialdata": {"rt": -1, "trial_type": "single-stim", "word": "france", "stimulus": "<p id=\"stim\">FRANCE</p>", "conditions": [12, 800, "v", 24000], "internal_node_id": "0.0-141.0", "trial": 5, "time_elapsed": 889050, "serialpos": 10, "key_press": -1, "wordID": 600, "type": "PRES_VIS", "trial_index": 195}, "uniqueid": "MTK1840:3I02618YA1DNK71COQSE039KUNLUPB", "dateTime": 1516478201583}, {"current_trial": 196, "trialdata": {"rt": -1, "trial_type": "single-stim", "word": "widow", "stimulus": "<p id=\"stim\">WIDOW</p>", "conditions": [12, 800, "v", 24000], "internal_node_id": "0.0-142.0", "trial": 5, "time_elapsed": 890824, "serialpos": 11, "key_press": -1, "wordID": 1607, "type": "PRES_VIS", "trial_index": 196}, "uniqueid": "MTK1840:3I02618YA1DNK71COQSE039KUNLUPB", "dateTime": 1516478203357}, {"current_trial": 197, "trialdata": {"rt": -1, "trial_type": "single-stim", "stimulus": "", "internal_node_id": "0.0-143.0-0.0", "time_elapsed": 893194, "key_press": -1, "type": "PRE_RECALL_DELAY", "trial_index": 197}, "uniqueid": "MTK1840:3I02618YA1DNK71COQSE039KUNLUPB", "dateTime": 1516478205727}, {"current_trial": 198, "trialdata": {"rt": -1000, "trial_type": "single-audio", "stimulus": "/static/audio/400Hz.wav", "internal_node_id": "0.0-144.0", "time_elapsed": 893702, "key_press": -1, "type": "PRE_RECALL_ALERT", "trial_index": 198}, "uniqueid": "MTK1840:3I02618YA1DNK71COQSE039KUNLUPB", "dateTime": 1516478206235}, {"current_trial": 199, "trialdata": {"rt": [1565, 2657, 3588, 8102, 30941], "recwords": ["widow", "bike", "france", "mother", "button"], "key_times": [512, 639, 793, 914, 1052, 1565, 2253, 2317, 2478, 2556, 2657, 2830, 2943, 3046, 3122, 3254, 3472, 3588, 7486, 7627, 7753, 7827, 7911, 8010, 8102, 29834, 29989, 30156, 30305, 30366, 30751, 30941], "trial_type": "free-recall", "conditions": [12, 800, "v", 24000], "internal_node_id": "0.0-145.0-0.0", "key_presses": [87, 73, 68, 79, 87, 13, 66, 73, 75, 69, 13, 70, 82, 65, 78, 67, 69, 13, 77, 79, 84, 72, 69, 82, 13, 66, 85, 84, 84, 79, 78, 13], "trial": 5, "time_elapsed": 953708, "type": "FREE_RECALL", "trial_index": 199}, "uniqueid": "MTK1840:3I02618YA1DNK71COQSE039KUNLUPB", "dateTime": 1516478266248}, {"current_trial": 200, "trialdata": {"rt": 1066, "trial_type": "text", "internal_node_id": "0.0-146.0", "time_elapsed": 956783, "key_press": 32, "type": "INSTRUCTIONS", "trial_index": 200}, "uniqueid": "MTK1840:3I02618YA1DNK71COQSE039KUNLUPB", "dateTime": 1516478269316}, {"current_trial": 201, "trialdata": {"rt": [2376, 5139, 6742, 8708, 11292, 13453, 15052, 19718, 21230, 23429], "trial_type": "math-distractor", "key_times": [1874, 2079, 2376, 4371, 4884, 5139, 6234, 6509, 6742, 8333, 8473, 8708, 11001, 11193, 11292, 13010, 13189, 13453, 14813, 14906, 15052, 18837, 19263, 19364, 19558, 19718, 20712, 21044, 21230, 23125, 23289, 23429], "responses": ["18", "13", "17", "17", "25", "17", "14", "21", "16", "22"], "num2": [8, 5, 2, 9, 9, 5, 1, 8, 9, 9, 5], "num3": [8, 1, 7, 4, 9, 6, 9, 7, 1, 9, 7], "conditions": [24, 800, "v", 24000], "internal_node_id": "0.0-147.0", "key_presses": [49, 56, 13, 49, 51, 13, 49, 55, 13, 49, 55, 13, 50, 53, 13, 49, 55, 13, 49, 52, 13, 49, 8, 50, 49, 13, 49, 54, 13, 50, 50, 13], "trial": 6, "time_elapsed": 982788, "type": "DISTRACTOR", "trial_index": 201, "num1": [3, 7, 8, 4, 7, 6, 4, 6, 6, 4, 5]}, "uniqueid": "MTK1840:3I02618YA1DNK71COQSE039KUNLUPB", "dateTime": 1516478295321}, {"current_trial": 202, "trialdata": {"rt": -1, "trial_type": "single-stim", "stimulus": "<p id=\"stim\">10</p>", "internal_node_id": "0.0-148.0-0.0", "time_elapsed": 985795, "key_press": -1, "trial_index": 202}, "uniqueid": "MTK1840:3I02618YA1DNK71COQSE039KUNLUPB", "dateTime": 1516478298328}, {"current_trial": 203, "trialdata": {"rt": -1, "trial_type": "single-stim", "stimulus": "<p id=\"stim\">9</p>", "internal_node_id": "0.0-148.0-1.0", "time_elapsed": 986799, "key_press": -1, "trial_index": 203}, "uniqueid": "MTK1840:3I02618YA1DNK71COQSE039KUNLUPB", "dateTime": 1516478299332}, {"current_trial": 204, "trialdata": {"rt": -1, "trial_type": "single-stim", "stimulus": "<p id=\"stim\">8</p>", "internal_node_id": "0.0-148.0-2.0", "time_elapsed": 987801, "key_press": -1, "trial_index": 204}, "uniqueid": "MTK1840:3I02618YA1DNK71COQSE039KUNLUPB", "dateTime": 1516478300334}, {"current_trial": 205, "trialdata": {"rt": -1, "trial_type": "single-stim", "stimulus": "<p id=\"stim\">7</p>", "internal_node_id": "0.0-148.0-3.0", "time_elapsed": 988804, "key_press": -1, "trial_index": 205}, "uniqueid": "MTK1840:3I02618YA1DNK71COQSE039KUNLUPB", "dateTime": 1516478301338}, {"current_trial": 206, "trialdata": {"rt": -1, "trial_type": "single-stim", "stimulus": "<p id=\"stim\">6</p>", "internal_node_id": "0.0-148.0-4.0", "time_elapsed": 989807, "key_press": -1, "trial_index": 206}, "uniqueid": "MTK1840:3I02618YA1DNK71COQSE039KUNLUPB", "dateTime": 1516478302341}, {"current_trial": 207, "trialdata": {"rt": -1, "trial_type": "single-stim", "stimulus": "<p id=\"stim\">5</p>", "internal_node_id": "0.0-148.0-5.0", "time_elapsed": 990810, "key_press": -1, "trial_index": 207}, "uniqueid": "MTK1840:3I02618YA1DNK71COQSE039KUNLUPB", "dateTime": 1516478303343}, {"current_trial": 208, "trialdata": {"rt": -1, "trial_type": "single-stim", "stimulus": "<p id=\"stim\">4</p>", "internal_node_id": "0.0-148.0-6.0", "time_elapsed": 991815, "key_press": -1, "trial_index": 208}, "uniqueid": "MTK1840:3I02618YA1DNK71COQSE039KUNLUPB", "dateTime": 1516478304348}, {"current_trial": 209, "trialdata": {"rt": -1, "trial_type": "single-stim", "stimulus": "<p id=\"stim\">3</p>", "internal_node_id": "0.0-148.0-7.0", "time_elapsed": 992818, "key_press": -1, "trial_index": 209}, "uniqueid": "MTK1840:3I02618YA1DNK71COQSE039KUNLUPB", "dateTime": 1516478305351}, {"current_trial": 210, "trialdata": {"rt": -1, "trial_type": "single-stim", "stimulus": "<p id=\"stim\">2</p>", "internal_node_id": "0.0-148.0-8.0", "time_elapsed": 993821, "key_press": -1, "trial_index": 210}, "uniqueid": "MTK1840:3I02618YA1DNK71COQSE039KUNLUPB", "dateTime": 1516478306354}, {"current_trial": 211, "trialdata": {"rt": -1, "trial_type": "single-stim", "stimulus": "<p id=\"stim\">1</p>", "internal_node_id": "0.0-148.0-9.0", "time_elapsed": 994824, "key_press": -1, "trial_index": 211}, "uniqueid": "MTK1840:3I02618YA1DNK71COQSE039KUNLUPB", "dateTime": 1516478307358}, {"current_trial": 212, "trialdata": {"rt": -1, "trial_type": "single-stim", "stimulus": "<p id=\"stim\">+</p>", "internal_node_id": "0.0-149.0-0.0", "time_elapsed": 996330, "key_press": -1, "type": "FIXATION", "trial_index": 212}, "uniqueid": "MTK1840:3I02618YA1DNK71COQSE039KUNLUPB", "dateTime": 1516478308863}, {"current_trial": 213, "trialdata": {"rt": -1, "trial_type": "single-stim", "word": "japan", "stimulus": "<p id=\"stim\">JAPAN</p>", "conditions": [24, 800, "v", 24000], "internal_node_id": "0.0-150.0", "trial": 6, "time_elapsed": 997134, "serialpos": 0, "key_press": -1, "wordID": 748, "type": "PRES_VIS", "trial_index": 213}, "uniqueid": "MTK1840:3I02618YA1DNK71COQSE039KUNLUPB", "dateTime": 1516478309667}, {"current_trial": 214, "trialdata": {"rt": -1, "trial_type": "single-stim", "word": "lagoon", "stimulus": "<p id=\"stim\">LAGOON</p>", "conditions": [24, 800, "v", 24000], "internal_node_id": "0.0-151.0", "trial": 6, "time_elapsed": 999057, "serialpos": 1, "key_press": -1, "wordID": 794, "type": "PRES_VIS", "trial_index": 214}, "uniqueid": "MTK1840:3I02618YA1DNK71COQSE039KUNLUPB", "dateTime": 1516478311590}, {"current_trial": 215, "trialdata": {"rt": -1, "trial_type": "single-stim", "word": "parrot", "stimulus": "<p id=\"stim\">PARROT</p>", "conditions": [24, 800, "v", 24000], "internal_node_id": "0.0-152.0", "trial": 6, "time_elapsed": 1001021, "serialpos": 2, "key_press": -1, "wordID": 1014, "type": "PRES_VIS", "trial_index": 215}, "uniqueid": "MTK1840:3I02618YA1DNK71COQSE039KUNLUPB", "dateTime": 1516478313554}, {"current_trial": 216, "trialdata": {"rt": -1, "trial_type": "single-stim", "word": "hound", "stimulus": "<p id=\"stim\">HOUND</p>", "conditions": [24, 800, "v", 24000], "internal_node_id": "0.0-153.0", "trial": 6, "time_elapsed": 1002657, "serialpos": 3, "key_press": -1, "wordID": 723, "type": "PRES_VIS", "trial_index": 216}, "uniqueid": "MTK1840:3I02618YA1DNK71COQSE039KUNLUPB", "dateTime": 1516478315190}, {"current_trial": 217, "trialdata": {"rt": -1, "trial_type": "single-stim", "word": "saddle", "stimulus": "<p id=\"stim\">SADDLE</p>", "conditions": [24, 800, "v", 24000], "internal_node_id": "0.0-154.0", "trial": 6, "time_elapsed": 1004443, "serialpos": 4, "key_press": -1, "wordID": 1220, "type": "PRES_VIS", "trial_index": 217}, "uniqueid": "MTK1840:3I02618YA1DNK71COQSE039KUNLUPB", "dateTime": 1516478316976}, {"current_trial": 218, "trialdata": {"rt": -1, "trial_type": "single-stim", "word": "chapel", "stimulus": "<p id=\"stim\">CHAPEL</p>", "conditions": [24, 800, "v", 24000], "internal_node_id": "0.0-155.0", "trial": 6, "time_elapsed": 1006319, "serialpos": 5, "key_press": -1, "wordID": 279, "type": "PRES_VIS", "trial_index": 218}, "uniqueid": "MTK1840:3I02618YA1DNK71COQSE039KUNLUPB", "dateTime": 1516478318852}, {"current_trial": 219, "trialdata": {"rt": -1, "trial_type": "single-stim", "word": "beef", "stimulus": "<p id=\"stim\">BEEF</p>", "conditions": [24, 800, "v", 24000], "internal_node_id": "0.0-156.0", "trial": 6, "time_elapsed": 1008023, "serialpos": 6, "key_press": -1, "wordID": 112, "type": "PRES_VIS", "trial_index": 219}, "uniqueid": "MTK1840:3I02618YA1DNK71COQSE039KUNLUPB", "dateTime": 1516478320556}, {"current_trial": 220, "trialdata": {"rt": -1, "trial_type": "single-stim", "word": "turkey", "stimulus": "<p id=\"stim\">TURKEY</p>", "conditions": [24, 800, "v", 24000], "internal_node_id": "0.0-157.0", "trial": 6, "time_elapsed": 1009860, "serialpos": 7, "key_press": -1, "wordID": 1519, "type": "PRES_VIS", "trial_index": 220}, "uniqueid": "MTK1840:3I02618YA1DNK71COQSE039KUNLUPB", "dateTime": 1516478322393}, {"current_trial": 221, "trialdata": {"rt": -1, "trial_type": "single-stim", "word": "quail", "stimulus": "<p id=\"stim\">QUAIL</p>", "conditions": [24, 800, "v", 24000], "internal_node_id": "0.0-158.0", "trial": 6, "time_elapsed": 1011767, "serialpos": 8, "key_press": -1, "wordID": 1146, "type": "PRES_VIS", "trial_index": 221}, "uniqueid": "MTK1840:3I02618YA1DNK71COQSE039KUNLUPB", "dateTime": 1516478324300}, {"current_trial": 222, "trialdata": {"rt": -1, "trial_type": "single-stim", "word": "lodge", "stimulus": "<p id=\"stim\">LODGE</p>", "conditions": [24, 800, "v", 24000], "internal_node_id": "0.0-159.0", "trial": 6, "time_elapsed": 1013437, "serialpos": 9, "key_press": -1, "wordID": 838, "type": "PRES_VIS", "trial_index": 222}, "uniqueid": "MTK1840:3I02618YA1DNK71COQSE039KUNLUPB", "dateTime": 1516478325971}, {"current_trial": 223, "trialdata": {"rt": -1, "trial_type": "single-stim", "word": "pecan", "stimulus": "<p id=\"stim\">PECAN</p>", "conditions": [24, 800, "v", 24000], "internal_node_id": "0.0-160.0", "trial": 6, "time_elapsed": 1015059, "serialpos": 10, "key_press": -1, "wordID": 1035, "type": "PRES_VIS", "trial_index": 223}, "uniqueid": "MTK1840:3I02618YA1DNK71COQSE039KUNLUPB", "dateTime": 1516478327592}, {"current_trial": 224, "trialdata": {"rt": -1, "trial_type": "single-stim", "word": "cattle", "stimulus": "<p id=\"stim\">CATTLE</p>", "conditions": [24, 800, "v", 24000], "internal_node_id": "0.0-161.0", "trial": 6, "time_elapsed": 1016920, "serialpos": 11, "key_press": -1, "wordID": 260, "type": "PRES_VIS", "trial_index": 224}, "uniqueid": "MTK1840:3I02618YA1DNK71COQSE039KUNLUPB", "dateTime": 1516478329453}, {"current_trial": 225, "trialdata": {"rt": -1, "trial_type": "single-stim", "word": "judge", "stimulus": "<p id=\"stim\">JUDGE</p>", "conditions": [24, 800, "v", 24000], "internal_node_id": "0.0-162.0", "trial": 6, "time_elapsed": 1018673, "serialpos": 12, "key_press": -1, "wordID": 760, "type": "PRES_VIS", "trial_index": 225}, "uniqueid": "MTK1840:3I02618YA1DNK71COQSE039KUNLUPB", "dateTime": 1516478331206}, {"current_trial": 226, "trialdata": {"rt": -1, "trial_type": "single-stim", "word": "virus", "stimulus": "<p id=\"stim\">VIRUS</p>", "conditions": [24, 800, "v", 24000], "internal_node_id": "0.0-163.0", "trial": 6, "time_elapsed": 1020461, "serialpos": 13, "key_press": -1, "wordID": 1571, "type": "PRES_VIS", "trial_index": 226}, "uniqueid": "MTK1840:3I02618YA1DNK71COQSE039KUNLUPB", "dateTime": 1516478332994}, {"current_trial": 227, "trialdata": {"rt": -1, "trial_type": "single-stim", "word": "twig", "stimulus": "<p id=\"stim\">TWIG</p>", "conditions": [24, 800, "v", 24000], "internal_node_id": "0.0-164.0", "trial": 6, "time_elapsed": 1022370, "serialpos": 14, "key_press": -1, "wordID": 1526, "type": "PRES_VIS", "trial_index": 227}, "uniqueid": "MTK1840:3I02618YA1DNK71COQSE039KUNLUPB", "dateTime": 1516478334904}, {"current_trial": 228, "trialdata": {"rt": -1, "trial_type": "single-stim", "word": "dolphin", "stimulus": "<p id=\"stim\">DOLPHIN</p>", "conditions": [24, 800, "v", 24000], "internal_node_id": "0.0-165.0", "trial": 6, "time_elapsed": 1023982, "serialpos": 15, "key_press": -1, "wordID": 482, "type": "PRES_VIS", "trial_index": 228}, "uniqueid": "MTK1840:3I02618YA1DNK71COQSE039KUNLUPB", "dateTime": 1516478336515}, {"current_trial": 229, "trialdata": {"rt": -1, "trial_type": "single-stim", "word": "beast", "stimulus": "<p id=\"stim\">BEAST</p>", "conditions": [24, 800, "v", 24000], "internal_node_id": "0.0-166.0", "trial": 6, "time_elapsed": 1025864, "serialpos": 16, "key_press": -1, "wordID": 107, "type": "PRES_VIS", "trial_index": 229}, "uniqueid": "MTK1840:3I02618YA1DNK71COQSE039KUNLUPB", "dateTime": 1516478338398}, {"current_trial": 230, "trialdata": {"rt": -1, "trial_type": "single-stim", "word": "valley", "stimulus": "<p id=\"stim\">VALLEY</p>", "conditions": [24, 800, "v", 24000], "internal_node_id": "0.0-167.0", "trial": 6, "time_elapsed": 1027679, "serialpos": 17, "key_press": -1, "wordID": 1544, "type": "PRES_VIS", "trial_index": 230}, "uniqueid": "MTK1840:3I02618YA1DNK71COQSE039KUNLUPB", "dateTime": 1516478340212}, {"current_trial": 231, "trialdata": {"rt": -1, "trial_type": "single-stim", "word": "canyon", "stimulus": "<p id=\"stim\">CANYON</p>", "conditions": [24, 800, "v", 24000], "internal_node_id": "0.0-168.0", "trial": 6, "time_elapsed": 1029605, "serialpos": 18, "key_press": -1, "wordID": 234, "type": "PRES_VIS", "trial_index": 231}, "uniqueid": "MTK1840:3I02618YA1DNK71COQSE039KUNLUPB", "dateTime": 1516478342138}, {"current_trial": 232, "trialdata": {"rt": -1, "trial_type": "single-stim", "word": "jury", "stimulus": "<p id=\"stim\">JURY</p>", "conditions": [24, 800, "v", 24000], "internal_node_id": "0.0-169.0", "trial": 6, "time_elapsed": 1031534, "serialpos": 19, "key_press": -1, "wordID": 765, "type": "PRES_VIS", "trial_index": 232}, "uniqueid": "MTK1840:3I02618YA1DNK71COQSE039KUNLUPB", "dateTime": 1516478344067}, {"current_trial": 233, "trialdata": {"rt": -1, "trial_type": "single-stim", "word": "football", "stimulus": "<p id=\"stim\">FOOTBALL</p>", "conditions": [24, 800, "v", 24000], "internal_node_id": "0.0-170.0", "trial": 6, "time_elapsed": 1033365, "serialpos": 20, "key_press": -1, "wordID": 590, "type": "PRES_VIS", "trial_index": 233}, "uniqueid": "MTK1840:3I02618YA1DNK71COQSE039KUNLUPB", "dateTime": 1516478345898}, {"current_trial": 234, "trialdata": {"rt": -1, "trial_type": "single-stim", "word": "kidney", "stimulus": "<p id=\"stim\">KIDNEY</p>", "conditions": [24, 800, "v", 24000], "internal_node_id": "0.0-171.0", "trial": 6, "time_elapsed": 1035247, "serialpos": 21, "key_press": -1, "wordID": 775, "type": "PRES_VIS", "trial_index": 234}, "uniqueid": "MTK1840:3I02618YA1DNK71COQSE039KUNLUPB", "dateTime": 1516478347780}, {"current_trial": 235, "trialdata": {"rt": -1, "trial_type": "single-stim", "word": "stone", "stimulus": "<p id=\"stim\">STONE</p>", "conditions": [24, 800, "v", 24000], "internal_node_id": "0.0-172.0", "trial": 6, "time_elapsed": 1037245, "serialpos": 22, "key_press": -1, "wordID": 1384, "type": "PRES_VIS", "trial_index": 235}, "uniqueid": "MTK1840:3I02618YA1DNK71COQSE039KUNLUPB", "dateTime": 1516478349778}, {"current_trial": 236, "trialdata": {"rt": -1, "trial_type": "single-stim", "word": "chauffeur", "stimulus": "<p id=\"stim\">CHAUFFEUR</p>", "conditions": [24, 800, "v", 24000], "internal_node_id": "0.0-173.0", "trial": 6, "time_elapsed": 1039034, "serialpos": 23, "key_press": -1, "wordID": 282, "type": "PRES_VIS", "trial_index": 236}, "uniqueid": "MTK1840:3I02618YA1DNK71COQSE039KUNLUPB", "dateTime": 1516478351567}, {"current_trial": 237, "trialdata": {"rt": -1, "trial_type": "single-stim", "stimulus": "", "internal_node_id": "0.0-174.0-0.0", "time_elapsed": 1041165, "key_press": -1, "type": "PRE_RECALL_DELAY", "trial_index": 237}, "uniqueid": "MTK1840:3I02618YA1DNK71COQSE039KUNLUPB", "dateTime": 1516478353698}, {"current_trial": 238, "trialdata": {"rt": -1000, "trial_type": "single-audio", "stimulus": "/static/audio/400Hz.wav", "internal_node_id": "0.0-175.0", "time_elapsed": 1041673, "key_press": -1, "type": "PRE_RECALL_ALERT", "trial_index": 238}, "uniqueid": "MTK1840:3I02618YA1DNK71COQSE039KUNLUPB", "dateTime": 1516478354206}, {"current_trial": 239, "trialdata": {"rt": [1661, 2493, 3462, 4608, 17088, 21568], "recwords": ["football", "jury", "beef", "cattle", "sherriff", "pecan"], "key_times": [416, 589, 733, 804, 1063, 1166, 1279, 1447, 1661, 1944, 2120, 2227, 2410, 2493, 2703, 2864, 3041, 3273, 3462, 3734, 3919, 4071, 4213, 4317, 4416, 4608, 15437, 15537, 15650, 15807, 15937, 16360, 16495, 16622, 16773, 16997, 17088, 20907, 20928, 21157, 21278, 21418, 21568], "trial_type": "free-recall", "conditions": [24, 800, "v", 24000], "internal_node_id": "0.0-176.0-0.0", "key_presses": [70, 79, 79, 84, 66, 65, 76, 76, 13, 74, 85, 82, 89, 13, 66, 69, 69, 70, 13, 67, 65, 84, 84, 76, 69, 13, 83, 72, 69, 82, 73, 8, 82, 73, 70, 70, 13, 80, 69, 67, 65, 78, 13], "trial": 6, "time_elapsed": 1101682, "type": "FREE_RECALL", "trial_index": 239}, "uniqueid": "MTK1840:3I02618YA1DNK71COQSE039KUNLUPB", "dateTime": 1516478414219}, {"current_trial": 240, "trialdata": {"rt": 1402, "trial_type": "text", "internal_node_id": "0.0-177.0", "time_elapsed": 1105090, "key_press": 32, "type": "INSTRUCTIONS", "trial_index": 240}, "uniqueid": "MTK1840:3I02618YA1DNK71COQSE039KUNLUPB", "dateTime": 1516478417623}, {"current_trial": 241, "trialdata": {"rt": [3756, 5990, 7496, 9139, 11700], "trial_type": "math-distractor", "key_times": [3248, 3560, 3756, 5419, 5778, 5990, 7046, 7267, 7496, 8986, 9139, 10891, 11413, 11700], "responses": ["24", "17", "12", "7", "18"], "num2": [7, 6, 2, 3, 6, 5], "num3": [6, 4, 5, 2, 3, 1], "conditions": [12, 1600, "v", 12000], "internal_node_id": "0.0-178.0", "key_presses": [50, 52, 13, 49, 55, 13, 49, 50, 13, 55, 13, 49, 56, 13], "trial": 7, "time_elapsed": 1119096, "type": "DISTRACTOR", "trial_index": 241, "num1": [9, 7, 5, 2, 9, 3]}, "uniqueid": "MTK1840:3I02618YA1DNK71COQSE039KUNLUPB", "dateTime": 1516478431629}, {"current_trial": 242, "trialdata": {"rt": -1, "trial_type": "single-stim", "stimulus": "<p id=\"stim\">10</p>", "internal_node_id": "0.0-179.0-0.0", "time_elapsed": 1122103, "key_press": -1, "trial_index": 242}, "uniqueid": "MTK1840:3I02618YA1DNK71COQSE039KUNLUPB", "dateTime": 1516478434636}, {"current_trial": 243, "trialdata": {"rt": -1, "trial_type": "single-stim", "stimulus": "<p id=\"stim\">9</p>", "internal_node_id": "0.0-179.0-1.0", "time_elapsed": 1123108, "key_press": -1, "trial_index": 243}, "uniqueid": "MTK1840:3I02618YA1DNK71COQSE039KUNLUPB", "dateTime": 1516478435641}, {"current_trial": 244, "trialdata": {"rt": -1, "trial_type": "single-stim", "stimulus": "<p id=\"stim\">8</p>", "internal_node_id": "0.0-179.0-2.0", "time_elapsed": 1124113, "key_press": -1, "trial_index": 244}, "uniqueid": "MTK1840:3I02618YA1DNK71COQSE039KUNLUPB", "dateTime": 1516478436646}, {"current_trial": 245, "trialdata": {"rt": -1, "trial_type": "single-stim", "stimulus": "<p id=\"stim\">7</p>", "internal_node_id": "0.0-179.0-3.0", "time_elapsed": 1125118, "key_press": -1, "trial_index": 245}, "uniqueid": "MTK1840:3I02618YA1DNK71COQSE039KUNLUPB", "dateTime": 1516478437651}, {"current_trial": 246, "trialdata": {"rt": -1, "trial_type": "single-stim", "stimulus": "<p id=\"stim\">6</p>", "internal_node_id": "0.0-179.0-4.0", "time_elapsed": 1126122, "key_press": -1, "trial_index": 246}, "uniqueid": "MTK1840:3I02618YA1DNK71COQSE039KUNLUPB", "dateTime": 1516478438656}, {"current_trial": 247, "trialdata": {"rt": -1, "trial_type": "single-stim", "stimulus": "<p id=\"stim\">5</p>", "internal_node_id": "0.0-179.0-5.0", "time_elapsed": 1127127, "key_press": -1, "trial_index": 247}, "uniqueid": "MTK1840:3I02618YA1DNK71COQSE039KUNLUPB", "dateTime": 1516478439660}, {"current_trial": 248, "trialdata": {"rt": -1, "trial_type": "single-stim", "stimulus": "<p id=\"stim\">4</p>", "internal_node_id": "0.0-179.0-6.0", "time_elapsed": 1128130, "key_press": -1, "trial_index": 248}, "uniqueid": "MTK1840:3I02618YA1DNK71COQSE039KUNLUPB", "dateTime": 1516478440664}, {"current_trial": 249, "trialdata": {"rt": -1, "trial_type": "single-stim", "stimulus": "<p id=\"stim\">3</p>", "internal_node_id": "0.0-179.0-7.0", "time_elapsed": 1129133, "key_press": -1, "trial_index": 249}, "uniqueid": "MTK1840:3I02618YA1DNK71COQSE039KUNLUPB", "dateTime": 1516478441666}, {"current_trial": 250, "trialdata": {"rt": -1, "trial_type": "single-stim", "stimulus": "<p id=\"stim\">2</p>", "internal_node_id": "0.0-179.0-8.0", "time_elapsed": 1130137, "key_press": -1, "trial_index": 250}, "uniqueid": "MTK1840:3I02618YA1DNK71COQSE039KUNLUPB", "dateTime": 1516478442671}, {"current_trial": 251, "trialdata": {"rt": -1, "trial_type": "single-stim", "stimulus": "<p id=\"stim\">1</p>", "internal_node_id": "0.0-179.0-9.0", "time_elapsed": 1131139, "key_press": -1, "trial_index": 251}, "uniqueid": "MTK1840:3I02618YA1DNK71COQSE039KUNLUPB", "dateTime": 1516478443672}, {"current_trial": 252, "trialdata": {"rt": -1, "trial_type": "single-stim", "stimulus": "<p id=\"stim\">+</p>", "internal_node_id": "0.0-180.0-0.0", "time_elapsed": 1132640, "key_press": -1, "type": "FIXATION", "trial_index": 252}, "uniqueid": "MTK1840:3I02618YA1DNK71COQSE039KUNLUPB", "dateTime": 1516478445173}, {"current_trial": 253, "trialdata": {"rt": -1, "trial_type": "single-stim", "word": "burglar", "stimulus": "<p id=\"stim\">BURGLAR</p>", "conditions": [12, 1600, "v", 12000], "internal_node_id": "0.0-181.0", "trial": 7, "time_elapsed": 1134246, "serialpos": 0, "key_press": -1, "wordID": 199, "type": "PRES_VIS", "trial_index": 253}, "uniqueid": "MTK1840:3I02618YA1DNK71COQSE039KUNLUPB", "dateTime": 1516478446779}, {"current_trial": 254, "trialdata": {"rt": -1, "trial_type": "single-stim", "word": "hornet", "stimulus": "<p id=\"stim\">HORNET</p>", "conditions": [12, 1600, "v", 12000], "internal_node_id": "0.0-182.0", "trial": 7, "time_elapsed": 1136673, "serialpos": 1, "key_press": -1, "wordID": 717, "type": "PRES_VIS", "trial_index": 254}, "uniqueid": "MTK1840:3I02618YA1DNK71COQSE039KUNLUPB", "dateTime": 1516478449207}, {"current_trial": 255, "trialdata": {"rt": -1, "trial_type": "single-stim", "word": "wasp", "stimulus": "<p id=\"stim\">WASP</p>", "conditions": [12, 1600, "v", 12000], "internal_node_id": "0.0-183.0", "trial": 7, "time_elapsed": 1139475, "serialpos": 2, "key_press": -1, "wordID": 1592, "type": "PRES_VIS", "trial_index": 255}, "uniqueid": "MTK1840:3I02618YA1DNK71COQSE039KUNLUPB", "dateTime": 151647845200