{"assignmentId": "3XCC1ODXDMIG4RAAK9CYVXCAQX9RQP", "workerId": "MTK1323", "questiondata": {"avail_screen_height": 1648, "color_depth": 24, "screen_width": 3072, "pixel_depth": 24, "avail_screen_width": 3072, "screen_height": 1728}, "bonus": 0, "hitId": "3ZLW647WAL256MPTH6GZSXF7NKH236", "counterbalance": 210, "useragent": "Mozilla/5.0 (Windows NT 10.0; Win64; x64; rv:57.0) Gecko/20100101 Firefox/57.0", "eventdata": [{"eventtype": "initialized", "interval": 0, "value": null, "timestamp": 1515774982490}, {"eventtype": "window_resize", "interval": 0, "value": [3043, 1499], "timestamp": 1515774982490}, {"eventtype": "focus", "interval": 18556, "value": "off", "timestamp": 1515775001046}, {"eventtype": "focus", "interval": 2588, "value": "on", "timestamp": 1515775003634}, {"eventtype": "window_resize", "interval": 11597, "value": [5072, 2499], "timestamp": 1515775015231}, {"eventtype": "window_resize", "interval": 2643, "value": [3043, 1499], "timestamp": 1515775017874}, {"eventtype": "focus", "interval": 26242, "value": "off", "timestamp": 1515775044116}, {"eventtype": "focus", "interval": 26352, "value": "on", "timestamp": 1515775070468}, {"eventtype": "focus", "interval": 18813, "value": "off", "timestamp": 1515775089281}, {"eventtype": "focus", "interval": 4292, "value": "on", "timestamp": 1515775093573}, {"eventtype": "window_resize", "interval": 194513, "value": [5072, 2499], "timestamp": 1515775288086}, {"eventtype": "window_resize", "interval": 1402, "value": [3043, 1499], "timestamp": 1515775289488}, {"eventtype": "window_resize", "interval": 534, "value": [2282, 1124], "timestamp": 1515775290022}, {"eventtype": "window_resize", "interval": 3523, "value": [1902, 937], "timestamp": 1515775293545}], "data": [{"current_trial": 0, "trialdata": {"rt": 3604, "trial_type": "text", "internal_node_id": "0.0-0.0", "time_elapsed": 3606, "key_press": 88, "type": "INSTRUCTIONS", "trial_index": 0}, "uniqueid": "MTK1323:3XCC1ODXDMIG4RAAK9CYVXCAQX9RQP", "dateTime": 1515774986698}, {"current_trial": 1, "trialdata": {"rt": 95682, "trial_type": "text", "internal_node_id": "0.0-1.0", "time_elapsed": 99289, "key_press": 13, "type": "INSTRUCTIONS", "trial_index": 1}, "uniqueid": "MTK1323:3XCC1ODXDMIG4RAAK9CYVXCAQX9RQP", "dateTime": 1515775082382}, {"current_trial": 2, "trialdata": {"rt": [20572], "trial_type": "audio-test", "responses": ["ocean"], "internal_node_id": "0.0-2.0", "time_elapsed": 120003, "type": "AUDIO_TEST", "trial_index": 2}, "uniqueid": "MTK1323:3XCC1ODXDMIG4RAAK9CYVXCAQX9RQP", "dateTime": 1515775103095}, {"current_trial": 3, "trialdata": {"rt": [8067], "trial_type": "audio-test", "responses": ["crystal"], "internal_node_id": "0.0-3.0", "time_elapsed": 128082, "type": "AUDIO_TEST", "trial_index": 3}, "uniqueid": "MTK1323:3XCC1ODXDMIG4RAAK9CYVXCAQX9RQP", "dateTime": 1515775111175}, {"current_trial": 4, "trialdata": {"rt": [12072], "trial_type": "audio-test", "responses": ["spice"], "internal_node_id": "0.0-4.0", "time_elapsed": 140167, "type": "AUDIO_TEST", "trial_index": 4}, "uniqueid": "MTK1323:3XCC1ODXDMIG4RAAK9CYVXCAQX9RQP", "dateTime": 1515775123259}, {"current_trial": 5, "trialdata": {"rt": 53327, "trial_type": "survey-text", "responses": "{\"Q0\":\"10:00 PM\",\"Q1\":\"07:00 AM\",\"Q2\":\"4\"}", "internal_node_id": "0.0-5.0", "time_elapsed": 194251, "type": "SLEEP_SURVEY", "trial_index": 5}, "uniqueid": "MTK1323:3XCC1ODXDMIG4RAAK9CYVXCAQX9RQP", "dateTime": 1515775177344}, {"current_trial": 6, "trialdata": {"rt": 82952, "trial_type": "text", "internal_node_id": "0.0-6.0", "time_elapsed": 278206, "key_press": 32, "type": "INSTRUCTIONS", "trial_index": 6}, "uniqueid": "MTK1323:3XCC1ODXDMIG4RAAK9CYVXCAQX9RQP", "dateTime": 1515775261298}, {"current_trial": 7, "trialdata": {"rt": 54698, "trial_type": "text", "internal_node_id": "0.0-7.0", "time_elapsed": 333407, "key_press": 76, "type": "INSTRUCTIONS", "trial_index": 7}, "uniqueid": "MTK1323:3XCC1ODXDMIG4RAAK9CYVXCAQX9RQP", "dateTime": 1515775316499}, {"current_trial": 8, "trialdata": {"rt": 21813, "trial_type": "text", "internal_node_id": "0.0-8.0", "time_elapsed": 355721, "key_press": 77, "type": "INSTRUCTIONS", "trial_index": 8}, "uniqueid": "MTK1323:3XCC1ODXDMIG4RAAK9CYVXCAQX9RQP", "dateTime": 1515775338813}, {"current_trial": 9, "trialdata": {"rt": [6241, 12625], "trial_type": "math-distractor", "key_times": [4315, 6241, 10398, 10674, 12625, 17487, 17657], "responses": ["4", "17"], "num2": [1, 7, 8], "num3": [1, 7, 4], "conditions": [18, 1200, "v", 18000], "internal_node_id": "0.0-9.0", "key_presses": [52, 13, 49, 55, 13, 50, 49], "trial": 0, "time_elapsed": 374729, "type": "DISTRACTOR", "trial_index": 9, "num1": [2, 3, 9]}, "uniqueid": "MTK1323:3XCC1ODXDMIG4RAAK9CYVXCAQX9RQP", "dateTime": 1515775357821}, {"current_trial": 10, "trialdata": {"rt": -1, "trial_type": "single-stim", "stimulus": "<p id=\"stim\">10</p>", "internal_node_id": "0.0-10.0-0.0", "time_elapsed": 377760, "key_press": -1, "trial_index": 10}, "uniqueid": "MTK1323:3XCC1ODXDMIG4RAAK9CYVXCAQX9RQP", "dateTime": 1515775360852}, {"current_trial": 11, "trialdata": {"rt": -1, "trial_type": "single-stim", "stimulus": "<p id=\"stim\">9</p>", "internal_node_id": "0.0-10.0-1.0", "time_elapsed": 378773, "key_press": -1, "trial_index": 11}, "uniqueid": "MTK1323:3XCC1ODXDMIG4RAAK9CYVXCAQX9RQP", "dateTime": 1515775361865}, {"current_trial": 12, "trialdata": {"rt": -1, "trial_type": "single-stim", "stimulus": "<p id=\"stim\">8</p>", "internal_node_id": "0.0-10.0-2.0", "time_elapsed": 379774, "key_press": -1, "trial_index": 12}, "uniqueid": "MTK1323:3XCC1ODXDMIG4RAAK9CYVXCAQX9RQP", "dateTime": 1515775362867}, {"current_trial": 13, "trialdata": {"rt": -1, "trial_type": "single-stim", "stimulus": "<p id=\"stim\">7</p>", "internal_node_id": "0.0-10.0-3.0", "time_elapsed": 380790, "key_press": -1, "trial_index": 13}, "uniqueid": "MTK1323:3XCC1ODXDMIG4RAAK9CYVXCAQX9RQP", "dateTime": 1515775363882}, {"current_trial": 14, "trialdata": {"rt": -1, "trial_type": "single-stim", "stimulus": "<p id=\"stim\">6</p>", "internal_node_id": "0.0-10.0-4.0", "time_elapsed": 381791, "key_press": -1, "trial_index": 14}, "uniqueid": "MTK1323:3XCC1ODXDMIG4RAAK9CYVXCAQX9RQP", "dateTime": 1515775364883}, {"current_trial": 15, "trialdata": {"rt": -1, "trial_type": "single-stim", "stimulus": "<p id=\"stim\">5</p>", "internal_node_id": "0.0-10.0-5.0", "time_elapsed": 382805, "key_press": -1, "trial_index": 15}, "uniqueid": "MTK1323:3XCC1ODXDMIG4RAAK9CYVXCAQX9RQP", "dateTime": 1515775365897}, {"current_trial": 16, "trialdata": {"rt": -1, "trial_type": "single-stim", "stimulus": "<p id=\"stim\">4</p>", "internal_node_id": "0.0-10.0-6.0", "time_elapsed": 383806, "key_press": -1, "trial_index": 16}, "uniqueid": "MTK1323:3XCC1ODXDMIG4RAAK9CYVXCAQX9RQP", "dateTime": 1515775366899}, {"current_trial": 17, "trialdata": {"rt": -1, "trial_type": "single-stim", "stimulus": "<p id=\"stim\">3</p>", "internal_node_id": "0.0-10.0-7.0", "time_elapsed": 384808, "key_press": -1, "trial_index": 17}, "uniqueid": "MTK1323:3XCC1ODXDMIG4RAAK9CYVXCAQX9RQP", "dateTime": 1515775367900}, {"current_trial": 18, "trialdata": {"rt": -1, "trial_type": "single-stim", "stimulus": "<p id=\"stim\">2</p>", "internal_node_id": "0.0-10.0-8.0", "time_elapsed": 385819, "key_press": -1, "trial_index": 18}, "uniqueid": "MTK1323:3XCC1ODXDMIG4RAAK9CYVXCAQX9RQP", "dateTime": 1515775368911}, {"current_trial": 19, "trialdata": {"rt": -1, "trial_type": "single-stim", "stimulus": "<p id=\"stim\">1</p>", "internal_node_id": "0.0-10.0-9.0", "time_elapsed": 386826, "key_press": -1, "trial_index": 19}, "uniqueid": "MTK1323:3XCC1ODXDMIG4RAAK9CYVXCAQX9RQP", "dateTime": 1515775369918}, {"current_trial": 20, "trialdata": {"rt": -1, "trial_type": "single-stim", "stimulus": "<p id=\"stim\">+</p>", "internal_node_id": "0.0-11.0-0.0", "time_elapsed": 388336, "key_press": -1, "type": "FIXATION", "trial_index": 20}, "uniqueid": "MTK1323:3XCC1ODXDMIG4RAAK9CYVXCAQX9RQP", "dateTime": 1515775371429}, {"current_trial": 21, "trialdata": {"rt": -1, "trial_type": "single-stim", "word": "goblin", "stimulus": "<p id=\"stim\">GOBLIN</p>", "conditions": [18, 1200, "v", 18000], "internal_node_id": "0.0-12.0", "trial": 0, "time_elapsed": 389538, "serialpos": 0, "key_press": -1, "wordID": 644, "type": "PRES_VIS", "trial_index": 21}, "uniqueid": "MTK1323:3XCC1ODXDMIG4RAAK9CYVXCAQX9RQP", "dateTime": 1515775372631}, {"current_trial": 22, "trialdata": {"rt": -1, "trial_type": "single-stim", "word": "pimple", "stimulus": "<p id=\"stim\">PIMPLE</p>", "conditions": [18, 1200, "v", 18000], "internal_node_id": "0.0-13.0", "trial": 0, "time_elapsed": 391796, "serialpos": 1, "key_press": -1, "wordID": 1070, "type": "PRES_VIS", "trial_index": 22}, "uniqueid": "MTK1323:3XCC1ODXDMIG4RAAK9CYVXCAQX9RQP", "dateTime": 1515775374888}, {"current_trial": 23, "trialdata": {"rt": -1, "trial_type": "single-stim", "word": "server", "stimulus": "<p id=\"stim\">SERVER</p>", "conditions": [18, 1200, "v", 18000], "internal_node_id": "0.0-14.0", "trial": 0, "time_elapsed": 394003, "serialpos": 2, "key_press": -1, "wordID": 1271, "type": "PRES_VIS", "trial_index": 23}, "uniqueid": "MTK1323:3XCC1ODXDMIG4RAAK9CYVXCAQX9RQP", "dateTime": 1515775377095}, {"current_trial": 24, "trialdata": {"rt": -1, "trial_type": "single-stim", "word": "flipper", "stimulus": "<p id=\"stim\">FLIPPER</p>", "conditions": [18, 1200, "v", 18000], "internal_node_id": "0.0-15.0", "trial": 0, "time_elapsed": 396203, "serialpos": 3, "key_press": -1, "wordID": 579, "type": "PRES_VIS", "trial_index": 24}, "uniqueid": "MTK1323:3XCC1ODXDMIG4RAAK9CYVXCAQX9RQP", "dateTime": 1515775379295}, {"current_trial": 25, "trialdata": {"rt": -1, "trial_type": "single-stim", "word": "market", "stimulus": "<p id=\"stim\">MARKET</p>", "conditions": [18, 1200, "v", 18000], "internal_node_id": "0.0-16.0", "trial": 0, "time_elapsed": 398481, "serialpos": 4, "key_press": -1, "wordID": 870, "type": "PRES_VIS", "trial_index": 25}, "uniqueid": "MTK1323:3XCC1ODXDMIG4RAAK9CYVXCAQX9RQP", "dateTime": 1515775381573}, {"current_trial": 26, "trialdata": {"rt": -1, "trial_type": "single-stim", "word": "headband", "stimulus": "<p id=\"stim\">HEADBAND</p>", "conditions": [18, 1200, "v", 18000], "internal_node_id": "0.0-17.0", "trial": 0, "time_elapsed": 400692, "serialpos": 5, "key_press": -1, "wordID": 695, "type": "PRES_VIS", "trial_index": 26}, "uniqueid": "MTK1323:3XCC1ODXDMIG4RAAK9CYVXCAQX9RQP", "dateTime": 1515775383784}, {"current_trial": 27, "trialdata": {"rt": -1, "trial_type": "single-stim", "word": "cobra", "stimulus": "<p id=\"stim\">COBRA</p>", "conditions": [18, 1200, "v", 18000], "internal_node_id": "0.0-18.0", "trial": 0, "time_elapsed": 402800, "serialpos": 6, "key_press": -1, "wordID": 335, "type": "PRES_VIS", "trial_index": 27}, "uniqueid": "MTK1323:3XCC1ODXDMIG4RAAK9CYVXCAQX9RQP", "dateTime": 1515775385892}, {"current_trial": 28, "trialdata": {"rt": -1, "trial_type": "single-stim", "word": "carrot", "stimulus": "<p id=\"stim\">CARROT</p>", "conditions": [18, 1200, "v", 18000], "internal_node_id": "0.0-19.0", "trial": 0, "time_elapsed": 404861, "serialpos": 7, "key_press": -1, "wordID": 248, "type": "PRES_VIS", "trial_index": 28}, "uniqueid": "MTK1323:3XCC1ODXDMIG4RAAK9CYVXCAQX9RQP", "dateTime": 1515775387953}, {"current_trial": 29, "trialdata": {"rt": -1, "trial_type": "single-stim", "word": "stove", "stimulus": "<p id=\"stim\">STOVE</p>", "conditions": [18, 1200, "v", 18000], "internal_node_id": "0.0-20.0", "trial": 0, "time_elapsed": 407019, "serialpos": 8, "key_press": -1, "wordID": 1387, "type": "PRES_VIS", "trial_index": 29}, "uniqueid": "MTK1323:3XCC1ODXDMIG4RAAK9CYVXCAQX9RQP", "dateTime": 1515775390111}, {"current_trial": 30, "trialdata": {"rt": -1, "trial_type": "single-stim", "word": "pudding", "stimulus": "<p id=\"stim\">PUDDING</p>", "conditions": [18, 1200, "v", 18000], "internal_node_id": "0.0-21.0", "trial": 0, "time_elapsed": 409215, "serialpos": 9, "key_press": -1, "wordID": 1138, "type": "PRES_VIS", "trial_index": 30}, "uniqueid": "MTK1323:3XCC1ODXDMIG4RAAK9CYVXCAQX9RQP", "dateTime": 1515775392307}, {"current_trial": 31, "trialdata": {"rt": -1, "trial_type": "single-stim", "word": "teacher", "stimulus": "<p id=\"stim\">TEACHER</p>", "conditions": [18, 1200, "v", 18000], "internal_node_id": "0.0-22.0", "trial": 0, "time_elapsed": 411453, "serialpos": 10, "key_press": -1, "wordID": 1439, "type": "PRES_VIS", "trial_index": 31}, "uniqueid": "MTK1323:3XCC1ODXDMIG4RAAK9CYVXCAQX9RQP", "dateTime": 1515775394545}, {"current_trial": 32, "trialdata": {"rt": -1, "trial_type": "single-stim", "word": "yarn", "stimulus": "<p id=\"stim\">YARN</p>", "conditions": [18, 1200, "v", 18000], "internal_node_id": "0.0-23.0", "trial": 0, "time_elapsed": 413535, "serialpos": 11, "key_press": -1, "wordID": 1630, "type": "PRES_VIS", "trial_index": 32}, "uniqueid": "MTK1323:3XCC1ODXDMIG4RAAK9CYVXCAQX9RQP", "dateTime": 1515775396627}, {"current_trial": 33, "trialdata": {"rt": -1, "trial_type": "single-stim", "word": "rabbit", "stimulus": "<p id=\"stim\">RABBIT</p>", "conditions": [18, 1200, "v", 18000], "internal_node_id": "0.0-24.0", "trial": 0, "time_elapsed": 415921, "serialpos": 12, "key_press": -1, "wordID": 1151, "type": "PRES_VIS", "trial_index": 33}, "uniqueid": "MTK1323:3XCC1ODXDMIG4RAAK9CYVXCAQX9RQP", "dateTime": 1515775399013}, {"current_trial": 34, "trialdata": {"rt": -1, "trial_type": "single-stim", "word": "cyclone", "stimulus": "<p id=\"stim\">CYCLONE</p>", "conditions": [18, 1200, "v", 18000], "internal_node_id": "0.0-25.0", "trial": 0, "time_elapsed": 418288, "serialpos": 13, "key_press": -1, "wordID": 430, "type": "PRES_VIS", "trial_index": 34}, "uniqueid": "MTK1323:3XCC1ODXDMIG4RAAK9CYVXCAQX9RQP", "dateTime": 1515775401380}, {"current_trial": 35, "trialdata": {"rt": -1, "trial_type": "single-stim", "word": "flower", "stimulus": "<p id=\"stim\">FLOWER</p>", "conditions": [18, 1200, "v", 18000], "internal_node_id": "0.0-26.0", "trial": 0, "time_elapsed": 420465, "serialpos": 14, "key_press": -1, "wordID": 583, "type": "PRES_VIS", "trial_index": 35}, "uniqueid": "MTK1323:3XCC1ODXDMIG4RAAK9CYVXCAQX9RQP", "dateTime": 1515775403557}, {"current_trial": 36, "trialdata": {"rt": -1, "trial_type": "single-stim", "word": "highway", "stimulus": "<p id=\"stim\">HIGHWAY</p>", "conditions": [18, 1200, "v", 18000], "internal_node_id": "0.0-27.0", "trial": 0, "time_elapsed": 422538, "serialpos": 15, "key_press": -1, "wordID": 706, "type": "PRES_VIS", "trial_index": 36}, "uniqueid": "MTK1323:3XCC1ODXDMIG4RAAK9CYVXCAQX9RQP", "dateTime": 1515775405630}, {"current_trial": 37, "trialdata": {"rt": -1, "trial_type": "single-stim", "word": "globe", "stimulus": "<p id=\"stim\">GLOBE</p>", "conditions": [18, 1200, "v", 18000], "internal_node_id": "0.0-28.0", "trial": 0, "time_elapsed": 424764, "serialpos": 16, "key_press": -1, "wordID": 640, "type": "PRES_VIS", "trial_index": 37}, "uniqueid": "MTK1323:3XCC1ODXDMIG4RAAK9CYVXCAQX9RQP", "dateTime": 1515775407856}, {"current_trial": 38, "trialdata": {"rt": -1, "trial_type": "single-stim", "word": "wrench", "stimulus": "<p id=\"stim\">WRENCH</p>", "conditions": [18, 1200, "v", 18000], "internal_node_id": "0.0-29.0", "trial": 0, "time_elapsed": 426821, "serialpos": 17, "key_press": -1, "wordID": 1624, "type": "PRES_VIS", "trial_index": 38}, "uniqueid": "MTK1323:3XCC1ODXDMIG4RAAK9CYVXCAQX9RQP", "dateTime": 1515775409913}, {"current_trial": 39, "trialdata": {"rt": -1, "trial_type": "single-stim", "stimulus": "", "internal_node_id": "0.0-30.0-0.0", "time_elapsed": 429211, "key_press": -1, "type": "PRE_RECALL_DELAY", "trial_index": 39}, "uniqueid": "MTK1323:3XCC1ODXDMIG4RAAK9CYVXCAQX9RQP", "dateTime": 1515775412303}, {"current_trial": 40, "trialdata": {"rt": -1000, "trial_type": "single-audio", "stimulus": "/static/audio/400Hz.wav", "internal_node_id": "0.0-31.0", "time_elapsed": 429717, "key_press": -1, "type": "PRE_RECALL_ALERT", "trial_index": 40}, "uniqueid": "MTK1323:3XCC1ODXDMIG4RAAK9CYVXCAQX9RQP", "dateTime": 1515775412809}, {"current_trial": 41, "trialdata": {"rt": [14592, 24294, 30292, 36540, 42151, 48974, 55789, 59516], "recwords": ["wrench", "flower", "cyclone", "teacher", "stove", "market", "server", "flipper"], "key_times": [9320, 10097, 10420, 10631, 12249, 12837, 13192, 14592, 20186, 20836, 21670, 21958, 22953, 23199, 23426, 24294, 26100, 26580, 27233, 27847, 28105, 28452, 29261, 30292, 33092, 33402, 33739, 34578, 35043, 35383, 35623, 36540, 39452, 40031, 40552, 40942, 41286, 42151, 45494, 46090, 46493, 47170, 47672, 47952, 48974, 52470, 52725, 53452, 53768, 53989, 54146, 55789, 57196, 57557, 57858, 58313, 58483, 58640, 58839, 59516], "trial_type": "free-recall", "conditions": [18, 1200, "v", 18000], "internal_node_id": "0.0-32.0-0.0", "key_presses": [20, 87, 82, 69, 78, 67, 72, 13, 20, 70, 76, 79, 87, 69, 82, 13, 67, 89, 67, 76, 79, 78, 69, 13, 84, 69, 65, 67, 72, 69, 82, 13, 83, 84, 79, 86, 69, 13, 77, 65, 82, 75, 69, 84, 13, 83, 69, 82, 86, 69, 82, 13, 70, 76, 73, 80, 80, 69, 82, 13], "trial": 0, "time_elapsed": 489734, "type": "FREE_RECALL", "trial_index": 41}, "uniqueid": "MTK1323:3XCC1ODXDMIG4RAAK9CYVXCAQX9RQP", "dateTime": 1515775472830}, {"current_trial": 42, "trialdata": {"rt": 4568, "trial_type": "text", "internal_node_id": "0.0-33.0", "time_elapsed": 496316, "key_press": 76, "type": "INSTRUCTIONS", "trial_index": 42}, "uniqueid": "MTK1323:3XCC1ODXDMIG4RAAK9CYVXCAQX9RQP", "dateTime": 1515775479408}, {"current_trial": 43, "trialdata": {"rt": [5331, 8326, 12210, 15239], "trial_type": "math-distractor", "key_times": [4162, 4394, 5331, 7328, 7561, 8326, 11286, 11483, 12210, 14683, 14873, 15239], "responses": ["25", "13", "17", "10"], "num2": [8, 8, 8, 2, 4], "num3": [8, 3, 6, 6, 6], "conditions": [18, 1200, "v", 18000], "internal_node_id": "0.0-34.0", "key_presses": [50, 53, 13, 49, 51, 13, 49, 55, 13, 49, 48, 13], "trial": 1, "time_elapsed": 516321, "type": "DISTRACTOR", "trial_index": 43, "num1": [9, 2, 3, 2, 8]}, "uniqueid": "MTK1323:3XCC1ODXDMIG4RAAK9CYVXCAQX9RQP", "dateTime": 1515775499413}, {"current_trial": 44, "trialdata": {"rt": -1, "trial_type": "single-stim", "stimulus": "<p id=\"stim\">10</p>", "internal_node_id": "0.0-35.0-0.0", "time_elapsed": 519342, "key_press": -1, "trial_index": 44}, "uniqueid": "MTK1323:3XCC1ODXDMIG4RAAK9CYVXCAQX9RQP", "dateTime": 1515775502434}, {"current_trial": 45, "trialdata": {"rt": -1, "trial_type": "single-stim", "stimulus": "<p id=\"stim\">9</p>", "internal_node_id": "0.0-35.0-1.0", "time_elapsed": 520353, "key_press": -1, "trial_index": 45}, "uniqueid": "MTK1323:3XCC1ODXDMIG4RAAK9CYVXCAQX9RQP", "dateTime": 1515775503445}, {"current_trial": 46, "trialdata": {"rt": -1, "trial_type": "single-stim", "stimulus": "<p id=\"stim\">8</p>", "internal_node_id": "0.0-35.0-2.0", "time_elapsed": 521354, "key_press": -1, "trial_index": 46}, "uniqueid": "MTK1323:3XCC1ODXDMIG4RAAK9CYVXCAQX9RQP", "dateTime": 1515775504446}, {"current_trial": 47, "trialdata": {"rt": -1, "trial_type": "single-stim", "stimulus": "<p id=\"stim\">7</p>", "internal_node_id": "0.0-35.0-3.0", "time_elapsed": 522354, "key_press": -1, "trial_index": 47}, "uniqueid": "MTK1323:3XCC1ODXDMIG4RAAK9CYVXCAQX9RQP", "dateTime": 1515775505446}, {"current_trial": 48, "trialdata": {"rt": -1, "trial_type": "single-stim", "stimulus": "<p id=\"stim\">6</p>", "internal_node_id": "0.0-35.0-4.0", "time_elapsed": 523363, "key_press": -1, "trial_index": 48}, "uniqueid": "MTK1323:3XCC1ODXDMIG4RAAK9CYVXCAQX9RQP", "dateTime": 1515775506455}, {"current_trial": 49, "trialdata": {"rt": -1, "trial_type": "single-stim", "stimulus": "<p id=\"stim\">5</p>", "internal_node_id": "0.0-35.0-5.0", "time_elapsed": 524366, "key_press": -1, "trial_index": 49}, "uniqueid": "MTK1323:3XCC1ODXDMIG4RAAK9CYVXCAQX9RQP", "dateTime": 1515775507458}, {"current_trial": 50, "trialdata": {"rt": -1, "trial_type": "single-stim", "stimulus": "<p id=\"stim\">4</p>", "internal_node_id": "0.0-35.0-6.0", "time_elapsed": 525369, "key_press": -1, "trial_index": 50}, "uniqueid": "MTK1323:3XCC1ODXDMIG4RAAK9CYVXCAQX9RQP", "dateTime": 1515775508461}, {"current_trial": 51, "trialdata": {"rt": -1, "trial_type": "single-stim", "stimulus": "<p id=\"stim\">3</p>", "internal_node_id": "0.0-35.0-7.0", "time_elapsed": 526373, "key_press": -1, "trial_index": 51}, "uniqueid": "MTK1323:3XCC1ODXDMIG4RAAK9CYVXCAQX9RQP", "dateTime": 1515775509465}, {"current_trial": 52, "trialdata": {"rt": -1, "trial_type": "single-stim", "stimulus": "<p id=\"stim\">2</p>", "internal_node_id": "0.0-35.0-8.0", "time_elapsed": 527380, "key_press": -1, "trial_index": 52}, "uniqueid": "MTK1323:3XCC1ODXDMIG4RAAK9CYVXCAQX9RQP", "dateTime": 1515775510472}, {"current_trial": 53, "trialdata": {"rt": -1, "trial_type": "single-stim", "stimulus": "<p id=\"stim\">1</p>", "internal_node_id": "0.0-35.0-9.0", "time_elapsed": 528381, "key_press": -1, "trial_index": 53}, "uniqueid": "MTK1323:3XCC1ODXDMIG4RAAK9CYVXCAQX9RQP", "dateTime": 1515775511473}, {"current_trial": 54, "trialdata": {"rt": -1, "trial_type": "single-stim", "stimulus": "<p id=\"stim\">+</p>", "internal_node_id": "0.0-36.0-0.0", "time_elapsed": 529895, "key_press": -1, "type": "FIXATION", "trial_index": 54}, "uniqueid": "MTK1323:3XCC1ODXDMIG4RAAK9CYVXCAQX9RQP", "dateTime": 1515775512987}, {"current_trial": 55, "trialdata": {"rt": -1, "trial_type": "single-stim", "word": "paddle", "stimulus": "<p id=\"stim\">PADDLE</p>", "conditions": [18, 1200, "v", 18000], "internal_node_id": "0.0-37.0", "trial": 1, "time_elapsed": 531101, "serialpos": 0, "key_press": -1, "wordID": 999, "type": "PRES_VIS", "trial_index": 55}, "uniqueid": "MTK1323:3XCC1ODXDMIG4RAAK9CYVXCAQX9RQP", "dateTime": 1515775514193}, {"current_trial": 56, "trialdata": {"rt": -1, "trial_type": "single-stim", "word": "doughnut", "stimulus": "<p id=\"stim\">DOUGHNUT</p>", "conditions": [18, 1200, "v", 18000], "internal_node_id": "0.0-38.0", "trial": 1, "time_elapsed": 533142, "serialpos": 1, "key_press": -1, "wordID": 489, "type": "PRES_VIS", "trial_index": 56}, "uniqueid": "MTK1323:3XCC1ODXDMIG4RAAK9CYVXCAQX9RQP", "dateTime": 1515775516234}, {"current_trial": 57, "trialdata": {"rt": -1, "trial_type": "single-stim", "word": "padding", "stimulus": "<p id=\"stim\">PADDING</p>", "conditions": [18, 1200, "v", 18000], "internal_node_id": "0.0-39.0", "trial": 1, "time_elapsed": 535548, "serialpos": 2, "key_press": -1, "wordID": 998, "type": "PRES_VIS", "trial_index": 57}, "uniqueid": "MTK1323:3XCC1ODXDMIG4RAAK9CYVXCAQX9RQP", "dateTime": 1515775518641}, {"current_trial": 58, "trialdata": {"rt": -1, "trial_type": "single-stim", "word": "iceberg", "stimulus": "<p id=\"stim\">ICEBERG</p>", "conditions": [18, 1200, "v", 18000], "internal_node_id": "0.0-40.0", "trial": 1, "time_elapsed": 537831, "serialpos": 3, "key_press": -1, "wordID": 730, "type": "PRES_VIS", "trial_index": 58}, "uniqueid": "MTK1323:3XCC1ODXDMIG4RAAK9CYVXCAQX9RQP", "dateTime": 1515775520923}, {"current_trial": 59, "trialdata": {"rt": -1, "trial_type": "single-stim", "word": "convict", "stimulus": "<p id=\"stim\">CONVICT</p>", "conditions": [18, 1200, "v", 18000], "internal_node_id": "0.0-41.0", "trial": 1, "time_elapsed": 540241, "serialpos": 4, "key_press": -1, "wordID": 370, "type": "PRES_VIS", "trial_index": 59}, "uniqueid": "MTK1323:3XCC1ODXDMIG4RAAK9CYVXCAQX9RQP", "dateTime": 1515775523333}, {"current_trial": 60, "trialdata": {"rt": -1, "trial_type": "single-stim", "word": "puddle", "stimulus": "<p id=\"stim\">PUDDLE</p>", "conditions": [18, 1200, "v", 18000], "internal_node_id": "0.0-42.0", "trial": 1, "time_elapsed": 542603, "serialpos": 5, "key_press": -1, "wordID": 1139, "type": "PRES_VIS", "trial_index": 60}, "uniqueid": "MTK1323:3XCC1ODXDMIG4RAAK9CYVXCAQX9RQP", "dateTime": 1515775525695}, {"current_trial": 61, "trialdata": {"rt": -1, "trial_type": "single-stim", "word": "film", "stimulus": "<p id=\"stim\">FILM</p>", "conditions": [18, 1200, "v", 18000], "internal_node_id": "0.0-43.0", "trial": 1, "time_elapsed": 544846, "serialpos": 6, "key_press": -1, "wordID": 564, "type": "PRES_VIS", "trial_index": 61}, "uniqueid": "MTK1323:3XCC1ODXDMIG4RAAK9CYVXCAQX9RQP", "dateTime": 1515775527938}, {"current_trial": 62, "trialdata": {"rt": -1, "trial_type": "single-stim", "word": "climber", "stimulus": "<p id=\"stim\">CLIMBER</p>", "conditions": [18, 1200, "v", 18000], "internal_node_id": "0.0-44.0", "trial": 1, "time_elapsed": 546984, "serialpos": 7, "key_press": -1, "wordID": 322, "type": "PRES_VIS", "trial_index": 62}, "uniqueid": "MTK1323:3XCC1ODXDMIG4RAAK9CYVXCAQX9RQP", "dateTime": 1515775530077}, {"current_trial": 63, "trialdata": {"rt": -1, "trial_type": "single-stim", "word": "girl", "stimulus": "<p id=\"stim\">GIRL</p>", "conditions": [18, 1200, "v", 18000], "internal_node_id": "0.0-45.0", "trial": 1, "time_elapsed": 549225, "serialpos": 8, "key_press": -1, "wordID": 636, "type": "PRES_VIS", "trial_index": 63}, "uniqueid": "MTK1323:3XCC1ODXDMIG4RAAK9CYVXCAQX9RQP", "dateTime": 1515775532317}, {"current_trial": 64, "trialdata": {"rt": -1, "trial_type": "single-stim", "word": "spool", "stimulus": "<p id=\"stim\">SPOOL</p>", "conditions": [18, 1200, "v", 18000], "internal_node_id": "0.0-46.0", "trial": 1, "time_elapsed": 551566, "serialpos": 9, "key_press": -1, "wordID": 1355, "type": "PRES_VIS", "trial_index": 64}, "uniqueid": "MTK1323:3XCC1ODXDMIG4RAAK9CYVXCAQX9RQP", "dateTime": 1515775534658}, {"current_trial": 65, "trialdata": {"rt": -1, "trial_type": "single-stim", "word": "salt", "stimulus": "<p id=\"stim\">SALT</p>", "conditions": [18, 1200, "v", 18000], "internal_node_id": "0.0-47.0", "trial": 1, "time_elapsed": 553918, "serialpos": 10, "key_press": -1, "wordID": 1228, "type": "PRES_VIS", "trial_index": 65}, "uniqueid": "MTK1323:3XCC1ODXDMIG4RAAK9CYVXCAQX9RQP", "dateTime": 1515775537010}, {"current_trial": 66, "trialdata": {"rt": -1, "trial_type": "single-stim", "word": "quail", "stimulus": "<p id=\"stim\">QUAIL</p>", "conditions": [18, 1200, "v", 18000], "internal_node_id": "0.0-48.0", "trial": 1, "time_elapsed": 556152, "serialpos": 11, "key_press": -1, "wordID": 1146, "type": "PRES_VIS", "trial_index": 66}, "uniqueid": "MTK1323:3XCC1ODXDMIG4RAAK9CYVXCAQX9RQP", "dateTime": 1515775539244}, {"current_trial": 67, "trialdata": {"rt": -1, "trial_type": "single-stim", "word": "truck", "stimulus": "<p id=\"stim\">TRUCK</p>", "conditions": [18, 1200, "v", 18000], "internal_node_id": "0.0-49.0", "trial": 1, "time_elapsed": 558368, "serialpos": 12, "key_press": -1, "wordID": 1511, "type": "PRES_VIS", "trial_index": 67}, "uniqueid": "MTK1323:3XCC1ODXDMIG4RAAK9CYVXCAQX9RQP", "dateTime": 1515775541460}, {"current_trial": 68, "trialdata": {"rt": -1, "trial_type": "single-stim", "word": "parrot", "stimulus": "<p id=\"stim\">PARROT</p>", "conditions": [18, 1200, "v", 18000], "internal_node_id": "0.0-50.0", "trial": 1, "time_elapsed": 560479, "serialpos": 13, "key_press": -1, "wordID": 1014, "type": "PRES_VIS", "trial_index": 68}, "uniqueid": "MTK1323:3XCC1ODXDMIG4RAAK9CYVXCAQX9RQP", "dateTime": 1515775543571}, {"current_trial": 69, "trialdata": {"rt": -1, "trial_type": "single-stim", "word": "turkey", "stimulus": "<p id=\"stim\">TURKEY</p>", "conditions": [18, 1200, "v", 18000], "internal_node_id": "0.0-51.0", "trial": 1, "time_elapsed": 562872, "serialpos": 14, "key_press": -1, "wordID": 1519, "type": "PRES_VIS", "trial_index": 69}, "uniqueid": "MTK1323:3XCC1ODXDMIG4RAAK9CYVXCAQX9RQP", "dateTime": 1515775545964}, {"current_trial": 70, "trialdata": {"rt": -1, "trial_type": "single-stim", "word": "gangster", "stimulus": "<p id=\"stim\">GANGSTER</p>", "conditions": [18, 1200, "v", 18000], "internal_node_id": "0.0-52.0", "trial": 1, "time_elapsed": 564996, "serialpos": 15, "key_press": -1, "wordID": 619, "type": "PRES_VIS", "trial_index": 70}, "uniqueid": "MTK1323:3XCC1ODXDMIG4RAAK9CYVXCAQX9RQP", "dateTime": 1515775548088}, {"current_trial": 71, "trialdata": {"rt": -1, "trial_type": "single-stim", "word": "juggler", "stimulus": "<p id=\"stim\">JUGGLER</p>", "conditions": [18, 1200, "v", 18000], "internal_node_id": "0.0-53.0", "trial": 1, "time_elapsed": 567189, "serialpos": 16, "key_press": -1, "wordID": 762, "type": "PRES_VIS", "trial_index": 71}, "uniqueid": "MTK1323:3XCC1ODXDMIG4RAAK9CYVXCAQX9RQP", "dateTime": 1515775550281}, {"current_trial": 72, "trialdata": {"rt": -1, "trial_type": "single-stim", "word": "tutu", "stimulus": "<p id=\"stim\">TUTU</p>", "conditions": [18, 1200, "v", 18000], "internal_node_id": "0.0-54.0", "trial": 1, "time_elapsed": 569225, "serialpos": 17, "key_press": -1, "wordID": 1523, "type": "PRES_VIS", "trial_index": 72}, "uniqueid": "MTK1323:3XCC1ODXDMIG4RAAK9CYVXCAQX9RQP", "dateTime": 1515775552317}, {"current_trial": 73, "trialdata": {"rt": -1, "trial_type": "single-stim", "stimulus": "", "internal_node_id": "0.0-55.0-0.0", "time_elapsed": 571324, "key_press": -1, "type": "PRE_RECALL_DELAY", "trial_index": 73}, "uniqueid": "MTK1323:3XCC1ODXDMIG4RAAK9CYVXCAQX9RQP", "dateTime": 1515775554416}, {"current_trial": 74, "trialdata": {"rt": -1000, "trial_type": "single-audio", "stimulus": "/static/audio/400Hz.wav", "internal_node_id": "0.0-56.0", "time_elapsed": 571839, "key_press": -1, "type": "PRE_RECALL_ALERT", "trial_index": 74}, "uniqueid": "MTK1323:3XCC1ODXDMIG4RAAK9CYVXCAQX9RQP", "dateTime": 1515775554931}, {"current_trial": 75, "trialdata": {"rt": [8587, 11941, 25391, 32401, 38091, 48581, 59794], "recwords": ["tutu", "parrot", "gangster", "convict", "donut", "turkey", "juggler"], "key_times": [1863, 2155, 2338, 3884, 4294, 5284, 6131, 6476, 6867, 7154, 7504, 7638, 8587, 9804, 10015, 10443, 10634, 10847, 11137, 11941, 19851, 20737, 21523, 21896, 22258, 22582, 22868, 24201, 25391, 26286, 26780, 28522, 28870, 29232, 29598, 30646, 31308, 31760, 32401, 33550, 34136, 35173, 36603, 36927, 38091, 42185, 42513, 42890, 43772, 44303, 44649, 48581, 52343, 52638, 53112, 53275, 54497, 55001, 55030, 55060, 55091, 55121, 55151, 55857, 56876, 57257, 57418, 57933, 58438, 58681, 59794], "trial_type": "free-recall", "conditions": [18, 1200, "v", 18000], "internal_node_id": "0.0-57.0-0.0", "key_presses": [20, 84, 20, 8, 20, 84, 8, 20, 84, 85, 84, 85, 13, 80, 65, 82, 82, 79, 84, 13, 71, 65, 78, 71, 83, 84, 69, 82, 13, 67, 79, 78, 86, 73, 67, 89, 8, 84, 13, 68, 79, 78, 85, 84, 13, 84, 85, 82, 75, 69, 89, 13, 74, 85, 71, 71, 8, 8, 8, 8, 8, 8, 8, 74, 85, 71, 71, 76, 69, 82, 13], "trial": 1, "time_elapsed": 631856, "type": "FREE_RECALL", "trial_index": 75}, "uniqueid": "MTK1323:3XCC1ODXDMIG4RAAK9CYVXCAQX9RQP", "dateTime": 1515775614951}, {"current_trial": 76, "trialdata": {"rt": 16521, "trial_type": "text", "internal_node_id": "0.0-58.0", "time_elapsed": 650386, "key_press": 75, "type": "INSTRUCTIONS", "trial_index": 76}, "uniqueid": "MTK1323:3XCC1ODXDMIG4RAAK9CYVXCAQX9RQP", "dateTime": 1515775633478}, {"current_trial": 77, "trialdata": {"rt": [4565, 10264, 17335, 22664], "trial_type": "math-distractor", "key_times": [2684, 3738, 4565, 8917, 9419, 10264, 15694, 16277, 17335, 21640, 21930, 22664], "responses": ["12", "16", "19", "13"], "num2": [3, 1, 9, 3, 1], "num3": [8, 7, 7, 7, 5], "conditions": [24, 800, "v", 24000], "internal_node_id": "0.0-59.0", "key_presses": [49, 50, 13, 49, 54, 13, 49, 57, 13, 49, 51, 13], "trial": 2, "time_elapsed": 675405, "type": "DISTRACTOR", "trial_index": 77, "num1": [1, 8, 3, 3, 5]}, "uniqueid": "MTK1323:3XCC1ODXDMIG4RAAK9CYVXCAQX9RQP", "dateTime": 1515775658497}, {"current_trial": 78, "trialdata": {"rt": -1, "trial_type": "single-stim", "stimulus": "<p id=\"stim\">10</p>", "internal_node_id": "0.0-60.0-0.0", "time_elapsed": 678428, "key_press": -1, "trial_index": 78}, "uniqueid": "MTK1323:3XCC1ODXDMIG4RAAK9CYVXCAQX9RQP", "dateTime": 1515775661521}, {"current_trial": 79, "trialdata": {"rt": -1, "trial_type": "single-stim", "stimulus": "<p id=\"stim\">9</p>", "internal_node_id": "0.0-60.0-1.0", "time_elapsed": 679439, "key_press": -1, "trial_index": 79}, "uniqueid": "MTK1323:3XCC1ODXDMIG4RAAK9CYVXCAQX9RQP", "dateTime": 1515775662531}, {"current_trial": 80, "trialdata": {"rt": -1, "trial_type": "single-stim", "stimulus": "<p id=\"stim\">8</p>", "internal_node_id": "0.0-60.0-2.0", "time_elapsed": 680443, "key_press": -1, "trial_index": 80}, "uniqueid": "MTK1323:3XCC1ODXDMIG4RAAK9CYVXCAQX9RQP", "dateTime": 1515775663535}, {"current_trial": 81, "trialdata": {"rt": -1, "trial_type": "single-stim", "stimulus": "<p id=\"stim\">7</p>", "internal_node_id": "0.0-60.0-3.0", "time_elapsed": 681455, "key_press": -1, "trial_index": 81}, "uniqueid": "MTK1323:3XCC1ODXDMIG4RAAK9CYVXCAQX9RQP", "dateTime": 1515775664548}, {"current_trial": 82, "trialdata": {"rt": -1, "trial_type": "single-stim", "stimulus": "<p id=\"stim\">6</p>", "internal_node_id": "0.0-60.0-4.0", "time_elapsed": 682467, "key_press": -1, "trial_index": 82}, "uniqueid": "MTK1323:3XCC1ODXDMIG4RAAK9CYVXCAQX9RQP", "dateTime": 1515775665559}, {"current_trial": 83, "trialdata": {"rt": -1, "trial_type": "single-stim", "stimulus": "<p id=\"stim\">5</p>", "internal_node_id": "0.0-60.0-5.0", "time_elapsed": 683467, "key_press": -1, "trial_index": 83}, "uniqueid": "MTK1323:3XCC1ODXDMIG4RAAK9CYVXCAQX9RQP", "dateTime": 1515775666559}, {"current_trial": 84, "trialdata": {"rt": -1, "trial_type": "single-stim", "stimulus": "<p id=\"stim\">4</p>", "internal_node_id": "0.0-60.0-6.0", "time_elapsed": 684482, "key_press": -1, "trial_index": 84}, "uniqueid": "MTK1323:3XCC1ODXDMIG4RAAK9CYVXCAQX9RQP", "dateTime": 1515775667574}, {"current_trial": 85, "trialdata": {"rt": -1, "trial_type": "single-stim", "stimulus": "<p id=\"stim\">3</p>", "internal_node_id": "0.0-60.0-7.0", "time_elapsed": 685496, "key_press": -1, "trial_index": 85}, "uniqueid": "MTK1323:3XCC1ODXDMIG4RAAK9CYVXCAQX9RQP", "dateTime": 1515775668588}, {"current_trial": 86, "trialdata": {"rt": -1, "trial_type": "single-stim", "stimulus": "<p id=\"stim\">2</p>", "internal_node_id": "0.0-60.0-8.0", "time_elapsed": 686511, "key_press": -1, "trial_index": 86}, "uniqueid": "MTK1323:3XCC1ODXDMIG4RAAK9CYVXCAQX9RQP", "dateTime": 1515775669604}, {"current_trial": 87, "trialdata": {"rt": -1, "trial_type": "single-stim", "stimulus": "<p id=\"stim\">1</p>", "internal_node_id": "0.0-60.0-9.0", "time_elapsed": 687523, "key_press": -1, "trial_index": 87}, "uniqueid": "MTK1323:3XCC1ODXDMIG4RAAK9CYVXCAQX9RQP", "dateTime": 1515775670615}, {"current_trial": 88, "trialdata": {"rt": -1, "trial_type": "single-stim", "stimulus": "<p id=\"stim\">+</p>", "internal_node_id": "0.0-61.0-0.0", "time_elapsed": 689030, "key_press": -1, "type": "FIXATION", "trial_index": 88}, "uniqueid": "MTK1323:3XCC1ODXDMIG4RAAK9CYVXCAQX9RQP", "dateTime": 1515775672122}, {"current_trial": 89, "trialdata": {"rt": -1, "trial_type": "single-stim", "word": "mister", "stimulus": "<p id=\"stim\">MISTER</p>", "conditions": [24, 800, "v", 24000], "internal_node_id": "0.0-62.0", "trial": 2, "time_elapsed": 689841, "serialpos": 0, "key_press": -1, "wordID": 900, "type": "PRES_VIS", "trial_index": 89}, "uniqueid": "MTK1323:3XCC1ODXDMIG4RAAK9CYVXCAQX9RQP", "dateTime": 1515775672933}, {"current_trial": 90, "trialdata": {"rt": -1, "trial_type": "single-stim", "word": "egypt", "stimulus": "<p id=\"stim\">EGYPT</p>", "conditions": [24, 800, "v", 24000], "internal_node_id": "0.0-63.0", "trial": 2, "time_elapsed": 691476, "serialpos": 1, "key_press": -1, "wordID": 518, "type": "PRES_VIS", "trial_index": 90}, "uniqueid": "MTK1323:3XCC1ODXDMIG4RAAK9CYVXCAQX9RQP", "dateTime": 1515775674568}, {"current_trial": 91, "trialdata": {"rt": -1, "trial_type": "single-stim", "word": "patrol", "stimulus": "<p id=\"stim\">PATROL</p>", "conditions": [24, 800, "v", 24000], "internal_node_id": "0.0-64.0", "trial": 2, "time_elapsed": 693464, "serialpos": 2, "key_press": -1, "wordID": 1026, "type": "PRES_VIS", "trial_index": 91}, "uniqueid": "MTK1323:3XCC1ODXDMIG4RAAK9CYVXCAQX9RQP", "dateTime": 1515775676556}, {"current_trial": 92, "trialdata": {"rt": -1, "trial_type": "single-stim", "word": "tractor", "stimulus": "<p id=\"stim\">TRACTOR</p>", "conditions": [24, 800, "v", 24000], "internal_node_id": "0.0-65.0", "trial": 2, "time_elapsed": 695275, "serialpos": 3, "key_press": -1, "wordID": 1492, "type": "PRES_VIS", "trial_index": 92}, "uniqueid": "MTK1323:3XCC1ODXDMIG4RAAK9CYVXCAQX9RQP", "dateTime": 1515775678368}, {"current_trial": 93, "trialdata": {"rt": -1, "trial_type": "single-stim", "word": "snail", "stimulus": "<p id=\"stim\">SNAIL</p>", "conditions": [24, 800, "v", 24000], "internal_node_id": "0.0-66.0", "trial": 2, "time_elapsed": 697106, "serialpos": 4, "key_press": -1, "wordID": 1331, "type": "PRES_VIS", "trial_index": 93}, "uniqueid": "MTK1323:3XCC1ODXDMIG4RAAK9CYVXCAQX9RQP", "dateTime": 1515775680198}, {"current_trial": 94, "trialdata": {"rt": -1, "trial_type": "single-stim", "word": "inmate", "stimulus": "<p id=\"stim\">INMATE</p>", "conditions": [24, 800, "v", 24000], "internal_node_id": "0.0-67.0", "trial": 2, "time_elapsed": 698726, "serialpos": 5, "key_press": -1, "wordID": 737, "type": "PRES_VIS", "trial_index": 94}, "uniqueid": "MTK1323:3XCC1ODXDMIG4RAAK9CYVXCAQX9RQP", "dateTime": 1515775681819}, {"current_trial": 95, "trialdata": {"rt": -1, "trial_type": "single-stim", "word": "novel", "stimulus": "<p id=\"stim\">NOVEL</p>", "conditions": [24, 800, "v", 24000], "internal_node_id": "0.0-68.0", "trial": 2, "time_elapsed": 700464, "serialpos": 6, "key_press": -1, "wordID": 959, "type": "PRES_VIS", "trial_index": 95}, "uniqueid": "MTK1323:3XCC1ODXDMIG4RAAK9CYVXCAQX9RQP", "dateTime": 1515775683556}, {"current_trial": 96, "trialdata": {"rt": -1, "trial_type": "single-stim", "word": "tortoise", "stimulus": "<p id=\"stim\">TORTOISE</p>", "conditions": [24, 800, "v", 24000], "internal_node_id": "0.0-69.0", "trial": 2, "time_elapsed": 702293, "serialpos": 7, "key_press": -1, "wordID": 1485, "type": "PRES_VIS", "trial_index": 96}, "uniqueid": "MTK1323:3XCC1ODXDMIG4RAAK9CYVXCAQX9RQP", "dateTime": 1515775685385}, {"current_trial": 97, "trialdata": {"rt": -1, "trial_type": "single-stim", "word": "sheriff", "stimulus": "<p id=\"stim\">SHERIFF</p>", "conditions": [24, 800, "v", 24000], "internal_node_id": "0.0-70.0", "trial": 2, "time_elapsed": 704199, "serialpos": 8, "key_press": -1, "wordID": 1283, "type": "PRES_VIS", "trial_index": 97}, "uniqueid": "MTK1323:3XCC1ODXDMIG4RAAK9CYVXCAQX9RQP", "dateTime": 1515775687291}, {"current_trial": 98, "trialdata": {"rt": -1, "trial_type": "single-stim", "word": "bank", "stimulus": "<p id=\"stim\">BANK</p>", "conditions": [24, 800, "v", 24000], "internal_node_id": "0.0-71.0", "trial": 2, "time_elapsed": 705919, "serialpos": 9, "key_press": -1, "wordID": 82, "type": "PRES_VIS", "trial_index": 98}, "uniqueid": "MTK1323:3XCC1ODXDMIG4RAAK9CYVXCAQX9RQP", "dateTime": 1515775689011}, {"current_trial": 99, "trialdata": {"rt": -1, "trial_type": "single-stim", "word": "branch", "stimulus": "<p id=\"stim\">BRANCH</p>", "conditions": [24, 800, "v", 24000], "internal_node_id": "0.0-72.0", "trial": 2, "time_elapsed": 707547, "serialpos": 10, "key_press": -1, "wordID": 167, "type": "PRES_VIS", "trial_index": 99}, "uniqueid": "MTK1323:3XCC1ODXDMIG4RAAK9CYVXCAQX9RQP", "dateTime": 1515775690640}, {"current_trial": 100, "trialdata": {"rt": -1, "trial_type": "single-stim", "word": "brook", "stimulus": "<p id=\"stim\">BROOK</p>", "conditions": [24, 800, "v", 24000], "internal_node_id": "0.0-73.0", "trial": 2, "time_elapsed": 709404, "serialpos": 11, "key_press": -1, "wordID": 176, "type": "PRES_VIS", "trial_index": 100}, "uniqueid": "MTK1323:3XCC1ODXDMIG4RAAK9CYVXCAQX9RQP", "dateTime": 1515775692497}, {"current_trial": 101, "trialdata": {"rt": -1, "trial_type": "single-stim", "word": "blackboard", "stimulus": "<p id=\"stim\">BLACKBOARD</p>", "conditions": [24, 800, "v", 24000], "internal_node_id": "0.0-74.0", "trial": 2, "time_elapsed": 711219, "serialpos": 12, "key_press": -1, "wordID": 132, "type": "PRES_VIS", "trial_index": 101}, "uniqueid": "MTK1323:3XCC1ODXDMIG4RAAK9CYVXCAQX9RQP", "dateTime": 1515775694311}, {"current_trial": 102, "trialdata": {"rt": -1, "trial_type": "single-stim", "word": "forehead", "stimulus": "<p id=\"stim\">FOREHEAD</p>", "conditions": [24, 800, "v", 24000], "internal_node_id": "0.0-75.0", "trial": 2, "time_elapsed": 712844, "serialpos": 13, "key_press": -1, "wordID": 591, "type": "PRES_VIS", "trial_index": 102}, "uniqueid": "MTK1323:3XCC1ODXDMIG4RAAK9CYVXCAQX9RQP", "dateTime": 1515775695936}, {"current_trial": 103, "trialdata": {"rt": -1, "trial_type": "single-stim", "word": "clam", "stimulus": "<p id=\"stim\">CLAM</p>", "conditions": [24, 800, "v", 24000], "internal_node_id": "0.0-76.0", "trial": 2, "time_elapsed": 714712, "serialpos": 14, "key_press": -1, "wordID": 314, "type": "PRES_VIS", "trial_index": 103}, "uniqueid": "MTK1323:3XCC1ODXDMIG4RAAK9CYVXCAQX9RQP", "dateTime": 1515775697804}, {"current_trial": 104, "trialdata": {"rt": -1, "trial_type": "single-stim", "word": "robber", "stimulus": "<p id=\"stim\">ROBBER</p>", "conditions": [24, 800, "v", 24000], "internal_node_id": "0.0-77.0", "trial": 2, "time_elapsed": 716605, "serialpos": 15, "key_press": -1, "wordID": 1196, "type": "PRES_VIS", "trial_index": 104}, "uniqueid": "MTK1323:3XCC1ODXDMIG4RAAK9CYVXCAQX9RQP", "dateTime": 1515775699697}, {"current_trial": 105, "trialdata": {"rt": -1, "trial_type": "single-stim", "word": "pastry", "stimulus": "<p id=\"stim\">PASTRY</p>", "conditions": [24, 800, "v", 24000], "internal_node_id": "0.0-78.0", "trial": 2, "time_elapsed": 718439, "serialpos": 16, "key_press": -1, "wordID": 1021, "type": "PRES_VIS", "trial_index": 105}, "uniqueid": "MTK1323:3XCC1ODXDMIG4RAAK9CYVXCAQX9RQP", "dateTime": 1515775701531}, {"current_trial": 106, "trialdata": {"rt": -1, "trial_type": "single-stim", "word": "crab", "stimulus": "<p id=\"stim\">CRAB</p>", "conditions": [24, 800, "v", 24000], "internal_node_id": "0.0-79.0", "trial": 2, "time_elapsed": 720089, "serialpos": 17, "key_press": -1, "wordID": 396, "type": "PRES_VIS", "trial_index": 106}, "uniqueid": "MTK1323:3XCC1ODXDMIG4RAAK9CYVXCAQX9RQP", "dateTime": 1515775703181}, {"current_trial": 107, "trialdata": {"rt": -1, "trial_type": "single-stim", "word": "seafood", "stimulus": "<p id=\"stim\">SEAFOOD</p>", "conditions": [24, 800, "v", 24000], "internal_node_id": "0.0-80.0", "trial": 2, "time_elapsed": 721773, "serialpos": 18, "key_press": -1, "wordID": 1259, "type": "PRES_VIS", "trial_index": 107}, "uniqueid": "MTK1323:3XCC1ODXDMIG4RAAK9CYVXCAQX9RQP", "dateTime": 1515775704865}, {"current_trial": 108, "trialdata": {"rt": -1, "trial_type": "single-stim", "word": "shoulder", "stimulus": "<p id=\"stim\">SHOULDER</p>", "conditions": [24, 800, "v", 24000], "internal_node_id": "0.0-81.0", "trial": 2, "time_elapsed": 723523, "serialpos": 19, "key_press": -1, "wordID": 1293, "type": "PRES_VIS", "trial_index": 108}, "uniqueid": "MTK1323:3XCC1ODXDMIG4RAAK9CYVXCAQX9RQP", "dateTime": 1515775706615}, {"current_trial": 109, "trialdata": {"rt": -1, "trial_type": "single-stim", "word": "tablet", "stimulus": "<p id=\"stim\">TABLET</p>", "conditions": [24, 800, "v", 24000], "internal_node_id": "0.0-82.0", "trial": 2, "time_elapsed": 725169, "serialpos": 20, "key_press": -1, "wordID": 1426, "type": "PRES_VIS", "trial_index": 109}, "uniqueid": "MTK1323:3XCC1ODXDMIG4RAAK9CYVXCAQX9RQP", "dateTime": 1515775708261}, {"current_trial": 110, "trialdata": {"rt": -1, "trial_type": "single-stim", "word": "scallop", "stimulus": "<p id=\"stim\">SCALLOP</p>", "conditions": [24, 800, "v", 24000], "internal_node_id": "0.0-83.0", "trial": 2, "time_elapsed": 726956, "serialpos": 21, "key_press": -1, "wordID": 1241, "type": "PRES_VIS", "trial_index": 110}, "uniqueid": "MTK1323:3XCC1ODXDMIG4RAAK9CYVXCAQX9RQP", "dateTime": 1515775710048}, {"current_trial": 111, "trialdata": {"rt": -1, "trial_type": "single-stim", "word": "freezer", "stimulus": "<p id=\"stim\">FREEZER</p>", "conditions": [24, 800, "v", 24000], "internal_node_id": "0.0-84.0", "trial": 2, "time_elapsed": 728911, "serialpos": 22, "key_press": -1, "wordID": 603, "type": "PRES_VIS", "trial_index": 111}, "uniqueid": "MTK1323:3XCC1ODXDMIG4RAAK9CYVXCAQX9RQP", "dateTime": 1515775712003}, {"current_trial": 112, "trialdata": {"rt": -1, "trial_type": "single-stim", "word": "dresser", "stimulus": "<p id=\"stim\">DRESSER</p>", "conditions": [24, 800, "v", 24000], "internal_node_id": "0.0-85.0", "trial": 2, "time_elapsed": 730610, "serialpos": 23, "key_press": -1, "wordID": 495, "type": "PRES_VIS", "trial_index": 112}, "uniqueid": "MTK1323:3XCC1ODXDMIG4RAAK9CYVXCAQX9RQP", "dateTime": 1515775713702}, {"current_trial": 113, "trialdata": {"rt": -1, "trial_type": "single-stim", "stimulus": "", "internal_node_id": "0.0-86.0-0.0", "time_elapsed": 732837, "key_press": -1, "type": "PRE_RECALL_DELAY", "trial_index": 113}, "uniqueid": "MTK1323:3XCC1ODXDMIG4RAAK9CYVXCAQX9RQP", "dateTime": 1515775715929}, {"current_trial": 114, "trialdata": {"rt": -1000, "trial_type": "single-audio", "stimulus": "/static/audio/400Hz.wav", "internal_node_id": "0.0-87.0", "time_elapsed": 733349, "key_press": -1, "type": "PRE_RECALL_ALERT", "trial_index": 114}, "uniqueid": "MTK1323:3XCC1ODXDMIG4RAAK9CYVXCAQX9RQP", "dateTime": 1515775716441}, {"current_trial": 115, "trialdata": {"rt": [6656, 18320, 24925, 35590, 39982, 43506, 50099], "recwords": ["dresser", "tablet", "robber", "blackboard", "crab", "novel", "bank"], "key_times": [1535, 2301, 2642, 3049, 3213, 3482, 3747, 6656, 12769, 13138, 13961, 14581, 15269, 15632, 18320, 21198, 21717, 22193, 22379, 23109, 23364, 24925, 27930, 28884, 29447, 30866, 32818, 33182, 33551, 34040, 34320, 34563, 35590, 37330, 37718, 38067, 38941, 39982, 40877, 41215, 41630, 42002, 42557, 43506, 46843, 47566, 48449, 49018, 50099, 53697, 55078, 55788, 56265, 56625], "trial_type": "free-recall", "conditions": [24, 800, "v", 24000], "internal_node_id": "0.0-88.0-0.0", "key_presses": [68, 82, 69, 83, 83, 69, 82, 13, 84, 65, 66, 76, 69, 84, 13, 82, 79, 66, 66, 69, 82, 13, 66, 76, 65, 67, 75, 66, 79, 65, 82, 68, 13, 67, 82, 65, 66, 13, 78, 79, 86, 69, 76, 13, 66, 65, 78, 75, 13, 83, 78, 65, 73, 76], "trial": 2, "time_elapsed": 793352, "type": "FREE_RECALL", "trial_index": 115}, "uniqueid": "MTK1323:3XCC1ODXDMIG4RAAK9CYVXCAQX9RQP", "dateTime": 1515775776446}, {"current_trial": 116, "trialdata": {"rt": 7667, "trial_type": "text", "internal_node_id": "0.0-89.0", "time_elapsed": 803030, "key_press": 76, "type": "INSTRUCTIONS", "trial_index": 116}, "uniqueid": "MTK1323:3XCC1ODXDMIG4RAAK9CYVXCAQX9RQP", "dateTime": 1515775786122}, {"current_trial": 117, "trialdata": {"rt": [5503, 8029, 10846], "trial_type": "math-distractor", "key_times": [3686, 4641, 5503, 7328, 8029, 10091, 10846], "responses": ["18", "7", "7"], "num2": [7, 4, 5, 5], "num3": [4, 1, 1, 4], "conditions": [12, 800, "v", 12000], "internal_node_id": "0.0-90.0", "key_presses": [49, 56, 13, 55, 13, 55, 13], "trial": 3, "time_elapsed": 817046, "type": "DISTRACTOR", "trial_index": 117, "num1": [9, 2, 1, 8]}, "uniqueid": "MTK1323:3XCC1ODXDMIG4RAAK9CYVXCAQX9RQP", "dateTime": 1515775800138}, {"current_trial": 118, "trialdata": {"rt": -1, "trial_type": "single-stim", "stimulus": "<p id=\"stim\">10</p>", "internal_node_id": "0.0-91.0-0.0", "time_elapsed": 820056, "key_press": -1, "trial_index": 118}, "uniqueid": "MTK1323:3XCC1ODXDMIG4RAAK9CYVXCAQX9RQP", "dateTime": 1515775803148}, {"current_trial": 119, "trialdata": {"rt": -1, "trial_type": "single-stim", "stimulus": "<p id=\"stim\">9</p>", "internal_node_id": "0.0-91.0-1.0", "time_elapsed": 821066, "key_press": -1, "trial_index": 119}, "uniqueid": "MTK1323:3XCC1ODXDMIG4RAAK9CYVXCAQX9RQP", "dateTime": 1515775804158}, {"current_trial": 120, "trialdata": {"rt": -1, "trial_type": "single-stim", "stimulus": "<p id=\"stim\">8</p>", "internal_node_id": "0.0-91.0-2.0", "time_elapsed": 822078, "key_press": -1, "trial_index": 120}, "uniqueid": "MTK1323:3XCC1ODXDMIG4RAAK9CYVXCAQX9RQP", "dateTime": 1515775805170}, {"current_trial": 121, "trialdata": {"rt": -1, "trial_type": "single-stim", "stimulus": "<p id=\"stim\">7</p>", "internal_node_id": "0.0-91.0-3.0", "time_elapsed": 823088, "key_press": -1, "trial_index": 121}, "uniqueid": "MTK1323:3XCC1ODXDMIG4RAAK9CYVXCAQX9RQP", "dateTime": 1515775806180}, {"current_trial": 122, "trialdata": {"rt": -1, "trial_type": "single-stim", "stimulus": "<p id=\"stim\">6</p>", "internal_node_id": "0.0-91.0-4.0", "time_elapsed": 824090, "key_press": -1, "trial_index": 122}, "uniqueid": "MTK1323:3XCC1ODXDMIG4RAAK9CYVXCAQX9RQP", "dateTime": 1515775807182}, {"current_trial": 123, "trialdata": {"rt": -1, "trial_type": "single-stim", "stimulus": "<p id=\"stim\">5</p>", "internal_node_id": "0.0-91.0-5.0", "time_elapsed": 825107, "key_press": -1, "trial_index": 123}, "uniqueid": "MTK1323:3XCC1ODXDMIG4RAAK9CYVXCAQX9RQP", "dateTime": 1515775808199}, {"current_trial": 124, "trialdata": {"rt": -1, "trial_type": "single-stim", "stimulus": "<p id=\"stim\">4</p>", "internal_node_id": "0.0-91.0-6.0", "time_elapsed": 826122, "key_press": -1, "trial_index": 124}, "uniqueid": "MTK1323:3XCC1ODXDMIG4RAAK9CYVXCAQX9RQP", "dateTime": 1515775809214}, {"current_trial": 125, "trialdata": {"rt": -1, "trial_type": "single-stim", "stimulus": "<p id=\"stim\">3</p>", "internal_node_id": "0.0-91.0-7.0", "time_elapsed": 827125, "key_press": -1, "trial_index": 125}, "uniqueid": "MTK1323:3XCC1ODXDMIG4RAAK9CYVXCAQX9RQP", "dateTime": 1515775810218}, {"current_trial": 126, "trialdata": {"rt": -1, "trial_type": "single-stim", "stimulus": "<p id=\"stim\">2</p>", "internal_node_id": "0.0-91.0-8.0", "time_elapsed": 828139, "key_press": -1, "trial_index": 126}, "uniqueid": "MTK1323:3XCC1ODXDMIG4RAAK9CYVXCAQX9RQP", "dateTime": 1515775811231}, {"current_trial": 127, "trialdata": {"rt": -1, "trial_type": "single-stim", "stimulus": "<p id=\"stim\">1</p>", "internal_node_id": "0.0-91.0-9.0", "time_elapsed": 829142, "key_press": -1, "trial_index": 127}, "uniqueid": "MTK1323:3XCC1ODXDMIG4RAAK9CYVXCAQX9RQP", "dateTime": 1515775812234}, {"current_trial": 128, "trialdata": {"rt": -1, "trial_type": "single-stim", "stimulus": "<p id=\"stim\">+</p>", "internal_node_id": "0.0-92.0-0.0", "time_elapsed": 830655, "key_press": -1, "type": "FIXATION", "trial_index": 128}, "uniqueid": "MTK1323:3XCC1ODXDMIG4RAAK9CYVXCAQX9RQP", "dateTime": 1515775813747}, {"current_trial": 129, "trialdata": {"rt": -1, "trial_type": "single-stim", "word": "cabbage", "stimulus": "<p id=\"stim\">CABBAGE</p>", "conditions": [12, 800, "v", 12000], "internal_node_id": "0.0-93.0", "trial": 3, "time_elapsed": 831462, "serialpos": 0, "key_press": -1, "wordID": 209, "type": "PRES_VIS", "trial_index": 129}, "uniqueid": "MTK1323:3XCC1ODXDMIG4RAAK9CYVXCAQX9RQP", "dateTime": 1515775814554}, {"current_trial": 130, "trialdata": {"rt": -1, "trial_type": "single-stim", "word": "dragon", "stimulus": "<p id=\"stim\">DRAGON</p>", "conditions": [12, 800, "v", 12000], "internal_node_id": "0.0-94.0", "trial": 3, "time_elapsed": 833428, "serialpos": 1, "key_press": -1, "wordID": 491, "type": "PRES_VIS", "trial_index": 130}, "uniqueid": "MTK1323:3XCC1ODXDMIG4RAAK9CYVXCAQX9RQP", "dateTime": 1515775816520}, {"current_trial": 131, "trialdata": {"rt": -1, "trial_type": "single-stim", "word": "baby", "stimulus": "<p id=\"stim\">BABY</p>", "conditions": [12, 800, "v", 12000], "internal_node_id": "0.0-95.0", "trial": 3, "time_elapsed": 835293, "serialpos": 2, "key_press": -1, "wordID": 63, "type": "PRES_VIS", "trial_index": 131}, "uniqueid": "MTK1323:3XCC1ODXDMIG4RAAK9CYVXCAQX9RQP", "dateTime": 1515775818385}, {"current_trial": 132, "trialdata": {"rt": -1, "trial_type": "single-stim", "word": "bacon", "stimulus": "<p id=\"stim\">BACON</p>", "conditions": [12, 800, "v", 12000], "internal_node_id": "0.0-96.0", "trial": 3, "time_elapsed": 836994, "serialpos": 3, "key_press": -1, "wordID": 66, "type": "PRES_VIS", "trial_index": 132}, "uniqueid": "MTK1323:3XCC1ODXDMIG4RAAK9CYVXCAQX9RQP", "dateTime": 1515775820086}, {"current_trial": 133, "trialdata": {"rt": -1, "trial_type": "single-stim", "word": "crayon", "stimulus": "<p id=\"stim\">CRAYON</p>", "conditions": [12, 800, "v", 12000], "internal_node_id": "0.0-97.0", "trial": 3, "time_elapsed": 838775, "serialpos": 4, "key_press": -1, "wordID": 400, "type": "PRES_VIS", "trial_index": 133}, "uniqueid": "MTK1323:3XCC1ODXDMIG4RAAK9CYVXCAQX9RQP", "dateTime": 1515775821868}, {"current_trial": 134, "trialdata": {"rt": -1, "trial_type": "single-stim", "word": "sword", "stimulus": "<p id=\"stim\">SWORD</p>", "conditions": [12, 800, "v", 12000], "internal_node_id": "0.0-98.0", "trial": 3, "time_elapsed": 840512, "serialpos": 5, "key_press": -1, "wordID": 1422, "type": "PRES_VIS", "trial_index": 134}, "uniqueid": "MTK1323:3XCC1ODXDMIG4RAAK9CYVXCAQX9RQP", "dateTime": 1515775823604}, {"current_trial": 135, "trialdata": {"rt": -1, "trial_type": "single-stim", "word": "candy", "stimulus": "<p id=\"stim\">CANDY</p>", "conditions": [12, 800, "v", 12000], "internal_node_id": "0.0-99.0", "trial": 3, "time_elapsed": 842471, "serialpos": 6, "key_press": -1, "wordID": 229, "type": "PRES_VIS", "trial_index": 135}, "uniqueid": "MTK1323:3XCC1ODXDMIG4RAAK9CYVXCAQX9RQP", "dateTime": 1515775825563}, {"current_trial": 136, "trialdata": {"rt": -1, "trial_type": "single-stim", "word": "rifle", "stimulus": "<p id=\"stim\">RIFLE</p>", "conditions": [12, 800, "v", 12000], "internal_node_id": "0.0-100.0", "trial": 3, "time_elapsed": 844121, "serialpos": 7, "key_press": -1, "wordID": 1191, "type": "PRES_VIS", "trial_index": 136}, "uniqueid": "MTK1323:3XCC1ODXDMIG4RAAK9CYVXCAQX9RQP", "dateTime": 1515775827214}, {"current_trial": 137, "trialdata": {"rt": -1, "trial_type": "single-stim", "word": "sidewalk", "stimulus": "<p id=\"stim\">SIDEWALK</p>", "conditions": [12, 800, "v", 12000], "internal_node_id": "0.0-101.0", "trial": 3, "time_elapsed": 846108, "serialpos": 8, "key_press": -1, "wordID": 1302, "type": "PRES_VIS", "trial_index": 137}, "uniqueid": "MTK1323:3XCC1ODXDMIG4RAAK9CYVXCAQX9RQP", "dateTime": 1515775829200}, {"current_trial": 138, "trialdata": {"rt": -1, "trial_type": "single-stim", "word": "plaza", "stimulus": "<p id=\"stim\">PLAZA</p>", "conditions": [12, 800, "v", 12000], "internal_node_id": "0.0-102.0", "trial": 3, "time_elapsed": 847805, "serialpos": 9, "key_press": -1, "wordID": 1087, "type": "PRES_VIS", "trial_index": 138}, "uniqueid": "MTK1323:3XCC1ODXDMIG4RAAK9CYVXCAQX9RQP", "dateTime": 1515775830897}, {"current_trial": 139, "trialdata": {"rt": -1, "trial_type": "single-stim", "word": "treat", "stimulus": "<p id=\"stim\">TREAT</p>", "conditions": [12, 800, "v", 12000], "internal_node_id": "0.0-103.0", "trial": 3, "time_elapsed": 849517, "serialpos": 10, "key_press": -1, "wordID": 1500, "type": "PRES_VIS", "trial_index": 139}, "uniqueid": "MTK1323:3XCC1ODXDMIG4RAAK9CYVXCAQX9RQP", "dateTime": 1515775832610}, {"current_trial": 140, "trialdata": {"rt": -1, "trial_type": "single-stim", "word": "knife", "stimulus": "<p id=\"stim\">KNIFE</p>", "conditions": [12, 800, "v", 12000], "internal_node_id": "0.0-104.0", "trial": 3, "time_elapsed": 851302, "serialpos": 11, "key_press": -1, "wordID": 784, "type": "PRES_VIS", "trial_index": 140}, "uniqueid": "MTK1323:3XCC1ODXDMIG4RAAK9CYVXCAQX9RQP", "dateTime": 1515775834394}, {"current_trial": 141, "trialdata": {"rt": -1, "trial_type": "single-stim", "stimulus": "", "internal_node_id": "0.0-105.0-0.0", "time_elapsed": 853461, "key_press": -1, "type": "PRE_RECALL_DELAY", "trial_index": 141}, "uniqueid": "MTK1323:3XCC1ODXDMIG4RAAK9CYVXCAQX9RQP", "dateTime": 1515775836553}, {"current_trial": 142, "trialdata": {"rt": -1000, "trial_type": "single-audio", "stimulus": "/static/audio/400Hz.wav", "internal_node_id": "0.0-106.0", "time_elapsed": 853974, "key_press": -1, "type": "PRE_RECALL_ALERT", "trial_index": 142}, "uniqueid": "MTK1323:3XCC1ODXDMIG4RAAK9CYVXCAQX9RQP", "dateTime": 1515775837067}, {"current_trial": 143, "trialdata": {"rt": [4323, 7684, 11774, 15362, 19210, 24472, 31352, 36583, 43546], "recwords": ["knife", "plaza", "dragon", "sword", "baby", "crayon", "sidewalk", "candy", "bacon"], "key_times": [1168, 1523, 2247, 2910, 3286, 4323, 5263, 5534, 6145, 6395, 6692, 7684, 8642, 8913, 9244, 10042, 10570, 10937, 11774, 12814, 13255, 13843, 14264, 14509, 15362, 16146, 16625, 17353, 17776, 19210, 21416, 21866, 22203, 22770, 23404, 23737, 24472, 27384, 27797, 28602, 28983, 29357, 29591, 29830, 30019, 30541, 30730, 31352, 33889, 34244, 35176, 35637, 35961, 36583, 41184, 41591, 41901, 42685, 43016, 43546, 56178, 57094, 57538, 57943, 58444], "trial_type": "free-recall", "conditions": [12, 800, "v", 12000], "internal_node_id": "0.0-107.0-0.0", "key_presses": [75, 78, 73, 70, 69, 13, 80, 76, 65, 90, 65, 13, 68, 82, 65, 71, 79, 78, 13, 83, 87, 79, 82, 68, 13, 66, 65, 66, 89, 13, 67, 82, 65, 89, 79, 78, 13, 83, 69, 8, 73, 68, 69, 87, 65, 76, 75, 13, 67, 65, 78, 68, 89, 13, 66, 65, 67, 79, 78, 13, 82, 73, 70, 76, 69], "trial": 3, "time_elapsed": 913979, "type": "FREE_RECALL", "trial_index": 143}, "uniqueid": "MTK1323:3XCC1ODXDMIG4RAAK9CYVXCAQX9RQP", "dateTime": 1515775897073}, {"current_trial": 144, "trialdata": {"rt": 2725, "trial_type": "text", "internal_node_id": "0.0-108.0", "time_elapsed": 918717, "key_press": 13, "type": "INSTRUCTIONS", "trial_index": 144}, "uniqueid": "MTK1323:3XCC1ODXDMIG4RAAK9CYVXCAQX9RQP", "dateTime": 1515775901809}, {"current_trial": 145, "trialdata": {"rt": [2723, 6778], "trial_type": "math-distractor", "key_times": [1847, 2083, 2723, 5605, 6049, 6778, 8696, 9240, 10031, 10233, 11311], "responses": ["12", "14"], "num2": [8, 7, 6], "num3": [2, 5, 6], "conditions": [24, 800, "v", 12000], "internal_node_id": "0.0-109.0", "key_presses": [49, 50, 13, 49, 52, 13, 49, 56, 8, 8, 49], "trial": 4, "time_elapsed": 932742, "type": "DISTRACTOR", "trial_index": 145, "num1": [2, 2, 6]}, "uniqueid": "MTK1323:3XCC1ODXDMIG4RAAK9CYVXCAQX9RQP", "dateTime": 1515775915834}, {"current_trial": 146, "trialdata": {"rt": -1, "trial_type": "single-stim", "stimulus": "<p id=\"stim\">10</p>", "internal_node_id": "0.0-110.0-0.0", "time_elapsed": 935757, "key_press": -1, "trial_index": 146}, "uniqueid": "MTK1323:3XCC1ODXDMIG4RAAK9CYVXCAQX9RQP", "dateTime": 1515775918849}, {"current_trial": 147, "trialdata": {"rt": -1, "trial_type": "single-stim", "stimulus": "<p id=\"stim\">9</p>", "internal_node_id": "0.0-110.0-1.0", "time_elapsed": 936772, "key_press": -1, "trial_index": 147}, "uniqueid": "MTK1323:3XCC1ODXDMIG4RAAK9CYVXCAQX9RQP", "dateTime": 1515775919864}, {"current_trial": 148, "trialdata": {"rt": -1, "trial_type": "single-stim", "stimulus": "<p id=\"stim\">8</p>", "internal_node_id": "0.0-110.0-2.0", "time_elapsed": 937774, "key_press": -1, "trial_index": 148}, "uniqueid": "MTK1323:3XCC1ODXDMIG4RAAK9CYVXCAQX9RQP", "dateTime": 1515775920866}, {"current_trial": 149, "trialdata": {"rt": -1, "trial_type": "single-stim", "stimulus": "<p id=\"stim\">7</p>", "internal_node_id": "0.0-110.0-3.0", "time_elapsed": 938787, "key_press": -1, "trial_index": 149}, "uniqueid": "MTK1323:3XCC1ODXDMIG4RAAK9CYVXCAQX9RQP", "dateTime": 1515775921879}, {"current_trial": 150, "trialdata": {"rt": -1, "trial_type": "single-stim", "stimulus": "<p id=\"stim\">6</p>", "internal_node_id": "0.0-110.0-4.0", "time_elapsed": 939788, "key_press": -1, "trial_index": 150}, "uniqueid": "MTK1323:3XCC1ODXDMIG4RAAK9CYVXCAQX9RQP", "dateTime": 1515775922880}, {"current_trial": 151, "trialdata": {"rt": -1, "trial_type": "single-stim", "stimulus": "<p id=\"stim\">5</p>", "internal_node_id": "0.0-110.0-5.0", "time_elapsed": 940800, "key_press": -1, "trial_index": 151}, "uniqueid": "MTK1323:3XCC1ODXDMIG4RAAK9CYVXCAQX9RQP", "dateTime": 1515775923892}, {"current_trial": 152, "trialdata": {"rt": -1, "trial_type": "single-stim", "stimulus": "<p id=\"stim\">4</p>", "internal_node_id": "0.0-110.0-6.0", "time_elapsed": 941815, "key_press": -1, "trial_index": 152}, "uniqueid": "MTK1323:3XCC1ODXDMIG4RAAK9CYVXCAQX9RQP", "dateTime": 1515775924907}, {"current_trial": 153, "trialdata": {"rt": -1, "trial_type": "single-stim", "stimulus": "<p id=\"stim\">3</p>", "internal_node_id": "0.0-110.0-7.0", "time_elapsed": 942831, "key_press": -1, "trial_index": 153}, "uniqueid": "MTK1323:3XCC1ODXDMIG4RAAK9CYVXCAQX9RQP", "dateTime": 1515775925923}, {"current_trial": 154, "trialdata": {"rt": -1, "trial_type": "single-stim", "stimulus": "<p id=\"stim\">2</p>", "internal_node_id": "0.0-110.0-8.0", "time_elapsed": 943831, "key_press": -1, "trial_index": 154}, "uniqueid": "MTK1323:3XCC1ODXDMIG4RAAK9CYVXCAQX9RQP", "dateTime": 1515775926923}, {"current_trial": 155, "trialdata": {"rt": -1, "trial_type": "single-stim", "stimulus": "<p id=\"stim\">1</p>", "internal_node_id": "0.0-110.0-9.0", "time_elapsed": 944832, "key_press": -1, "trial_index": 155}, "uniqueid": "MTK1323:3XCC1ODXDMIG4RAAK9CYVXCAQX9RQP", "dateTime": 1515775927924}, {"current_trial": 156, "trialdata": {"rt": -1, "trial_type": "single-stim", "stimulus": "<p id=\"stim\">+</p>", "internal_node_id": "0.0-111.0-0.0", "time_elapsed": 946344, "key_press": -1, "type": "FIXATION", "trial_index": 156}, "uniqueid": "MTK1323:3XCC1ODXDMIG4RAAK9CYVXCAQX9RQP", "dateTime": 1515775929437}, {"current_trial": 157, "trialdata": {"rt": -1, "trial_type": "single-stim", "word": "blouse", "stimulus": "<p id=\"stim\">BLOUSE</p>", "conditions": [24, 800, "v", 12000], "internal_node_id": "0.0-112.0", "trial": 4, "time_elapsed": 947145, "serialpos": 0, "key_press": -1, "wordID": 138, "type": "PRES_VIS", "trial_index": 157}, "uniqueid": "MTK1323:3XCC1ODXDMIG4RAAK9CYVXCAQX9RQP", "dateTime": 1515775930237}, {"current_trial": 158, "trialdata": {"rt": -1, "trial_type": "single-stim", "word": "crown", "stimulus": "<p id=\"stim\">CROWN</p>", "conditions": [24, 800, "v", 12000], "internal_node_id": "0.0-113.0", "trial": 4, "time_elapsed": 948830, "serialpos": 1, "key_press": -1, "wordID": 414, "type": "PRES_VIS", "trial_index": 158}, "uniqueid": "MTK1323:3XCC1ODXDMIG4RAAK9CYVXCAQX9RQP", "dateTime": 1515775931922}, {"current_trial": 159, "trialdata": {"rt": -1, "trial_type": "single-stim", "word": "donkey", "stimulus": "<p id=\"stim\">DONKEY</p>", "conditions": [24, 800, "v", 12000], "internal_node_id": "0.0-114.0", "trial": 4, "time_elapsed": 950739, "serialpos": 2, "key_press": -1, "wordID": 483, "type": "PRES_VIS", "trial_index": 159}, "uniqueid": "MTK1323:3XCC1ODXDMIG4RAAK9CYVXCAQX9RQP", "dateTime": 1515775933831}, {"current_trial": 160, "trialdata": {"rt": -1, "trial_type": "single-stim", "word": "dress", "stimulus": "<p id=\"stim\">DRESS</p>", "conditions": [24, 800, "v", 12000], "internal_node_id": "0.0-115.0", "trial": 4, "time_elapsed": 952662, "serialpos": 3, "key_press": -1, "wordID": 494, "type": "PRES_VIS", "trial_index": 160}, "uniqueid": "MTK1323:3XCC1ODXDMIG4RAAK9CYVXCAQX9RQP", "dateTime": 1515775935754}, {"current_trial": 161, "trialdata": {"rt": -1, "trial_type": "single-stim", "word": "drink", "stimulus": "<p id=\"stim\">DRINK</p>", "conditions": [24, 800, "v", 12000], "internal_node_id": "0.0-116.0", "trial": 4, "time_elapsed": 954289, "serialpos": 4, "key_press": -1, "wordID": 497, "type": "PRES_VIS", "trial_index": 161}, "uniqueid": "MTK1323:3XCC1ODXDMIG4RAAK9CYVXCAQX9RQP", "dateTime": 1515775937382}, {"current_trial": 162, "trialdata": {"rt": -1, "trial_type": "single-stim", "word": "stone", "stimulus": "<p id=\"stim\">STONE</p>", "conditions": [24, 800, "v", 12000], "internal_node_id": "0.0-117.0", "trial": 4, "time_elapsed": 956183, "serialpos": 5, "key_press": -1, "wordID": 1384, "type": "PRES_VIS", "trial_index": 162}, "uniqueid": "MTK1323:3XCC1ODXDMIG4RAAK9CYVXCAQX9RQP", "dateTime": 1515775939276}, {"current_trial": 163, "trialdata": {"rt": -1, "trial_type": "single-stim", "word": "brick", "stimulus": "<p id=\"stim\">BRICK</p>", "conditions": [24, 800, "v", 12000], "internal_node_id": "0.0-118.0", "trial": 4, "time_elapsed": 957899, "serialpos": 6, "key_press": -1, "wordID": 171, "type": "PRES_VIS", "trial_index": 163}, "uniqueid": "MTK1323:3XCC1ODXDMIG4RAAK9CYVXCAQX9RQP", "dateTime": 1515775940991}, {"current_trial": 164, "trialdata": {"rt": -1, "trial_type": "single-stim", "word": "proton", "stimulus": "<p id=\"stim\">PROTON</p>", "conditions": [24, 800, "v", 12000], "internal_node_id": "0.0-119.0", "trial": 4, "time_elapsed": 959840, "serialpos": 7, "key_press": -1, "wordID": 1131, "type": "PRES_VIS", "trial_index": 164}, "uniqueid": "MTK1323:3XCC1ODXDMIG4RAAK9CYVXCAQX9RQP", "dateTime": 1515775942932}, {"current_trial": 165, "trialdata": {"rt": -1, "trial_type": "single-stim", "word": "hedge", "stimulus": "<p id=\"stim\">HEDGE</p>", "conditions": [24, 800, "v", 12000], "internal_node_id": "0.0-120.0", "trial": 4, "time_elapsed": 961798, "serialpos": 8, "key_press": -1, "wordID": 698, "type": "PRES_VIS", "trial_index": 165}, "uniqueid": "MTK1323:3XCC1ODXDMIG4RAAK9CYVXCAQX9RQP", "dateTime": 1515775944891}, {"current_trial": 166, "trialdata": {"rt": -1, "trial_type": "single-stim", "word": "barley", "stimulus": "<p id=\"stim\">BARLEY</p>", "conditions": [24, 800, "v", 12000], "internal_node_id": "0.0-121.0", "trial": 4, "time_elapsed": 963580, "serialpos": 9, "key_press": -1, "wordID": 87, "type": "PRES_VIS", "trial_index": 166}, "uniqueid": "MTK1323:3XCC1ODXDMIG4RAAK9CYVXCAQX9RQP", "dateTime": 1515775946672}, {"current_trial": 167, "trialdata": {"rt": -1, "trial_type": "single-stim", "word": "perfume", "stimulus": "<p id=\"stim\">PERFUME</p>", "conditions": [24, 800, "v", 12000], "internal_node_id": "0.0-122.0", "trial": 4, "time_elapsed": 965389, "serialpos": 10, "key_press": -1, "wordID": 1048, "type": "PRES_VIS", "trial_index": 167}, "uniqueid": "MTK1323:3XCC1ODXDMIG4RAAK9CYVXCAQX9RQP", "dateTime": 1515775948481}, {"current_trial": 168, "trialdata": {"rt": -1, "trial_type": "single-stim", "word": "camel", "stimulus": "<p id=\"stim\">CAMEL</p>", "conditions": [24, 800, "v", 12000], "internal_node_id": "0.0-123.0", "trial": 4, "time_elapsed": 967369, "serialpos": 11, "key_press": -1, "wordID": 222, "type": "PRES_VIS", "trial_index": 168}, "uniqueid": "MTK1323:3XCC1ODXDMIG4RAAK9CYVXCAQX9RQP", "dateTime": 1515775950461}, {"current_trial": 169, "trialdata": {"rt": -1, "trial_type": "single-stim", "word": "college", "stimulus": "<p id=\"stim\">COLLEGE</p>", "conditions": [24, 800, "v", 12000], "internal_node_id": "0.0-124.0", "trial": 4, "time_elapsed": 969126, "serialpos": 12, "key_press": -1, "wordID": 345, "type": "PRES_VIS", "trial_index": 169}, "uniqueid": "MTK1323:3XCC1ODXDMIG4RAAK9CYVXCAQX9RQP", "dateTime": 1515775952219}, {"current_trial": 170, "trialdata": {"rt": -1, "trial_type": "single-stim", "word": "student", "stimulus": "<p id=\"stim\">STUDENT</p>", "conditions": [24, 800, "v", 12000], "internal_node_id": "0.0-125.0", "trial": 4, "time_elapsed": 970768, "serialpos": 13, "key_press": -1, "wordID": 1394, "type": "PRES_VIS", "trial_index": 170}, "uniqueid": "MTK1323:3XCC1ODXDMIG4RAAK9CYVXCAQX9RQP", "dateTime": 1515775953860}, {"current_trial": 171, "trialdata": {"rt": -1, "trial_type": "single-stim", "word": "gift", "stimulus": "<p id=\"stim\">GIFT</p>", "conditions": [24, 800, "v", 12000], "internal_node_id": "0.0-126.0", "trial": 4, "time_elapsed": 972383, "serialpos": 14, "key_press": -1, "wordID": 634, "type": "PRES_VIS", "trial_index": 171}, "uniqueid": "MTK1323:3XCC1ODXDMIG4RAAK9CYVXCAQX9RQP", "dateTime": 1515775955475}, {"current_trial": 172, "trialdata": {"rt": -1, "trial_type": "single-stim", "word": "garlic", "stimulus": "<p id=\"stim\">GARLIC</p>", "conditions": [24, 800, "v", 12000], "internal_node_id": "0.0-127.0", "trial": 4, "time_elapsed": 974057, "serialpos": 15, "key_press": -1, "wordID": 623, "type": "PRES_VIS", "trial_index": 172}, "uniqueid": "MTK1323:3XCC1ODXDMIG4RAAK9CYVXCAQX9RQP", "dateTime": 1515775957149}, {"current_trial": 173, "trialdata": {"rt": -1, "trial_type": "single-stim", "word": "servant", "stimulus": "<p id=\"stim\">SERVANT</p>", "conditions": [24, 800, "v", 12000], "internal_node_id": "0.0-128.0", "trial": 4, "time_elapsed": 975995, "serialpos": 16, "key_press": -1, "wordID": 1270, "type": "PRES_VIS", "trial_index": 173}, "uniqueid": "MTK1323:3XCC1ODXDMIG4RAAK9CYVXCAQX9RQP", "dateTime": 1515775959088}, {"current_trial": 174, "trialdata": {"rt": -1, "trial_type": "single-stim", "word": "burglar", "stimulus": "<p id=\"stim\">BURGLAR</p>", "conditions": [24, 800, "v", 12000], "internal_node_id": "0.0-129.0", "trial": 4, "time_elapsed": 977808, "serialpos": 17, "key_press": -1, "wordID": 199, "type": "PRES_VIS", "trial_index": 174}, "uniqueid": "MTK1323:3XCC1ODXDMIG4RAAK9CYVXCAQX9RQP", "dateTime": 1515775960900}, {"current_trial": 175, "trialdata": {"rt": -1, "trial_type": "single-stim", "word": "denim", "stimulus": "<p id=\"stim\">DENIM</p>", "conditions": [24, 800, "v", 12000], "internal_node_id": "0.0-130.0", "trial": 4, "time_elapsed": 979747, "serialpos": 18, "key_press": -1, "wordID": 445, "type": "PRES_VIS", "trial_index": 175}, "uniqueid": "MTK1323:3XCC1ODXDMIG4RAAK9CYVXCAQX9RQP", "dateTime": 1515775962839}, {"current_trial": 176, "trialdata": {"rt": -1, "trial_type": "single-stim", "word": "hawk", "stimulus": "<p id=\"stim\">HAWK</p>", "conditions": [24, 800, "v", 12000], "internal_node_id": "0.0-131.0", "trial": 4, "time_elapsed": 981532, "serialpos": 19, "key_press": -1, "wordID": 691, "type": "PRES_VIS", "trial_index": 176}, "uniqueid": "MTK1323:3XCC1ODXDMIG4RAAK9CYVXCAQX9RQP", "dateTime": 1515775964624}, {"current_trial": 177, "trialdata": {"rt": -1, "trial_type": "single-stim", "word": "permit", "stimulus": "<p id=\"stim\">PERMIT</p>", "conditions": [24, 800, "v", 12000], "internal_node_id": "0.0-132.0", "trial": 4, "time_elapsed": 983442, "serialpos": 20, "key_press": -1, "wordID": 1050, "type": "PRES_VIS", "trial_index": 177}, "uniqueid": "MTK1323:3XCC1ODXDMIG4RAAK9CYVXCAQX9RQP", "dateTime": 1515775966534}, {"current_trial": 178, "trialdata": {"rt": -1, "trial_type": "single-stim", "word": "plaid", "stimulus": "<p id=\"stim\">PLAID</p>", "conditions": [24, 800, "v", 12000], "internal_node_id": "0.0-133.0", "trial": 4, "time_elapsed": 985226, "serialpos": 21, "key_press": -1, "wordID": 1079, "type": "PRES_VIS", "trial_index": 178}, "uniqueid": "MTK1323:3XCC1ODXDMIG4RAAK9CYVXCAQX9RQP", "dateTime": 1515775968318}, {"current_trial": 179, "trialdata": {"rt": -1, "trial_type": "single-stim", "word": "binder", "stimulus": "<p id=\"stim\">BINDER</p>", "conditions": [24, 800, "v", 12000], "internal_node_id": "0.0-134.0", "trial": 4, "time_elapsed": 987228, "serialpos": 22, "key_press": -1, "wordID": 126, "type": "PRES_VIS", "trial_index": 179}, "uniqueid": "MTK1323:3XCC1ODXDMIG4RAAK9CYVXCAQX9RQP", "dateTime": 1515775970320}, {"current_trial": 180, "trialdata": {"rt": -1, "trial_type": "single-stim", "word": "widow", "stimulus": "<p id=\"stim\">WIDOW</p>", "conditions": [24, 800, "v", 12000], "internal_node_id": "0.0-135.0", "trial": 4, "time_elapsed": 989121, "serialpos": 23, "key_press": -1, "wordID": 1607, "type": "PRES_VIS", "trial_index": 180}, "uniqueid": "MTK1323:3XCC1ODXDMIG4RAAK9CYVXCAQX9RQP", "dateTime": 1515775972213}, {"current_trial": 181, "trialdata": {"rt": -1, "trial_type": "single-stim", "stimulus": "", "internal_node_id": "0.0-136.0-0.0", "time_elapsed": 991620, "key_press": -1, "type": "PRE_RECALL_DELAY", "trial_index": 181}, "uniqueid": "MTK1323:3XCC1ODXDMIG4RAAK9CYVXCAQX9RQP", "dateTime": 1515775974712}, {"current_trial": 182, "trialdata": {"rt": -1000, "trial_type": "single-audio", "stimulus": "/static/audio/400Hz.wav", "internal_node_id": "0.0-137.0", "time_elapsed": 992132, "key_press": -1, "type": "PRE_RECALL_ALERT", "trial_index": 182}, "uniqueid": "MTK1323:3XCC1ODXDMIG4RAAK9CYVXCAQX9RQP", "dateTime": 1515775975224}, {"current_trial": 183, "trialdata": {"rt": [5951, 12934, 17323, 21712, 25852, 33258, 40882, 51593, 57666], "recwords": ["widow", "blouse", "dress", "drink", "plaid", "permit", "gift", "camel", "perfume"], "key_times": [1364, 2413, 2896, 3556, 4386, 5951, 8893, 9676, 9930, 11055, 11684, 11955, 12934, 13940, 14211, 14446, 14762, 14935, 17323, 18136, 18396, 18940, 19291, 19566, 21712, 22902, 23165, 23719, 24195, 24657, 25852, 29959, 30520, 30751, 31480, 31845, 32300, 33258, 38215, 38808, 39526, 39864, 40882, 42175, 42789, 43135, 44405, 44657, 44817, 48500, 48847, 49653, 50164, 50689, 51593, 52572, 53170, 53398, 53945, 54335, 54756, 55284, 57666], "trial_type": "free-recall", "conditions": [24, 800, "v", 12000], "internal_node_id": "0.0-138.0-0.0", "key_presses": [87, 73, 68, 79, 87, 13, 66, 76, 79, 85, 83, 69, 13, 68, 82, 69, 83, 83, 13, 68, 82, 73, 78, 75, 13, 80, 76, 65, 73, 68, 13, 80, 69, 82, 77, 73, 84, 13, 71, 73, 70, 84, 13, 83, 84, 85, 8, 8, 8, 67, 65, 77, 69, 76, 13, 80, 69, 82, 70, 85, 77, 69, 13], "trial": 4, "time_elapsed": 1052140, "type": "FREE_RECALL", "trial_index": 183}, "uniqueid": "MTK1323:3XCC1ODXDMIG4RAAK9CYVXCAQX9RQP", "dateTime": 1515776035235}, {"current_trial": 184, "trialdata": {"rt": 2003, "trial_type": "text", "internal_node_id": "0.0-139.0", "time_elapsed": 1056147, "key_press": 13, "type": "INSTRUCTIONS", "trial_index": 184}, "uniqueid": "MTK1323:3XCC1ODXDMIG4RAAK9CYVXCAQX9RQP", "dateTime": 1515776039239}, {"current_trial": 185, "trialdata": {"rt": [3892, 9320, 12769, 15611, 18518], "trial_type": "math-distractor", "key_times": [2997, 3892, 8166, 8558, 9320, 11675, 12111, 12769, 14747, 15169, 15611, 17785, 17991, 18518], "responses": ["8", "15", "20", "17", "12"], "num2": [5, 7, 6, 6, 2, 9], "num3": [1, 8, 6, 4, 6, 7], "conditions": [24, 1600, "v", 24000], "internal_node_id": "0.0-140.0", "key_presses": [56, 13, 49, 53, 13, 50, 48, 13, 49, 55, 13, 49, 50, 13], "trial": 5, "time_elapsed": 1082179, "type": "DISTRACTOR", "trial_index": 185, "num1": [2, 7, 8, 7, 4, 9]}, "uniqueid": "MTK1323:3XCC1ODXDMIG4RAAK9CYVXCAQX9RQP", "dateTime": 1515776065271}, {"current_trial": 186, "trialdata": {"rt": -1, "trial_type": "single-stim", "stimulus": "<p id=\"stim\">10</p>", "internal_node_id": "0.0-141.0-0.0", "time_elapsed": 1085191, "key_press": -1, "trial_index": 186}, "uniqueid": "MTK1323:3XCC1ODXDMIG4RAAK9CYVXCAQX9RQP", "dateTime": 1515776068283}, {"current_trial": 187, "trialdata": {"rt": -1, "trial_type": "single-stim", "stimulus": "<p id=\"stim\">9</p>", "internal_node_id": "0.0-141.0-1.0", "time_elapsed": 1086202, "key_press": -1, "trial_index": 187}, "uniqueid": "MTK1323:3XCC1ODXDMIG4RAAK9CYVXCAQX9RQP", "dateTime": 1515776069294}, {"current_trial": 188, "trialdata": {"rt": -1, "trial_type": "single-stim", "stimulus": "<p id=\"stim\">8</p>", "internal_node_id": "0.0-141.0-2.0", "time_elapsed": 1087205, "key_press": -1, "trial_index": 188}, "uniqueid": "MTK1323:3XCC1ODXDMIG4RAAK9CYVXCAQX9RQP", "dateTime": 1515776070297}, {"current_trial": 189, "trialdata": {"rt": -1, "trial_type": "single-stim", "stimulus": "<p id=\"stim\">7</p>", "internal_node_id": "0.0-141.0-3.0", "time_elapsed": 1088206, "key_press": -1, "trial_index": 189}, "uniqueid": "MTK1323:3XCC1ODXDMIG4RAAK9CYVXCAQX9RQP", "dateTime": 1515776071298}, {"current_trial": 190, "trialdata": {"rt": -1, "trial_type": "single-stim", "stimulus": "<p id=\"stim\">6</p>", "internal_node_id": "0.0-141.0-4.0", "time_elapsed": 1089214, "key_press": -1, "trial_index": 190}, "uniqueid": "MTK1323:3XCC1ODXDMIG4RAAK9CYVXCAQX9RQP", "dateTime": 1515776072307}, {"current_trial": 191, "trialdata": {"rt": -1, "trial_type": "single-stim", "stimulus": "<p id=\"stim\">5</p>", "internal_node_id": "0.0-141.0-5.0", "time_elapsed": 1090221, "key_press": -1, "trial_index": 191}, "uniqueid": "MTK1323:3XCC1ODXDMIG4RAAK9CYVXCAQX9RQP", "dateTime": 1515776073313}, {"current_trial": 192, "trialdata": {"rt": -1, "trial_type": "single-stim", "stimulus": "<p id=\"stim\">4</p>", "internal_node_id": "0.0-141.0-6.0", "time_elapsed": 1091230, "key_press": -1, "trial_index": 192}, "uniqueid": "MTK1323:3XCC1ODXDMIG4RAAK9CYVXCAQX9RQP", "dateTime": 1515776074322}, {"current_trial": 193, "trialdata": {"rt": -1, "trial_type": "single-stim", "stimulus": "<p id=\"stim\">3</p>", "internal_node_id": "0.0-141.0-7.0", "time_elapsed": 1092233, "key_press": -1, "trial_index": 193}, "uniqueid": "MTK1323:3XCC1ODXDMIG4RAAK9CYVXCAQX9RQP", "dateTime": 1515776075325}, {"current_trial": 194, "trialdata": {"rt": -1, "trial_type": "single-stim", "stimulus": "<p id=\"stim\">2</p>", "internal_node_id": "0.0-141.0-8.0", "time_elapsed": 1093241, "key_press": -1, "trial_index": 194}, "uniqueid": "MTK1323:3XCC1ODXDMIG4RAAK9CYVXCAQX9RQP", "dateTime": 1515776076333}, {"current_trial": 195, "trialdata": {"rt": -1, "trial_type": "single-stim", "stimulus": "<p id=\"stim\">1</p>", "internal_node_id": "0.0-141.0-9.0", "time_elapsed": 1094251, "key_press": -1, "trial_index": 195}, "uniqueid": "MTK1323:3XCC1ODXDMIG4RAAK9CYVXCAQX9RQP", "dateTime": 1515776077343}, {"current_trial": 196, "trialdata": {"rt": -1, "trial_type": "single-stim", "stimulus": "<p id=\"stim\">+</p>", "internal_node_id": "0.0-142.0-0.0", "time_elapsed": 1095765, "key_press": -1, "type": "FIXATION", "trial_index": 196}, "uniqueid": "MTK1323:3XCC1ODXDMIG4RAAK9CYVXCAQX9RQP", "dateTime": 1515776078858}, {"current_trial": 197, "trialdata": {"rt": -1, "trial_type": "single-stim", "word": "elbow", "stimulus": "<p id=\"stim\">ELBOW</p>", "conditions": [24, 1600, "v", 24000], "internal_node_id": "0.0-143.0", "trial": 5, "time_elapsed": 1097376, "serialpos": 0, "key_press": -1, "wordID": 519, "type": "PRES_VIS", "trial_index": 197}, "uniqueid": "MTK1323:3XCC1ODXDMIG4RAAK9CYVXCAQX9RQP", "dateTime": 1515776080468}, {"current_trial": 198, "trialdata": {"rt": -1, "trial_type": "single-stim", "word": "tribe", "stimulus": "<p id=\"stim\">TRIBE</p>", "conditions": [24, 1600, "v", 24000], "internal_node_id": "0.0-144.0", "trial": 5, "time_elapsed": 1099846, "serialpos": 1, "key_press": -1, "wordID": 1504, "type": "PRES_VIS", "trial_index": 198}, "uniqueid": "MTK1323:3XCC1ODXDMIG4RAAK9CYVXCAQX9RQP", "dateTime": 1515776082938}, {"current_trial": 199, "trialdata": {"rt": -1, "trial_type": "single-stim", "word": "sketch", "stimulus": "<p id=\"stim\">SKETCH</p>", "conditions": [24, 1600, "v", 24000], "internal_node_id": "0.0-145.0", "trial": 5, "time_elapsed": 1102491, "serialpos": 2, "key_press": -1, "wordID": 1314, "type": "PRES_VIS", "trial_index": 199}, "uniqueid": "MTK1323:3XCC1ODXDMIG4RAAK9CYVXCAQX9RQP", "dateTime": 1515776085583}, {"current_trial": 200, "trialdata": {"rt": -1, "trial_type": "single-stim", "word": "tombstone", "stimulus": "<p id=\"stim\">TOMBSTONE</p>", "conditions": [24, 1600, "v", 24000], "internal_node_id": "0.0-146.0", "trial": 5, "time_elapsed": 1105056, "serialpos": 3, "key_press": -1, "wordID": 1477, "type": "PRES_VIS", "trial_index": 200}, "uniqueid": "MTK1323:3XCC1ODXDMIG4RAAK9CYVXCAQX9RQP", "dateTime": 1515776088148}, {"current_trial": 201, "trialdata": {"rt": -1, "trial_type": "single-stim", "word": "pigeon", "stimulus": "<p id=\"stim\">PIGEON</p>", "conditions": [24, 1600, "v", 24000], "internal_node_id": "0.0-147.0", "trial": 5, "time_elapsed": 1107810, "serialpos": 4, "key_press": -1, "wordID": 1064, "type": "PRES_VIS", "trial_index": 201}, "uniqueid": "MTK1323:3XCC1ODXDMIG4RAAK9CYVXCAQX9RQP", "dateTime": 1515776090902}, {"current_trial": 202, "trialdata": {"rt": -1, "trial_type": "single-stim", "word": "fox", "stimulus": "<p id=\"stim\">FOX</p>", "conditions": [24, 1600, "v", 24000], "internal_node_id": "0.0-148.0", "trial": 5, "time_elapsed": 1110419, "serialpos": 5, "key_press": -1, "wordID": 597, "type": "PRES_VIS", "trial_index": 202}, "uniqueid": "MTK1323:3XCC1ODXDMIG4RAAK9CYVXCAQX9RQP", "dateTime": 1515776093511}, {"current_trial": 203, "trialdata": {"rt": -1, "trial_type": "single-stim", "word": "dancer", "stimulus": "<p id=\"stim\">DANCER</p>", "conditions": [24, 1600, "v", 24000], "internal_node_id": "0.0-149.0", "trial": 5, "time_elapsed": 1112902, "serialpos": 6, "key_press": -1, "wordID": 436, "type": "PRES_VIS", "trial_index": 203}, "uniqueid": "MTK1323:3XCC1ODXDMIG4RAAK9CYVXCAQX9RQP", "dateTime": 1515776095994}, {"current_trial": 204, "trialdata": {"rt": -1, "trial_type": "single-stim", "word": "drawing", "stimulus": "<p id=\"stim\">DRAWING</p>", "conditions": [24, 1600, "v", 24000], "internal_node_id": "0.0-150.0", "trial": 5, "time_elapsed": 1115444, "serialpos": 7, "key_press": -1, "wordID": 493, "type": "PRES_VIS", "trial_index": 204}, "uniqueid": "MTK1323:3XCC1ODXDMIG4RAAK9CYVXCAQX9RQP", "dateTime": 1515776098536}, {"current_trial": 205, "trialdata": {"rt": -1, "trial_type": "single-stim", "word": "kitchen", "stimulus": "<p id=\"stim\">KITCHEN</p>", "conditions": [24, 1600, "v", 24000], "internal_node_id": "0.0-151.0", "trial": 5, "time_elapsed": 1117932, "serialpos": 8, "key_press": -1, "wordID": 777, "type": "PRES_VIS", "trial_index": 205}, "uniqueid": "MTK1323:3XCC1ODXDMIG4RAAK9CYVXCAQX9RQP", "dateTime": 1515776101024}, {"current_trial": 206, "trialdata": {"rt": -1, "trial_type": "single-stim", "word": "jungle", "stimulus": "<p id=\"stim\">JUNGLE</p>", "conditions": [24, 1600, "v", 24000], "internal_node_id": "0.0-152.0", "trial": 5, "time_elapsed": 1120450, "serialpos": 9, "key_press": -1, "wordID": 763, "type": "PRES_VIS", "trial_index": 206}, "uniqueid": "MTK1323:3XCC1ODXDMIG4RAAK9CYVXCAQX9RQP", "dateTime": 1515776103542}, {"current_trial": 207, "trialdata": {"rt": -1, "trial_type": "single-stim", "word": "swamp", "stimulus": "<p id=\"stim\">SWAMP</p>", "conditions": [24, 1600, "v", 24000], "internal_node_id": "0.0-153.0", "trial": 5, "time_elapsed": 1123222, "serialpos": 10, "key_press": -1, "wordID": 1415, "type": "PRES_VIS", "trial_index": 207}, "uniqueid": "MTK1323:3XCC1ODXDMIG4RAAK9CYVXCAQX9RQP", "dateTime": 1515776106314}, {"current_trial": 208, "trialdata": {"rt": -1, "trial_type": "single-stim", "word": "cook", "stimulus": "<p id=\"stim\">COOK</p>", "conditions": [24, 1600, "v", 24000], "internal_node_id": "0.0-154.0", "trial": 5, "time_elapsed": 1126006, "serialpos": 11, "key_press": -1, "wordID": 371, "type": "PRES_VIS", "trial_index": 208}, "uniqueid": "MTK1323:3XCC1ODXDMIG4RAAK9CYVXCAQX9RQP", "dateTime": 1515776109098}, {"current_trial": 209, "trialdata": {"rt": -1, "trial_type": "single-stim", "word": "dust", "stimulus": "<p id=\"stim\">DUST</p>", "conditions": [24, 1600, "v", 24000], "internal_node_id": "0.0-155.0", "trial": 5, "time_elapsed": 1128544, "serialpos": 12, "key_press": -1, "wordID": 507, "type": "PRES_VIS", "trial_index": 209}, "uniqueid": "MTK1323:3XCC1ODXDMIG4RAAK9CYVXCAQX9RQP", "dateTime": 1515776111636}, {"current_trial": 210, "trialdata": {"rt": -1, "trial_type": "single-stim", "word": "snake", "stimulus": "<p id=\"stim\">SNAKE</p>", "conditions": [24, 1600, "v", 24000], "internal_node_id": "0.0-156.0", "trial": 5, "time_elapsed": 1131006, "serialpos": 13, "key_press": -1, "wordID": 1332, "type": "PRES_VIS", "trial_index": 210}, "uniqueid": "MTK1323:3XCC1ODXDMIG4RAAK9CYVXCAQX9RQP", "dateTime": 1515776114098}, {"current_trial": 211, "trialdata": {"rt": -1, "trial_type": "single-stim", "word": "ozone", "stimulus": "<p id=\"stim\">OZONE</p>", "conditions": [24, 1600, "v", 24000], "internal_node_id": "0.0-157.0", "trial": 5, "time_elapsed": 1133481, "serialpos": 14, "key_press": -1, "wordID": 995, "type": "PRES_VIS", "trial_index": 211}, "uniqueid": "MTK1323:3XCC1ODXDMIG4RAAK9CYVXCAQX9RQP", "dateTime": 1515776116573}, {"current_trial": 212, "trialdata": {"rt": -1, "trial_type": "single-stim", "word": "pocket", "stimulus": "<p id=\"stim\">POCKET</p>", "conditions": [24, 1600, "v", 24000], "internal_node_id": "0.0-158.0", "trial": 5, "time_elapsed": 1136260, "serialpos": 15, "key_press": -1, "wordID": 1092, "type": "PRES_VIS", "trial_index": 212}, "uniqueid": "MTK1323:3XCC1ODXDMIG4RAAK9CYVXCAQX9RQP", "dateTime": 1515776119352}, {"current_trial": 213, "trialdata": {"rt": -1, "trial_type": "single-stim", "word": "tweezers", "stimulus": "<p id=\"stim\">TWEEZERS</p>", "conditions": [24, 1600, "v", 24000], "internal_node_id": "0.0-159.0", "trial": 5, "time_elapsed": 1139024, "serialpos": 16, "key_press": -1, "wordID": 1525, "type": "PRES_VIS", "trial_index": 213}, "uniqueid": "MTK1323:3XCC1ODXDMIG4RAAK9CYVXCAQX9RQP", "dateTime": 1515776122116}, {"current_trial": 214, "trialdata": {"rt": -1, "trial_type": "single-stim", "word": "neutron", "stimulus": "<p id=\"stim\">NEUTRON</p>", "conditions": [24, 1600, "v", 24000], "internal_node_id": "0.0-160.0", "trial": 5, "time_elapsed": 1141788, "serialpos": 17, "key_press": -1, "wordID": 946, "type": "PRES_VIS", "trial_index": 214}, "uniqueid": "MTK1323:3XCC1ODXDMIG4RAAK9CYVXCAQX9RQP", "dateTime": 1515776124880}, {"current_trial": 215, "trialdata": {"rt": -1, "trial_type": "single-stim", "word": "tunnel", "stimulus": "<p id=\"stim\">TUNNEL</p>", "conditions": [24, 1600, "v", 24000], "internal_node_id": "0.0-161.0", "trial": 5, "time_elapsed": 1144444, "serialpos": 18, "key_press": -1, "wordID": 1518, "type": "PRES_VIS", "trial_index": 215}, "uniqueid": "MTK1323:3XCC1ODXDMIG4RAAK9CYVXCAQX9RQP", "dateTime": 1515776127536}, {"current_trial": 216, "trialdata": {"rt": -1, "trial_type": "single-stim", "word": "panther", "stimulus": "<p id=\"stim\">PANTHER</p>", "conditions": [24, 1600, "v", 24000], "internal_node_id": "0.0-162.0", "trial": 5, "time_elapsed": 1147107, "serialpos": 19, "key_press": -1, "wordID": 1008, "type": "PRES_VIS", "trial_index": 216}, "uniqueid": "MTK1323:3XCC1ODXDMIG4RAAK9CYVXCAQX9RQP", "dateTime": 1515776130199}, {"current_trial": 217, "trialdata": {"rt": -1, "trial_type": "single-stim", "word": "turtle", "stimulus": "<p id=\"stim\">TURTLE</p>", "conditions": [24, 1600, "v", 24000], "internal_node_id": "0.0-163.0", "trial": 5, "time_elapsed": 1149600, "serialpos": 20, "key_press": -1, "wordID": 1521, "type": "PRES_VIS", "trial_index": 217}, "uniqueid": "MTK1323:3XCC1ODXDMIG4RAAK9CYVXCAQX9RQP", "dateTime": 1515776132692}, {"current_trial": 218, "trialdata": {"rt": -1, "trial_type": "single-stim", "word": "slope", "stimulus": "<p id=\"stim\">SLOPE</p>", "conditions": [24, 1600, "v", 24000], "internal_node_id": "0.0-164.0", "trial": 5, "time_elapsed": 1152371, "serialpos": 21, "key_press": -1, "wordID": 1327, "type": "PRES_VIS", "trial_index": 218}, "uniqueid": "MTK1323:3XCC1ODXDMIG4RAAK9CYVXCAQX9RQP", "dateTime": 1515776135463}, {"current_trial": 219, "trialdata": {"rt": -1, "trial_type": "single-stim", "word": "cottage", "stimulus": "<p id=\"stim\">COTTAGE</p>", "conditions": [24, 1600, "v", 24000], "internal_node_id": "0.0-165.0", "trial": 5, "time_elapsed": 1155142, "serialpos": 22, "key_press": -1, "wordID": 383, "type": "PRES_VIS", "trial_index": 219}, "uniqueid": "MTK1323:3XCC1ODXDMIG4RAAK9CYVXCAQX9RQP", "dateTime": 1515776138234}, {"current_trial": 220, "trialdata": {"rt": -1, "trial_type": "single-stim", "word": "smog", "stimulus": "<p id=\"stim\">SMOG</p>", "conditions": [24, 1600, "v", 24000], "internal_node_id": "0.0-166.0", "trial": 5, "time_elapsed": 1157846, "serialpos": 23, "key_press": -1, "wordID": 1329, "type": "PRES_VIS", "trial_index": 220}, "uniqueid": "MTK1323:3XCC1ODXDMIG4RAAK9CYVXCAQX9RQP", "dateTime": 1515776140938}, {"current_trial": 221, "trialdata": {"rt": -1, "trial_type": "single-stim", "stimulus": "", "internal_node_id": "0.0-167.0-0.0", "time_elapsed": 1160301, "key_press": -1, "type": "PRE_RECALL_DELAY", "trial_index": 221}, "uniqueid": "MTK1323:3XCC1ODXDMIG4RAAK9CYVXCAQX9RQP", "dateTime": 1515776143393}, {"current_trial": 222, "trialdata": {"rt": -1000, "trial_type": "single-audio", "stimulus": "/static/audio/400Hz.wav", "internal_node_id": "0.0-168.0", "time_elapsed": 1160815, "key_press": -1, "type": "PRE_RECALL_ALERT", "trial_index": 222}, "uniqueid": "MTK1323:3XCC1ODXDMIG4RAAK9CYVXCAQX9RQP", "dateTime": 1515776143907}, {"current_trial": 223, "trialdata": {"rt": [2232, 7061, 15570, 21333, 26422, 36924, 41132, 49558, 55494], "recwords": ["s", "smog", "elbow", "dust", "fox", "tribe", "pigeon", "jungle", "cook"], "key_times": [1247, 2232, 2607, 3030, 3643, 3844, 4009, 4729, 5598, 5905, 6304, 7061, 7902, 9407, 9801, 10170, 10727, 15570, 19372, 19871, 20268, 20625, 21333, 24378, 25196, 25686, 26422, 30809, 31060, 31969, 32404, 33363, 36924, 37860, 38215, 39314, 39716, 40210, 40526, 41132, 44545, 44936, 46052, 46462, 46956, 47476, 49558, 53230, 53945, 54135, 54986, 55494], "trial_type": "free-recall", "conditions": [24, 1600, "v", 24000], "internal_node_id": "0.0-169.0-0.0", "key_presses": [83, 188, 79, 72, 8, 8, 8, 83, 77, 79, 71, 13, 69, 76, 66, 79, 87, 13, 68, 85, 83, 84, 13, 70, 79, 88, 13, 84, 82, 73, 66, 69, 13, 80, 73, 71, 69, 79, 78, 13, 74, 85, 78, 71, 76, 69, 13, 67, 79, 79, 75, 13], "trial": 5, "time_elapsed": 1220830, "type": "FREE_RECALL", "trial_index": 223}, "uniqueid": "MTK1323:3XCC1ODXDMIG4RAAK9CYVXCAQX9RQP", "dateTime": 1515776203925}, {"current_trial": 224, "trialdata": {"rt": 1769, "trial_type": "text", "internal_node_id": "0.0-170.0", "time_elapsed": 1224614, "key_press": 13, "type": "INSTRUCTIONS", "trial_index": 224}, "uniqueid": "MTK1323:3XCC1ODXDMIG4RAAK9CYVXCAQX9RQP", "dateTime": 1515776207706}, {"current_trial": 225, "trialdata": {"rt": [3699, 7690, 11599, 14779, 19924, 22427], "trial_type": "math-distractor", "key_times": [1906, 2549, 3699, 6853, 7690, 10217, 10471, 11599, 13576, 14004, 14779, 19090, 19398, 19924, 21359, 21654, 22427], "responses": ["15", "7", "12", "14", "24", "13"], "num2": [8, 6, 8, 4, 9, 5, 4], "num3": [5, 3, 3, 5, 9, 5, 8], "conditions": [12, 1600, "v", 24000], "internal_node_id": "0.0-171.0", "key_presses": [49, 53, 13, 55, 13, 49, 50, 13, 49, 52, 13, 50, 52, 13, 49, 51, 13], "trial": 6, "time_elapsed": 1250638, "type": "DISTRACTOR", "trial_index": 225, "num1": [2, 1, 1, 5, 6, 3, 5]}, "uniqueid": "MTK1323:3XCC1ODXDMIG4RAAK9CYVXCAQX9RQP", "dateTime": 1515776233731}, {"current_trial": 226, "trialdata": {"rt": -1, "trial_type": "single-stim", "stimulus": "<p id=\"stim\">10</p>", "internal_node_id": "0.0-172.0-0.0", "time_elapsed": 1253654, "key_press": -1, "trial_index": 226}, "uniqueid": "MTK1323:3XCC1ODXDMIG4RAAK9CYVXCAQX9RQP", "dateTime": 1515776236747}, {"current_trial": 227, "trialdata": {"rt": -1, "trial_type": "single-stim", "stimulus": "<p id=\"stim\">9</p>", "internal_node_id": "0.0-172.0-1.0", "time_elapsed": 1254668, "key_press": -1, "trial_index": 227}, "uniqueid": "MTK1323:3XCC1ODXDMIG4RAAK9CYVXCAQX9RQP", "dateTime": 1515776237760}, {"current_trial": 228, "trialdata": {"rt": -1, "trial_type": "single-stim", "stimulus": "<p id=\"stim\">8</p>", "internal_node_id": "0.0-172.0-2.0", "time_elapsed": 1255672, "key_press": -1, "trial_index": 228}, "uniqueid": "MTK1323:3XCC1ODXDMIG4RAAK9CYVXCAQX9RQP", "dateTime": 1515776238764}, {"current_trial": 229, "trialdata": {"rt": -1, "trial_type": "single-stim", "stimulus": "<p id=\"stim\">7</p>", "internal_node_id": "0.0-172.0-3.0", "time_elapsed": 1256683, "key_press": -1, "trial_index": 229}, "uniqueid": "MTK1323:3XCC1ODXDMIG4RAAK9CYVXCAQX9RQP", "dateTime": 1515776239775}, {"current_trial": 230, "trialdata": {"rt": -1, "trial_type": "single-stim", "stimulus": "<p id=\"stim\">6</p>", "internal_node_id": "0.0-172.0-4.0", "time_elapsed": 1257683, "key_press": -1, "trial_index": 230}, "uniqueid": "MTK1323:3XCC1ODXDMIG4RAAK9CYVXCAQX9RQP", "dateTime": 1515776240776}, {"current_trial": 231, "trialdata": {"rt": -1, "trial_type": "single-stim", "stimulus": "<p id=\"stim\">5</p>", "internal_node_id": "0.0-172.0-5.0", "time_elapsed": 1258685, "key_press": -1, "trial_index": 231}, "uniqueid": "MTK1323:3XCC1ODXDMIG4RAAK9CYVXCAQX9RQP", "dateTime": 1515776241777}, {"current_trial": 232, "trialdata": {"rt": -1, "trial_type": "single-stim", "stimulus": "<p id=\"stim\">4</p>", "internal_node_id": "0.0-172.0-6.0", "time_elapsed": 1259686, "key_press": -1, "trial_index": 232}, "uniqueid": "MTK1323:3XCC1ODXDMIG4RAAK9CYVXCAQX9RQP", "dateTime": 1515776242778}, {"current_trial": 233, "trialdata": {"rt": -1, "trial_type": "single-stim", "stimulus": "<p id=\"stim\">3</p>", "internal_node_id": "0.0-172.0-7.0", "time_elapsed": 1260702, "key_press": -1, "trial_index": 233}, "uniqueid": "MTK1323:3XCC1ODXDMIG4RAAK9CYVXCAQX9RQP", "dateTime": 1515776243794}, {"current_trial": 234, "trialdata": {"rt": -1, "trial_type": "single-stim", "stimulus": "<p id=\"stim\">2</p>", "internal_node_id": "0.0-172.0-8.0", "time_elapsed": 1261712, "key_press": -1, "trial_index": 234}, "uniqueid": "MTK1323:3XCC1ODXDMIG4RAAK9CYVXCAQX9RQP", "dateTime": 1515776244804}, {"current_trial": 235, "trialdata": {"rt": -1, "trial_type": "single-stim", "stimulus": "<p id=\"stim\">1</p>", "internal_node_id": "0.0-172.0-9.0", "time_elapsed": 1262728, "key_press": -1, "trial_index": 235}, "uniqueid": "MTK1323:3XCC1ODXDMIG4RAAK9CYVXCAQX9RQP", "dateTime": 1515776245820}, {"current_trial": 236, "trialdata": {"rt": -1, "trial_type": "single-stim", "stimulus": "<p id=\"stim\">+</p>", "internal_node_id": "0.0-173.0-0.0", "time_elapsed": 1264241, "key_press": -1, "type": "FIXATION", "trial_index": 236}, "uniqueid": "MTK1323:3XCC1ODXDMIG4RAAK9CYVXCAQX9RQP", "dateTime": 1515776247334}, {"current_trial": 237, "trialdata": {"rt": -1, "trial_type": "single-stim", "word": "salad", "stimulus": "<p id=\"stim\">SALAD</p>", "conditions": [12, 1600, "v", 24000], "internal_node_id": "0.0-174.0", "trial": 6, "time_elapsed": 1265854, "serialpos": 0, "key_press": -1, "wordID": 1223, "type": "PRES_VIS", "trial_index": 237}, "uniqueid": "MTK1323:3XCC1ODXDMIG4RAAK9CYVXCAQX9RQP", "dateTime": 1515776248946}, {"current_trial": 238, "trialdata": {"rt": -1, "trial_type": "single-stim", "word": "marrow", "stimulus": "<p id=\"stim\">MARROW</p>", "conditions": [12, 1600, "v", 24000], "internal_node_id": "0.0-175.0", "trial": 6, "time_elapsed": 1268290, "serialpos": 1, "key_press": -1, "wordID": 871, "type": "PRES_VIS", "trial_index": 238}, "uniqueid": "MTK1323:3XCC1ODXDMIG4RAAK9CYVXCAQX9RQP", "dateTime": 1515776251382}, {"current_trial": 239, "trialdata": {"rt": -1, "trial_type": "single-stim", "word": "star", "stimulus": "<p id=\"stim\">STAR</p>", "conditions": [12, 1600, "v", 24000], "internal_node_id": "0.0-176.0", "trial": 6, "time_elapsed": 1271001, "serialpos": 2, "key_press": -1, "wordID": 1372, "type": "PRES_VIS", "trial_index": 239}, "uniqueid": "MTK1323:3XCC1ODXDMIG4RAAK9CYVXCAQX9RQP", "dateTime": 1515776254093}, {"current_trial": 240, "trialdata": {"rt": -1, "trial_type": "single-stim", "word": "actor", "stimulus": "<p id=\"stim\">ACTOR</p>", "conditions": [12, 1600, "v", 24000], "internal_node_id": "0.0-177.0", "trial": 6, "time_elapsed": 1273757, "serialpos": 3, "key_press": -1, "wordID": 4, "type": "PRES_VIS", "trial_index": 240}, "uniqueid": "MTK1323:3XCC1ODXDMIG4RAAK9CYVXCAQX9RQP", "dateTime": 1515776256849}, {"current_trial": 241, "trialdata": {"rt": -1, "trial_type": "single-stim", "word": "wrist", "stimulus": "<p id=\"stim\">WRIST</p>", "conditions": [12, 1600, "v", 24000], "internal_node_id": "0.0-178.0", "trial": 6, "time_elapsed": 1276427, "serialpos": 4, "key_press": -1, "wordID": 1625, "type": "PRES_VIS", "trial_index": 241}, "uniqueid": "MTK1323:3XCC1ODXDMIG4RAAK9CYVXCAQX9RQP", "dateTime": 1515776259519}, {"current_trial": 242, "trialdata": {"rt": -1, "trial_type": "single-stim", "word": "ketchup", "stimulus": "<p id=\"stim\">KETCHUP</p>", "conditions": [12, 1600, "v", 24000], "internal_node_id": "0.0-179.0", "trial": 6, "time_elapsed": 1279192, "serialpos": 5, "key_press": -1, "wordID": 770, "type": "PRES_VIS", "trial_index": 242}, "uniqueid": "MTK1323:3XCC1ODXDMIG4RAAK9CYVXCAQX9RQP", "dateTime": 1515776262284}, {"current_trial": 243, "trialdata": {"rt": -1, "trial_type": "single-stim", "word": "space", "stimulus": "<p id=\"stim\">SPACE</p>", "conditions": [12, 1600, "v", 24000], "internal_node_id": "0.0-180.0", "trial": 6, "time_elapsed": 1281679, "serialpos": 6, "key_press": -1, "wordID": 1344, "type": "PRES_VIS", "trial_index": 243}, "uniqueid": "MTK1323:3XCC1ODXDMIG4RAAK9CYVXCAQX9RQP", "dateTime": 1515776264771}, {"current_trial": 244, "trialdata": {"rt": -1, "trial_type": "single-stim", "word": "glass", "stimulus": "<p id=\"stim\">GLASS</p>", "conditions": [12, 1600, "v", 24000], "internal_node_id": "0.0-181.0", "trial": 6, "time_elapsed": 1284306, "serialpos": 7, "key_press": -1, "wordID": 638, "type": "PRES_VIS", "trial_index": 244}, "uniqueid": "MTK1323:3XCC1ODXDMIG4RAAK9CYVXCAQX9RQP", "dateTime": 1515776267398}, {"current_trial": 245, "trialdata": {"rt": -1, "trial_type": "single-stim", "word": "beaver", "stimulus": "<p id=\"stim\">BEAVER</p>", "conditions": [12, 1600, "v", 24000], "internal_node_id": "0.0-182.0", "trial": 6, "time_elapsed": 1286722, "serialpos": 8, "key_press": -1, "wordID": 108, "type": "PRES_VIS", "trial_index": 245}, "uniqueid": "MTK1323:3XCC1ODXDMIG4RAAK9CYVXCAQX9RQP", "dateTime": 1515776269814}, {"current_trial": 246, "trialdata": {"rt": -1, "trial_type": "single-stim", "word": "liver", "stimulus": "<p id=\"stim\">LIVER</p>", "conditions": [12, 1600, "v", 24000], "internal_node_id": "0.0-183.0", "trial": 6, "time_elapsed": 1289499, "serialpos": 9, "key_press": -1, "wordID": 832, "type": "PRES_VIS", "trial_index": 246}, "uniqueid": "MTK1323:3XCC1ODXDMIG4RAAK9CYVXCAQX9RQP", "dateTime": 1515776272591}, {"current_trial": 247, "trialdata": {"rt": -1, "trial_type": "single-stim", "word": "flute", "stimulus": "<p id=\"stim\">FLUTE</p>", "conditions": [12, 1600, "v", 24000], "internal_node_id": "0.0-184.0", "trial": 6, "time_elapsed": 1292115, "serialpos": 10, "key_press": -1, "wordID": 584, "type": "PRES_VIS", "trial_index": 247}, "uniqueid": "MTK1323:3XCC1ODXDMIG4RAAK9CYVXCAQX9RQP", "dateTime": 1515776275207}, {"current_trial": 248, "trialdata": {"rt": -1, "trial_type": "single-stim", "word": "harp", "stimulus": "<p id=\"stim\">HARP</p>", "conditions": [12, 1600, "v", 24000], "internal_node_id": "0.0-185.0", "trial": 6, "time_elapsed": 1294660, "serialpos": 11, "key_press": -1, "wordID": 688, "type": "PRES_VIS", "trial_index": 248}, "uniqueid": "MTK1323:3XCC1ODXDMIG4RAAK9CYVXCAQX9RQP", "dateTime": 1515776277752}, {"current_trial": 249, "trialdata": {"rt": -1, "trial_type": "single-stim", "stimulus": "", "internal_node_id": "0.0-186.0-0.0", "time_elapsed": 1296995, "key_press": -1, "type": "PRE_RECALL_DELAY", "trial_index": 249}, "uniqueid": "MTK1323:3XCC1ODXDMIG4RAAK9CYVXCAQX9RQP", "dateTime": 1515776280088}, {"current_trial": 250, "trialdata": {"rt": -1000, "trial_type": "single-audio", "stimulus": "/static/audio/400Hz.wav", "internal_node_id": "0.0-187.0", "time_elapsed": 1297502, "key_press": -1, "type": "PRE_RECALL_ALERT", "trial_index": 250}, "uniqueid": "MTK1323:3XCC1ODXDMIG4RAAK9CYVXCAQX9RQP", "dateTime": 1515776280594}, {"current_trial": 251, "trialdata": {"rt": [4070, 8364, 11978, 18453, 23967, 27464, 32101, 38263, 41775], "recwords": ["harp", "flute", "beaver", "liver", "salad", "glass", "ketchup", "wrist", "marrow"], "key_times": [1598, 2349, 2877, 3346, 4070, 5497, 6472, 6893, 7224, 7535, 8364, 9163, 9633, 9940, 10609, 10984, 11203, 11978, 12480, 12847, 13276, 13684, 13921, 18453, 21265, 21548, 22333, 22838, 23122, 23967, 25217, 25726, 26237, 26486, 26653, 27464, 28703, 29224, 29495, 29967, 30376, 30647, 31459, 32101, 36007, 36378, 36997, 37405, 37713, 38263, 39335, 39809, 40141, 40302, 40697, 41184, 41775, 45665, 46432, 46904, 47225, 47602], "trial_type": "free-recall", "conditions": [12, 1600, "v", 24000], "internal_node_id": "0.0-188.0-0.0", "key_presses": [72, 65, 82, 80, 13, 70, 76, 85, 84, 69, 13, 66, 69, 65, 86, 69, 82, 13, 76, 73, 86, 69, 82, 13, 83, 65, 76, 65, 68, 13, 71, 76, 65, 83, 83, 13, 75, 69, 84, 67, 72, 85, 80, 13, 87, 82, 73, 83, 84, 13, 77, 65, 82, 82, 79, 87, 13, 83, 80, 65, 67, 69], "trial": 6, "time_elapsed": 1357517, "type": "FREE_RECALL", "trial_index": 251}, "uniqueid": "MTK1323:3XCC1ODXDMIG4RAAK9CYVXCAQX9RQP", "dateTime": 1515776340613}, {"current_trial": 252, "trialdata": {"rt": 4235, "trial_type": "text", "internal_node_id": "0.0-189.0", "time_elapsed": 1363756, "key_press": 77, "type": "INSTRUCTIONS", "trial_index": 252}, "uniqueid": "MTK1323:3XCC1ODXDMIG4RAAK9CYVXCAQX9RQP", "dateTime": 1515776346848}, {"current_trial": 253, "trialdata": {"rt": [4007, 8533, 11243], "trial_type": "math-distractor", "key_times": [2845, 3309, 4007, 7332, 7783, 8533, 10361, 10545, 11243], "responses": ["16", "15", "11"], "num2": [7, 6, 6, 3], "num3": [1, 7, 4, 3], "conditions": [12, 800, "v", 12000