{"condition": 0, "counterbalance": 1913, "assignmentId": "3AUQQEL7U60K95MSCVNTHOAVW100V7", "workerId": "MTK1198", "hitId": "3J6BHNX0U9Z7R6MTOV6I17Z79FYNKP", "currenttrial": 626, "bonus": 0, "data": [{"uniqueid": "MTK1198:3AUQQEL7U60K95MSCVNTHOAVW100V7", "current_trial": 0, "dateTime": 1513457773710, "trialdata": {"rt": 4166, "key_press": 32, "type": "INSTRUCTIONS", "trial_type": "text", "trial_index": 0, "time_elapsed": 4171, "internal_node_id": "0.0-0.0"}}, {"uniqueid": "MTK1198:3AUQQEL7U60K95MSCVNTHOAVW100V7", "current_trial": 1, "dateTime": 1513457789788, "trialdata": {"rt": 16075, "key_press": 32, "type": "INSTRUCTIONS", "trial_type": "text", "trial_index": 1, "time_elapsed": 20249, "internal_node_id": "0.0-1.0"}}, {"uniqueid": "MTK1198:3AUQQEL7U60K95MSCVNTHOAVW100V7", "current_trial": 2, "dateTime": 1513457809613, "trialdata": {"rt": [19815], "responses": ["ocean"], "type": "AUDIO_TEST", "trial_type": "audio-test", "trial_index": 2, "time_elapsed": 40075, "internal_node_id": "0.0-2.0"}}, {"uniqueid": "MTK1198:3AUQQEL7U60K95MSCVNTHOAVW100V7", "current_trial": 3, "dateTime": 1513457816076, "trialdata": {"rt": [6456], "responses": ["crystal"], "type": "AUDIO_TEST", "trial_type": "audio-test", "trial_index": 3, "time_elapsed": 46538, "internal_node_id": "0.0-3.0"}}, {"uniqueid": "MTK1198:3AUQQEL7U60K95MSCVNTHOAVW100V7", "current_trial": 4, "dateTime": 1513457825485, "trialdata": {"rt": [9401], "responses": ["spice"], "type": "AUDIO_TEST", "trial_type": "audio-test", "trial_index": 4, "time_elapsed": 55947, "internal_node_id": "0.0-4.0"}}, {"uniqueid": "MTK1198:3AUQQEL7U60K95MSCVNTHOAVW100V7", "current_trial": 5, "dateTime": 1513457868274, "trialdata": {"rt": 41975, "responses": "{\"Q0\":\"12:00 a.m.\",\"Q1\":\"6:30 a.m.\",\"Q2\":\"4\"}", "type": "SLEEP_SURVEY", "trial_type": "survey-text", "trial_index": 5, "time_elapsed": 98736, "internal_node_id": "0.0-5.0"}}, {"uniqueid": "MTK1198:3AUQQEL7U60K95MSCVNTHOAVW100V7", "current_trial": 6, "dateTime": 1513457895884, "trialdata": {"rt": 26603, "key_press": 32, "type": "INSTRUCTIONS", "trial_type": "text", "trial_index": 6, "time_elapsed": 126346, "internal_node_id": "0.0-6.0"}}, {"uniqueid": "MTK1198:3AUQQEL7U60K95MSCVNTHOAVW100V7", "current_trial": 7, "dateTime": 1513457915412, "trialdata": {"rt": 19023, "key_press": 32, "type": "INSTRUCTIONS", "trial_type": "text", "trial_index": 7, "time_elapsed": 145874, "internal_node_id": "0.0-7.0"}}, {"uniqueid": "MTK1198:3AUQQEL7U60K95MSCVNTHOAVW100V7", "current_trial": 8, "dateTime": 1513457926839, "trialdata": {"rt": 10921, "key_press": 32, "type": "INSTRUCTIONS", "trial_type": "text", "trial_index": 8, "time_elapsed": 157300, "internal_node_id": "0.0-8.0"}}, {"uniqueid": "MTK1198:3AUQQEL7U60K95MSCVNTHOAVW100V7", "current_trial": 9, "dateTime": 1513457945848, "trialdata": {"rt": [12353], "responses": ["12"], "num1": [1, 8], "num2": [9, 9], "num3": [2, 4], "type": "DISTRACTOR", "conditions": [18, 1200, "a", 18000], "trial": 0, "trial_type": "math-distractor", "trial_index": 9, "time_elapsed": 176310, "internal_node_id": "0.0-9.0"}}, {"uniqueid": "MTK1198:3AUQQEL7U60K95MSCVNTHOAVW100V7", "current_trial": 10, "dateTime": 1513457948854, "trialdata": {"rt": -1, "stimulus": "<p id=\"stim\">10</p>", "key_press": -1, "trial_type": "single-stim", "trial_index": 10, "time_elapsed": 179316, "internal_node_id": "0.0-10.0-0.0"}}, {"uniqueid": "MTK1198:3AUQQEL7U60K95MSCVNTHOAVW100V7", "current_trial": 11, "dateTime": 1513457949859, "trialdata": {"rt": -1, "stimulus": "<p id=\"stim\">9</p>", "key_press": -1, "trial_type": "single-stim", "trial_index": 11, "time_elapsed": 180320, "internal_node_id": "0.0-10.0-1.0"}}, {"uniqueid": "MTK1198:3AUQQEL7U60K95MSCVNTHOAVW100V7", "current_trial": 12, "dateTime": 1513457950862, "trialdata": {"rt": -1, "stimulus": "<p id=\"stim\">8</p>", "key_press": -1, "trial_type": "single-stim", "trial_index": 12, "time_elapsed": 181324, "internal_node_id": "0.0-10.0-2.0"}}, {"uniqueid": "MTK1198:3AUQQEL7U60K95MSCVNTHOAVW100V7", "current_trial": 13, "dateTime": 1513457951867, "trialdata": {"rt": -1, "stimulus": "<p id=\"stim\">7</p>", "key_press": -1, "trial_type": "single-stim", "trial_index": 13, "time_elapsed": 182329, "internal_node_id": "0.0-10.0-3.0"}}, {"uniqueid": "MTK1198:3AUQQEL7U60K95MSCVNTHOAVW100V7", "current_trial": 14, "dateTime": 1513457952871, "trialdata": {"rt": -1, "stimulus": "<p id=\"stim\">6</p>", "key_press": -1, "trial_type": "single-stim", "trial_index": 14, "time_elapsed": 183333, "internal_node_id": "0.0-10.0-4.0"}}, {"uniqueid": "MTK1198:3AUQQEL7U60K95MSCVNTHOAVW100V7", "current_trial": 15, "dateTime": 1513457953875, "trialdata": {"rt": -1, "stimulus": "<p id=\"stim\">5</p>", "key_press": -1, "trial_type": "single-stim", "trial_index": 15, "time_elapsed": 184337, "internal_node_id": "0.0-10.0-5.0"}}, {"uniqueid": "MTK1198:3AUQQEL7U60K95MSCVNTHOAVW100V7", "current_trial": 16, "dateTime": 1513457954882, "trialdata": {"rt": -1, "stimulus": "<p id=\"stim\">4</p>", "key_press": -1, "trial_type": "single-stim", "trial_index": 16, "time_elapsed": 185344, "internal_node_id": "0.0-10.0-6.0"}}, {"uniqueid": "MTK1198:3AUQQEL7U60K95MSCVNTHOAVW100V7", "current_trial": 17, "dateTime": 1513457955884, "trialdata": {"rt": -1, "stimulus": "<p id=\"stim\">3</p>", "key_press": -1, "trial_type": "single-stim", "trial_index": 17, "time_elapsed": 186346, "internal_node_id": "0.0-10.0-7.0"}}, {"uniqueid": "MTK1198:3AUQQEL7U60K95MSCVNTHOAVW100V7", "current_trial": 18, "dateTime": 1513457956888, "trialdata": {"rt": -1, "stimulus": "<p id=\"stim\">2</p>", "key_press": -1, "trial_type": "single-stim", "trial_index": 18, "time_elapsed": 187350, "internal_node_id": "0.0-10.0-8.0"}}, {"uniqueid": "MTK1198:3AUQQEL7U60K95MSCVNTHOAVW100V7", "current_trial": 19, "dateTime": 1513457957892, "trialdata": {"rt": -1, "stimulus": "<p id=\"stim\">1</p>", "key_press": -1, "trial_type": "single-stim", "trial_index": 19, "time_elapsed": 188354, "internal_node_id": "0.0-10.0-9.0"}}, {"uniqueid": "MTK1198:3AUQQEL7U60K95MSCVNTHOAVW100V7", "current_trial": 20, "dateTime": 1513457959396, "trialdata": {"rt": -1, "stimulus": "<p id=\"stim\">+</p>", "key_press": -1, "type": "FIXATION", "trial_type": "single-stim", "trial_index": 20, "time_elapsed": 189858, "internal_node_id": "0.0-11.0-0.0"}}, {"uniqueid": "MTK1198:3AUQQEL7U60K95MSCVNTHOAVW100V7", "current_trial": 21, "dateTime": 1513457961660, "trialdata": {"rt": -1000, "stimulus": "/static/audio/wordpool/NEUTRON.wav", "key_press": -1, "type": "PRES_AUD", "word": "neutron", "wordID": 946, "conditions": [18, 1200, "a", 18000], "trial": 0, "serialpos": 0, "trial_type": "single-audio", "trial_index": 21, "time_elapsed": 192122, "internal_node_id": "0.0-12.0"}}, {"uniqueid": "MTK1198:3AUQQEL7U60K95MSCVNTHOAVW100V7", "current_trial": 22, "dateTime": 1513457963952, "trialdata": {"rt": -1000, "stimulus": "/static/audio/wordpool/PORK.wav", "key_press": -1, "type": "PRES_AUD", "word": "pork", "wordID": 1107, "conditions": [18, 1200, "a", 18000], "trial": 0, "serialpos": 1, "trial_type": "single-audio", "trial_index": 22, "time_elapsed": 194414, "internal_node_id": "0.0-13.0"}}, {"uniqueid": "MTK1198:3AUQQEL7U60K95MSCVNTHOAVW100V7", "current_trial": 23, "dateTime": 1513457966346, "trialdata": {"rt": -1000, "stimulus": "/static/audio/wordpool/SOFTBALL.wav", "key_press": -1, "type": "PRES_AUD", "word": "softball", "wordID": 1342, "conditions": [18, 1200, "a", 18000], "trial": 0, "serialpos": 2, "trial_type": "single-audio", "trial_index": 23, "time_elapsed": 196808, "internal_node_id": "0.0-14.0"}}, {"uniqueid": "MTK1198:3AUQQEL7U60K95MSCVNTHOAVW100V7", "current_trial": 24, "dateTime": 1513457968707, "trialdata": {"rt": -1000, "stimulus": "/static/audio/wordpool/PASTA.wav", "key_press": -1, "type": "PRES_AUD", "word": "pasta", "wordID": 1020, "conditions": [18, 1200, "a", 18000], "trial": 0, "serialpos": 3, "trial_type": "single-audio", "trial_index": 24, "time_elapsed": 199169, "internal_node_id": "0.0-15.0"}}, {"uniqueid": "MTK1198:3AUQQEL7U60K95MSCVNTHOAVW100V7", "current_trial": 25, "dateTime": 1513457970988, "trialdata": {"rt": -1000, "stimulus": "/static/audio/wordpool/BUGGY.wav", "key_press": -1, "type": "PRES_AUD", "word": "buggy", "wordID": 187, "conditions": [18, 1200, "a", 18000], "trial": 0, "serialpos": 4, "trial_type": "single-audio", "trial_index": 25, "time_elapsed": 201449, "internal_node_id": "0.0-16.0"}}, {"uniqueid": "MTK1198:3AUQQEL7U60K95MSCVNTHOAVW100V7", "current_trial": 26, "dateTime": 1513457973389, "trialdata": {"rt": -1000, "stimulus": "/static/audio/wordpool/CABIN.wav", "key_press": -1, "type": "PRES_AUD", "word": "cabin", "wordID": 210, "conditions": [18, 1200, "a", 18000], "trial": 0, "serialpos": 5, "trial_type": "single-audio", "trial_index": 26, "time_elapsed": 203851, "internal_node_id": "0.0-17.0"}}, {"uniqueid": "MTK1198:3AUQQEL7U60K95MSCVNTHOAVW100V7", "current_trial": 27, "dateTime": 1513457975502, "trialdata": {"rt": -1000, "stimulus": "/static/audio/wordpool/NOMAD.wav", "key_press": -1, "type": "PRES_AUD", "word": "nomad", "wordID": 954, "conditions": [18, 1200, "a", 18000], "trial": 0, "serialpos": 6, "trial_type": "single-audio", "trial_index": 27, "time_elapsed": 205964, "internal_node_id": "0.0-18.0"}}, {"uniqueid": "MTK1198:3AUQQEL7U60K95MSCVNTHOAVW100V7", "current_trial": 28, "dateTime": 1513457977797, "trialdata": {"rt": -1000, "stimulus": "/static/audio/wordpool/CANDY.wav", "key_press": -1, "type": "PRES_AUD", "word": "candy", "wordID": 229, "conditions": [18, 1200, "a", 18000], "trial": 0, "serialpos": 7, "trial_type": "single-audio", "trial_index": 28, "time_elapsed": 208259, "internal_node_id": "0.0-19.0"}}, {"uniqueid": "MTK1198:3AUQQEL7U60K95MSCVNTHOAVW100V7", "current_trial": 29, "dateTime": 1513457979956, "trialdata": {"rt": -1000, "stimulus": "/static/audio/wordpool/SERVER.wav", "key_press": -1, "type": "PRES_AUD", "word": "server", "wordID": 1271, "conditions": [18, 1200, "a", 18000], "trial": 0, "serialpos": 8, "trial_type": "single-audio", "trial_index": 29, "time_elapsed": 210418, "internal_node_id": "0.0-20.0"}}, {"uniqueid": "MTK1198:3AUQQEL7U60K95MSCVNTHOAVW100V7", "current_trial": 30, "dateTime": 1513457982290, "trialdata": {"rt": -1000, "stimulus": "/static/audio/wordpool/PUDDLE.wav", "key_press": -1, "type": "PRES_AUD", "word": "puddle", "wordID": 1139, "conditions": [18, 1200, "a", 18000], "trial": 0, "serialpos": 9, "trial_type": "single-audio", "trial_index": 30, "time_elapsed": 212752, "internal_node_id": "0.0-21.0"}}, {"uniqueid": "MTK1198:3AUQQEL7U60K95MSCVNTHOAVW100V7", "current_trial": 31, "dateTime": 1513457984368, "trialdata": {"rt": -1000, "stimulus": "/static/audio/wordpool/PORTRAIT.wav", "key_press": -1, "type": "PRES_AUD", "word": "portrait", "wordID": 1110, "conditions": [18, 1200, "a", 18000], "trial": 0, "serialpos": 10, "trial_type": "single-audio", "trial_index": 31, "time_elapsed": 214830, "internal_node_id": "0.0-22.0"}}, {"uniqueid": "MTK1198:3AUQQEL7U60K95MSCVNTHOAVW100V7", "current_trial": 32, "dateTime": 1513457986562, "trialdata": {"rt": -1000, "stimulus": "/static/audio/wordpool/CHILD.wav", "key_press": -1, "type": "PRES_AUD", "word": "child", "wordID": 298, "conditions": [18, 1200, "a", 18000], "trial": 0, "serialpos": 11, "trial_type": "single-audio", "trial_index": 32, "time_elapsed": 217023, "internal_node_id": "0.0-23.0"}}, {"uniqueid": "MTK1198:3AUQQEL7U60K95MSCVNTHOAVW100V7", "current_trial": 33, "dateTime": 1513457988902, "trialdata": {"rt": -1000, "stimulus": "/static/audio/wordpool/VIKING.wav", "key_press": -1, "type": "PRES_AUD", "word": "viking", "wordID": 1564, "conditions": [18, 1200, "a", 18000], "trial": 0, "serialpos": 12, "trial_type": "single-audio", "trial_index": 33, "time_elapsed": 219363, "internal_node_id": "0.0-24.0"}}, {"uniqueid": "MTK1198:3AUQQEL7U60K95MSCVNTHOAVW100V7", "current_trial": 34, "dateTime": 1513457991113, "trialdata": {"rt": -1000, "stimulus": "/static/audio/wordpool/HOOK.wav", "key_press": -1, "type": "PRES_AUD", "word": "hook", "wordID": 714, "conditions": [18, 1200, "a", 18000], "trial": 0, "serialpos": 13, "trial_type": "single-audio", "trial_index": 34, "time_elapsed": 221575, "internal_node_id": "0.0-25.0"}}, {"uniqueid": "MTK1198:3AUQQEL7U60K95MSCVNTHOAVW100V7", "current_trial": 35, "dateTime": 1513457993255, "trialdata": {"rt": -1000, "stimulus": "/static/audio/wordpool/ZEBRA.wav", "key_press": -1, "type": "PRES_AUD", "word": "zebra", "wordID": 1634, "conditions": [18, 1200, "a", 18000], "trial": 0, "serialpos": 14, "trial_type": "single-audio", "trial_index": 35, "time_elapsed": 223717, "internal_node_id": "0.0-26.0"}}, {"uniqueid": "MTK1198:3AUQQEL7U60K95MSCVNTHOAVW100V7", "current_trial": 36, "dateTime": 1513457995478, "trialdata": {"rt": -1000, "stimulus": "/static/audio/wordpool/WARDROBE.wav", "key_press": -1, "type": "PRES_AUD", "word": "wardrobe", "wordID": 1586, "conditions": [18, 1200, "a", 18000], "trial": 0, "serialpos": 15, "trial_type": "single-audio", "trial_index": 36, "time_elapsed": 225940, "internal_node_id": "0.0-27.0"}}, {"uniqueid": "MTK1198:3AUQQEL7U60K95MSCVNTHOAVW100V7", "current_trial": 37, "dateTime": 1513457997754, "trialdata": {"rt": -1000, "stimulus": "/static/audio/wordpool/MUFFIN.wav", "key_press": -1, "type": "PRES_AUD", "word": "muffin", "wordID": 928, "conditions": [18, 1200, "a", 18000], "trial": 0, "serialpos": 16, "trial_type": "single-audio", "trial_index": 37, "time_elapsed": 228216, "internal_node_id": "0.0-28.0"}}, {"uniqueid": "MTK1198:3AUQQEL7U60K95MSCVNTHOAVW100V7", "current_trial": 38, "dateTime": 1513457999863, "trialdata": {"rt": -1000, "stimulus": "/static/audio/wordpool/ACTOR.wav", "key_press": -1, "type": "PRES_AUD", "word": "actor", "wordID": 4, "conditions": [18, 1200, "a", 18000], "trial": 0, "serialpos": 17, "trial_type": "single-audio", "trial_index": 38, "time_elapsed": 230325, "internal_node_id": "0.0-29.0"}}, {"uniqueid": "MTK1198:3AUQQEL7U60K95MSCVNTHOAVW100V7", "current_trial": 39, "dateTime": 1513458001097, "trialdata": {"rt": -1, "stimulus": "", "key_press": -1, "type": "PRE_RECALL_DELAY", "trial_type": "single-stim", "trial_index": 39, "time_elapsed": 231559, "internal_node_id": "0.0-30.0-0.0"}}, {"uniqueid": "MTK1198:3AUQQEL7U60K95MSCVNTHOAVW100V7", "current_trial": 40, "dateTime": 1513458001691, "trialdata": {"rt": -1000, "stimulus": "/static/audio/400Hz.wav", "key_press": -1, "type": "PRE_RECALL_ALERT", "trial_type": "single-audio", "trial_index": 40, "time_elapsed": 232153, "internal_node_id": "0.0-31.0"}}, {"uniqueid": "MTK1198:3AUQQEL7U60K95MSCVNTHOAVW100V7", "current_trial": 41, "dateTime": 1513458061711, "trialdata": {"rt": [5842, 7611, 9620, 11972, 14395, 17643, 18043, 21194, 24123, 29131, 31793, 51728], "recwords": ["cabin", "nomad", "neutron", "actor", "muffin", "child", "", "portrait", "nomad", "viking", "zebra", "puddle"], "type": "FREE_RECALL", "conditions": [18, 1200, "a", 18000], "trial": 0, "trial_type": "free-recall", "trial_index": 41, "time_elapsed": 292157, "internal_node_id": "0.0-32.0-0.0"}}, {"uniqueid": "MTK1198:3AUQQEL7U60K95MSCVNTHOAVW100V7", "current_trial": 42, "dateTime": 1513458076572, "trialdata": {"rt": 12857, "key_press": 32, "type": "INSTRUCTIONS", "trial_type": "text", "trial_index": 42, "time_elapsed": 307034, "internal_node_id": "0.0-33.0"}}, {"uniqueid": "MTK1198:3AUQQEL7U60K95MSCVNTHOAVW100V7", "current_trial": 43, "dateTime": 1513458096581, "trialdata": {"rt": [4964, 11604, 16112], "responses": ["15", "26", "26"], "num1": [6, 9, 8, 6], "num2": [8, 8, 9, 2], "num3": [1, 9, 9, 1], "type": "DISTRACTOR", "conditions": [18, 1200, "v", 18000], "trial": 1, "trial_type": "math-distractor", "trial_index": 43, "time_elapsed": 327043, "internal_node_id": "0.0-34.0"}}, {"uniqueid": "MTK1198:3AUQQEL7U60K95MSCVNTHOAVW100V7", "current_trial": 44, "dateTime": 1513458099589, "trialdata": {"rt": -1, "stimulus": "<p id=\"stim\">10</p>", "key_press": -1, "trial_type": "single-stim", "trial_index": 44, "time_elapsed": 330051, "internal_node_id": "0.0-35.0-0.0"}}, {"uniqueid": "MTK1198:3AUQQEL7U60K95MSCVNTHOAVW100V7", "current_trial": 45, "dateTime": 1513458100593, "trialdata": {"rt": -1, "stimulus": "<p id=\"stim\">9</p>", "key_press": -1, "trial_type": "single-stim", "trial_index": 45, "time_elapsed": 331055, "internal_node_id": "0.0-35.0-1.0"}}, {"uniqueid": "MTK1198:3AUQQEL7U60K95MSCVNTHOAVW100V7", "current_trial": 46, "dateTime": 1513458101597, "trialdata": {"rt": -1, "stimulus": "<p id=\"stim\">8</p>", "key_press": -1, "trial_type": "single-stim", "trial_index": 46, "time_elapsed": 332059, "internal_node_id": "0.0-35.0-2.0"}}, {"uniqueid": "MTK1198:3AUQQEL7U60K95MSCVNTHOAVW100V7", "current_trial": 47, "dateTime": 1513458102602, "trialdata": {"rt": -1, "stimulus": "<p id=\"stim\">7</p>", "key_press": -1, "trial_type": "single-stim", "trial_index": 47, "time_elapsed": 333063, "internal_node_id": "0.0-35.0-3.0"}}, {"uniqueid": "MTK1198:3AUQQEL7U60K95MSCVNTHOAVW100V7", "current_trial": 48, "dateTime": 1513458103606, "trialdata": {"rt": -1, "stimulus": "<p id=\"stim\">6</p>", "key_press": -1, "trial_type": "single-stim", "trial_index": 48, "time_elapsed": 334068, "internal_node_id": "0.0-35.0-4.0"}}, {"uniqueid": "MTK1198:3AUQQEL7U60K95MSCVNTHOAVW100V7", "current_trial": 49, "dateTime": 1513458104609, "trialdata": {"rt": -1, "stimulus": "<p id=\"stim\">5</p>", "key_press": -1, "trial_type": "single-stim", "trial_index": 49, "time_elapsed": 335070, "internal_node_id": "0.0-35.0-5.0"}}, {"uniqueid": "MTK1198:3AUQQEL7U60K95MSCVNTHOAVW100V7", "current_trial": 50, "dateTime": 1513458105614, "trialdata": {"rt": -1, "stimulus": "<p id=\"stim\">4</p>", "key_press": -1, "trial_type": "single-stim", "trial_index": 50, "time_elapsed": 336076, "internal_node_id": "0.0-35.0-6.0"}}, {"uniqueid": "MTK1198:3AUQQEL7U60K95MSCVNTHOAVW100V7", "current_trial": 51, "dateTime": 1513458106619, "trialdata": {"rt": -1, "stimulus": "<p id=\"stim\">3</p>", "key_press": -1, "trial_type": "single-stim", "trial_index": 51, "time_elapsed": 337081, "internal_node_id": "0.0-35.0-7.0"}}, {"uniqueid": "MTK1198:3AUQQEL7U60K95MSCVNTHOAVW100V7", "current_trial": 52, "dateTime": 1513458107623, "trialdata": {"rt": -1, "stimulus": "<p id=\"stim\">2</p>", "key_press": -1, "trial_type": "single-stim", "trial_index": 52, "time_elapsed": 338085, "internal_node_id": "0.0-35.0-8.0"}}, {"uniqueid": "MTK1198:3AUQQEL7U60K95MSCVNTHOAVW100V7", "current_trial": 53, "dateTime": 1513458108627, "trialdata": {"rt": -1, "stimulus": "<p id=\"stim\">1</p>", "key_press": -1, "trial_type": "single-stim", "trial_index": 53, "time_elapsed": 339089, "internal_node_id": "0.0-35.0-9.0"}}, {"uniqueid": "MTK1198:3AUQQEL7U60K95MSCVNTHOAVW100V7", "current_trial": 54, "dateTime": 1513458110131, "trialdata": {"rt": -1, "stimulus": "<p id=\"stim\">+</p>", "key_press": -1, "type": "FIXATION", "trial_type": "single-stim", "trial_index": 54, "time_elapsed": 340592, "internal_node_id": "0.0-36.0-0.0"}}, {"uniqueid": "MTK1198:3AUQQEL7U60K95MSCVNTHOAVW100V7", "current_trial": 55, "dateTime": 1513458111337, "trialdata": {"rt": -1, "stimulus": "<p id=\"stim\">RABBIT</p>", "key_press": -1, "type": "PRES_VIS", "word": "rabbit", "wordID": 1151, "conditions": [18, 1200, "v", 18000], "trial": 1, "serialpos": 0, "trial_type": "single-stim", "trial_index": 55, "time_elapsed": 341799, "internal_node_id": "0.0-37.0"}}, {"uniqueid": "MTK1198:3AUQQEL7U60K95MSCVNTHOAVW100V7", "current_trial": 56, "dateTime": 1513458113352, "trialdata": {"rt": -1, "stimulus": "<p id=\"stim\">BISON</p>", "key_press": -1, "type": "PRES_VIS", "word": "bison", "wordID": 130, "conditions": [18, 1200, "v", 18000], "trial": 1, "serialpos": 1, "trial_type": "single-stim", "trial_index": 56, "time_elapsed": 343814, "internal_node_id": "0.0-38.0"}}, {"uniqueid": "MTK1198:3AUQQEL7U60K95MSCVNTHOAVW100V7", "current_trial": 57, "dateTime": 1513458115471, "trialdata": {"rt": -1, "stimulus": "<p id=\"stim\">MAPLE</p>", "key_press": -1, "type": "PRES_VIS", "word": "maple", "wordID": 865, "conditions": [18, 1200, "v", 18000], "trial": 1, "serialpos": 2, "trial_type": "single-stim", "trial_index": 57, "time_elapsed": 345933, "internal_node_id": "0.0-39.0"}}, {"uniqueid": "MTK1198:3AUQQEL7U60K95MSCVNTHOAVW100V7", "current_trial": 58, "dateTime": 1513458117793, "trialdata": {"rt": -1, "stimulus": "<p id=\"stim\">BURGLAR</p>", "key_press": -1, "type": "PRES_VIS", "word": "burglar", "wordID": 199, "conditions": [18, 1200, "v", 18000], "trial": 1, "serialpos": 3, "trial_type": "single-stim", "trial_index": 58, "time_elapsed": 348255, "internal_node_id": "0.0-40.0"}}, {"uniqueid": "MTK1198:3AUQQEL7U60K95MSCVNTHOAVW100V7", "current_trial": 59, "dateTime": 1513458120190, "trialdata": {"rt": -1, "stimulus": "<p id=\"stim\">FLOWER</p>", "key_press": -1, "type": "PRES_VIS", "word": "flower", "wordID": 583, "conditions": [18, 1200, "v", 18000], "trial": 1, "serialpos": 4, "trial_type": "single-stim", "trial_index": 59, "time_elapsed": 350652, "internal_node_id": "0.0-41.0"}}, {"uniqueid": "MTK1198:3AUQQEL7U60K95MSCVNTHOAVW100V7", "current_trial": 60, "dateTime": 1513458122477, "trialdata": {"rt": -1, "stimulus": "<p id=\"stim\">TOURIST</p>", "key_press": -1, "type": "PRES_VIS", "word": "tourist", "wordID": 1487, "conditions": [18, 1200, "v", 18000], "trial": 1, "serialpos": 5, "trial_type": "single-stim", "trial_index": 60, "time_elapsed": 352938, "internal_node_id": "0.0-42.0"}}, {"uniqueid": "MTK1198:3AUQQEL7U60K95MSCVNTHOAVW100V7", "current_trial": 61, "dateTime": 1513458124863, "trialdata": {"rt": -1, "stimulus": "<p id=\"stim\">PISTON</p>", "key_press": -1, "type": "PRES_VIS", "word": "piston", "wordID": 1075, "conditions": [18, 1200, "v", 18000], "trial": 1, "serialpos": 6, "trial_type": "single-stim", "trial_index": 61, "time_elapsed": 355325, "internal_node_id": "0.0-43.0"}}, {"uniqueid": "MTK1198:3AUQQEL7U60K95MSCVNTHOAVW100V7", "current_trial": 62, "dateTime": 1513458127244, "trialdata": {"rt": -1, "stimulus": "<p id=\"stim\">BINDER</p>", "key_press": -1, "type": "PRES_VIS", "word": "binder", "wordID": 126, "conditions": [18, 1200, "v", 18000], "trial": 1, "serialpos": 7, "trial_type": "single-stim", "trial_index": 62, "time_elapsed": 357705, "internal_node_id": "0.0-44.0"}}, {"uniqueid": "MTK1198:3AUQQEL7U60K95MSCVNTHOAVW100V7", "current_trial": 63, "dateTime": 1513458129327, "trialdata": {"rt": -1, "stimulus": "<p id=\"stim\">ITEM</p>", "key_press": -1, "type": "PRES_VIS", "word": "item", "wordID": 745, "conditions": [18, 1200, "v", 18000], "trial": 1, "serialpos": 8, "trial_type": "single-stim", "trial_index": 63, "time_elapsed": 359789, "internal_node_id": "0.0-45.0"}}, {"uniqueid": "MTK1198:3AUQQEL7U60K95MSCVNTHOAVW100V7", "current_trial": 64, "dateTime": 1513458131684, "trialdata": {"rt": -1, "stimulus": "<p id=\"stim\">SHORTCAKE</p>", "key_press": -1, "type": "PRES_VIS", "word": "shortcake", "wordID": 1291, "conditions": [18, 1200, "v", 18000], "trial": 1, "serialpos": 9, "trial_type": "single-stim", "trial_index": 64, "time_elapsed": 362146, "internal_node_id": "0.0-46.0"}}, {"uniqueid": "MTK1198:3AUQQEL7U60K95MSCVNTHOAVW100V7", "current_trial": 65, "dateTime": 1513458133849, "trialdata": {"rt": -1, "stimulus": "<p id=\"stim\">SILK</p>", "key_press": -1, "type": "PRES_VIS", "word": "silk", "wordID": 1306, "conditions": [18, 1200, "v", 18000], "trial": 1, "serialpos": 10, "trial_type": "single-stim", "trial_index": 65, "time_elapsed": 364311, "internal_node_id": "0.0-47.0"}}, {"uniqueid": "MTK1198:3AUQQEL7U60K95MSCVNTHOAVW100V7", "current_trial": 66, "dateTime": 1513458135998, "trialdata": {"rt": -1, "stimulus": "<p id=\"stim\">KNIFE</p>", "key_press": -1, "type": "PRES_VIS", "word": "knife", "wordID": 784, "conditions": [18, 1200, "v", 18000], "trial": 1, "serialpos": 11, "trial_type": "single-stim", "trial_index": 66, "time_elapsed": 366459, "internal_node_id": "0.0-48.0"}}, {"uniqueid": "MTK1198:3AUQQEL7U60K95MSCVNTHOAVW100V7", "current_trial": 67, "dateTime": 1513458138249, "trialdata": {"rt": -1, "stimulus": "<p id=\"stim\">SISTER</p>", "key_press": -1, "type": "PRES_VIS", "word": "sister", "wordID": 1311, "conditions": [18, 1200, "v", 18000], "trial": 1, "serialpos": 12, "trial_type": "single-stim", "trial_index": 67, "time_elapsed": 368711, "internal_node_id": "0.0-49.0"}}, {"uniqueid": "MTK1198:3AUQQEL7U60K95MSCVNTHOAVW100V7", "current_trial": 68, "dateTime": 1513458140565, "trialdata": {"rt": -1, "stimulus": "<p id=\"stim\">PERFUME</p>", "key_press": -1, "type": "PRES_VIS", "word": "perfume", "wordID": 1048, "conditions": [18, 1200, "v", 18000], "trial": 1, "serialpos": 13, "trial_type": "single-stim", "trial_index": 68, "time_elapsed": 371027, "internal_node_id": "0.0-50.0"}}, {"uniqueid": "MTK1198:3AUQQEL7U60K95MSCVNTHOAVW100V7", "current_trial": 69, "dateTime": 1513458142909, "trialdata": {"rt": -1, "stimulus": "<p id=\"stim\">FLAG</p>", "key_press": -1, "type": "PRES_VIS", "word": "flag", "wordID": 572, "conditions": [18, 1200, "v", 18000], "trial": 1, "serialpos": 14, "trial_type": "single-stim", "trial_index": 69, "time_elapsed": 373371, "internal_node_id": "0.0-51.0"}}, {"uniqueid": "MTK1198:3AUQQEL7U60K95MSCVNTHOAVW100V7", "current_trial": 70, "dateTime": 1513458145151, "trialdata": {"rt": -1, "stimulus": "<p id=\"stim\">ORCHID</p>", "key_press": -1, "type": "PRES_VIS", "word": "orchid", "wordID": 981, "conditions": [18, 1200, "v", 18000], "trial": 1, "serialpos": 15, "trial_type": "single-stim", "trial_index": 70, "time_elapsed": 375613, "internal_node_id": "0.0-52.0"}}, {"uniqueid": "MTK1198:3AUQQEL7U60K95MSCVNTHOAVW100V7", "current_trial": 71, "dateTime": 1513458147526, "trialdata": {"rt": -1, "stimulus": "<p id=\"stim\">SPOOL</p>", "key_press": -1, "type": "PRES_VIS", "word": "spool", "wordID": 1355, "conditions": [18, 1200, "v", 18000], "trial": 1, "serialpos": 16, "trial_type": "single-stim", "trial_index": 71, "time_elapsed": 377987, "internal_node_id": "0.0-53.0"}}, {"uniqueid": "MTK1198:3AUQQEL7U60K95MSCVNTHOAVW100V7", "current_trial": 72, "dateTime": 1513458149848, "trialdata": {"rt": -1, "stimulus": "<p id=\"stim\">SNACK</p>", "key_press": -1, "type": "PRES_VIS", "word": "snack", "wordID": 1330, "conditions": [18, 1200, "v", 18000], "trial": 1, "serialpos": 17, "trial_type": "single-stim", "trial_index": 72, "time_elapsed": 380309, "internal_node_id": "0.0-54.0"}}, {"uniqueid": "MTK1198:3AUQQEL7U60K95MSCVNTHOAVW100V7", "current_trial": 73, "dateTime": 1513458152425, "trialdata": {"rt": -1, "stimulus": "", "key_press": -1, "type": "PRE_RECALL_DELAY", "trial_type": "single-stim", "trial_index": 73, "time_elapsed": 382887, "internal_node_id": "0.0-55.0-0.0"}}, {"uniqueid": "MTK1198:3AUQQEL7U60K95MSCVNTHOAVW100V7", "current_trial": 74, "dateTime": 1513458152930, "trialdata": {"rt": -1000, "stimulus": "/static/audio/400Hz.wav", "key_press": -1, "type": "PRE_RECALL_ALERT", "trial_type": "single-audio", "trial_index": 74, "time_elapsed": 383392, "internal_node_id": "0.0-56.0"}}, {"uniqueid": "MTK1198:3AUQQEL7U60K95MSCVNTHOAVW100V7", "current_trial": 75, "dateTime": 1513458212938, "trialdata": {"rt": [4318, 6902, 10086, 12663, 18663, 20710, 22478, 26774, 29143], "recwords": ["rabbit", "bison", "maple", "burglar", "binder", "silk", "sister", "perfume", "spool"], "type": "FREE_RECALL", "conditions": [18, 1200, "v", 18000], "trial": 1, "trial_type": "free-recall", "trial_index": 75, "time_elapsed": 443397, "internal_node_id": "0.0-57.0-0.0"}}, {"uniqueid": "MTK1198:3AUQQEL7U60K95MSCVNTHOAVW100V7", "current_trial": 76, "dateTime": 1513458219898, "trialdata": {"rt": 4949, "key_press": 32, "type": "INSTRUCTIONS", "trial_type": "text", "trial_index": 76, "time_elapsed": 450355, "internal_node_id": "0.0-58.0"}}, {"uniqueid": "MTK1198:3AUQQEL7U60K95MSCVNTHOAVW100V7", "current_trial": 77, "dateTime": 1513458244911, "trialdata": {"rt": [4528, 8417, 10433, 14018, 18910, 22246], "responses": ["22", "19", "27", "18", "10", "20"], "num1": [5, 8, 9, 9, 3, 4, 8], "num2": [9, 3, 9, 5, 3, 8, 2], "num3": [8, 8, 9, 3, 4, 8, 3], "type": "DISTRACTOR", "conditions": [12, 800, "v", 24000], "trial": 2, "trial_type": "math-distractor", "trial_index": 77, "time_elapsed": 475370, "internal_node_id": "0.0-59.0"}}, {"uniqueid": "MTK1198:3AUQQEL7U60K95MSCVNTHOAVW100V7", "current_trial": 78, "dateTime": 1513458247921, "trialdata": {"rt": -1, "stimulus": "<p id=\"stim\">10</p>", "key_press": -1, "trial_type": "single-stim", "trial_index": 78, "time_elapsed": 478383, "internal_node_id": "0.0-60.0-0.0"}}, {"uniqueid": "MTK1198:3AUQQEL7U60K95MSCVNTHOAVW100V7", "current_trial": 79, "dateTime": 1513458248925, "trialdata": {"rt": -1, "stimulus": "<p id=\"stim\">9</p>", "key_press": -1, "trial_type": "single-stim", "trial_index": 79, "time_elapsed": 479387, "internal_node_id": "0.0-60.0-1.0"}}, {"uniqueid": "MTK1198:3AUQQEL7U60K95MSCVNTHOAVW100V7", "current_trial": 80, "dateTime": 1513458249929, "trialdata": {"rt": -1, "stimulus": "<p id=\"stim\">8</p>", "key_press": -1, "trial_type": "single-stim", "trial_index": 80, "time_elapsed": 480391, "internal_node_id": "0.0-60.0-2.0"}}, {"uniqueid": "MTK1198:3AUQQEL7U60K95MSCVNTHOAVW100V7", "current_trial": 81, "dateTime": 1513458250933, "trialdata": {"rt": -1, "stimulus": "<p id=\"stim\">7</p>", "key_press": -1, "trial_type": "single-stim", "trial_index": 81, "time_elapsed": 481395, "internal_node_id": "0.0-60.0-3.0"}}, {"uniqueid": "MTK1198:3AUQQEL7U60K95MSCVNTHOAVW100V7", "current_trial": 82, "dateTime": 1513458251938, "trialdata": {"rt": -1, "stimulus": "<p id=\"stim\">6</p>", "key_press": -1, "trial_type": "single-stim", "trial_index": 82, "time_elapsed": 482399, "internal_node_id": "0.0-60.0-4.0"}}, {"uniqueid": "MTK1198:3AUQQEL7U60K95MSCVNTHOAVW100V7", "current_trial": 83, "dateTime": 1513458252942, "trialdata": {"rt": -1, "stimulus": "<p id=\"stim\">5</p>", "key_press": -1, "trial_type": "single-stim", "trial_index": 83, "time_elapsed": 483404, "internal_node_id": "0.0-60.0-5.0"}}, {"uniqueid": "MTK1198:3AUQQEL7U60K95MSCVNTHOAVW100V7", "current_trial": 84, "dateTime": 1513458253946, "trialdata": {"rt": -1, "stimulus": "<p id=\"stim\">4</p>", "key_press": -1, "trial_type": "single-stim", "trial_index": 84, "time_elapsed": 484408, "internal_node_id": "0.0-60.0-6.0"}}, {"uniqueid": "MTK1198:3AUQQEL7U60K95MSCVNTHOAVW100V7", "current_trial": 85, "dateTime": 1513458254950, "trialdata": {"rt": -1, "stimulus": "<p id=\"stim\">3</p>", "key_press": -1, "trial_type": "single-stim", "trial_index": 85, "time_elapsed": 485412, "internal_node_id": "0.0-60.0-7.0"}}, {"uniqueid": "MTK1198:3AUQQEL7U60K95MSCVNTHOAVW100V7", "current_trial": 86, "dateTime": 1513458255955, "trialdata": {"rt": -1, "stimulus": "<p id=\"stim\">2</p>", "key_press": -1, "trial_type": "single-stim", "trial_index": 86, "time_elapsed": 486417, "internal_node_id": "0.0-60.0-8.0"}}, {"uniqueid": "MTK1198:3AUQQEL7U60K95MSCVNTHOAVW100V7", "current_trial": 87, "dateTime": 1513458256962, "trialdata": {"rt": -1, "stimulus": "<p id=\"stim\">1</p>", "key_press": -1, "trial_type": "single-stim", "trial_index": 87, "time_elapsed": 487424, "internal_node_id": "0.0-60.0-9.0"}}, {"uniqueid": "MTK1198:3AUQQEL7U60K95MSCVNTHOAVW100V7", "current_trial": 88, "dateTime": 1513458258468, "trialdata": {"rt": -1, "stimulus": "<p id=\"stim\">+</p>", "key_press": -1, "type": "FIXATION", "trial_type": "single-stim", "trial_index": 88, "time_elapsed": 488930, "internal_node_id": "0.0-61.0-0.0"}}, {"uniqueid": "MTK1198:3AUQQEL7U60K95MSCVNTHOAVW100V7", "current_trial": 89, "dateTime": 1513458259275, "trialdata": {"rt": -1, "stimulus": "<p id=\"stim\">BARREL</p>", "key_press": -1, "type": "PRES_VIS", "word": "barrel", "wordID": 90, "conditions": [12, 800, "v", 24000], "trial": 2, "serialpos": 0, "trial_type": "single-stim", "trial_index": 89, "time_elapsed": 489737, "internal_node_id": "0.0-62.0"}}, {"uniqueid": "MTK1198:3AUQQEL7U60K95MSCVNTHOAVW100V7", "current_trial": 90, "dateTime": 1513458261063, "trialdata": {"rt": -1, "stimulus": "<p id=\"stim\">GALLON</p>", "key_press": -1, "type": "PRES_VIS", "word": "gallon", "wordID": 617, "conditions": [12, 800, "v", 24000], "trial": 2, "serialpos": 1, "trial_type": "single-stim", "trial_index": 90, "time_elapsed": 491525, "internal_node_id": "0.0-63.0"}}, {"uniqueid": "MTK1198:3AUQQEL7U60K95MSCVNTHOAVW100V7", "current_trial": 91, "dateTime": 1513458262886, "trialdata": {"rt": -1, "stimulus": "<p id=\"stim\">SCALPEL</p>", "key_press": -1, "type": "PRES_VIS", "word": "scalpel", "wordID": 1242, "conditions": [12, 800, "v", 24000], "trial": 2, "serialpos": 2, "trial_type": "single-stim", "trial_index": 91, "time_elapsed": 493348, "internal_node_id": "0.0-64.0"}}, {"uniqueid": "MTK1198:3AUQQEL7U60K95MSCVNTHOAVW100V7", "current_trial": 92, "dateTime": 1513458264859, "trialdata": {"rt": -1, "stimulus": "<p id=\"stim\">TOASTER</p>", "key_press": -1, "type": "PRES_VIS", "word": "toaster", "wordID": 1471, "conditions": [12, 800, "v", 24000], "trial": 2, "serialpos": 3, "trial_type": "single-stim", "trial_index": 92, "time_elapsed": 495321, "internal_node_id": "0.0-65.0"}}, {"uniqueid": "MTK1198:3AUQQEL7U60K95MSCVNTHOAVW100V7", "current_trial": 93, "dateTime": 1513458266566, "trialdata": {"rt": -1, "stimulus": "<p id=\"stim\">WRENCH</p>", "key_press": -1, "type": "PRES_VIS", "word": "wrench", "wordID": 1624, "conditions": [12, 800, "v", 24000], "trial": 2, "serialpos": 4, "trial_type": "single-stim", "trial_index": 93, "time_elapsed": 497028, "internal_node_id": "0.0-66.0"}}, {"uniqueid": "MTK1198:3AUQQEL7U60K95MSCVNTHOAVW100V7", "current_trial": 94, "dateTime": 1513458268197, "trialdata": {"rt": -1, "stimulus": "<p id=\"stim\">MOP</p>", "key_press": -1, "type": "PRES_VIS", "word": "mop", "wordID": 915, "conditions": [12, 800, "v", 24000], "trial": 2, "serialpos": 5, "trial_type": "single-stim", "trial_index": 94, "time_elapsed": 498659, "internal_node_id": "0.0-67.0"}}, {"uniqueid": "MTK1198:3AUQQEL7U60K95MSCVNTHOAVW100V7", "current_trial": 95, "dateTime": 1513458269935, "trialdata": {"rt": -1, "stimulus": "<p id=\"stim\">RAZOR</p>", "key_press": -1, "type": "PRES_VIS", "word": "razor", "wordID": 1170, "conditions": [12, 800, "v", 24000], "trial": 2, "serialpos": 6, "trial_type": "single-stim", "trial_index": 95, "time_elapsed": 500396, "internal_node_id": "0.0-68.0"}}, {"uniqueid": "MTK1198:3AUQQEL7U60K95MSCVNTHOAVW100V7", "current_trial": 96, "dateTime": 1513458271750, "trialdata": {"rt": -1, "stimulus": "<p id=\"stim\">STUDENT</p>", "key_press": -1, "type": "PRES_VIS", "word": "student", "wordID": 1394, "conditions": [12, 800, "v", 24000], "trial": 2, "serialpos": 7, "trial_type": "single-stim", "trial_index": 96, "time_elapsed": 502212, "internal_node_id": "0.0-69.0"}}, {"uniqueid": "MTK1198:3AUQQEL7U60K95MSCVNTHOAVW100V7", "current_trial": 97, "dateTime": 1513458273619, "trialdata": {"rt": -1, "stimulus": "<p id=\"stim\">CRAB</p>", "key_press": -1, "type": "PRES_VIS", "word": "crab", "wordID": 396, "conditions": [12, 800, "v", 24000], "trial": 2, "serialpos": 8, "trial_type": "single-stim", "trial_index": 97, "time_elapsed": 504081, "internal_node_id": "0.0-70.0"}}, {"uniqueid": "MTK1198:3AUQQEL7U60K95MSCVNTHOAVW100V7", "current_trial": 98, "dateTime": 1513458275278, "trialdata": {"rt": -1, "stimulus": "<p id=\"stim\">TWEEZERS</p>", "key_press": -1, "type": "PRES_VIS", "word": "tweezers", "wordID": 1525, "conditions": [12, 800, "v", 24000], "trial": 2, "serialpos": 9, "trial_type": "single-stim", "trial_index": 98, "time_elapsed": 505739, "internal_node_id": "0.0-71.0"}}, {"uniqueid": "MTK1198:3AUQQEL7U60K95MSCVNTHOAVW100V7", "current_trial": 99, "dateTime": 1513458277050, "trialdata": {"rt": -1, "stimulus": "<p id=\"stim\">DRESS</p>", "key_press": -1, "type": "PRES_VIS", "word": "dress", "wordID": 494, "conditions": [12, 800, "v", 24000], "trial": 2, "serialpos": 10, "trial_type": "single-stim", "trial_index": 99, "time_elapsed": 507511, "internal_node_id": "0.0-72.0"}}, {"uniqueid": "MTK1198:3AUQQEL7U60K95MSCVNTHOAVW100V7", "current_trial": 100, "dateTime": 1513458278700, "trialdata": {"rt": -1, "stimulus": "<p id=\"stim\">MARROW</p>", "key_press": -1, "type": "PRES_VIS", "word": "marrow", "wordID": 871, "conditions": [12, 800, "v", 24000], "trial": 2, "serialpos": 11, "trial_type": "single-stim", "trial_index": 100, "time_elapsed": 509162, "internal_node_id": "0.0-73.0"}}, {"uniqueid": "MTK1198:3AUQQEL7U60K95MSCVNTHOAVW100V7", "current_trial": 101, "dateTime": 1513458280927, "trialdata": {"rt": -1, "stimulus": "", "key_press": -1, "type": "PRE_RECALL_DELAY", "trial_type": "single-stim", "trial_index": 101, "time_elapsed": 511389, "internal_node_id": "0.0-74.0-0.0"}}, {"uniqueid": "MTK1198:3AUQQEL7U60K95MSCVNTHOAVW100V7", "current_trial": 102, "dateTime": 1513458281432, "trialdata": {"rt": -1000, "stimulus": "/static/audio/400Hz.wav", "key_press": -1, "type": "PRE_RECALL_ALERT", "trial_type": "single-audio", "trial_index": 102, "time_elapsed": 511894, "internal_node_id": "0.0-75.0"}}, {"uniqueid": "MTK1198:3AUQQEL7U60K95MSCVNTHOAVW100V7", "current_trial": 103, "dateTime": 1513458341444, "trialdata": {"rt": [3390, 5878, 8086, 12662, 14503, 16837, 18878], "recwords": ["barrel", "gallon", "scalpel", "toaster", "mop", "crab", "marrow"], "type": "FREE_RECALL", "conditions": [12, 800, "v", 24000], "trial": 2, "trial_type": "free-recall", "trial_index": 103, "time_elapsed": 571903, "internal_node_id": "0.0-76.0-0.0"}}, {"uniqueid": "MTK1198:3AUQQEL7U60K95MSCVNTHOAVW100V7", "current_trial": 104, "dateTime": 1513458353570, "trialdata": {"rt": 10120, "key_press": 13, "type": "INSTRUCTIONS", "trial_type": "text", "trial_index": 104, "time_elapsed": 584032, "internal_node_id": "0.0-77.0"}}, {"uniqueid": "MTK1198:3AUQQEL7U60K95MSCVNTHOAVW100V7", "current_trial": 105, "dateTime": 1513458367575, "trialdata": {"rt": [2162, 6532, 8476, 10772], "responses": ["12", "17", "4", "7"], "num1": [1, 6, 2, 3, 1], "num2": [9, 7, 1, 3, 9], "num3": [2, 4, 1, 1, 9], "type": "DISTRACTOR", "conditions": [24, 1600, "v", 12000], "trial": 3, "trial_type": "math-distractor", "trial_index": 105, "time_elapsed": 598037, "internal_node_id": "0.0-78.0"}}, {"uniqueid": "MTK1198:3AUQQEL7U60K95MSCVNTHOAVW100V7", "current_trial": 106, "dateTime": 1513458370581, "trialdata": {"rt": -1, "stimulus": "<p id=\"stim\">10</p>", "key_press": -1, "trial_type": "single-stim", "trial_index": 106, "time_elapsed": 601043, "internal_node_id": "0.0-79.0-0.0"}}, {"uniqueid": "MTK1198:3AUQQEL7U60K95MSCVNTHOAVW100V7", "current_trial": 107, "dateTime": 1513458371586, "trialdata": {"rt": -1, "stimulus": "<p id=\"stim\">9</p>", "key_press": -1, "trial_type": "single-stim", "trial_index": 107, "time_elapsed": 602048, "internal_node_id": "0.0-79.0-1.0"}}, {"uniqueid": "MTK1198:3AUQQEL7U60K95MSCVNTHOAVW100V7", "current_trial": 108, "dateTime": 1513458372590, "trialdata": {"rt": -1, "stimulus": "<p id=\"stim\">8</p>", "key_press": -1, "trial_type": "single-stim", "trial_index": 108, "time_elapsed": 603052, "internal_node_id": "0.0-79.0-2.0"}}, {"uniqueid": "MTK1198:3AUQQEL7U60K95MSCVNTHOAVW100V7", "current_trial": 109, "dateTime": 1513458373595, "trialdata": {"rt": -1, "stimulus": "<p id=\"stim\">7</p>", "key_press": -1, "trial_type": "single-stim", "trial_index": 109, "time_elapsed": 604056, "internal_node_id": "0.0-79.0-3.0"}}, {"uniqueid": "MTK1198:3AUQQEL7U60K95MSCVNTHOAVW100V7", "current_trial": 110, "dateTime": 1513458374599, "trialdata": {"rt": -1, "stimulus": "<p id=\"stim\">6</p>", "key_press": -1, "trial_type": "single-stim", "trial_index": 110, "time_elapsed": 605061, "internal_node_id": "0.0-79.0-4.0"}}, {"uniqueid": "MTK1198:3AUQQEL7U60K95MSCVNTHOAVW100V7", "current_trial": 111, "dateTime": 1513458375603, "trialdata": {"rt": -1, "stimulus": "<p id=\"stim\">5</p>", "key_press": -1, "trial_type": "single-stim", "trial_index": 111, "time_elapsed": 606065, "internal_node_id": "0.0-79.0-5.0"}}, {"uniqueid": "MTK1198:3AUQQEL7U60K95MSCVNTHOAVW100V7", "current_trial": 112, "dateTime": 1513458376607, "trialdata": {"rt": -1, "stimulus": "<p id=\"stim\">4</p>", "key_press": -1, "trial_type": "single-stim", "trial_index": 112, "time_elapsed": 607069, "internal_node_id": "0.0-79.0-6.0"}}, {"uniqueid": "MTK1198:3AUQQEL7U60K95MSCVNTHOAVW100V7", "current_trial": 113, "dateTime": 1513458377612, "trialdata": {"rt": -1, "stimulus": "<p id=\"stim\">3</p>", "key_press": -1, "trial_type": "single-stim", "trial_index": 113, "time_elapsed": 608074, "internal_node_id": "0.0-79.0-7.0"}}, {"uniqueid": "MTK1198:3AUQQEL7U60K95MSCVNTHOAVW100V7", "current_trial": 114, "dateTime": 1513458378616, "trialdata": {"rt": -1, "stimulus": "<p id=\"stim\">2</p>", "key_press": -1, "trial_type": "single-stim", "trial_index": 114, "time_elapsed": 609077, "internal_node_id": "0.0-79.0-8.0"}}, {"uniqueid": "MTK1198:3AUQQEL7U60K95MSCVNTHOAVW100V7", "current_trial": 115, "dateTime": 1513458379620, "trialdata": {"rt": -1, "stimulus": "<p id=\"stim\">1</p>", "key_press": -1, "trial_type": "single-stim", "trial_index": 115, "time_elapsed": 610082, "internal_node_id": "0.0-79.0-9.0"}}, {"uniqueid": "MTK1198:3AUQQEL7U60K95MSCVNTHOAVW100V7", "current_trial": 116, "dateTime": 1513458381123, "trialdata": {"rt": -1, "stimulus": "<p id=\"stim\">+</p>", "key_press": -1, "type": "FIXATION", "trial_type": "single-stim", "trial_index": 116, "time_elapsed": 611585, "internal_node_id": "0.0-80.0-0.0"}}, {"uniqueid": "MTK1198:3AUQQEL7U60K95MSCVNTHOAVW100V7", "current_trial": 117, "dateTime": 1513458382726, "trialdata": {"rt": -1, "stimulus": "<p id=\"stim\">WORKER</p>", "key_press": -1, "type": "PRES_VIS", "word": "worker", "wordID": 1620, "conditions": [24, 1600, "v", 12000], "trial": 3, "serialpos": 0, "trial_type": "single-stim", "trial_index": 117, "time_elapsed": 613187, "internal_node_id": "0.0-81.0"}}, {"uniqueid": "MTK1198:3AUQQEL7U60K95MSCVNTHOAVW100V7", "current_trial": 118, "dateTime": 1513458385512, "trialdata": {"rt": -1, "stimulus": "<p id=\"stim\">BOYFRIEND</p>", "key_press": -1, "type": "PRES_VIS", "word": "boyfriend", "wordID": 161, "conditions": [24, 1600, "v", 12000], "trial": 3, "serialpos": 1, "trial_type": "single-stim", "trial_index": 118, "time_elapsed": 615974, "internal_node_id": "0.0-82.0"}}, {"uniqueid": "MTK1198:3AUQQEL7U60K95MSCVNTHOAVW100V7", "current_trial": 119, "dateTime": 1513458387979, "trialdata": {"rt": -1, "stimulus": "<p id=\"stim\">POET</p>", "key_press": -1, "type": "PRES_VIS", "word": "poet", "wordID": 1094, "conditions": [24, 1600, "v", 12000], "trial": 3, "serialpos": 2, "trial_type": "single-stim", "trial_index": 119, "time_elapsed": 618441, "internal_node_id": "0.0-83.0"}}, {"uniqueid": "MTK1198:3AUQQEL7U60K95MSCVNTHOAVW100V7", "current_trial": 120, "dateTime": 1513458390458, "trialdata": {"rt": -1, "stimulus": "<p id=\"stim\">CYCLONE</p>", "key_press": -1, "type": "PRES_VIS", "word": "cyclone", "wordID": 430, "conditions": [24, 1600, "v", 12000], "trial": 3, "serialpos": 3, "trial_type": "single-stim", "trial_index": 120, "time_elapsed": 620919, "internal_node_id": "0.0-84.0"}}, {"uniqueid": "MTK1198:3AUQQEL7U60K95MSCVNTHOAVW100V7", "current_trial": 121, "dateTime": 1513458392878, "trialdata": {"rt": -1, "stimulus": "<p id=\"stim\">RADISH</p>", "key_press": -1, "type": "PRES_VIS", "word": "radish", "wordID": 1157, "conditions": [24, 1600, "v", 12000], "trial": 3, "serialpos": 4, "trial_type": "single-stim", "trial_index": 121, "time_elapsed": 623340, "internal_node_id": "0.0-85.0"}}, {"uniqueid": "MTK1198:3AUQQEL7U60K95MSCVNTHOAVW100V7", "current_trial": 122, "dateTime": 1513458395351, "trialdata": {"rt": -1, "stimulus": "<p id=\"stim\">PARSLEY</p>", "key_press": -1, "type": "PRES_VIS", "word": "parsley", "wordID": 1015, "conditions": [24, 1600, "v", 12000], "trial": 3, "serialpos": 5, "trial_type": "single-stim", "trial_index": 122, "time_elapsed": 625813, "internal_node_id": "0.0-86.0"}}, {"uniqueid": "MTK1198:3AUQQEL7U60K95MSCVNTHOAVW100V7", "current_trial": 123, "dateTime": 1513458397946, "trialdata": {"rt": -1, "stimulus": "<p id=\"stim\">FILM</p>", "key_press": -1, "type": "PRES_VIS", "word": "film", "wordID": 564, "conditions": [24, 1600, "v", 12000], "trial": 3, "serialpos": 6, "trial_type": "single-stim", "trial_index": 123, "time_elapsed": 628408, "internal_node_id": "0.0-87.0"}}, {"uniqueid": "MTK1198:3AUQQEL7U60K95MSCVNTHOAVW100V7", "current_trial": 124, "dateTime": 1513458400523, "trialdata": {"rt": -1, "stimulus": "<p id=\"stim\">SHORTS</p>", "key_press": -1, "type": "PRES_VIS", "word": "shorts", "wordID": 1292, "conditions": [24, 1600, "v", 12000], "trial": 3, "serialpos": 7, "trial_type": "single-stim", "trial_index": 124, "time_elapsed": 630985, "internal_node_id": "0.0-88.0"}}, {"uniqueid": "MTK1198:3AUQQEL7U60K95MSCVNTHOAVW100V7", "current_trial": 125, "dateTime": 1513458403193, "trialdata": {"rt": -1, "stimulus": "<p id=\"stim\">PIANO</p>", "key_press": -1, "type": "PRES_VIS", "word": "piano", "wordID": 1056, "conditions": [24, 1600, "v", 12000], "trial": 3, "serialpos": 8, "trial_type": "single-stim", "trial_index": 125, "time_elapsed": 633655, "internal_node_id": "0.0-89.0"}}, {"uniqueid": "MTK1198:3AUQQEL7U60K95MSCVNTHOAVW100V7", "current_trial": 126, "dateTime": 1513458405829, "trialdata": {"rt": -1, "stimulus": "<p id=\"stim\">BEEF</p>", "key_press": -1, "type": "PRES_VIS", "word": "beef", "wordID": 112, "conditions": [24, 1600, "v", 12000], "trial": 3, "serialpos": 9, "trial_type": "single-stim", "trial_index": 126, "time_elapsed": 636291, "internal_node_id": "0.0-90.0"}}, {"uniqueid": "MTK1198:3AUQQEL7U60K95MSCVNTHOAVW100V7", "current_trial": 127, "dateTime": 1513458408492, "trialdata": {"rt": -1, "stimulus": "<p id=\"stim\">GIRL</p>", "key_press": -1, "type": "PRES_VIS", "word": "girl", "wordID": 636, "conditions": [24, 1600, "v", 12000], "trial": 3, "serialpos": 10, "trial_type": "single-stim", "trial_index": 127, "time_elapsed": 638954, "internal_node_id": "0.0-91.0"}}, {"uniqueid": "MTK1198:3AUQQEL7U60K95MSCVNTHOAVW100V7", "current_trial": 128, "dateTime": 1513458410995, "trialdata": {"rt": -1, "stimulus": "<p id=\"stim\">LOVER</p>", "key_press": -1, "type": "PRES_VIS", "word": "lover", "wordID": 845, "conditions": [24, 1600, "v", 12000], "trial": 3, "serialpos": 11, "trial_type": "single-stim", "trial_index": 128, "time_elapsed": 641457, "internal_node_id": "0.0-92.0"}}, {"uniqueid": "MTK1198:3AUQQEL7U60K95MSCVNTHOAVW100V7", "current_trial": 129, "dateTime": 1513458413633, "trialdata": {"rt": -1, "stimulus": "<p id=\"stim\">FRIEND</p>", "key_press": -1, "type": "PRES_VIS", "word": "friend", "wordID": 605, "conditions": [24, 1600, "v", 12000], "trial": 3, "serialpos": 12, "trial_type": "single-stim", "trial_index": 129, "time_elapsed": 644095, "internal_node_id": "0.0-93.0"}}, {"uniqueid": "MTK1198:3AUQQEL7U60K95MSCVNTHOAVW100V7", "current_trial": 130, "dateTime": 1513458416211, "trialdata": {"rt": -1, "stimulus": "<p id=\"stim\">HUMAN</p>", "key_press": -1, "type": "PRES_VIS", "word": "human", "wordID": 725, "conditions": [24, 1600, "v", 12000], "trial": 3, "serialpos": 13, "trial_type": "single-stim", "trial_index": 130, "time_elapsed": 646672, "internal_node_id": "0.0-94.0"}}, {"uniqueid": "MTK1198:3AUQQEL7U60K95MSCVNTHOAVW100V7", "current_trial": 131, "dateTime": 1513458418878, "trialdata": {"rt": -1, "stimulus": "<p id=\"stim\">MATCH</p>", "key_press": -1, "type": "PRES_VIS", "word": "match", "wordID": 877, "conditions": [24, 1600, "v", 12000], "trial": 3, "serialpos": 14, "trial_type": "single-stim", "trial_index": 131, "time_elapsed": 649340, "internal_node_id": "0.0-95.0"}}, {"uniqueid": "MTK1198:3AUQQEL7U60K95MSCVNTHOAVW100V7", "current_trial": 132, "dateTime": 1513458421491, "trialdata": {"rt": -1, "stimulus": "<p id=\"stim\">DAUGHTER</p>", "key_press": -1, "type": "PRES_VIS", "word": "daughter", "wordID": 441, "conditions": [24, 1600, "v", 12000], "trial": 3, "serialpos": 15, "trial_type": "single-stim", "trial_index": 132, "time_elapsed": 651952, "internal_node_id": "0.0-96.0"}}, {"uniqueid": "MTK1198:3AUQQEL7U60K95MSCVNTHOAVW100V7", "current_trial": 133, "dateTime": 1513458424248, "trialdata": {"rt": -1, "stimulus": "<p id=\"stim\">MILDEW</p>", "key_press": -1, "type": "PRES_VIS", "word": "mildew", "wordID": 892, "conditions": [24, 1600, "v", 12000], "trial": 3, "serialpos": 16, "trial_type": "single-stim", "trial_index": 133, "time_elapsed": 654710, "internal_node_id": "0.0-97.0"}}, {"uniqueid": "MTK1198:3AUQQEL7U60K95MSCVNTHOAVW100V7", "current_trial": 134, "dateTime": 1513458426790, "trialdata": {"rt": -1, "stimulus": "<p id=\"stim\">FUNGUS</p>", "key_press": -1, "type": "PRES_VIS", "word": "fungus", "wordID": 613, "conditions": [24, 1600, "v", 12000], "trial": 3, "serialpos": 17, "trial_type": "single-stim", "trial_index": 134, "time_elapsed": 657252, "internal_node_id": "0.0-98.0"}}, {"uniqueid": "MTK1198:3AUQQEL7U60K95MSCVNTHOAVW100V7", "current_trial": 135, "dateTime": 1513458429443, "trialdata": {"rt": -1, "stimulus": "<p id=\"stim\">FOOTBALL</p>", "key_press": -1, "type": "PRES_VIS", "word": "football", "wordID": 590, "conditions": [24, 1600, "v", 12000], "trial": 3, "serialpos": 18, "trial_type": "single-stim", "trial_index": 135, "time_elapsed": 659905, "internal_node_id": "0.0-99.0"}}, {"uniqueid": "MTK1198:3AUQQEL7U60K95MSCVNTHOAVW100V7", "current_trial": 136, "dateTime": 1513458432038, "trialdata": {"rt": -1, "stimulus": "<p id=\"stim\">HEADBAND</p>", "key_press": -1, "type": "PRES_VIS", "word": "headband", "wordID": 695, "conditions": [24, 1600, "v", 12000], "trial": 3, "serialpos": 19, "trial_type": "single-stim", "trial_index": 136, "time_elapsed": 662500, "internal_node_id": "0.0-100.0"}}, {"uniqueid": "MTK1198:3AUQQEL7U60K95MSCVNTHOAVW100V7", "current_trial": 137, "dateTime": 1513458434842, "trialdata": {"rt": -1, "stimulus": "<p id=\"stim\">BLENDER</p>", "key_press": -1, "type": "PRES_VIS", "word": "blender", "wordID": 135, "conditions": [24, 1600, "v", 12000], "trial": 3, "serialpos": 20, "trial_type": "single-stim", "trial_index": 137, "time_elapsed": 665304, "internal_node_id": "0.0-101.0"}}, {"uniqueid": "MTK1198:3AUQQEL7U60K95MSCVNTHOAVW100V7", "current_trial": 138, "dateTime": 1513458437384, "trialdata": {"rt": -1, "stimulus": "<p id=\"stim\">LIZARD</p>", "key_press": -1, "type": "PRES_VIS", "word": "lizard", "wordID": 833, "conditions": [24, 1600, "v", 12000], "trial": 3, "serialpos": 21, "trial_type": "single-stim", "trial_index": 138, "time_elapsed": 667846, "internal_node_id": "0.0-102.0"}}, {"uniqueid": "MTK1198:3AUQQEL7U60K95MSCVNTHOAVW100V7", "current_trial": 139, "dateTime": 1513458439991, "trialdata": {"rt": -1, "stimulus": "<p id=\"stim\">SUPPER</p>", "key_press": -1, "type": "PRES_VIS", "word": "supper", "wordID": 1410, "conditions": [24, 1600, "v", 12000], "trial": 3, "serialpos": 22, "trial_type": "single-stim", "trial_index": 139, "time_elapsed": 670453, "internal_node_id": "0.0-103.0"}}, {"uniqueid": "MTK1198:3AUQQEL7U60K95MSCVNTHOAVW100V7", "current_trial": 140, "dateTime": 1513458442632, "trialdata": {"rt": -1, "stimulus": "<p id=\"stim\">COCKTAIL</p>", "key_press": -1, "type": "PRES_VIS", "word": "cocktail", "wordID": 337, "conditions": [24, 1600, "v", 12000], "trial": 3, "serialpos": 23, "trial_type": "single-stim", "trial_index": 140, "time_elapsed": 673094, "internal_node_id": "0.0-104.0"}}, {"uniqueid": "MTK1198:3AUQQEL7U60K95MSCVNTHOAVW100V7", "current_trial": 141, "dateTime": 1513458444846, "trialdata": {"rt": -1, "stimulus": "", "key_press": -1, "type": "PRE_RECALL_DELAY", "trial_type": "single-stim", "trial_index": 141, "time_elapsed": 675308, "internal_node_id": "0.0-105.0-0.0"}}, {"uniqueid": "MTK1198:3AUQQEL7U60K95MSCVNTHOAVW100V7", "current_trial": 142, "dateTime": 1513458445348, "trialdata": {"rt": -1000, "stimulus": "/static/audio/400Hz.wav", "key_press": -1, "type": "PRE_RECALL_ALERT", "trial_type": "single-audio", "trial_index": 142, "time_elapsed": 675810, "internal_node_id": "0.0-106.0"}}, {"uniqueid": "MTK1198:3AUQQEL7U60K95MSCVNTHOAVW100V7", "current_trial": 143, "dateTime": 1513458505358, "trialdata": {"rt": [5353, 9054, 11046, 15966, 20078, 23646, 25429, 27878, 29574, 31838, 35046, 36910, 39622, 41165, 43254], "recwords": ["worker", "boyfriend", "poet", "radish", "parsley", "girl", "lover", "friend", "human", "daughter", "football", "headband", "lizard", "supper", "cocktail"], "type": "FREE_RECALL", "conditions": [24, 1600, "v", 12000], "trial": 3, "trial_type": "free-recall", "trial_index": 143, "time_elapsed": 735816, "internal_node_id": "0.0-107.0-0.0"}}, {"uniqueid": "MTK1198:3AUQQEL7U60K95MSCVNTHOAVW100V7", "current_trial": 144, "dateTime": 1513458512289, "trialdata": {"rt": 4927, "key_press": 13, "type": "INSTRUCTIONS", "trial_type": "text", "trial_index": 144, "time_elapsed": 742751, "internal_node_id": "0.0-108.0"}}, {"uniqueid": "MTK1198:3AUQQEL7U60K95MSCVNTHOAVW100V7", "current_trial": 145, "dateTime": 1513458526298, "trialdata": {"rt": [2405, 7050, 11505], "responses": ["4", "19", "13"], "num1": [1, 7, 3, 4], "num2": [1, 3, 3, 1], "num3": [2, 9, 7, 2], "type": "DISTRACTOR", "conditions": [24, 1600, "a", 12000], "trial": 4, "trial_type": "math-distractor", "trial_index": 145, "time_elapsed": 756760, "internal_node_id": "0.0-109.0"}}, {"uniqueid": "MTK1198:3AUQQEL7U60K95MSCVNTHOAVW100V7", "current_trial": 146, "dateTime": 1513458529304, "trialdata": {"rt": -1, "stimulus": "<p id=\"stim\">10</p>", "key_press": -1, "trial_type": "single-stim", "trial_index": 146, "time_elapsed": 759766, "internal_node_id": "0.0-110.0-0.0"}}, {"uniqueid": "MTK1198:3AUQQEL7U60K95MSCVNTHOAVW100V7", "current_trial": 147, "dateTime": 1513458530306, "trialdata": {"rt": -1, "stimulus": "<p id=\"stim\">9</p>", "key_press": -1, "trial_type": "single-stim", "trial_index": 147, "time_elapsed": 760768, "internal_node_id": "0.0-110.0-1.0"}}, {"uniqueid": "MTK1198:3AUQQEL7U60K95MSCVNTHOAVW100V7", "current_trial": 148, "dateTime": 1513458531312, "trialdata": {"rt": -1, "stimulus": "<p id=\"stim\">8</p>", "key_press": -1, "trial_type": "single-stim", "trial_index": 148, "time_elapsed": 761774, "internal_node_id": "0.0-110.0-2.0"}}, {"uniqueid": "MTK1198:3AUQQEL7U60K95MSCVNTHOAVW100V7", "current_trial": 149, "dateTime": 1513458532317, "trialdata": {"rt": -1, "stimulus": "<p id=\"stim\">7</p>", "key_press": -1, "trial_type": "single-stim", "trial_index": 149, "time_elapsed": 762779, "internal_node_id": "0.0-110.0-3.0"}}, {"uniqueid": "MTK1198:3AUQQEL7U60K95MSCVNTHOAVW100V7", "current_trial": 150, "dateTime": 1513458533324, "trialdata": {"rt": -1, "stimulus": "<p id=\"stim\">6</p>", "key_press": -1, "trial_type": "single-stim", "trial_index": 150, "time_elapsed": 763785, "internal_node_id": "0.0-110.0-4.0"}}, {"uniqueid": "MTK1198:3AUQQEL7U60K95MSCVNTHOAVW100V7", "current_trial": 151, "dateTime": 1513458534325, "trialdata": {"rt": -1, "stimulus": "<p id=\"stim\">5</p>", "key_press": -1, "trial_type": "single-stim", "trial_index": 151, "time_elapsed": 764787, "internal_node_id": "0.0-110.0-5.0"}}, {"uniqueid": "MTK1198:3AUQQEL7U60K95MSCVNTHOAVW100V7", "current_trial": 152, "dateTime": 1513458535330, "trialdata": {"rt": -1, "stimulus": "<p id=\"stim\">4</p>", "key_press": -1, "trial_type": "single-stim", "trial_index": 152, "time_elapsed": 765792, "internal_node_id": "0.0-110.0-6.0"}}, {"uniqueid": "MTK1198:3AUQQEL7U60K95MSCVNTHOAVW100V7", "current_trial": 153, "dateTime": 1513458536334, "trialdata": {"rt": -1, "stimulus": "<p id=\"stim\">3</p>", "key_press": -1, "trial_type": "single-stim", "trial_index": 153, "time_elapsed": 766796, "internal_node_id": "0.0-110.0-7.0"}}, {"uniqueid": "MTK1198:3AUQQEL7U60K95MSCVNTHOAVW100V7", "current_trial": 154, "dateTime": 1513458537342, "trialdata": {"rt": -1, "stimulus": "<p id=\"stim\">2</p>", "key_press": -1, "trial_type": "single-stim", "trial_index": 154, "time_elapsed": 767804, "internal_node_id": "0.0-110.0-8.0"}}, {"uniqueid": "MTK1198:3AUQQEL7U60K95MSCVNTHOAVW100V7", "current_trial": 155, "dateTime": 1513458538347, "trialdata": {"rt": -1, "stimulus": "<p id=\"stim\">1</p>", "key_press": -1, "trial_type": "single-stim", "trial_index": 155, "time_elapsed": 768808, "internal_node_id": "0.0-110.0-9.0"}}, {"uniqueid": "MTK1198:3AUQQEL7U60K95MSCVNTHOAVW100V7", "current_trial": 156, "dateTime": 1513458539852, "trialdata": {"rt": -1, "stimulus": "<p id=\"stim\">+</p>", "key_press": -1, "type": "FIXATION", "trial_type": "single-stim", "trial_index": 156, "time_elapsed": 770314, "internal_node_id": "0.0-111.0-0.0"}}, {"uniqueid": "MTK1198:3AUQQEL7U60K95MSCVNTHOAVW100V7", "current_trial": 157, "dateTime": 1513458542512, "trialdata": {"rt": -1000, "stimulus": "/static/audio/wordpool/SCISSORS.wav", "key_press": -1, "type": "PRES_AUD", "word": "scissors", "wordID": 1249, "conditions": [24, 1600, "a", 12000], "trial": 4, "serialpos": 0, "trial_type": "single-audio", "trial_index": 157, "time_elapsed": 772974, "internal_node_id": "0.0-112.0"}}, {"uniqueid": "MTK1198:3AUQQEL7U60K95MSCVNTHOAVW100V7", "current_trial": 158, "dateTime": 1513458544989, "trialdata": {"rt": -1000, "stimulus": "/static/audio/wordpool/CHAUFFEUR.wav", "key_press": -1, "type": "PRES_AUD", "word": "chauffeur", "wordID": 282, "conditions": [24, 1600, "a", 12000], "trial": 4, "serialpos": 1, "trial_type": "single-audio", "trial_index": 158, "time_elapsed": 775451, "internal_node_id": "0.0-113.0"}}, {"uniqueid": "MTK1198:3AUQQEL7U60K95MSCVNTHOAVW100V7", "current_trial": 159, "dateTime": 1513458547514, "trialdata": {"rt": -1000, "stimulus": "/static/audio/wordpool/BUNNY.wav", "key_press": -1, "type": "PRES_AUD", "word": "bunny", "wordID": 197, "conditions": [24, 1600, "a", 12000], "trial": 4, "serialpos": 2, "trial_type": "single-audio", "trial_index": 159, "time_elapsed": 777976, "internal_node_id": "0.0-114.0"}}, {"uniqueid": "MTK1198:3AUQQEL7U60K95MSCVNTHOAVW100V7", "current_trial": 160, "dateTime": 1513458549974, "trialdata": {"rt": -1000, "stimulus": "/static/audio/wordpool/SCARECROW.wav", "key_press": -1, "type": "PRES_AUD", "word": "scarecrow", "wordID": 1244, "conditions": [24, 1600, "a", 12000], "trial": 4, "serialpos": 3, "trial_type": "single-audio", "trial_index": 160, "time_elapsed": 780436, "internal_node_id": "0.0-115.0"}}, {"uniqueid": "MTK1198:3AUQQEL7U60K95MSCVNTHOAVW100V7", "current_trial": 161, "dateTime": 1513458552408, "trialdata": {"rt": -1000, "stimulus": "/static/audio/wordpool/CANYON.wav", "key_press": -1, "type": "PRES_AUD", "word": "canyon", "wordID": 234, "conditions": [24, 1600, "a", 12000], "trial": 4, "serialpos": 4, "trial_type": "single-audio", "trial_index": 161, "time_elapsed": 782869, "internal_node_id": "0.0-116.0"}}, {"uniqueid": "MTK1198:3AUQQEL7U60K95MSCVNTHOAVW100V7", "current_trial": 162, "dateTime": 1513458555200, "trialdata": {"rt": -1000, "stimulus": "/static/audio/wordpool/VALLEY.wav", "key_press": -1, "type": "PRES_AUD", "word": "valley", "wordID": 1544, "conditions": [24, 1600, "a", 12000], "trial": 4, "serialpos": 5, "trial_type": "single-audio", "trial_index": 162, "time_elapsed": 785661, "internal_node_id": "0.0-117.0"}}, {"uniqueid": "MTK1198:3AUQQEL7U60K95MSCVNTHOAVW100V7", "current_trial": 163, "dateTime": 1513458557870, "trialdata": {"rt": -1000, "stimulus": "/static/audio/wordpool/BUBBLE.wav", "key_press": -1, "type": "PRES_AUD", "word": "bubble", "wordID": 182, "conditions": [24, 1600, "a", 12000], "trial": 4, "serialpos": 6, "trial_type": "single-audio", "trial_index": 163, "time_elapsed": 788332, "internal_node_id": "0.0-118.0"}}, {"uniqueid": "MTK1198:3AUQQEL7U60K95MSCVNTHOAVW100V7", "current_trial": 164, "dateTime": 1513458560285, "trialdata": {"rt": -1000, "stimulus": "/static/audio/wordpool/VENUS.wav", "key_press": -1, "type": "PRES_AUD", "word": "venus", "wordID": 1556, "conditions": [24, 1600, "a", 12000], "trial": 4, "serialpos": 7, "trial_type": "single-audio", "trial_index": 164, "time_elapsed": 790747, "internal_node_id": "0.0-119.0"}}, {"uniqueid": "MTK1198:3AUQQEL7U60K95MSCVNTHOAVW100V7", "current_trial": 165, "dateTime": 1513458562793, "trialdata": {"rt": -1000, "stimulus": "/static/audio/wordpool/PEANUT.wav", "key_press": -1, "type": "PRES_AUD", "word": "peanut", "wordID": 1031, "conditions": [24, 1600, "a", 12000], "trial": 4, "serialpos": 8, "trial_type": "single-audio", "trial_index": 165, "time_elapsed": 793255, "internal_node_id": "0.0-120.0"}}, {"uniqueid": "MTK1198:3AUQQEL7U60K95MSCVNTHOAVW100V7", "current_trial": 166, "dateTime": 1513458565341, "trialdata": {"rt": -1000, "stimulus": "/static/audio/wordpool/PLIERS.wav", "key_press": -1, "type": "PRES_AUD", "word": "pliers", "wordID": 1088, "conditions": [24, 1600, "a", 12000], "trial": 4, "serialpos": 9, "trial_type": "single-audio", "trial_index": 166, "time_elapsed": 795803, "internal_node_id": "0.0-121.0"}}, {"uniqueid": "MTK1198:3AUQQEL7U60K95MSCVNTHOAVW100V7", "current_trial": 167, "dateTime": 1513458567802, "trialdata": {"rt": -1000, "stimulus": "/static/audio/wordpool/PARROT.wav", "key_press": -1, "type": "PRES_AUD", "word": "parrot", "wordID": 1014, "conditions": [24, 1600, "a", 12000], "trial": 4, "serialpos": 10, "trial_type": "single-audio", "trial_index": 167, "time_elapsed": 798264, "internal_node_id": "0.0-122.0"}}, {"uniqueid": "MTK1198:3AUQQEL7U60K95MSCVNTHOAVW100V7", "current_trial": 168, "dateTime": 1513458570554, "trialdata": {"rt": -1000, "stimulus": "/static/audio/wordpool/GHETTO.wav", "key_press": -1, "type": "PRES_AUD", "word": "ghetto", "wordID": 632, "conditions": [24, 1600, "a", 12000], "trial": 4, "serialpos": 11, "trial_type": "single-audio", "trial_index": 168, "time_elapsed": 801015, "internal_node_id": "0.0-123.0"}}, {"uniqueid": "MTK1198:3AUQQEL7U60K95MSCVNTHOAVW100V7", "current_trial": 169, "dateTime": 1513458573049, "trialdata": {"rt": -1000, "stimulus": "/static/audio/wordpool/SERVANT.wav", "key_press": -1, "type": "PRES_AUD", "word": "servant", "wordID": 1270, "conditions": [24, 1600, "a", 12000], "trial": 4, "serialpos": 12, "trial_type": "single-audio", "trial_index": 169, "time_elapsed": 803511, "internal_node_id": "0.0-124.0"}}, {"uniqueid": "MTK1198:3AUQQEL7U60K95MSCVNTHOAVW100V7", "current_trial": 170, "dateTime": 1513458575499, "trialdata": {"rt": -1000, "stimulus": "/static/audio/wordpool/NURSE.wav", "key_press": -1, "type": "PRES_AUD", "word": "nurse", "wordID": 962, "conditions": [24, 1600, "a", 12000], "trial": 4, "serialpos": 13, "trial_type": "single-audio", "trial_index": 170, "time_elapsed": 805961, "internal_node_id": "0.0-125.0"}}, {"uniqueid": "MTK1198:3AUQQEL7U60K95MSCVNTHOAVW100V7", "current_trial": 171, "dateTime": 1513458578216, "trialdata": {"rt": -1000, "stimulus": "/static/audio/wordpool/PANTHER.wav", "key_press": -1, "type": "PRES_AUD", "word": "panther", "wordID": 1008, "conditions": [24, 1600, "a", 12000], "trial": 4, "serialpos": 14, "trial_type": "single-audio", "trial_index": 171, "time_elapsed": 808678, "internal_node_id": "0.0-126.0"}}, {"uniqueid": "MTK1198:3AUQQEL7U60K95MSCVNTHOAVW100V7", "current_trial": 172, "dateTime": 1513458580906, "trialdata": {"rt": -1000, "stimulus": "/static/audio/wordpool/LAVA.wav", "key_press": -1, "type": "PRES_AUD", "word": "lava", "wordID": 803, "conditions": [24, 1600, "a", 12000], "trial": 4, "serialpos": 15, "trial_type": "single-audio", "trial_index": 172, "time_elapsed": 811368, "internal_node_id": "0.0-127.0"}}, {"uniqueid": "MTK1198:3AUQQEL7U60K95MSCVNTHOAVW100V7", "current_trial": 173, "dateTime": 1513458583460, "trialdata": {"rt": -1000, "stimulus": "/static/audio/wordpool/PAPER.wav", "key_press": -1, "type": "PRES_AUD", "word": "paper", "wordID": 1010, "conditions": [24, 1600, "a", 12000], "trial": 4, "serialpos": 16, "trial_type": "single-audio", "trial_index": 173, "time_elapsed": 813922, "internal_node_id": "0.0-128.0"}}, {"uniqueid": "MTK1198:3AUQQEL7U60K95MSCVNTHOAVW100V7", "current_trial": 174, "dateTime": 1513458585914, "trialdata": {"rt": -1000, "stimulus": "/static/audio/wordpool/CUPBOARD.wav", "key_press": -1, "type": "PRES_AUD", "word": "cupboard", "wordID": 424, "conditions": [24, 1600, "a", 12000], "trial": 4, "serialpos": 17, "trial_type": "single-audio", "trial_index": 174, "time_elapsed": 816375, "internal_node_id": "0.0-129.0"}}, {"uniqueid": "MTK1198:3AUQQEL7U60K95MSCVNTHOAVW100V7", "current_trial": 175, "dateTime": 1513458588648, "trialdata": {"rt": -1000, "stimulus": "/static/audio/wordpool/DRESSER.wav", "key_press": -1, "type": "PRES_AUD", "word": "dresser", "wordID": 495, "conditions": [24, 1600, "a", 12000], "trial": 4, "serialpos": 18, "trial_type": "single-audio", "trial_index": 175, "time_elapsed": 819110, "internal_node_id": "0.0-130.0"}}, {"uniqueid": "MTK1198:3AUQQEL7U60K95MSCVNTHOAVW100V7", "current_trial": 176, "dateTime": 1513458591074, "trialdata": {"rt": -1000, "stimulus": "/static/audio/wordpool/ICEBERG.wav", "key_press": -1, "type": "PRES_AUD", "word": "iceberg", "wordID": 730, "conditions": [24, 1600, "a", 12000], "trial": 4, "serialpos": 19, "trial_type": "single-audio", "trial_index": 176, "time_elapsed": 821536, "internal_node_id": "0.0-131.0"}}, {"uniqueid": "MTK1198:3AUQQEL7U60K95MSCVNTHOAVW100V7", "current_trial": 177, "dateTime": 1513458593571, "trialdata": {"rt": -1000, "stimulus": "/static/audio/wordpool/PERMIT.wav", "key_press": -1, "type": "PRES_AUD", "word": "permit", "wordID": 1050, "conditions": [24, 1600, "a", 12000], "trial": 4, "serialpos": 20, "trial_type": "single-audio", "trial_index": 177, "time_elapsed": 824033, "internal_node_id": "0.0-132.0"}}, {"uniqueid": "MTK1198:3AUQQEL7U60K95MSCVNTHOAVW100V7", "current_trial": 178, "dateTime": 1513458595973, "trialdata": {"rt": -1000, "stimulus": "/static/audio/wordpool/PREACHER.wav", "key_press": -1, "type": "PRES_AUD", "word": "preacher", "wordID": 1118, "conditions": [24, 1600, "a", 12000], "trial": 4, "serialpos": 21, "trial_type": "single-audio", "trial_index": 178, "time_elapsed": 826435, "internal_node_id": "0.0-133.0"}}, {"uniqueid": "MTK1198:3AUQQEL7U60K95MSCVNTHOAVW100V7", "current_trial": 179, "dateTime": 1513458598748, "trialdata": {"rt": -1000, "stimulus": "/static/audio/wordpool/CRATER.wav", "key_press": -1, "type": "PRES_AUD", "word": "crater", "wordID": 399, "conditions": [24, 1600, "a", 12000], "trial": 4, "serialpos": 22, "trial_type": "single-audio", "trial_index": 179, "time_elapsed": 829210, "internal_node_id": "0.0-134.0"}}, {"uniqueid": "MTK1198:3AUQQEL7U60K95MSCVNTHOAVW100V7", "current_trial": 180, "dateTime": 1513458601157, "trialdata": {"rt": -1000, "stimulus": "/static/audio/wordpool/AUTHOR.wav", "key_press": -1, "type": "PRES_AUD", "word": "author", "wordID": 60, "conditions": [24, 1600, "a", 12000], "trial": 4, "serialpos": 23, "trial_type": "single-audio", "trial_index": 180, "time_elapsed": 831619, "internal_node_id": "0.0-135.0"}}, {"uniqueid": "MTK1198:3AUQQEL7U60K95MSCVNTHOAVW100V7", "current_trial": 181, "dateTime": 1513458602497, "trialdata": {"rt": -1, "stimulus": "", "key_press": -1, "type": "PRE_RECALL_DELAY", "trial_type": "single-stim", "trial_index": 181, "time_elapsed": 832959, "internal_node_id": "0.0-136.0-0.0"}}, {"uniqueid": "MTK1198:3AUQQEL7U60K95MSCVNTHOAVW100V7", "current_trial": 182, "dateTime": 1513458603002, "trialdata": {"rt": -1000, "stimulus": "/static/audio/400Hz.wav", "key_press": -1, "type": "PRE_RECALL_ALERT", "trial_type": "single-audio", "trial_index": 182, "time_elapsed": 833464, "internal_node_id": "0.0-137.0"}}, {"uniqueid": "MTK1198:3AUQQEL7U60K95MSCVNTHOAVW100V7", "current_trial": 183, "dateTime": 1513458663010, "trialdata": {"rt": [3416, 6080, 8785, 10991, 13206, 16558, 18439, 21920, 24062, 26751, 28830, 30927, 32879, 35822, 37575], "recwords": ["iceberg", "permit", "author", "crater", "scissors", "bunny", "valley", "canyon", "scarecrow", "peanut", "plier", "nurse", "parrot", "lava", "paper"], "type": "FREE_RECALL", "conditions": [24, 1600, "a", 12000], "trial": 4, "trial_type": "free-recall", "trial_index": 183, "time_elapsed": 893468, "internal_node_id": "0.0-138.0-0.0"}}, {"uniqueid": "MTK1198:3AUQQEL7U60K95MSCVNTHOAVW100V7", "current_trial": 184, "dateTime": 1513458692992, "trialdata": {"rt": 27975, "key_press": 32, "type": "INSTRUCTIONS", "trial_type": "text", "trial_index": 184, "time_elapsed": 923453, "internal_node_id": "0.0-139.0"}}, {"uniqueid": "MTK1198:3AUQQEL7U60K95MSCVNTHOAVW100V7", "current_trial": 185, "dateTime": 1513458707003, "trialdata": {"rt": [2722, 4762, 9420], "responses": ["18", "12", "21"], "num1": [7, 3, 8, 8], "num2": [2, 8, 5, 1], "num3": [9, 1, 9, 5], "type": "DISTRACTOR", "conditions": [24, 800, "v", 12000], "trial": 5, "trial_type": "math-distractor", "trial_index": 185, "time_elapsed": 937465, "internal_node_id": "0.0-140.0"}}, {"uniqueid": "MTK1198:3AUQQEL7U60K95MSCVNTHOAVW100V7", "current_trial": 186, "dateTime": 1513458710011, "trialdata": {"rt": -1, "stimulus": "<p id=\"stim\">10</p>", "key_press": -1, "trial_type": "single-stim", "trial_index": 186, "time_elapsed": 940473, "internal_node_id": "0.0-141.0-0.0"}}, {"uniqueid": "MTK1198:3AUQQEL7U60K95MSCVNTHOAVW100V7", "current_trial": 187, "dateTime": 1513458711015, "trialdata": {"rt": -1, "stimulus": "<p id=\"stim\">9</p>", "key_press": -1, "trial_type": "single-stim", "trial_index": 187, "time_elapsed": 941476, "internal_node_id": "0.0-141.0-1.0"}}, {"uniqueid": "MTK1198:3AUQQEL7U60K95MSCVNTHOAVW100V7", "current_trial": 188, "dateTime": 1513458712019, "trialdata": {"rt": -1, "stimulus": "<p id=\"stim\">8</p>", "key_press": -1, "trial_type": "single-stim", "trial_index": 188, "time_elapsed": 942480, "internal_node_id": "0.0-141.0-2.0"}}, {"uniqueid": "MTK1198:3AUQQEL7U60K95MSCVNTHOAVW100V7", "current_trial": 189, "dateTime": 1513458713023, "trialdata": {"rt": -1, "stimulus": "<p id=\"stim\">7</p>", "key_press": -1, "trial_type": "single-stim", "trial_index": 189, "time_elapsed": 943485, "internal_node_id": "0.0-141.0-3.0"}}, {"uniqueid": "MTK1198:3AUQQEL7U60K95MSCVNTHOAVW100V7", "current_trial": 190, "dateTime": 1513458714027, "trialdata": {"rt": -1, "stimulus": "<p id=\"stim\">6</p>", "key_press": -1, "trial_type": "single-stim", "trial_index": 190, "time_elapsed": 944489, "internal_node_id": "0.0-141.0-4.0"}}, {"uniqueid": "MTK1198:3AUQQEL7U60K95MSCVNTHOAVW100V7", "current_trial": 191, "dateTime": 1513458715032, "trialdata": {"rt": -1, "stimulus": "<p id=\"stim\">5</p>", "key_press": -1, "trial_type": "single-stim", "trial_index": 191, "time_elapsed": 945493, "internal_node_id": "0.0-141.0-5.0"}}, {"uniqueid": "MTK1198:3AUQQEL7U60K95MSCVNTHOAVW100V7", "current_trial": 192, "dateTime": 1513458716034, "trialdata": {"rt": -1, "stimulus": "<p id=\"stim\">4</p>", "key_press": -1, "trial_type": "single-stim", "trial_index": 192, "time_elapsed": 946496, "internal_node_id": "0.0-141.0-6.0"}}, {"uniqueid": "MTK1198:3AUQQEL7U60K95MSCVNTHOAVW100V7", "current_trial": 193, "dateTime": 1513458717040, "trialdata": {"rt": -1, "stimulus": "<p id=\"stim\">3</p>", "key_press": -1, "trial_type": "single-stim", "trial_index": 193, "time_elapsed": 947502, "internal_node_id": "0.0-141.0-7.0"}}, {"uniqueid": "MTK1198:3AUQQEL7U60K95MSCVNTHOAVW100V7", "current_trial": 194, "dateTime": 1513458718044, "trialdata": {"rt": -1, "stimulus": "<p id=\"stim\">2</p>", "key_press": -1, "trial_type": "single-stim", "trial_index": 194, "time_elapsed": 948506, "internal_node_id": "0.0-141.0-8.0"}}, {"uniqueid": "MTK1198:3AUQQEL7U60K95MSCVNTHOAVW100V7", "current_trial": 195, "dateTime": 1513458719049, "trialdata": {"rt": -1, "stimulus": "<p id=\"stim\">1</p>", "key_press": -1, "trial_type": "single-stim", "trial_index": 195, "time_elapsed": 949511, "internal_node_id": "0.0-141.0-9.0"}}, {"uniqueid": "MTK1198:3AUQQEL7U60K95MSCVNTHOAVW100V7", "current_trial": 196, "dateTime": 1513458720552, "trialdata": {"rt": -1, "stimulus": "<p id=\"stim\">+</p>", "key_press": -1, "type": "FIXATION", "trial_type": "single-stim", "trial_index": 196, "time_elapsed": 951014, "internal_node_id": "0.0-142.0-0.0"}}, {"uniqueid": "MTK1198:3AUQQEL7U60K95MSCVNTHOAVW100V7", "current_trial": 197, "dateTime": 1513458721359, "trialdata": {"rt": -1, "stimulus": "<p id=\"stim\">COD</p>", "key_press": -1, "type": "PRES_VIS", "word": "cod", "wordID": 339, "conditions": [24, 800, "v", 12000], "trial": 5, "serialpos": 0, "trial_type": "single-stim", "trial_index": 197, "time_elapsed": 951821, "internal_node_id": "0.0-143.0"}}, {"uniqueid": "MTK1198:3AUQQEL7U60K95MSCVNTHOAVW100V7", "current_trial": 198, "dateTime": 1513458723118, "trialdata": {"rt": -1, "stimulus": "<p id=\"stim\">GARDEN</p>", "key_press": -1, "type": "PRES_VIS", "word": "garden", "wordID": 622, "conditions": [24, 800, "v", 12000], "trial": 5, "serialpos": 1, "trial_type": "single-stim", "trial_index": 198, "time_elapsed": 953580, "internal_node_id": "0.0-144.0"}}, {"uniqueid": "MTK1198:3AUQQEL7U60K95MSCVNTHOAVW100V7", "current_trial": 199, "dateTime": 1513458724847, "trialdata": {"rt": -1, "stimulus": "<p id=\"stim\">PICNIC</p>", "key_press": -1, "type": "PRES_VIS", "word": "picnic", "wordID": 1059, "conditions": [24, 800, "v", 12000], "trial": 5, "serialpos": 2, "trial_type": "single-stim", "trial_index": 199, "time_elapsed": 955309, "internal_node_id": "0.0-145.0"}}, {"uniqueid": "MTK1198:3AUQQEL7U60K95MSCVNTHOAVW100V7", "current_trial": 200, "dateTime": 1513458726527, "trialdata": {"rt": -1, "stimulus": "<p id=\"stim\">POLICE</p>", "key_press": -1, "type": "PRES_VIS", "word": "police", "wordID": 1097, "conditions": [24, 800, "v", 12000], "trial": 5, "serialpos": 3, "trial_type": "single-stim", "trial_index": 200, "time_elapsed": 956989, "internal_node_id": "0.0-146.0"}}, {"uniqueid": "MTK1198:3AUQQEL7U60K95MSCVNTHOAVW100V7", "current_trial": 201, "dateTime": 1513458728394, "trialdata": {"rt": -1, "stimulus": "<p id=\"stim\">DANDRUFF</p>", "key_press": -1, "type": "PRES_VIS", "word": "dandruff", "wordID": 438, "conditions": [24, 800, "v", 12000], "trial": 5, "serialpos": 4, "trial_type": "single-stim", "trial_index": 201, "time_elapsed": 958856, "internal_node_id": "0.0-147.0"}}, {"uniqueid": "MTK1198:3AUQQEL7U60K95MSCVNTHOAVW100V7", "current_trial": 202, "dateTime": 1513458730229, "trialdata": {"rt": -1, "stimulus": "<p id=\"stim\">SLOPE</p>", "key_press": -1, "type": "PRES_VIS", "word": "slope", "wordID": 1327, "conditions": [24, 800, "v", 12000], "trial": 5, "serialpos": 5, "trial_type": "single-stim", "trial_index": 202, "time_elapsed": 960690, "internal_node_id": "0.0-148.0"}}, {"uniqueid": "MTK1198:3AUQQEL7U60K95MSCVNTHOAVW100V7", "current_trial": 203, "dateTime": 1513458731964, "trialdata": {"rt": -1, "stimulus": "<p id=\"stim\">WIDOW</p>", "key_press": -1, "type": "PRES_VIS", "word": "widow", "wordID": 1607, "conditions": [24, 800, "v", 12000], "trial": 5, "serialpos": 6, "trial_type": "single-stim", "trial_index": 203, "time_elapsed": 962425, "internal_node_id": "0.0-149.0"}}, {"uniqueid": "MTK1198:3AUQQEL7U60K95MSCVNTHOAVW100V7", "current_trial": 204, "dateTime": 1513458733781, "trialdata": {"rt": -1, "stimulus": "<p id=\"stim\">PATROL</p>", "key_press": -1, "type": "PRES_VIS", "word": "patrol", "wordID": 1026, "conditions": [24, 800, "v", 12000], "trial": 5, "serialpos": 7, "trial_type": "single-stim", "trial_index": 204, "time_elapsed": 964243, "internal_node_id": "0.0-150.0"}}, {"uniqueid": "MTK1198:3AUQQEL7U60K95MSCVNTHOAVW100V7", "current_trial": 205, "dateTime": 1513458735709, "trialdata": {"rt": -1, "stimulus": "<p id=\"stim\">VIRUS</p>", "key_press": -1, "type": "PRES_VIS", "word": "virus", "wordID": 1571, "conditions": [24, 800, "v", 12000], "trial": 5, "serialpos": 8, "trial_type": "single-stim", "trial_index": 205, "time_elapsed": 966171, "internal_node_id": "0.0-151.0"}}, {"uniqueid": "MTK1198:3AUQQEL7U60K95MSCVNTHOAVW100V7", "current_trial": 206, "dateTime": 1513458737508, "trialdata": {"rt": -1, "stimulus": "<p id=\"stim\">STICKER</p>", "key_press": -1, "type": "PRES_VIS", "word": "sticker", "wordID": 1381, "conditions": [24, 800, "v", 12000], "trial": 5, "serialpos": 9, "trial_type": "single-stim", "trial_index": 206, "time_elapsed": 967970, "internal_node_id": "0.0-152.0"}}, {"uniqueid": "MTK1198:3AUQQEL7U60K95MSCVNTHOAVW100V7", "current_trial": 207, "dateTime": 1513458739400, "trialdata": {"rt": -1, "stimulus": "<p id=\"stim\">BADGE</p>", "key_press": -1, "type": "PRES_VIS", "word": "badge", "wordID": 67, "conditions": [24, 800, "v", 12000], "trial": 5, "serialpos": 10, "trial_type": "single-stim", "trial_index": 207, "time_elapsed": 969862, "internal_node_id": "0.0-153.0"}}, {"uniqueid": "MTK1198:3AUQQEL7U60K95MSCVNTHOAVW100V7", "current_trial": 208, "dateTime": 1513458741183, "trialdata": {"rt": -1, "stimulus": "<p id=\"stim\">TRACTOR</p>", "key_press": -1, "type": "PRES_VIS", "word": "tractor", "wordID": 1492, "conditions": [24, 800, "v", 12000], "trial": 5, "serialpos": 11, "trial_type": "single-stim", "trial_index": 208, "time_elapsed": 971644, "internal_node_id": "0.0-154.0"}}, {"uniqueid": "MTK1198:3AUQQEL7U60K95MSCVNTHOAVW100V7", "current_trial": 209, "dateTime": 1513458742959, "trialdata": {"rt": -1, "stimulus": "<p id=\"stim\">SCARF</p>", "key_press": -1, "type": "PRES_VIS", "word": "scarf", "wordID": 1245, "conditions": [24, 800, "v", 12000], "trial": 5, "serialpos": 12, "trial_type": "single-stim", "trial_index": 209, "time_elapsed": 973420, "internal_node_id": "0.0-155.0"}}, {"uniqueid": "MTK1198:3AUQQEL7U60K95MSCVNTHOAVW100V7", "current_trial": 210, "dateTime": 1513458744915, "trialdata": {"rt": -1, "stimulus": "<p id=\"stim\">POCKET</p>", "key_press": -1, "type": "PRES_VIS", "word": "pocket", "wordID": 1092, "conditions": [24, 800, "v", 12000], "trial": 5, "serialpos": 13, "trial_type": "single-stim", "trial_index": 210, "time_elapsed": 975377, "internal_node_id": "0.0-156.0"}}, {"uniqueid": "MTK1198:3AUQQEL7U60K95MSCVNTHOAVW100V7", "current_trial": 211, "dateTime": 1513458746902, "trialdata": {"rt": -1, "stimulus": "<p id=\"stim\">SODA</p>", "key_press": -1, "type": "PRES_VIS", "word": "soda", "wordID": 1340, "conditions": [24, 800, "v", 12000], "trial": 5, "serialpos": 14, "trial_type": "single-stim", "trial_index": 211, "time_elapsed": 977364, "internal_node_id": "0.0-157.0"}}, {"uniqueid": "MTK1198:3AUQQEL7U60K95MSCVNTHOAVW100V7", "current_trial": 212, "dateTime": 1513458748845, "trialdata": {"rt": -1, "stimulus": "<p id=\"stim\">GRILL</p>", "key_press": -1, "type": "PRES_VIS", "word": "grill", "wordID": 660, "conditions": [24, 800, "v", 12000], "trial": 5, "serialpos": 15, "trial_type": "single-stim", "trial_index": 212, "time_elapsed": 979307, "internal_node_id": "0.0-158.0"}}, {"uniqueid": "MTK1198:3AUQQEL7U60K95MSCVNTHOAVW100V7", "current_trial": 213, "dateTime": 1513458750644, "trialdata": {"rt": -1, "stimulus": "<p id=\"stim\">SKILLET</p>", "key_press": -1, "type": "PRES_VIS", "word": "skillet", "wordID": 1316, "conditions": [24, 800, "v", 12000], "trial": 5, "serialpos": 16, "trial_type": "single-stim", "trial_index": 213, "time_elapsed": 981106, "internal_node_id": "0.0-159.0"}}, {"uniqueid": "MTK1198:3AUQQEL7U60K95MSCVNTHOAVW100V7", "current_trial": 214, "dateTime": 1513458752252, "trialdata": {"rt": -1, "stimulus": "<p id=\"stim\">SADDLE</p>", "key_press": -1, "type": "PRES_VIS", "word": "saddle", "wordID": 1220, "conditions": [24, 800, "v", 12000], "trial": 5, "serialpos": 17, "trial_type": "single-stim", "trial_index": 214, "time_elapsed": 982714, "internal_node_id": "0.0-160.0"}}, {"uniqueid": "MTK1198:3AUQQEL7U60K95MSCVNTHOAVW100V7", "current_trial": 215, "dateTime": 1513458754162, "trialdata": {"rt": -1, "stimulus": "<p id=\"stim\">COFFEE</p>", "key_press": -1, "type": "PRES_VIS", "word": "coffee", "wordID": 340, "conditions": [24, 800, "v", 12000], "trial": 5, "serialpos": 18, "trial_type": "single-stim", "trial_index": 215, "time_elapsed": 984624, "internal_node_id": "0.0-161.0"}}, {"uniqueid": "MTK1198:3AUQQEL7U60K95MSCVNTHOAVW100V7", "current_trial": 216, "dateTime": 1513458755985, "trialdata": {"rt": -1, "stimulus": "<p id=\"stim\">EMPIRE</p>", "key_press": -1, "type": "PRES_VIS", "word": "empire", "wordID": 529, "conditions": [24, 800, "v", 12000], "trial": 5, "serialpos": 19, "trial_type": "single-stim", "trial_index": 216, "time_elapsed": 986447, "internal_node_id": "0.0-162.0"}}, {"uniqueid": "MTK1198:3AUQQEL7U60K95MSCVNTHOAVW100V7", "current_trial": 217, "dateTime": 1513458757877, "trialdata": {"rt": -1, "stimulus": "<p id=\"stim\">NAPKIN</p>", "key_press": -1, "type": "PRES_VIS", "word": "napkin", "wordID": 936, "conditions": [24, 800, "v", 12000], "trial": 5, "serialpos": 20, "trial_type": "single-stim", "trial_index": 217, "time_elapsed": 988339, "internal_node_id": "0.0-163.0"}}, {"uniqueid": "MTK1198:3AUQQEL7U60K95MSCVNTHOAVW100V7", "current_trial": 218, "dateTime": 1513458759514, "trialdata": {"rt": -1, "stimulus": "<p id=\"stim\">COLLEGE</p>", "key_press": -1, "type": "PRES_VIS", "word": "college", "wordID": 345, "conditions": [24, 800, "v", 12000], "trial": 5, "serialpos": 21, "trial_type": "single-stim", "trial_index": 218, "time_elapsed": 989976, "internal_node_id": "0.0-164.0"}}, {"uniqueid": "MTK1198:3AUQQEL7U60K95MSCVNTHOAVW100V7", "current_trial": 219, "dateTime": 1513458761441, "trialdata": {"rt": -1, "stimulus": "<p id=\"stim\">SHELTER</p>", "key_press": -1, "type": "PRES_VIS", "word": "shelter", "wordID": 1281, "conditions": [24, 800, "v", 12000], "trial": 5, "serialpos": 22, "trial_type": "single-stim", "trial_index": 219, "time_elapsed": 991903, "internal_node_id": "0.0-165.0"}}, {"uniqueid": "MTK1198:3AUQQEL7U60K95MSCVNTHOAVW100V7", "current_trial": 220, "dateTime": 1513458763357, "trialdata": {"rt": -1, "stimulus": "<p id=\"stim\">WORLD</p>", "key_press": -1, "type": "PRES_VIS", "word": "world", "wordID": 1621, "conditions": [24, 800, "v", 12000], "trial": 5, "serialpos": 23, "trial_type": "single-stim", "trial_index": 220, "time_elapsed": 993819, "internal_node_id": "0.0-166.0"}}, {"uniqueid": "MTK1198:3AUQQEL7U60K95MSCVNTHOAVW100V7", "current_trial": 221, "dateTime": 1513458765534, "trialdata": {"rt": -1, "stimulus": "", "key_press": -1, "type": "PRE_RECALL_DELAY", "trial_type": "single-stim", "trial_index": 221, "time_elapsed": 995996, "internal_node_id": "0.0-167.0-0.0"}}, {"uniqueid": "MTK1198:3AUQQEL7U60K95MSCVNTHOAVW100V7", "current_trial": 222, "dateTime": 1513458766039, "trialdata": {"rt": -1000, "stimulus": "/static/audio/400Hz.wav", "key_press": -1, "type": "PRE_RECALL_ALERT", "trial_type": "single-audio", "trial_index": 222, "time_elapsed": 996501, "internal_node_id": "0.0-168.0"}}, {"uniqueid": "MTK1198:3AUQQEL7U60K95MSCVNTHOAVW100V7", "current_trial": 223, "dateTime": 1513458826469, "trialdata": {"rt": [3101, 6299, 8500, 10676, 13939, 16155, 17571, 19396, 20893, 23884, 25596], "recwords": ["empire", "traction", "pocket", "grill", "widnow", "virus", "badge", "cod", "shelter", "garden", "picnic"], "type": "FREE_RECALL", "conditions": [24, 800, "v", 12000], "trial": 5, "trial_type": "free-recall", "trial_index": 223, "time_elapsed": 1056926, "internal_node_id": "0.0-169.0-0.0"}}, {"uniqueid": "MTK1198:3AUQQEL7U60K95MSCVNTHOAVW100V7", "current_trial": 224, "dateTime": 1513458878430, "trialdata": {"rt": 48966, "key_press": 32, "type": "INSTRUCTIONS", "trial_type": "text", "trial_index": 224, "time_elapsed": 1108892, "internal_node_id": "0.0-170.0"}}, {"uniqueid": "MTK1198:3AUQQEL7U60K95MSCVNTHOAVW100V7", "current_trial": 225, "dateTime": 1513458892440, "trialdata": {"rt": [2792, 5591, 9408, 11399], "responses": ["8", "8", "22", "9"], "num1": [5, 4, 8, 3, 2], "num2": [2, 1, 7, 3, 9], "num3": [1, 3, 7, 3, 8], "type": "DISTRACTOR", "conditions": [12, 1600, "a", 12000], "trial": 6, "trial_type": "math-distractor", "trial_index": 225, "time_elapsed": 1122902, "internal_node_id": "0.0-171.0"}}, {"uniqueid": "MTK1198:3AUQQEL7U60K95MSCVNTHOAVW100V7", "current_trial": 226, "dateTime": 1513458895444, "trialdata": {"rt": -1, "stimulus": "<p id=\"stim\">10</p>", "key_press": -1, "trial_type": "single-stim", "trial_index": 226, "time_elapsed": 1125906, "internal_node_id": "0.0-172.0-0.0"}}, {"uniqueid": "MTK1198:3AUQQEL7U60K95MSCVNTHOAVW100V7", "current_trial": 227, "dateTime": 1513458896451, "trialdata": {"rt": -1, "stimulus": "<p id=\"stim\">9</p>", "key_press": -1, "trial_type": "single-stim", "trial_index": 227, "time_elapsed": 1126913, "internal_node_id": "0.0-172.0-1.0"}}, {"uniqueid": "MTK1198:3AUQQEL7U60K95MSCVNTHOAVW100V7", "current_trial": 228, "dateTime": 1513458897457, "trialdata": {"rt": -1, "stimulus": "<p id=\"stim\">8</p>", "key_press": -1, "trial_type": "single-stim", "trial_index": 228, "time_elapsed": 1127919, "internal_node_id": "0.0-172.0-2.0"}}, {"uniqueid": "MTK1198:3AUQQEL7U60K95MSCVNTHOAVW100V7", "current_trial": 229, "dateTime": 1513458898460, "trialdata": {"rt": -1, "stimulus": "<p id=\"stim\">7</p>", "key_press": -1, "trial_type": "single-stim", "trial_index": 229, "time_elapsed": 1128922, "internal_node_id": "0.0-172.0-3.0"}}, {"uniqueid": "MTK1198:3AUQQEL7U60K95MSCVNTHOAVW100V7", "current_trial": 230, "dateTime": 1513458899464, "trialdata": {"rt": -1, "stimulus": "<p id=\"stim\">6</p>", "key_press": -1, "trial_type": "single-stim", "trial_index": 230, "time_elapsed": 1129926, "internal_node_id": "0.0-172.0-4.0"}}, {"uniqueid": "MTK1198:3AUQQEL7U60K95MSCVNTHOAVW100V7", "current_trial": 231, "dateTime": 1513458900467, "trialdata": {"rt": -1, "stimulus": "<p id=\"stim\">5</p>", "key_press": -1, "trial_type": "single-stim", "trial_index": 231, "time_elapsed": 1130928, "internal_node_id": "0.0-172.0-5.0"}}, {"uniqueid": "MTK1198:3AUQQEL7U60K95MSCVNTHOAVW100V7", "current_trial": 232, "dateTime": 1513458901470, "trialdata": {"rt": -1, "stimulus": "<p id=\"stim\">4</p>", "key_press": -1, "trial_type": "single-stim", "trial_index": 232, "time_elapsed": 1131932, "internal_node_id": "0.0-172.0-6.0"}}, {"uniqueid": "MTK1198:3AUQQEL7U60K95MSCVNTHOAVW100V7", "current_trial": 233, "dateTime": 1513458902474, "trialdata": {"rt": -1, "stimulus": "<p id=\"stim\">3</p>", "key_press": -1, "trial_type": "single-stim", "trial_index": 233, "time_elapsed": 1132936, "internal_node_id": "0.0-172.0-7.0"}}, {"uniqueid": "MTK1198:3AUQQEL7U60K95MSCVNTHOAVW100V7", "current_trial": 234, "dateTime": 1513458903477, "trialdata": {"rt": -1, "stimulus": "<p id=\"stim\">2</p>", "key_press": -1, "trial_type": "single-stim", "trial_index": 234, "time_elapsed": 1133939, "internal_node_id": "0.0-172.0-8.0"}}, {"uniqueid": "MTK1198:3AUQQEL7U60K95MSCVNTHOAVW100V7", "current_trial": 235, "dateTime": 1513458904482, "trialdata": {"rt": -1, "stimulus": "<p id=\"stim\">1</p>", "key_press": -1, "trial_type": "single-stim", "trial_index": 235, "time_elapsed": 1134944, "internal_node_id": "0.0-172.0-9.0"}}, {"uniqueid": "MTK1198:3AUQQEL7U60K95MSCVNTHOAVW100V7", "current_trial": 236, "dateTime": 1513458905985, "trialdata": {"rt": -1, "stimulus": "<p id=\"stim\">+</p>", "key_press": -1, "type": "FIXATION", "trial_type": "single-stim", "trial_index": 236, "time_elapsed": 1136447, "internal_node_id": "0.0-173.0-0.0"}}, {"uniqueid": "MTK1198:3AUQQEL7U60K95MSCVNTHOAVW100V7", "current_trial": 237, "dateTime": 1513458908403, "trialdata": {"rt": -1000, "stimulus": "/static/audio/wordpool/AIRPORT.wav", "key_press": -1, "type": "PRES_AUD", "word": "airport", "wordID": 12, "conditions": [12, 1600, "a", 12000], "trial": 6, "serialpos": 0, "trial_type": "single-audio", "trial_index": 237, "time_elapsed": 1138865, "internal_node_id": "0.0-174.0"}}, {"uniqueid": "MTK1198:3AUQQEL7U60K95MSCVNTHOAVW100V7", "current_trial": 238, "dateTime": 1513458910899, "trialdata": {"rt": -1000, "stimulus": "/static/audio/wordpool/SALAD.wav", "key_press": -1, "type": "PRES_AUD", "word": "salad", "wordID": 1223, "conditions": [12, 1600, "a", 12000], "trial": 6, "serialpos": 1, "trial_type": "single-audio", "trial_index": 238, "time_elapsed": 1141361, "internal_node_id": "0.0-175.0"}}, {"uniqueid": "MTK1198:3AUQQEL7U60K95MSCVNTHOAVW100V7", "current_trial": 239, "dateTime": 1513458913511, "trialdata": {"rt": -1000, "stimulus": "/static/audio/wordpool/FOX.wav", "key_press": -1, "type": "PRES_AUD", "word": "fox", "wordID": 597, "conditions": [12, 1600, "a", 12000], "trial": 6, "serialpos": 2, "trial_type": "single-audio", "trial_index": 239, "time_elapsed": 1143973, "internal_node_id": "0.0-176.0"}}, {"uniqueid": "MTK1198:3AUQQEL7U60K95MSCVNTHOAVW100V7", "current_trial": 240, "dateTime": 1513458916216, "trialdata": {"rt": -1000, "stimulus": "/static/audio/wordpool/CRIB.wav", "key_press": -1, "type": "PRES_AUD", "word": "crib", "wordID": 406, "conditions": [12, 1600, "a", 12000], "trial": 6, "serialpos": 3, "trial_type": "single-audio", "trial_index": 240, "time_elapsed": 1146678, "internal_node_id": "0.0-177.0"}}, {"uniqueid": "MTK1198:3AUQQEL7U60K95MSCVNTHOAVW100V7", "current_trial": 241, "dateTime": 1513458918956, "trialdata": {"rt": -1000, "stimulus": "/static/audio/wordpool/MATTRESS.wav", "key_press": -1, "type": "PRES_AUD", "word": "mattress", "wordID": 878, "conditions": [12, 1600, "a", 12000], "trial": 6, "serialpos": 4, "trial_type": "single-audio", "trial_index": 241, "time_elapsed": 1149418, "internal_node_id": "0.0-178.0"}}, {"uniqueid": "MTK1198:3AUQQEL7U60K95MSCVNTHOAVW100V7", "current_trial": 242, "dateTime": 1513458921435, "trialdata": {"rt": -1000, "stimulus": "/static/audio/wordpool/POPCORN.wav", "key_press": -1, "type": "PRES_AUD", "word": "popcorn", "wordID": 1103, "conditions": [12, 1600, "a", 12000], "trial": 6, "serialpos": 5, "trial_type": "single-audio", "trial_index": 242, "time_elapsed": 1151897, "internal_node_id": "0.0-179.0"}}, {"uniqueid": "MTK1198:3AUQQEL7U60K95MSCVNTHOAVW100V7", "current_trial": 243, "dateTime": 1513458923937, "trialdata": {"rt": -1000, "stimulus": "/static/audio/wordpool/CLOTHES.wav", "key_press": -1, "type": "PRES_AUD", "word": "clothes", "wordID": 326, "conditions": [12, 1600, "a", 12000], "trial": 6, "serialpos": 6, "trial_type": "single-audio", "trial_index": 243, "time_elapsed": 1154399, "internal_node_id": "0.0-180.0"}}, {"uniqueid": "MTK1198:3AUQQEL7U60K95MSCVNTHOAVW100V7", "current_trial": 244, "dateTime": 1513458926439, "trialdata": {"rt": -1000, "stimulus": "/static/audio/wordpool/DIVER.wav", "key_press": -1, "type": "PRES_AUD", "word": "diver", "wordID": 475, "conditions": [12, 1600, "a", 12000], "trial": 6, "serialpos": 7, "trial_type": "single-audio", "trial_index": 244, "time_elapsed": 1156901, "internal_node_id": "0.0-181.0"}}, {"uniqueid": "MTK1198:3AUQQEL7U60K95MSCVNTHOAVW100V7", "current_trial": 245, "dateTime": 1513458929040, "trialdata": {"rt": -1000, "stimulus": "/static/audio/wordpool/CREVICE.wav", "key_press": -1, "type": "PRES_AUD", "word": "crevice", "wordID": 404, "conditions": [12, 1600, "a", 12000], "trial": 6, "serialpos": 8, "trial_type": "single-audio", "trial_index": 245, "time_elapsed": 1159501, "internal_node_id": "0.0-182.0"}}, {"uniqueid": "MTK1198:3AUQQEL7U60K95MSCVNTHOAVW100V7", "current_trial": 246, "dateTime": 1513458931498, "trialdata": {"rt": -1000, "stimulus": "/static/audio/wordpool/CLAMP.wav", "key_press": -1, "type": "PRES_AUD", "word": "clamp", "wordID": 315, "conditions": [12, 1600, "a", 12000], "trial": 6, "serialpos": 9, "trial_type": "single-audio", "trial_index": 246, "time_elapsed": 1161959, "internal_node_id": "0.0-183.0"}}, {"uniqueid": "MTK1198:3AUQQEL7U60K95MSCVNTHOAVW100V7", "current_trial": 247, "dateTime": 1513458934090, "trialdata": {"rt": -1000, "stimulus": "/static/audio/wordpool/NIGHTGOWN.wav", "key_press": -1, "type": "PRES_AUD", "word": "nightgown", "wordID": 952, "conditions": [12, 1600, "a", 12000], "trial": 6, "serialpos": 10, "trial_type": "single-audio", "trial_index": 247, "time_elapsed": 1164551, "internal_node_id": "0.0-184.0"}}, {"uniqueid": "MTK1198:3AUQQEL7U60K95MSCVNTHOAVW100V7", "current_trial": 248, "dateTime": 1513458936626, "trialdata": {"rt": -1000, "stimulus": "/static/audio/wordpool/BASEMENT.wav", "key_press": -1, "type": "PRES_AUD", "word": "basement", "wordID": 93, "conditions": [12, 1600, "a", 12000], "trial": 6, "serialpos": 11, "trial_type": "single-audio", "trial_index": 248, "time_elapsed": 1167088, "internal_node_id": "0.0-185.0"}}, {"uniqueid": "MTK1198:3AUQQEL7U60K95MSCVNTHOAVW100V7", "current_trial": 249, "dateTime": 1513458938025, "trialdata": {"rt": -1, "stimulus": "", "key_press": -1, "type": "PRE_RECALL_DELAY", "trial_type": "single-stim", "trial_index": 249, "time_elapsed": 1168487, "internal_node_id": "0.0-186.0-0.0"}}, {"uniqueid": "MTK1198:3AUQQEL7U60K95MSCVNTHOAVW100V7", "current_trial": 250, "dateTime": 1513458938529, "trialdata": {"rt": -1000, "stimulus": "/static/audio/400Hz.wav", "key_press": -1, "type": "PRE_RECALL_ALERT", "trial_type": "single-audio", "trial_index": 250, "time_elapsed": 1168991, "internal_node_id": "0.0-187.0"}}, {"uniqueid": "MTK1198:3AUQQEL7U60K95MSCVNTHOAVW100V7", "current_trial": 251, "dateTime": 1513458998539, "trialdata": {"rt": [4482, 7338, 9770, 13658, 18441, 19850, 21994, 23745, 27729, 29825], "recwords": ["nightgown", "airport", "basement", "popcorn", "diver", "salad", "fox", "crib", "mattress", "crevice"], "type": "FREE_RECALL", "conditions": [12, 1600, "a", 12000], "trial": 6, "trial_type": "free-recall", "trial_index": 251, "time_elapsed": 1228996, "internal_node_id": "0.0-188.0-0.0"}}, {"uniqueid": "MTK1198:3AUQQEL7U60K95MSCVNTHOAVW100V7", "current_trial": 252, "dateTime": 1513459021006, "trialdata": {"rt": 20461, "key_press": 32, "type": "INSTRUCTIONS", "trial_type": "text", "trial_index": 252, "time_elapsed": 1251467, "internal_node_id": "0.0-189.0"}}, {"uniqueid": "MTK1198:3AUQQEL7U60K95MSCVNTHOAVW100V7", "current_trial": 253, "dateTime": 1513459035014, "trialdata": {"rt": [3255, 5686, 9015, 11231], "responses": ["16", "12", "14", "9"], "num1": [3, 5, 6, 2, 2], "num2": [8, 6, 1, 2, 7], "num3": [5, 1, 7, 5, 6], "type": "DISTRACTOR", "conditions": [12, 800, "a", 12000], "trial": 7, "trial_type": "math-distractor", "trial_index": 253, "time_elapsed": 1265476, "internal_node_id": "0.0-190.0"}}, {"uniqueid": "MTK1198:3AUQQEL7U60K95MSCVNTHOAVW100V7", "current_trial": 254, "dateTime": 1513459038020, "trialdata": {"rt": -1, "stimulus": "<p id=\"stim\">10</p>", "key_press": -1, "trial_type": "single-stim", "trial_index": 254, "time_elapsed": 1268482, "internal_node_id": "0.0-191.0-0.0"}}, {"uniqueid": "MTK1198:3AUQQEL7U60K95MSCVNTHOAVW100V7", "current_trial": 255, "dateTime": 1513459039025, "trialdata": {"rt": -1, "stimulus": "<p id=\"stim\">9</p>", "key_press": -1, "trial_type": "single-stim", "trial_index": 255, "time_elapsed": 1269486, "internal_node_id": "0.0-191.0-1.0"}}, {"uniqueid": "MTK1198:3AUQQEL7U60K95MSCVNTHOAVW100V7", "current_trial": 256, "dateTime": 1513459040029, "trialdata": {"rt": -1, "stimulus": "<p id=\"stim\">8</p>", "key_press": -1, "trial_type": "single-stim", "trial_index": 256, "time_elapsed": 1270491, "internal_node_id": "0.0-191.0-2.0"}}, {"uniqueid": "MTK1198:3AUQQEL7U60K95MSCVNTHOAVW100V7", "current_trial": 257, "dateTime": 1513459041033, "trialdata": {"rt": -1, "stimulus": "<p id=\"stim\">7</p>", "key_press": -1, "trial_type": "single-stim", "trial_index": 257, "time_elapsed": 1271495, "internal_node_id": "0.0-191.0-3.0"}}, {"uniqueid": "MTK1198:3AUQQEL7U60K95MSCVNTHOAVW100V7", "current_trial": 258, "dateTime": 1513459042037, "trialdata": {"rt": -1, "stimulus": "<p id=\"stim\">6</p>", "key_press": -1, "trial_type": "single-stim", "trial_index": 258, "time_elapsed": 1272499, "internal_node_id": "0.0-191.0-4.0"}}, {"uniqueid": "MTK1198:3AUQQEL7U60K95MSCVNTHOAVW100V7", "current_trial": 259, "dateTime": 1513459043042, "trialdata": {"rt": -1, "stimulus": "<p id=\"stim\">5</p>", "key_press": -1, "trial_type": "single-stim", "trial_index": 259, "time_elapsed": 1273503, "internal_node_id": "0.0-191.0-5.0"}}, {"uniqueid": "MTK1198:3AUQQEL7U60K95MSCVNTHOAVW100V7", "current_trial": 260, "dateTime": 1513459044046, "trialdata": {"rt": -1, "stimulus": "<p id=\"stim\">4</p>", "key_press": -1, "trial_type": "single-stim", "trial_index": 260, "time_elapsed": 1274508, "internal_node_id": "0.0-191.0-6.0"}}, {"uniqueid": "MTK1198:3AUQQEL7U60K95MSCVNTHOAVW100V7", "current_trial": 261, "dateTime": 1513459045050, "trialdata": {"rt": -1, "stimulus": "<p id=\"stim\">3</p>", "key_press": -1, "trial_type": "single-stim", "trial_index": 261, "time_elapsed": 1275512, "internal_node_id": "0.0-191.0-7.0"}}, {"uniqueid": "MTK1198:3AUQQEL7U60K95MSCVNTHOAVW100V7", "current_trial": 262, "dateTime": 1513459046055, "trialdata": {"rt": -1, "stimulus": "<p id=\"stim\">2</p>", "key_press": -1, "trial_type": "single-stim", "trial_index": 262, "time_elapsed": 1276516, "internal_node_id": "0.0-191.0-8.0"}}, {"uniqueid": "MTK1198:3AUQQEL7U60K95MSCVNTHOAVW100V7", "current_trial": 263, "dateTime": 1513459047059, "trialdata": {"rt": -1, "stimulus": "<p id=\"stim\">1</p>", "key_press": -1, "trial_type": "single-stim", "trial_index": 263, "time_elapsed": 1277521, "internal_node_id": "0.0-191.0-9.0"}}, {"uniqueid": "MTK1198:3AUQQEL7U60K95MSCVNTHOAVW100V7", "current_trial": 264, "dateTime": 1513459048562, "trialdata": {"rt": -1, "stimulus": "<p id=\"stim\">+</p>", "key_press": -1, "type": "FIXATION", "trial_type": "single-stim", "trial_index": 264, "time_elapsed": 1279024, "internal_node_id": "0.0-192.0-0.0"}}, {"uniqueid": "MTK1198:3AUQQEL7U60K95MSCVNTHOAVW100V7", "current_trial": 265, "dateTime": 1513459050538, "trialdata": {"rt": -1000, "stimulus": "/static/audio/wordpool/CATCHER.wav", "key_press": -1, "type": "PRES_AUD", "word": "catcher", "wordID": 257, "conditions": [12, 800, "a", 12000], "trial": 7, "serialpos": 0, "trial_type": "single-audio", "trial_index": 265, "time_elapsed": 1281000, "internal_node_id": "0.0-193.0"}}, {"uniqueid": "MTK1198:3AUQQEL7U60K95MSCVNTHOAVW100V7", "current_trial": 266, "dateTime": 1513459052318, "trialdata": {"rt": -1000, "stimulus": "/static/audio/wordpool/TUBA.wav", "key_press": -1, "type": "PRES_AUD", "word": "tuba", "wordID": 1514, "conditions": [12, 800, "a", 12000], "trial": 7, "serialpos": 1, "trial_type": "single-audio", "trial_index": 266, "time_elapsed": 1282779, "internal_node_id": "0.0-194.0"}}, {"uniqueid": "MTK1198:3AUQQEL7U60K95MSCVNTHOAVW100V7", "current_trial": 267, "dateTime": 1513459054146, "trialdata": {"rt": -1000, "stimulus": "/static/audio/wordpool/CURTAIN.wav", "key_press": -1, "type": "PRES_AUD", "word": "curtain", "wordID": 426, "conditions": [12, 800, "a", 12000], "trial": 7, "serialpos": 2, "trial_type": "single-audio", "trial_index": 267, "time_elapsed": 1284608, "internal_node_id": "0.0-195.0"}}, {"uniqueid": "MTK1198:3AUQQEL7U60K95MSCVNTHOAVW100V7", "current_trial": 268, "dateTime": 1513459055818, "trialdata": {"rt": -1000, "stimulus": "/static/audio/wordpool/STATUE.wav", "key_press": -1, "type": "PRES_AUD", "word": "statue", "wordID": 1373, "conditions": [12, 800, "a", 12000], "trial": 7, "serialpos": 3, "trial_type": "single-audio", "trial_index": 268, "time_elapsed": 1286280, "internal_node_id": "0.0-196.0"}}, {"uniqueid": "MTK1198:3AUQQEL7U60K95MSCVNTHOAVW100V7", "current_trial": 269, "dateTime": 1513459057664, "trialdata": {"rt": -1000, "stimulus": "/static/audio/wordpool/SCULPTURE.wav", "key_press": -1, "type": "PRES_AUD", "word": "sculpture", "wordID": 1257, "conditions": [12, 800, "a", 12000], "trial": 7, "serialpos": 4, "trial_type": "single-audio", "trial_index": 269, "time_elapsed": 1288126, "internal_node_id": "0.0-197.0"}}, {"uniqueid": "MTK1198:3AUQQEL7U60K95MSCVNTHOAVW100V7", "current_trial": 270, "dateTime": 1513459059492, "trialdata": {"rt": -1000, "stimulus": "/static/audio/wordpool/BLOCKADE.wav", "key_press": -1, "type": "PRES_AUD", "word": "blockade", "wordID": 136, "conditions": [12, 800, "a", 12000], "trial": 7, "serialpos": 5, "trial_type": "single-audio", "trial_index": 270, "time_elapsed": 1289954, "internal_node_id": "0.0-198.0"}}, {"uniqueid": "MTK1198:3AUQQEL7U60K95MSCVNTHOAVW100V7", "current_trial": 271, "dateTime": 1513459061106, "trialdata": {"rt": -1000, "stimulus": "/static/audio/wordpool/CAMEL.wav", "key_press": -1, "type": "PRES_AUD", "word": "camel", "wordID": 222, "conditions": [12, 800, "a", 12000], "trial": 7, "serialpos": 6, "trial_type": "single-audio", "trial_index": 271, "time_elapsed": 1291568, "internal_node_id": "0.0-199.0"}}, {"uniqueid": "MTK1198:3