{"condition": 0, "counterbalance": 2990, "assignmentId": "3QIYRE09Y4O78PY16N52LCZSFLO1N4", "workerId": "MTK1180", "hitId": "36MUZ9VAE69VJU363FHC77A8BCIDER", "currenttrial": 627, "bonus": 0, "data": [{"uniqueid": "MTK1180:3QIYRE09Y4O78PY16N52LCZSFLO1N4", "current_trial": 0, "dateTime": 1513269588010, "trialdata": {"rt": 3600, "key_press": 20, "type": "INSTRUCTIONS", "trial_type": "text", "trial_index": 0, "time_elapsed": 3607, "internal_node_id": "0.0-0.0"}}, {"uniqueid": "MTK1180:3QIYRE09Y4O78PY16N52LCZSFLO1N4", "current_trial": 1, "dateTime": 1513269588038, "trialdata": {"rt": 22, "key_press": 71, "type": "INSTRUCTIONS", "trial_type": "text", "trial_index": 1, "time_elapsed": 3637, "internal_node_id": "0.0-1.0"}}, {"uniqueid": "MTK1180:3QIYRE09Y4O78PY16N52LCZSFLO1N4", "current_trial": 2, "dateTime": 1513269612002, "trialdata": {"rt": [23870], "responses": ["ocean"], "type": "AUDIO_TEST", "trial_type": "audio-test", "trial_index": 2, "time_elapsed": 27601, "internal_node_id": "0.0-2.0"}}, {"uniqueid": "MTK1180:3QIYRE09Y4O78PY16N52LCZSFLO1N4", "current_trial": 3, "dateTime": 1513269622644, "trialdata": {"rt": [10625], "responses": ["crystal"], "type": "AUDIO_TEST", "trial_type": "audio-test", "trial_index": 3, "time_elapsed": 38243, "internal_node_id": "0.0-3.0"}}, {"uniqueid": "MTK1180:3QIYRE09Y4O78PY16N52LCZSFLO1N4", "current_trial": 4, "dateTime": 1513269639244, "trialdata": {"rt": [16586], "responses": ["spice"], "type": "AUDIO_TEST", "trial_type": "audio-test", "trial_index": 4, "time_elapsed": 54843, "internal_node_id": "0.0-4.0"}}, {"uniqueid": "MTK1180:3QIYRE09Y4O78PY16N52LCZSFLO1N4", "current_trial": 5, "dateTime": 1513269676992, "trialdata": {"rt": 36990, "responses": "{\"Q0\":\"10 pm\",\"Q1\":\"5 am\",\"Q2\":\"4\"}", "type": "SLEEP_SURVEY", "trial_type": "survey-text", "trial_index": 5, "time_elapsed": 92590, "internal_node_id": "0.0-5.0"}}, {"uniqueid": "MTK1180:3QIYRE09Y4O78PY16N52LCZSFLO1N4", "current_trial": 6, "dateTime": 1513269703213, "trialdata": {"rt": 25217, "key_press": 20, "type": "INSTRUCTIONS", "trial_type": "text", "trial_index": 6, "time_elapsed": 118811, "internal_node_id": "0.0-6.0"}}, {"uniqueid": "MTK1180:3QIYRE09Y4O78PY16N52LCZSFLO1N4", "current_trial": 7, "dateTime": 1513269719743, "trialdata": {"rt": 16027, "key_press": 20, "type": "INSTRUCTIONS", "trial_type": "text", "trial_index": 7, "time_elapsed": 135342, "internal_node_id": "0.0-7.0"}}, {"uniqueid": "MTK1180:3QIYRE09Y4O78PY16N52LCZSFLO1N4", "current_trial": 8, "dateTime": 1513269723619, "trialdata": {"rt": 3375, "key_press": 20, "type": "INSTRUCTIONS", "trial_type": "text", "trial_index": 8, "time_elapsed": 139218, "internal_node_id": "0.0-8.0"}}, {"uniqueid": "MTK1180:3QIYRE09Y4O78PY16N52LCZSFLO1N4", "current_trial": 9, "dateTime": 1513269742644, "trialdata": {"rt": [4771, 8894, 13882], "responses": ["3", "10", "18"], "num1": [1, 6, 4, 6], "num2": [1, 2, 7, 2], "num3": [1, 2, 7, 3], "type": "DISTRACTOR", "conditions": [18, 1200, "v", 18000], "trial": 0, "trial_type": "math-distractor", "trial_index": 9, "time_elapsed": 158243, "internal_node_id": "0.0-9.0"}}, {"uniqueid": "MTK1180:3QIYRE09Y4O78PY16N52LCZSFLO1N4", "current_trial": 10, "dateTime": 1513269745652, "trialdata": {"rt": -1, "stimulus": "<p id=\"stim\">10</p>", "key_press": -1, "trial_type": "single-stim", "trial_index": 10, "time_elapsed": 161251, "internal_node_id": "0.0-10.0-0.0"}}, {"uniqueid": "MTK1180:3QIYRE09Y4O78PY16N52LCZSFLO1N4", "current_trial": 11, "dateTime": 1513269746654, "trialdata": {"rt": -1, "stimulus": "<p id=\"stim\">9</p>", "key_press": -1, "trial_type": "single-stim", "trial_index": 11, "time_elapsed": 162253, "internal_node_id": "0.0-10.0-1.0"}}, {"uniqueid": "MTK1180:3QIYRE09Y4O78PY16N52LCZSFLO1N4", "current_trial": 12, "dateTime": 1513269747659, "trialdata": {"rt": -1, "stimulus": "<p id=\"stim\">8</p>", "key_press": -1, "trial_type": "single-stim", "trial_index": 12, "time_elapsed": 163257, "internal_node_id": "0.0-10.0-2.0"}}, {"uniqueid": "MTK1180:3QIYRE09Y4O78PY16N52LCZSFLO1N4", "current_trial": 13, "dateTime": 1513269748662, "trialdata": {"rt": -1, "stimulus": "<p id=\"stim\">7</p>", "key_press": -1, "trial_type": "single-stim", "trial_index": 13, "time_elapsed": 164260, "internal_node_id": "0.0-10.0-3.0"}}, {"uniqueid": "MTK1180:3QIYRE09Y4O78PY16N52LCZSFLO1N4", "current_trial": 14, "dateTime": 1513269749665, "trialdata": {"rt": -1, "stimulus": "<p id=\"stim\">6</p>", "key_press": -1, "trial_type": "single-stim", "trial_index": 14, "time_elapsed": 165264, "internal_node_id": "0.0-10.0-4.0"}}, {"uniqueid": "MTK1180:3QIYRE09Y4O78PY16N52LCZSFLO1N4", "current_trial": 15, "dateTime": 1513269750670, "trialdata": {"rt": -1, "stimulus": "<p id=\"stim\">5</p>", "key_press": -1, "trial_type": "single-stim", "trial_index": 15, "time_elapsed": 166269, "internal_node_id": "0.0-10.0-5.0"}}, {"uniqueid": "MTK1180:3QIYRE09Y4O78PY16N52LCZSFLO1N4", "current_trial": 16, "dateTime": 1513269751674, "trialdata": {"rt": -1, "stimulus": "<p id=\"stim\">4</p>", "key_press": -1, "trial_type": "single-stim", "trial_index": 16, "time_elapsed": 167272, "internal_node_id": "0.0-10.0-6.0"}}, {"uniqueid": "MTK1180:3QIYRE09Y4O78PY16N52LCZSFLO1N4", "current_trial": 17, "dateTime": 1513269752677, "trialdata": {"rt": -1, "stimulus": "<p id=\"stim\">3</p>", "key_press": -1, "trial_type": "single-stim", "trial_index": 17, "time_elapsed": 168276, "internal_node_id": "0.0-10.0-7.0"}}, {"uniqueid": "MTK1180:3QIYRE09Y4O78PY16N52LCZSFLO1N4", "current_trial": 18, "dateTime": 1513269753680, "trialdata": {"rt": -1, "stimulus": "<p id=\"stim\">2</p>", "key_press": -1, "trial_type": "single-stim", "trial_index": 18, "time_elapsed": 169278, "internal_node_id": "0.0-10.0-8.0"}}, {"uniqueid": "MTK1180:3QIYRE09Y4O78PY16N52LCZSFLO1N4", "current_trial": 19, "dateTime": 1513269754683, "trialdata": {"rt": -1, "stimulus": "<p id=\"stim\">1</p>", "key_press": -1, "trial_type": "single-stim", "trial_index": 19, "time_elapsed": 170282, "internal_node_id": "0.0-10.0-9.0"}}, {"uniqueid": "MTK1180:3QIYRE09Y4O78PY16N52LCZSFLO1N4", "current_trial": 20, "dateTime": 1513269756188, "trialdata": {"rt": -1, "stimulus": "<p id=\"stim\">+</p>", "key_press": -1, "type": "FIXATION", "trial_type": "single-stim", "trial_index": 20, "time_elapsed": 171787, "internal_node_id": "0.0-11.0-0.0"}}, {"uniqueid": "MTK1180:3QIYRE09Y4O78PY16N52LCZSFLO1N4", "current_trial": 21, "dateTime": 1513269757392, "trialdata": {"rt": -1, "stimulus": "<p id=\"stim\">LIGHTNING</p>", "key_press": -1, "type": "PRES_VIS", "word": "lightning", "wordID": 819, "conditions": [18, 1200, "v", 18000], "trial": 0, "serialpos": 0, "trial_type": "single-stim", "trial_index": 21, "time_elapsed": 172991, "internal_node_id": "0.0-12.0"}}, {"uniqueid": "MTK1180:3QIYRE09Y4O78PY16N52LCZSFLO1N4", "current_trial": 22, "dateTime": 1513269759718, "trialdata": {"rt": -1, "stimulus": "<p id=\"stim\">SAUSAGE</p>", "key_press": -1, "type": "PRES_VIS", "word": "sausage", "wordID": 1237, "conditions": [18, 1200, "v", 18000], "trial": 0, "serialpos": 1, "trial_type": "single-stim", "trial_index": 22, "time_elapsed": 175316, "internal_node_id": "0.0-13.0"}}, {"uniqueid": "MTK1180:3QIYRE09Y4O78PY16N52LCZSFLO1N4", "current_trial": 23, "dateTime": 1513269762015, "trialdata": {"rt": -1, "stimulus": "<p id=\"stim\">MARS</p>", "key_press": -1, "type": "PRES_VIS", "word": "mars", "wordID": 872, "conditions": [18, 1200, "v", 18000], "trial": 0, "serialpos": 2, "trial_type": "single-stim", "trial_index": 23, "time_elapsed": 177614, "internal_node_id": "0.0-14.0"}}, {"uniqueid": "MTK1180:3QIYRE09Y4O78PY16N52LCZSFLO1N4", "current_trial": 24, "dateTime": 1513269764200, "trialdata": {"rt": -1, "stimulus": "<p id=\"stim\">DRAGON</p>", "key_press": -1, "type": "PRES_VIS", "word": "dragon", "wordID": 491, "conditions": [18, 1200, "v", 18000], "trial": 0, "serialpos": 3, "trial_type": "single-stim", "trial_index": 24, "time_elapsed": 179798, "internal_node_id": "0.0-15.0"}}, {"uniqueid": "MTK1180:3QIYRE09Y4O78PY16N52LCZSFLO1N4", "current_trial": 25, "dateTime": 1513269766565, "trialdata": {"rt": -1, "stimulus": "<p id=\"stim\">DOUGHNUT</p>", "key_press": -1, "type": "PRES_VIS", "word": "doughnut", "wordID": 489, "conditions": [18, 1200, "v", 18000], "trial": 0, "serialpos": 4, "trial_type": "single-stim", "trial_index": 25, "time_elapsed": 182163, "internal_node_id": "0.0-16.0"}}, {"uniqueid": "MTK1180:3QIYRE09Y4O78PY16N52LCZSFLO1N4", "current_trial": 26, "dateTime": 1513269768755, "trialdata": {"rt": -1, "stimulus": "<p id=\"stim\">PREACHER</p>", "key_press": -1, "type": "PRES_VIS", "word": "preacher", "wordID": 1118, "conditions": [18, 1200, "v", 18000], "trial": 0, "serialpos": 5, "trial_type": "single-stim", "trial_index": 26, "time_elapsed": 184354, "internal_node_id": "0.0-17.0"}}, {"uniqueid": "MTK1180:3QIYRE09Y4O78PY16N52LCZSFLO1N4", "current_trial": 27, "dateTime": 1513269771114, "trialdata": {"rt": -1, "stimulus": "<p id=\"stim\">BUG</p>", "key_press": -1, "type": "PRES_VIS", "word": "bug", "wordID": 186, "conditions": [18, 1200, "v", 18000], "trial": 0, "serialpos": 6, "trial_type": "single-stim", "trial_index": 27, "time_elapsed": 186713, "internal_node_id": "0.0-18.0"}}, {"uniqueid": "MTK1180:3QIYRE09Y4O78PY16N52LCZSFLO1N4", "current_trial": 28, "dateTime": 1513269773130, "trialdata": {"rt": -1, "stimulus": "<p id=\"stim\">HATCHET</p>", "key_press": -1, "type": "PRES_VIS", "word": "hatchet", "wordID": 690, "conditions": [18, 1200, "v", 18000], "trial": 0, "serialpos": 7, "trial_type": "single-stim", "trial_index": 28, "time_elapsed": 188728, "internal_node_id": "0.0-19.0"}}, {"uniqueid": "MTK1180:3QIYRE09Y4O78PY16N52LCZSFLO1N4", "current_trial": 29, "dateTime": 1513269775468, "trialdata": {"rt": -1, "stimulus": "<p id=\"stim\">PIGEON</p>", "key_press": -1, "type": "PRES_VIS", "word": "pigeon", "wordID": 1064, "conditions": [18, 1200, "v", 18000], "trial": 0, "serialpos": 8, "trial_type": "single-stim", "trial_index": 29, "time_elapsed": 191067, "internal_node_id": "0.0-20.0"}}, {"uniqueid": "MTK1180:3QIYRE09Y4O78PY16N52LCZSFLO1N4", "current_trial": 30, "dateTime": 1513269777816, "trialdata": {"rt": -1, "stimulus": "<p id=\"stim\">CITRUS</p>", "key_press": -1, "type": "PRES_VIS", "word": "citrus", "wordID": 312, "conditions": [18, 1200, "v", 18000], "trial": 0, "serialpos": 9, "trial_type": "single-stim", "trial_index": 30, "time_elapsed": 193415, "internal_node_id": "0.0-21.0"}}, {"uniqueid": "MTK1180:3QIYRE09Y4O78PY16N52LCZSFLO1N4", "current_trial": 31, "dateTime": 1513269780067, "trialdata": {"rt": -1, "stimulus": "<p id=\"stim\">PLAZA</p>", "key_press": -1, "type": "PRES_VIS", "word": "plaza", "wordID": 1087, "conditions": [18, 1200, "v", 18000], "trial": 0, "serialpos": 10, "trial_type": "single-stim", "trial_index": 31, "time_elapsed": 195666, "internal_node_id": "0.0-22.0"}}, {"uniqueid": "MTK1180:3QIYRE09Y4O78PY16N52LCZSFLO1N4", "current_trial": 32, "dateTime": 1513269782175, "trialdata": {"rt": -1, "stimulus": "<p id=\"stim\">WRIST</p>", "key_press": -1, "type": "PRES_VIS", "word": "wrist", "wordID": 1625, "conditions": [18, 1200, "v", 18000], "trial": 0, "serialpos": 11, "trial_type": "single-stim", "trial_index": 32, "time_elapsed": 197774, "internal_node_id": "0.0-23.0"}}, {"uniqueid": "MTK1180:3QIYRE09Y4O78PY16N52LCZSFLO1N4", "current_trial": 33, "dateTime": 1513269784494, "trialdata": {"rt": -1, "stimulus": "<p id=\"stim\">LOVER</p>", "key_press": -1, "type": "PRES_VIS", "word": "lover", "wordID": 845, "conditions": [18, 1200, "v", 18000], "trial": 0, "serialpos": 12, "trial_type": "single-stim", "trial_index": 33, "time_elapsed": 200092, "internal_node_id": "0.0-24.0"}}, {"uniqueid": "MTK1180:3QIYRE09Y4O78PY16N52LCZSFLO1N4", "current_trial": 34, "dateTime": 1513269786558, "trialdata": {"rt": -1, "stimulus": "<p id=\"stim\">BRANCH</p>", "key_press": -1, "type": "PRES_VIS", "word": "branch", "wordID": 167, "conditions": [18, 1200, "v", 18000], "trial": 0, "serialpos": 13, "trial_type": "single-stim", "trial_index": 34, "time_elapsed": 202157, "internal_node_id": "0.0-25.0"}}, {"uniqueid": "MTK1180:3QIYRE09Y4O78PY16N52LCZSFLO1N4", "current_trial": 35, "dateTime": 1513269788649, "trialdata": {"rt": -1, "stimulus": "<p id=\"stim\">MAILMAN</p>", "key_press": -1, "type": "PRES_VIS", "word": "mailman", "wordID": 857, "conditions": [18, 1200, "v", 18000], "trial": 0, "serialpos": 14, "trial_type": "single-stim", "trial_index": 35, "time_elapsed": 204247, "internal_node_id": "0.0-26.0"}}, {"uniqueid": "MTK1180:3QIYRE09Y4O78PY16N52LCZSFLO1N4", "current_trial": 36, "dateTime": 1513269790850, "trialdata": {"rt": -1, "stimulus": "<p id=\"stim\">SANDWICH</p>", "key_press": -1, "type": "PRES_VIS", "word": "sandwich", "wordID": 1231, "conditions": [18, 1200, "v", 18000], "trial": 0, "serialpos": 15, "trial_type": "single-stim", "trial_index": 36, "time_elapsed": 206449, "internal_node_id": "0.0-27.0"}}, {"uniqueid": "MTK1180:3QIYRE09Y4O78PY16N52LCZSFLO1N4", "current_trial": 37, "dateTime": 1513269793161, "trialdata": {"rt": -1, "stimulus": "<p id=\"stim\">LAPEL</p>", "key_press": -1, "type": "PRES_VIS", "word": "lapel", "wordID": 799, "conditions": [18, 1200, "v", 18000], "trial": 0, "serialpos": 16, "trial_type": "single-stim", "trial_index": 37, "time_elapsed": 208759, "internal_node_id": "0.0-28.0"}}, {"uniqueid": "MTK1180:3QIYRE09Y4O78PY16N52LCZSFLO1N4", "current_trial": 38, "dateTime": 1513269795324, "trialdata": {"rt": -1, "stimulus": "<p id=\"stim\">CHEMIST</p>", "key_press": -1, "type": "PRES_VIS", "word": "chemist", "wordID": 291, "conditions": [18, 1200, "v", 18000], "trial": 0, "serialpos": 17, "trial_type": "single-stim", "trial_index": 38, "time_elapsed": 210923, "internal_node_id": "0.0-29.0"}}, {"uniqueid": "MTK1180:3QIYRE09Y4O78PY16N52LCZSFLO1N4", "current_trial": 39, "dateTime": 1513269797381, "trialdata": {"rt": -1, "stimulus": "", "key_press": -1, "type": "PRE_RECALL_DELAY", "trial_type": "single-stim", "trial_index": 39, "time_elapsed": 212980, "internal_node_id": "0.0-30.0-0.0"}}, {"uniqueid": "MTK1180:3QIYRE09Y4O78PY16N52LCZSFLO1N4", "current_trial": 40, "dateTime": 1513269797887, "trialdata": {"rt": -1000, "stimulus": "/static/audio/400Hz.wav", "key_press": -1, "type": "PRE_RECALL_ALERT", "trial_type": "single-audio", "trial_index": 40, "time_elapsed": 213486, "internal_node_id": "0.0-31.0"}}, {"uniqueid": "MTK1180:3QIYRE09Y4O78PY16N52LCZSFLO1N4", "current_trial": 41, "dateTime": 1513269857928, "trialdata": {"rt": [10155, 16381, 20503, 25001, 30866, 34909, 38290, 41491, 47126, 56867], "recwords": ["chemist", "mailman", "wrist", "pegion", "lepal", "hachet", "mars", "lover", "sandwich", "branch"], "type": "FREE_RECALL", "conditions": [18, 1200, "v", 18000], "trial": 0, "trial_type": "free-recall", "trial_index": 41, "time_elapsed": 273497, "internal_node_id": "0.0-32.0-0.0"}}, {"uniqueid": "MTK1180:3QIYRE09Y4O78PY16N52LCZSFLO1N4", "current_trial": 42, "dateTime": 1513269862550, "trialdata": {"rt": 2620, "key_press": 13, "type": "INSTRUCTIONS", "trial_type": "text", "trial_index": 42, "time_elapsed": 278149, "internal_node_id": "0.0-33.0"}}, {"uniqueid": "MTK1180:3QIYRE09Y4O78PY16N52LCZSFLO1N4", "current_trial": 43, "dateTime": 1513269882561, "trialdata": {"rt": [4926, 8928, 12992, 17057], "responses": ["14", "7", "13", "10"], "num1": [3, 1, 7, 2, 5], "num2": [8, 5, 5, 5, 1], "num3": [3, 1, 1, 3, 6], "type": "DISTRACTOR", "conditions": [18, 1200, "a", 18000], "trial": 1, "trial_type": "math-distractor", "trial_index": 43, "time_elapsed": 298160, "internal_node_id": "0.0-34.0"}}, {"uniqueid": "MTK1180:3QIYRE09Y4O78PY16N52LCZSFLO1N4", "current_trial": 44, "dateTime": 1513269885563, "trialdata": {"rt": -1, "stimulus": "<p id=\"stim\">10</p>", "key_press": -1, "trial_type": "single-stim", "trial_index": 44, "time_elapsed": 301162, "internal_node_id": "0.0-35.0-0.0"}}, {"uniqueid": "MTK1180:3QIYRE09Y4O78PY16N52LCZSFLO1N4", "current_trial": 45, "dateTime": 1513269886569, "trialdata": {"rt": -1, "stimulus": "<p id=\"stim\">9</p>", "key_press": -1, "trial_type": "single-stim", "trial_index": 45, "time_elapsed": 302168, "internal_node_id": "0.0-35.0-1.0"}}, {"uniqueid": "MTK1180:3QIYRE09Y4O78PY16N52LCZSFLO1N4", "current_trial": 46, "dateTime": 1513269887573, "trialdata": {"rt": -1, "stimulus": "<p id=\"stim\">8</p>", "key_press": -1, "trial_type": "single-stim", "trial_index": 46, "time_elapsed": 303172, "internal_node_id": "0.0-35.0-2.0"}}, {"uniqueid": "MTK1180:3QIYRE09Y4O78PY16N52LCZSFLO1N4", "current_trial": 47, "dateTime": 1513269888576, "trialdata": {"rt": -1, "stimulus": "<p id=\"stim\">7</p>", "key_press": -1, "trial_type": "single-stim", "trial_index": 47, "time_elapsed": 304175, "internal_node_id": "0.0-35.0-3.0"}}, {"uniqueid": "MTK1180:3QIYRE09Y4O78PY16N52LCZSFLO1N4", "current_trial": 48, "dateTime": 1513269889579, "trialdata": {"rt": -1, "stimulus": "<p id=\"stim\">6</p>", "key_press": -1, "trial_type": "single-stim", "trial_index": 48, "time_elapsed": 305177, "internal_node_id": "0.0-35.0-4.0"}}, {"uniqueid": "MTK1180:3QIYRE09Y4O78PY16N52LCZSFLO1N4", "current_trial": 49, "dateTime": 1513269890582, "trialdata": {"rt": -1, "stimulus": "<p id=\"stim\">5</p>", "key_press": -1, "trial_type": "single-stim", "trial_index": 49, "time_elapsed": 306181, "internal_node_id": "0.0-35.0-5.0"}}, {"uniqueid": "MTK1180:3QIYRE09Y4O78PY16N52LCZSFLO1N4", "current_trial": 50, "dateTime": 1513269891585, "trialdata": {"rt": -1, "stimulus": "<p id=\"stim\">4</p>", "key_press": -1, "trial_type": "single-stim", "trial_index": 50, "time_elapsed": 307184, "internal_node_id": "0.0-35.0-6.0"}}, {"uniqueid": "MTK1180:3QIYRE09Y4O78PY16N52LCZSFLO1N4", "current_trial": 51, "dateTime": 1513269892591, "trialdata": {"rt": -1, "stimulus": "<p id=\"stim\">3</p>", "key_press": -1, "trial_type": "single-stim", "trial_index": 51, "time_elapsed": 308188, "internal_node_id": "0.0-35.0-7.0"}}, {"uniqueid": "MTK1180:3QIYRE09Y4O78PY16N52LCZSFLO1N4", "current_trial": 52, "dateTime": 1513269893593, "trialdata": {"rt": -1, "stimulus": "<p id=\"stim\">2</p>", "key_press": -1, "trial_type": "single-stim", "trial_index": 52, "time_elapsed": 309192, "internal_node_id": "0.0-35.0-8.0"}}, {"uniqueid": "MTK1180:3QIYRE09Y4O78PY16N52LCZSFLO1N4", "current_trial": 53, "dateTime": 1513269894596, "trialdata": {"rt": -1, "stimulus": "<p id=\"stim\">1</p>", "key_press": -1, "trial_type": "single-stim", "trial_index": 53, "time_elapsed": 310194, "internal_node_id": "0.0-35.0-9.0"}}, {"uniqueid": "MTK1180:3QIYRE09Y4O78PY16N52LCZSFLO1N4", "current_trial": 54, "dateTime": 1513269896099, "trialdata": {"rt": -1, "stimulus": "<p id=\"stim\">+</p>", "key_press": -1, "type": "FIXATION", "trial_type": "single-stim", "trial_index": 54, "time_elapsed": 311698, "internal_node_id": "0.0-36.0-0.0"}}, {"uniqueid": "MTK1180:3QIYRE09Y4O78PY16N52LCZSFLO1N4", "current_trial": 55, "dateTime": 1513269898379, "trialdata": {"rt": -1000, "stimulus": "/static/audio/wordpool/LEOPARD.wav", "key_press": -1, "type": "PRES_AUD", "word": "leopard", "wordID": 811, "conditions": [18, 1200, "a", 18000], "trial": 1, "serialpos": 0, "trial_type": "single-audio", "trial_index": 55, "time_elapsed": 313978, "internal_node_id": "0.0-37.0"}}, {"uniqueid": "MTK1180:3QIYRE09Y4O78PY16N52LCZSFLO1N4", "current_trial": 56, "dateTime": 1513269900455, "trialdata": {"rt": -1000, "stimulus": "/static/audio/wordpool/FLASK.wav", "key_press": -1, "type": "PRES_AUD", "word": "flask", "wordID": 575, "conditions": [18, 1200, "a", 18000], "trial": 1, "serialpos": 1, "trial_type": "single-audio", "trial_index": 56, "time_elapsed": 316054, "internal_node_id": "0.0-38.0"}}, {"uniqueid": "MTK1180:3QIYRE09Y4O78PY16N52LCZSFLO1N4", "current_trial": 57, "dateTime": 1513269902458, "trialdata": {"rt": -1000, "stimulus": "/static/audio/wordpool/SILK.wav", "key_press": -1, "type": "PRES_AUD", "word": "silk", "wordID": 1306, "conditions": [18, 1200, "a", 18000], "trial": 1, "serialpos": 2, "trial_type": "single-audio", "trial_index": 57, "time_elapsed": 318057, "internal_node_id": "0.0-39.0"}}, {"uniqueid": "MTK1180:3QIYRE09Y4O78PY16N52LCZSFLO1N4", "current_trial": 58, "dateTime": 1513269904479, "trialdata": {"rt": -1000, "stimulus": "/static/audio/wordpool/CHEST.wav", "key_press": -1, "type": "PRES_AUD", "word": "chest", "wordID": 294, "conditions": [18, 1200, "a", 18000], "trial": 1, "serialpos": 3, "trial_type": "single-audio", "trial_index": 58, "time_elapsed": 320078, "internal_node_id": "0.0-40.0"}}, {"uniqueid": "MTK1180:3QIYRE09Y4O78PY16N52LCZSFLO1N4", "current_trial": 59, "dateTime": 1513269906841, "trialdata": {"rt": -1000, "stimulus": "/static/audio/wordpool/BLUEPRINT.wav", "key_press": -1, "type": "PRES_AUD", "word": "blueprint", "wordID": 141, "conditions": [18, 1200, "a", 18000], "trial": 1, "serialpos": 4, "trial_type": "single-audio", "trial_index": 59, "time_elapsed": 322440, "internal_node_id": "0.0-41.0"}}, {"uniqueid": "MTK1180:3QIYRE09Y4O78PY16N52LCZSFLO1N4", "current_trial": 60, "dateTime": 1513269908959, "trialdata": {"rt": -1000, "stimulus": "/static/audio/wordpool/QUEEN.wav", "key_press": -1, "type": "PRES_AUD", "word": "queen", "wordID": 1148, "conditions": [18, 1200, "a", 18000], "trial": 1, "serialpos": 5, "trial_type": "single-audio", "trial_index": 60, "time_elapsed": 324558, "internal_node_id": "0.0-42.0"}}, {"uniqueid": "MTK1180:3QIYRE09Y4O78PY16N52LCZSFLO1N4", "current_trial": 61, "dateTime": 1513269911317, "trialdata": {"rt": -1000, "stimulus": "/static/audio/wordpool/WORLD.wav", "key_press": -1, "type": "PRES_AUD", "word": "world", "wordID": 1621, "conditions": [18, 1200, "a", 18000], "trial": 1, "serialpos": 6, "trial_type": "single-audio", "trial_index": 61, "time_elapsed": 326915, "internal_node_id": "0.0-43.0"}}, {"uniqueid": "MTK1180:3QIYRE09Y4O78PY16N52LCZSFLO1N4", "current_trial": 62, "dateTime": 1513269913538, "trialdata": {"rt": -1000, "stimulus": "/static/audio/wordpool/SLOPE.wav", "key_press": -1, "type": "PRES_AUD", "word": "slope", "wordID": 1327, "conditions": [18, 1200, "a", 18000], "trial": 1, "serialpos": 7, "trial_type": "single-audio", "trial_index": 62, "time_elapsed": 329136, "internal_node_id": "0.0-44.0"}}, {"uniqueid": "MTK1180:3QIYRE09Y4O78PY16N52LCZSFLO1N4", "current_trial": 63, "dateTime": 1513269915779, "trialdata": {"rt": -1000, "stimulus": "/static/audio/wordpool/LODGE.wav", "key_press": -1, "type": "PRES_AUD", "word": "lodge", "wordID": 838, "conditions": [18, 1200, "a", 18000], "trial": 1, "serialpos": 8, "trial_type": "single-audio", "trial_index": 63, "time_elapsed": 331378, "internal_node_id": "0.0-45.0"}}, {"uniqueid": "MTK1180:3QIYRE09Y4O78PY16N52LCZSFLO1N4", "current_trial": 64, "dateTime": 1513269917790, "trialdata": {"rt": -1000, "stimulus": "/static/audio/wordpool/SCARECROW.wav", "key_press": -1, "type": "PRES_AUD", "word": "scarecrow", "wordID": 1244, "conditions": [18, 1200, "a", 18000], "trial": 1, "serialpos": 9, "trial_type": "single-audio", "trial_index": 64, "time_elapsed": 333388, "internal_node_id": "0.0-46.0"}}, {"uniqueid": "MTK1180:3QIYRE09Y4O78PY16N52LCZSFLO1N4", "current_trial": 65, "dateTime": 1513269919869, "trialdata": {"rt": -1000, "stimulus": "/static/audio/wordpool/PEACH.wav", "key_press": -1, "type": "PRES_AUD", "word": "peach", "wordID": 1030, "conditions": [18, 1200, "a", 18000], "trial": 1, "serialpos": 10, "trial_type": "single-audio", "trial_index": 65, "time_elapsed": 335468, "internal_node_id": "0.0-47.0"}}, {"uniqueid": "MTK1180:3QIYRE09Y4O78PY16N52LCZSFLO1N4", "current_trial": 66, "dateTime": 1513269922127, "trialdata": {"rt": -1000, "stimulus": "/static/audio/wordpool/GLOVE.wav", "key_press": -1, "type": "PRES_AUD", "word": "glove", "wordID": 641, "conditions": [18, 1200, "a", 18000], "trial": 1, "serialpos": 11, "trial_type": "single-audio", "trial_index": 66, "time_elapsed": 337725, "internal_node_id": "0.0-48.0"}}, {"uniqueid": "MTK1180:3QIYRE09Y4O78PY16N52LCZSFLO1N4", "current_trial": 67, "dateTime": 1513269924164, "trialdata": {"rt": -1000, "stimulus": "/static/audio/wordpool/BLOCKADE.wav", "key_press": -1, "type": "PRES_AUD", "word": "blockade", "wordID": 136, "conditions": [18, 1200, "a", 18000], "trial": 1, "serialpos": 12, "trial_type": "single-audio", "trial_index": 67, "time_elapsed": 339760, "internal_node_id": "0.0-49.0"}}, {"uniqueid": "MTK1180:3QIYRE09Y4O78PY16N52LCZSFLO1N4", "current_trial": 68, "dateTime": 1513269926239, "trialdata": {"rt": -1000, "stimulus": "/static/audio/wordpool/PARROT.wav", "key_press": -1, "type": "PRES_AUD", "word": "parrot", "wordID": 1014, "conditions": [18, 1200, "a", 18000], "trial": 1, "serialpos": 13, "trial_type": "single-audio", "trial_index": 68, "time_elapsed": 341838, "internal_node_id": "0.0-50.0"}}, {"uniqueid": "MTK1180:3QIYRE09Y4O78PY16N52LCZSFLO1N4", "current_trial": 69, "dateTime": 1513269928535, "trialdata": {"rt": -1000, "stimulus": "/static/audio/wordpool/COUCH.wav", "key_press": -1, "type": "PRES_AUD", "word": "couch", "wordID": 385, "conditions": [18, 1200, "a", 18000], "trial": 1, "serialpos": 14, "trial_type": "single-audio", "trial_index": 69, "time_elapsed": 344134, "internal_node_id": "0.0-51.0"}}, {"uniqueid": "MTK1180:3QIYRE09Y4O78PY16N52LCZSFLO1N4", "current_trial": 70, "dateTime": 1513269930702, "trialdata": {"rt": -1000, "stimulus": "/static/audio/wordpool/COUNTY.wav", "key_press": -1, "type": "PRES_AUD", "word": "county", "wordID": 388, "conditions": [18, 1200, "a", 18000], "trial": 1, "serialpos": 15, "trial_type": "single-audio", "trial_index": 70, "time_elapsed": 346300, "internal_node_id": "0.0-52.0"}}, {"uniqueid": "MTK1180:3QIYRE09Y4O78PY16N52LCZSFLO1N4", "current_trial": 71, "dateTime": 1513269932917, "trialdata": {"rt": -1000, "stimulus": "/static/audio/wordpool/LUGGAGE.wav", "key_press": -1, "type": "PRES_AUD", "word": "luggage", "wordID": 846, "conditions": [18, 1200, "a", 18000], "trial": 1, "serialpos": 16, "trial_type": "single-audio", "trial_index": 71, "time_elapsed": 348515, "internal_node_id": "0.0-53.0"}}, {"uniqueid": "MTK1180:3QIYRE09Y4O78PY16N52LCZSFLO1N4", "current_trial": 72, "dateTime": 1513269934952, "trialdata": {"rt": -1000, "stimulus": "/static/audio/wordpool/OYSTER.wav", "key_press": -1, "type": "PRES_AUD", "word": "oyster", "wordID": 994, "conditions": [18, 1200, "a", 18000], "trial": 1, "serialpos": 17, "trial_type": "single-audio", "trial_index": 72, "time_elapsed": 350550, "internal_node_id": "0.0-54.0"}}, {"uniqueid": "MTK1180:3QIYRE09Y4O78PY16N52LCZSFLO1N4", "current_trial": 73, "dateTime": 1513269936187, "trialdata": {"rt": -1, "stimulus": "", "key_press": -1, "type": "PRE_RECALL_DELAY", "trial_type": "single-stim", "trial_index": 73, "time_elapsed": 351786, "internal_node_id": "0.0-55.0-0.0"}}, {"uniqueid": "MTK1180:3QIYRE09Y4O78PY16N52LCZSFLO1N4", "current_trial": 74, "dateTime": 1513269936693, "trialdata": {"rt": -1000, "stimulus": "/static/audio/400Hz.wav", "key_press": -1, "type": "PRE_RECALL_ALERT", "trial_type": "single-audio", "trial_index": 74, "time_elapsed": 352291, "internal_node_id": "0.0-56.0"}}, {"uniqueid": "MTK1180:3QIYRE09Y4O78PY16N52LCZSFLO1N4", "current_trial": 75, "dateTime": 1513269996712, "trialdata": {"rt": [7046, 12686, 17074, 21506, 39131, 42876, 53997], "recwords": ["laguage", "silk", "glass", "parrot", "county", "lucky", "slug"], "type": "FREE_RECALL", "conditions": [18, 1200, "a", 18000], "trial": 1, "trial_type": "free-recall", "trial_index": 75, "time_elapsed": 412299, "internal_node_id": "0.0-57.0-0.0"}}, {"uniqueid": "MTK1180:3QIYRE09Y4O78PY16N52LCZSFLO1N4", "current_trial": 76, "dateTime": 1513270003459, "trialdata": {"rt": 4733, "key_press": 13, "type": "INSTRUCTIONS", "trial_type": "text", "trial_index": 76, "time_elapsed": 419049, "internal_node_id": "0.0-58.0"}}, {"uniqueid": "MTK1180:3QIYRE09Y4O78PY16N52LCZSFLO1N4", "current_trial": 77, "dateTime": 1513270016470, "trialdata": {"rt": [5494, 9398], "responses": ["17", "13"], "num1": [6, 8, 5], "num2": [9, 2, 7], "num3": [2, 3, 6], "type": "DISTRACTOR", "conditions": [12, 1600, "a", 12000], "trial": 2, "trial_type": "math-distractor", "trial_index": 77, "time_elapsed": 432069, "internal_node_id": "0.0-59.0"}}, {"uniqueid": "MTK1180:3QIYRE09Y4O78PY16N52LCZSFLO1N4", "current_trial": 78, "dateTime": 1513270019493, "trialdata": {"rt": -1, "stimulus": "<p id=\"stim\">10</p>", "key_press": -1, "trial_type": "single-stim", "trial_index": 78, "time_elapsed": 435076, "internal_node_id": "0.0-60.0-0.0"}}, {"uniqueid": "MTK1180:3QIYRE09Y4O78PY16N52LCZSFLO1N4", "current_trial": 79, "dateTime": 1513270020495, "trialdata": {"rt": -1, "stimulus": "<p id=\"stim\">9</p>", "key_press": -1, "trial_type": "single-stim", "trial_index": 79, "time_elapsed": 436094, "internal_node_id": "0.0-60.0-1.0"}}, {"uniqueid": "MTK1180:3QIYRE09Y4O78PY16N52LCZSFLO1N4", "current_trial": 80, "dateTime": 1513270021498, "trialdata": {"rt": -1, "stimulus": "<p id=\"stim\">8</p>", "key_press": -1, "trial_type": "single-stim", "trial_index": 80, "time_elapsed": 437097, "internal_node_id": "0.0-60.0-2.0"}}, {"uniqueid": "MTK1180:3QIYRE09Y4O78PY16N52LCZSFLO1N4", "current_trial": 81, "dateTime": 1513270022500, "trialdata": {"rt": -1, "stimulus": "<p id=\"stim\">7</p>", "key_press": -1, "trial_type": "single-stim", "trial_index": 81, "time_elapsed": 438099, "internal_node_id": "0.0-60.0-3.0"}}, {"uniqueid": "MTK1180:3QIYRE09Y4O78PY16N52LCZSFLO1N4", "current_trial": 82, "dateTime": 1513270023516, "trialdata": {"rt": -1, "stimulus": "<p id=\"stim\">6</p>", "key_press": -1, "trial_type": "single-stim", "trial_index": 82, "time_elapsed": 439105, "internal_node_id": "0.0-60.0-4.0"}}, {"uniqueid": "MTK1180:3QIYRE09Y4O78PY16N52LCZSFLO1N4", "current_trial": 83, "dateTime": 1513270024520, "trialdata": {"rt": -1, "stimulus": "<p id=\"stim\">5</p>", "key_press": -1, "trial_type": "single-stim", "trial_index": 83, "time_elapsed": 440119, "internal_node_id": "0.0-60.0-5.0"}}, {"uniqueid": "MTK1180:3QIYRE09Y4O78PY16N52LCZSFLO1N4", "current_trial": 84, "dateTime": 1513270025523, "trialdata": {"rt": -1, "stimulus": "<p id=\"stim\">4</p>", "key_press": -1, "trial_type": "single-stim", "trial_index": 84, "time_elapsed": 441122, "internal_node_id": "0.0-60.0-6.0"}}, {"uniqueid": "MTK1180:3QIYRE09Y4O78PY16N52LCZSFLO1N4", "current_trial": 85, "dateTime": 1513270026526, "trialdata": {"rt": -1, "stimulus": "<p id=\"stim\">3</p>", "key_press": -1, "trial_type": "single-stim", "trial_index": 85, "time_elapsed": 442125, "internal_node_id": "0.0-60.0-7.0"}}, {"uniqueid": "MTK1180:3QIYRE09Y4O78PY16N52LCZSFLO1N4", "current_trial": 86, "dateTime": 1513270027529, "trialdata": {"rt": -1, "stimulus": "<p id=\"stim\">2</p>", "key_press": -1, "trial_type": "single-stim", "trial_index": 86, "time_elapsed": 443128, "internal_node_id": "0.0-60.0-8.0"}}, {"uniqueid": "MTK1180:3QIYRE09Y4O78PY16N52LCZSFLO1N4", "current_trial": 87, "dateTime": 1513270028534, "trialdata": {"rt": -1, "stimulus": "<p id=\"stim\">1</p>", "key_press": -1, "trial_type": "single-stim", "trial_index": 87, "time_elapsed": 444133, "internal_node_id": "0.0-60.0-9.0"}}, {"uniqueid": "MTK1180:3QIYRE09Y4O78PY16N52LCZSFLO1N4", "current_trial": 88, "dateTime": 1513270030043, "trialdata": {"rt": -1, "stimulus": "<p id=\"stim\">+</p>", "key_press": -1, "type": "FIXATION", "trial_type": "single-stim", "trial_index": 88, "time_elapsed": 445641, "internal_node_id": "0.0-61.0-0.0"}}, {"uniqueid": "MTK1180:3QIYRE09Y4O78PY16N52LCZSFLO1N4", "current_trial": 89, "dateTime": 1513270032745, "trialdata": {"rt": -1000, "stimulus": "/static/audio/wordpool/FOOT.wav", "key_press": -1, "type": "PRES_AUD", "word": "foot", "wordID": 589, "conditions": [12, 1600, "a", 12000], "trial": 2, "serialpos": 0, "trial_type": "single-audio", "trial_index": 89, "time_elapsed": 448344, "internal_node_id": "0.0-62.0"}}, {"uniqueid": "MTK1180:3QIYRE09Y4O78PY16N52LCZSFLO1N4", "current_trial": 90, "dateTime": 1513270035327, "trialdata": {"rt": -1000, "stimulus": "/static/audio/wordpool/DANCER.wav", "key_press": -1, "type": "PRES_AUD", "word": "dancer", "wordID": 436, "conditions": [12, 1600, "a", 12000], "trial": 2, "serialpos": 1, "trial_type": "single-audio", "trial_index": 90, "time_elapsed": 450925, "internal_node_id": "0.0-63.0"}}, {"uniqueid": "MTK1180:3QIYRE09Y4O78PY16N52LCZSFLO1N4", "current_trial": 91, "dateTime": 1513270038080, "trialdata": {"rt": -1000, "stimulus": "/static/audio/wordpool/TART.wav", "key_press": -1, "type": "PRES_AUD", "word": "tart", "wordID": 1435, "conditions": [12, 1600, "a", 12000], "trial": 2, "serialpos": 2, "trial_type": "single-audio", "trial_index": 91, "time_elapsed": 453674, "internal_node_id": "0.0-64.0"}}, {"uniqueid": "MTK1180:3QIYRE09Y4O78PY16N52LCZSFLO1N4", "current_trial": 92, "dateTime": 1513270040619, "trialdata": {"rt": -1000, "stimulus": "/static/audio/wordpool/SMOG.wav", "key_press": -1, "type": "PRES_AUD", "word": "smog", "wordID": 1329, "conditions": [12, 1600, "a", 12000], "trial": 2, "serialpos": 3, "trial_type": "single-audio", "trial_index": 92, "time_elapsed": 456217, "internal_node_id": "0.0-65.0"}}, {"uniqueid": "MTK1180:3QIYRE09Y4O78PY16N52LCZSFLO1N4", "current_trial": 93, "dateTime": 1513270043080, "trialdata": {"rt": -1000, "stimulus": "/static/audio/wordpool/PARTNER.wav", "key_press": -1, "type": "PRES_AUD", "word": "partner", "wordID": 1016, "conditions": [12, 1600, "a", 12000], "trial": 2, "serialpos": 4, "trial_type": "single-audio", "trial_index": 93, "time_elapsed": 458679, "internal_node_id": "0.0-66.0"}}, {"uniqueid": "MTK1180:3QIYRE09Y4O78PY16N52LCZSFLO1N4", "current_trial": 94, "dateTime": 1513270045748, "trialdata": {"rt": -1000, "stimulus": "/static/audio/wordpool/FOREST.wav", "key_press": -1, "type": "PRES_AUD", "word": "forest", "wordID": 592, "conditions": [12, 1600, "a", 12000], "trial": 2, "serialpos": 5, "trial_type": "single-audio", "trial_index": 94, "time_elapsed": 461347, "internal_node_id": "0.0-67.0"}}, {"uniqueid": "MTK1180:3QIYRE09Y4O78PY16N52LCZSFLO1N4", "current_trial": 95, "dateTime": 1513270048177, "trialdata": {"rt": -1000, "stimulus": "/static/audio/wordpool/JUDGE.wav", "key_press": -1, "type": "PRES_AUD", "word": "judge", "wordID": 760, "conditions": [12, 1600, "a", 12000], "trial": 2, "serialpos": 6, "trial_type": "single-audio", "trial_index": 95, "time_elapsed": 463775, "internal_node_id": "0.0-68.0"}}, {"uniqueid": "MTK1180:3QIYRE09Y4O78PY16N52LCZSFLO1N4", "current_trial": 96, "dateTime": 1513270050749, "trialdata": {"rt": -1000, "stimulus": "/static/audio/wordpool/JURY.wav", "key_press": -1, "type": "PRES_AUD", "word": "jury", "wordID": 765, "conditions": [12, 1600, "a", 12000], "trial": 2, "serialpos": 7, "trial_type": "single-audio", "trial_index": 96, "time_elapsed": 466347, "internal_node_id": "0.0-69.0"}}, {"uniqueid": "MTK1180:3QIYRE09Y4O78PY16N52LCZSFLO1N4", "current_trial": 97, "dateTime": 1513270053469, "trialdata": {"rt": -1000, "stimulus": "/static/audio/wordpool/DONOR.wav", "key_press": -1, "type": "PRES_AUD", "word": "donor", "wordID": 484, "conditions": [12, 1600, "a", 12000], "trial": 2, "serialpos": 8, "trial_type": "single-audio", "trial_index": 97, "time_elapsed": 469068, "internal_node_id": "0.0-70.0"}}, {"uniqueid": "MTK1180:3QIYRE09Y4O78PY16N52LCZSFLO1N4", "current_trial": 98, "dateTime": 1513270056068, "trialdata": {"rt": -1000, "stimulus": "/static/audio/wordpool/CRIB.wav", "key_press": -1, "type": "PRES_AUD", "word": "crib", "wordID": 406, "conditions": [12, 1600, "a", 12000], "trial": 2, "serialpos": 9, "trial_type": "single-audio", "trial_index": 98, "time_elapsed": 471667, "internal_node_id": "0.0-71.0"}}, {"uniqueid": "MTK1180:3QIYRE09Y4O78PY16N52LCZSFLO1N4", "current_trial": 99, "dateTime": 1513270058797, "trialdata": {"rt": -1000, "stimulus": "/static/audio/wordpool/COCOON.wav", "key_press": -1, "type": "PRES_AUD", "word": "cocoon", "wordID": 338, "conditions": [12, 1600, "a", 12000], "trial": 2, "serialpos": 10, "trial_type": "single-audio", "trial_index": 99, "time_elapsed": 474395, "internal_node_id": "0.0-72.0"}}, {"uniqueid": "MTK1180:3QIYRE09Y4O78PY16N52LCZSFLO1N4", "current_trial": 100, "dateTime": 1513270061371, "trialdata": {"rt": -1000, "stimulus": "/static/audio/wordpool/GYMNAST.wav", "key_press": -1, "type": "PRES_AUD", "word": "gymnast", "wordID": 674, "conditions": [12, 1600, "a", 12000], "trial": 2, "serialpos": 11, "trial_type": "single-audio", "trial_index": 100, "time_elapsed": 476969, "internal_node_id": "0.0-73.0"}}, {"uniqueid": "MTK1180:3QIYRE09Y4O78PY16N52LCZSFLO1N4", "current_trial": 101, "dateTime": 1513270062729, "trialdata": {"rt": -1, "stimulus": "", "key_press": -1, "type": "PRE_RECALL_DELAY", "trial_type": "single-stim", "trial_index": 101, "time_elapsed": 478324, "internal_node_id": "0.0-74.0-0.0"}}, {"uniqueid": "MTK1180:3QIYRE09Y4O78PY16N52LCZSFLO1N4", "current_trial": 102, "dateTime": 1513270063232, "trialdata": {"rt": -1000, "stimulus": "/static/audio/400Hz.wav", "key_press": -1, "type": "PRE_RECALL_ALERT", "trial_type": "single-audio", "trial_index": 102, "time_elapsed": 478831, "internal_node_id": "0.0-75.0"}}, {"uniqueid": "MTK1180:3QIYRE09Y4O78PY16N52LCZSFLO1N4", "current_trial": 103, "dateTime": 1513270123248, "trialdata": {"rt": [5815, 18390, 27449, 29911, 33270], "recwords": ["gymnist", "cukcun", "dancer", "smug", "doner"], "type": "FREE_RECALL", "conditions": [12, 1600, "a", 12000], "trial": 2, "trial_type": "free-recall", "trial_index": 103, "time_elapsed": 538841, "internal_node_id": "0.0-76.0-0.0"}}, {"uniqueid": "MTK1180:3QIYRE09Y4O78PY16N52LCZSFLO1N4", "current_trial": 104, "dateTime": 1513270126991, "trialdata": {"rt": 1739, "key_press": 13, "type": "INSTRUCTIONS", "trial_type": "text", "trial_index": 104, "time_elapsed": 542590, "internal_node_id": "0.0-77.0"}}, {"uniqueid": "MTK1180:3QIYRE09Y4O78PY16N52LCZSFLO1N4", "current_trial": 105, "dateTime": 1513270140998, "trialdata": {"rt": [4264, 7937, 10628], "responses": ["18", "8", "9"], "num1": [8, 2, 1, 1], "num2": [1, 4, 4, 7], "num3": [9, 2, 4, 8], "type": "DISTRACTOR", "conditions": [12, 1600, "v", 12000], "trial": 3, "trial_type": "math-distractor", "trial_index": 105, "time_elapsed": 556597, "internal_node_id": "0.0-78.0"}}, {"uniqueid": "MTK1180:3QIYRE09Y4O78PY16N52LCZSFLO1N4", "current_trial": 106, "dateTime": 1513270144001, "trialdata": {"rt": 209, "stimulus": "<p id=\"stim\">10</p>", "key_press": 13, "trial_type": "single-stim", "trial_index": 106, "time_elapsed": 559600, "internal_node_id": "0.0-79.0-0.0"}}, {"uniqueid": "MTK1180:3QIYRE09Y4O78PY16N52LCZSFLO1N4", "current_trial": 107, "dateTime": 1513270145005, "trialdata": {"rt": -1, "stimulus": "<p id=\"stim\">9</p>", "key_press": -1, "trial_type": "single-stim", "trial_index": 107, "time_elapsed": 560604, "internal_node_id": "0.0-79.0-1.0"}}, {"uniqueid": "MTK1180:3QIYRE09Y4O78PY16N52LCZSFLO1N4", "current_trial": 108, "dateTime": 1513270146010, "trialdata": {"rt": -1, "stimulus": "<p id=\"stim\">8</p>", "key_press": -1, "trial_type": "single-stim", "trial_index": 108, "time_elapsed": 561608, "internal_node_id": "0.0-79.0-2.0"}}, {"uniqueid": "MTK1180:3QIYRE09Y4O78PY16N52LCZSFLO1N4", "current_trial": 109, "dateTime": 1513270147015, "trialdata": {"rt": -1, "stimulus": "<p id=\"stim\">7</p>", "key_press": -1, "trial_type": "single-stim", "trial_index": 109, "time_elapsed": 562612, "internal_node_id": "0.0-79.0-3.0"}}, {"uniqueid": "MTK1180:3QIYRE09Y4O78PY16N52LCZSFLO1N4", "current_trial": 110, "dateTime": 1513270148019, "trialdata": {"rt": -1, "stimulus": "<p id=\"stim\">6</p>", "key_press": -1, "trial_type": "single-stim", "trial_index": 110, "time_elapsed": 563618, "internal_node_id": "0.0-79.0-4.0"}}, {"uniqueid": "MTK1180:3QIYRE09Y4O78PY16N52LCZSFLO1N4", "current_trial": 111, "dateTime": 1513270149023, "trialdata": {"rt": -1, "stimulus": "<p id=\"stim\">5</p>", "key_press": -1, "trial_type": "single-stim", "trial_index": 111, "time_elapsed": 564622, "internal_node_id": "0.0-79.0-5.0"}}, {"uniqueid": "MTK1180:3QIYRE09Y4O78PY16N52LCZSFLO1N4", "current_trial": 112, "dateTime": 1513270150027, "trialdata": {"rt": -1, "stimulus": "<p id=\"stim\">4</p>", "key_press": -1, "trial_type": "single-stim", "trial_index": 112, "time_elapsed": 565626, "internal_node_id": "0.0-79.0-6.0"}}, {"uniqueid": "MTK1180:3QIYRE09Y4O78PY16N52LCZSFLO1N4", "current_trial": 113, "dateTime": 1513270151032, "trialdata": {"rt": -1, "stimulus": "<p id=\"stim\">3</p>", "key_press": -1, "trial_type": "single-stim", "trial_index": 113, "time_elapsed": 566631, "internal_node_id": "0.0-79.0-7.0"}}, {"uniqueid": "MTK1180:3QIYRE09Y4O78PY16N52LCZSFLO1N4", "current_trial": 114, "dateTime": 1513270152035, "trialdata": {"rt": -1, "stimulus": "<p id=\"stim\">2</p>", "key_press": -1, "trial_type": "single-stim", "trial_index": 114, "time_elapsed": 567633, "internal_node_id": "0.0-79.0-8.0"}}, {"uniqueid": "MTK1180:3QIYRE09Y4O78PY16N52LCZSFLO1N4", "current_trial": 115, "dateTime": 1513270153046, "trialdata": {"rt": -1, "stimulus": "<p id=\"stim\">1</p>", "key_press": -1, "trial_type": "single-stim", "trial_index": 115, "time_elapsed": 568645, "internal_node_id": "0.0-79.0-9.0"}}, {"uniqueid": "MTK1180:3QIYRE09Y4O78PY16N52LCZSFLO1N4", "current_trial": 116, "dateTime": 1513270154551, "trialdata": {"rt": -1, "stimulus": "<p id=\"stim\">+</p>", "key_press": -1, "type": "FIXATION", "trial_type": "single-stim", "trial_index": 116, "time_elapsed": 570149, "internal_node_id": "0.0-80.0-0.0"}}, {"uniqueid": "MTK1180:3QIYRE09Y4O78PY16N52LCZSFLO1N4", "current_trial": 117, "dateTime": 1513270156154, "trialdata": {"rt": -1, "stimulus": "<p id=\"stim\">MATCH</p>", "key_press": -1, "type": "PRES_VIS", "word": "match", "wordID": 877, "conditions": [12, 1600, "v", 12000], "trial": 3, "serialpos": 0, "trial_type": "single-stim", "trial_index": 117, "time_elapsed": 571753, "internal_node_id": "0.0-81.0"}}, {"uniqueid": "MTK1180:3QIYRE09Y4O78PY16N52LCZSFLO1N4", "current_trial": 118, "dateTime": 1513270158876, "trialdata": {"rt": -1, "stimulus": "<p id=\"stim\">QUAIL</p>", "key_press": -1, "type": "PRES_VIS", "word": "quail", "wordID": 1146, "conditions": [12, 1600, "v", 12000], "trial": 3, "serialpos": 1, "trial_type": "single-stim", "trial_index": 118, "time_elapsed": 574474, "internal_node_id": "0.0-82.0"}}, {"uniqueid": "MTK1180:3QIYRE09Y4O78PY16N52LCZSFLO1N4", "current_trial": 119, "dateTime": 1513270161378, "trialdata": {"rt": -1, "stimulus": "<p id=\"stim\">TILE</p>", "key_press": -1, "type": "PRES_VIS", "word": "tile", "wordID": 1467, "conditions": [12, 1600, "v", 12000], "trial": 3, "serialpos": 2, "trial_type": "single-stim", "trial_index": 119, "time_elapsed": 576977, "internal_node_id": "0.0-83.0"}}, {"uniqueid": "MTK1180:3QIYRE09Y4O78PY16N52LCZSFLO1N4", "current_trial": 120, "dateTime": 1513270164072, "trialdata": {"rt": -1, "stimulus": "<p id=\"stim\">PERFUME</p>", "key_press": -1, "type": "PRES_VIS", "word": "perfume", "wordID": 1048, "conditions": [12, 1600, "v", 12000], "trial": 3, "serialpos": 3, "trial_type": "single-stim", "trial_index": 120, "time_elapsed": 579671, "internal_node_id": "0.0-84.0"}}, {"uniqueid": "MTK1180:3QIYRE09Y4O78PY16N52LCZSFLO1N4", "current_trial": 121, "dateTime": 1513270166825, "trialdata": {"rt": -1, "stimulus": "<p id=\"stim\">FRAGRANCE</p>", "key_press": -1, "type": "PRES_VIS", "word": "fragrance", "wordID": 598, "conditions": [12, 1600, "v", 12000], "trial": 3, "serialpos": 4, "trial_type": "single-stim", "trial_index": 121, "time_elapsed": 582424, "internal_node_id": "0.0-85.0"}}, {"uniqueid": "MTK1180:3QIYRE09Y4O78PY16N52LCZSFLO1N4", "current_trial": 122, "dateTime": 1513270169494, "trialdata": {"rt": -1, "stimulus": "<p id=\"stim\">LAGOON</p>", "key_press": -1, "type": "PRES_VIS", "word": "lagoon", "wordID": 794, "conditions": [12, 1600, "v", 12000], "trial": 3, "serialpos": 5, "trial_type": "single-stim", "trial_index": 122, "time_elapsed": 585093, "internal_node_id": "0.0-86.0"}}, {"uniqueid": "MTK1180:3QIYRE09Y4O78PY16N52LCZSFLO1N4", "current_trial": 123, "dateTime": 1513270172019, "trialdata": {"rt": -1, "stimulus": "<p id=\"stim\">IGLOO</p>", "key_press": -1, "type": "PRES_VIS", "word": "igloo", "wordID": 733, "conditions": [12, 1600, "v", 12000], "trial": 3, "serialpos": 6, "trial_type": "single-stim", "trial_index": 123, "time_elapsed": 587618, "internal_node_id": "0.0-87.0"}}, {"uniqueid": "MTK1180:3QIYRE09Y4O78PY16N52LCZSFLO1N4", "current_trial": 124, "dateTime": 1513270174649, "trialdata": {"rt": -1, "stimulus": "<p id=\"stim\">TURKEY</p>", "key_press": -1, "type": "PRES_VIS", "word": "turkey", "wordID": 1519, "conditions": [12, 1600, "v", 12000], "trial": 3, "serialpos": 7, "trial_type": "single-stim", "trial_index": 124, "time_elapsed": 590247, "internal_node_id": "0.0-88.0"}}, {"uniqueid": "MTK1180:3QIYRE09Y4O78PY16N52LCZSFLO1N4", "current_trial": 125, "dateTime": 1513270177323, "trialdata": {"rt": -1, "stimulus": "<p id=\"stim\">FOOTBALL</p>", "key_press": -1, "type": "PRES_VIS", "word": "football", "wordID": 590, "conditions": [12, 1600, "v", 12000], "trial": 3, "serialpos": 8, "trial_type": "single-stim", "trial_index": 125, "time_elapsed": 592922, "internal_node_id": "0.0-89.0"}}, {"uniqueid": "MTK1180:3QIYRE09Y4O78PY16N52LCZSFLO1N4", "current_trial": 126, "dateTime": 1513270179833, "trialdata": {"rt": -1, "stimulus": "<p id=\"stim\">BROTHER</p>", "key_press": -1, "type": "PRES_VIS", "word": "brother", "wordID": 178, "conditions": [12, 1600, "v", 12000], "trial": 3, "serialpos": 9, "trial_type": "single-stim", "trial_index": 126, "time_elapsed": 595432, "internal_node_id": "0.0-90.0"}}, {"uniqueid": "MTK1180:3QIYRE09Y4O78PY16N52LCZSFLO1N4", "current_trial": 127, "dateTime": 1513270182627, "trialdata": {"rt": -1, "stimulus": "<p id=\"stim\">PECAN</p>", "key_press": -1, "type": "PRES_VIS", "word": "pecan", "wordID": 1035, "conditions": [12, 1600, "v", 12000], "trial": 3, "serialpos": 10, "trial_type": "single-stim", "trial_index": 127, "time_elapsed": 598226, "internal_node_id": "0.0-91.0"}}, {"uniqueid": "MTK1180:3QIYRE09Y4O78PY16N52LCZSFLO1N4", "current_trial": 128, "dateTime": 1513270185129, "trialdata": {"rt": -1, "stimulus": "<p id=\"stim\">SERVER</p>", "key_press": -1, "type": "PRES_VIS", "word": "server", "wordID": 1271, "conditions": [12, 1600, "v", 12000], "trial": 3, "serialpos": 11, "trial_type": "single-stim", "trial_index": 128, "time_elapsed": 600727, "internal_node_id": "0.0-92.0"}}, {"uniqueid": "MTK1180:3QIYRE09Y4O78PY16N52LCZSFLO1N4", "current_trial": 129, "dateTime": 1513270187387, "trialdata": {"rt": -1, "stimulus": "", "key_press": -1, "type": "PRE_RECALL_DELAY", "trial_type": "single-stim", "trial_index": 129, "time_elapsed": 602986, "internal_node_id": "0.0-93.0-0.0"}}, {"uniqueid": "MTK1180:3QIYRE09Y4O78PY16N52LCZSFLO1N4", "current_trial": 130, "dateTime": 1513270187894, "trialdata": {"rt": -1000, "stimulus": "/static/audio/400Hz.wav", "key_press": -1, "type": "PRE_RECALL_ALERT", "trial_type": "single-audio", "trial_index": 130, "time_elapsed": 603490, "internal_node_id": "0.0-94.0"}}, {"uniqueid": "MTK1180:3QIYRE09Y4O78PY16N52LCZSFLO1N4", "current_trial": 131, "dateTime": 1513270247923, "trialdata": {"rt": [3895, 7126, 13497, 17165, 20931, 31972, 36609, 52753], "recwords": ["server", "brother", "football", "turkey", "igloo", "perfume", "fragrance", "pecan"], "type": "FREE_RECALL", "conditions": [12, 1600, "v", 12000], "trial": 3, "trial_type": "free-recall", "trial_index": 131, "time_elapsed": 663505, "internal_node_id": "0.0-95.0-0.0"}}, {"uniqueid": "MTK1180:3QIYRE09Y4O78PY16N52LCZSFLO1N4", "current_trial": 132, "dateTime": 1513270251597, "trialdata": {"rt": 1671, "key_press": 13, "type": "INSTRUCTIONS", "trial_type": "text", "trial_index": 132, "time_elapsed": 667196, "internal_node_id": "0.0-96.0"}}, {"uniqueid": "MTK1180:3QIYRE09Y4O78PY16N52LCZSFLO1N4", "current_trial": 133, "dateTime": 1513270265607, "trialdata": {"rt": [3638, 7682, 10986], "responses": ["12", "13", "18"], "num1": [6, 4, 8, 6], "num2": [4, 1, 6, 9], "num3": [2, 8, 4, 6], "type": "DISTRACTOR", "conditions": [24, 800, "v", 12000], "trial": 4, "trial_type": "math-distractor", "trial_index": 133, "time_elapsed": 681206, "internal_node_id": "0.0-97.0"}}, {"uniqueid": "MTK1180:3QIYRE09Y4O78PY16N52LCZSFLO1N4", "current_trial": 134, "dateTime": 1513270268612, "trialdata": {"rt": -1, "stimulus": "<p id=\"stim\">10</p>", "key_press": -1, "trial_type": "single-stim", "trial_index": 134, "time_elapsed": 684211, "internal_node_id": "0.0-98.0-0.0"}}, {"uniqueid": "MTK1180:3QIYRE09Y4O78PY16N52LCZSFLO1N4", "current_trial": 135, "dateTime": 1513270269615, "trialdata": {"rt": -1, "stimulus": "<p id=\"stim\">9</p>", "key_press": -1, "trial_type": "single-stim", "trial_index": 135, "time_elapsed": 685214, "internal_node_id": "0.0-98.0-1.0"}}, {"uniqueid": "MTK1180:3QIYRE09Y4O78PY16N52LCZSFLO1N4", "current_trial": 136, "dateTime": 1513270270621, "trialdata": {"rt": -1, "stimulus": "<p id=\"stim\">8</p>", "key_press": -1, "trial_type": "single-stim", "trial_index": 136, "time_elapsed": 686220, "internal_node_id": "0.0-98.0-2.0"}}, {"uniqueid": "MTK1180:3QIYRE09Y4O78PY16N52LCZSFLO1N4", "current_trial": 137, "dateTime": 1513270271625, "trialdata": {"rt": -1, "stimulus": "<p id=\"stim\">7</p>", "key_press": -1, "trial_type": "single-stim", "trial_index": 137, "time_elapsed": 687223, "internal_node_id": "0.0-98.0-3.0"}}, {"uniqueid": "MTK1180:3QIYRE09Y4O78PY16N52LCZSFLO1N4", "current_trial": 138, "dateTime": 1513270272627, "trialdata": {"rt": -1, "stimulus": "<p id=\"stim\">6</p>", "key_press": -1, "trial_type": "single-stim", "trial_index": 138, "time_elapsed": 688225, "internal_node_id": "0.0-98.0-4.0"}}, {"uniqueid": "MTK1180:3QIYRE09Y4O78PY16N52LCZSFLO1N4", "current_trial": 139, "dateTime": 1513270273628, "trialdata": {"rt": -1, "stimulus": "<p id=\"stim\">5</p>", "key_press": -1, "trial_type": "single-stim", "trial_index": 139, "time_elapsed": 689227, "internal_node_id": "0.0-98.0-5.0"}}, {"uniqueid": "MTK1180:3QIYRE09Y4O78PY16N52LCZSFLO1N4", "current_trial": 140, "dateTime": 1513270274633, "trialdata": {"rt": -1, "stimulus": "<p id=\"stim\">4</p>", "key_press": -1, "trial_type": "single-stim", "trial_index": 140, "time_elapsed": 690231, "internal_node_id": "0.0-98.0-6.0"}}, {"uniqueid": "MTK1180:3QIYRE09Y4O78PY16N52LCZSFLO1N4", "current_trial": 141, "dateTime": 1513270275636, "trialdata": {"rt": -1, "stimulus": "<p id=\"stim\">3</p>", "key_press": -1, "trial_type": "single-stim", "trial_index": 141, "time_elapsed": 691234, "internal_node_id": "0.0-98.0-7.0"}}, {"uniqueid": "MTK1180:3QIYRE09Y4O78PY16N52LCZSFLO1N4", "current_trial": 142, "dateTime": 1513270276640, "trialdata": {"rt": -1, "stimulus": "<p id=\"stim\">2</p>", "key_press": -1, "trial_type": "single-stim", "trial_index": 142, "time_elapsed": 692239, "internal_node_id": "0.0-98.0-8.0"}}, {"uniqueid": "MTK1180:3QIYRE09Y4O78PY16N52LCZSFLO1N4", "current_trial": 143, "dateTime": 1513270277644, "trialdata": {"rt": -1, "stimulus": "<p id=\"stim\">1</p>", "key_press": -1, "trial_type": "single-stim", "trial_index": 143, "time_elapsed": 693243, "internal_node_id": "0.0-98.0-9.0"}}, {"uniqueid": "MTK1180:3QIYRE09Y4O78PY16N52LCZSFLO1N4", "current_trial": 144, "dateTime": 1513270279148, "trialdata": {"rt": -1, "stimulus": "<p id=\"stim\">+</p>", "key_press": -1, "type": "FIXATION", "trial_type": "single-stim", "trial_index": 144, "time_elapsed": 694747, "internal_node_id": "0.0-99.0-0.0"}}, {"uniqueid": "MTK1180:3QIYRE09Y4O78PY16N52LCZSFLO1N4", "current_trial": 145, "dateTime": 1513270279951, "trialdata": {"rt": -1, "stimulus": "<p id=\"stim\">MUSTARD</p>", "key_press": -1, "type": "PRES_VIS", "word": "mustard", "wordID": 934, "conditions": [24, 800, "v", 12000], "trial": 4, "serialpos": 0, "trial_type": "single-stim", "trial_index": 145, "time_elapsed": 695550, "internal_node_id": "0.0-100.0"}}, {"uniqueid": "MTK1180:3QIYRE09Y4O78PY16N52LCZSFLO1N4", "current_trial": 146, "dateTime": 1513270281713, "trialdata": {"rt": -1, "stimulus": "<p id=\"stim\">CAMEL</p>", "key_press": -1, "type": "PRES_VIS", "word": "camel", "wordID": 222, "conditions": [24, 800, "v", 12000], "trial": 4, "serialpos": 1, "trial_type": "single-stim", "trial_index": 146, "time_elapsed": 697311, "internal_node_id": "0.0-101.0"}}, {"uniqueid": "MTK1180:3QIYRE09Y4O78PY16N52LCZSFLO1N4", "current_trial": 147, "dateTime": 1513270283560, "trialdata": {"rt": -1, "stimulus": "<p id=\"stim\">RIVER</p>", "key_press": -1, "type": "PRES_VIS", "word": "river", "wordID": 1193, "conditions": [24, 800, "v", 12000], "trial": 4, "serialpos": 2, "trial_type": "single-stim", "trial_index": 147, "time_elapsed": 699158, "internal_node_id": "0.0-102.0"}}, {"uniqueid": "MTK1180:3QIYRE09Y4O78PY16N52LCZSFLO1N4", "current_trial": 148, "dateTime": 1513270285497, "trialdata": {"rt": -1, "stimulus": "<p id=\"stim\">SLIDE</p>", "key_press": -1, "type": "PRES_VIS", "word": "slide", "wordID": 1325, "conditions": [24, 800, "v", 12000], "trial": 4, "serialpos": 3, "trial_type": "single-stim", "trial_index": 148, "time_elapsed": 701095, "internal_node_id": "0.0-103.0"}}, {"uniqueid": "MTK1180:3QIYRE09Y4O78PY16N52LCZSFLO1N4", "current_trial": 149, "dateTime": 1513270287127, "trialdata": {"rt": -1, "stimulus": "<p id=\"stim\">RECORD</p>", "key_press": -1, "type": "PRES_VIS", "word": "record", "wordID": 1175, "conditions": [24, 800, "v", 12000], "trial": 4, "serialpos": 4, "trial_type": "single-stim", "trial_index": 149, "time_elapsed": 702726, "internal_node_id": "0.0-104.0"}}, {"uniqueid": "MTK1180:3QIYRE09Y4O78PY16N52LCZSFLO1N4", "current_trial": 150, "dateTime": 1513270288842, "trialdata": {"rt": -1, "stimulus": "<p id=\"stim\">SKILLET</p>", "key_press": -1, "type": "PRES_VIS", "word": "skillet", "wordID": 1316, "conditions": [24, 800, "v", 12000], "trial": 4, "serialpos": 5, "trial_type": "single-stim", "trial_index": 150, "time_elapsed": 704440, "internal_node_id": "0.0-105.0"}}, {"uniqueid": "MTK1180:3QIYRE09Y4O78PY16N52LCZSFLO1N4", "current_trial": 151, "dateTime": 1513270290511, "trialdata": {"rt": -1, "stimulus": "<p id=\"stim\">PICNIC</p>", "key_press": -1, "type": "PRES_VIS", "word": "picnic", "wordID": 1059, "conditions": [24, 800, "v", 12000], "trial": 4, "serialpos": 6, "trial_type": "single-stim", "trial_index": 151, "time_elapsed": 706110, "internal_node_id": "0.0-106.0"}}, {"uniqueid": "MTK1180:3QIYRE09Y4O78PY16N52LCZSFLO1N4", "current_trial": 152, "dateTime": 1513270292159, "trialdata": {"rt": -1, "stimulus": "<p id=\"stim\">KNAPSACK</p>", "key_press": -1, "type": "PRES_VIS", "word": "knapsack", "wordID": 782, "conditions": [24, 800, "v", 12000], "trial": 4, "serialpos": 7, "trial_type": "single-stim", "trial_index": 152, "time_elapsed": 707758, "internal_node_id": "0.0-107.0"}}, {"uniqueid": "MTK1180:3QIYRE09Y4O78PY16N52LCZSFLO1N4", "current_trial": 153, "dateTime": 1513270293993, "trialdata": {"rt": -1, "stimulus": "<p id=\"stim\">SUITCASE</p>", "key_press": -1, "type": "PRES_VIS", "word": "suitcase", "wordID": 1402, "conditions": [24, 800, "v", 12000], "trial": 4, "serialpos": 8, "trial_type": "single-stim", "trial_index": 153, "time_elapsed": 709592, "internal_node_id": "0.0-108.0"}}, {"uniqueid": "MTK1180:3QIYRE09Y4O78PY16N52LCZSFLO1N4", "current_trial": 154, "dateTime": 1513270295907, "trialdata": {"rt": -1, "stimulus": "<p id=\"stim\">SWIMMER</p>", "key_press": -1, "type": "PRES_VIS", "word": "swimmer", "wordID": 1419, "conditions": [24, 800, "v", 12000], "trial": 4, "serialpos": 9, "trial_type": "single-stim", "trial_index": 154, "time_elapsed": 711505, "internal_node_id": "0.0-109.0"}}, {"uniqueid": "MTK1180:3QIYRE09Y4O78PY16N52LCZSFLO1N4", "current_trial": 155, "dateTime": 1513270297577, "trialdata": {"rt": -1, "stimulus": "<p id=\"stim\">MARSH</p>", "key_press": -1, "type": "PRES_VIS", "word": "marsh", "wordID": 873, "conditions": [24, 800, "v", 12000], "trial": 4, "serialpos": 10, "trial_type": "single-stim", "trial_index": 155, "time_elapsed": 713176, "internal_node_id": "0.0-110.0"}}, {"uniqueid": "MTK1180:3QIYRE09Y4O78PY16N52LCZSFLO1N4", "current_trial": 156, "dateTime": 1513270299556, "trialdata": {"rt": -1, "stimulus": "<p id=\"stim\">LACE</p>", "key_press": -1, "type": "PRES_VIS", "word": "lace", "wordID": 791, "conditions": [24, 800, "v", 12000], "trial": 4, "serialpos": 11, "trial_type": "single-stim", "trial_index": 156, "time_elapsed": 715155, "internal_node_id": "0.0-111.0"}}, {"uniqueid": "MTK1180:3QIYRE09Y4O78PY16N52LCZSFLO1N4", "current_trial": 157, "dateTime": 1513270301376, "trialdata": {"rt": -1, "stimulus": "<p id=\"stim\">GUITAR</p>", "key_press": -1, "type": "PRES_VIS", "word": "guitar", "wordID": 669, "conditions": [24, 800, "v", 12000], "trial": 4, "serialpos": 12, "trial_type": "single-stim", "trial_index": 157, "time_elapsed": 716974, "internal_node_id": "0.0-112.0"}}, {"uniqueid": "MTK1180:3QIYRE09Y4O78PY16N52LCZSFLO1N4", "current_trial": 158, "dateTime": 1513270303002, "trialdata": {"rt": -1, "stimulus": "<p id=\"stim\">MONEY</p>", "key_press": -1, "type": "PRES_VIS", "word": "money", "wordID": 907, "conditions": [24, 800, "v", 12000], "trial": 4, "serialpos": 13, "trial_type": "single-stim", "trial_index": 158, "time_elapsed": 718600, "internal_node_id": "0.0-113.0"}}, {"uniqueid": "MTK1180:3QIYRE09Y4O78PY16N52LCZSFLO1N4", "current_trial": 159, "dateTime": 1513270304754, "trialdata": {"rt": -1, "stimulus": "<p id=\"stim\">FIREMAN</p>", "key_press": -1, "type": "PRES_VIS", "word": "fireman", "wordID": 568, "conditions": [24, 800, "v", 12000], "trial": 4, "serialpos": 14, "trial_type": "single-stim", "trial_index": 159, "time_elapsed": 720353, "internal_node_id": "0.0-114.0"}}, {"uniqueid": "MTK1180:3QIYRE09Y4O78PY16N52LCZSFLO1N4", "current_trial": 160, "dateTime": 1513270306749, "trialdata": {"rt": -1, "stimulus": "<p id=\"stim\">SCALLOP</p>", "key_press": -1, "type": "PRES_VIS", "word": "scallop", "wordID": 1241, "conditions": [24, 800, "v", 12000], "trial": 4, "serialpos": 15, "trial_type": "single-stim", "trial_index": 160, "time_elapsed": 722347, "internal_node_id": "0.0-115.0"}}, {"uniqueid": "MTK1180:3QIYRE09Y4O78PY16N52LCZSFLO1N4", "current_trial": 161, "dateTime": 1513270308456, "trialdata": {"rt": -1, "stimulus": "<p id=\"stim\">BRANDY</p>", "key_press": -1, "type": "PRES_VIS", "word": "brandy", "wordID": 168, "conditions": [24, 800, "v", 12000], "trial": 4, "serialpos": 16, "trial_type": "single-stim", "trial_index": 161, "time_elapsed": 724054, "internal_node_id": "0.0-116.0"}}, {"uniqueid": "MTK1180:3QIYRE09Y4O78PY16N52LCZSFLO1N4", "current_trial": 162, "dateTime": 1513270310358, "trialdata": {"rt": -1, "stimulus": "<p id=\"stim\">FLUTE</p>", "key_press": -1, "type": "PRES_VIS", "word": "flute", "wordID": 584, "conditions": [24, 800, "v", 12000], "trial": 4, "serialpos": 17, "trial_type": "single-stim", "trial_index": 162, "time_elapsed": 725953, "internal_node_id": "0.0-117.0"}}, {"uniqueid": "MTK1180:3QIYRE09Y4O78PY16N52LCZSFLO1N4", "current_trial": 163, "dateTime": 1513270312012, "trialdata": {"rt": -1, "stimulus": "<p id=\"stim\">BODY</p>", "key_press": -1, "type": "PRES_VIS", "word": "body", "wordID": 144, "conditions": [24, 800, "v", 12000], "trial": 4, "serialpos": 18, "trial_type": "single-stim", "trial_index": 163, "time_elapsed": 727611, "internal_node_id": "0.0-118.0"}}, {"uniqueid": "MTK1180:3QIYRE09Y4O78PY16N52LCZSFLO1N4", "current_trial": 164, "dateTime": 1513270313750, "trialdata": {"rt": -1, "stimulus": "<p id=\"stim\">LUNCH</p>", "key_press": -1, "type": "PRES_VIS", "word": "lunch", "wordID": 848, "conditions": [24, 800, "v", 12000], "trial": 4, "serialpos": 19, "trial_type": "single-stim", "trial_index": 164, "time_elapsed": 729349, "internal_node_id": "0.0-119.0"}}, {"uniqueid": "MTK1180:3QIYRE09Y4O78PY16N52LCZSFLO1N4", "current_trial": 165, "dateTime": 1513270315517, "trialdata": {"rt": -1, "stimulus": "<p id=\"stim\">SNACK</p>", "key_press": -1, "type": "PRES_VIS", "word": "snack", "wordID": 1330, "conditions": [24, 800, "v", 12000], "trial": 4, "serialpos": 20, "trial_type": "single-stim", "trial_index": 165, "time_elapsed": 731116, "internal_node_id": "0.0-120.0"}}, {"uniqueid": "MTK1180:3QIYRE09Y4O78PY16N52LCZSFLO1N4", "current_trial": 166, "dateTime": 1513270317372, "trialdata": {"rt": -1, "stimulus": "<p id=\"stim\">TRENCH</p>", "key_press": -1, "type": "PRES_VIS", "word": "trench", "wordID": 1502, "conditions": [24, 800, "v", 12000], "trial": 4, "serialpos": 21, "trial_type": "single-stim", "trial_index": 166, "time_elapsed": 732971, "internal_node_id": "0.0-121.0"}}, {"uniqueid": "MTK1180:3QIYRE09Y4O78PY16N52LCZSFLO1N4", "current_trial": 167, "dateTime": 1513270319330, "trialdata": {"rt": -1, "stimulus": "<p id=\"stim\">PILOT</p>", "key_press": -1, "type": "PRES_VIS", "word": "pilot", "wordID": 1069, "conditions": [24, 800, "v", 12000], "trial": 4, "serialpos": 22, "trial_type": "single-stim", "trial_index": 167, "time_elapsed": 734929, "internal_node_id": "0.0-122.0"}}, {"uniqueid": "MTK1180:3QIYRE09Y4O78PY16N52LCZSFLO1N4", "current_trial": 168, "dateTime": 1513270321226, "trialdata": {"rt": -1, "stimulus": "<p id=\"stim\">CATTLE</p>", "key_press": -1, "type": "PRES_VIS", "word": "cattle", "wordID": 260, "conditions": [24, 800, "v", 12000], "trial": 4, "serialpos": 23, "trial_type": "single-stim", "trial_index": 168, "time_elapsed": 736825, "internal_node_id": "0.0-123.0"}}, {"uniqueid": "MTK1180:3QIYRE09Y4O78PY16N52LCZSFLO1N4", "current_trial": 169, "dateTime": 1513270323716, "trialdata": {"rt": -1, "stimulus": "", "key_press": -1, "type": "PRE_RECALL_DELAY", "trial_type": "single-stim", "trial_index": 169, "time_elapsed": 739315, "internal_node_id": "0.0-124.0-0.0"}}, {"uniqueid": "MTK1180:3QIYRE09Y4O78PY16N52LCZSFLO1N4", "current_trial": 170, "dateTime": 1513270324220, "trialdata": {"rt": -1000, "stimulus": "/static/audio/400Hz.wav", "key_press": -1, "type": "PRE_RECALL_ALERT", "trial_type": "single-audio", "trial_index": 170, "time_elapsed": 739818, "internal_node_id": "0.0-125.0"}}, {"uniqueid": "MTK1180:3QIYRE09Y4O78PY16N52LCZSFLO1N4", "current_trial": 171, "dateTime": 1513270384267, "trialdata": {"rt": [5111, 8090, 10274, 14500, 17290, 28881, 32668, 53074], "recwords": ["cattle", "pilot", "body", "fireman", "river", "camel", "money", "snack"], "type": "FREE_RECALL", "conditions": [24, 800, "v", 12000], "trial": 4, "trial_type": "free-recall", "trial_index": 171, "time_elapsed": 799849, "internal_node_id": "0.0-126.0-0.0"}}, {"uniqueid": "MTK1180:3QIYRE09Y4O78PY16N52LCZSFLO1N4", "current_trial": 172, "dateTime": 1513270387993, "trialdata": {"rt": 1723, "key_press": 13, "type": "INSTRUCTIONS", "trial_type": "text", "trial_index": 172, "time_elapsed": 803592, "internal_node_id": "0.0-127.0"}}, {"uniqueid": "MTK1180:3QIYRE09Y4O78PY16N52LCZSFLO1N4", "current_trial": 173, "dateTime": 1513270414002, "trialdata": {"rt": [4579, 9867, 13180, 17068, 20901], "responses": ["21", "15", "9", "12", "17"], "num1": [6, 3, 5, 8, 9, 6], "num2": [7, 8, 3, 1, 4, 2], "num3": [9, 4, 1, 3, 4, 5], "type": "DISTRACTOR", "conditions": [24, 800, "a", 24000], "trial": 5, "trial_type": "math-distractor", "trial_index": 173, "time_elapsed": 829601, "internal_node_id": "0.0-128.0"}}, {"uniqueid": "MTK1180:3QIYRE09Y4O78PY16N52LCZSFLO1N4", "current_trial": 174, "dateTime": 1513270417009, "trialdata": {"rt": -1, "stimulus": "<p id=\"stim\">10</p>", "key_press": -1, "trial_type": "single-stim", "trial_index": 174, "time_elapsed": 832608, "internal_node_id": "0.0-129.0-0.0"}}, {"uniqueid": "MTK1180:3QIYRE09Y4O78PY16N52LCZSFLO1N4", "current_trial": 175, "dateTime": 1513270418012, "trialdata": {"rt": -1, "stimulus": "<p id=\"stim\">9</p>", "key_press": -1, "trial_type": "single-stim", "trial_index": 175, "time_elapsed": 833611, "internal_node_id": "0.0-129.0-1.0"}}, {"uniqueid": "MTK1180:3QIYRE09Y4O78PY16N52LCZSFLO1N4", "current_trial": 176, "dateTime": 1513270419016, "trialdata": {"rt": -1, "stimulus": "<p id=\"stim\">8</p>", "key_press": -1, "trial_type": "single-stim", "trial_index": 176, "time_elapsed": 834614, "internal_node_id": "0.0-129.0-2.0"}}, {"uniqueid": "MTK1180:3QIYRE09Y4O78PY16N52LCZSFLO1N4", "current_trial": 177, "dateTime": 1513270420018, "trialdata": {"rt": -1, "stimulus": "<p id=\"stim\">7</p>", "key_press": -1, "trial_type": "single-stim", "trial_index": 177, "time_elapsed": 835617, "internal_node_id": "0.0-129.0-3.0"}}, {"uniqueid": "MTK1180:3QIYRE09Y4O78PY16N52LCZSFLO1N4", "current_trial": 178, "dateTime": 1513270421023, "trialdata": {"rt": -1, "stimulus": "<p id=\"stim\">6</p>", "key_press": -1, "trial_type": "single-stim", "trial_index": 178, "time_elapsed": 836621, "internal_node_id": "0.0-129.0-4.0"}}, {"uniqueid": "MTK1180:3QIYRE09Y4O78PY16N52LCZSFLO1N4", "current_trial": 179, "dateTime": 1513270422031, "trialdata": {"rt": -1, "stimulus": "<p id=\"stim\">5</p>", "key_press": -1, "trial_type": "single-stim", "trial_index": 179, "time_elapsed": 837624, "internal_node_id": "0.0-129.0-5.0"}}, {"uniqueid": "MTK1180:3QIYRE09Y4O78PY16N52LCZSFLO1N4", "current_trial": 180, "dateTime": 1513270423034, "trialdata": {"rt": -1, "stimulus": "<p id=\"stim\">4</p>", "key_press": -1, "trial_type": "single-stim", "trial_index": 180, "time_elapsed": 838633, "internal_node_id": "0.0-129.0-6.0"}}, {"uniqueid": "MTK1180:3QIYRE09Y4O78PY16N52LCZSFLO1N4", "current_trial": 181, "dateTime": 1513270424037, "trialdata": {"rt": -1, "stimulus": "<p id=\"stim\">3</p>", "key_press": -1, "trial_type": "single-stim", "trial_index": 181, "time_elapsed": 839635, "internal_node_id": "0.0-129.0-7.0"}}, {"uniqueid": "MTK1180:3QIYRE09Y4O78PY16N52LCZSFLO1N4", "current_trial": 182, "dateTime": 1513270425041, "trialdata": {"rt": -1, "stimulus": "<p id=\"stim\">2</p>", "key_press": -1, "trial_type": "single-stim", "trial_index": 182, "time_elapsed": 840640, "internal_node_id": "0.0-129.0-8.0"}}, {"uniqueid": "MTK1180:3QIYRE09Y4O78PY16N52LCZSFLO1N4", "current_trial": 183, "dateTime": 1513270426044, "trialdata": {"rt": -1, "stimulus": "<p id=\"stim\">1</p>", "key_press": -1, "trial_type": "single-stim", "trial_index": 183, "time_elapsed": 841643, "internal_node_id": "0.0-129.0-9.0"}}, {"uniqueid": "MTK1180:3QIYRE09Y4O78PY16N52LCZSFLO1N4", "current_trial": 184, "dateTime": 1513270427548, "trialdata": {"rt": -1, "stimulus": "<p id=\"stim\">+</p>", "key_press": -1, "type": "FIXATION", "trial_type": "single-stim", "trial_index": 184, "time_elapsed": 843147, "internal_node_id": "0.0-130.0-0.0"}}, {"uniqueid": "MTK1180:3QIYRE09Y4O78PY16N52LCZSFLO1N4", "current_trial": 185, "dateTime": 1513270429240, "trialdata": {"rt": -1000, "stimulus": "/static/audio/wordpool/TRUCK.wav", "key_press": -1, "type": "PRES_AUD", "word": "truck", "wordID": 1511, "conditions": [24, 800, "a", 24000], "trial": 5, "serialpos": 0, "trial_type": "single-audio", "trial_index": 185, "time_elapsed": 844838, "internal_node_id": "0.0-131.0"}}, {"uniqueid": "MTK1180:3QIYRE09Y4O78PY16N52LCZSFLO1N4", "current_trial": 186, "dateTime": 1513270431220, "trialdata": {"rt": -1000, "stimulus": "/static/audio/wordpool/WASHER.wav", "key_press": -1, "type": "PRES_AUD", "word": "washer", "wordID": 1591, "conditions": [24, 800, "a", 24000], "trial": 5, "serialpos": 1, "trial_type": "single-audio", "trial_index": 186, "time_elapsed": 846818, "internal_node_id": "0.0-132.0"}}, {"uniqueid": "MTK1180:3QIYRE09Y4O78PY16N52LCZSFLO1N4", "current_trial": 187, "dateTime": 1513270432905, "trialdata": {"rt": -1000, "stimulus": "/static/audio/wordpool/TWIG.wav", "key_press": -1, "type": "PRES_AUD", "word": "twig", "wordID": 1526, "conditions": [24, 800, "a", 24000], "trial": 5, "serialpos": 2, "trial_type": "single-audio", "trial_index": 187, "time_elapsed": 848503, "internal_node_id": "0.0-133.0"}}, {"uniqueid": "MTK1180:3QIYRE09Y4O78PY16N52LCZSFLO1N4", "current_trial": 188, "dateTime": 1513270434684, "trialdata": {"rt": -1000, "stimulus": "/static/audio/wordpool/ROBOT.wav", "key_press": -1, "type": "PRES_AUD", "word": "robot", "wordID": 1199, "conditions": [24, 800, "a", 24000], "trial": 5, "serialpos": 3, "trial_type": "single-audio", "trial_index": 188, "time_elapsed": 850283, "internal_node_id": "0.0-134.0"}}, {"uniqueid": "MTK1180:3QIYRE09Y4O78PY16N52LCZSFLO1N4", "current_trial": 189, "dateTime": 1513270436642, "trialdata": {"rt": -1000, "stimulus": "/static/audio/wordpool/TRACTOR.wav", "key_press": -1, "type": "PRES_AUD", "word": "tractor", "wordID": 1492, "conditions": [24, 800, "a", 24000], "trial": 5, "serialpos": 4, "trial_type": "single-audio", "trial_index": 189, "time_elapsed": 852241, "internal_node_id": "0.0-135.0"}}, {"uniqueid": "MTK1180:3QIYRE09Y4O78PY16N52LCZSFLO1N4", "current_trial": 190, "dateTime": 1513270438347, "trialdata": {"rt": -1000, "stimulus": "/static/audio/wordpool/WAGON.wav", "key_press": -1, "type": "PRES_AUD", "word": "wagon", "wordID": 1577, "conditions": [24, 800, "a", 24000], "trial": 5, "serialpos": 5, "trial_type": "single-audio", "trial_index": 190, "time_elapsed": 853945, "internal_node_id": "0.0-136.0"}}, {"uniqueid": "MTK1180:3QIYRE09Y4O78PY16N52LCZSFLO1N4", "current_trial": 191, "dateTime": 1513270440125, "trialdata": {"rt": -1000, "stimulus": "/static/audio/wordpool/WOMAN.wav", "key_press": -1, "type": "PRES_AUD", "word": "woman", "wordID": 1619, "conditions": [24, 800, "a", 24000], "trial": 5, "serialpos": 6, "trial_type": "single-audio", "trial_index": 191, "time_elapsed": 855723, "internal_node_id": "0.0-137.0"}}, {"uniqueid": "MTK1180:3QIYRE09Y4O78PY16N52LCZSFLO1N4", "current_trial": 192, "dateTime": 1513270442000, "trialdata": {"rt": -1000, "stimulus": "/static/audio/wordpool/HELMET.wav", "key_press": -1, "type": "PRES_AUD", "word": "helmet", "wordID": 701, "conditions": [24, 800, "a", 24000], "trial": 5, "serialpos": 7, "trial_type": "single-audio", "trial_index": 192, "time_elapsed": 857598, "internal_node_id": "0.0-138.0"}}, {"uniqueid": "MTK1180:3QIYRE09Y4O78PY16N52LCZSFLO1N4", "current_trial": 193, "dateTime": 1513270443846, "trialdata": {"rt": -1000, "stimulus": "/static/audio/wordpool/TERMITE.wav", "key_press": -1, "type": "PRES_AUD", "word": "termite", "wordID": 1450, "conditions": [24, 800, "a", 24000], "trial": 5, "serialpos": 8, "trial_type": "single-audio", "trial_index": 193, "time_elapsed": 859444, "internal_node_id": "0.0-139.0"}}, {"uniqueid": "MTK1180:3QIYRE09Y4O78PY16N52LCZSFLO1N4", "current_trial": 194, "dateTime": 1513270445786, "trialdata": {"rt": -1000, "stimulus": "/static/audio/wordpool/COTTAGE.wav", "key_press": -1, "type": "PRES_AUD", "word": "cottage", "wordID": 383, "conditions": [24, 800, "a", 24000], "trial": 5, "serialpos": 9, "trial_type": "single-audio", "trial_index": 194, "time_elapsed": 861382, "internal_node_id": "0.0-140.0"}}, {"uniqueid": "MTK1180:3QIYRE09Y4O78PY16N52LCZSFLO1N4", "current_trial": 195, "dateTime": 1513270447587, "trialdata": {"rt": -1000, "stimulus": "/static/audio/wordpool/ORCHID.wav", "key_press": -1, "type": "PRES_AUD", "word": "orchid", "wordID": 981, "conditions": [24, 800, "a", 24000], "trial": 5, "serialpos": 10, "trial_type": "single-audio", "trial_index": 195, "time_elapsed": 863185, "internal_node_id": "0.0-141.0"}}, {"uniqueid": "MTK1180:3QIYRE09Y4O78PY16N52LCZSFLO1N4", "current_trial": 196, "dateTime": 1513270449454, "trialdata": {"rt": -1000, "stimulus": "/static/audio/wordpool/FUNGUS.wav", "key_press": -1, "type": "PRES_AUD", "word": "fungus", "wordID": 613, "conditions": [24, 800, "a", 24000], "trial": 5, "serialpos": 11, "trial_type": "single-audio", "trial_index": 196, "time_elapsed": 865052, "internal_node_id": "0.0-142.0"}}, {"uniqueid": "MTK1180:3QIYRE09Y4O78PY16N52LCZSFLO1N4", "current_trial": 197, "dateTime": 1513270451431, "trialdata": {"rt": -1000, "stimulus": "/static/audio/wordpool/SALMON.wav", "key_press": -1, "type": "PRES_AUD", "word": "salmon", "wordID": 1226, "conditions": [24, 800, "a", 24000], "trial": 5, "serialpos": 12, "trial_type": "single-audio", "trial_index": 197, "time_elapsed": 867029, "internal_node_id": "0.0-143.0"}}, {"uniqueid": "MTK1180:3QIYRE09Y4O78PY16N52LCZSFLO1N4", "current_trial": 198, "dateTime": 1513270453277, "trialdata": {"rt": -1000, "stimulus": "/static/audio/wordpool/COD.wav", "key_press": -1, "type": "PRES_AUD", "word": "cod", "wordID": 339, "conditions": [24, 800, "a", 24000], "trial": 5, "serialpos": 13, "trial_type": "single-audio", "trial_index": 198, "time_elapsed": 868876, "internal_node_id": "0.0-144.0"}}, {"uniqueid": "MTK1180:3QIYRE09Y4O78PY16N52LCZSFLO1N4", "current_trial": 199, "dateTime": 1513270455023, "trialdata": {"rt": -1000, "stimulus": "/static/audio/wordpool/KITCHEN.wav", "key_press": -1, "type": "PRES_AUD", "word": "kitchen", "wordID": 777, "conditions": [24, 800, "a", 24000], "trial": 5, "serialpos": 14, "trial_type": "single-audio", "trial_index": 199, "time_elapsed": 870621, "internal_node_id": "0.0-145.0"}}, {"uniqueid": "MTK1180:3QIYRE09Y4O78PY16N52LCZSFLO1N4", "current_trial": 200, "dateTime": 1513270456788, "trialdata": {"rt": -1000, "stimulus": "/static/audio/wordpool/JUNGLE.wav", "key_press": -1, "type": "PRES_AUD", "word": "jungle", "wordID": 763, "conditions": [24, 800, "a", 24000], "trial": 5, "serialpos": 15, "trial_type": "single-audio", "trial_index": 200, "time_elapsed": 872387, "internal_node_id": "0.0-146.0"}}, {"uniqueid": "MTK1180:3QIYRE09Y4O78PY16N52LCZSFLO1N4", "current_trial": 201, "dateTime": 1513270458411, "trialdata": {"rt": -1000, "stimulus": "/static/audio/wordpool/KIDNEY.wav", "key_press": -1, "type": "PRES_AUD", "word": "kidney", "wordID": 775, "conditions": [24, 800, "a", 24000], "trial": 5, "serialpos": 16, "trial_type": "single-audio", "trial_index": 201, "time_elapsed": 874009, "internal_node_id": "0.0-147.0"}}, {"uniqueid": "MTK1180:3QIYRE09Y4O78PY16N52LCZSFLO1N4", "current_trial": 202, "dateTime": 1513270460378, "trialdata": {"rt": -1000, "stimulus": "/static/audio/wordpool/BALLOON.wav", "key_press": -1, "type": "PRES_AUD", "word": "balloon", "wordID": 74, "conditions": [24, 800, "a", 24000], "trial": 5, "serialpos": 17, "trial_type": "single-audio", "trial_index": 202, "time_elapsed": 875977, "internal_node_id": "0.0-148.0"}}, {"uniqueid": "MTK1180:3QIYRE09Y4O78PY16N52LCZSFLO1N4", "current_trial": 203, "dateTime": 1513270462223, "trialdata": {"rt": -1000, "stimulus": "/static/audio/wordpool/CRITIC.wav", "key_press": -1, "type": "PRES_AUD", "word": "critic", "wordID": 409, "conditions": [24, 800, "a", 24000], "trial": 5, "serialpos": 18, "trial_type": "single-audio", "trial_index": 203, "time_elapsed": 877821, "internal_node_id": "0.0-149.0"}}, {"uniqueid": "MTK1180:3QIYRE09Y4O78PY16N52LCZSFLO1N4", "current_trial": 204, "dateTime": 1513270464090, "trialdata": {"rt": -1000, "stimulus": "/static/audio/wordpool/TRANSPLANT.wav", "key_press": -1, "type": "PRES_AUD", "word": "transplant", "wordID": 1495, "conditions": [24, 800, "a", 24000], "trial": 5, "serialpos": 19, "trial_type": "single-audio", "trial_index": 204, "time_elapsed": 879689, "internal_node_id": "0.0-150.0"}}, {"uniqueid": "MTK1180:3QIYRE09Y4O78PY16N52LCZSFLO1N4", "current_trial": 205, "dateTime": 1513270465987, "trialdata": {"rt": -1000, "stimulus": "/static/audio/wordpool/MARKET.wav", "key_press": -1, "type": "PRES_AUD", "word": "market", "wordID": 870, "conditions": [24, 800, "a", 24000], "trial": 5, "serialpos": 20, "trial_type": "single-audio", "trial_index": 205, "time_elapsed": 881585, "internal_node_id": "0.0-151.0"}}, {"uniqueid": "MTK1180:3QIYRE09Y4O78PY16N52LCZSFLO1N4", "current_trial": 206, "dateTime": 1513270467870, "trialdata": {"rt": -1000, "stimulus": "/static/audio/wordpool/SPACE.wav", "key_press": -1, "type": "PRES_AUD", "word": "space", "wordID": 1344, "conditions": [24, 800, "a", 24000], "trial": 5, "serialpos": 21, "trial_type": "single-audio", "trial_index": 206, "time_elapsed": 883469, "internal_node_id": "0.0-152.0"}}, {"uniqueid": "MTK1180:3QIYRE09Y4O78PY16N52LCZSFLO1N4", "current_trial": 207, "dateTime": 1513270469754, "trialdata": {"rt": -1000, "stimulus": "/static/audio/wordpool/GRAPE.wav", "key_press": -1, "type": "PRES_AUD", "word": "grape", "wordID": 653, "conditions": [24, 800, "a", 24000], "trial": 5, "serialpos": 22, "trial_type": "single-audio", "trial_index": 207, "time_elapsed": 885353, "internal_node_id": "0.0-153.0"}}, {"uniqueid": "MTK1180:3QIYRE09Y4O78PY16N52LCZSFLO1N4", "current_trial": 208, "dateTime": 1513270471682, "trialdata": {"rt": -1000, "stimulus": "/static/audio/wordpool/BRIEFCASE.wav", "key_press": -1, "type": "PRES_AUD", "word": "briefcase", "wordID": 174, "conditions": [24, 800, "a", 24000], "trial": 5, "serialpos": 23, "trial_type": "single-audio", "trial_index": 208, "time_elapsed": 887280, "internal_node_id": "0.0-154.0"}}, {"uniqueid": "MTK1180:3QIYRE09Y4O78PY16N52LCZSFLO1N4", "current_trial": 209, "dateTime": 1513270472913, "trialdata": {"rt": -1, "stimulus": "", "key_press": -1, "type": "PRE_RECALL_DELAY", "trial_type": "single-stim", "trial_index": 209, "time_elapsed": 888512, "internal_node_id": "0.0-155.0-0.0"}}, {"uniqueid": "MTK1180:3QIYRE09Y4O78PY16N52LCZSFLO1N4", "current_trial": 210, "dateTime": 1513270473414, "trialdata": {"rt": -1000, "stimulus": "/static/audio/400Hz.wav", "key_press": -1, "type": "PRE_RECALL_ALERT", "trial_type": "single-audio", "trial_index": 210, "time_elapsed": 889013, "internal_node_id": "0.0-156.0"}}, {"uniqueid": "MTK1180:3QIYRE09Y4O78PY16N52LCZSFLO1N4", "current_trial": 211, "dateTime": 1513270533437, "trialdata": {"rt": [5304, 8245, 11275, 14375, 17343, 19976, 26588, 30461, 33373], "recwords": ["briefcase", "market", "forest", "jungle", "cottage", "space", "women", "robot", "twig"], "type": "FREE_RECALL", "conditions": [24, 800, "a", 24000], "trial": 5, "trial_type": "free-recall", "trial_index": 211, "time_elapsed": 949020, "internal_node_id": "0.0-157.0-0.0"}}, {"uniqueid": "MTK1180:3QIYRE09Y4O78PY16N52LCZSFLO1N4", "current_trial": 212, "dateTime": 1513270537431, "trialdata": {"rt": 1990, "key_press": 13, "type": "INSTRUCTIONS", "trial_type": "text", "trial_index": 212, "time_elapsed": 953029, "internal_node_id": "0.0-158.0"}}, {"uniqueid": "MTK1180:3QIYRE09Y4O78PY16N52LCZSFLO1N4", "current_trial": 213, "dateTime": 1513270563438, "trialdata": {"rt": [4732, 8023, 11826, 15413, 18522, 21093], "responses": ["8", "15", "11", "17", "18", "9"], "num1": [1, 5, 2, 6, 9, 4, 6], "num2": [4, 4, 2, 2, 7, 4, 7], "num3": [3, 6, 7, 9, 2, 1, 1], "type": "DISTRACTOR", "conditions": [12, 800, "v", 24000], "trial": 6, "trial_type": "math-distractor", "trial_index": 213, "time_elapsed": 979037, "internal_node_id": "0.0-159.0"}}, {"uniqueid": "MTK1180:3QIYRE09Y4O78PY16N52LCZSFLO1N4", "current_trial": 214, "dateTime": 1513270566456, "trialdata": {"rt": -1, "stimulus": "<p id=\"stim\">10</p>", "key_press": -1, "trial_type": "single-stim", "trial_index": 214, "time_elapsed": 982049, "internal_node_id": "0.0-160.0-0.0"}}, {"uniqueid": "MTK1180:3QIYRE09Y4O78PY16N52LCZSFLO1N4", "current_trial": 215, "dateTime": 1513270567461, "trialdata": {"rt": -1, "stimulus": "<p id=\"stim\">9</p>", "key_press": -1, "trial_type": "single-stim", "trial_index": 215, "time_elapsed": 983059, "internal_node_id": "0.0-160.0-1.0"}}, {"uniqueid": "MTK1180:3QIYRE09Y4O78PY16N52LCZSFLO1N4", "current_trial": 216, "dateTime": 1513270568464, "trialdata": {"rt": -1, "stimulus": "<p id=\"stim\">8</p>", "key_press": -1, "trial_type": "single-stim", "trial_index": 216, "time_elapsed": 984063, "internal_node_id": "0.0-160.0-2.0"}}, {"uniqueid": "MTK1180:3QIYRE09Y4O78PY16N52LCZSFLO1N4", "current_trial": 217, "dateTime": 1513270569469, "trialdata": {"rt": -1, "stimulus": "<p id=\"stim\">7</p>", "key_press": -1, "trial_type": "single-stim", "trial_index": 217, "time_elapsed": 985067, "internal_node_id": "0.0-160.0-3.0"}}, {"uniqueid": "MTK1180:3QIYRE09Y4O78PY16N52LCZSFLO1N4", "current_trial": 218, "dateTime": 1513270570472, "trialdata": {"rt": -1, "stimulus": "<p id=\"stim\">6</p>", "key_press": -1, "trial_type": "single-stim", "trial_index": 218, "time_elapsed": 986071, "internal_node_id": "0.0-160.0-4.0"}}, {"uniqueid": "MTK1180:3QIYRE09Y4O78PY16N52LCZSFLO1N4", "current_trial": 219, "dateTime": 1513270571476, "trialdata": {"rt": -1, "stimulus": "<p id=\"stim\">5</p>", "key_press": -1, "trial_type": "single-stim", "trial_index": 219, "time_elapsed": 987075, "internal_node_id": "0.0-160.0-5.0"}}, {"uniqueid": "MTK1180:3QIYRE09Y4O78PY16N52LCZSFLO1N4", "current_trial": 220, "dateTime": 1513270572479, "trialdata": {"rt": -1, "stimulus": "<p id=\"stim\">4</p>", "key_press": -1, "trial_type": "single-stim", "trial_index": 220, "time_elapsed": 988078, "internal_node_id": "0.0-160.0-6.0"}}, {"uniqueid": "MTK1180:3QIYRE09Y4O78PY16N52LCZSFLO1N4", "current_trial": 221, "dateTime": 1513270573482, "trialdata": {"rt": -1, "stimulus": "<p id=\"stim\">3</p>", "key_press": -1, "trial_type": "single-stim", "trial_index": 221, "time_elapsed": 989080, "internal_node_id": "0.0-160.0-7.0"}}, {"uniqueid": "MTK1180:3QIYRE09Y4O78PY16N52LCZSFLO1N4", "current_trial": 222, "dateTime": 1513270574485, "trialdata": {"rt": -1, "stimulus": "<p id=\"stim\">2</p>", "key_press": -1, "trial_type": "single-stim", "trial_index": 222, "time_elapsed": 990084, "internal_node_id": "0.0-160.0-8.0"}}, {"uniqueid": "MTK1180:3QIYRE09Y4O78PY16N52LCZSFLO1N4", "current_trial": 223, "dateTime": 1513270575487, "trialdata": {"rt": -1, "stimulus": "<p id=\"stim\">1</p>", "key_press": -1, "trial_type": "single-stim", "trial_index": 223, "time_elapsed": 991086, "internal_node_id": "0.0-160.0-9.0"}}, {"uniqueid": "MTK1180:3QIYRE09Y4O78PY16N52LCZSFLO1N4", "current_trial": 224, "dateTime": 1513270576990, "trialdata": {"rt": -1, "stimulus": "<p id=\"stim\">+</p>", "key_press": -1, "type": "FIXATION", "trial_type": "single-stim", "trial_index": 224, "time_elapsed": 992589, "internal_node_id": "0.0-161.0-0.0"}}, {"uniqueid": "MTK1180:3QIYRE09Y4O78PY16N52LCZSFLO1N4", "current_trial": 225, "dateTime": 1513270577796, "trialdata": {"rt": -1, "stimulus": "<p id=\"stim\">UNCLE</p>", "key_press": -1, "type": "PRES_VIS", "word": "uncle", "wordID": 1535, "conditions": [12, 800, "v", 24000], "trial": 6, "serialpos": 0, "trial_type": "single-stim", "trial_index": 225, "time_elapsed": 993395, "internal_node_id": "0.0-162.0"}}, {"uniqueid": "MTK1180:3QIYRE09Y4O78PY16N52LCZSFLO1N4", "current_trial": 226, "dateTime": 1513270579438, "trialdata": {"rt": -1, "stimulus": "<p id=\"stim\">PLATE</p>", "key_press": -1, "type": "PRES_VIS", "word": "plate", "wordID": 1085, "conditions": [12, 800, "v", 24000], "trial": 6, "serialpos": 1, "trial_type": "single-stim", "trial_index": 226, "time_elapsed": 995037, "internal_node_id": "0.0-163.0"}}, {"uniqueid": "MTK1180:3QIYRE09Y4O78PY16N52LCZSFLO1N4", "current_trial": 227, "dateTime": 1513270581165, "trialdata": {"rt": -1, "stimulus": "<p id=\"stim\">SALAD</p>", "key_press": -1, "type": "PRES_VIS", "word": "salad", "wordID": 1223, "conditions": [12, 800, "v", 24000], "trial": 6, "serialpos": 2, "trial_type": "single-stim", "trial_index": 227, "time_elapsed": 996764, "internal_node_id": "0.0-164.0"}}, {"uniqueid": "MTK1180:3QIYRE09Y4O78PY16N52LCZSFLO1N4", "current_trial": 228, "dateTime": 1513270582942, "trialdata": {"rt": -1, "stimulus": "<p id=\"stim\">CONCERT</p>", "key_press": -1, "type": "PRES_VIS", "word": "concert", "wordID": 359, "conditions": [12, 800, "v", 24000], "trial": 6, "serialpos": 3, "trial_type": "single-stim", "trial_index": 228, "time_elapsed": 998541, "internal_node_id": "0.0-165.0"}}, {"uniqueid": "MTK1180:3QIYRE09Y4O78PY16N52LCZSFLO1N4", "current_trial": 229, "dateTime": 1513270584920, "trialdata": {"rt": -1, "stimulus": "<p id=\"stim\">PATIENT</p>", "key_press": -1, "type": "PRES_VIS", "word": "patient", "wordID": 1023, "conditions": [12, 800, "v", 24000], "trial": 6, "serialpos": 4, "trial_type": "single-stim", "trial_index": 229, "time_elapsed": 1000519, "internal_node_id": "0.0-166.0"}}, {"uniqueid": "MTK1180:3QIYRE09Y4O78PY16N52LCZSFLO1N4", "current_trial": 230, "dateTime": 1513270586577, "trialdata": {"rt": -1, "stimulus": "<p id=\"stim\">SEAL</p>", "key_press": -1, "type": "PRES_VIS", "word": "seal", "wordID": 1261, "conditions": [12, 800, "v", 24000], "trial": 6, "serialpos": 5, "trial_type": "single-stim", "trial_index": 230, "time_elapsed": 1002176, "internal_node_id": "0.0-167.0"}}, {"uniqueid": "MTK1180:3QIYRE09Y4O78PY16N52LCZSFLO1N4", "current_trial": 231, "dateTime": 1513270588220, "trialdata": {"rt": -1, "stimulus": "<p id=\"stim\">CONVICT</p>", "key_press": -1, "type": "PRES_VIS", "word": "convict", "wordID": 370, "conditions": [12, 800, "v", 24000], "trial": 6, "serialpos": 6, "trial_type": "single-stim", "trial_index": 231, "time_elapsed": 1003819, "internal_node_id": "0.0-168.0"}}, {"uniqueid": "MTK1180:3QIYRE09Y4O78PY16N52LCZSFLO1N4", "current_trial": 232, "dateTime": 1513270590245, "trialdata": {"rt": -1, "stimulus": "<p id=\"stim\">NURSE</p>", "key_press": -1, "type": "PRES_VIS", "word": "nurse", "wordID": 962, "conditions": [12, 800, "v", 24000], "trial": 6, "serialpos": 7, "trial_type": "single-stim", "trial_index": 232, "time_elapsed": 1005843, "internal_node_id": "0.0-169.0"}}, {"uniqueid": "MTK1180:3QIYRE09Y4O78PY16N52LCZSFLO1N4", "current_trial": 233, "dateTime": 1513270592197, "trialdata": {"rt": -1, "stimulus": "<p id=\"stim\">WAITRESS</p>", "key_press": -1, "type": "PRES_VIS", "word": "waitress", "wordID": 1580, "conditions": [12, 800, "v", 24000], "trial": 6, "serialpos": 8, "trial_type": "single-stim", "trial_index": 233, "time_elapsed": 1007796, "internal_node_id": "0.0-170.0"}}, {"uniqueid": "MTK1180:3QIYRE09Y4O78PY16N52LCZSFLO1N4", "current_trial": 234, "dateTime": 1513270594157, "trialdata": {"rt": -1, "stimulus": "<p id=\"stim\">HOSTESS</p>", "key_press": -1, "type": "PRES_VIS", "word": "hostess", "wordID": 722, "conditions": [12, 800, "v", 24000], "trial": 6, "serialpos": 9, "trial_type": "single-stim", "trial_index": 234, "time_elapsed": 1009756, "internal_node_id": "0.0-171.0"}}, {"uniqueid": "MTK1180:3QIYRE09Y4O78PY16N52LCZSFLO1N4", "current_trial": 235, "dateTime": 1513270596149, "trialdata": {"rt": -1, "stimulus": "<p id=\"stim\">DRILL</p>", "key_press": -1, "type": "PRES_VIS", "word": "drill", "wordID": 496, "conditions": [12, 800, "v", 24000], "trial": 6, "serialpos": 10, "trial_type": "single-stim", "trial_index": 235, "time_elapsed": 1011748, "internal_node_id": "0.0-172.0"}}, {"uniqueid": "MTK1180:3QIYRE09Y4O78PY16N52LCZSFLO1N4", "current_trial": 236, "dateTime": 1513270598011, "trialdata": {"rt": -1, "stimulus": "<p id=\"stim\">PIANO</p>", "key_press": -1, "type": "PRES_VIS", "word": "piano", "wordID": 1056, "conditions": [12, 800, "v", 24000], "trial": 6, "serialpos": 11, "trial_type": "single-stim", "trial_index": 236, "time_elapsed": 1013609, "internal_node_id": "0.0-173.0"}}, {"uniqueid": "MTK1180:3QIYRE09Y4O78PY16N52LCZSFLO1N4", "current_trial": 237, "dateTime": 1513270600346, "trialdata": {"rt": -1, "stimulus": "", "key_press": -1, "type": "PRE_RECALL_DELAY", "trial_type": "single-stim", "trial_index": 237, "time_elapsed": 1015944, "internal_node_id": "0.0-174.0-0.0"}}, {"uniqueid": "MTK1180:3QIYRE09Y4O78PY16N52LCZSFLO1N4", "current_trial": 238, "dateTime": 1513270600849, "trialdata": {"rt": -1000, "stimulus": "/static/audio/400Hz.wav", "key_press": -1, "type": "PRE_RECALL_ALERT", "trial_type": "single-audio", "trial_index": 238, "time_elapsed": 1016447, "internal_node_id": "0.0-175.0"}}, {"uniqueid": "MTK1180:3QIYRE09Y4O78PY16N52LCZSFLO1N4", "current_trial": 239, "dateTime": 1513270660879, "trialdata": {"rt": [3737, 6195, 9324, 13211, 19778, 24882, 28599], "recwords": ["piano", "drill", "hostess", "waitress", "concert", "plate", "salad"], "type": "FREE_RECALL", "conditions": [12, 800, "v", 24000], "trial": 6, "trial_type": "free-recall", "trial_index": 239, "time_elapsed": 1076457, "internal_node_id": "0.0-176.0-0.0"}}, {"uniqueid": "MTK1180:3QIYRE09Y4O78PY16N52LCZSFLO1N4", "current_trial": 240, "dateTime": 1513270664201, "trialdata": {"rt": 1319, "key_press": 13, "type": "INSTRUCTIONS", "trial_type": "text", "trial_index": 240, "time_elapsed": 1079800, "internal_node_id": "0.0-177.0"}}, {"uniqueid": "MTK1180:3QIYRE09Y4O78PY16N52LCZSFLO1N4", "current_trial": 241, "dateTime": 1513270678212, "trialdata": {"rt": [4805, 8089], "responses": ["17", "19"], "num1": [8, 3, 2], "num2": [4, 8, 7], "num3": [5, 8, 5], "type": "DISTRACTOR", "conditions": [24, 800, "a", 12000], "trial": 7, "trial_type": "math-distractor", "trial_index": 241, "time_elapsed": 1093810, "internal_node_id": "0.0-178.0"}}, {"uniqueid": "MTK1180:3QIYRE09Y4O78PY16N52LCZSFLO1N4", "current_trial": 242, "dateTime": 1513270681216, "trialdata": {"rt": -1, "stimulus": "<p id=\"stim\">10</p>", "key_press": -1, "trial_type": "single-stim", "trial_index": 242, "time_elapsed": 1096815, "internal_node_id": "0.0-179.0-0.0"}}, {"uniqueid": "MTK1180:3QIYRE09Y4O78PY16N52LCZSFLO1N4", "current_trial": 243, "dateTime": 1513270682219, "trialdata": {"rt": -1, "stimulus": "<p id=\"stim\">9</p>", "key_press": -1, "trial_type": "single-stim", "trial_index": 243, "time_elapsed": 1097818, "internal_node_id": "0.0-179.0-1.0"}}, {"uniqueid": "MTK1180:3QIYRE09Y4O78PY16N52LCZSFLO1N4", "current_trial": 244, "dateTime": 1513270683224, "trialdata": {"rt": -1, "stimulus": "<p id=\"stim\">8</p>", "key_press": -1, "trial_type": "single-stim", "trial_index": 244, "time_elapsed": 1098823, "internal_node_id": "0.0-179.0-2.0"}}, {"uniqueid": "MTK1180:3QIYRE09Y4O78PY16N52LCZSFLO1N4", "current_trial": 245, "dateTime": 1513270684227, "trialdata": {"rt": -1, "stimulus": "<p id=\"stim\">7</p>", "key_press": -1, "trial_type": "single-stim", "trial_index": 245, "time_elapsed": 1099825, "internal_node_id": "0.0-179.0-3.0"}}, {"uniqueid": "MTK1180:3QIYRE09Y4O78PY16N52LCZSFLO1N4", "current_trial": 246, "dateTime": 1513270685230, "trialdata": {"rt": -1, "stimulus": "<p id=\"stim\">6</p>", "key_press": -1, "trial_type": "single-stim", "trial_index": 246, "time_elapsed": 1100829, "internal_node_id": "0.0-179.0-4.0"}}, {"uniqueid": "MTK1180:3QIYRE09Y4O78PY16N52LCZSFLO1N4", "current_trial": 247, "dateTime": 1513270686236, "trialdata": {"rt": -1, "stimulus": "<p id=\"stim\">5</p>", "key_press": -1, "trial_type": "single-stim", "trial_index": 247, "time_elapsed": 1101834, "internal_node_id": "0.0-179.0-5.0"}}, {"uniqueid": "MTK1180:3QIYRE09Y4O78PY16N52LCZSFLO1N4", "current_trial": 248, "dateTime": 1513270687240, "trialdata": {"rt": -1, "stimulus": "<p id=\"stim\">4</p>", "key_press": -1, "trial_type": "single-stim", "trial_index": 248, "time_elapsed": 1102839, "internal_node_id": "0.0-179.0-6.0"}}, {"uniqueid": "MTK1180:3QIYRE09Y4O78PY16N52LCZSFLO1N4", "current_trial": 249, "dateTime": 1513270688242, "trialdata": {"rt": -1, "stimulus": "<p id=\"stim\">3</p>", "key_press": -1, "trial_type": "single-stim", "trial_index": 249, "time_elapsed": 1103841, "internal_node_id": "0.0-179.0-7.0"}}, {"uniqueid": "MTK1180:3QIYRE09Y4O78PY16N52LCZSFLO1N4", "current_trial": 250, "dateTime": 1513270689246, "trialdata": {"rt": -1, "stimulus": "<p id=\"stim\">2</p>", "key_press": -1, "trial_type": "single-stim", "trial_index": 250, "time_elapsed": 1104845, "internal_node_id": "0.0-179.0-8.0"}}, {"uniqueid": "MTK1180:3QIYRE09Y4O78PY16N52LCZSFLO1N4", "current_trial": 251, "dateTime": 1513270690250, "trialdata": {"rt": -1, "stimulus": "<p id=\"stim\">1</p>", "key_press": -1, "trial_type": "single-stim", "trial_index": 251, "time_elapsed": 1105848, "internal_node_id": "0.0-179.0-9.0"}}, {"uniqueid": "MTK1180:3QIYRE09Y4O78PY16N52LCZSFLO1N4", "current_trial": 252, "dateTime": 1513270691754, "trialdata": {"rt": -1, "stimulus": "<p id=\"stim\">+</p>", "key_press": -1, "type": "FIXATION", "trial_type": "single-stim", "trial_index": 252, "time_elapsed": 1107352, "internal_node_id": "0.0-180.0-0.0"}}, {"uniqueid": "MTK1180:3QIYRE09Y4O78PY16N52LCZSFLO1N4", "current_trial": 253, "dateTime": 1513270693604, "trialdata": {"rt": -1000, "stimulus": "/static/audio/wordpool/DUSTPAN.wav", "key_press": -1, "type": "PRES_AUD", "word": "dustpan", "wordID": 508, "conditions": [24, 800, "a", 12000], "trial": 7, "serialpos": 0, "trial_type": "single-audio", "trial_index": 253, "time_elapsed": 1109202, "internal_node_id": "0.0-181.0"}}, {"uniqueid": "MTK1180:3QIYRE09Y4O78PY16N52LCZSFLO1N4", "current_trial": 254, "dateTime": 1513270695364, "trialdata": {"rt": -1000, "stimulus": "/static/audio/wordpool/ROBBER.wav", "key_press": -1, "type": "PRES_AUD", "word": "robber", "wordID": 1196, "conditions": [24, 800, "a", 12000], "trial": 7, "serialpos": 1, "trial_type": "single-audio", "trial_index": 254, "time_elapsed": 1110963, "internal_node_id": "0.0-182.0"}}, {"uniqueid": "MTK1180:3QIYRE09Y4O78PY16N52LCZSFLO1N4", "current_trial": 255, "dateTime": 1513270697351, "trialdata": {"rt": -1000, "stimulus": "/static/audio/wordpool/RECEIPT.wav", "key_press": -1, "type": "PRES_AUD", "word": "receipt", "wordID": 1172, "conditions": [24, 800, "a", 12000], "trial": 7, "serialpos": 2, "trial_type": "single-audio", "trial_index": 255, "time_elapsed": 1112949, "internal_node_id": "0.0-183.0"}}, {"uniqueid": "MTK1180:3QIYRE09Y4O78PY16N52LCZSFLO1N4", "current_trial": 256, "dateTime": 1513270698963, "trialdata": {"rt": -1000, "stimulus": "/static/audio/wordpool/STICKER.wav", "key_press": -1, "type": "PRES_AUD", "word": "sticker", "wordID": 1381, "conditions": [24, 800, "a", 12000], "trial": 7, "serialpos": 3, "trial_type": "single-audio", "trial_index": 256, "time_elapsed": 1114562, "internal_node_id": "0.0-184.0"}}, {"uniqueid": "MTK1180:3QIYRE09Y4O78PY16N52LCZSFLO1N4", "current_trial": 257, "dateTime": 1513270700833, "trialdata": {"rt": -1000, "stimulus": "/static/audio/wordpool/FRUIT.wav", "key_press": -1, "type": "PRES_AUD", "word": "fruit", "wordID": 609, "conditions": [24, 800, "a", 12000], "trial": 7, "serialpos": 4, "trial_type": "single-audio", "trial_index": 257, "time_elapsed": 1116431, "internal_node_id": "0.0-185.0"}}, {"uniqueid": "MTK1180:3QIYRE09Y4O78PY16N52LCZSFLO1N4", "current_trial": 258, "dateTime": 1513270702804, "trialdata": {"rt": -1000, "stimulus": "/static/audio/wordpool/DENIM.wav", "key_press": -1, "type": "PRES_AUD", "word": "denim", "wordID": 445, "conditions": [24, 800, "a", 12000], "trial": 7, "serialpos": 5, "trial_type": "single-audio", "trial_index": 258, "time_elapsed": 1118402, "internal_node_id": "0.0-186.0"}}, {"uniqueid": "MTK1180:3QIYRE09Y4O78PY16N52LCZSFLO1N4", "current_trial": 259, "dateTime": 1513270704511, "trialdata": {"rt": -1000, "stimulus": "/static/audio/wordpool/DRESS.wav", "key_press": -1, "type": "PRES_AUD", "word": "dress", "wordID": 494, "conditions": [24, 800, "a", 12000], "trial": 7, "serialpos": 6, "trial_type": "single-audio", "trial_index": 259, "time_elapsed": 1120110, "internal_node_id": "0.0-187.0"}}, {"uniqueid": "MTK1180:3QIYRE09Y4O78PY16N52LCZSFLO1N4", "current_trial": 260, "dateTime": 1513270706153, "trialdata": {"rt": -1000, "stimulus": "/static/audio/wordpool/APPLE.wav", "key_press": -1, "type": "PRES_AUD", "word": "apple", "wordID": 32, "conditions": [24, 800, "a", 12000], "trial": 7, "serialpos": 7, "trial_type": "single-audio", "trial_index": 260, "time_elapsed": 1121751, "internal_node_id": "0.0-188.0"}}, {"uniqueid": "MTK1180:3QIYRE09Y4O78PY16N52LCZSFLO1N4", "current_trial": 261, "dateTime": 1513270707886, "trialdata": {"rt": -1000, "stimulus": "/static/audio/wordpool/CHILD.wav", "key_press": -1, "type": "PRES_AUD", "word": "child", "wordID": 298, "conditions": [24, 800, "a", 12000], "trial": 7, "serialpos": 8, "trial_type": "single-audio", "trial_index": 261, "time_elapsed": 1123484, "internal_node_id": "0.0-189.0"}}, {"uniqueid": "MTK1180:3QIYRE09Y4O78PY16N52LCZSFLO1N4", "current_trial": 262, "dateTime": 1513270709654, "trialdata": {"rt": -1000, "stimulus": "/static/audio/wordpool/BEAVER.wav", "key_press": -1, "type": "PRES_AUD", "word": "beaver", "wordID": 108, "conditions": [24, 800, "a", 12000], "trial": 7, "serialpos": 9, "trial_type": "single-audio", "trial_index": 262, "time_elapsed": 1125252, "internal_node_id": "0.0-190.0"}}, {"uniqueid": "MTK1180:3QIYRE09Y4O78PY16N52LCZSFLO1N4", "current_trial": 263, "dateTime": 1513270711599, "trialdata": {"rt": -1000, "stimulus": "/static/audio/wordpool/ATLAS.wav", "key_press": -1, "type": "PRES_AUD", "word": "atlas", "wordID": 52, "conditions": [24, 800, "a", 12000], "trial": 7, "serialpos": 10, "trial_type": "single-audio", "trial_index": 263, "time_elapsed": 1127197, "internal_node_id": "0.0-191.0"}}, {"uniqueid": "MTK1180:3QIYRE09Y4O78PY16N52LCZSFLO1N4", "current_trial": 264, "dateTime": 1513270713500, "trialdata": {"rt": -1000, "stimulus": "/static/audio/wordpool/PROTON.wav", "key_press": -1, "type": "PRES_AUD", "word": "proton", "wordID": 1131, "conditions": [24, 800, "a", 12000], "trial": 7, "serialpos": 11, "trial_type": "single-audio", "trial_index": 264, "time_elapsed": 1129099, "internal_node_id": "0.0-192.0"}}, {"uniqueid": "MTK1180:3QIYRE09Y4O78PY16N52LCZSFLO1N4", "current_trial": 265, "dateTime": 1513270715200, "trialdata": {"rt": -1000, "stimulus": "/static/audio/wordpool/POLICE.wav", "key_press": -1, "type": "PRES_AUD", "word": "police", "wordID": 1097, "conditions": [24, 800, "a", 12000], "trial": 7, "serialpos": 12, "trial_type": "single-audio", "trial_index": 265, "time_elapsed": 1130798, "internal_node_id": "0.0-193.0"}}, {"uniqueid": "MTK1180:3QIYRE09Y4O78PY16N52LCZSFLO1N4", "current_trial": 266, "dateTime": 1513270717051, "trialdata": {"rt": -1000, "stimulus": "/static/audio/wordpool/SPOUSE.wav", "key_press": -1, "type": "PRES_AUD", "word": "spouse", "wordID": 1357, "conditions": [24, 800, "a", 12000], "trial": 7, "serialpos": 13, "trial_type": "single-audio", "trial_index": 266, "time_elapsed": 1132649, "internal_node_id": "0.0-194.0"}}, {"uniqueid": "MTK1180:3QIYRE09Y4O78PY16N52LCZSFLO1N4", "current_trial": 267, "dateTime": 1513270718851, "trialdata": {"rt": -1000, "stimulus": "/static/audio/wordpool/JAPAN.wav", "key_press": -1, "type": "PRES_AUD", "word": "japan", "wordID": 748, "conditions": [24, 800, "a", 12000], "trial": 7, "serialpos": 14, "trial_type": "single-audio", "trial_index": 267, "time_elapsed": 1134449, "internal_node_id": "0.0-195.0"}}, {"uniqueid": "MTK1180:3QIYRE09Y4O78PY16N52LCZSFLO1N4", "current_trial": 268, "dateTime": 1513270720624, "trialdata": {"rt": -1000, "stimulus": "/static/audio/wordpool/PATROL.wav", "key_press": -1, "type": "PRES_AUD", "word": "patrol", "wordID": 1026, "conditions": [24, 800, "a", 12000], "trial": 7, "serialpos": 15, "trial_type": "single-audio", "trial_index": 268, "time_elapsed": 1136222, "internal_node_id": "0.0-196.0"}}, {"uniqueid": "MTK1180:3QIYRE09Y4O78PY16N52LCZSFLO1N4", "current_trial": 269, "dateTime": 1513270722593, "trialdata": {"rt": -1000, "stimulus": "/static/audio/wordpool/LIVER.wav", "key_press": -1, "type": "PRES_AUD", "word": "liver", "wordID": 832, "conditions": [24, 800, "a", 12000], "trial": 7, "serialpos": 16, "trial_type": "single-audio", "trial_index": 269, "time_elapsed": 1138191, "internal_node_id": "0.0-197.0"}}, {"uniqueid": "MTK1180:3QIYRE09Y4O78PY16N52LCZSFLO1N4", "current_trial": 270, "dateTime": 1513270724569, "trialdata": {"rt": -1000, "stimulus": "/static/audio/wordpool/MARROW.wav", "key_press": -1, "type": "PRES_AUD", "word": "marrow", "wordID": 871, "conditions": [24, 800, "a", 12000], "trial": 7, "serialpos": 17, "trial_type": "single-audio", "trial_index": 270, "time_elapsed": 1140167, "internal_node_id": "0.0-198.0"}}, {"uniqueid": "MTK1180:3QIYRE09Y4O78PY16N52LCZSFLO1N4", "current_trial": 271, "dateTime": 1513270726200, "trialdata": {"rt": -1000, "stimulus": "/static/audio/wordpool/COWBOY.wav", "key_press": -1, "type": "PRES_AUD", "word": "cowboy", "wordID": 394, "conditions": [24, 800, "a", 12000], "trial": 7, "serialpos": 18, "trial_type": "single-audio", "trial_index": 271, "time_elapsed": 1141798, "internal_node_id": "0.0-199.0"}}, {"uniqueid": "MTK1180:3QIYRE09Y4O78PY16N52LCZSFLO1N4", "current_trial": 272, "dateTime": 1513270728002, "trialdata": {"rt": -1000, "stimulus": "/static/audio/wordpool/STOMACH.wav", "key_press": -1, "type": "PRES_AUD", "word": "stomach", "wordID": 1383, "conditions": [24, 800, "a", 12000], "trial": 7, "serialpos": 19, "trial_type": "single-audio", "trial_index": 272, "time_elapsed": 1143600, "internal_no