{"condition": 0, "counterbalance": 665, "assignmentId": "33PPO7FECWM9MJ3MP0C5H64KIC9DIO", "workerId": "MTK1018", "hitId": "3OJX0UFJ0ZE050NBHZRFPTDL5DIU9O", "currenttrial": 627, "bonus": 0, "data": [{"uniqueid": "MTK1018:33PPO7FECWM9MJ3MP0C5H64KIC9DIO", "current_trial": 0, "dateTime": 1513006735465, "trialdata": {"rt": 9226, "key_press": 32, "type": "INSTRUCTIONS", "trial_type": "text", "trial_index": 0, "time_elapsed": 9232, "internal_node_id": "0.0-0.0"}}, {"uniqueid": "MTK1018:33PPO7FECWM9MJ3MP0C5H64KIC9DIO", "current_trial": 1, "dateTime": 1513006739582, "trialdata": {"rt": 4112, "key_press": 175, "type": "INSTRUCTIONS", "trial_type": "text", "trial_index": 1, "time_elapsed": 13352, "internal_node_id": "0.0-1.0"}}, {"uniqueid": "MTK1018:33PPO7FECWM9MJ3MP0C5H64KIC9DIO", "current_trial": 2, "dateTime": 1513006763048, "trialdata": {"rt": [23425], "responses": ["ocean"], "type": "AUDIO_TEST", "trial_type": "audio-test", "trial_index": 2, "time_elapsed": 36818, "internal_node_id": "0.0-2.0"}}, {"uniqueid": "MTK1018:33PPO7FECWM9MJ3MP0C5H64KIC9DIO", "current_trial": 3, "dateTime": 1513006770868, "trialdata": {"rt": [7803], "responses": ["crystal"], "type": "AUDIO_TEST", "trial_type": "audio-test", "trial_index": 3, "time_elapsed": 44638, "internal_node_id": "0.0-3.0"}}, {"uniqueid": "MTK1018:33PPO7FECWM9MJ3MP0C5H64KIC9DIO", "current_trial": 4, "dateTime": 1513006777738, "trialdata": {"rt": [6861], "responses": ["spice"], "type": "AUDIO_TEST", "trial_type": "audio-test", "trial_index": 4, "time_elapsed": 51508, "internal_node_id": "0.0-4.0"}}, {"uniqueid": "MTK1018:33PPO7FECWM9MJ3MP0C5H64KIC9DIO", "current_trial": 5, "dateTime": 1513006798887, "trialdata": {"rt": 20393, "responses": "{\"Q0\":\"10:30\",\"Q1\":\"5:40\",\"Q2\":\"5\"}", "type": "SLEEP_SURVEY", "trial_type": "survey-text", "trial_index": 5, "time_elapsed": 72656, "internal_node_id": "0.0-5.0"}}, {"uniqueid": "MTK1018:33PPO7FECWM9MJ3MP0C5H64KIC9DIO", "current_trial": 6, "dateTime": 1513006824673, "trialdata": {"rt": 24784, "key_press": 32, "type": "INSTRUCTIONS", "trial_type": "text", "trial_index": 6, "time_elapsed": 98442, "internal_node_id": "0.0-6.0"}}, {"uniqueid": "MTK1018:33PPO7FECWM9MJ3MP0C5H64KIC9DIO", "current_trial": 7, "dateTime": 1513006840300, "trialdata": {"rt": 15126, "key_press": 32, "type": "INSTRUCTIONS", "trial_type": "text", "trial_index": 7, "time_elapsed": 114070, "internal_node_id": "0.0-7.0"}}, {"uniqueid": "MTK1018:33PPO7FECWM9MJ3MP0C5H64KIC9DIO", "current_trial": 8, "dateTime": 1513006845627, "trialdata": {"rt": 4824, "key_press": 32, "type": "INSTRUCTIONS", "trial_type": "text", "trial_index": 8, "time_elapsed": 119397, "internal_node_id": "0.0-8.0"}}, {"uniqueid": "MTK1018:33PPO7FECWM9MJ3MP0C5H64KIC9DIO", "current_trial": 9, "dateTime": 1513006864647, "trialdata": {"rt": [12179, 17202], "responses": ["17", "12"], "num1": [3, 4, 5], "num2": [8, 1, 3], "num3": [6, 7, 1], "type": "DISTRACTOR", "conditions": [18, 1200, "a", 18000], "trial": 0, "trial_type": "math-distractor", "trial_index": 9, "time_elapsed": 138417, "internal_node_id": "0.0-9.0"}}, {"uniqueid": "MTK1018:33PPO7FECWM9MJ3MP0C5H64KIC9DIO", "current_trial": 10, "dateTime": 1513006867652, "trialdata": {"rt": -1, "stimulus": "<p id=\"stim\">10</p>", "key_press": -1, "trial_type": "single-stim", "trial_index": 10, "time_elapsed": 141422, "internal_node_id": "0.0-10.0-0.0"}}, {"uniqueid": "MTK1018:33PPO7FECWM9MJ3MP0C5H64KIC9DIO", "current_trial": 11, "dateTime": 1513006868657, "trialdata": {"rt": -1, "stimulus": "<p id=\"stim\">9</p>", "key_press": -1, "trial_type": "single-stim", "trial_index": 11, "time_elapsed": 142426, "internal_node_id": "0.0-10.0-1.0"}}, {"uniqueid": "MTK1018:33PPO7FECWM9MJ3MP0C5H64KIC9DIO", "current_trial": 12, "dateTime": 1513006869660, "trialdata": {"rt": -1, "stimulus": "<p id=\"stim\">8</p>", "key_press": -1, "trial_type": "single-stim", "trial_index": 12, "time_elapsed": 143430, "internal_node_id": "0.0-10.0-2.0"}}, {"uniqueid": "MTK1018:33PPO7FECWM9MJ3MP0C5H64KIC9DIO", "current_trial": 13, "dateTime": 1513006870662, "trialdata": {"rt": -1, "stimulus": "<p id=\"stim\">7</p>", "key_press": -1, "trial_type": "single-stim", "trial_index": 13, "time_elapsed": 144432, "internal_node_id": "0.0-10.0-3.0"}}, {"uniqueid": "MTK1018:33PPO7FECWM9MJ3MP0C5H64KIC9DIO", "current_trial": 14, "dateTime": 1513006871666, "trialdata": {"rt": -1, "stimulus": "<p id=\"stim\">6</p>", "key_press": -1, "trial_type": "single-stim", "trial_index": 14, "time_elapsed": 145436, "internal_node_id": "0.0-10.0-4.0"}}, {"uniqueid": "MTK1018:33PPO7FECWM9MJ3MP0C5H64KIC9DIO", "current_trial": 15, "dateTime": 1513006872669, "trialdata": {"rt": -1, "stimulus": "<p id=\"stim\">5</p>", "key_press": -1, "trial_type": "single-stim", "trial_index": 15, "time_elapsed": 146438, "internal_node_id": "0.0-10.0-5.0"}}, {"uniqueid": "MTK1018:33PPO7FECWM9MJ3MP0C5H64KIC9DIO", "current_trial": 16, "dateTime": 1513006873671, "trialdata": {"rt": -1, "stimulus": "<p id=\"stim\">4</p>", "key_press": -1, "trial_type": "single-stim", "trial_index": 16, "time_elapsed": 147441, "internal_node_id": "0.0-10.0-6.0"}}, {"uniqueid": "MTK1018:33PPO7FECWM9MJ3MP0C5H64KIC9DIO", "current_trial": 17, "dateTime": 1513006874674, "trialdata": {"rt": -1, "stimulus": "<p id=\"stim\">3</p>", "key_press": -1, "trial_type": "single-stim", "trial_index": 17, "time_elapsed": 148444, "internal_node_id": "0.0-10.0-7.0"}}, {"uniqueid": "MTK1018:33PPO7FECWM9MJ3MP0C5H64KIC9DIO", "current_trial": 18, "dateTime": 1513006875678, "trialdata": {"rt": -1, "stimulus": "<p id=\"stim\">2</p>", "key_press": -1, "trial_type": "single-stim", "trial_index": 18, "time_elapsed": 149447, "internal_node_id": "0.0-10.0-8.0"}}, {"uniqueid": "MTK1018:33PPO7FECWM9MJ3MP0C5H64KIC9DIO", "current_trial": 19, "dateTime": 1513006876680, "trialdata": {"rt": -1, "stimulus": "<p id=\"stim\">1</p>", "key_press": -1, "trial_type": "single-stim", "trial_index": 19, "time_elapsed": 150449, "internal_node_id": "0.0-10.0-9.0"}}, {"uniqueid": "MTK1018:33PPO7FECWM9MJ3MP0C5H64KIC9DIO", "current_trial": 20, "dateTime": 1513006878182, "trialdata": {"rt": -1, "stimulus": "<p id=\"stim\">+</p>", "key_press": -1, "type": "FIXATION", "trial_type": "single-stim", "trial_index": 20, "time_elapsed": 151952, "internal_node_id": "0.0-11.0-0.0"}}, {"uniqueid": "MTK1018:33PPO7FECWM9MJ3MP0C5H64KIC9DIO", "current_trial": 21, "dateTime": 1513006880634, "trialdata": {"rt": -1000, "stimulus": "/static/audio/wordpool/FRIEND.wav", "key_press": -1, "type": "PRES_AUD", "word": "friend", "wordID": 605, "conditions": [18, 1200, "a", 18000], "trial": 0, "serialpos": 0, "trial_type": "single-audio", "trial_index": 21, "time_elapsed": 154404, "internal_node_id": "0.0-12.0"}}, {"uniqueid": "MTK1018:33PPO7FECWM9MJ3MP0C5H64KIC9DIO", "current_trial": 22, "dateTime": 1513006882672, "trialdata": {"rt": 1510.6666666666797, "stimulus": "/static/audio/wordpool/CLAM.wav", "key_press": 175, "type": "PRES_AUD", "word": "clam", "wordID": 314, "conditions": [18, 1200, "a", 18000], "trial": 0, "serialpos": 1, "trial_type": "single-audio", "trial_index": 22, "time_elapsed": 156442, "internal_node_id": "0.0-13.0"}}, {"uniqueid": "MTK1018:33PPO7FECWM9MJ3MP0C5H64KIC9DIO", "current_trial": 23, "dateTime": 1513006884800, "trialdata": {"rt": -20.000000000010232, "stimulus": "/static/audio/wordpool/OMELET.wav", "key_press": 175, "type": "PRES_AUD", "word": "omelet", "wordID": 975, "conditions": [18, 1200, "a", 18000], "trial": 0, "serialpos": 2, "trial_type": "single-audio", "trial_index": 23, "time_elapsed": 158569, "internal_node_id": "0.0-14.0"}}, {"uniqueid": "MTK1018:33PPO7FECWM9MJ3MP0C5H64KIC9DIO", "current_trial": 24, "dateTime": 1513006886880, "trialdata": {"rt": -1000, "stimulus": "/static/audio/wordpool/MUSTARD.wav", "key_press": -1, "type": "PRES_AUD", "word": "mustard", "wordID": 934, "conditions": [18, 1200, "a", 18000], "trial": 0, "serialpos": 3, "trial_type": "single-audio", "trial_index": 24, "time_elapsed": 160650, "internal_node_id": "0.0-15.0"}}, {"uniqueid": "MTK1018:33PPO7FECWM9MJ3MP0C5H64KIC9DIO", "current_trial": 25, "dateTime": 1513006888914, "trialdata": {"rt": -1000, "stimulus": "/static/audio/wordpool/BOUQUET.wav", "key_press": -1, "type": "PRES_AUD", "word": "bouquet", "wordID": 156, "conditions": [18, 1200, "a", 18000], "trial": 0, "serialpos": 4, "trial_type": "single-audio", "trial_index": 25, "time_elapsed": 162684, "internal_node_id": "0.0-16.0"}}, {"uniqueid": "MTK1018:33PPO7FECWM9MJ3MP0C5H64KIC9DIO", "current_trial": 26, "dateTime": 1513006891053, "trialdata": {"rt": -1000, "stimulus": "/static/audio/wordpool/COUNTY.wav", "key_press": -1, "type": "PRES_AUD", "word": "county", "wordID": 388, "conditions": [18, 1200, "a", 18000], "trial": 0, "serialpos": 5, "trial_type": "single-audio", "trial_index": 26, "time_elapsed": 164822, "internal_node_id": "0.0-17.0"}}, {"uniqueid": "MTK1018:33PPO7FECWM9MJ3MP0C5H64KIC9DIO", "current_trial": 27, "dateTime": 1513006893224, "trialdata": {"rt": -1000, "stimulus": "/static/audio/wordpool/PEACH.wav", "key_press": -1, "type": "PRES_AUD", "word": "peach", "wordID": 1030, "conditions": [18, 1200, "a", 18000], "trial": 0, "serialpos": 6, "trial_type": "single-audio", "trial_index": 27, "time_elapsed": 166994, "internal_node_id": "0.0-18.0"}}, {"uniqueid": "MTK1018:33PPO7FECWM9MJ3MP0C5H64KIC9DIO", "current_trial": 28, "dateTime": 1513006895618, "trialdata": {"rt": -1000, "stimulus": "/static/audio/wordpool/STOVE.wav", "key_press": -1, "type": "PRES_AUD", "word": "stove", "wordID": 1387, "conditions": [18, 1200, "a", 18000], "trial": 0, "serialpos": 7, "trial_type": "single-audio", "trial_index": 28, "time_elapsed": 169388, "internal_node_id": "0.0-19.0"}}, {"uniqueid": "MTK1018:33PPO7FECWM9MJ3MP0C5H64KIC9DIO", "current_trial": 29, "dateTime": 1513006897644, "trialdata": {"rt": -1000, "stimulus": "/static/audio/wordpool/CONVICT.wav", "key_press": -1, "type": "PRES_AUD", "word": "convict", "wordID": 370, "conditions": [18, 1200, "a", 18000], "trial": 0, "serialpos": 8, "trial_type": "single-audio", "trial_index": 29, "time_elapsed": 171413, "internal_node_id": "0.0-20.0"}}, {"uniqueid": "MTK1018:33PPO7FECWM9MJ3MP0C5H64KIC9DIO", "current_trial": 30, "dateTime": 1513006900045, "trialdata": {"rt": -1000, "stimulus": "/static/audio/wordpool/FARMER.wav", "key_press": -1, "type": "PRES_AUD", "word": "farmer", "wordID": 552, "conditions": [18, 1200, "a", 18000], "trial": 0, "serialpos": 9, "trial_type": "single-audio", "trial_index": 30, "time_elapsed": 173815, "internal_node_id": "0.0-21.0"}}, {"uniqueid": "MTK1018:33PPO7FECWM9MJ3MP0C5H64KIC9DIO", "current_trial": 31, "dateTime": 1513006902327, "trialdata": {"rt": -1000, "stimulus": "/static/audio/wordpool/PEPPER.wav", "key_press": -1, "type": "PRES_AUD", "word": "pepper", "wordID": 1046, "conditions": [18, 1200, "a", 18000], "trial": 0, "serialpos": 10, "trial_type": "single-audio", "trial_index": 31, "time_elapsed": 176096, "internal_node_id": "0.0-22.0"}}, {"uniqueid": "MTK1018:33PPO7FECWM9MJ3MP0C5H64KIC9DIO", "current_trial": 32, "dateTime": 1513006904566, "trialdata": {"rt": -1000, "stimulus": "/static/audio/wordpool/MARKET.wav", "key_press": -1, "type": "PRES_AUD", "word": "market", "wordID": 870, "conditions": [18, 1200, "a", 18000], "trial": 0, "serialpos": 11, "trial_type": "single-audio", "trial_index": 32, "time_elapsed": 178336, "internal_node_id": "0.0-23.0"}}, {"uniqueid": "MTK1018:33PPO7FECWM9MJ3MP0C5H64KIC9DIO", "current_trial": 33, "dateTime": 1513006906682, "trialdata": {"rt": -1000, "stimulus": "/static/audio/wordpool/ZIPPER.wav", "key_press": -1, "type": "PRES_AUD", "word": "zipper", "wordID": 1635, "conditions": [18, 1200, "a", 18000], "trial": 0, "serialpos": 12, "trial_type": "single-audio", "trial_index": 33, "time_elapsed": 180451, "internal_node_id": "0.0-24.0"}}, {"uniqueid": "MTK1018:33PPO7FECWM9MJ3MP0C5H64KIC9DIO", "current_trial": 34, "dateTime": 1513006908805, "trialdata": {"rt": -1000, "stimulus": "/static/audio/wordpool/LEADER.wav", "key_press": -1, "type": "PRES_AUD", "word": "leader", "wordID": 806, "conditions": [18, 1200, "a", 18000], "trial": 0, "serialpos": 13, "trial_type": "single-audio", "trial_index": 34, "time_elapsed": 182575, "internal_node_id": "0.0-25.0"}}, {"uniqueid": "MTK1018:33PPO7FECWM9MJ3MP0C5H64KIC9DIO", "current_trial": 35, "dateTime": 1513006910889, "trialdata": {"rt": -1000, "stimulus": "/static/audio/wordpool/STAPLE.wav", "key_press": -1, "type": "PRES_AUD", "word": "staple", "wordID": 1370, "conditions": [18, 1200, "a", 18000], "trial": 0, "serialpos": 14, "trial_type": "single-audio", "trial_index": 35, "time_elapsed": 184659, "internal_node_id": "0.0-26.0"}}, {"uniqueid": "MTK1018:33PPO7FECWM9MJ3MP0C5H64KIC9DIO", "current_trial": 36, "dateTime": 1513006912909, "trialdata": {"rt": -1000, "stimulus": "/static/audio/wordpool/SHORTCAKE.wav", "key_press": -1, "type": "PRES_AUD", "word": "shortcake", "wordID": 1291, "conditions": [18, 1200, "a", 18000], "trial": 0, "serialpos": 15, "trial_type": "single-audio", "trial_index": 36, "time_elapsed": 186679, "internal_node_id": "0.0-27.0"}}, {"uniqueid": "MTK1018:33PPO7FECWM9MJ3MP0C5H64KIC9DIO", "current_trial": 37, "dateTime": 1513006915226, "trialdata": {"rt": -1000, "stimulus": "/static/audio/wordpool/MARS.wav", "key_press": -1, "type": "PRES_AUD", "word": "mars", "wordID": 872, "conditions": [18, 1200, "a", 18000], "trial": 0, "serialpos": 16, "trial_type": "single-audio", "trial_index": 37, "time_elapsed": 188995, "internal_node_id": "0.0-28.0"}}, {"uniqueid": "MTK1018:33PPO7FECWM9MJ3MP0C5H64KIC9DIO", "current_trial": 38, "dateTime": 1513006917310, "trialdata": {"rt": -1000, "stimulus": "/static/audio/wordpool/CROWN.wav", "key_press": -1, "type": "PRES_AUD", "word": "crown", "wordID": 414, "conditions": [18, 1200, "a", 18000], "trial": 0, "serialpos": 17, "trial_type": "single-audio", "trial_index": 38, "time_elapsed": 191080, "internal_node_id": "0.0-29.0"}}, {"uniqueid": "MTK1018:33PPO7FECWM9MJ3MP0C5H64KIC9DIO", "current_trial": 39, "dateTime": 1513006918603, "trialdata": {"rt": -1, "stimulus": "", "key_press": -1, "type": "PRE_RECALL_DELAY", "trial_type": "single-stim", "trial_index": 39, "time_elapsed": 192373, "internal_node_id": "0.0-30.0-0.0"}}, {"uniqueid": "MTK1018:33PPO7FECWM9MJ3MP0C5H64KIC9DIO", "current_trial": 40, "dateTime": 1513006919105, "trialdata": {"rt": -1000, "stimulus": "/static/audio/400Hz.wav", "key_press": -1, "type": "PRE_RECALL_ALERT", "trial_type": "single-audio", "trial_index": 40, "time_elapsed": 192875, "internal_node_id": "0.0-31.0"}}, {"uniqueid": "MTK1018:33PPO7FECWM9MJ3MP0C5H64KIC9DIO", "current_trial": 41, "dateTime": 1513006979114, "trialdata": {"rt": [4287, 8357, 16921, 17986, 19252, 26105, 36494], "recwords": ["farmer", "mustard", "omlet", "", "", "leader", "bonquet"], "type": "FREE_RECALL", "conditions": [18, 1200, "a", 18000], "trial": 0, "trial_type": "free-recall", "trial_index": 41, "time_elapsed": 252880, "internal_node_id": "0.0-32.0-0.0"}}, {"uniqueid": "MTK1018:33PPO7FECWM9MJ3MP0C5H64KIC9DIO", "current_trial": 42, "dateTime": 1513006988419, "trialdata": {"rt": 7302, "key_press": 32, "type": "INSTRUCTIONS", "trial_type": "text", "trial_index": 42, "time_elapsed": 262189, "internal_node_id": "0.0-33.0"}}, {"uniqueid": "MTK1018:33PPO7FECWM9MJ3MP0C5H64KIC9DIO", "current_trial": 43, "dateTime": 1513007008424, "trialdata": {"rt": [5601, 10285, 13506, 16698], "responses": ["16", "21", "19", "9"], "num1": [5, 9, 8, 2, 1], "num2": [3, 5, 9, 5, 6], "num3": [8, 7, 2, 2, 8], "type": "DISTRACTOR", "conditions": [18, 1200, "v", 18000], "trial": 1, "trial_type": "math-distractor", "trial_index": 43, "time_elapsed": 282194, "internal_node_id": "0.0-34.0"}}, {"uniqueid": "MTK1018:33PPO7FECWM9MJ3MP0C5H64KIC9DIO", "current_trial": 44, "dateTime": 1513007011429, "trialdata": {"rt": -1, "stimulus": "<p id=\"stim\">10</p>", "key_press": -1, "trial_type": "single-stim", "trial_index": 44, "time_elapsed": 285198, "internal_node_id": "0.0-35.0-0.0"}}, {"uniqueid": "MTK1018:33PPO7FECWM9MJ3MP0C5H64KIC9DIO", "current_trial": 45, "dateTime": 1513007012432, "trialdata": {"rt": -1, "stimulus": "<p id=\"stim\">9</p>", "key_press": -1, "trial_type": "single-stim", "trial_index": 45, "time_elapsed": 286201, "internal_node_id": "0.0-35.0-1.0"}}, {"uniqueid": "MTK1018:33PPO7FECWM9MJ3MP0C5H64KIC9DIO", "current_trial": 46, "dateTime": 1513007013435, "trialdata": {"rt": -1, "stimulus": "<p id=\"stim\">8</p>", "key_press": -1, "trial_type": "single-stim", "trial_index": 46, "time_elapsed": 287205, "internal_node_id": "0.0-35.0-2.0"}}, {"uniqueid": "MTK1018:33PPO7FECWM9MJ3MP0C5H64KIC9DIO", "current_trial": 47, "dateTime": 1513007014437, "trialdata": {"rt": -1, "stimulus": "<p id=\"stim\">7</p>", "key_press": -1, "trial_type": "single-stim", "trial_index": 47, "time_elapsed": 288207, "internal_node_id": "0.0-35.0-3.0"}}, {"uniqueid": "MTK1018:33PPO7FECWM9MJ3MP0C5H64KIC9DIO", "current_trial": 48, "dateTime": 1513007015439, "trialdata": {"rt": -1, "stimulus": "<p id=\"stim\">6</p>", "key_press": -1, "trial_type": "single-stim", "trial_index": 48, "time_elapsed": 289209, "internal_node_id": "0.0-35.0-4.0"}}, {"uniqueid": "MTK1018:33PPO7FECWM9MJ3MP0C5H64KIC9DIO", "current_trial": 49, "dateTime": 1513007016465, "trialdata": {"rt": -1, "stimulus": "<p id=\"stim\">5</p>", "key_press": -1, "trial_type": "single-stim", "trial_index": 49, "time_elapsed": 290235, "internal_node_id": "0.0-35.0-5.0"}}, {"uniqueid": "MTK1018:33PPO7FECWM9MJ3MP0C5H64KIC9DIO", "current_trial": 50, "dateTime": 1513007017468, "trialdata": {"rt": -1, "stimulus": "<p id=\"stim\">4</p>", "key_press": -1, "trial_type": "single-stim", "trial_index": 50, "time_elapsed": 291238, "internal_node_id": "0.0-35.0-6.0"}}, {"uniqueid": "MTK1018:33PPO7FECWM9MJ3MP0C5H64KIC9DIO", "current_trial": 51, "dateTime": 1513007018472, "trialdata": {"rt": -1, "stimulus": "<p id=\"stim\">3</p>", "key_press": -1, "trial_type": "single-stim", "trial_index": 51, "time_elapsed": 292242, "internal_node_id": "0.0-35.0-7.0"}}, {"uniqueid": "MTK1018:33PPO7FECWM9MJ3MP0C5H64KIC9DIO", "current_trial": 52, "dateTime": 1513007019474, "trialdata": {"rt": -1, "stimulus": "<p id=\"stim\">2</p>", "key_press": -1, "trial_type": "single-stim", "trial_index": 52, "time_elapsed": 293244, "internal_node_id": "0.0-35.0-8.0"}}, {"uniqueid": "MTK1018:33PPO7FECWM9MJ3MP0C5H64KIC9DIO", "current_trial": 53, "dateTime": 1513007020476, "trialdata": {"rt": -1, "stimulus": "<p id=\"stim\">1</p>", "key_press": -1, "trial_type": "single-stim", "trial_index": 53, "time_elapsed": 294246, "internal_node_id": "0.0-35.0-9.0"}}, {"uniqueid": "MTK1018:33PPO7FECWM9MJ3MP0C5H64KIC9DIO", "current_trial": 54, "dateTime": 1513007021979, "trialdata": {"rt": -1, "stimulus": "<p id=\"stim\">+</p>", "key_press": -1, "type": "FIXATION", "trial_type": "single-stim", "trial_index": 54, "time_elapsed": 295749, "internal_node_id": "0.0-36.0-0.0"}}, {"uniqueid": "MTK1018:33PPO7FECWM9MJ3MP0C5H64KIC9DIO", "current_trial": 55, "dateTime": 1513007023183, "trialdata": {"rt": -1, "stimulus": "<p id=\"stim\">PERMIT</p>", "key_press": -1, "type": "PRES_VIS", "word": "permit", "wordID": 1050, "conditions": [18, 1200, "v", 18000], "trial": 1, "serialpos": 0, "trial_type": "single-stim", "trial_index": 55, "time_elapsed": 296951, "internal_node_id": "0.0-37.0"}}, {"uniqueid": "MTK1018:33PPO7FECWM9MJ3MP0C5H64KIC9DIO", "current_trial": 56, "dateTime": 1513007025297, "trialdata": {"rt": -1, "stimulus": "<p id=\"stim\">PRINCESS</p>", "key_press": -1, "type": "PRES_VIS", "word": "princess", "wordID": 1124, "conditions": [18, 1200, "v", 18000], "trial": 1, "serialpos": 1, "trial_type": "single-stim", "trial_index": 56, "time_elapsed": 299067, "internal_node_id": "0.0-38.0"}}, {"uniqueid": "MTK1018:33PPO7FECWM9MJ3MP0C5H64KIC9DIO", "current_trial": 57, "dateTime": 1513007027499, "trialdata": {"rt": -1, "stimulus": "<p id=\"stim\">BEAST</p>", "key_press": -1, "type": "PRES_VIS", "word": "beast", "wordID": 107, "conditions": [18, 1200, "v", 18000], "trial": 1, "serialpos": 2, "trial_type": "single-stim", "trial_index": 57, "time_elapsed": 301269, "internal_node_id": "0.0-39.0"}}, {"uniqueid": "MTK1018:33PPO7FECWM9MJ3MP0C5H64KIC9DIO", "current_trial": 58, "dateTime": 1513007029701, "trialdata": {"rt": -1, "stimulus": "<p id=\"stim\">HOUND</p>", "key_press": -1, "type": "PRES_VIS", "word": "hound", "wordID": 723, "conditions": [18, 1200, "v", 18000], "trial": 1, "serialpos": 3, "trial_type": "single-stim", "trial_index": 58, "time_elapsed": 303471, "internal_node_id": "0.0-40.0"}}, {"uniqueid": "MTK1018:33PPO7FECWM9MJ3MP0C5H64KIC9DIO", "current_trial": 59, "dateTime": 1513007031873, "trialdata": {"rt": -1, "stimulus": "<p id=\"stim\">KNAPSACK</p>", "key_press": -1, "type": "PRES_VIS", "word": "knapsack", "wordID": 782, "conditions": [18, 1200, "v", 18000], "trial": 1, "serialpos": 4, "trial_type": "single-stim", "trial_index": 59, "time_elapsed": 305643, "internal_node_id": "0.0-41.0"}}, {"uniqueid": "MTK1018:33PPO7FECWM9MJ3MP0C5H64KIC9DIO", "current_trial": 60, "dateTime": 1513007034157, "trialdata": {"rt": -1, "stimulus": "<p id=\"stim\">TURKEY</p>", "key_press": -1, "type": "PRES_VIS", "word": "turkey", "wordID": 1519, "conditions": [18, 1200, "v", 18000], "trial": 1, "serialpos": 5, "trial_type": "single-stim", "trial_index": 60, "time_elapsed": 307927, "internal_node_id": "0.0-42.0"}}, {"uniqueid": "MTK1018:33PPO7FECWM9MJ3MP0C5H64KIC9DIO", "current_trial": 61, "dateTime": 1513007036385, "trialdata": {"rt": -1, "stimulus": "<p id=\"stim\">SNACK</p>", "key_press": -1, "type": "PRES_VIS", "word": "snack", "wordID": 1330, "conditions": [18, 1200, "v", 18000], "trial": 1, "serialpos": 6, "trial_type": "single-stim", "trial_index": 61, "time_elapsed": 310155, "internal_node_id": "0.0-43.0"}}, {"uniqueid": "MTK1018:33PPO7FECWM9MJ3MP0C5H64KIC9DIO", "current_trial": 62, "dateTime": 1513007038456, "trialdata": {"rt": -1, "stimulus": "<p id=\"stim\">CURTAIN</p>", "key_press": -1, "type": "PRES_VIS", "word": "curtain", "wordID": 426, "conditions": [18, 1200, "v", 18000], "trial": 1, "serialpos": 7, "trial_type": "single-stim", "trial_index": 62, "time_elapsed": 312225, "internal_node_id": "0.0-44.0"}}, {"uniqueid": "MTK1018:33PPO7FECWM9MJ3MP0C5H64KIC9DIO", "current_trial": 63, "dateTime": 1513007040528, "trialdata": {"rt": -1, "stimulus": "<p id=\"stim\">BUTCHER</p>", "key_press": -1, "type": "PRES_VIS", "word": "butcher", "wordID": 202, "conditions": [18, 1200, "v", 18000], "trial": 1, "serialpos": 8, "trial_type": "single-stim", "trial_index": 63, "time_elapsed": 314298, "internal_node_id": "0.0-45.0"}}, {"uniqueid": "MTK1018:33PPO7FECWM9MJ3MP0C5H64KIC9DIO", "current_trial": 64, "dateTime": 1513007042575, "trialdata": {"rt": -1, "stimulus": "<p id=\"stim\">UNCLE</p>", "key_press": -1, "type": "PRES_VIS", "word": "uncle", "wordID": 1535, "conditions": [18, 1200, "v", 18000], "trial": 1, "serialpos": 9, "trial_type": "single-stim", "trial_index": 64, "time_elapsed": 316345, "internal_node_id": "0.0-46.0"}}, {"uniqueid": "MTK1018:33PPO7FECWM9MJ3MP0C5H64KIC9DIO", "current_trial": 65, "dateTime": 1513007044742, "trialdata": {"rt": -1, "stimulus": "<p id=\"stim\">WASP</p>", "key_press": -1, "type": "PRES_VIS", "word": "wasp", "wordID": 1592, "conditions": [18, 1200, "v", 18000], "trial": 1, "serialpos": 10, "trial_type": "single-stim", "trial_index": 65, "time_elapsed": 318512, "internal_node_id": "0.0-47.0"}}, {"uniqueid": "MTK1018:33PPO7FECWM9MJ3MP0C5H64KIC9DIO", "current_trial": 66, "dateTime": 1513007046971, "trialdata": {"rt": -1, "stimulus": "<p id=\"stim\">SWITCH</p>", "key_press": -1, "type": "PRES_VIS", "word": "switch", "wordID": 1421, "conditions": [18, 1200, "v", 18000], "trial": 1, "serialpos": 11, "trial_type": "single-stim", "trial_index": 66, "time_elapsed": 320741, "internal_node_id": "0.0-48.0"}}, {"uniqueid": "MTK1018:33PPO7FECWM9MJ3MP0C5H64KIC9DIO", "current_trial": 67, "dateTime": 1513007049158, "trialdata": {"rt": -1, "stimulus": "<p id=\"stim\">INFANT</p>", "key_press": -1, "type": "PRES_VIS", "word": "infant", "wordID": 736, "conditions": [18, 1200, "v", 18000], "trial": 1, "serialpos": 12, "trial_type": "single-stim", "trial_index": 67, "time_elapsed": 322928, "internal_node_id": "0.0-49.0"}}, {"uniqueid": "MTK1018:33PPO7FECWM9MJ3MP0C5H64KIC9DIO", "current_trial": 68, "dateTime": 1513007051201, "trialdata": {"rt": -1, "stimulus": "<p id=\"stim\">PARENT</p>", "key_press": -1, "type": "PRES_VIS", "word": "parent", "wordID": 1012, "conditions": [18, 1200, "v", 18000], "trial": 1, "serialpos": 13, "trial_type": "single-stim", "trial_index": 68, "time_elapsed": 324970, "internal_node_id": "0.0-50.0"}}, {"uniqueid": "MTK1018:33PPO7FECWM9MJ3MP0C5H64KIC9DIO", "current_trial": 69, "dateTime": 1513007053515, "trialdata": {"rt": -1, "stimulus": "<p id=\"stim\">PLUTO</p>", "key_press": -1, "type": "PRES_VIS", "word": "pluto", "wordID": 1091, "conditions": [18, 1200, "v", 18000], "trial": 1, "serialpos": 14, "trial_type": "single-stim", "trial_index": 69, "time_elapsed": 327285, "internal_node_id": "0.0-51.0"}}, {"uniqueid": "MTK1018:33PPO7FECWM9MJ3MP0C5H64KIC9DIO", "current_trial": 70, "dateTime": 1513007055824, "trialdata": {"rt": -1, "stimulus": "<p id=\"stim\">TORTOISE</p>", "key_press": -1, "type": "PRES_VIS", "word": "tortoise", "wordID": 1485, "conditions": [18, 1200, "v", 18000], "trial": 1, "serialpos": 15, "trial_type": "single-stim", "trial_index": 70, "time_elapsed": 329594, "internal_node_id": "0.0-52.0"}}, {"uniqueid": "MTK1018:33PPO7FECWM9MJ3MP0C5H64KIC9DIO", "current_trial": 71, "dateTime": 1513007057953, "trialdata": {"rt": -1, "stimulus": "<p id=\"stim\">APPLE</p>", "key_press": -1, "type": "PRES_VIS", "word": "apple", "wordID": 32, "conditions": [18, 1200, "v", 18000], "trial": 1, "serialpos": 16, "trial_type": "single-stim", "trial_index": 71, "time_elapsed": 331722, "internal_node_id": "0.0-53.0"}}, {"uniqueid": "MTK1018:33PPO7FECWM9MJ3MP0C5H64KIC9DIO", "current_trial": 72, "dateTime": 1513007059987, "trialdata": {"rt": -1, "stimulus": "<p id=\"stim\">BLENDER</p>", "key_press": -1, "type": "PRES_VIS", "word": "blender", "wordID": 135, "conditions": [18, 1200, "v", 18000], "trial": 1, "serialpos": 17, "trial_type": "single-stim", "trial_index": 72, "time_elapsed": 333757, "internal_node_id": "0.0-54.0"}}, {"uniqueid": "MTK1018:33PPO7FECWM9MJ3MP0C5H64KIC9DIO", "current_trial": 73, "dateTime": 1513007062372, "trialdata": {"rt": -1, "stimulus": "", "key_press": -1, "type": "PRE_RECALL_DELAY", "trial_type": "single-stim", "trial_index": 73, "time_elapsed": 336142, "internal_node_id": "0.0-55.0-0.0"}}, {"uniqueid": "MTK1018:33PPO7FECWM9MJ3MP0C5H64KIC9DIO", "current_trial": 74, "dateTime": 1513007062875, "trialdata": {"rt": -1000, "stimulus": "/static/audio/400Hz.wav", "key_press": -1, "type": "PRE_RECALL_ALERT", "trial_type": "single-audio", "trial_index": 74, "time_elapsed": 336644, "internal_node_id": "0.0-56.0"}}, {"uniqueid": "MTK1018:33PPO7FECWM9MJ3MP0C5H64KIC9DIO", "current_trial": 75, "dateTime": 1513007122893, "trialdata": {"rt": [6567, 9266, 16523, 19317, 27443, 29070, 31065, 32946, 35054, 37037, 39030, 41194, 43100, 44870, 48754], "recwords": ["princess", "beast", "snack", "curtain", "knapsack", "turkey", "wasp", "uncle", "butcher", "curtain", "apple", "blender", "parent", "infant", "pluto"], "type": "FREE_RECALL", "conditions": [18, 1200, "v", 18000], "trial": 1, "trial_type": "free-recall", "trial_index": 75, "time_elapsed": 396652, "internal_node_id": "0.0-57.0-0.0"}}, {"uniqueid": "MTK1018:33PPO7FECWM9MJ3MP0C5H64KIC9DIO", "current_trial": 76, "dateTime": 1513007185753, "trialdata": {"rt": 60848, "key_press": 32, "type": "INSTRUCTIONS", "trial_type": "text", "trial_index": 76, "time_elapsed": 459513, "internal_node_id": "0.0-58.0"}}, {"uniqueid": "MTK1018:33PPO7FECWM9MJ3MP0C5H64KIC9DIO", "current_trial": 77, "dateTime": 1513007198763, "trialdata": {"rt": [2534, 5575, 7630], "responses": ["16", "18", "11"], "num1": [6, 7, 4, 7], "num2": [7, 8, 1, 2], "num3": [3, 3, 6, 9], "type": "DISTRACTOR", "conditions": [12, 800, "v", 12000], "trial": 2, "trial_type": "math-distractor", "trial_index": 77, "time_elapsed": 472532, "internal_node_id": "0.0-59.0"}}, {"uniqueid": "MTK1018:33PPO7FECWM9MJ3MP0C5H64KIC9DIO", "current_trial": 78, "dateTime": 1513007201767, "trialdata": {"rt": -1, "stimulus": "<p id=\"stim\">10</p>", "key_press": -1, "trial_type": "single-stim", "trial_index": 78, "time_elapsed": 475537, "internal_node_id": "0.0-60.0-0.0"}}, {"uniqueid": "MTK1018:33PPO7FECWM9MJ3MP0C5H64KIC9DIO", "current_trial": 79, "dateTime": 1513007202769, "trialdata": {"rt": -1, "stimulus": "<p id=\"stim\">9</p>", "key_press": -1, "trial_type": "single-stim", "trial_index": 79, "time_elapsed": 476539, "internal_node_id": "0.0-60.0-1.0"}}, {"uniqueid": "MTK1018:33PPO7FECWM9MJ3MP0C5H64KIC9DIO", "current_trial": 80, "dateTime": 1513007203772, "trialdata": {"rt": -1, "stimulus": "<p id=\"stim\">8</p>", "key_press": -1, "trial_type": "single-stim", "trial_index": 80, "time_elapsed": 477542, "internal_node_id": "0.0-60.0-2.0"}}, {"uniqueid": "MTK1018:33PPO7FECWM9MJ3MP0C5H64KIC9DIO", "current_trial": 81, "dateTime": 1513007204774, "trialdata": {"rt": -1, "stimulus": "<p id=\"stim\">7</p>", "key_press": -1, "trial_type": "single-stim", "trial_index": 81, "time_elapsed": 478544, "internal_node_id": "0.0-60.0-3.0"}}, {"uniqueid": "MTK1018:33PPO7FECWM9MJ3MP0C5H64KIC9DIO", "current_trial": 82, "dateTime": 1513007205777, "trialdata": {"rt": -1, "stimulus": "<p id=\"stim\">6</p>", "key_press": -1, "trial_type": "single-stim", "trial_index": 82, "time_elapsed": 479547, "internal_node_id": "0.0-60.0-4.0"}}, {"uniqueid": "MTK1018:33PPO7FECWM9MJ3MP0C5H64KIC9DIO", "current_trial": 83, "dateTime": 1513007206779, "trialdata": {"rt": -1, "stimulus": "<p id=\"stim\">5</p>", "key_press": -1, "trial_type": "single-stim", "trial_index": 83, "time_elapsed": 480549, "internal_node_id": "0.0-60.0-5.0"}}, {"uniqueid": "MTK1018:33PPO7FECWM9MJ3MP0C5H64KIC9DIO", "current_trial": 84, "dateTime": 1513007207781, "trialdata": {"rt": -1, "stimulus": "<p id=\"stim\">4</p>", "key_press": -1, "trial_type": "single-stim", "trial_index": 84, "time_elapsed": 481550, "internal_node_id": "0.0-60.0-6.0"}}, {"uniqueid": "MTK1018:33PPO7FECWM9MJ3MP0C5H64KIC9DIO", "current_trial": 85, "dateTime": 1513007208784, "trialdata": {"rt": -1, "stimulus": "<p id=\"stim\">3</p>", "key_press": -1, "trial_type": "single-stim", "trial_index": 85, "time_elapsed": 482553, "internal_node_id": "0.0-60.0-7.0"}}, {"uniqueid": "MTK1018:33PPO7FECWM9MJ3MP0C5H64KIC9DIO", "current_trial": 86, "dateTime": 1513007209785, "trialdata": {"rt": -1, "stimulus": "<p id=\"stim\">2</p>", "key_press": -1, "trial_type": "single-stim", "trial_index": 86, "time_elapsed": 483555, "internal_node_id": "0.0-60.0-8.0"}}, {"uniqueid": "MTK1018:33PPO7FECWM9MJ3MP0C5H64KIC9DIO", "current_trial": 87, "dateTime": 1513007210788, "trialdata": {"rt": -1, "stimulus": "<p id=\"stim\">1</p>", "key_press": -1, "trial_type": "single-stim", "trial_index": 87, "time_elapsed": 484557, "internal_node_id": "0.0-60.0-9.0"}}, {"uniqueid": "MTK1018:33PPO7FECWM9MJ3MP0C5H64KIC9DIO", "current_trial": 88, "dateTime": 1513007212290, "trialdata": {"rt": -1, "stimulus": "<p id=\"stim\">+</p>", "key_press": -1, "type": "FIXATION", "trial_type": "single-stim", "trial_index": 88, "time_elapsed": 486059, "internal_node_id": "0.0-61.0-0.0"}}, {"uniqueid": "MTK1018:33PPO7FECWM9MJ3MP0C5H64KIC9DIO", "current_trial": 89, "dateTime": 1513007213112, "trialdata": {"rt": -1, "stimulus": "<p id=\"stim\">COMET</p>", "key_press": -1, "type": "PRES_VIS", "word": "comet", "wordID": 352, "conditions": [12, 800, "v", 12000], "trial": 2, "serialpos": 0, "trial_type": "single-stim", "trial_index": 89, "time_elapsed": 486882, "internal_node_id": "0.0-62.0"}}, {"uniqueid": "MTK1018:33PPO7FECWM9MJ3MP0C5H64KIC9DIO", "current_trial": 90, "dateTime": 1513007215093, "trialdata": {"rt": -1, "stimulus": "<p id=\"stim\">SEAGULL</p>", "key_press": -1, "type": "PRES_VIS", "word": "seagull", "wordID": 1260, "conditions": [12, 800, "v", 12000], "trial": 2, "serialpos": 1, "trial_type": "single-stim", "trial_index": 90, "time_elapsed": 488862, "internal_node_id": "0.0-63.0"}}, {"uniqueid": "MTK1018:33PPO7FECWM9MJ3MP0C5H64KIC9DIO", "current_trial": 91, "dateTime": 1513007216891, "trialdata": {"rt": -1, "stimulus": "<p id=\"stim\">LIVER</p>", "key_press": -1, "type": "PRES_VIS", "word": "liver", "wordID": 832, "conditions": [12, 800, "v", 12000], "trial": 2, "serialpos": 2, "trial_type": "single-stim", "trial_index": 91, "time_elapsed": 490661, "internal_node_id": "0.0-64.0"}}, {"uniqueid": "MTK1018:33PPO7FECWM9MJ3MP0C5H64KIC9DIO", "current_trial": 92, "dateTime": 1513007218771, "trialdata": {"rt": -1, "stimulus": "<p id=\"stim\">BINDER</p>", "key_press": -1, "type": "PRES_VIS", "word": "binder", "wordID": 126, "conditions": [12, 800, "v", 12000], "trial": 2, "serialpos": 3, "trial_type": "single-stim", "trial_index": 92, "time_elapsed": 492540, "internal_node_id": "0.0-65.0"}}, {"uniqueid": "MTK1018:33PPO7FECWM9MJ3MP0C5H64KIC9DIO", "current_trial": 93, "dateTime": 1513007220669, "trialdata": {"rt": -1, "stimulus": "<p id=\"stim\">WARDROBE</p>", "key_press": -1, "type": "PRES_VIS", "word": "wardrobe", "wordID": 1586, "conditions": [12, 800, "v", 12000], "trial": 2, "serialpos": 4, "trial_type": "single-stim", "trial_index": 93, "time_elapsed": 494439, "internal_node_id": "0.0-66.0"}}, {"uniqueid": "MTK1018:33PPO7FECWM9MJ3MP0C5H64KIC9DIO", "current_trial": 94, "dateTime": 1513007222291, "trialdata": {"rt": -1, "stimulus": "<p id=\"stim\">CLOTHES</p>", "key_press": -1, "type": "PRES_VIS", "word": "clothes", "wordID": 326, "conditions": [12, 800, "v", 12000], "trial": 2, "serialpos": 5, "trial_type": "single-stim", "trial_index": 94, "time_elapsed": 496061, "internal_node_id": "0.0-67.0"}}, {"uniqueid": "MTK1018:33PPO7FECWM9MJ3MP0C5H64KIC9DIO", "current_trial": 95, "dateTime": 1513007224172, "trialdata": {"rt": -1, "stimulus": "<p id=\"stim\">DAISY</p>", "key_press": -1, "type": "PRES_VIS", "word": "daisy", "wordID": 434, "conditions": [12, 800, "v", 12000], "trial": 2, "serialpos": 6, "trial_type": "single-stim", "trial_index": 95, "time_elapsed": 497942, "internal_node_id": "0.0-68.0"}}, {"uniqueid": "MTK1018:33PPO7FECWM9MJ3MP0C5H64KIC9DIO", "current_trial": 96, "dateTime": 1513007226012, "trialdata": {"rt": -1, "stimulus": "<p id=\"stim\">JOURNAL</p>", "key_press": -1, "type": "PRES_VIS", "word": "journal", "wordID": 759, "conditions": [12, 800, "v", 12000], "trial": 2, "serialpos": 7, "trial_type": "single-stim", "trial_index": 96, "time_elapsed": 499782, "internal_node_id": "0.0-69.0"}}, {"uniqueid": "MTK1018:33PPO7FECWM9MJ3MP0C5H64KIC9DIO", "current_trial": 97, "dateTime": 1513007227854, "trialdata": {"rt": -1, "stimulus": "<p id=\"stim\">COIN</p>", "key_press": -1, "type": "PRES_VIS", "word": "coin", "wordID": 342, "conditions": [12, 800, "v", 12000], "trial": 2, "serialpos": 8, "trial_type": "single-stim", "trial_index": 97, "time_elapsed": 501623, "internal_node_id": "0.0-70.0"}}, {"uniqueid": "MTK1018:33PPO7FECWM9MJ3MP0C5H64KIC9DIO", "current_trial": 98, "dateTime": 1513007229581, "trialdata": {"rt": -1, "stimulus": "<p id=\"stim\">FIREMAN</p>", "key_press": -1, "type": "PRES_VIS", "word": "fireman", "wordID": 568, "conditions": [12, 800, "v", 12000], "trial": 2, "serialpos": 9, "trial_type": "single-stim", "trial_index": 98, "time_elapsed": 503351, "internal_node_id": "0.0-71.0"}}, {"uniqueid": "MTK1018:33PPO7FECWM9MJ3MP0C5H64KIC9DIO", "current_trial": 99, "dateTime": 1513007231242, "trialdata": {"rt": -1, "stimulus": "<p id=\"stim\">MARROW</p>", "key_press": -1, "type": "PRES_VIS", "word": "marrow", "wordID": 871, "conditions": [12, 800, "v", 12000], "trial": 2, "serialpos": 10, "trial_type": "single-stim", "trial_index": 99, "time_elapsed": 505011, "internal_node_id": "0.0-72.0"}}, {"uniqueid": "MTK1018:33PPO7FECWM9MJ3MP0C5H64KIC9DIO", "current_trial": 100, "dateTime": 1513007233189, "trialdata": {"rt": -1, "stimulus": "<p id=\"stim\">DRINK</p>", "key_press": -1, "type": "PRES_VIS", "word": "drink", "wordID": 497, "conditions": [12, 800, "v", 12000], "trial": 2, "serialpos": 11, "trial_type": "single-stim", "trial_index": 100, "time_elapsed": 506959, "internal_node_id": "0.0-73.0"}}, {"uniqueid": "MTK1018:33PPO7FECWM9MJ3MP0C5H64KIC9DIO", "current_trial": 101, "dateTime": 1513007235547, "trialdata": {"rt": -1, "stimulus": "", "key_press": -1, "type": "PRE_RECALL_DELAY", "trial_type": "single-stim", "trial_index": 101, "time_elapsed": 509316, "internal_node_id": "0.0-74.0-0.0"}}, {"uniqueid": "MTK1018:33PPO7FECWM9MJ3MP0C5H64KIC9DIO", "current_trial": 102, "dateTime": 1513007236050, "trialdata": {"rt": -1000, "stimulus": "/static/audio/400Hz.wav", "key_press": -1, "type": "PRE_RECALL_ALERT", "trial_type": "single-audio", "trial_index": 102, "time_elapsed": 509820, "internal_node_id": "0.0-75.0"}}, {"uniqueid": "MTK1018:33PPO7FECWM9MJ3MP0C5H64KIC9DIO", "current_trial": 103, "dateTime": 1513007296078, "trialdata": {"rt": [6447, 10994, 12837, 14897, 17455, 19507, 20783, 22326, 24316, 26348], "recwords": ["seagull", "liver", "fireman", "binder", "wardrobe", "clothes", "coin", "daisy", "drink", "comet"], "type": "FREE_RECALL", "conditions": [12, 800, "v", 12000], "trial": 2, "trial_type": "free-recall", "trial_index": 103, "time_elapsed": 569825, "internal_node_id": "0.0-76.0-0.0"}}, {"uniqueid": "MTK1018:33PPO7FECWM9MJ3MP0C5H64KIC9DIO", "current_trial": 104, "dateTime": 1513007299959, "trialdata": {"rt": 1879, "key_press": 32, "type": "INSTRUCTIONS", "trial_type": "text", "trial_index": 104, "time_elapsed": 573728, "internal_node_id": "0.0-77.0"}}, {"uniqueid": "MTK1018:33PPO7FECWM9MJ3MP0C5H64KIC9DIO", "current_trial": 105, "dateTime": 1513007313964, "trialdata": {"rt": [5218, 7002, 8894], "responses": ["19", "12", "16"], "num1": [5, 1, 1, 9], "num2": [7, 5, 9, 7], "num3": [7, 6, 6, 5], "type": "DISTRACTOR", "conditions": [24, 800, "v", 12000], "trial": 3, "trial_type": "math-distractor", "trial_index": 105, "time_elapsed": 587734, "internal_node_id": "0.0-78.0"}}, {"uniqueid": "MTK1018:33PPO7FECWM9MJ3MP0C5H64KIC9DIO", "current_trial": 106, "dateTime": 1513007316968, "trialdata": {"rt": -1, "stimulus": "<p id=\"stim\">10</p>", "key_press": -1, "trial_type": "single-stim", "trial_index": 106, "time_elapsed": 590737, "internal_node_id": "0.0-79.0-0.0"}}, {"uniqueid": "MTK1018:33PPO7FECWM9MJ3MP0C5H64KIC9DIO", "current_trial": 107, "dateTime": 1513007317970, "trialdata": {"rt": -1, "stimulus": "<p id=\"stim\">9</p>", "key_press": -1, "trial_type": "single-stim", "trial_index": 107, "time_elapsed": 591740, "internal_node_id": "0.0-79.0-1.0"}}, {"uniqueid": "MTK1018:33PPO7FECWM9MJ3MP0C5H64KIC9DIO", "current_trial": 108, "dateTime": 1513007318972, "trialdata": {"rt": -1, "stimulus": "<p id=\"stim\">8</p>", "key_press": -1, "trial_type": "single-stim", "trial_index": 108, "time_elapsed": 592742, "internal_node_id": "0.0-79.0-2.0"}}, {"uniqueid": "MTK1018:33PPO7FECWM9MJ3MP0C5H64KIC9DIO", "current_trial": 109, "dateTime": 1513007319974, "trialdata": {"rt": -1, "stimulus": "<p id=\"stim\">7</p>", "key_press": -1, "trial_type": "single-stim", "trial_index": 109, "time_elapsed": 593743, "internal_node_id": "0.0-79.0-3.0"}}, {"uniqueid": "MTK1018:33PPO7FECWM9MJ3MP0C5H64KIC9DIO", "current_trial": 110, "dateTime": 1513007320978, "trialdata": {"rt": -1, "stimulus": "<p id=\"stim\">6</p>", "key_press": -1, "trial_type": "single-stim", "trial_index": 110, "time_elapsed": 594747, "internal_node_id": "0.0-79.0-4.0"}}, {"uniqueid": "MTK1018:33PPO7FECWM9MJ3MP0C5H64KIC9DIO", "current_trial": 111, "dateTime": 1513007321980, "trialdata": {"rt": -1, "stimulus": "<p id=\"stim\">5</p>", "key_press": -1, "trial_type": "single-stim", "trial_index": 111, "time_elapsed": 595750, "internal_node_id": "0.0-79.0-5.0"}}, {"uniqueid": "MTK1018:33PPO7FECWM9MJ3MP0C5H64KIC9DIO", "current_trial": 112, "dateTime": 1513007322982, "trialdata": {"rt": -1, "stimulus": "<p id=\"stim\">4</p>", "key_press": -1, "trial_type": "single-stim", "trial_index": 112, "time_elapsed": 596751, "internal_node_id": "0.0-79.0-6.0"}}, {"uniqueid": "MTK1018:33PPO7FECWM9MJ3MP0C5H64KIC9DIO", "current_trial": 113, "dateTime": 1513007323984, "trialdata": {"rt": -1, "stimulus": "<p id=\"stim\">3</p>", "key_press": -1, "trial_type": "single-stim", "trial_index": 113, "time_elapsed": 597754, "internal_node_id": "0.0-79.0-7.0"}}, {"uniqueid": "MTK1018:33PPO7FECWM9MJ3MP0C5H64KIC9DIO", "current_trial": 114, "dateTime": 1513007324986, "trialdata": {"rt": -1, "stimulus": "<p id=\"stim\">2</p>", "key_press": -1, "trial_type": "single-stim", "trial_index": 114, "time_elapsed": 598755, "internal_node_id": "0.0-79.0-8.0"}}, {"uniqueid": "MTK1018:33PPO7FECWM9MJ3MP0C5H64KIC9DIO", "current_trial": 115, "dateTime": 1513007325994, "trialdata": {"rt": -1, "stimulus": "<p id=\"stim\">1</p>", "key_press": -1, "trial_type": "single-stim", "trial_index": 115, "time_elapsed": 599763, "internal_node_id": "0.0-79.0-9.0"}}, {"uniqueid": "MTK1018:33PPO7FECWM9MJ3MP0C5H64KIC9DIO", "current_trial": 116, "dateTime": 1513007327501, "trialdata": {"rt": -1, "stimulus": "<p id=\"stim\">+</p>", "key_press": -1, "type": "FIXATION", "trial_type": "single-stim", "trial_index": 116, "time_elapsed": 601271, "internal_node_id": "0.0-80.0-0.0"}}, {"uniqueid": "MTK1018:33PPO7FECWM9MJ3MP0C5H64KIC9DIO", "current_trial": 117, "dateTime": 1513007328304, "trialdata": {"rt": -1, "stimulus": "<p id=\"stim\">MUFFIN</p>", "key_press": -1, "type": "PRES_VIS", "word": "muffin", "wordID": 928, "conditions": [24, 800, "v", 12000], "trial": 3, "serialpos": 0, "trial_type": "single-stim", "trial_index": 117, "time_elapsed": 602074, "internal_node_id": "0.0-81.0"}}, {"uniqueid": "MTK1018:33PPO7FECWM9MJ3MP0C5H64KIC9DIO", "current_trial": 118, "dateTime": 1513007330294, "trialdata": {"rt": -1, "stimulus": "<p id=\"stim\">GARDEN</p>", "key_press": -1, "type": "PRES_VIS", "word": "garden", "wordID": 622, "conditions": [24, 800, "v", 12000], "trial": 3, "serialpos": 1, "trial_type": "single-stim", "trial_index": 118, "time_elapsed": 604063, "internal_node_id": "0.0-82.0"}}, {"uniqueid": "MTK1018:33PPO7FECWM9MJ3MP0C5H64KIC9DIO", "current_trial": 119, "dateTime": 1513007331996, "trialdata": {"rt": -1, "stimulus": "<p id=\"stim\">SCALLOP</p>", "key_press": -1, "type": "PRES_VIS", "word": "scallop", "wordID": 1241, "conditions": [24, 800, "v", 12000], "trial": 3, "serialpos": 2, "trial_type": "single-stim", "trial_index": 119, "time_elapsed": 605766, "internal_node_id": "0.0-83.0"}}, {"uniqueid": "MTK1018:33PPO7FECWM9MJ3MP0C5H64KIC9DIO", "current_trial": 120, "dateTime": 1513007333602, "trialdata": {"rt": -1, "stimulus": "<p id=\"stim\">THREAD</p>", "key_press": -1, "type": "PRES_VIS", "word": "thread", "wordID": 1459, "conditions": [24, 800, "v", 12000], "trial": 3, "serialpos": 3, "trial_type": "single-stim", "trial_index": 120, "time_elapsed": 607372, "internal_node_id": "0.0-84.0"}}, {"uniqueid": "MTK1018:33PPO7FECWM9MJ3MP0C5H64KIC9DIO", "current_trial": 121, "dateTime": 1513007335283, "trialdata": {"rt": -1, "stimulus": "<p id=\"stim\">SKILLET</p>", "key_press": -1, "type": "PRES_VIS", "word": "skillet", "wordID": 1316, "conditions": [24, 800, "v", 12000], "trial": 3, "serialpos": 4, "trial_type": "single-stim", "trial_index": 121, "time_elapsed": 609053, "internal_node_id": "0.0-85.0"}}, {"uniqueid": "MTK1018:33PPO7FECWM9MJ3MP0C5H64KIC9DIO", "current_trial": 122, "dateTime": 1513007337181, "trialdata": {"rt": -1, "stimulus": "<p id=\"stim\">DRILL</p>", "key_press": -1, "type": "PRES_VIS", "word": "drill", "wordID": 496, "conditions": [24, 800, "v", 12000], "trial": 3, "serialpos": 5, "trial_type": "single-stim", "trial_index": 122, "time_elapsed": 610951, "internal_node_id": "0.0-86.0"}}, {"uniqueid": "MTK1018:33PPO7FECWM9MJ3MP0C5H64KIC9DIO", "current_trial": 123, "dateTime": 1513007338855, "trialdata": {"rt": -1, "stimulus": "<p id=\"stim\">VICTIM</p>", "key_press": -1, "type": "PRES_VIS", "word": "victim", "wordID": 1561, "conditions": [24, 800, "v", 12000], "trial": 3, "serialpos": 6, "trial_type": "single-stim", "trial_index": 123, "time_elapsed": 612624, "internal_node_id": "0.0-87.0"}}, {"uniqueid": "MTK1018:33PPO7FECWM9MJ3MP0C5H64KIC9DIO", "current_trial": 124, "dateTime": 1513007340701, "trialdata": {"rt": -1, "stimulus": "<p id=\"stim\">WOMAN</p>", "key_press": -1, "type": "PRES_VIS", "word": "woman", "wordID": 1619, "conditions": [24, 800, "v", 12000], "trial": 3, "serialpos": 7, "trial_type": "single-stim", "trial_index": 124, "time_elapsed": 614470, "internal_node_id": "0.0-88.0"}}, {"uniqueid": "MTK1018:33PPO7FECWM9MJ3MP0C5H64KIC9DIO", "current_trial": 125, "dateTime": 1513007342665, "trialdata": {"rt": -1, "stimulus": "<p id=\"stim\">POLICE</p>", "key_press": -1, "type": "PRES_VIS", "word": "police", "wordID": 1097, "conditions": [24, 800, "v", 12000], "trial": 3, "serialpos": 8, "trial_type": "single-stim", "trial_index": 125, "time_elapsed": 616435, "internal_node_id": "0.0-89.0"}}, {"uniqueid": "MTK1018:33PPO7FECWM9MJ3MP0C5H64KIC9DIO", "current_trial": 126, "dateTime": 1513007344364, "trialdata": {"rt": -1, "stimulus": "<p id=\"stim\">SHRUB</p>", "key_press": -1, "type": "PRES_VIS", "word": "shrub", "wordID": 1298, "conditions": [24, 800, "v", 12000], "trial": 3, "serialpos": 9, "trial_type": "single-stim", "trial_index": 126, "time_elapsed": 618134, "internal_node_id": "0.0-90.0"}}, {"uniqueid": "MTK1018:33PPO7FECWM9MJ3MP0C5H64KIC9DIO", "current_trial": 127, "dateTime": 1513007346306, "trialdata": {"rt": -1, "stimulus": "<p id=\"stim\">TRENCH</p>", "key_press": -1, "type": "PRES_VIS", "word": "trench", "wordID": 1502, "conditions": [24, 800, "v", 12000], "trial": 3, "serialpos": 10, "trial_type": "single-stim", "trial_index": 127, "time_elapsed": 620076, "internal_node_id": "0.0-91.0"}}, {"uniqueid": "MTK1018:33PPO7FECWM9MJ3MP0C5H64KIC9DIO", "current_trial": 128, "dateTime": 1513007348214, "trialdata": {"rt": -1, "stimulus": "<p id=\"stim\">BLOUSE</p>", "key_press": -1, "type": "PRES_VIS", "word": "blouse", "wordID": 138, "conditions": [24, 800, "v", 12000], "trial": 3, "serialpos": 11, "trial_type": "single-stim", "trial_index": 128, "time_elapsed": 621984, "internal_node_id": "0.0-92.0"}}, {"uniqueid": "MTK1018:33PPO7FECWM9MJ3MP0C5H64KIC9DIO", "current_trial": 129, "dateTime": 1513007349900, "trialdata": {"rt": -1, "stimulus": "<p id=\"stim\">OUTLAW</p>", "key_press": -1, "type": "PRES_VIS", "word": "outlaw", "wordID": 988, "conditions": [24, 800, "v", 12000], "trial": 3, "serialpos": 12, "trial_type": "single-stim", "trial_index": 129, "time_elapsed": 623670, "internal_node_id": "0.0-93.0"}}, {"uniqueid": "MTK1018:33PPO7FECWM9MJ3MP0C5H64KIC9DIO", "current_trial": 130, "dateTime": 1513007351738, "trialdata": {"rt": -1, "stimulus": "<p id=\"stim\">COD</p>", "key_press": -1, "type": "PRES_VIS", "word": "cod", "wordID": 339, "conditions": [24, 800, "v", 12000], "trial": 3, "serialpos": 13, "trial_type": "single-stim", "trial_index": 130, "time_elapsed": 625508, "internal_node_id": "0.0-94.0"}}, {"uniqueid": "MTK1018:33PPO7FECWM9MJ3MP0C5H64KIC9DIO", "current_trial": 131, "dateTime": 1513007353407, "trialdata": {"rt": -1, "stimulus": "<p id=\"stim\">SEAFOOD</p>", "key_press": -1, "type": "PRES_VIS", "word": "seafood", "wordID": 1259, "conditions": [24, 800, "v", 12000], "trial": 3, "serialpos": 14, "trial_type": "single-stim", "trial_index": 131, "time_elapsed": 627177, "internal_node_id": "0.0-95.0"}}, {"uniqueid": "MTK1018:33PPO7FECWM9MJ3MP0C5H64KIC9DIO", "current_trial": 132, "dateTime": 1513007355170, "trialdata": {"rt": -1, "stimulus": "<p id=\"stim\">KNIFE</p>", "key_press": -1, "type": "PRES_VIS", "word": "knife", "wordID": 784, "conditions": [24, 800, "v", 12000], "trial": 3, "serialpos": 15, "trial_type": "single-stim", "trial_index": 132, "time_elapsed": 628940, "internal_node_id": "0.0-96.0"}}, {"uniqueid": "MTK1018:33PPO7FECWM9MJ3MP0C5H64KIC9DIO", "current_trial": 133, "dateTime": 1513007356923, "trialdata": {"rt": -1, "stimulus": "<p id=\"stim\">COTTAGE</p>", "key_press": -1, "type": "PRES_VIS", "word": "cottage", "wordID": 383, "conditions": [24, 800, "v", 12000], "trial": 3, "serialpos": 16, "trial_type": "single-stim", "trial_index": 133, "time_elapsed": 630692, "internal_node_id": "0.0-97.0"}}, {"uniqueid": "MTK1018:33PPO7FECWM9MJ3MP0C5H64KIC9DIO", "current_trial": 134, "dateTime": 1513007358702, "trialdata": {"rt": -1, "stimulus": "<p id=\"stim\">RUST</p>", "key_press": -1, "type": "PRES_VIS", "word": "rust", "wordID": 1218, "conditions": [24, 800, "v", 12000], "trial": 3, "serialpos": 17, "trial_type": "single-stim", "trial_index": 134, "time_elapsed": 632471, "internal_node_id": "0.0-98.0"}}, {"uniqueid": "MTK1018:33PPO7FECWM9MJ3MP0C5H64KIC9DIO", "current_trial": 135, "dateTime": 1513007360456, "trialdata": {"rt": -1, "stimulus": "<p id=\"stim\">EAGLE</p>", "key_press": -1, "type": "PRES_VIS", "word": "eagle", "wordID": 511, "conditions": [24, 800, "v", 12000], "trial": 3, "serialpos": 18, "trial_type": "single-stim", "trial_index": 135, "time_elapsed": 634225, "internal_node_id": "0.0-99.0"}}, {"uniqueid": "MTK1018:33PPO7FECWM9MJ3MP0C5H64KIC9DIO", "current_trial": 136, "dateTime": 1513007362415, "trialdata": {"rt": -1, "stimulus": "<p id=\"stim\">PISTOL</p>", "key_press": -1, "type": "PRES_VIS", "word": "pistol", "wordID": 1074, "conditions": [24, 800, "v", 12000], "trial": 3, "serialpos": 19, "trial_type": "single-stim", "trial_index": 136, "time_elapsed": 636185, "internal_node_id": "0.0-100.0"}}, {"uniqueid": "MTK1018:33PPO7FECWM9MJ3MP0C5H64KIC9DIO", "current_trial": 137, "dateTime": 1513007364331, "trialdata": {"rt": -1, "stimulus": "<p id=\"stim\">TEMPLE</p>", "key_press": -1, "type": "PRES_VIS", "word": "temple", "wordID": 1447, "conditions": [24, 800, "v", 12000], "trial": 3, "serialpos": 20, "trial_type": "single-stim", "trial_index": 137, "time_elapsed": 638101, "internal_node_id": "0.0-101.0"}}, {"uniqueid": "MTK1018:33PPO7FECWM9MJ3MP0C5H64KIC9DIO", "current_trial": 138, "dateTime": 1513007365978, "trialdata": {"rt": -1, "stimulus": "<p id=\"stim\">TURTLE</p>", "key_press": -1, "type": "PRES_VIS", "word": "turtle", "wordID": 1521, "conditions": [24, 800, "v", 12000], "trial": 3, "serialpos": 21, "trial_type": "single-stim", "trial_index": 138, "time_elapsed": 639748, "internal_node_id": "0.0-102.0"}}, {"uniqueid": "MTK1018:33PPO7FECWM9MJ3MP0C5H64KIC9DIO", "current_trial": 139, "dateTime": 1513007367592, "trialdata": {"rt": -1, "stimulus": "<p id=\"stim\">HONEY</p>", "key_press": -1, "type": "PRES_VIS", "word": "honey", "wordID": 712, "conditions": [24, 800, "v", 12000], "trial": 3, "serialpos": 22, "trial_type": "single-stim", "trial_index": 139, "time_elapsed": 641362, "internal_node_id": "0.0-103.0"}}, {"uniqueid": "MTK1018:33PPO7FECWM9MJ3MP0C5H64KIC9DIO", "current_trial": 140, "dateTime": 1513007369351, "trialdata": {"rt": -1, "stimulus": "<p id=\"stim\">PORTRAIT</p>", "key_press": -1, "type": "PRES_VIS", "word": "portrait", "wordID": 1110, "conditions": [24, 800, "v", 12000], "trial": 3, "serialpos": 23, "trial_type": "single-stim", "trial_index": 140, "time_elapsed": 643121, "internal_node_id": "0.0-104.0"}}, {"uniqueid": "MTK1018:33PPO7FECWM9MJ3MP0C5H64KIC9DIO", "current_trial": 141, "dateTime": 1513007371709, "trialdata": {"rt": -1, "stimulus": "", "key_press": -1, "type": "PRE_RECALL_DELAY", "trial_type": "single-stim", "trial_index": 141, "time_elapsed": 645479, "internal_node_id": "0.0-105.0-0.0"}}, {"uniqueid": "MTK1018:33PPO7FECWM9MJ3MP0C5H64KIC9DIO", "current_trial": 142, "dateTime": 1513007372212, "trialdata": {"rt": -1000, "stimulus": "/static/audio/400Hz.wav", "key_press": -1, "type": "PRE_RECALL_ALERT", "trial_type": "single-audio", "trial_index": 142, "time_elapsed": 645981, "internal_node_id": "0.0-106.0"}}, {"uniqueid": "MTK1018:33PPO7FECWM9MJ3MP0C5H64KIC9DIO", "current_trial": 143, "dateTime": 1513007432224, "trialdata": {"rt": [4586, 8476, 10716, 13381, 15697, 18917, 21045, 22501, 25172, 27091, 28912, 33295, 36735, 38303, 40043, 48910, 52245, 53966, 56106], "recwords": ["muffin", "garden", "police", "scallop", "thread", "skillet", "shrub", "drink", "drill", "victim", "women", "trench", "outlaw", "cod", "seafood", "knife", "cottage", "rust", "eagle"], "type": "FREE_RECALL", "conditions": [24, 800, "v", 12000], "trial": 3, "trial_type": "free-recall", "trial_index": 143, "time_elapsed": 705986, "internal_node_id": "0.0-107.0-0.0"}}, {"uniqueid": "MTK1018:33PPO7FECWM9MJ3MP0C5H64KIC9DIO", "current_trial": 144, "dateTime": 1513007451342, "trialdata": {"rt": 17115, "key_press": 32, "type": "INSTRUCTIONS", "trial_type": "text", "trial_index": 144, "time_elapsed": 725112, "internal_node_id": "0.0-108.0"}}, {"uniqueid": "MTK1018:33PPO7FECWM9MJ3MP0C5H64KIC9DIO", "current_trial": 145, "dateTime": 1513007465350, "trialdata": {"rt": [4815, 6691, 11272], "responses": ["17", "15", "22"], "num1": [6, 5, 7, 5], "num2": [8, 6, 9, 3], "num3": [3, 4, 6, 7], "type": "DISTRACTOR", "conditions": [12, 800, "a", 12000], "trial": 4, "trial_type": "math-distractor", "trial_index": 145, "time_elapsed": 739120, "internal_node_id": "0.0-109.0"}}, {"uniqueid": "MTK1018:33PPO7FECWM9MJ3MP0C5H64KIC9DIO", "current_trial": 146, "dateTime": 1513007468353, "trialdata": {"rt": -1, "stimulus": "<p id=\"stim\">10</p>", "key_press": -1, "trial_type": "single-stim", "trial_index": 146, "time_elapsed": 742123, "internal_node_id": "0.0-110.0-0.0"}}, {"uniqueid": "MTK1018:33PPO7FECWM9MJ3MP0C5H64KIC9DIO", "current_trial": 147, "dateTime": 1513007469355, "trialdata": {"rt": -1, "stimulus": "<p id=\"stim\">9</p>", "key_press": -1, "trial_type": "single-stim", "trial_index": 147, "time_elapsed": 743124, "internal_node_id": "0.0-110.0-1.0"}}, {"uniqueid": "MTK1018:33PPO7FECWM9MJ3MP0C5H64KIC9DIO", "current_trial": 148, "dateTime": 1513007470356, "trialdata": {"rt": -1, "stimulus": "<p id=\"stim\">8</p>", "key_press": -1, "trial_type": "single-stim", "trial_index": 148, "time_elapsed": 744126, "internal_node_id": "0.0-110.0-2.0"}}, {"uniqueid": "MTK1018:33PPO7FECWM9MJ3MP0C5H64KIC9DIO", "current_trial": 149, "dateTime": 1513007471359, "trialdata": {"rt": -1, "stimulus": "<p id=\"stim\">7</p>", "key_press": -1, "trial_type": "single-stim", "trial_index": 149, "time_elapsed": 745129, "internal_node_id": "0.0-110.0-3.0"}}, {"uniqueid": "MTK1018:33PPO7FECWM9MJ3MP0C5H64KIC9DIO", "current_trial": 150, "dateTime": 1513007472362, "trialdata": {"rt": -1, "stimulus": "<p id=\"stim\">6</p>", "key_press": -1, "trial_type": "single-stim", "trial_index": 150, "time_elapsed": 746131, "internal_node_id": "0.0-110.0-4.0"}}, {"uniqueid": "MTK1018:33PPO7FECWM9MJ3MP0C5H64KIC9DIO", "current_trial": 151, "dateTime": 1513007473364, "trialdata": {"rt": -1, "stimulus": "<p id=\"stim\">5</p>", "key_press": -1, "trial_type": "single-stim", "trial_index": 151, "time_elapsed": 747134, "internal_node_id": "0.0-110.0-5.0"}}, {"uniqueid": "MTK1018:33PPO7FECWM9MJ3MP0C5H64KIC9DIO", "current_trial": 152, "dateTime": 1513007474367, "trialdata": {"rt": -1, "stimulus": "<p id=\"stim\">4</p>", "key_press": -1, "trial_type": "single-stim", "trial_index": 152, "time_elapsed": 748137, "internal_node_id": "0.0-110.0-6.0"}}, {"uniqueid": "MTK1018:33PPO7FECWM9MJ3MP0C5H64KIC9DIO", "current_trial": 153, "dateTime": 1513007475369, "trialdata": {"rt": -1, "stimulus": "<p id=\"stim\">3</p>", "key_press": -1, "trial_type": "single-stim", "trial_index": 153, "time_elapsed": 749138, "internal_node_id": "0.0-110.0-7.0"}}, {"uniqueid": "MTK1018:33PPO7FECWM9MJ3MP0C5H64KIC9DIO", "current_trial": 154, "dateTime": 1513007476370, "trialdata": {"rt": -1, "stimulus": "<p id=\"stim\">2</p>", "key_press": -1, "trial_type": "single-stim", "trial_index": 154, "time_elapsed": 750140, "internal_node_id": "0.0-110.0-8.0"}}, {"uniqueid": "MTK1018:33PPO7FECWM9MJ3MP0C5H64KIC9DIO", "current_trial": 155, "dateTime": 1513007477373, "trialdata": {"rt": -1, "stimulus": "<p id=\"stim\">1</p>", "key_press": -1, "trial_type": "single-stim", "trial_index": 155, "time_elapsed": 751142, "internal_node_id": "0.0-110.0-9.0"}}, {"uniqueid": "MTK1018:33PPO7FECWM9MJ3MP0C5H64KIC9DIO", "current_trial": 156, "dateTime": 1513007478875, "trialdata": {"rt": -1, "stimulus": "<p id=\"stim\">+</p>", "key_press": -1, "type": "FIXATION", "trial_type": "single-stim", "trial_index": 156, "time_elapsed": 752644, "internal_node_id": "0.0-111.0-0.0"}}, {"uniqueid": "MTK1018:33PPO7FECWM9MJ3MP0C5H64KIC9DIO", "current_trial": 157, "dateTime": 1513007480502, "trialdata": {"rt": -1000, "stimulus": "/static/audio/wordpool/ANKLE.wav", "key_press": -1, "type": "PRES_AUD", "word": "ankle", "wordID": 23, "conditions": [12, 800, "a", 12000], "trial": 4, "serialpos": 0, "trial_type": "single-audio", "trial_index": 157, "time_elapsed": 754272, "internal_node_id": "0.0-112.0"}}, {"uniqueid": "MTK1018:33PPO7FECWM9MJ3MP0C5H64KIC9DIO", "current_trial": 158, "dateTime": 1513007482276, "trialdata": {"rt": -1000, "stimulus": "/static/audio/wordpool/DUSTPAN.wav", "key_press": -1, "type": "PRES_AUD", "word": "dustpan", "wordID": 508, "conditions": [12, 800, "a", 12000], "trial": 4, "serialpos": 1, "trial_type": "single-audio", "trial_index": 158, "time_elapsed": 756046, "internal_node_id": "0.0-113.0"}}, {"uniqueid": "MTK1018:33PPO7FECWM9MJ3MP0C5H64KIC9DIO", "current_trial": 159, "dateTime": 1513007484207, "trialdata": {"rt": -1000, "stimulus": "/static/audio/wordpool/COUCH.wav", "key_press": -1, "type": "PRES_AUD", "word": "couch", "wordID": 385, "conditions": [12, 800, "a", 12000], "trial": 4, "serialpos": 2, "trial_type": "single-audio", "trial_index": 159, "time_elapsed": 757977, "internal_node_id": "0.0-114.0"}}, {"uniqueid": "MTK1018:33PPO7FECWM9MJ3MP0C5H64KIC9DIO", "current_trial": 160, "dateTime": 1513007485937, "trialdata": {"rt": -1000, "stimulus": "/static/audio/wordpool/COFFEE.wav", "key_press": -1, "type": "PRES_AUD", "word": "coffee", "wordID": 340, "conditions": [12, 800, "a", 12000], "trial": 4, "serialpos": 3, "trial_type": "single-audio", "trial_index": 160, "time_elapsed": 759707, "internal_node_id": "0.0-115.0"}}, {"uniqueid": "MTK1018:33PPO7FECWM9MJ3MP0C5H64KIC9DIO", "current_trial": 161, "dateTime": 1513007487730, "trialdata": {"rt": -1000, "stimulus": "/static/audio/wordpool/PECAN.wav", "key_press": -1, "type": "PRES_AUD", "word": "pecan", "wordID": 1035, "conditions": [12, 800, "a", 12000], "trial": 4, "serialpos": 4, "trial_type": "single-audio", "trial_index": 161, "time_elapsed": 761499, "internal_node_id": "0.0-116.0"}}, {"uniqueid": "MTK1018:33PPO7FECWM9MJ3MP0C5H64KIC9DIO", "current_trial": 162, "dateTime": 1513007489332, "trialdata": {"rt": -1000, "stimulus": "/static/audio/wordpool/MOP.wav", "key_press": -1, "type": "PRES_AUD", "word": "mop", "wordID": 915, "conditions": [12, 800, "a", 12000], "trial": 4, "serialpos": 5, "trial_type": "single-audio", "trial_index": 162, "time_elapsed": 763102, "internal_node_id": "0.0-117.0"}}, {"uniqueid": "MTK1018:33PPO7FECWM9MJ3MP0C5H64KIC9DIO", "current_trial": 163, "dateTime": 1513007490949, "trialdata": {"rt": -1000, "stimulus": "/static/audio/wordpool/BLUEPRINT.wav", "key_press": -1, "type": "PRES_AUD", "word": "blueprint", "wordID": 141, "conditions": [12, 800, "a", 12000], "trial": 4, "serialpos": 6, "trial_type": "single-audio", "trial_index": 163, "time_elapsed": 764719, "internal_node_id": "0.0-118.0"}}, {"uniqueid": "MTK1018:33PPO7FECWM9MJ3MP0C5H64KIC9DIO", "current_trial": 164, "dateTime": 1513007492840, "trialdata": {"rt": -1000, "stimulus": "/static/audio/wordpool/WRIST.wav", "key_press": -1, "type": "PRES_AUD", "word": "wrist", "wordID": 1625, "conditions": [12, 800, "a", 12000], "trial": 4, "serialpos": 7, "trial_type": "single-audio", "trial_index": 164, "time_elapsed": 766610, "internal_node_id": "0.0-119.0"}}, {"uniqueid": "MTK1018:33PPO7FECWM9MJ3MP0C5H64KIC9DIO", "current_trial": 165, "dateTime": 1513007494639, "trialdata": {"rt": -1000, "stimulus": "/static/audio/wordpool/MAMMAL.wav", "key_press": -1, "type": "PRES_AUD", "word": "mammal", "wordID": 860, "conditions": [12, 800, "a", 12000], "trial": 4, "serialpos": 8, "trial_type": "single-audio", "trial_index": 165, "time_elapsed": 768409, "internal_node_id": "0.0-120.0"}}, {"uniqueid": "MTK1018:33PPO7FECWM9MJ3MP0C5H64KIC9DIO", "current_trial": 166, "dateTime": 1513007496443, "trialdata": {"rt": -1000, "stimulus": "/static/audio/wordpool/SHARK.wav", "key_press": -1, "type": "PRES_AUD", "word": "shark", "wordID": 1274, "conditions": [12, 800, "a", 12000], "trial": 4, "serialpos": 9, "trial_type": "single-audio", "trial_index": 166, "time_elapsed": 770212, "internal_node_id": "0.0-121.0"}}, {"uniqueid": "MTK1018:33PPO7FECWM9MJ3MP0C5H64KIC9DIO", "current_trial": 167, "dateTime": 1513007498438, "trialdata": {"rt": -1000, "stimulus": "/static/audio/wordpool/GLOVE.wav", "key_press": -1, "type": "PRES_AUD", "word": "glove", "wordID": 641, "conditions": [12, 800, "a", 12000], "trial": 4, "serialpos": 10, "trial_type": "single-audio", "trial_index": 167, "time_elapsed": 772208, "internal_node_id": "0.0-122.0"}}, {"uniqueid": "MTK1018:33PPO7FECWM9MJ3MP0C5H64KIC9DIO", "current_trial": 168, "dateTime": 1513007500407, "trialdata": {"rt": -1000, "stimulus": "/static/audio/wordpool/BANQUET.wav", "key_press": -1, "type": "PRES_AUD", "word": "banquet", "wordID": 85, "conditions": [12, 800, "a", 12000], "trial": 4, "serialpos": 11, "trial_type": "single-audio", "trial_index": 168, "time_elapsed": 774176, "internal_node_id": "0.0-123.0"}}, {"uniqueid": "MTK1018:33PPO7FECWM9MJ3MP0C5H64KIC9DIO", "current_trial": 169, "dateTime": 1513007501709, "trialdata": {"rt": -1, "stimulus": "", "key_press": -1, "type": "PRE_RECALL_DELAY", "trial_type": "single-stim", "trial_index": 169, "time_elapsed": 775478, "internal_node_id": "0.0-124.0-0.0"}}, {"uniqueid": "MTK1018:33PPO7FECWM9MJ3MP0C5H64KIC9DIO", "current_trial": 170, "dateTime": 1513007502212, "trialdata": {"rt": -1000, "stimulus": "/static/audio/400Hz.wav", "key_press": -1, "type": "PRE_RECALL_ALERT", "trial_type": "single-audio", "trial_index": 170, "time_elapsed": 775981, "internal_node_id": "0.0-125.0"}}, {"uniqueid": "MTK1018:33PPO7FECWM9MJ3MP0C5H64KIC9DIO", "current_trial": 171, "dateTime": 1513007562220, "trialdata": {"rt": [3583, 6071, 8936, 11342, 12888, 17467, 20249, 22748, 25725, 27352], "recwords": ["angle", "dustpan", "mop", "couch", "coffe", "peacan", "blueprint", "wrist", "shark", "glove"], "type": "FREE_RECALL", "conditions": [12, 800, "a", 12000], "trial": 4, "trial_type": "free-recall", "trial_index": 171, "time_elapsed": 835985, "internal_node_id": "0.0-126.0-0.0"}}, {"uniqueid": "MTK1018:33PPO7FECWM9MJ3MP0C5H64KIC9DIO", "current_trial": 172, "dateTime": 1513007576012, "trialdata": {"rt": 11787, "key_press": 32, "type": "INSTRUCTIONS", "trial_type": "text", "trial_index": 172, "time_elapsed": 849782, "internal_node_id": "0.0-127.0"}}, {"uniqueid": "MTK1018:33PPO7FECWM9MJ3MP0C5H64KIC9DIO", "current_trial": 173, "dateTime": 1513007602029, "trialdata": {"rt": [4517, 9341, 12208, 14207, 15896, 18292, 21713], "responses": ["15", "16", "11", "4", "11", "18", "13"], "num1": [9, 9, 2, 2, 1, 8, 8, 5], "num2": [5, 2, 6, 1, 2, 8, 4, 6], "num3": [1, 4, 3, 1, 8, 2, 1, 8], "type": "DISTRACTOR", "conditions": [12, 800, "a", 24000], "trial": 5, "trial_type": "math-distractor", "trial_index": 173, "time_elapsed": 875799, "internal_node_id": "0.0-128.0"}}, {"uniqueid": "MTK1018:33PPO7FECWM9MJ3MP0C5H64KIC9DIO", "current_trial": 174, "dateTime": 1513007605033, "trialdata": {"rt": -1, "stimulus": "<p id=\"stim\">10</p>", "key_press": -1, "trial_type": "single-stim", "trial_index": 174, "time_elapsed": 878803, "internal_node_id": "0.0-129.0-0.0"}}, {"uniqueid": "MTK1018:33PPO7FECWM9MJ3MP0C5H64KIC9DIO", "current_trial": 175, "dateTime": 1513007606040, "trialdata": {"rt": -1, "stimulus": "<p id=\"stim\">9</p>", "key_press": -1, "trial_type": "single-stim", "trial_index": 175, "time_elapsed": 879810, "internal_node_id": "0.0-129.0-1.0"}}, {"uniqueid": "MTK1018:33PPO7FECWM9MJ3MP0C5H64KIC9DIO", "current_trial": 176, "dateTime": 1513007607042, "trialdata": {"rt": -1, "stimulus": "<p id=\"stim\">8</p>", "key_press": -1, "trial_type": "single-stim", "trial_index": 176, "time_elapsed": 880811, "internal_node_id": "0.0-129.0-2.0"}}, {"uniqueid": "MTK1018:33PPO7FECWM9MJ3MP0C5H64KIC9DIO", "current_trial": 177, "dateTime": 1513007608045, "trialdata": {"rt": -1, "stimulus": "<p id=\"stim\">7</p>", "key_press": -1, "trial_type": "single-stim", "trial_index": 177, "time_elapsed": 881814, "internal_node_id": "0.0-129.0-3.0"}}, {"uniqueid": "MTK1018:33PPO7FECWM9MJ3MP0C5H64KIC9DIO", "current_trial": 178, "dateTime": 1513007609047, "trialdata": {"rt": -1, "stimulus": "<p id=\"stim\">6</p>", "key_press": -1, "trial_type": "single-stim", "trial_index": 178, "time_elapsed": 882816, "internal_node_id": "0.0-129.0-4.0"}}, {"uniqueid": "MTK1018:33PPO7FECWM9MJ3MP0C5H64KIC9DIO", "current_trial": 179, "dateTime": 1513007610051, "trialdata": {"rt": -1, "stimulus": "<p id=\"stim\">5</p>", "key_press": -1, "trial_type": "single-stim", "trial_index": 179, "time_elapsed": 883821, "internal_node_id": "0.0-129.0-5.0"}}, {"uniqueid": "MTK1018:33PPO7FECWM9MJ3MP0C5H64KIC9DIO", "current_trial": 180, "dateTime": 1513007611052, "trialdata": {"rt": -1, "stimulus": "<p id=\"stim\">4</p>", "key_press": -1, "trial_type": "single-stim", "trial_index": 180, "time_elapsed": 884822, "internal_node_id": "0.0-129.0-6.0"}}, {"uniqueid": "MTK1018:33PPO7FECWM9MJ3MP0C5H64KIC9DIO", "current_trial": 181, "dateTime": 1513007612055, "trialdata": {"rt": -1, "stimulus": "<p id=\"stim\">3</p>", "key_press": -1, "trial_type": "single-stim", "trial_index": 181, "time_elapsed": 885824, "internal_node_id": "0.0-129.0-7.0"}}, {"uniqueid": "MTK1018:33PPO7FECWM9MJ3MP0C5H64KIC9DIO", "current_trial": 182, "dateTime": 1513007613058, "trialdata": {"rt": -1, "stimulus": "<p id=\"stim\">2</p>", "key_press": -1, "trial_type": "single-stim", "trial_index": 182, "time_elapsed": 886827, "internal_node_id": "0.0-129.0-8.0"}}, {"uniqueid": "MTK1018:33PPO7FECWM9MJ3MP0C5H64KIC9DIO", "current_trial": 183, "dateTime": 1513007614061, "trialdata": {"rt": -1, "stimulus": "<p id=\"stim\">1</p>", "key_press": -1, "trial_type": "single-stim", "trial_index": 183, "time_elapsed": 887831, "internal_node_id": "0.0-129.0-9.0"}}, {"uniqueid": "MTK1018:33PPO7FECWM9MJ3MP0C5H64KIC9DIO", "current_trial": 184, "dateTime": 1513007615567, "trialdata": {"rt": -1, "stimulus": "<p id=\"stim\">+</p>", "key_press": -1, "type": "FIXATION", "trial_type": "single-stim", "trial_index": 184, "time_elapsed": 889337, "internal_node_id": "0.0-130.0-0.0"}}, {"uniqueid": "MTK1018:33PPO7FECWM9MJ3MP0C5H64KIC9DIO", "current_trial": 185, "dateTime": 1513007617362, "trialdata": {"rt": -1000, "stimulus": "/static/audio/wordpool/HIGHWAY.wav", "key_press": -1, "type": "PRES_AUD", "word": "highway", "wordID": 706, "conditions": [12, 800, "a", 24000], "trial": 5, "serialpos": 0, "trial_type": "single-audio", "trial_index": 185, "time_elapsed": 891131, "internal_node_id": "0.0-131.0"}}, {"uniqueid": "MTK1018:33PPO7FECWM9MJ3MP0C5H64KIC9DIO", "current_trial": 186, "dateTime": 1513007619100, "trialdata": {"rt": -1000, "stimulus": "/static/audio/wordpool/COUNTRY.wav", "key_press": -1, "type": "PRES_AUD", "word": "country", "wordID": 387, "conditions": [12, 800, "a", 24000], "trial": 5, "serialpos": 1, "trial_type": "single-audio", "trial_index": 186, "time_elapsed": 892870, "internal_node_id": "0.0-132.0"}}, {"uniqueid": "MTK1018:33PPO7FECWM9MJ3MP0C5H64KIC9DIO", "current_trial": 187, "dateTime": 1513007620881, "trialdata": {"rt": -1000, "stimulus": "/static/audio/wordpool/FOREST.wav", "key_press": -1, "type": "PRES_AUD", "word": "forest", "wordID": 592, "conditions": [12, 800, "a", 24000], "trial": 5, "serialpos": 2, "trial_type": "single-audio", "trial_index": 187, "time_elapsed": 894651, "internal_node_id": "0.0-133.0"}}, {"uniqueid": "MTK1018:33PPO7FECWM9MJ3MP0C5H64KIC9DIO", "current_trial": 188, "dateTime": 1513007622706, "trialdata": {"rt": -1000, "stimulus": "/static/audio/wordpool/PISTON.wav", "key_press": -1, "type": "PRES_AUD", "word": "piston", "wordID": 1075, "conditions": [12, 800, "a", 24000], "trial": 5, "serialpos": 3, "trial_type": "single-audio", "trial_index": 188, "time_elapsed": 896476, "internal_node_id": "0.0-134.0"}}, {"uniqueid": "MTK1018:33PPO7FECWM9MJ3MP0C5H64KIC9DIO", "current_trial": 189, "dateTime": 1513007624567, "trialdata": {"rt": -1000, "stimulus": "/static/audio/wordpool/EGYPT.wav", "key_press": -1, "type": "PRES_AUD", "word": "egypt", "wordID": 518, "conditions": [12, 800, "a", 24000], "trial": 5, "serialpos": 4, "trial_type": "single-audio", "trial_index": 189, "time_elapsed": 898337, "internal_node_id": "0.0-135.0"}}, {"uniqueid": "MTK1018:33PPO7FECWM9MJ3MP0C5H64KIC9DIO", "current_trial": 190, "dateTime": 1513007626348, "trialdata": {"rt": -1000, "stimulus": "/static/audio/wordpool/WORLD.wav", "key_press": -1, "type": "PRES_AUD", "word": "world", "wordID": 1621, "conditions": [12, 800, "a", 24000], "trial": 5, "serialpos": 5, "trial_type": "single-audio", "trial_index": 190, "time_elapsed": 900118, "internal_node_id": "0.0-136.0"}}, {"uniqueid": "MTK1018:33PPO7FECWM9MJ3MP0C5H64KIC9DIO", "current_trial": 191, "dateTime": 1513007628304, "trialdata": {"rt": -1000, "stimulus": "/static/audio/wordpool/GLOBE.wav", "key_press": -1, "type": "PRES_AUD", "word": "globe", "wordID": 640, "conditions": [12, 800, "a", 24000], "trial": 5, "serialpos": 6, "trial_type": "single-audio", "trial_index": 191, "time_elapsed": 902073, "internal_node_id": "0.0-137.0"}}, {"uniqueid": "MTK1018:33PPO7FECWM9MJ3MP0C5H64KIC9DIO", "current_trial": 192, "dateTime": 1513007629913, "trialdata": {"rt": -1000, "stimulus": "/static/audio/wordpool/PEBBLE.wav", "key_press": -1, "type": "PRES_AUD", "word": "pebble", "wordID": 1034, "conditions": [12, 800, "a", 24000], "trial": 5, "serialpos": 7, "trial_type": "single-audio", "trial_index": 192, "time_elapsed": 903683, "internal_node_id": "0.0-138.0"}}, {"uniqueid": "MTK1018:33PPO7FECWM9MJ3MP0C5H64KIC9DIO", "current_trial": 193, "dateTime": 1513007631651, "trialdata": {"rt": -1000, "stimulus": "/static/audio/wordpool/DUST.wav", "key_press": -1, "type": "PRES_AUD", "word": "dust", "wordID": 507, "conditions": [12, 800, "a", 24000], "trial": 5, "serialpos": 8, "trial_type": "single-audio", "trial_index": 193, "time_elapsed": 905421, "internal_node_id": "0.0-139.0"}}, {"uniqueid": "MTK1018:33PPO7FECWM9MJ3MP0C5H64KIC9DIO", "current_trial": 194, "dateTime": 1513007633521, "trialdata": {"rt": -1000, "stimulus": "/static/audio/wordpool/CARRIAGE.wav", "key_press": -1, "type": "PRES_AUD", "word": "carriage", "wordID": 247, "conditions": [12, 800, "a", 24000], "trial": 5, "serialpos": 9, "trial_type": "single-audio", "trial_index": 194, "time_elapsed": 907291, "internal_node_id": "0.0-140.0"}}, {"uniqueid": "MTK1018:33PPO7FECWM9MJ3MP0C5H64KIC9DIO", "current_trial": 195, "dateTime": 1513007635439, "trialdata": {"rt": -1000, "stimulus": "/static/audio/wordpool/EUROPE.wav", "key_press": -1, "type": "PRES_AUD", "word": "europe", "wordID": 540, "conditions": [12, 800, "a", 24000], "trial": 5, "serialpos": 10, "trial_type": "single-audio", "trial_index": 195, "time_elapsed": 909209, "internal_node_id": "0.0-141.0"}}, {"uniqueid": "MTK1018:33PPO7FECWM9MJ3MP0C5H64KIC9DIO", "current_trial": 196, "dateTime": 1513007637126, "trialdata": {"rt": -1000, "stimulus": "/static/audio/wordpool/CABIN.wav", "key_press": -1, "type": "PRES_AUD", "word": "cabin", "wordID": 210, "conditions": [12, 800, "a", 24000], "trial": 5, "serialpos": 11, "trial_type": "single-audio", "trial_index": 196, "time_elapsed": 910896, "internal_node_id": "0.0-142.0"}}, {"uniqueid": "MTK1018:33PPO7FECWM9MJ3MP0C5H64KIC9DIO", "current_trial": 197, "dateTime": 1513007638348, "trialdata": {"rt": -1, "stimulus": "", "key_press": -1, "type": "PRE_RECALL_DELAY", "trial_type": "single-stim", "trial_index": 197, "time_elapsed": 912118, "internal_node_id": "0.0-143.0-0.0"}}, {"uniqueid": "MTK1018:33PPO7FECWM9MJ3MP0C5H64KIC9DIO", "current_trial": 198, "dateTime": 1513007638850, "trialdata": {"rt": -1000, "stimulus": "/static/audio/400Hz.wav", "key_press": -1, "type": "PRE_RECALL_ALERT", "trial_type": "single-audio", "trial_index": 198, "time_elapsed": 912620, "internal_node_id": "0.0-144.0"}}, {"uniqueid": "MTK1018:33PPO7FECWM9MJ3MP0C5H64KIC9DIO", "current_trial": 199, "dateTime": 1513007698860, "trialdata": {"rt": [3388, 12144, 14446, 17112, 19971], "recwords": ["forest", "eygpt", "globe", "dust", "europe"], "type": "FREE_RECALL", "conditions": [12, 800, "a", 24000], "trial": 5, "trial_type": "free-recall", "trial_index": 199, "time_elapsed": 972624, "internal_node_id": "0.0-145.0-0.0"}}, {"uniqueid": "MTK1018:33PPO7FECWM9MJ3MP0C5H64KIC9DIO", "current_trial": 200, "dateTime": 1513007702088, "trialdata": {"rt": 1225, "key_press": 32, "type": "INSTRUCTIONS", "trial_type": "text", "trial_index": 200, "time_elapsed": 975857, "internal_node_id": "0.0-146.0"}}, {"uniqueid": "MTK1018:33PPO7FECWM9MJ3MP0C5H64KIC9DIO", "current_trial": 201, "dateTime": 1513007716101, "trialdata": {"rt": [4751, 9225], "responses": ["17", "14"], "num1": [5, 2, 6], "num2": [9, 9, 3], "num3": [3, 3, 6], "type": "DISTRACTOR", "conditions": [24, 1600, "a", 12000], "trial": 6, "trial_type": "math-distractor", "trial_index": 201, "time_elapsed": 989871, "internal_node_id": "0.0-147.0"}}, {"uniqueid": "MTK1018:33PPO7FECWM9MJ3MP0C5H64KIC9DIO", "current_trial": 202, "dateTime": 1513007719109, "trialdata": {"rt": -1, "stimulus": "<p id=\"stim\">10</p>", "key_press": -1, "trial_type": "single-stim", "trial_index": 202, "time_elapsed": 992879, "internal_node_id": "0.0-148.0-0.0"}}, {"uniqueid": "MTK1018:33PPO7FECWM9MJ3MP0C5H64KIC9DIO", "current_trial": 203, "dateTime": 1513007720112, "trialdata": {"rt": -1, "stimulus": "<p id=\"stim\">9</p>", "key_press": -1, "trial_type": "single-stim", "trial_index": 203, "time_elapsed": 993882, "internal_node_id": "0.0-148.0-1.0"}}, {"uniqueid": "MTK1018:33PPO7FECWM9MJ3MP0C5H64KIC9DIO", "current_trial": 204, "dateTime": 1513007721117, "trialdata": {"rt": -1, "stimulus": "<p id=\"stim\">8</p>", "key_press": -1, "trial_type": "single-stim", "trial_index": 204, "time_elapsed": 994886, "internal_node_id": "0.0-148.0-2.0"}}, {"uniqueid": "MTK1018:33PPO7FECWM9MJ3MP0C5H64KIC9DIO", "current_trial": 205, "dateTime": 1513007722120, "trialdata": {"rt": -1, "stimulus": "<p id=\"stim\">7</p>", "key_press": -1, "trial_type": "single-stim", "trial_index": 205, "time_elapsed": 995890, "internal_node_id": "0.0-148.0-3.0"}}, {"uniqueid": "MTK1018:33PPO7FECWM9MJ3MP0C5H64KIC9DIO", "current_trial": 206, "dateTime": 1513007723123, "trialdata": {"rt": -1, "stimulus": "<p id=\"stim\">6</p>", "key_press": -1, "trial_type": "single-stim", "trial_index": 206, "time_elapsed": 996893, "internal_node_id": "0.0-148.0-4.0"}}, {"uniqueid": "MTK1018:33PPO7FECWM9MJ3MP0C5H64KIC9DIO", "current_trial": 207, "dateTime": 1513007724126, "trialdata": {"rt": -1, "stimulus": "<p id=\"stim\">5</p>", "key_press": -1, "trial_type": "single-stim", "trial_index": 207, "time_elapsed": 997896, "internal_node_id": "0.0-148.0-5.0"}}, {"uniqueid": "MTK1018:33PPO7FECWM9MJ3MP0C5H64KIC9DIO", "current_trial": 208, "dateTime": 1513007725131, "trialdata": {"rt": -1, "stimulus": "<p id=\"stim\">4</p>", "key_press": -1, "trial_type": "single-stim", "trial_index": 208, "time_elapsed": 998900, "internal_node_id": "0.0-148.0-6.0"}}, {"uniqueid": "MTK1018:33PPO7FECWM9MJ3MP0C5H64KIC9DIO", "current_trial": 209, "dateTime": 1513007726133, "trialdata": {"rt": -1, "stimulus": "<p id=\"stim\">3</p>", "key_press": -1, "trial_type": "single-stim", "trial_index": 209, "time_elapsed": 999903, "internal_node_id": "0.0-148.0-7.0"}}, {"uniqueid": "MTK1018:33PPO7FECWM9MJ3MP0C5H64KIC9DIO", "current_trial": 210, "dateTime": 1513007727136, "trialdata": {"rt": -1, "stimulus": "<p id=\"stim\">2</p>", "key_press": -1, "trial_type": "single-stim", "trial_index": 210, "time_elapsed": 1000905, "internal_node_id": "0.0-148.0-8.0"}}, {"uniqueid": "MTK1018:33PPO7FECWM9MJ3MP0C5H64KIC9DIO", "current_trial": 211, "dateTime": 1513007728139, "trialdata": {"rt": -1, "stimulus": "<p id=\"stim\">1</p>", "key_press": -1, "trial_type": "single-stim", "trial_index": 211, "time_elapsed": 1001908, "internal_node_id": "0.0-148.0-9.0"}}, {"uniqueid": "MTK1018:33PPO7FECWM9MJ3MP0C5H64KIC9DIO", "current_trial": 212, "dateTime": 1513007729643, "trialdata": {"rt": -1, "stimulus": "<p id=\"stim\">+</p>", "key_press": -1, "type": "FIXATION", "trial_type": "single-stim", "trial_index": 212, "time_elapsed": 1003413, "internal_node_id": "0.0-149.0-0.0"}}, {"uniqueid": "MTK1018:33PPO7FECWM9MJ3MP0C5H64KIC9DIO", "current_trial": 213, "dateTime": 1513007732402, "trialdata": {"rt": -1000, "stimulus": "/static/audio/wordpool/CUPBOARD.wav", "key_press": -1, "type": "PRES_AUD", "word": "cupboard", "wordID": 424, "conditions": [24, 1600, "a", 12000], "trial": 6, "serialpos": 0, "trial_type": "single-audio", "trial_index": 213, "time_elapsed": 1006171, "internal_node_id": "0.0-150.0"}}, {"uniqueid": "MTK1018:33PPO7FECWM9MJ3MP0C5H64KIC9DIO", "current_trial": 214, "dateTime": 1513007735177, "trialdata": {"rt": -1000, "stimulus": "/static/audio/wordpool/PERCH.wav", "key_press": -1, "type": "PRES_AUD", "word": "perch", "wordID": 1047, "conditions": [24, 1600, "a", 12000], "trial": 6, "serialpos": 1, "trial_type": "single-audio", "trial_index": 214, "time_elapsed": 1008947, "internal_node_id": "0.0-151.0"}}, {"uniqueid": "MTK1018:33PPO7FECWM9MJ3MP0C5H64KIC9DIO", "current_trial": 215, "dateTime": 1513007737977, "trialdata": {"rt": -1000, "stimulus": "/static/audio/wordpool/SWIMMER.wav", "key_press": -1, "type": "PRES_AUD", "word": "swimmer", "wordID": 1419, "conditions": [24, 1600, "a", 12000], "trial": 6, "serialpos": 2, "trial_type": "single-audio", "trial_index": 215, "time_elapsed": 1011747, "internal_node_id": "0.0-152.0"}}, {"uniqueid": "MTK1018:33PPO7FECWM9MJ3MP0C5H64KIC9DIO", "current_trial": 216, "dateTime": 1513007740618, "trialdata": {"rt": -1000, "stimulus": "/static/audio/wordpool/XEROX.wav", "key_press": -1, "type": "PRES_AUD", "word": "xerox", "wordID": 1627, "conditions": [24, 1600, "a", 12000], "trial": 6, "serialpos": 3, "trial_type": "single-audio", "trial_index": 216, "time_elapsed": 1014388, "internal_node_id": "0.0-153.0"}}, {"uniqueid": "MTK1018:33PPO7FECWM9MJ3MP0C5H64KIC9DIO", "current_trial": 217, "dateTime": 1513007743366, "trialdata": {"rt": -1000, "stimulus": "/static/audio/wordpool/CREATURE.wav", "key_press": -1, "type": "PRES_AUD", "word": "creature", "wordID": 402, "conditions": [24, 1600, "a", 12000], "trial": 6, "serialpos": 4, "trial_type": "single-audio", "trial_index": 217, "time_elapsed": 1017135, "internal_node_id": "0.0-154.0"}}, {"uniqueid": "MTK1018:33PPO7FECWM9MJ3MP0C5H64KIC9DIO", "current_trial": 218, "dateTime": 1513007745796, "trialdata": {"rt": -1000, "stimulus": "/static/audio/wordpool/SUNSET.wav", "key_press": -1, "type": "PRES_AUD", "word": "sunset", "wordID": 1407, "conditions": [24, 1600, "a", 12000], "trial": 6, "serialpos": 5, "trial_type": "single-audio", "trial_index": 218, "time_elapsed": 1019566, "internal_node_id": "0.0-155.0"}}, {"uniqueid": "MTK1018:33PPO7FECWM9MJ3MP0C5H64KIC9DIO", "current_trial": 219, "dateTime": 1513007748228, "trialdata": {"rt": -1000, "stimulus": "/static/audio/wordpool/LASER.wav", "key_press": -1, "type": "PRES_AUD", "word": "laser", "wordID": 800, "conditions": [24, 1600, "a", 12000], "trial": 6, "serialpos": 6, "trial_type": "single-audio", "trial_index": 219, "time_elapsed": 1021997, "internal_node_id": "0.0-156.0"}}, {"uniqueid": "MTK1018:33PPO7FECWM9MJ3MP0C5H64KIC9DIO", "current_trial": 220, "dateTime": 1513007750912, "trialdata": {"rt": -1000, "stimulus": "/static/audio/wordpool/GYMNAST.wav", "key_press": -1, "type": "PRES_AUD", "word": "gymnast", "wordID": 674, "conditions": [24, 1600, "a", 12000], "trial": 6, "serialpos": 7, "trial_type": "single-audio", "trial_index": 220, "time_elapsed": 1024681, "internal_node_id": "0.0-157.0"}}, {"uniqueid": "MTK1018:33PPO7FECWM9MJ3MP0C5H64KIC9DIO", "current_trial": 221, "dateTime": 1513007753573, "trialdata": {"rt": -1000, "stimulus": "/static/audio/wordpool/RADISH.wav", "key_press": -1, "type": "PRES_AUD", "word": "radish", "wordID": 1157, "conditions": [24, 1600, "a", 12000], "trial": 6, "serialpos": 8, "trial_type": "single-audio", "trial_index": 221, "time_elapsed": 1027343, "internal_node_id": "0.0-158.0"}}, {"uniqueid": "MTK1018:33PPO7FECWM9MJ3MP0C5H64KIC9DIO", "current_trial": 222, "dateTime": 1513007756148, "trialdata": {"rt": -1000, "stimulus": "/static/audio/wordpool/LETTUCE.wav", "key_press": -1, "type": "PRES_AUD", "word": "lettuce", "wordID": 813, "conditions": [24, 1600, "a", 12000], "trial": 6, "serialpos": 9, "trial_type": "single-audio", "trial_index": 222, "time_elapsed": 1029918, "internal_node_id": "0.0-159.0"}}, {"uniqueid": "MTK1018:33PPO7FECWM9MJ3MP0C5H64KIC9DIO", "current_trial": 223, "dateTime": 1513007758682, "trialdata": {"rt": -1000, "stimulus": "/static/audio/wordpool/BOYFRIEND.wav", "key_press": -1, "type": "PRES_AUD", "word": "boyfriend", "wordID": 161, "conditions": [24, 1600, "a", 12000], "trial": 6, "serialpos": 10, "trial_type": "single-audio", "trial_index": 223, "time_elapsed": 1032452, "internal_node_id": "0.0-160.0"}}, {"uniqueid": "MTK1018:33PPO7FECWM9MJ3MP0C5H64KIC9DIO", "current_trial": 224, "dateTime": 1513007761098, "trialdata": {"rt": -1000, "stimulus": "/static/audio/wordpool/LODGE.wav", "key_press": -1, "type": "PRES_AUD", "word": "lodge", "wordID": 838, "conditions": [24, 1600, "a", 12000], "trial": 6, "serialpos": 11, "trial_type": "single-audio", "trial_index": 224, "time_elapsed": 1034868, "internal_node_id": "0.0-161.0"}}, {"uniqueid": "MTK1018:33PPO7FECWM9MJ3MP0C5H64KIC9DIO", "current_trial": 225, "dateTime": 1513007763587, "trialdata": {"rt": -1000, "stimulus": "/static/audio/wordpool/SPIDER.wav", "key_press": -1, "type": "PRES_AUD", "word": "spider", "wordID": 1350, "conditions": [24, 1600, "a", 12000], "trial": 6, "serialpos": 12, "trial_type": "single-audio", "trial_index": 225, "time_elapsed": 1037357, "internal_node_id": "0.0-162.0"}}, {"uniqueid": "MTK1018:33PPO7FECWM9MJ3MP0C5H64KIC9DIO", "current_trial": 226, "dateTime": 1513007766340, "trialdata": {"rt": -1000, "stimulus": "/static/audio/wordpool/FRAME.wav", "key_press": -1, "type": "PRES_AUD", "word": "frame", "wordID": 599, "conditions": [24, 1600, "a", 12000], "trial": 6, "serialpos": 13, "trial_type": "single-audio", "trial_index": 226, "time_elapsed": 1040110, "internal_node_id": "0.0-163.0"}}, {"uniqueid": "MTK1018:33PPO7FECWM9MJ3MP0C5H64KIC9DIO", "current_trial": 227, "dateTime": 1513007769070, "trialdata": {"rt": -1000, "stimulus": "/static/audio/wordpool/SCARECROW.wav", "key_press": -1, "type": "PRES_AUD", "word": "scarecrow", "wordID": 1244, "conditions": [24, 1600, "a", 12000], "trial": 6, "serialpos": 14, "trial_type": "single-audio", "trial_index": 227, "time_elapsed": 1042839, "internal_node_id": "0.0-164.0"}}, {"uniqueid": "MTK1018:33PPO7FECWM9MJ3MP0C5H64KIC9DIO", "current_trial": 228, "dateTime": 1513007771671, "trialdata": {"rt": -1000, "stimulus": "/static/audio/wordpool/HELMET.wav", "key_press": -1, "type": "PRES_AUD", "word": "helmet", "wordID": 701, "conditions": [24, 1600, "a", 12000], "trial": 6, "serialpos": 15, "trial_type": "single-audio", "trial_index": 228, "time_elapsed": 1045440, "internal_node_id": "0.0-165.0"}}, {"uniqueid": "MTK1018:33PPO7FECWM9MJ3MP0C5H64KIC9DIO", "current_trial": 229, "dateTime": 1513007774395, "trialdata": {"rt": -1000, "stimulus": "/static/audio/wordpool/QUARTER.wav", "key_press": -1, "type": "PRES_AUD", "word": "quarter", "wordID": 1147, "conditions": [24, 1600, "a", 12000], "trial": 6, "serialpos": 16, "trial_type": "single-audio", "trial_index": 229, "time_elapsed": 1048165, "internal_node_id": "0.0-166.0"}}, {"uniqueid": "MTK1018:33PPO7FECWM9MJ3MP0C5H64KIC9DIO", "current_trial": 230, "dateTime": 1513007776899, "trialdata": {"rt": -1000, "stimulus": "/static/audio/wordpool/BARREL.wav", "key_press": -1, "type": "PRES_AUD", "word": "barrel", "wordID": 90, "conditions": [24, 1600, "a", 12000], "trial": 6, "serialpos": 17, "trial_type": "single-audio", "trial_index": 230, "time_elapsed": 1050669, "internal_node_id": "0.0-167.0"}}, {"uniqueid": "MTK1018:33PPO7FECWM9MJ3MP0C5H64KIC9DIO", "current_trial": 231, "dateTime": 1513007779589, "trialdata": {"rt": -1000, "stimulus": "/static/audio/wordpool/GALLON.wav", "key_press": -1, "type": "PRES_AUD", "word": "gallon", "wordID": 617, "conditions": [24, 1600, "a", 12000], "trial": 6, "serialpos": 18, "trial_type": "single-audio", "trial_index": 231, "time_elapsed": 1053359, "internal_node_id": "0.0-168.0"}}, {"uniqueid": "MTK1018:33PPO7FECWM9MJ3MP0C5H64KIC9DIO", "current_trial": 232, "dateTime": 1513007782350, "trialdata": {"rt": -1000, "stimulus": "/static/audio/wordpool/HAND.wav", "key_press": -1, "type": "PRES_AUD", "word": "hand", "wordID": 682, "conditions": [24, 1600, "a", 12000], "trial": 6, "serialpos": 19, "trial_type": "single-audio", "trial_index": 232, "time_elapsed": 1056120, "internal_node_id": "0.0-169.0"}}, {"uniqueid": "MTK1018:33PPO7FECWM9MJ3MP0C5H64KIC9DIO", "current_trial": 233, "dateTime": 1513007784836, "trialdata": {"rt": -1000, "stimulus": "/static/audio/wordpool/RACKET.wav", "key_press": -1, "type": "PRES_AUD", "word": "racket", "wordID": 1154, "conditions": [24, 1600, "a", 12000], "trial": 6, "serialpos": 20, "trial_type": "single-audio", "trial_index": 233, "time_elapsed": 1058606, "internal_node_id": "0.0-170.0"}}, {"uniqueid": "MTK1018:33PPO7FECWM9MJ3MP0C5H64KIC9DIO", "current_trial": 234, "dateTime": 1513007787458, "trialdata": {"rt": -1000, "stimulus": "/static/audio/wordpool/COSTUME.wav", "key_press": -1, "type": "PRES_AUD", "word": "costume", "wordID": 382, "conditions": [24, 1600, "a", 12000], "trial": 6, "serialpos": 21, "trial_type": "single-audio", "trial_index": 234, "time_elapsed": 1061227, "internal_node_id": "0.0-171.0"}}, {"uniqueid": "MTK1018:33PPO7FECWM9MJ3MP0C5H64KIC9DIO", "current_trial": 235, "dateTime": 1513007790126, "trialdata": {"rt": -1000, "stimulus": "/static/audio/wordpool/RECORD.wav", "key_press": -1, "type": "PRES_AUD", "word": "record", "wordID": 1175, "conditions": [24, 1600, "a", 12000], "trial": 6, "serialpos": 22, "trial_type": "single-audio", "trial_index": 235, "time_elapsed": 1063896, "internal_node_id": "0.0-172.0"}}, {"uniqueid": "MTK1018:33PPO7FECWM9MJ3MP0C5H64KIC9DIO", "current_trial": 236, "dateTime": 1513007792902, "trialdata": {"rt": -1000, "stimulus": "/static/audio/wordpool/MISSILE.wav", "key_press": -1, "type": "PRES_AUD", "word": "missile", "wordID": 899, "conditions": [24, 1600, "a", 12000], "trial": 6, "serialpos": 23, "trial_type": "single-audio", "trial_index": 236, "time_elapsed": 1066672, "internal_node_id": "0.0-173.0"}}, {"uniqueid": "MTK1018:33PPO7FECWM9MJ3MP0C5H64KIC9DIO", "current_trial": 237, "dateTime": 1513007794279, "trialdata": {"rt": -1, "stimulus": "", "key_press": -1, "type": "PRE_RECALL_DELAY", "trial_type": "single-stim", "trial_index": 237, "time_elapsed": 1068049, "internal_node_id": "0.0-174.0-0.0"}}, {"uniqueid": "MTK1018:33PPO7FECWM9MJ3MP0C5H64KIC9DIO", "current_trial": 238, "dateTime": 1513007794782, "trialdata": {"rt": -1000, "stimulus": "/static/audio/400Hz.wav", "key_press": -1, "type": "PRE_RECALL_ALERT", "trial_type": "single-audio", "trial_index": 238, "time_elapsed": 1068552, "internal_node_id": "0.0-175.0"}}, {"uniqueid": "MTK1018:33PPO7FECWM9MJ3MP0C5H64KIC9DIO", "current_trial": 239, "dateTime": 1513007854794, "trialdata": {"rt": [3478, 5801, 8607, 11205, 13164, 15644, 18520, 21846, 24164, 25959, 28065, 31340, 34238, 35998, 38489, 40554, 42087, 45142, 47196, 48877], "recwords": ["swimmer", "xerox", "ceature", "sunset", "laser", "radish", "lettuce", "boyfriend", "lodge", "spider", "frame", "scarecrow", "halmet", "potter", "barrel", "gallon", "ant", "costume", "record", "missle"], "type": "FREE_RECALL", "conditions": [24, 1600, "a", 12000], "trial": 6, "trial_type": "free-recall", "trial_index": 239, "time_elapsed": 1128556, "internal_node_id": "0.0-176.0-0.0"}}, {"uniqueid": "MTK1018:33PPO7FECWM9MJ3MP0C5H64KIC9DIO", "current_trial": 240, "dateTime": 1513007857612, "trialdata": {"rt": 814, "key_press": 32, "type": "INSTRUCTIONS", "trial_type": "text", "trial_index": 240, "time_elapsed": 1131381, "internal_node_id": "0.0-177.0"}}, {"uniqueid": "MTK1018:33PPO7FECWM9MJ3MP0C5H64KIC9DIO", "current_trial": 241, "dateTime": 1513007883617, "trialdata": {"rt": [2813, 6694, 16731, 18283, 23294], "responses": ["16", "8", "22", "15", "12"], "num1": [2, 6, 8, 5, 3, 7], "num2": [8, 1, 9, 5, 6, 1], "num3": [6, 1, 5, 5, 3, 6], "type": "DISTRACTOR", "conditions": [12, 1600, "v", 24000], "trial": 7, "trial_type": "math-distractor", "trial_index": 241, "time_elapsed": 1157387, "internal_node_id": "0.0-178.0"}}, {"uniqueid": "MTK1018:33PPO7FECWM9MJ3MP0C5H64KIC9DIO", "current_trial": 242, "dateTime": 1513007886627, "trialdata": {"rt": -1, "stimulus": "<p id=\"stim\">10</p>", "key_press": -1, "trial_type": "single-stim", "trial_index": 242, "time_elapsed": 1160396, "internal_node_id": "0.0-179.0-0.0"}}, {"uniqueid": "MTK1018:33PPO7FECWM9MJ3MP0C5H64KIC9DIO", "current_trial": 243, "dateTime": 1513007887629, "trialdata": {"rt": -1, "stimulus": "<p id=\"stim\">9</p>", "key_press": -1, "trial_type": "single-stim", "trial_index": 243, "time_elapsed": 1161399, "internal_node_id": "0.0-179.0-1.0"}}, {"uniqueid": "MTK1018:33PPO7FECWM9MJ3MP0C5H64KIC9DIO", "current_trial": 244, "dateTime": 1513007888631, "trialdata": {"rt": -1, "stimulus": "<p id=\"stim\">8</p>", "key_press": -1, "trial_type": "single-stim", "trial_index": 244, "time_elapsed": 1162401, "internal_node_id": "0.0-179.0-2.0"}}, {"uniqueid": "MTK1018:33PPO7FECWM9MJ3MP0C5H64KIC9DIO", "current_trial": 245, "dateTime": 1513007889634, "trialdata": {"rt": -1, "stimulus": "<p id=\"stim\">7</p>", "key_press": -1, "trial_type": "single-stim", "trial_index": 245, "time_elapsed": 1163404, "internal_node_id": "0.0-179.0-3.0"}}, {"uniqueid": "MTK1018:33PPO7FECWM9MJ3MP0C5H64KIC9DIO", "current_trial": 246, "dateTime": 1513007890636, "trialdata": {"rt": -1, "stimulus": "<p id=\"stim\">6</p>", "key_press": -1, "trial_type": "single-stim", "trial_index": 246, "time_elapsed": 1164405, "internal_node_id": "0.0-179.0-4.0"}}, {"uniqueid": "MTK1018:33PPO7FECWM9MJ3MP0C5H64KIC9DIO", "current_trial": 247, "dateTime": 1513007891638, "trialdata": {"rt": -1, "stimulus": "<p id=\"stim\">5</p>", "key_press": -1, "trial_type": "single-stim", "trial_index": 247, "time_elapsed": 1165408, "internal_node_id": "0.0-179.0-5.0"}}, {"uniqueid": "MTK1018:33PPO7FECWM9MJ3MP0C5H64KIC9DIO", "current_trial": 248, "dateTime": 1513007892641, "trialdata": {"rt": -1, "stimulus": "<p id=\"stim\">4</p>", "key_press": -1, "trial_type": "single-stim", "trial_index": 248, "time_elapsed": 1166411, "internal_node_id": "0.0-179.0-6.0"}}, {"uniqueid": "MTK1018:33PPO7FECWM9MJ3MP0C5H64KIC9DIO", "current_trial": 249, "dateTime": 1513007893643, "trialdata": {"rt": -1, "stimulus": "<p id=\"stim\">3</p>", "key_press": -1, "trial_type": "single-stim", "trial_index": 249, "time_elapsed": 1167413, "internal_node_id": "0.0-179.0-7.0"}}, {"uniqueid": "MTK1018:33PPO7FECWM9MJ3MP0C5H64KIC9DIO", "current_trial": 250, "dateTime": 1513007894645, "trialdata": {"rt": -1, "stimulus": "<p id=\"stim\">2</p>", "key_press": -1, "trial_type": "single-stim", "trial_index": 250, "time_elapsed": 1168415, "internal_node_id": "0.0-179.0-8.0"}}, {"uniqueid": "MTK1018:33PPO7FECWM9MJ3MP0C5H64KIC9DIO", "current_trial": 251, "dateTime": 1513007895650, "trialdata": {"rt": -1, "stimulus": "<p id=\"stim\">1</p>", "key_press": -1, "trial_type": "single-stim", "trial_index": 251, "time_elapsed": 1169420, "internal_node_id": "0.0-179.0-9.0"}}, {"uniqueid": "MTK1018:33PPO7FECWM9MJ3MP0C5H64KIC9DIO", "current_trial": 252, "dateTime": 1513007897154, "trialdata": {"rt": -1, "stimulus": "<p id=\"stim\">+</p>", "key_press": -1, "type": "FIXATION", "trial_type": "single-stim", "trial_index": 252, "time_elapsed": 1170924, "internal_node_id": "0.0-180.0-0.0"}}, {"uniqueid": "MTK1018:33PPO7FECWM9MJ3MP0C5H64KIC9DIO", "current_trial": 253, "dateTime": 1513007898756, "trialdata": {"rt": -1, "stimulus": "<p id=\"stim\">SUITCASE</p>", "key_press": -1, "type": "PRES_VIS", "word": "suitcase", "wordID": 1402, "conditions": [12, 1600, "v", 24000], "trial": 7, "serialpos": 0, "trial_type": "single-stim", "trial_index": 253, "time_elapsed": 1172526, "internal_node_id": "0.0-181.0"}}, {"uniqueid": "MTK1018:33PPO7FECWM9MJ3MP0C5H64KIC9DIO", "current_trial": 254, "dateTime": 1513007901343, "trialdata": {"rt": -1, "stimulus": "<p id=\"stim\">BRIEFCASE</p>", "key_press": -1, "type": "PRES_VIS", "word": "briefcase", "wordID": 174, "conditions": [12, 1600, "v", 24000], "trial": 7, "serialpos": 1, "trial_type": "single-stim", "trial_index": 254, "time_elapsed": 1175113, "internal_node_id": "0.0-182.0"}}, {"uniqueid": "MTK1018:33PPO7FECWM9MJ3MP0C5H64KIC9DIO", "current_trial": 255, "dateTime": 1513007903752, "trialdata": {"rt": -1, "stimulus": "<p id=\"stim\">CABBAGE</p>", "key_press": -1, "type": "PRES_VIS", "word": "cabbage", "wordID": 209, "conditions": [12, 1600, "v", 24000], "trial": 7, "serialpos": 2, "trial_type": "single-stim", "trial_index": 255, "time_elapsed": 1177521, "internal_node_id": "0.0-183.0"}}, {"uniqueid": "MTK1018:33PPO7FECWM9MJ3MP0C5H64KIC9DIO", "current_trial": 256, "dateTime": 1513007906265, "trialdata": {"rt": -1, "stimulus": "<p id=\"stim\">CYCLONE</p>", "key_press": -1, "type": "PRES_VIS", "word": "cyclone", "wordID": 430, "conditions": [12, 1600, "v", 24000], "trial": 7, "serialpos": 3, "trial_type": "single-stim", "trial_index": 256, "time_elapsed": 1180035, "internal_node_id": "0.0-184.0"}}, {"uniqueid": "MTK1018:33PPO7FECWM9MJ3MP0C5H64KIC9DIO", "current_trial": 257, "dateTime": 1513007908993, "trialdata": {"rt": -1, "stimulus": "<p id=\"stim\">SCISSORS</p>", "key_press": -1, "type": "PRES_VIS", "word": "scissors", "wordID": 1249, "conditions": [12, 1600, "v", 24000], "trial": 7, "serialpos": 4, "trial_type": "single-stim", "trial_index": 257, "time_elapsed": 1182763, "internal_node_id": "0.0-185.0"}}, {"uniqueid": "MTK1018:33PPO7FECWM9MJ3MP0C5H64KIC9DIO", "current_trial": 258, "dateTime": 1513007911486, "trialdata": {"rt": -1, "stimulus": "<p id=\"stim\">LUGGAGE</p>", "key_press": -1, "type": "PRES_VIS", "word": "luggage", "wordID": 846, "conditions": [12, 1600, "v", 24000], "trial": 7, "serialpos": 5, "trial_type": "single-stim", "trial_index": 258, "time_elapsed": 1185256, "internal_node_id": "0.0-186.0"}}, {"uniqueid": "MTK1018:33PPO7FECWM9MJ3MP0C5H64KIC9DIO", "current_trial": 259, "dateTime": 1513007914034, "trialdata": {"rt": -1, "stimulus": "<p id=\"stim\">CRICKET</p>", "key_press": -1, "type": "PRES_VIS", "word": "cricket", "wordID": 407, "conditions": [12, 1600, "v", 24000], "trial": 7, "serialpos": 6, "trial_type": "single-stim", "trial_index": 259, "time_elapsed": 1187803, "internal_node_id": "0.0-187.0"}}, {"uniqueid": "MTK1018:33PPO7FECWM9MJ3MP0C5H64KIC9DIO", "current_trial": 260, "dateTime": 1513007916700, "trialdata": {"rt": -1, "stimulus": "<p id=\"stim\">LION</p>", "key_press": -1, "type": "PRES_VIS", "word": "lion", "wordID": 826, "conditions": [12, 1600, "v", 24000], "trial": 7, "serialpos": 7, "trial_type": "single-stim", "trial_index": 260, "time_elapsed": 1190469, "internal_node_id": "0.0-188.0"}}, {"uniqueid": "MTK1018:33PPO7FECWM9MJ3MP0C5H64KIC9DIO", "current_trial": 261, "dateTime": 1513007919116, "trialdata": {"rt": -1, "stimulus": "<p id=\"stim\">NEUTRON</p>", "key_press": -1, "type": "PRES_VIS", "word": "neutron", "wordID": 946, "conditions": [12, 1600, "v", 24000], "trial": 7, "serialpos": 8, "trial_type": "single-stim", "trial_index": 261, "time_elapsed": 1192885, "internal_node_id": "0.0-189.0"}}, {"uniqueid": "MTK1018:33PPO7FECWM9MJ3MP0C5H64KIC9DIO", "current_trial": 262, "dateTime": 1513007921792, "trialdata": {"rt": -1, "stimulus": "<p id=\"stim\">TRUCK</p>", "key_press": -1, "type": "PRES_VIS", "word": "truck", "wordID": 1511, "conditions": [12, 1600, "v", 24000], "trial": 7, "serialpos": 9, "trial_type": "single-stim", "trial_index": 262, "time_elapsed": 1195562, "internal_node_id": "0.0-190.0"}}, {"uniqueid": "MTK1018:33PPO7FECWM9MJ3MP0C5H64KIC9DIO", "current_trial": 263, "dateTime": 1513007924200, "trialdata": {"rt": -1, "stimulus": "<p id=\"stim\">TURNIP</p>", "key_press": -1, "type": "PRES_VIS", "word": "turnip", "wordID": 1520, "conditions": [12, 1600, "v", 24000], "trial": 7, "serialpos": 10, "trial_type": "single-stim", "trial_index": 263, "time_elapsed": 1197969, "internal_node_id": "0.0-191.0"}}, {"uniqueid": "MTK1018:33PPO7FECWM9MJ3MP0C5H64KIC9DIO", "current_trial": 264, "dateTime": 1513007926877, "trialdata": {"rt": -1, "stimulus": "<p id=\"stim\">SHOVEL</p>", "key_press": -1, "type": "PRES_VIS", "word": "shovel", "wordID": 1294, "conditions": [12, 1600, "v", 24000], "trial": 7, "serialpos": 11, "trial_type": "single-stim", "trial_index": 264, "time_elapsed": 1200647, "internal_node_id": "0.0-192.0"}}, {"uniqueid": "MTK1018:33PPO7FECWM9MJ3MP0C5H64KIC9DIO", "current_trial": 265, "dateTime": 1513007929198, "trialdata": {"rt": -1, "stimulus": "", "key_press": -1, "type": "PRE_RECALL_DELAY", "trial_type": "single-stim", "trial_index": 265, "time_elapsed": 1202968, "internal_node_id": "0.0-193.0-0.0"}}, {"uniqueid": "MTK1018:33PPO7FECWM9MJ3MP0C5H64KIC9DIO", "current_trial": 266, "dateTime": 1513007929702, "trialdata": {"rt": -1000, "stimulus": "/static/audio/400Hz.wav", "key_press": -1, "type": "PRE_RECALL_ALERT", "trial_type": "single-audio", "trial_index": 266, "time_elapsed": 1203472, "internal_node_id": "0.0-194.0"}}, {"uniqueid": "MTK1018:33PPO7FECWM9MJ3MP0C5H64KIC9DIO", "current_trial": 267, "dateTime": 1513007989735, "trialdata": {"rt": [5230, 8406, 10515, 13802, 16598, 19791, 22342, 24481, 26580, 29092, 30847, 34552], "recwords": ["shovel", "truck", "turnip", "suitcase", "briefcase", "cabbage", "cyclone", "scissors", "luggage", "cricket", "lion", "neuturn"], "type": "FREE_RECALL", "conditions": [12, 1600, "v", 24000], "trial": 7, "trial_type": "free-recall", "trial_index": 267, "time_elapsed": 1263486, "internal_node_id": "0.0-195.0-0.0"}}, {"uniqueid": "MTK1018:33PPO7FECWM9MJ3MP0C5H64KIC9DIO", "current_trial": 268, "dateTime": 1513007993000, "trialdata": {"rt": 1263, "key_press": 32, "type": "INSTRUCTIONS", "trial_type": "text", "trial_index": 268, "time_elapsed": 1266770, "internal_node_id": "0.0-196.0"}}, {"uniqueid": "MTK1018:33PPO7FECWM9MJ3MP0C5H64KIC9DIO", "current_trial": 269, "dateTime": 1513008007005, "trialdata": {"rt": [6463, 8457], "responses": ["22", "17"], "num1": [9, 8, 9], "num2": [7, 2, 7], "num3": [6, 7, 5], "type": "DISTRACTOR", "conditions": [12, 1600, "v", 12000], "trial": 8, "trial_type": "math-distractor", "trial_index": 269, "time_elapsed": 1280775, "internal_node_id": "0.0-197.0"}}, {"uniqueid": "MTK1018:33PPO7FECWM9MJ3MP0C5H64KIC9DIO", "current_trial": 270, "dateTime": 1513008010010, "trialdata": {"rt": -1, "stimulus": "<p id=\"stim\">10</p>", "key_press": -1, "trial_type": "single-stim", "trial_index": 270, "time_elapsed": 1283780, "internal_node_id": "0.0-198.0-0.0"}}, {"uniqueid": "MTK1018:33PPO7FECWM9MJ3MP0C5H64KIC9DIO", "current_trial": 271, "dateTime": 1513008011014, "trialdata": {"rt": -1, "stimulus": "<p id=\"stim\">9</p>", "key_press": -1, "trial_type": "single-stim", "trial_index": 271, "time_elapsed": 1284783, "internal_node_id": "0.0-198.0-1.0"}}, {"uniqueid": "MTK1018:33PPO7FECWM9MJ3MP0C5H64KIC9DIO", "current_trial": 272, "dateTime": 1513008012016, "trialdata": {"rt": -1, "stimulus": "<p id=\"stim\">8</p>", "key_press": -1, "trial_type": "single-stim", "trial_index": 272, "time_elapsed": 1285786, "internal_node_id": "0.0-198.0-2.0"}}