{"assignmentId": "3KWTYT0871AG87WZVXRZBA8KOHB5LU", "workerId": "MTK1390", "questiondata": {"origin": "Bulgaria", "strat-rehearsal": "76", "marital": "Divorced", "education": "Some college", "ethnicity": "Not Hispanic", "color_depth": 24, "distracted": "No", "wrote-notes": "Yes", "strat-other": "", "screen_width": 1366, "avail_screen_width": 1366, "avail_screen_height": 728, "strat-image": "100", "language": "bulgarian", "gender": "Female", "age": "42", "gender_other": "", "race": ["White"], "strat-categorize": "100", "pixel_depth": 24, "strat-spatial": "85", "strat-story": "100", "race_other": "", "screen_height": 768}, "bonus": 0, "hitId": "3N7PQ0KLI5WX1219AQB0UYOWKOZ3E3", "counterbalance": 764, "useragent": "Mozilla/5.0 (Windows NT 6.2; Win64; x64) AppleWebKit/537.36 (KHTML, like Gecko) Chrome/63.0.3239.132 Safari/537.36", "eventdata": [{"eventtype": "initialized", "interval": 0, "value": null, "timestamp": 1515870514792}, {"eventtype": "window_resize", "interval": 0, "value": [1366, 721], "timestamp": 1515870514792}, {"eventtype": "focus", "interval": 523575, "value": "off", "timestamp": 1515871038367}, {"eventtype": "focus", "interval": 3495, "value": "on", "timestamp": 1515871041862}, {"eventtype": "focus", "interval": 312285, "value": "off", "timestamp": 1515871354147}, {"eventtype": "focus", "interval": 292615, "value": "on", "timestamp": 1515871646762}, {"eventtype": "focus", "interval": 676470, "value": "off", "timestamp": 1515872323232}, {"eventtype": "focus", "interval": 145117, "value": "on", "timestamp": 1515872468349}, {"eventtype": "focus", "interval": 161058, "value": "off", "timestamp": 1515872629407}, {"eventtype": "focus", "interval": 11720, "value": "on", "timestamp": 1515872641127}, {"eventtype": "focus", "interval": 271471, "value": "off", "timestamp": 1515872912598}, {"eventtype": "focus", "interval": 18627, "value": "on", "timestamp": 1515872931225}, {"eventtype": "focus", "interval": 113625, "value": "off", "timestamp": 1515873044850}, {"eventtype": "focus", "interval": 49301, "value": "on", "timestamp": 1515873094151}, {"eventtype": "focus", "interval": 261341, "value": "off", "timestamp": 1515873355492}, {"eventtype": "focus", "interval": 14597, "value": "on", "timestamp": 1515873370089}, {"eventtype": "focus", "interval": 1500, "value": "off", "timestamp": 1515873371589}, {"eventtype": "focus", "interval": 58141, "value": "on", "timestamp": 1515873429730}, {"eventtype": "focus", "interval": 99645, "value": "off", "timestamp": 1515873529375}, {"eventtype": "focus", "interval": 48847, "value": "on", "timestamp": 1515873578222}, {"eventtype": "focus", "interval": 98060, "value": "off", "timestamp": 1515873676282}, {"eventtype": "focus", "interval": 66265, "value": "on", "timestamp": 1515873742547}, {"eventtype": "focus", "interval": 287358, "value": "off", "timestamp": 1515874029905}, {"eventtype": "focus", "interval": 26146, "value": "on", "timestamp": 1515874056051}, {"eventtype": "focus", "interval": 3096, "value": "off", "timestamp": 1515874059147}, {"eventtype": "focus", "interval": 9763, "value": "on", "timestamp": 1515874068910}], "data": [{"current_trial": 0, "trialdata": {"rt": 2332, "trial_type": "text", "internal_node_id": "0.0-0.0", "time_elapsed": 2332, "key_press": 13, "type": "INSTRUCTIONS", "trial_index": 0}, "uniqueid": "MTK1390:3KWTYT0871AG87WZVXRZBA8KOHB5LU", "dateTime": 1515870519285}, {"current_trial": 1, "trialdata": {"rt": 22982, "trial_type": "text", "internal_node_id": "0.0-1.0", "time_elapsed": 25318, "key_press": 32, "type": "INSTRUCTIONS", "trial_index": 1}, "uniqueid": "MTK1390:3KWTYT0871AG87WZVXRZBA8KOHB5LU", "dateTime": 1515870542271}, {"current_trial": 2, "trialdata": {"rt": [5236], "trial_type": "audio-test", "responses": ["ocean"], "internal_node_id": "0.0-2.0", "time_elapsed": 30591, "type": "AUDIO_TEST", "trial_index": 2}, "uniqueid": "MTK1390:3KWTYT0871AG87WZVXRZBA8KOHB5LU", "dateTime": 1515870547545}, {"current_trial": 3, "trialdata": {"rt": [5286], "trial_type": "audio-test", "responses": ["crystal"], "internal_node_id": "0.0-3.0", "time_elapsed": 35896, "type": "AUDIO_TEST", "trial_index": 3}, "uniqueid": "MTK1390:3KWTYT0871AG87WZVXRZBA8KOHB5LU", "dateTime": 1515870552849}, {"current_trial": 4, "trialdata": {"rt": [4663], "trial_type": "audio-test", "responses": ["spice"], "internal_node_id": "0.0-4.0", "time_elapsed": 40576, "type": "AUDIO_TEST", "trial_index": 4}, "uniqueid": "MTK1390:3KWTYT0871AG87WZVXRZBA8KOHB5LU", "dateTime": 1515870557529}, {"current_trial": 5, "trialdata": {"rt": 15340, "trial_type": "survey-text", "responses": "{\"Q0\":\"12\",\"Q1\":\"8\",\"Q2\":\"5\"}", "internal_node_id": "0.0-5.0", "time_elapsed": 56677, "type": "SLEEP_SURVEY", "trial_index": 5}, "uniqueid": "MTK1390:3KWTYT0871AG87WZVXRZBA8KOHB5LU", "dateTime": 1515870573630}, {"current_trial": 6, "trialdata": {"rt": 52838, "trial_type": "text", "internal_node_id": "0.0-6.0", "time_elapsed": 110518, "key_press": 13, "type": "INSTRUCTIONS", "trial_index": 6}, "uniqueid": "MTK1390:3KWTYT0871AG87WZVXRZBA8KOHB5LU", "dateTime": 1515870627471}, {"current_trial": 7, "trialdata": {"rt": 23248, "trial_type": "text", "internal_node_id": "0.0-7.0", "time_elapsed": 134269, "key_press": 13, "type": "INSTRUCTIONS", "trial_index": 7}, "uniqueid": "MTK1390:3KWTYT0871AG87WZVXRZBA8KOHB5LU", "dateTime": 1515870651222}, {"current_trial": 8, "trialdata": {"rt": 15121, "trial_type": "text", "internal_node_id": "0.0-8.0", "time_elapsed": 149892, "key_press": 13, "type": "INSTRUCTIONS", "trial_index": 8}, "uniqueid": "MTK1390:3KWTYT0871AG87WZVXRZBA8KOHB5LU", "dateTime": 1515870666846}, {"current_trial": 9, "trialdata": {"rt": [5502, 8169, 11741, 16146], "trial_type": "math-distractor", "key_times": [4516, 4631, 5502, 7562, 7630, 8169, 10974, 11403, 11741, 14273, 14449, 16146], "responses": ["31", "13", "20", "21"], "num2": [9, 3, 4, 7, 4], "num3": [6, 7, 7, 6, 3], "conditions": [18, 1200, "v", 18000], "internal_node_id": "0.0-9.0", "key_presses": [51, 49, 13, 49, 51, 13, 50, 48, 13, 50, 49, 13], "trial": 0, "time_elapsed": 168907, "type": "DISTRACTOR", "trial_index": 9, "num1": [6, 3, 9, 8, 9]}, "uniqueid": "MTK1390:3KWTYT0871AG87WZVXRZBA8KOHB5LU", "dateTime": 1515870685861}, {"current_trial": 10, "trialdata": {"rt": -1, "trial_type": "single-stim", "stimulus": "<p id=\"stim\">10</p>", "internal_node_id": "0.0-10.0-0.0", "time_elapsed": 171913, "key_press": -1, "trial_index": 10}, "uniqueid": "MTK1390:3KWTYT0871AG87WZVXRZBA8KOHB5LU", "dateTime": 1515870688867}, {"current_trial": 11, "trialdata": {"rt": -1, "trial_type": "single-stim", "stimulus": "<p id=\"stim\">9</p>", "internal_node_id": "0.0-10.0-1.0", "time_elapsed": 172917, "key_press": -1, "trial_index": 11}, "uniqueid": "MTK1390:3KWTYT0871AG87WZVXRZBA8KOHB5LU", "dateTime": 1515870689870}, {"current_trial": 12, "trialdata": {"rt": -1, "trial_type": "single-stim", "stimulus": "<p id=\"stim\">8</p>", "internal_node_id": "0.0-10.0-2.0", "time_elapsed": 173919, "key_press": -1, "trial_index": 12}, "uniqueid": "MTK1390:3KWTYT0871AG87WZVXRZBA8KOHB5LU", "dateTime": 1515870690872}, {"current_trial": 13, "trialdata": {"rt": -1, "trial_type": "single-stim", "stimulus": "<p id=\"stim\">7</p>", "internal_node_id": "0.0-10.0-3.0", "time_elapsed": 174920, "key_press": -1, "trial_index": 13}, "uniqueid": "MTK1390:3KWTYT0871AG87WZVXRZBA8KOHB5LU", "dateTime": 1515870691874}, {"current_trial": 14, "trialdata": {"rt": -1, "trial_type": "single-stim", "stimulus": "<p id=\"stim\">6</p>", "internal_node_id": "0.0-10.0-4.0", "time_elapsed": 176036, "key_press": -1, "trial_index": 14}, "uniqueid": "MTK1390:3KWTYT0871AG87WZVXRZBA8KOHB5LU", "dateTime": 1515870692989}, {"current_trial": 15, "trialdata": {"rt": -1, "trial_type": "single-stim", "stimulus": "<p id=\"stim\">5</p>", "internal_node_id": "0.0-10.0-5.0", "time_elapsed": 177039, "key_press": -1, "trial_index": 15}, "uniqueid": "MTK1390:3KWTYT0871AG87WZVXRZBA8KOHB5LU", "dateTime": 1515870693992}, {"current_trial": 16, "trialdata": {"rt": -1, "trial_type": "single-stim", "stimulus": "<p id=\"stim\">4</p>", "internal_node_id": "0.0-10.0-6.0", "time_elapsed": 178041, "key_press": -1, "trial_index": 16}, "uniqueid": "MTK1390:3KWTYT0871AG87WZVXRZBA8KOHB5LU", "dateTime": 1515870694994}, {"current_trial": 17, "trialdata": {"rt": -1, "trial_type": "single-stim", "stimulus": "<p id=\"stim\">3</p>", "internal_node_id": "0.0-10.0-7.0", "time_elapsed": 179045, "key_press": -1, "trial_index": 17}, "uniqueid": "MTK1390:3KWTYT0871AG87WZVXRZBA8KOHB5LU", "dateTime": 1515870695998}, {"current_trial": 18, "trialdata": {"rt": -1, "trial_type": "single-stim", "stimulus": "<p id=\"stim\">2</p>", "internal_node_id": "0.0-10.0-8.0", "time_elapsed": 180049, "key_press": -1, "trial_index": 18}, "uniqueid": "MTK1390:3KWTYT0871AG87WZVXRZBA8KOHB5LU", "dateTime": 1515870697003}, {"current_trial": 19, "trialdata": {"rt": -1, "trial_type": "single-stim", "stimulus": "<p id=\"stim\">1</p>", "internal_node_id": "0.0-10.0-9.0", "time_elapsed": 181052, "key_press": -1, "trial_index": 19}, "uniqueid": "MTK1390:3KWTYT0871AG87WZVXRZBA8KOHB5LU", "dateTime": 1515870698006}, {"current_trial": 20, "trialdata": {"rt": -1, "trial_type": "single-stim", "stimulus": "<p id=\"stim\">+</p>", "internal_node_id": "0.0-11.0-0.0", "time_elapsed": 182555, "key_press": -1, "type": "FIXATION", "trial_index": 20}, "uniqueid": "MTK1390:3KWTYT0871AG87WZVXRZBA8KOHB5LU", "dateTime": 1515870699509}, {"current_trial": 21, "trialdata": {"rt": -1, "trial_type": "single-stim", "word": "seafood", "stimulus": "<p id=\"stim\">SEAFOOD</p>", "conditions": [18, 1200, "v", 18000], "internal_node_id": "0.0-12.0", "trial": 0, "time_elapsed": 183760, "serialpos": 0, "key_press": -1, "wordID": 1259, "type": "PRES_VIS", "trial_index": 21}, "uniqueid": "MTK1390:3KWTYT0871AG87WZVXRZBA8KOHB5LU", "dateTime": 1515870700713}, {"current_trial": 22, "trialdata": {"rt": -1, "trial_type": "single-stim", "word": "mailman", "stimulus": "<p id=\"stim\">MAILMAN</p>", "conditions": [18, 1200, "v", 18000], "internal_node_id": "0.0-13.0", "trial": 0, "time_elapsed": 185820, "serialpos": 1, "key_press": -1, "wordID": 857, "type": "PRES_VIS", "trial_index": 22}, "uniqueid": "MTK1390:3KWTYT0871AG87WZVXRZBA8KOHB5LU", "dateTime": 1515870702773}, {"current_trial": 23, "trialdata": {"rt": -1, "trial_type": "single-stim", "word": "freezer", "stimulus": "<p id=\"stim\">FREEZER</p>", "conditions": [18, 1200, "v", 18000], "internal_node_id": "0.0-14.0", "trial": 0, "time_elapsed": 188095, "serialpos": 2, "key_press": -1, "wordID": 603, "type": "PRES_VIS", "trial_index": 23}, "uniqueid": "MTK1390:3KWTYT0871AG87WZVXRZBA8KOHB5LU", "dateTime": 1515870705049}, {"current_trial": 24, "trialdata": {"rt": -1, "trial_type": "single-stim", "word": "asia", "stimulus": "<p id=\"stim\">ASIA</p>", "conditions": [18, 1200, "v", 18000], "internal_node_id": "0.0-15.0", "trial": 0, "time_elapsed": 190125, "serialpos": 3, "key_press": -1, "wordID": 45, "type": "PRES_VIS", "trial_index": 24}, "uniqueid": "MTK1390:3KWTYT0871AG87WZVXRZBA8KOHB5LU", "dateTime": 1515870707080}, {"current_trial": 25, "trialdata": {"rt": -1, "trial_type": "single-stim", "word": "beef", "stimulus": "<p id=\"stim\">BEEF</p>", "conditions": [18, 1200, "v", 18000], "internal_node_id": "0.0-16.0", "trial": 0, "time_elapsed": 192458, "serialpos": 4, "key_press": -1, "wordID": 112, "type": "PRES_VIS", "trial_index": 25}, "uniqueid": "MTK1390:3KWTYT0871AG87WZVXRZBA8KOHB5LU", "dateTime": 1515870709412}, {"current_trial": 26, "trialdata": {"rt": -1, "trial_type": "single-stim", "word": "butcher", "stimulus": "<p id=\"stim\">BUTCHER</p>", "conditions": [18, 1200, "v", 18000], "internal_node_id": "0.0-17.0", "trial": 0, "time_elapsed": 194494, "serialpos": 5, "key_press": -1, "wordID": 202, "type": "PRES_VIS", "trial_index": 26}, "uniqueid": "MTK1390:3KWTYT0871AG87WZVXRZBA8KOHB5LU", "dateTime": 1515870711448}, {"current_trial": 27, "trialdata": {"rt": -1, "trial_type": "single-stim", "word": "blueprint", "stimulus": "<p id=\"stim\">BLUEPRINT</p>", "conditions": [18, 1200, "v", 18000], "internal_node_id": "0.0-18.0", "trial": 0, "time_elapsed": 196754, "serialpos": 6, "key_press": -1, "wordID": 141, "type": "PRES_VIS", "trial_index": 27}, "uniqueid": "MTK1390:3KWTYT0871AG87WZVXRZBA8KOHB5LU", "dateTime": 1515870713708}, {"current_trial": 28, "trialdata": {"rt": -1, "trial_type": "single-stim", "word": "zipper", "stimulus": "<p id=\"stim\">ZIPPER</p>", "conditions": [18, 1200, "v", 18000], "internal_node_id": "0.0-19.0", "trial": 0, "time_elapsed": 198825, "serialpos": 7, "key_press": -1, "wordID": 1635, "type": "PRES_VIS", "trial_index": 28}, "uniqueid": "MTK1390:3KWTYT0871AG87WZVXRZBA8KOHB5LU", "dateTime": 1515870715779}, {"current_trial": 29, "trialdata": {"rt": -1, "trial_type": "single-stim", "word": "pigeon", "stimulus": "<p id=\"stim\">PIGEON</p>", "conditions": [18, 1200, "v", 18000], "internal_node_id": "0.0-20.0", "trial": 0, "time_elapsed": 200961, "serialpos": 8, "key_press": -1, "wordID": 1064, "type": "PRES_VIS", "trial_index": 29}, "uniqueid": "MTK1390:3KWTYT0871AG87WZVXRZBA8KOHB5LU", "dateTime": 1515870717915}, {"current_trial": 30, "trialdata": {"rt": -1, "trial_type": "single-stim", "word": "shrub", "stimulus": "<p id=\"stim\">SHRUB</p>", "conditions": [18, 1200, "v", 18000], "internal_node_id": "0.0-21.0", "trial": 0, "time_elapsed": 203035, "serialpos": 9, "key_press": -1, "wordID": 1298, "type": "PRES_VIS", "trial_index": 30}, "uniqueid": "MTK1390:3KWTYT0871AG87WZVXRZBA8KOHB5LU", "dateTime": 1515870719989}, {"current_trial": 31, "trialdata": {"rt": -1, "trial_type": "single-stim", "word": "juggler", "stimulus": "<p id=\"stim\">JUGGLER</p>", "conditions": [18, 1200, "v", 18000], "internal_node_id": "0.0-22.0", "trial": 0, "time_elapsed": 205433, "serialpos": 10, "key_press": -1, "wordID": 762, "type": "PRES_VIS", "trial_index": 31}, "uniqueid": "MTK1390:3KWTYT0871AG87WZVXRZBA8KOHB5LU", "dateTime": 1515870722386}, {"current_trial": 32, "trialdata": {"rt": -1, "trial_type": "single-stim", "word": "shortcake", "stimulus": "<p id=\"stim\">SHORTCAKE</p>", "conditions": [18, 1200, "v", 18000], "internal_node_id": "0.0-23.0", "trial": 0, "time_elapsed": 207669, "serialpos": 11, "key_press": -1, "wordID": 1291, "type": "PRES_VIS", "trial_index": 32}, "uniqueid": "MTK1390:3KWTYT0871AG87WZVXRZBA8KOHB5LU", "dateTime": 1515870724623}, {"current_trial": 33, "trialdata": {"rt": -1, "trial_type": "single-stim", "word": "costume", "stimulus": "<p id=\"stim\">COSTUME</p>", "conditions": [18, 1200, "v", 18000], "internal_node_id": "0.0-24.0", "trial": 0, "time_elapsed": 209858, "serialpos": 12, "key_press": -1, "wordID": 382, "type": "PRES_VIS", "trial_index": 33}, "uniqueid": "MTK1390:3KWTYT0871AG87WZVXRZBA8KOHB5LU", "dateTime": 1515870726812}, {"current_trial": 34, "trialdata": {"rt": -1, "trial_type": "single-stim", "word": "valve", "stimulus": "<p id=\"stim\">VALVE</p>", "conditions": [18, 1200, "v", 18000], "internal_node_id": "0.0-25.0", "trial": 0, "time_elapsed": 212212, "serialpos": 13, "key_press": -1, "wordID": 1545, "type": "PRES_VIS", "trial_index": 34}, "uniqueid": "MTK1390:3KWTYT0871AG87WZVXRZBA8KOHB5LU", "dateTime": 1515870729166}, {"current_trial": 35, "trialdata": {"rt": -1, "trial_type": "single-stim", "word": "rocket", "stimulus": "<p id=\"stim\">ROCKET</p>", "conditions": [18, 1200, "v", 18000], "internal_node_id": "0.0-26.0", "trial": 0, "time_elapsed": 214246, "serialpos": 14, "key_press": -1, "wordID": 1201, "type": "PRES_VIS", "trial_index": 35}, "uniqueid": "MTK1390:3KWTYT0871AG87WZVXRZBA8KOHB5LU", "dateTime": 1515870731200}, {"current_trial": 36, "trialdata": {"rt": -1, "trial_type": "single-stim", "word": "slide", "stimulus": "<p id=\"stim\">SLIDE</p>", "conditions": [18, 1200, "v", 18000], "internal_node_id": "0.0-27.0", "trial": 0, "time_elapsed": 216647, "serialpos": 15, "key_press": -1, "wordID": 1325, "type": "PRES_VIS", "trial_index": 36}, "uniqueid": "MTK1390:3KWTYT0871AG87WZVXRZBA8KOHB5LU", "dateTime": 1515870733600}, {"current_trial": 37, "trialdata": {"rt": -1, "trial_type": "single-stim", "word": "apple", "stimulus": "<p id=\"stim\">APPLE</p>", "conditions": [18, 1200, "v", 18000], "internal_node_id": "0.0-28.0", "trial": 0, "time_elapsed": 219043, "serialpos": 16, "key_press": -1, "wordID": 32, "type": "PRES_VIS", "trial_index": 37}, "uniqueid": "MTK1390:3KWTYT0871AG87WZVXRZBA8KOHB5LU", "dateTime": 1515870735996}, {"current_trial": 38, "trialdata": {"rt": -1, "trial_type": "single-stim", "word": "staple", "stimulus": "<p id=\"stim\">STAPLE</p>", "conditions": [18, 1200, "v", 18000], "internal_node_id": "0.0-29.0", "trial": 0, "time_elapsed": 221217, "serialpos": 17, "key_press": -1, "wordID": 1370, "type": "PRES_VIS", "trial_index": 38}, "uniqueid": "MTK1390:3KWTYT0871AG87WZVXRZBA8KOHB5LU", "dateTime": 1515870738170}, {"current_trial": 39, "trialdata": {"rt": -1, "trial_type": "single-stim", "stimulus": "", "internal_node_id": "0.0-30.0-0.0", "time_elapsed": 223575, "key_press": -1, "type": "PRE_RECALL_DELAY", "trial_index": 39}, "uniqueid": "MTK1390:3KWTYT0871AG87WZVXRZBA8KOHB5LU", "dateTime": 1515870740529}, {"current_trial": 40, "trialdata": {"rt": -1000, "trial_type": "single-audio", "stimulus": "/static/audio/400Hz.wav", "internal_node_id": "0.0-31.0", "time_elapsed": 224089, "key_press": -1, "type": "PRE_RECALL_ALERT", "trial_index": 40}, "uniqueid": "MTK1390:3KWTYT0871AG87WZVXRZBA8KOHB5LU", "dateTime": 1515870741043}, {"current_trial": 41, "trialdata": {"rt": [1884, 3684, 5636, 6748, 45080, 54270, 56058, 57848], "recwords": ["apple", "staple", "juggler", "asia", "", "beef", "butcher", "b"], "key_times": [963, 1139, 1306, 1415, 1573, 1884, 2241, 2421, 2557, 3141, 3262, 3430, 3684, 4222, 4374, 4505, 4688, 4778, 4923, 5393, 5636, 6100, 6318, 6447, 6575, 6748, 45080, 53266, 53474, 53654, 53814, 54270, 54866, 55064, 55244, 55527, 55659, 55798, 55913, 56058, 57664, 57848, 58849, 58981, 59169, 59456, 59779, 59980], "trial_type": "free-recall", "conditions": [18, 1200, "v", 18000], "internal_node_id": "0.0-32.0-0.0", "key_presses": [65, 80, 80, 76, 69, 13, 83, 84, 65, 80, 76, 69, 13, 74, 85, 71, 71, 76, 69, 82, 13, 65, 83, 73, 65, 13, 13, 66, 69, 69, 70, 13, 66, 85, 84, 67, 72, 69, 82, 13, 66, 186, 66, 76, 85, 69, 80, 82], "trial": 0, "time_elapsed": 284097, "type": "FREE_RECALL", "trial_index": 41}, "uniqueid": "MTK1390:3KWTYT0871AG87WZVXRZBA8KOHB5LU", "dateTime": 1515870801057}, {"current_trial": 42, "trialdata": {"rt": 1327, "trial_type": "text", "internal_node_id": "0.0-33.0", "time_elapsed": 287433, "key_press": 13, "type": "INSTRUCTIONS", "trial_index": 42}, "uniqueid": "MTK1390:3KWTYT0871AG87WZVXRZBA8KOHB5LU", "dateTime": 1515870804386}, {"current_trial": 43, "trialdata": {"rt": [2759, 3893, 6032, 7976, 10228, 12560, 14837, 16806], "trial_type": "math-distractor", "key_times": [2386, 2539, 2759, 3633, 3795, 3893, 5648, 5793, 6032, 7820, 7855, 7976, 9659, 10148, 10228, 12278, 12428, 12560, 14422, 14729, 14837, 16439, 16697, 16806], "responses": ["20", "11", "19", "13", "16", "11", "17", "16"], "num2": [4, 5, 1, 6, 6, 4, 5, 4, 8], "num3": [9, 1, 9, 4, 8, 5, 3, 9, 3], "conditions": [18, 1200, "v", 18000], "internal_node_id": "0.0-34.0", "key_presses": [50, 48, 13, 49, 49, 13, 49, 57, 13, 49, 51, 13, 49, 54, 13, 49, 49, 13, 49, 55, 13, 49, 54, 13], "trial": 1, "time_elapsed": 307443, "type": "DISTRACTOR", "trial_index": 43, "num1": [7, 5, 9, 3, 2, 2, 9, 3, 4]}, "uniqueid": "MTK1390:3KWTYT0871AG87WZVXRZBA8KOHB5LU", "dateTime": 1515870824396}, {"current_trial": 44, "trialdata": {"rt": -1, "trial_type": "single-stim", "stimulus": "<p id=\"stim\">10</p>", "internal_node_id": "0.0-35.0-0.0", "time_elapsed": 310445, "key_press": -1, "trial_index": 44}, "uniqueid": "MTK1390:3KWTYT0871AG87WZVXRZBA8KOHB5LU", "dateTime": 1515870827399}, {"current_trial": 45, "trialdata": {"rt": -1, "trial_type": "single-stim", "stimulus": "<p id=\"stim\">9</p>", "internal_node_id": "0.0-35.0-1.0", "time_elapsed": 311448, "key_press": -1, "trial_index": 45}, "uniqueid": "MTK1390:3KWTYT0871AG87WZVXRZBA8KOHB5LU", "dateTime": 1515870828402}, {"current_trial": 46, "trialdata": {"rt": -1, "trial_type": "single-stim", "stimulus": "<p id=\"stim\">8</p>", "internal_node_id": "0.0-35.0-2.0", "time_elapsed": 312451, "key_press": -1, "trial_index": 46}, "uniqueid": "MTK1390:3KWTYT0871AG87WZVXRZBA8KOHB5LU", "dateTime": 1515870829405}, {"current_trial": 47, "trialdata": {"rt": -1, "trial_type": "single-stim", "stimulus": "<p id=\"stim\">7</p>", "internal_node_id": "0.0-35.0-3.0", "time_elapsed": 313457, "key_press": -1, "trial_index": 47}, "uniqueid": "MTK1390:3KWTYT0871AG87WZVXRZBA8KOHB5LU", "dateTime": 1515870830411}, {"current_trial": 48, "trialdata": {"rt": -1, "trial_type": "single-stim", "stimulus": "<p id=\"stim\">6</p>", "internal_node_id": "0.0-35.0-4.0", "time_elapsed": 314460, "key_press": -1, "trial_index": 48}, "uniqueid": "MTK1390:3KWTYT0871AG87WZVXRZBA8KOHB5LU", "dateTime": 1515870831414}, {"current_trial": 49, "trialdata": {"rt": -1, "trial_type": "single-stim", "stimulus": "<p id=\"stim\">5</p>", "internal_node_id": "0.0-35.0-5.0", "time_elapsed": 315463, "key_press": -1, "trial_index": 49}, "uniqueid": "MTK1390:3KWTYT0871AG87WZVXRZBA8KOHB5LU", "dateTime": 1515870832417}, {"current_trial": 50, "trialdata": {"rt": -1, "trial_type": "single-stim", "stimulus": "<p id=\"stim\">4</p>", "internal_node_id": "0.0-35.0-6.0", "time_elapsed": 316467, "key_press": -1, "trial_index": 50}, "uniqueid": "MTK1390:3KWTYT0871AG87WZVXRZBA8KOHB5LU", "dateTime": 1515870833421}, {"current_trial": 51, "trialdata": {"rt": -1, "trial_type": "single-stim", "stimulus": "<p id=\"stim\">3</p>", "internal_node_id": "0.0-35.0-7.0", "time_elapsed": 317470, "key_press": -1, "trial_index": 51}, "uniqueid": "MTK1390:3KWTYT0871AG87WZVXRZBA8KOHB5LU", "dateTime": 1515870834424}, {"current_trial": 52, "trialdata": {"rt": -1, "trial_type": "single-stim", "stimulus": "<p id=\"stim\">2</p>", "internal_node_id": "0.0-35.0-8.0", "time_elapsed": 318473, "key_press": -1, "trial_index": 52}, "uniqueid": "MTK1390:3KWTYT0871AG87WZVXRZBA8KOHB5LU", "dateTime": 1515870835427}, {"current_trial": 53, "trialdata": {"rt": 368, "trial_type": "single-stim", "stimulus": "<p id=\"stim\">1</p>", "internal_node_id": "0.0-35.0-9.0", "time_elapsed": 319477, "key_press": 13, "trial_index": 53}, "uniqueid": "MTK1390:3KWTYT0871AG87WZVXRZBA8KOHB5LU", "dateTime": 1515870836430}, {"current_trial": 54, "trialdata": {"rt": -1, "trial_type": "single-stim", "stimulus": "<p id=\"stim\">+</p>", "internal_node_id": "0.0-36.0-0.0", "time_elapsed": 320980, "key_press": -1, "type": "FIXATION", "trial_index": 54}, "uniqueid": "MTK1390:3KWTYT0871AG87WZVXRZBA8KOHB5LU", "dateTime": 1515870837934}, {"current_trial": 55, "trialdata": {"rt": -1, "trial_type": "single-stim", "word": "plaza", "stimulus": "<p id=\"stim\">PLAZA</p>", "conditions": [18, 1200, "v", 18000], "internal_node_id": "0.0-37.0", "trial": 1, "time_elapsed": 322183, "serialpos": 0, "key_press": -1, "wordID": 1087, "type": "PRES_VIS", "trial_index": 55}, "uniqueid": "MTK1390:3KWTYT0871AG87WZVXRZBA8KOHB5LU", "dateTime": 1515870839137}, {"current_trial": 56, "trialdata": {"rt": -1, "trial_type": "single-stim", "word": "outdoors", "stimulus": "<p id=\"stim\">OUTDOORS</p>", "conditions": [18, 1200, "v", 18000], "internal_node_id": "0.0-38.0", "trial": 1, "time_elapsed": 324494, "serialpos": 1, "key_press": -1, "wordID": 986, "type": "PRES_VIS", "trial_index": 56}, "uniqueid": "MTK1390:3KWTYT0871AG87WZVXRZBA8KOHB5LU", "dateTime": 1515870841447}, {"current_trial": 57, "trialdata": {"rt": -1, "trial_type": "single-stim", "word": "widow", "stimulus": "<p id=\"stim\">WIDOW</p>", "conditions": [18, 1200, "v", 18000], "internal_node_id": "0.0-39.0", "trial": 1, "time_elapsed": 326674, "serialpos": 2, "key_press": -1, "wordID": 1607, "type": "PRES_VIS", "trial_index": 57}, "uniqueid": "MTK1390:3KWTYT0871AG87WZVXRZBA8KOHB5LU", "dateTime": 1515870843628}, {"current_trial": 58, "trialdata": {"rt": -1, "trial_type": "single-stim", "word": "market", "stimulus": "<p id=\"stim\">MARKET</p>", "conditions": [18, 1200, "v", 18000], "internal_node_id": "0.0-40.0", "trial": 1, "time_elapsed": 329001, "serialpos": 3, "key_press": -1, "wordID": 870, "type": "PRES_VIS", "trial_index": 58}, "uniqueid": "MTK1390:3KWTYT0871AG87WZVXRZBA8KOHB5LU", "dateTime": 1515870845955}, {"current_trial": 59, "trialdata": {"rt": -1, "trial_type": "single-stim", "word": "rifle", "stimulus": "<p id=\"stim\">RIFLE</p>", "conditions": [18, 1200, "v", 18000], "internal_node_id": "0.0-41.0", "trial": 1, "time_elapsed": 331192, "serialpos": 4, "key_press": -1, "wordID": 1191, "type": "PRES_VIS", "trial_index": 59}, "uniqueid": "MTK1390:3KWTYT0871AG87WZVXRZBA8KOHB5LU", "dateTime": 1515870848146}, {"current_trial": 60, "trialdata": {"rt": -1, "trial_type": "single-stim", "word": "victim", "stimulus": "<p id=\"stim\">VICTIM</p>", "conditions": [18, 1200, "v", 18000], "internal_node_id": "0.0-42.0", "trial": 1, "time_elapsed": 333558, "serialpos": 5, "key_press": -1, "wordID": 1561, "type": "PRES_VIS", "trial_index": 60}, "uniqueid": "MTK1390:3KWTYT0871AG87WZVXRZBA8KOHB5LU", "dateTime": 1515870850512}, {"current_trial": 61, "trialdata": {"rt": -1, "trial_type": "single-stim", "word": "jury", "stimulus": "<p id=\"stim\">JURY</p>", "conditions": [18, 1200, "v", 18000], "internal_node_id": "0.0-43.0", "trial": 1, "time_elapsed": 335802, "serialpos": 6, "key_press": -1, "wordID": 765, "type": "PRES_VIS", "trial_index": 61}, "uniqueid": "MTK1390:3KWTYT0871AG87WZVXRZBA8KOHB5LU", "dateTime": 1515870852756}, {"current_trial": 62, "trialdata": {"rt": -1, "trial_type": "single-stim", "word": "climber", "stimulus": "<p id=\"stim\">CLIMBER</p>", "conditions": [18, 1200, "v", 18000], "internal_node_id": "0.0-44.0", "trial": 1, "time_elapsed": 338172, "serialpos": 7, "key_press": -1, "wordID": 322, "type": "PRES_VIS", "trial_index": 62}, "uniqueid": "MTK1390:3KWTYT0871AG87WZVXRZBA8KOHB5LU", "dateTime": 1515870855126}, {"current_trial": 63, "trialdata": {"rt": -1, "trial_type": "single-stim", "word": "nomad", "stimulus": "<p id=\"stim\">NOMAD</p>", "conditions": [18, 1200, "v", 18000], "internal_node_id": "0.0-45.0", "trial": 1, "time_elapsed": 340216, "serialpos": 8, "key_press": -1, "wordID": 954, "type": "PRES_VIS", "trial_index": 63}, "uniqueid": "MTK1390:3KWTYT0871AG87WZVXRZBA8KOHB5LU", "dateTime": 1515870857170}, {"current_trial": 64, "trialdata": {"rt": -1, "trial_type": "single-stim", "word": "marker", "stimulus": "<p id=\"stim\">MARKER</p>", "conditions": [18, 1200, "v", 18000], "internal_node_id": "0.0-46.0", "trial": 1, "time_elapsed": 342558, "serialpos": 9, "key_press": -1, "wordID": 869, "type": "PRES_VIS", "trial_index": 64}, "uniqueid": "MTK1390:3KWTYT0871AG87WZVXRZBA8KOHB5LU", "dateTime": 1515870859511}, {"current_trial": 65, "trialdata": {"rt": -1, "trial_type": "single-stim", "word": "yarn", "stimulus": "<p id=\"stim\">YARN</p>", "conditions": [18, 1200, "v", 18000], "internal_node_id": "0.0-47.0", "trial": 1, "time_elapsed": 344785, "serialpos": 10, "key_press": -1, "wordID": 1630, "type": "PRES_VIS", "trial_index": 65}, "uniqueid": "MTK1390:3KWTYT0871AG87WZVXRZBA8KOHB5LU", "dateTime": 1515870861739}, {"current_trial": 66, "trialdata": {"rt": -1, "trial_type": "single-stim", "word": "cowboy", "stimulus": "<p id=\"stim\">COWBOY</p>", "conditions": [18, 1200, "v", 18000], "internal_node_id": "0.0-48.0", "trial": 1, "time_elapsed": 346978, "serialpos": 11, "key_press": -1, "wordID": 394, "type": "PRES_VIS", "trial_index": 66}, "uniqueid": "MTK1390:3KWTYT0871AG87WZVXRZBA8KOHB5LU", "dateTime": 1515870863932}, {"current_trial": 67, "trialdata": {"rt": -1, "trial_type": "single-stim", "word": "poison", "stimulus": "<p id=\"stim\">POISON</p>", "conditions": [18, 1200, "v", 18000], "internal_node_id": "0.0-49.0", "trial": 1, "time_elapsed": 349139, "serialpos": 12, "key_press": -1, "wordID": 1095, "type": "PRES_VIS", "trial_index": 67}, "uniqueid": "MTK1390:3KWTYT0871AG87WZVXRZBA8KOHB5LU", "dateTime": 1515870866093}, {"current_trial": 68, "trialdata": {"rt": -1, "trial_type": "single-stim", "word": "outlaw", "stimulus": "<p id=\"stim\">OUTLAW</p>", "conditions": [18, 1200, "v", 18000], "internal_node_id": "0.0-50.0", "trial": 1, "time_elapsed": 351472, "serialpos": 13, "key_press": -1, "wordID": 988, "type": "PRES_VIS", "trial_index": 68}, "uniqueid": "MTK1390:3KWTYT0871AG87WZVXRZBA8KOHB5LU", "dateTime": 1515870868431}, {"current_trial": 69, "trialdata": {"rt": -1, "trial_type": "single-stim", "word": "lizard", "stimulus": "<p id=\"stim\">LIZARD</p>", "conditions": [18, 1200, "v", 18000], "internal_node_id": "0.0-51.0", "trial": 1, "time_elapsed": 353590, "serialpos": 14, "key_press": -1, "wordID": 833, "type": "PRES_VIS", "trial_index": 69}, "uniqueid": "MTK1390:3KWTYT0871AG87WZVXRZBA8KOHB5LU", "dateTime": 1515870870543}, {"current_trial": 70, "trialdata": {"rt": -1, "trial_type": "single-stim", "word": "football", "stimulus": "<p id=\"stim\">FOOTBALL</p>", "conditions": [18, 1200, "v", 18000], "internal_node_id": "0.0-52.0", "trial": 1, "time_elapsed": 355909, "serialpos": 15, "key_press": -1, "wordID": 590, "type": "PRES_VIS", "trial_index": 70}, "uniqueid": "MTK1390:3KWTYT0871AG87WZVXRZBA8KOHB5LU", "dateTime": 1515870872863}, {"current_trial": 71, "trialdata": {"rt": -1, "trial_type": "single-stim", "word": "liver", "stimulus": "<p id=\"stim\">LIVER</p>", "conditions": [18, 1200, "v", 18000], "internal_node_id": "0.0-53.0", "trial": 1, "time_elapsed": 358183, "serialpos": 16, "key_press": -1, "wordID": 832, "type": "PRES_VIS", "trial_index": 71}, "uniqueid": "MTK1390:3KWTYT0871AG87WZVXRZBA8KOHB5LU", "dateTime": 1515870875137}, {"current_trial": 72, "trialdata": {"rt": -1, "trial_type": "single-stim", "word": "sketch", "stimulus": "<p id=\"stim\">SKETCH</p>", "conditions": [18, 1200, "v", 18000], "internal_node_id": "0.0-54.0", "trial": 1, "time_elapsed": 360218, "serialpos": 17, "key_press": -1, "wordID": 1314, "type": "PRES_VIS", "trial_index": 72}, "uniqueid": "MTK1390:3KWTYT0871AG87WZVXRZBA8KOHB5LU", "dateTime": 1515870877172}, {"current_trial": 73, "trialdata": {"rt": -1, "trial_type": "single-stim", "stimulus": "", "internal_node_id": "0.0-55.0-0.0", "time_elapsed": 362600, "key_press": -1, "type": "PRE_RECALL_DELAY", "trial_index": 73}, "uniqueid": "MTK1390:3KWTYT0871AG87WZVXRZBA8KOHB5LU", "dateTime": 1515870879553}, {"current_trial": 74, "trialdata": {"rt": -1000, "trial_type": "single-audio", "stimulus": "/static/audio/400Hz.wav", "internal_node_id": "0.0-56.0", "time_elapsed": 363112, "key_press": -1, "type": "PRE_RECALL_ALERT", "trial_index": 74}, "uniqueid": "MTK1390:3KWTYT0871AG87WZVXRZBA8KOHB5LU", "dateTime": 1515870880065}, {"current_trial": 75, "trialdata": {"rt": [2294, 3409, 6163, 7439, 8832, 10680, 11895, 14752, 16678, 18500, 21297, 50877], "recwords": ["sketch", "liver", "football", "marker", "market", "outdoor", "widow", "rifle", "victim", "jury", "climber", "lizard"], "key_times": [1088, 1361, 1502, 1744, 1947, 2054, 2294, 2755, 2853, 2989, 3119, 3237, 3409, 4022, 4161, 4334, 4501, 4823, 5500, 5791, 5936, 6163, 6470, 6602, 6735, 6900, 7019, 7137, 7439, 7898, 7987, 8167, 8473, 8570, 8655, 8832, 9275, 9422, 9584, 9921, 10050, 10199, 10485, 10680, 11007, 11167, 11381, 11502, 11667, 11895, 13023, 13369, 13756, 13884, 14114, 14235, 14353, 14752, 15564, 15564, 15686, 16021, 16079, 16280, 16678, 17594, 17780, 17902, 18113, 18500, 19684, 19818, 19951, 20379, 20848, 20976, 21113, 21297, 49922, 50092, 50225, 50439, 50585, 50746, 50877], "trial_type": "free-recall", "conditions": [18, 1200, "v", 18000], "internal_node_id": "0.0-57.0-0.0", "key_presses": [83, 75, 69, 84, 67, 72, 13, 76, 73, 86, 69, 82, 13, 70, 79, 79, 84, 66, 65, 76, 76, 13, 77, 65, 82, 75, 69, 82, 13, 77, 65, 82, 75, 69, 84, 13, 79, 85, 84, 68, 79, 79, 82, 13, 87, 73, 68, 79, 87, 13, 66, 8, 82, 73, 70, 76, 69, 13, 86, 73, 67, 84, 73, 77, 13, 74, 85, 82, 89, 13, 67, 76, 73, 77, 66, 69, 82, 13, 76, 73, 90, 65, 82, 68, 13], "trial": 1, "time_elapsed": 423115, "type": "FREE_RECALL", "trial_index": 75}, "uniqueid": "MTK1390:3KWTYT0871AG87WZVXRZBA8KOHB5LU", "dateTime": 1515870940074}, {"current_trial": 76, "trialdata": {"rt": 2363, "trial_type": "text", "internal_node_id": "0.0-58.0", "time_elapsed": 427485, "key_press": 13, "type": "INSTRUCTIONS", "trial_index": 76}, "uniqueid": "MTK1390:3KWTYT0871AG87WZVXRZBA8KOHB5LU", "dateTime": 1515870944438}, {"current_trial": 77, "trialdata": {"rt": [3690, 8693, 10728], "trial_type": "math-distractor", "key_times": [2557, 3581, 3690, 8474, 8566, 8693, 10476, 10572, 10728], "responses": ["18", "21", "21"], "num2": [9, 8, 4, 1], "num3": [2, 7, 9, 2], "conditions": [12, 800, "v", 12000], "internal_node_id": "0.0-59.0", "key_presses": [49, 56, 13, 50, 49, 13, 50, 49, 13], "trial": 2, "time_elapsed": 440495, "type": "DISTRACTOR", "trial_index": 77, "num1": [7, 8, 8, 9]}, "uniqueid": "MTK1390:3KWTYT0871AG87WZVXRZBA8KOHB5LU", "dateTime": 1515870957448}, {"current_trial": 78, "trialdata": {"rt": -1, "trial_type": "single-stim", "stimulus": "<p id=\"stim\">10</p>", "internal_node_id": "0.0-60.0-0.0", "time_elapsed": 443498, "key_press": -1, "trial_index": 78}, "uniqueid": "MTK1390:3KWTYT0871AG87WZVXRZBA8KOHB5LU", "dateTime": 1515870960452}, {"current_trial": 79, "trialdata": {"rt": -1, "trial_type": "single-stim", "stimulus": "<p id=\"stim\">9</p>", "internal_node_id": "0.0-60.0-1.0", "time_elapsed": 444500, "key_press": -1, "trial_index": 79}, "uniqueid": "MTK1390:3KWTYT0871AG87WZVXRZBA8KOHB5LU", "dateTime": 1515870961453}, {"current_trial": 80, "trialdata": {"rt": -1, "trial_type": "single-stim", "stimulus": "<p id=\"stim\">8</p>", "internal_node_id": "0.0-60.0-2.0", "time_elapsed": 445505, "key_press": -1, "trial_index": 80}, "uniqueid": "MTK1390:3KWTYT0871AG87WZVXRZBA8KOHB5LU", "dateTime": 1515870962458}, {"current_trial": 81, "trialdata": {"rt": -1, "trial_type": "single-stim", "stimulus": "<p id=\"stim\">7</p>", "internal_node_id": "0.0-60.0-3.0", "time_elapsed": 446508, "key_press": -1, "trial_index": 81}, "uniqueid": "MTK1390:3KWTYT0871AG87WZVXRZBA8KOHB5LU", "dateTime": 1515870963461}, {"current_trial": 82, "trialdata": {"rt": -1, "trial_type": "single-stim", "stimulus": "<p id=\"stim\">6</p>", "internal_node_id": "0.0-60.0-4.0", "time_elapsed": 447512, "key_press": -1, "trial_index": 82}, "uniqueid": "MTK1390:3KWTYT0871AG87WZVXRZBA8KOHB5LU", "dateTime": 1515870964465}, {"current_trial": 83, "trialdata": {"rt": -1, "trial_type": "single-stim", "stimulus": "<p id=\"stim\">5</p>", "internal_node_id": "0.0-60.0-5.0", "time_elapsed": 448514, "key_press": -1, "trial_index": 83}, "uniqueid": "MTK1390:3KWTYT0871AG87WZVXRZBA8KOHB5LU", "dateTime": 1515870965468}, {"current_trial": 84, "trialdata": {"rt": -1, "trial_type": "single-stim", "stimulus": "<p id=\"stim\">4</p>", "internal_node_id": "0.0-60.0-6.0", "time_elapsed": 449516, "key_press": -1, "trial_index": 84}, "uniqueid": "MTK1390:3KWTYT0871AG87WZVXRZBA8KOHB5LU", "dateTime": 1515870966470}, {"current_trial": 85, "trialdata": {"rt": -1, "trial_type": "single-stim", "stimulus": "<p id=\"stim\">3</p>", "internal_node_id": "0.0-60.0-7.0", "time_elapsed": 450518, "key_press": -1, "trial_index": 85}, "uniqueid": "MTK1390:3KWTYT0871AG87WZVXRZBA8KOHB5LU", "dateTime": 1515870967472}, {"current_trial": 86, "trialdata": {"rt": -1, "trial_type": "single-stim", "stimulus": "<p id=\"stim\">2</p>", "internal_node_id": "0.0-60.0-8.0", "time_elapsed": 451520, "key_press": -1, "trial_index": 86}, "uniqueid": "MTK1390:3KWTYT0871AG87WZVXRZBA8KOHB5LU", "dateTime": 1515870968474}, {"current_trial": 87, "trialdata": {"rt": -1, "trial_type": "single-stim", "stimulus": "<p id=\"stim\">1</p>", "internal_node_id": "0.0-60.0-9.0", "time_elapsed": 452523, "key_press": -1, "trial_index": 87}, "uniqueid": "MTK1390:3KWTYT0871AG87WZVXRZBA8KOHB5LU", "dateTime": 1515870969476}, {"current_trial": 88, "trialdata": {"rt": -1, "trial_type": "single-stim", "stimulus": "<p id=\"stim\">+</p>", "internal_node_id": "0.0-61.0-0.0", "time_elapsed": 454080, "key_press": -1, "type": "FIXATION", "trial_index": 88}, "uniqueid": "MTK1390:3KWTYT0871AG87WZVXRZBA8KOHB5LU", "dateTime": 1515870971033}, {"current_trial": 89, "trialdata": {"rt": -1, "trial_type": "single-stim", "word": "leopard", "stimulus": "<p id=\"stim\">LEOPARD</p>", "conditions": [12, 800, "v", 12000], "internal_node_id": "0.0-62.0", "trial": 2, "time_elapsed": 454881, "serialpos": 0, "key_press": -1, "wordID": 811, "type": "PRES_VIS", "trial_index": 89}, "uniqueid": "MTK1390:3KWTYT0871AG87WZVXRZBA8KOHB5LU", "dateTime": 1515870971835}, {"current_trial": 90, "trialdata": {"rt": -1, "trial_type": "single-stim", "word": "suitcase", "stimulus": "<p id=\"stim\">SUITCASE</p>", "conditions": [12, 800, "v", 12000], "internal_node_id": "0.0-63.0", "trial": 2, "time_elapsed": 456719, "serialpos": 1, "key_press": -1, "wordID": 1402, "type": "PRES_VIS", "trial_index": 90}, "uniqueid": "MTK1390:3KWTYT0871AG87WZVXRZBA8KOHB5LU", "dateTime": 1515870973672}, {"current_trial": 91, "trialdata": {"rt": -1, "trial_type": "single-stim", "word": "knapsack", "stimulus": "<p id=\"stim\">KNAPSACK</p>", "conditions": [12, 800, "v", 12000], "internal_node_id": "0.0-64.0", "trial": 2, "time_elapsed": 458364, "serialpos": 2, "key_press": -1, "wordID": 782, "type": "PRES_VIS", "trial_index": 91}, "uniqueid": "MTK1390:3KWTYT0871AG87WZVXRZBA8KOHB5LU", "dateTime": 1515870975317}, {"current_trial": 92, "trialdata": {"rt": -1, "trial_type": "single-stim", "word": "tweezers", "stimulus": "<p id=\"stim\">TWEEZERS</p>", "conditions": [12, 800, "v", 12000], "internal_node_id": "0.0-65.0", "trial": 2, "time_elapsed": 460242, "serialpos": 3, "key_press": -1, "wordID": 1525, "type": "PRES_VIS", "trial_index": 92}, "uniqueid": "MTK1390:3KWTYT0871AG87WZVXRZBA8KOHB5LU", "dateTime": 1515870977196}, {"current_trial": 93, "trialdata": {"rt": -1, "trial_type": "single-stim", "word": "zebra", "stimulus": "<p id=\"stim\">ZEBRA</p>", "conditions": [12, 800, "v", 12000], "internal_node_id": "0.0-66.0", "trial": 2, "time_elapsed": 461958, "serialpos": 4, "key_press": -1, "wordID": 1634, "type": "PRES_VIS", "trial_index": 93}, "uniqueid": "MTK1390:3KWTYT0871AG87WZVXRZBA8KOHB5LU", "dateTime": 1515870978911}, {"current_trial": 94, "trialdata": {"rt": -1, "trial_type": "single-stim", "word": "bug", "stimulus": "<p id=\"stim\">BUG</p>", "conditions": [12, 800, "v", 12000], "internal_node_id": "0.0-67.0", "trial": 2, "time_elapsed": 463618, "serialpos": 5, "key_press": -1, "wordID": 186, "type": "PRES_VIS", "trial_index": 94}, "uniqueid": "MTK1390:3KWTYT0871AG87WZVXRZBA8KOHB5LU", "dateTime": 1515870980572}, {"current_trial": 95, "trialdata": {"rt": -1, "trial_type": "single-stim", "word": "rooster", "stimulus": "<p id=\"stim\">ROOSTER</p>", "conditions": [12, 800, "v", 12000], "internal_node_id": "0.0-68.0", "trial": 2, "time_elapsed": 465448, "serialpos": 6, "key_press": -1, "wordID": 1208, "type": "PRES_VIS", "trial_index": 95}, "uniqueid": "MTK1390:3KWTYT0871AG87WZVXRZBA8KOHB5LU", "dateTime": 1515870982402}, {"current_trial": 96, "trialdata": {"rt": -1, "trial_type": "single-stim", "word": "statue", "stimulus": "<p id=\"stim\">STATUE</p>", "conditions": [12, 800, "v", 12000], "internal_node_id": "0.0-69.0", "trial": 2, "time_elapsed": 467072, "serialpos": 7, "key_press": -1, "wordID": 1373, "type": "PRES_VIS", "trial_index": 96}, "uniqueid": "MTK1390:3KWTYT0871AG87WZVXRZBA8KOHB5LU", "dateTime": 1515870984026}, {"current_trial": 97, "trialdata": {"rt": -1, "trial_type": "single-stim", "word": "lunch", "stimulus": "<p id=\"stim\">LUNCH</p>", "conditions": [12, 800, "v", 12000], "internal_node_id": "0.0-70.0", "trial": 2, "time_elapsed": 469009, "serialpos": 8, "key_press": -1, "wordID": 848, "type": "PRES_VIS", "trial_index": 97}, "uniqueid": "MTK1390:3KWTYT0871AG87WZVXRZBA8KOHB5LU", "dateTime": 1515870985962}, {"current_trial": 98, "trialdata": {"rt": -1, "trial_type": "single-stim", "word": "umpire", "stimulus": "<p id=\"stim\">UMPIRE</p>", "conditions": [12, 800, "v", 12000], "internal_node_id": "0.0-71.0", "trial": 2, "time_elapsed": 470973, "serialpos": 9, "key_press": -1, "wordID": 1534, "type": "PRES_VIS", "trial_index": 98}, "uniqueid": "MTK1390:3KWTYT0871AG87WZVXRZBA8KOHB5LU", "dateTime": 1515870987926}, {"current_trial": 99, "trialdata": {"rt": -1, "trial_type": "single-stim", "word": "banquet", "stimulus": "<p id=\"stim\">BANQUET</p>", "conditions": [12, 800, "v", 12000], "internal_node_id": "0.0-72.0", "trial": 2, "time_elapsed": 472755, "serialpos": 10, "key_press": -1, "wordID": 85, "type": "PRES_VIS", "trial_index": 99}, "uniqueid": "MTK1390:3KWTYT0871AG87WZVXRZBA8KOHB5LU", "dateTime": 1515870989709}, {"current_trial": 100, "trialdata": {"rt": -1, "trial_type": "single-stim", "word": "handbag", "stimulus": "<p id=\"stim\">HANDBAG</p>", "conditions": [12, 800, "v", 12000], "internal_node_id": "0.0-73.0", "trial": 2, "time_elapsed": 474748, "serialpos": 11, "key_press": -1, "wordID": 683, "type": "PRES_VIS", "trial_index": 100}, "uniqueid": "MTK1390:3KWTYT0871AG87WZVXRZBA8KOHB5LU", "dateTime": 1515870991701}, {"current_trial": 101, "trialdata": {"rt": -1, "trial_type": "single-stim", "stimulus": "", "internal_node_id": "0.0-74.0-0.0", "time_elapsed": 477258, "key_press": -1, "type": "PRE_RECALL_DELAY", "trial_index": 101}, "uniqueid": "MTK1390:3KWTYT0871AG87WZVXRZBA8KOHB5LU", "dateTime": 1515870994212}, {"current_trial": 102, "trialdata": {"rt": -1000, "trial_type": "single-audio", "stimulus": "/static/audio/400Hz.wav", "internal_node_id": "0.0-75.0", "time_elapsed": 477765, "key_press": -1, "type": "PRE_RECALL_ALERT", "trial_index": 102}, "uniqueid": "MTK1390:3KWTYT0871AG87WZVXRZBA8KOHB5LU", "dateTime": 1515870994718}, {"current_trial": 103, "trialdata": {"rt": [2371, 3688, 6893, 8797, 10091, 14976, 19320, 25319, 32042, 35397], "recwords": ["handbag", "statue", "banquet", "leopard", "bug", "suitcase", "napsack", "tweezers", "handbag", "lunch"], "key_times": [1032, 1162, 1317, 1539, 1861, 1933, 2115, 2371, 2698, 2861, 2981, 3111, 3276, 3411, 3688, 4831, 5101, 5161, 5537, 5676, 6500, 6659, 6893, 7418, 7592, 7795, 7976, 8096, 8245, 8487, 8797, 9445, 9641, 9893, 10091, 12956, 13501, 13645, 13813, 14178, 14388, 14574, 14807, 14976, 15527, 15953, 16301, 16624, 17066, 17216, 17503, 17628, 17730, 17909, 18106, 18274, 18380, 19320, 23781, 24007, 24272, 24462, 24626, 24864, 25026, 25161, 25319, 28905, 29028, 29286, 29724, 29880, 30167, 30345, 30492, 30623, 30774, 30942, 31069, 31295, 31629, 31722, 32042, 33768, 34468, 34812, 34962, 35065, 35397], "trial_type": "free-recall", "conditions": [12, 800, "v", 12000], "internal_node_id": "0.0-76.0-0.0", "key_presses": [72, 65, 78, 68, 66, 65, 71, 13, 83, 84, 65, 84, 85, 69, 13, 66, 65, 78, 81, 85, 69, 84, 13, 76, 69, 79, 80, 65, 82, 68, 13, 66, 85, 71, 13, 83, 85, 73, 84, 67, 65, 83, 69, 13, 78, 8, 75, 78, 8, 8, 78, 65, 80, 83, 65, 67, 75, 13, 84, 87, 69, 69, 90, 69, 82, 83, 13, 78, 65, 72, 8, 8, 8, 72, 65, 78, 68, 66, 65, 67, 8, 71, 13, 76, 85, 78, 67, 72, 13], "trial": 2, "time_elapsed": 537767, "type": "FREE_RECALL", "trial_index": 103}, "uniqueid": "MTK1390:3KWTYT0871AG87WZVXRZBA8KOHB5LU", "dateTime": 1515871054728}, {"current_trial": 104, "trialdata": {"rt": 1666, "trial_type": "text", "internal_node_id": "0.0-77.0", "time_elapsed": 541443, "key_press": 13, "type": "INSTRUCTIONS", "trial_index": 104}, "uniqueid": "MTK1390:3KWTYT0871AG87WZVXRZBA8KOHB5LU", "dateTime": 1515871058397}, {"current_trial": 105, "trialdata": {"rt": [2531, 4646, 6666, 8635, 10574], "trial_type": "math-distractor", "key_times": [2161, 2287, 2531, 4180, 4275, 4646, 5981, 6464, 6666, 8197, 8528, 8635, 10186, 10415, 10574], "responses": ["13", "21", "16", "18", "15"], "num2": [8, 8, 6, 6, 6, 1], "num3": [4, 5, 9, 4, 8, 9], "conditions": [24, 1600, "v", 12000], "internal_node_id": "0.0-78.0", "key_presses": [49, 51, 13, 50, 49, 13, 49, 54, 13, 49, 56, 13, 49, 53, 13], "trial": 3, "time_elapsed": 555450, "type": "DISTRACTOR", "trial_index": 105, "num1": [1, 8, 1, 8, 1, 6]}, "uniqueid": "MTK1390:3KWTYT0871AG87WZVXRZBA8KOHB5LU", "dateTime": 1515871072403}, {"current_trial": 106, "trialdata": {"rt": -1, "trial_type": "single-stim", "stimulus": "<p id=\"stim\">10</p>", "internal_node_id": "0.0-79.0-0.0", "time_elapsed": 558455, "key_press": -1, "trial_index": 106}, "uniqueid": "MTK1390:3KWTYT0871AG87WZVXRZBA8KOHB5LU", "dateTime": 1515871075409}, {"current_trial": 107, "trialdata": {"rt": -1, "trial_type": "single-stim", "stimulus": "<p id=\"stim\">9</p>", "internal_node_id": "0.0-79.0-1.0", "time_elapsed": 559457, "key_press": -1, "trial_index": 107}, "uniqueid": "MTK1390:3KWTYT0871AG87WZVXRZBA8KOHB5LU", "dateTime": 1515871076411}, {"current_trial": 108, "trialdata": {"rt": -1, "trial_type": "single-stim", "stimulus": "<p id=\"stim\">8</p>", "internal_node_id": "0.0-79.0-2.0", "time_elapsed": 560459, "key_press": -1, "trial_index": 108}, "uniqueid": "MTK1390:3KWTYT0871AG87WZVXRZBA8KOHB5LU", "dateTime": 1515871077412}, {"current_trial": 109, "trialdata": {"rt": -1, "trial_type": "single-stim", "stimulus": "<p id=\"stim\">7</p>", "internal_node_id": "0.0-79.0-3.0", "time_elapsed": 561461, "key_press": -1, "trial_index": 109}, "uniqueid": "MTK1390:3KWTYT0871AG87WZVXRZBA8KOHB5LU", "dateTime": 1515871078415}, {"current_trial": 110, "trialdata": {"rt": -1, "trial_type": "single-stim", "stimulus": "<p id=\"stim\">6</p>", "internal_node_id": "0.0-79.0-4.0", "time_elapsed": 562463, "key_press": -1, "trial_index": 110}, "uniqueid": "MTK1390:3KWTYT0871AG87WZVXRZBA8KOHB5LU", "dateTime": 1515871079416}, {"current_trial": 111, "trialdata": {"rt": -1, "trial_type": "single-stim", "stimulus": "<p id=\"stim\">5</p>", "internal_node_id": "0.0-79.0-5.0", "time_elapsed": 563465, "key_press": -1, "trial_index": 111}, "uniqueid": "MTK1390:3KWTYT0871AG87WZVXRZBA8KOHB5LU", "dateTime": 1515871080419}, {"current_trial": 112, "trialdata": {"rt": -1, "trial_type": "single-stim", "stimulus": "<p id=\"stim\">4</p>", "internal_node_id": "0.0-79.0-6.0", "time_elapsed": 564468, "key_press": -1, "trial_index": 112}, "uniqueid": "MTK1390:3KWTYT0871AG87WZVXRZBA8KOHB5LU", "dateTime": 1515871081421}, {"current_trial": 113, "trialdata": {"rt": -1, "trial_type": "single-stim", "stimulus": "<p id=\"stim\">3</p>", "internal_node_id": "0.0-79.0-7.0", "time_elapsed": 565470, "key_press": -1, "trial_index": 113}, "uniqueid": "MTK1390:3KWTYT0871AG87WZVXRZBA8KOHB5LU", "dateTime": 1515871082424}, {"current_trial": 114, "trialdata": {"rt": -1, "trial_type": "single-stim", "stimulus": "<p id=\"stim\">2</p>", "internal_node_id": "0.0-79.0-8.0", "time_elapsed": 566472, "key_press": -1, "trial_index": 114}, "uniqueid": "MTK1390:3KWTYT0871AG87WZVXRZBA8KOHB5LU", "dateTime": 1515871083426}, {"current_trial": 115, "trialdata": {"rt": -1, "trial_type": "single-stim", "stimulus": "<p id=\"stim\">1</p>", "internal_node_id": "0.0-79.0-9.0", "time_elapsed": 567476, "key_press": -1, "trial_index": 115}, "uniqueid": "MTK1390:3KWTYT0871AG87WZVXRZBA8KOHB5LU", "dateTime": 1515871084429}, {"current_trial": 116, "trialdata": {"rt": -1, "trial_type": "single-stim", "stimulus": "<p id=\"stim\">+</p>", "internal_node_id": "0.0-80.0-0.0", "time_elapsed": 569085, "key_press": -1, "type": "FIXATION", "trial_index": 116}, "uniqueid": "MTK1390:3KWTYT0871AG87WZVXRZBA8KOHB5LU", "dateTime": 1515871086039}, {"current_trial": 117, "trialdata": {"rt": -1, "trial_type": "single-stim", "word": "pastry", "stimulus": "<p id=\"stim\">PASTRY</p>", "conditions": [24, 1600, "v", 12000], "internal_node_id": "0.0-81.0", "trial": 3, "time_elapsed": 570689, "serialpos": 0, "key_press": -1, "wordID": 1021, "type": "PRES_VIS", "trial_index": 117}, "uniqueid": "MTK1390:3KWTYT0871AG87WZVXRZBA8KOHB5LU", "dateTime": 1515871087642}, {"current_trial": 118, "trialdata": {"rt": -1, "trial_type": "single-stim", "word": "sandwich", "stimulus": "<p id=\"stim\">SANDWICH</p>", "conditions": [24, 1600, "v", 12000], "internal_node_id": "0.0-82.0", "trial": 3, "time_elapsed": 573347, "serialpos": 1, "key_press": -1, "wordID": 1231, "type": "PRES_VIS", "trial_index": 118}, "uniqueid": "MTK1390:3KWTYT0871AG87WZVXRZBA8KOHB5LU", "dateTime": 1515871090301}, {"current_trial": 119, "trialdata": {"rt": -1, "trial_type": "single-stim", "word": "mammal", "stimulus": "<p id=\"stim\">MAMMAL</p>", "conditions": [24, 1600, "v", 12000], "internal_node_id": "0.0-83.0", "trial": 3, "time_elapsed": 575803, "serialpos": 2, "key_press": -1, "wordID": 860, "type": "PRES_VIS", "trial_index": 119}, "uniqueid": "MTK1390:3KWTYT0871AG87WZVXRZBA8KOHB5LU", "dateTime": 1515871092757}, {"current_trial": 120, "trialdata": {"rt": -1, "trial_type": "single-stim", "word": "binder", "stimulus": "<p id=\"stim\">BINDER</p>", "conditions": [24, 1600, "v", 12000], "internal_node_id": "0.0-84.0", "trial": 3, "time_elapsed": 578300, "serialpos": 3, "key_press": -1, "wordID": 126, "type": "PRES_VIS", "trial_index": 120}, "uniqueid": "MTK1390:3KWTYT0871AG87WZVXRZBA8KOHB5LU", "dateTime": 1515871095253}, {"current_trial": 121, "trialdata": {"rt": -1, "trial_type": "single-stim", "word": "lettuce", "stimulus": "<p id=\"stim\">LETTUCE</p>", "conditions": [24, 1600, "v", 12000], "internal_node_id": "0.0-85.0", "trial": 3, "time_elapsed": 580874, "serialpos": 4, "key_press": -1, "wordID": 813, "type": "PRES_VIS", "trial_index": 121}, "uniqueid": "MTK1390:3KWTYT0871AG87WZVXRZBA8KOHB5LU", "dateTime": 1515871097827}, {"current_trial": 122, "trialdata": {"rt": -1, "trial_type": "single-stim", "word": "server", "stimulus": "<p id=\"stim\">SERVER</p>", "conditions": [24, 1600, "v", 12000], "internal_node_id": "0.0-86.0", "trial": 3, "time_elapsed": 583508, "serialpos": 5, "key_press": -1, "wordID": 1271, "type": "PRES_VIS", "trial_index": 122}, "uniqueid": "MTK1390:3KWTYT0871AG87WZVXRZBA8KOHB5LU", "dateTime": 1515871100462}, {"current_trial": 123, "trialdata": {"rt": -1, "trial_type": "single-stim", "word": "creature", "stimulus": "<p id=\"stim\">CREATURE</p>", "conditions": [24, 1600, "v", 12000], "internal_node_id": "0.0-87.0", "trial": 3, "time_elapsed": 585920, "serialpos": 6, "key_press": -1, "wordID": 402, "type": "PRES_VIS", "trial_index": 123}, "uniqueid": "MTK1390:3KWTYT0871AG87WZVXRZBA8KOHB5LU", "dateTime": 1515871102874}, {"current_trial": 124, "trialdata": {"rt": -1, "trial_type": "single-stim", "word": "primate", "stimulus": "<p id=\"stim\">PRIMATE</p>", "conditions": [24, 1600, "v", 12000], "internal_node_id": "0.0-88.0", "trial": 3, "time_elapsed": 588584, "serialpos": 7, "key_press": -1, "wordID": 1122, "type": "PRES_VIS", "trial_index": 124}, "uniqueid": "MTK1390:3KWTYT0871AG87WZVXRZBA8KOHB5LU", "dateTime": 1515871105538}, {"current_trial": 125, "trialdata": {"rt": -1, "trial_type": "single-stim", "word": "cottage", "stimulus": "<p id=\"stim\">COTTAGE</p>", "conditions": [24, 1600, "v", 12000], "internal_node_id": "0.0-89.0", "trial": 3, "time_elapsed": 591385, "serialpos": 8, "key_press": -1, "wordID": 383, "type": "PRES_VIS", "trial_index": 125}, "uniqueid": "MTK1390:3KWTYT0871AG87WZVXRZBA8KOHB5LU", "dateTime": 1515871108339}, {"current_trial": 126, "trialdata": {"rt": -1, "trial_type": "single-stim", "word": "burglar", "stimulus": "<p id=\"stim\">BURGLAR</p>", "conditions": [24, 1600, "v", 12000], "internal_node_id": "0.0-90.0", "trial": 3, "time_elapsed": 593984, "serialpos": 9, "key_press": -1, "wordID": 199, "type": "PRES_VIS", "trial_index": 126}, "uniqueid": "MTK1390:3KWTYT0871AG87WZVXRZBA8KOHB5LU", "dateTime": 1515871110937}, {"current_trial": 127, "trialdata": {"rt": -1, "trial_type": "single-stim", "word": "table", "stimulus": "<p id=\"stim\">TABLE</p>", "conditions": [24, 1600, "v", 12000], "internal_node_id": "0.0-91.0", "trial": 3, "time_elapsed": 596500, "serialpos": 10, "key_press": -1, "wordID": 1425, "type": "PRES_VIS", "trial_index": 127}, "uniqueid": "MTK1390:3KWTYT0871AG87WZVXRZBA8KOHB5LU", "dateTime": 1515871113453}, {"current_trial": 128, "trialdata": {"rt": -1, "trial_type": "single-stim", "word": "scotch", "stimulus": "<p id=\"stim\">SCOTCH</p>", "conditions": [24, 1600, "v", 12000], "internal_node_id": "0.0-92.0", "trial": 3, "time_elapsed": 598963, "serialpos": 11, "key_press": -1, "wordID": 1250, "type": "PRES_VIS", "trial_index": 128}, "uniqueid": "MTK1390:3KWTYT0871AG87WZVXRZBA8KOHB5LU", "dateTime": 1515871115916}, {"current_trial": 129, "trialdata": {"rt": -1, "trial_type": "single-stim", "word": "wife", "stimulus": "<p id=\"stim\">WIFE</p>", "conditions": [24, 1600, "v", 12000], "internal_node_id": "0.0-93.0", "trial": 3, "time_elapsed": 601413, "serialpos": 12, "key_press": -1, "wordID": 1608, "type": "PRES_VIS", "trial_index": 129}, "uniqueid": "MTK1390:3KWTYT0871AG87WZVXRZBA8KOHB5LU", "dateTime": 1515871118366}, {"current_trial": 130, "trialdata": {"rt": -1, "trial_type": "single-stim", "word": "crutch", "stimulus": "<p id=\"stim\">CRUTCH</p>", "conditions": [24, 1600, "v", 12000], "internal_node_id": "0.0-94.0", "trial": 3, "time_elapsed": 604112, "serialpos": 13, "key_press": -1, "wordID": 416, "type": "PRES_VIS", "trial_index": 130}, "uniqueid": "MTK1390:3KWTYT0871AG87WZVXRZBA8KOHB5LU", "dateTime": 1515871121067}, {"current_trial": 131, "trialdata": {"rt": -1, "trial_type": "single-stim", "word": "lagoon", "stimulus": "<p id=\"stim\">LAGOON</p>", "conditions": [24, 1600, "v", 12000], "internal_node_id": "0.0-95.0", "trial": 3, "time_elapsed": 606532, "serialpos": 14, "key_press": -1, "wordID": 794, "type": "PRES_VIS", "trial_index": 131}, "uniqueid": "MTK1390:3KWTYT0871AG87WZVXRZBA8KOHB5LU", "dateTime": 1515871123486}, {"current_trial": 132, "trialdata": {"rt": -1, "trial_type": "single-stim", "word": "marsh", "stimulus": "<p id=\"stim\">MARSH</p>", "conditions": [24, 1600, "v", 12000], "internal_node_id": "0.0-96.0", "trial": 3, "time_elapsed": 609231, "serialpos": 15, "key_press": -1, "wordID": 873, "type": "PRES_VIS", "trial_index": 132}, "uniqueid": "MTK1390:3KWTYT0871AG87WZVXRZBA8KOHB5LU", "dateTime": 1515871126185}, {"current_trial": 133, "trialdata": {"rt": -1, "trial_type": "single-stim", "word": "beast", "stimulus": "<p id=\"stim\">BEAST</p>", "conditions": [24, 1600, "v", 12000], "internal_node_id": "0.0-97.0", "trial": 3, "time_elapsed": 611949, "serialpos": 16, "key_press": -1, "wordID": 107, "type": "PRES_VIS", "trial_index": 133}, "uniqueid": "MTK1390:3KWTYT0871AG87WZVXRZBA8KOHB5LU", "dateTime": 1515871128903}, {"current_trial": 134, "trialdata": {"rt": -1, "trial_type": "single-stim", "word": "powder", "stimulus": "<p id=\"stim\">POWDER</p>", "conditions": [24, 1600, "v", 12000], "internal_node_id": "0.0-98.0", "trial": 3, "time_elapsed": 614357, "serialpos": 17, "key_press": -1, "wordID": 1116, "type": "PRES_VIS", "trial_index": 134}, "uniqueid": "MTK1390:3KWTYT0871AG87WZVXRZBA8KOHB5LU", "dateTime": 1515871131310}, {"current_trial": 135, "trialdata": {"rt": -1, "trial_type": "single-stim", "word": "salt", "stimulus": "<p id=\"stim\">SALT</p>", "conditions": [24, 1600, "v", 12000], "internal_node_id": "0.0-99.0", "trial": 3, "time_elapsed": 616792, "serialpos": 18, "key_press": -1, "wordID": 1228, "type": "PRES_VIS", "trial_index": 135}, "uniqueid": "MTK1390:3KWTYT0871AG87WZVXRZBA8KOHB5LU", "dateTime": 1515871133745}, {"current_trial": 136, "trialdata": {"rt": -1, "trial_type": "single-stim", "word": "heart", "stimulus": "<p id=\"stim\">HEART</p>", "conditions": [24, 1600, "v", 12000], "internal_node_id": "0.0-100.0", "trial": 3, "time_elapsed": 619248, "serialpos": 19, "key_press": -1, "wordID": 696, "type": "PRES_VIS", "trial_index": 136}, "uniqueid": "MTK1390:3KWTYT0871AG87WZVXRZBA8KOHB5LU", "dateTime": 1515871136202}, {"current_trial": 137, "trialdata": {"rt": -1, "trial_type": "single-stim", "word": "pebble", "stimulus": "<p id=\"stim\">PEBBLE</p>", "conditions": [24, 1600, "v", 12000], "internal_node_id": "0.0-101.0", "trial": 3, "time_elapsed": 621933, "serialpos": 20, "key_press": -1, "wordID": 1034, "type": "PRES_VIS", "trial_index": 137}, "uniqueid": "MTK1390:3KWTYT0871AG87WZVXRZBA8KOHB5LU", "dateTime": 1515871138886}, {"current_trial": 138, "trialdata": {"rt": -1, "trial_type": "single-stim", "word": "antler", "stimulus": "<p id=\"stim\">ANTLER</p>", "conditions": [24, 1600, "v", 12000], "internal_node_id": "0.0-102.0", "trial": 3, "time_elapsed": 624772, "serialpos": 21, "key_press": -1, "wordID": 28, "type": "PRES_VIS", "trial_index": 138}, "uniqueid": "MTK1390:3KWTYT0871AG87WZVXRZBA8KOHB5LU", "dateTime": 1515871141726}, {"current_trial": 139, "trialdata": {"rt": -1, "trial_type": "single-stim", "word": "friend", "stimulus": "<p id=\"stim\">FRIEND</p>", "conditions": [24, 1600, "v", 12000], "internal_node_id": "0.0-103.0", "trial": 3, "time_elapsed": 627368, "serialpos": 22, "key_press": -1, "wordID": 605, "type": "PRES_VIS", "trial_index": 139}, "uniqueid": "MTK1390:3KWTYT0871AG87WZVXRZBA8KOHB5LU", "dateTime": 1515871144322}, {"current_trial": 140, "trialdata": {"rt": -1, "trial_type": "single-stim", "word": "bunny", "stimulus": "<p id=\"stim\">BUNNY</p>", "conditions": [24, 1600, "v", 12000], "internal_node_id": "0.0-104.0", "trial": 3, "time_elapsed": 630011, "serialpos": 23, "key_press": -1, "wordID": 197, "type": "PRES_VIS", "trial_index": 140}, "uniqueid": "MTK1390:3KWTYT0871AG87WZVXRZBA8KOHB5LU", "dateTime": 1515871146964}, {"current_trial": 141, "trialdata": {"rt": -1, "trial_type": "single-stim", "stimulus": "", "internal_node_id": "0.0-105.0-0.0", "time_elapsed": 632094, "key_press": -1, "type": "PRE_RECALL_DELAY", "trial_index": 141}, "uniqueid": "MTK1390:3KWTYT0871AG87WZVXRZBA8KOHB5LU", "dateTime": 1515871149047}, {"current_trial": 142, "trialdata": {"rt": -1000, "trial_type": "single-audio", "stimulus": "/static/audio/400Hz.wav", "internal_node_id": "0.0-106.0", "time_elapsed": 632603, "key_press": -1, "type": "PRE_RECALL_ALERT", "trial_index": 142}, "uniqueid": "MTK1390:3KWTYT0871AG87WZVXRZBA8KOHB5LU", "dateTime": 1515871149556}, {"current_trial": 143, "trialdata": {"rt": [1384, 3315, 6389, 11099, 14284, 17818, 20157, 21802, 26016], "recwords": ["bunny", "friend", "antler", "powder", "wife", "crutch", "sandwich", "lettuce", "burgler"], "key_times": [307, 434, 679, 808, 1002, 1384, 2301, 2509, 2774, 2808, 2922, 3076, 3315, 4533, 4682, 4847, 4985, 5118, 5268, 6389, 9545, 9621, 9785, 10141, 10378, 10936, 11099, 13694, 13832, 13971, 14112, 14284, 16455, 16723, 16942, 17112, 17328, 17436, 17818, 18417, 18629, 18846, 19017, 19399, 19595, 19732, 19835, 20157, 20564, 20692, 20817, 20970, 21085, 21471, 21695, 21802, 24425, 24628, 24828, 25280, 25506, 25649, 25799, 26016], "trial_type": "free-recall", "conditions": [24, 1600, "v", 12000], "internal_node_id": "0.0-107.0-0.0", "key_presses": [66, 85, 78, 78, 89, 13, 70, 82, 73, 69, 78, 68, 13, 65, 78, 84, 76, 69, 82, 13, 80, 79, 87, 68, 69, 82, 13, 87, 73, 70, 69, 13, 67, 82, 85, 84, 67, 72, 13, 83, 65, 78, 68, 87, 73, 67, 72, 13, 76, 69, 84, 84, 85, 67, 69, 13, 66, 85, 82, 71, 76, 69, 82, 13], "trial": 3, "time_elapsed": 692604, "type": "FREE_RECALL", "trial_index": 143}, "uniqueid": "MTK1390:3KWTYT0871AG87WZVXRZBA8KOHB5LU", "dateTime": 1515871209564}, {"current_trial": 144, "trialdata": {"rt": 1083, "trial_type": "text", "internal_node_id": "0.0-108.0", "time_elapsed": 695701, "key_press": 32, "type": "INSTRUCTIONS", "trial_index": 144}, "uniqueid": "MTK1390:3KWTYT0871AG87WZVXRZBA8KOHB5LU", "dateTime": 1515871212654}, {"current_trial": 145, "trialdata": {"rt": [2491, 5623, 7147, 9228, 10678], "trial_type": "math-distractor", "key_times": [1172, 1582, 1669, 2491, 4908, 5502, 5623, 6883, 7041, 7147, 8698, 9146, 9228, 10346, 10426, 10678], "responses": ["17 ", "16", "11", "18", "12"], "num2": [9, 3, 7, 7, 4, 7], "num3": [7, 4, 2, 7, 6, 5], "conditions": [24, 800, "v", 12000], "internal_node_id": "0.0-109.0", "key_presses": [49, 55, 32, 13, 49, 54, 13, 49, 49, 13, 49, 56, 13, 49, 50, 13], "trial": 4, "time_elapsed": 709721, "type": "DISTRACTOR", "trial_index": 145, "num1": [1, 9, 2, 4, 2, 8]}, "uniqueid": "MTK1390:3KWTYT0871AG87WZVXRZBA8KOHB5LU", "dateTime": 1515871226675}, {"current_trial": 146, "trialdata": {"rt": -1, "trial_type": "single-stim", "stimulus": "<p id=\"stim\">10</p>", "internal_node_id": "0.0-110.0-0.0", "time_elapsed": 712724, "key_press": -1, "trial_index": 146}, "uniqueid": "MTK1390:3KWTYT0871AG87WZVXRZBA8KOHB5LU", "dateTime": 1515871229677}, {"current_trial": 147, "trialdata": {"rt": -1, "trial_type": "single-stim", "stimulus": "<p id=\"stim\">9</p>", "internal_node_id": "0.0-110.0-1.0", "time_elapsed": 713728, "key_press": -1, "trial_index": 147}, "uniqueid": "MTK1390:3KWTYT0871AG87WZVXRZBA8KOHB5LU", "dateTime": 1515871230681}, {"current_trial": 148, "trialdata": {"rt": -1, "trial_type": "single-stim", "stimulus": "<p id=\"stim\">8</p>", "internal_node_id": "0.0-110.0-2.0", "time_elapsed": 714730, "key_press": -1, "trial_index": 148}, "uniqueid": "MTK1390:3KWTYT0871AG87WZVXRZBA8KOHB5LU", "dateTime": 1515871231683}, {"current_trial": 149, "trialdata": {"rt": -1, "trial_type": "single-stim", "stimulus": "<p id=\"stim\">7</p>", "internal_node_id": "0.0-110.0-3.0", "time_elapsed": 715732, "key_press": -1, "trial_index": 149}, "uniqueid": "MTK1390:3KWTYT0871AG87WZVXRZBA8KOHB5LU", "dateTime": 1515871232686}, {"current_trial": 150, "trialdata": {"rt": -1, "trial_type": "single-stim", "stimulus": "<p id=\"stim\">6</p>", "internal_node_id": "0.0-110.0-4.0", "time_elapsed": 716737, "key_press": -1, "trial_index": 150}, "uniqueid": "MTK1390:3KWTYT0871AG87WZVXRZBA8KOHB5LU", "dateTime": 1515871233690}, {"current_trial": 151, "trialdata": {"rt": -1, "trial_type": "single-stim", "stimulus": "<p id=\"stim\">5</p>", "internal_node_id": "0.0-110.0-5.0", "time_elapsed": 717739, "key_press": -1, "trial_index": 151}, "uniqueid": "MTK1390:3KWTYT0871AG87WZVXRZBA8KOHB5LU", "dateTime": 1515871234693}, {"current_trial": 152, "trialdata": {"rt": -1, "trial_type": "single-stim", "stimulus": "<p id=\"stim\">4</p>", "internal_node_id": "0.0-110.0-6.0", "time_elapsed": 718742, "key_press": -1, "trial_index": 152}, "uniqueid": "MTK1390:3KWTYT0871AG87WZVXRZBA8KOHB5LU", "dateTime": 1515871235696}, {"current_trial": 153, "trialdata": {"rt": -1, "trial_type": "single-stim", "stimulus": "<p id=\"stim\">3</p>", "internal_node_id": "0.0-110.0-7.0", "time_elapsed": 719746, "key_press": -1, "trial_index": 153}, "uniqueid": "MTK1390:3KWTYT0871AG87WZVXRZBA8KOHB5LU", "dateTime": 1515871236700}, {"current_trial": 154, "trialdata": {"rt": -1, "trial_type": "single-stim", "stimulus": "<p id=\"stim\">2</p>", "internal_node_id": "0.0-110.0-8.0", "time_elapsed": 720749, "key_press": -1, "trial_index": 154}, "uniqueid": "MTK1390:3KWTYT0871AG87WZVXRZBA8KOHB5LU", "dateTime": 1515871237702}, {"current_trial": 155, "trialdata": {"rt": -1, "trial_type": "single-stim", "stimulus": "<p id=\"stim\">1</p>", "internal_node_id": "0.0-110.0-9.0", "time_elapsed": 721752, "key_press": -1, "trial_index": 155}, "uniqueid": "MTK1390:3KWTYT0871AG87WZVXRZBA8KOHB5LU", "dateTime": 1515871238705}, {"current_trial": 156, "trialdata": {"rt": -1, "trial_type": "single-stim", "stimulus": "<p id=\"stim\">+</p>", "internal_node_id": "0.0-111.0-0.0", "time_elapsed": 723255, "key_press": -1, "type": "FIXATION", "trial_index": 156}, "uniqueid": "MTK1390:3KWTYT0871AG87WZVXRZBA8KOHB5LU", "dateTime": 1515871240208}, {"current_trial": 157, "trialdata": {"rt": -1, "trial_type": "single-stim", "word": "brother", "stimulus": "<p id=\"stim\">BROTHER</p>", "conditions": [24, 800, "v", 12000], "internal_node_id": "0.0-112.0", "trial": 4, "time_elapsed": 724058, "serialpos": 0, "key_press": -1, "wordID": 178, "type": "PRES_VIS", "trial_index": 157}, "uniqueid": "MTK1390:3KWTYT0871AG87WZVXRZBA8KOHB5LU", "dateTime": 1515871241011}, {"current_trial": 158, "trialdata": {"rt": -1, "trial_type": "single-stim", "word": "spool", "stimulus": "<p id=\"stim\">SPOOL</p>", "conditions": [24, 800, "v", 12000], "internal_node_id": "0.0-113.0", "trial": 4, "time_elapsed": 725903, "serialpos": 1, "key_press": -1, "wordID": 1355, "type": "PRES_VIS", "trial_index": 158}, "uniqueid": "MTK1390:3KWTYT0871AG87WZVXRZBA8KOHB5LU", "dateTime": 1515871242856}, {"current_trial": 159, "trialdata": {"rt": -1, "trial_type": "single-stim", "word": "raft", "stimulus": "<p id=\"stim\">RAFT</p>", "conditions": [24, 800, "v", 12000], "internal_node_id": "0.0-114.0", "trial": 4, "time_elapsed": 727508, "serialpos": 2, "key_press": -1, "wordID": 1158, "type": "PRES_VIS", "trial_index": 159}, "uniqueid": "MTK1390:3KWTYT0871AG87WZVXRZBA8KOHB5LU", "dateTime": 1515871244462}, {"current_trial": 160, "trialdata": {"rt": -1, "trial_type": "single-stim", "word": "hood", "stimulus": "<p id=\"stim\">HOOD</p>", "conditions": [24, 800, "v", 12000], "internal_node_id": "0.0-115.0", "trial": 4, "time_elapsed": 729453, "serialpos": 3, "key_press": -1, "wordID": 713, "type": "PRES_VIS", "trial_index": 160}, "uniqueid": "MTK1390:3KWTYT0871AG87WZVXRZBA8KOHB5LU", "dateTime": 1515871246407}, {"current_trial": 161, "trialdata": {"rt": -1, "trial_type": "single-stim", "word": "fireplace", "stimulus": "<p id=\"stim\">FIREPLACE</p>", "conditions": [24, 800, "v", 12000], "internal_node_id": "0.0-116.0", "trial": 4, "time_elapsed": 731185, "serialpos": 4, "key_press": -1, "wordID": 569, "type": "PRES_VIS", "trial_index": 161}, "uniqueid": "MTK1390:3KWTYT0871AG87WZVXRZBA8KOHB5LU", "dateTime": 1515871248138}, {"current_trial": 162, "trialdata": {"rt": -1, "trial_type": "single-stim", "word": "citrus", "stimulus": "<p id=\"stim\">CITRUS</p>", "conditions": [24, 800, "v", 12000], "internal_node_id": "0.0-117.0", "trial": 4, "time_elapsed": 732875, "serialpos": 5, "key_press": -1, "wordID": 312, "type": "PRES_VIS", "trial_index": 162}, "uniqueid": "MTK1390:3KWTYT0871AG87WZVXRZBA8KOHB5LU", "dateTime": 1515871249829}, {"current_trial": 163, "trialdata": {"rt": -1, "trial_type": "single-stim", "word": "grape", "stimulus": "<p id=\"stim\">GRAPE</p>", "conditions": [24, 800, "v", 12000], "internal_node_id": "0.0-118.0", "trial": 4, "time_elapsed": 734702, "serialpos": 6, "key_press": -1, "wordID": 653, "type": "PRES_VIS", "trial_index": 163}, "uniqueid": "MTK1390:3KWTYT0871AG87WZVXRZBA8KOHB5LU", "dateTime": 1515871251655}, {"current_trial": 164, "trialdata": {"rt": -1, "trial_type": "single-stim", "word": "lipstick", "stimulus": "<p id=\"stim\">LIPSTICK</p>", "conditions": [24, 800, "v", 12000], "internal_node_id": "0.0-119.0", "trial": 4, "time_elapsed": 736586, "serialpos": 7, "key_press": -1, "wordID": 828, "type": "PRES_VIS", "trial_index": 164}, "uniqueid": "MTK1390:3KWTYT0871AG87WZVXRZBA8KOHB5LU", "dateTime": 1515871253540}, {"current_trial": 165, "trialdata": {"rt": -1, "trial_type": "single-stim", "word": "human", "stimulus": "<p id=\"stim\">HUMAN</p>", "conditions": [24, 800, "v", 12000], "internal_node_id": "0.0-120.0", "trial": 4, "time_elapsed": 738290, "serialpos": 8, "key_press": -1, "wordID": 725, "type": "PRES_VIS", "trial_index": 165}, "uniqueid": "MTK1390:3KWTYT0871AG87WZVXRZBA8KOHB5LU", "dateTime": 1515871255244}, {"current_trial": 166, "trialdata": {"rt": -1, "trial_type": "single-stim", "word": "canyon", "stimulus": "<p id=\"stim\">CANYON</p>", "conditions": [24, 800, "v", 12000], "internal_node_id": "0.0-121.0", "trial": 4, "time_elapsed": 740147, "serialpos": 9, "key_press": -1, "wordID": 234, "type": "PRES_VIS", "trial_index": 166}, "uniqueid": "MTK1390:3KWTYT0871AG87WZVXRZBA8KOHB5LU", "dateTime": 1515871257101}, {"current_trial": 167, "trialdata": {"rt": -1, "trial_type": "single-stim", "word": "shark", "stimulus": "<p id=\"stim\">SHARK</p>", "conditions": [24, 800, "v", 12000], "internal_node_id": "0.0-122.0", "trial": 4, "time_elapsed": 742065, "serialpos": 10, "key_press": -1, "wordID": 1274, "type": "PRES_VIS", "trial_index": 167}, "uniqueid": "MTK1390:3KWTYT0871AG87WZVXRZBA8KOHB5LU", "dateTime": 1515871259018}, {"current_trial": 168, "trialdata": {"rt": -1, "trial_type": "single-stim", "word": "uncle", "stimulus": "<p id=\"stim\">UNCLE</p>", "conditions": [24, 800, "v", 12000], "internal_node_id": "0.0-123.0", "trial": 4, "time_elapsed": 743719, "serialpos": 11, "key_press": -1, "wordID": 1535, "type": "PRES_VIS", "trial_index": 168}, "uniqueid": "MTK1390:3KWTYT0871AG87WZVXRZBA8KOHB5LU", "dateTime": 1515871260673}, {"current_trial": 169, "trialdata": {"rt": -1, "trial_type": "single-stim", "word": "brook", "stimulus": "<p id=\"stim\">BROOK</p>", "conditions": [24, 800, "v", 12000], "internal_node_id": "0.0-124.0", "trial": 4, "time_elapsed": 745384, "serialpos": 12, "key_press": -1, "wordID": 176, "type": "PRES_VIS", "trial_index": 169}, "uniqueid": "MTK1390:3KWTYT0871AG87WZVXRZBA8KOHB5LU", "dateTime": 1515871262338}, {"current_trial": 170, "trialdata": {"rt": -1, "trial_type": "single-stim", "word": "hook", "stimulus": "<p id=\"stim\">HOOK</p>", "conditions": [24, 800, "v", 12000], "internal_node_id": "0.0-125.0", "trial": 4, "time_elapsed": 747025, "serialpos": 13, "key_press": -1, "wordID": 714, "type": "PRES_VIS", "trial_index": 170}, "uniqueid": "MTK1390:3KWTYT0871AG87WZVXRZBA8KOHB5LU", "dateTime": 1515871263979}, {"current_trial": 171, "trialdata": {"rt": -1, "trial_type": "single-stim", "word": "casket", "stimulus": "<p id=\"stim\">CASKET</p>", "conditions": [24, 800, "v", 12000], "internal_node_id": "0.0-126.0", "trial": 4, "time_elapsed": 748658, "serialpos": 14, "key_press": -1, "wordID": 254, "type": "PRES_VIS", "trial_index": 171}, "uniqueid": "MTK1390:3KWTYT0871AG87WZVXRZBA8KOHB5LU", "dateTime": 1515871265611}, {"current_trial": 172, "trialdata": {"rt": -1, "trial_type": "single-stim", "word": "spider", "stimulus": "<p id=\"stim\">SPIDER</p>", "conditions": [24, 800, "v", 12000], "internal_node_id": "0.0-127.0", "trial": 4, "time_elapsed": 750327, "serialpos": 15, "key_press": -1, "wordID": 1350, "type": "PRES_VIS", "trial_index": 172}, "uniqueid": "MTK1390:3KWTYT0871AG87WZVXRZBA8KOHB5LU", "dateTime": 1515871267280}, {"current_trial": 173, "trialdata": {"rt": -1, "trial_type": "single-stim", "word": "snake", "stimulus": "<p id=\"stim\">SNAKE</p>", "conditions": [24, 800, "v", 12000], "internal_node_id": "0.0-128.0", "trial": 4, "time_elapsed": 752044, "serialpos": 16, "key_press": -1, "wordID": 1332, "type": "PRES_VIS", "trial_index": 173}, "uniqueid": "MTK1390:3KWTYT0871AG87WZVXRZBA8KOHB5LU", "dateTime": 1515871268997}, {"current_trial": 174, "trialdata": {"rt": -1, "trial_type": "single-stim", "word": "finger", "stimulus": "<p id=\"stim\">FINGER</p>", "conditions": [24, 800, "v", 12000], "internal_node_id": "0.0-129.0", "trial": 4, "time_elapsed": 753840, "serialpos": 17, "key_press": -1, "wordID": 566, "type": "PRES_VIS", "trial_index": 174}, "uniqueid": "MTK1390:3KWTYT0871AG87WZVXRZBA8KOHB5LU", "dateTime": 1515871270794}, {"current_trial": 175, "trialdata": {"rt": -1, "trial_type": "single-stim", "word": "bureau", "stimulus": "<p id=\"stim\">BUREAU</p>", "conditions": [24, 800, "v", 12000], "internal_node_id": "0.0-130.0", "trial": 4, "time_elapsed": 755446, "serialpos": 18, "key_press": -1, "wordID": 198, "type": "PRES_VIS", "trial_index": 175}, "uniqueid": "MTK1390:3KWTYT0871AG87WZVXRZBA8KOHB5LU", "dateTime": 1515871272400}, {"current_trial": 176, "trialdata": {"rt": -1, "trial_type": "single-stim", "word": "grill", "stimulus": "<p id=\"stim\">GRILL</p>", "conditions": [24, 800, "v", 12000], "internal_node_id": "0.0-131.0", "trial": 4, "time_elapsed": 757147, "serialpos": 19, "key_press": -1, "wordID": 660, "type": "PRES_VIS", "trial_index": 176}, "uniqueid": "MTK1390:3KWTYT0871AG87WZVXRZBA8KOHB5LU", "dateTime": 1515871274101}, {"current_trial": 177, "trialdata": {"rt": -1, "trial_type": "single-stim", "word": "rod", "stimulus": "<p id=\"stim\">ROD</p>", "conditions": [24, 800, "v", 12000], "internal_node_id": "0.0-132.0", "trial": 4, "time_elapsed": 758880, "serialpos": 20, "key_press": -1, "wordID": 1202, "type": "PRES_VIS", "trial_index": 177}, "uniqueid": "MTK1390:3KWTYT0871AG87WZVXRZBA8KOHB5LU", "dateTime": 1515871275834}, {"current_trial": 178, "trialdata": {"rt": -1, "trial_type": "single-stim", "word": "maple", "stimulus": "<p id=\"stim\">MAPLE</p>", "conditions": [24, 800, "v", 12000], "internal_node_id": "0.0-133.0", "trial": 4, "time_elapsed": 760601, "serialpos": 21, "key_press": -1, "wordID": 865, "type": "PRES_VIS", "trial_index": 178}, "uniqueid": "MTK1390:3KWTYT0871AG87WZVXRZBA8KOHB5LU", "dateTime": 1515871277554}, {"current_trial": 179, "trialdata": {"rt": -1, "trial_type": "single-stim", "word": "foot", "stimulus": "<p id=\"stim\">FOOT</p>", "conditions": [24, 800, "v", 12000], "internal_node_id": "0.0-134.0", "trial": 4, "time_elapsed": 762599, "serialpos": 22, "key_press": -1, "wordID": 589, "type": "PRES_VIS", "trial_index": 179}, "uniqueid": "MTK1390:3KWTYT0871AG87WZVXRZBA8KOHB5LU", "dateTime": 1515871279552}, {"current_trial": 180, "trialdata": {"rt": -1, "trial_type": "single-stim", "word": "tombstone", "stimulus": "<p id=\"stim\">TOMBSTONE</p>", "conditions": [24, 800, "v", 12000], "internal_node_id": "0.0-135.0", "trial": 4, "time_elapsed": 764263, "serialpos": 23, "key_press": -1, "wordID": 1477, "type": "PRES_VIS", "trial_index": 180}, "uniqueid": "MTK1390:3KWTYT0871AG87WZVXRZBA8KOHB5LU", "dateTime": 1515871281217}, {"current_trial": 181, "trialdata": {"rt": 1270, "trial_type": "single-stim", "stimulus": "", "internal_node_id": "0.0-136.0-0.0", "time_elapsed": 766745, "key_press": 13, "type": "PRE_RECALL_DELAY", "trial_index": 181}, "uniqueid": "MTK1390:3KWTYT0871AG87WZVXRZBA8KOHB5LU", "dateTime": 1515871283699}, {"current_trial": 182, "trialdata": {"rt": -1000, "trial_type": "single-audio", "stimulus": "/static/audio/400Hz.wav", "internal_node_id": "0.0-137.0", "time_elapsed": 767257, "key_press": -1, "type": "PRE_RECALL_ALERT", "trial_index": 182}, "uniqueid": "MTK1390:3KWTYT0871AG87WZVXRZBA8KOHB5LU", "dateTime": 1515871284210}, {"current_trial": 183, "trialdata": {"rt": [3033, 5389, 7650, 10540, 12151, 14558, 16854, 18883, 21930, 24118, 26263, 36276, 41504, 59471], "recwords": ["tombstone", "uncle", "brother", "spider", "casket", "hook", "", "lipsticl", "human", "shark", "grill", "citrus", "grill", "grape"], "key_times": [767, 939, 1842, 1990, 2217, 2389, 2507, 2718, 2795, 3033, 4589, 4847, 4988, 5065, 5223, 5389, 5804, 5939, 6151, 6528, 6672, 6868, 6990, 7108, 7209, 7311, 7425, 7650, 9778, 9838, 9941, 10075, 10278, 10376, 10540, 11138, 11357, 11507, 11688, 11793, 11923, 12151, 13652, 13886, 14037, 14172, 14558, 16854, 16885, 17618, 17724, 17872, 18021, 18137, 18405, 18602, 18883, 21108, 21226, 21451, 21573, 21659, 21930, 23011, 23131, 23257, 23374, 23882, 24118, 25376, 25607, 25678, 25862, 26004, 26263, 35110, 35383, 35489, 35874, 35877, 35984, 36276, 40490, 40768, 40822, 40961, 41138, 41504, 58790, 59014, 59124, 59251, 59331, 59471], "trial_type": "free-recall", "conditions": [24, 800, "v", 12000], "internal_node_id": "0.0-138.0-0.0", "key_presses": [84, 79, 77, 66, 83, 84, 79, 78, 69, 13, 85, 78, 67, 76, 69, 13, 66, 76, 79, 8, 8, 82, 79, 84, 72, 69, 82, 13, 83, 80, 73, 68, 69, 82, 13, 67, 65, 83, 75, 69, 84, 13, 72, 79, 79, 75, 13, 186, 76, 73, 80, 83, 84, 73, 67, 76, 13, 72, 85, 77, 65, 78, 13, 83, 72, 65, 82, 75, 13, 71, 82, 73, 76, 76, 13, 67, 73, 84, 82, 85, 83, 13, 71, 82, 73, 76, 76, 13, 71, 82, 65, 80, 69, 13], "trial": 4, "time_elapsed": 827260, "type": "FREE_RECALL", "trial_index": 183}, "uniqueid": "MTK1390:3KWTYT0871AG87WZVXRZBA8KOHB5LU", "dateTime": 1515871344224}, {"current_trial": 184, "trialdata": {"rt": 310237, "trial_type": "text", "internal_node_id": "0.0-139.0", "time_elapsed": 1139509, "key_press": 13, "type": "INSTRUCTIONS", "trial_index": 184}, "uniqueid": "MTK1390:3KWTYT0871AG87WZVXRZBA8KOHB5LU", "dateTime": 1515871656463}, {"current_trial": 185, "trialdata": {"rt": [1766, 5095, 7336, 9450, 11061, 12826, 14769, 16964, 19123, 20942, 23442], "trial_type": "math-distractor", "key_times": [1344, 1655, 1766, 3608, 4504, 4782, 4946, 5095, 6687, 7227, 7336, 9135, 9335, 9450, 10571, 10958, 11061, 12404, 12788, 12826, 14351, 14689, 14769, 16430, 16878, 16964, 18733, 19040, 19123, 20508, 20862, 20942, 22766, 23374, 23442], "responses": ["14", "11", "10", "14", "19", "18", "16", "15", "16", "18", "16"], "num2": [4, 2, 3, 9, 2, 6, 5, 7, 3, 4, 7, 5], "num3": [4, 7, 4, 3, 9, 7, 9, 2, 4, 7, 7, 5], "conditions": [24, 800, "v", 24000], "internal_node_id": "0.0-140.0", "key_presses": [49, 52, 13, 56, 8, 49, 49, 13, 49, 48, 13, 49, 52, 13, 49, 57, 13, 49, 56, 13, 49, 54, 13, 49, 53, 13, 49, 54, 13, 49, 56, 13, 49, 54, 13], "trial": 5, "time_elapsed": 1165520, "type": "DISTRACTOR", "trial_index": 185, "num1": [9, 2, 3, 2, 8, 5, 2, 6, 9, 7, 2, 7]}, "uniqueid": "MTK1390:3KWTYT0871AG87WZVXRZBA8KOHB5LU", "dateTime": 1515871682473}, {"current_trial": 186, "trialdata": {"rt": -1, "trial_type": "single-stim", "stimulus": "<p id=\"stim\">10</p>", "internal_node_id": "0.0-141.0-0.0", "time_elapsed": 1168524, "key_press": -1, "trial_index": 186}, "uniqueid": "MTK1390:3KWTYT0871AG87WZVXRZBA8KOHB5LU", "dateTime": 1515871685478}, {"current_trial": 187, "trialdata": {"rt": -1, "trial_type": "single-stim", "stimulus": "<p id=\"stim\">9</p>", "internal_node_id": "0.0-141.0-1.0", "time_elapsed": 1169526, "key_press": -1, "trial_index": 187}, "uniqueid": "MTK1390:3KWTYT0871AG87WZVXRZBA8KOHB5LU", "dateTime": 1515871686480}, {"current_trial": 188, "trialdata": {"rt": -1, "trial_type": "single-stim", "stimulus": "<p id=\"stim\">8</p>", "internal_node_id": "0.0-141.0-2.0", "time_elapsed": 1170530, "key_press": -1, "trial_index": 188}, "uniqueid": "MTK1390:3KWTYT0871AG87WZVXRZBA8KOHB5LU", "dateTime": 1515871687484}, {"current_trial": 189, "trialdata": {"rt": -1, "trial_type": "single-stim", "stimulus": "<p id=\"stim\">7</p>", "internal_node_id": "0.0-141.0-3.0", "time_elapsed": 1171534, "key_press": -1, "trial_index": 189}, "uniqueid": "MTK1390:3KWTYT0871AG87WZVXRZBA8KOHB5LU", "dateTime": 1515871688487}, {"current_trial": 190, "trialdata": {"rt": -1, "trial_type": "single-stim", "stimulus": "<p id=\"stim\">6</p>", "internal_node_id": "0.0-141.0-4.0", "time_elapsed": 1172536, "key_press": -1, "trial_index": 190}, "uniqueid": "MTK1390:3KWTYT0871AG87WZVXRZBA8KOHB5LU", "dateTime": 1515871689490}, {"current_trial": 191, "trialdata": {"rt": -1, "trial_type": "single-stim", "stimulus": "<p id=\"stim\">5</p>", "internal_node_id": "0.0-141.0-5.0", "time_elapsed": 1173540, "key_press": -1, "trial_index": 191}, "uniqueid": "MTK1390:3KWTYT0871AG87WZVXRZBA8KOHB5LU", "dateTime": 1515871690494}, {"current_trial": 192, "trialdata": {"rt": -1, "trial_type": "single-stim", "stimulus": "<p id=\"stim\">4</p>", "internal_node_id": "0.0-141.0-6.0", "time_elapsed": 1174543, "key_press": -1, "trial_index": 192}, "uniqueid": "MTK1390:3KWTYT0871AG87WZVXRZBA8KOHB5LU", "dateTime": 1515871691497}, {"current_trial": 193, "trialdata": {"rt": -1, "trial_type": "single-stim", "stimulus": "<p id=\"stim\">3</p>", "internal_node_id": "0.0-141.0-7.0", "time_elapsed": 1175546, "key_press": -1, "trial_index": 193}, "uniqueid": "MTK1390:3KWTYT0871AG87WZVXRZBA8KOHB5LU", "dateTime": 1515871692500}, {"current_trial": 194, "trialdata": {"rt": -1, "trial_type": "single-stim", "stimulus": "<p id=\"stim\">2</p>", "internal_node_id": "0.0-141.0-8.0", "time_elapsed": 1176550, "key_press": -1, "trial_index": 194}, "uniqueid": "MTK1390:3KWTYT0871AG87WZVXRZBA8KOHB5LU", "dateTime": 1515871693503}, {"current_trial": 195, "trialdata": {"rt": -1, "trial_type": "single-stim", "stimulus": "<p id=\"stim\">1</p>", "internal_node_id": "0.0-141.0-9.0", "time_elapsed": 1177553, "key_press": -1, "trial_index": 195}, "uniqueid": "MTK1390:3KWTYT0871AG87WZVXRZBA8KOHB5LU", "dateTime": 1515871694507}, {"current_trial": 196, "trialdata": {"rt": -1, "trial_type": "single-stim", "stimulus": "<p id=\"stim\">+</p>", "internal_node_id": "0.0-142.0-0.0", "time_elapsed": 1179139, "key_press": -1, "type": "FIXATION", "trial_index": 196}, "uniqueid": "MTK1390:3KWTYT0871AG87WZVXRZBA8KOHB5LU", "dateTime": 1515871696100}, {"current_trial": 197, "trialdata": {"rt": -1, "trial_type": "single-stim", "word": "bubble", "stimulus": "<p id=\"stim\">BUBBLE</p>", "conditions": [24, 800, "v", 24000], "internal_node_id": "0.0-143.0", "trial": 5, "time_elapsed": 1179950, "serialpos": 0, "key_press": -1, "wordID": 182, "type": "PRES_VIS", "trial_index": 197}, "uniqueid": "MTK1390:3KWTYT0871AG87WZVXRZBA8KOHB5LU", "dateTime": 1515871696903}, {"current_trial": 198, "trialdata": {"rt": -1, "trial_type": "single-stim", "word": "plaid", "stimulus": "<p id=\"stim\">PLAID</p>", "conditions": [24, 800, "v", 24000], "internal_node_id": "0.0-144.0", "trial": 5, "time_elapsed": 1181791, "serialpos": 1, "key_press": -1, "wordID": 1079, "type": "PRES_VIS", "trial_index": 198}, "uniqueid": "MTK1390:3KWTYT0871AG87WZVXRZBA8KOHB5LU", "dateTime": 1515871698745}, {"current_trial": 199, "trialdata": {"rt": -1, "trial_type": "single-stim", "word": "preacher", "stimulus": "<p id=\"stim\">PREACHER</p>", "conditions": [24, 800, "v", 24000], "internal_node_id": "0.0-145.0", "trial": 5, "time_elapsed": 1183774, "serialpos": 2, "key_press": -1, "wordID": 1118, "type": "PRES_VIS", "trial_index": 199}, "uniqueid": "MTK1390:3KWTYT0871AG87WZVXRZBA8KOHB5LU", "dateTime": 1515871700727}, {"current_trial": 200, "trialdata": {"rt": -1, "trial_type": "single-stim", "word": "convict", "stimulus": "<p id=\"stim\">CONVICT</p>", "conditions": [24, 800, "v", 24000], "internal_node_id": "0.0-146.0", "trial": 5, "time_elapsed": 1185738, "serialpos": 3, "key_press": -1, "wordID": 370, "type": "PRES_VIS", "trial_index": 200}, "uniqueid": "MTK1390:3KWTYT0871AG87WZVXRZBA8KOHB5LU", "dateTime": 1515871702692}, {"current_trial": 201, "trialdata": {"rt": -1, "trial_type": "single-stim", "word": "lace", "stimulus": "<p id=\"stim\">LACE</p>", "conditions": [24, 800, "v", 24000], "internal_node_id": "0.0-147.0", "trial": 5, "time_elapsed": 1187580, "serialpos": 4, "key_press": -1, "wordID": 791, "type": "PRES_VIS", "trial_index": 201}, "uniqueid": "MTK1390:3KWTYT0871AG87WZVXRZBA8KOHB5LU", "dateTime": 1515871704533}, {"current_trial": 202, "trialdata": {"rt": -1, "trial_type": "single-stim", "word": "lover", "stimulus": "<p id=\"stim\">LOVER</p>", "conditions": [24, 800, "v", 24000], "internal_node_id": "0.0-148.0", "trial": 5, "time_elapsed": 1189396, "serialpos": 5, "key_press": -1, "wordID": 845, "type": "PRES_VIS", "trial_index": 202}, "uniqueid": "MTK1390:3KWTYT0871AG87WZVXRZBA8KOHB5LU", "dateTime": 1515871706350}, {"current_trial": 203, "trialdata": {"rt": -1, "trial_type": "single-stim", "word": "crib", "stimulus": "<p id=\"stim\">CRIB</p>", "conditions": [24, 800, "v", 24000], "internal_node_id": "0.0-149.0", "trial": 5, "time_elapsed": 1191161, "serialpos": 6, "key_press": -1, "wordID": 406, "type": "PRES_VIS", "trial_index": 203}, "uniqueid": "MTK1390:3KWTYT0871AG87WZVXRZBA8KOHB5LU", "dateTime": 1515871708114}, {"current_trial": 204, "trialdata": {"rt": -1, "trial_type": "single-stim", "word": "daughter", "stimulus": "<p id=\"stim\">DAUGHTER</p>", "conditions": [24, 800, "v", 24000], "internal_node_id": "0.0-150.0", "trial": 5, "time_elapsed": 1192997, "serialpos": 7, "key_press": -1, "wordID": 441, "type": "PRES_VIS", "trial_index": 204}, "uniqueid": "MTK1390:3KWTYT0871AG87WZVXRZBA8KOHB5LU", "dateTime": 1515871709950}, {"current_trial": 205, "trialdata": {"rt": -1, "trial_type": "single-stim", "word": "dustpan", "stimulus": "<p id=\"stim\">DUSTPAN</p>", "conditions": [24, 800, "v", 24000], "internal_node_id": "0.0-151.0", "trial": 5, "time_elapsed": 1194614, "serialpos": 8, "key_press": -1, "wordID": 508, "type": "PRES_VIS", "trial_index": 205}, "uniqueid": "MTK1390:3KWTYT0871AG87WZVXRZBA8KOHB5LU", "dateTime": 1515871711567}, {"current_trial": 206, "trialdata": {"rt": -1, "trial_type": "single-stim", "word": "chest", "stimulus": "<p id=\"stim\">CHEST</p>", "conditions": [24, 800, "v", 24000], "internal_node_id": "0.0-152.0", "trial": 5, "time_elapsed": 1196399, "serialpos": 9, "key_press": -1, "wordID": 294, "type": "PRES_VIS", "trial_index": 206}, "uniqueid": "MTK1390:3KWTYT0871AG87WZVXRZBA8KOHB5LU", "dateTime": 1515871713352}, {"current_trial": 207, "trialdata": {"rt": -1, "trial_type": "single-stim", "word": "scissors", "stimulus": "<p id=\"stim\">SCISSORS</p>", "conditions": [24, 800, "v", 24000], "internal_node_id": "0.0-153.0", "trial": 5, "time_elapsed": 1198332, "serialpos": 10, "key_press": -1, "wordID": 1249, "type": "PRES_VIS", "trial_index": 207}, "uniqueid": "MTK1390:3KWTYT0871AG87WZVXRZBA8KOHB5LU", "dateTime": 1515871715286}, {"current_trial": 208, "trialdata": {"rt": -1, "trial_type": "single-stim", "word": "scalpel", "stimulus": "<p id=\"stim\">SCALPEL</p>", "conditions": [24, 800, "v", 24000], "internal_node_id": "0.0-154.0", "trial": 5, "time_elapsed": 1200054, "serialpos": 11, "key_press": -1, "wordID": 1242, "type": "PRES_VIS", "trial_index": 208}, "uniqueid": "MTK1390:3KWTYT0871AG87WZVXRZBA8KOHB5LU", "dateTime": 1515871717008}, {"current_trial": 209, "trialdata": {"rt": -1, "trial_type": "single-stim", "word": "hornet", "stimulus": "<p id=\"stim\">HORNET</p>", "conditions": [24, 800, "v", 24000], "internal_node_id": "0.0-155.0", "trial": 5, "time_elapsed": 1201906, "serialpos": 12, "key_press": -1, "wordID": 717, "type": "PRES_VIS", "trial_index": 209}, "uniqueid": "MTK1390:3KWTYT0871AG87WZVXRZBA8KOHB5LU", "dateTime": 1515871718860}, {"current_trial": 210, "trialdata": {"rt": -1, "trial_type": "single-stim", "word": "dragon", "stimulus": "<p id=\"stim\">DRAGON</p>", "conditions": [24, 800, "v", 24000], "internal_node_id": "0.0-156.0", "trial": 5, "time_elapsed": 1203748, "serialpos": 13, "key_press": -1, "wordID": 491, "type": "PRES_VIS", "trial_index": 210}, "uniqueid": "MTK1390:3KWTYT0871AG87WZVXRZBA8KOHB5LU", "dateTime": 1515871720702}, {"current_trial": 211, "trialdata": {"rt": -1, "trial_type": "single-stim", "word": "patrol", "stimulus": "<p id=\"stim\">PATROL</p>", "conditions": [24, 800, "v", 24000], "internal_node_id": "0.0-157.0", "trial": 5, "time_elapsed": 1205554, "serialpos": 14, "key_press": -1, "wordID": 1026, "type": "PRES_VIS", "trial_index": 211}, "uniqueid": "MTK1390:3KWTYT0871AG87WZVXRZBA8KOHB5LU", "dateTime": 1515871722508}, {"current_trial": 212, "trialdata": {"rt": -1, "trial_type": "single-stim", "word": "carrot", "stimulus": "<p id=\"stim\">CARROT</p>", "conditions": [24, 800, "v", 24000], "internal_node_id": "0.0-158.0", "trial": 5, "time_elapsed": 1207551, "serialpos": 15, "key_press": -1, "wordID": 248, "type": "PRES_VIS", "trial_index": 212}, "uniqueid": "MTK1390:3KWTYT0871AG87WZVXRZBA8KOHB5LU", "dateTime": 1515871724504}, {"current_trial": 213, "trialdata": {"rt": -1, "trial_type": "single-stim", "word": "twig", "stimulus": "<p id=\"stim\">TWIG</p>", "conditions": [24, 800, "v", 24000], "internal_node_id": "0.0-159.0", "trial": 5, "time_elapsed": 1209437, "serialpos": 16, "key_press": -1, "wordID": 1526, "type": "PRES_VIS", "trial_index": 213}, "uniqueid": "MTK1390:3KWTYT0871AG87WZVXRZBA8KOHB5LU", "dateTime": 1515871726391}, {"current_trial": 214, "trialdata": {"rt": -1, "trial_type": "single-stim", "word": "frame", "stimulus": "<p id=\"stim\">FRAME</p>", "conditions": [24, 800, "v", 24000], "internal_node_id": "0.0-160.0", "trial": 5, "time_elapsed": 1211104, "serialpos": 17, "key_press": -1, "wordID": 599, "type": "PRES_VIS", "trial_index": 214}, "uniqueid": "MTK1390:3KWTYT0871AG87WZVXRZBA8KOHB5LU", "dateTime": 1515871728057}, {"current_trial": 215, "trialdata": {"rt": -1, "trial_type": "single-stim", "word": "portrait", "stimulus": "<p id=\"stim\">PORTRAIT</p>", "conditions": [24, 800, "v", 24000], "internal_node_id": "0.0-161.0", "trial": 5, "time_elapsed": 1213031, "serialpos": 18, "key_press": -1, "wordID": 1110, "type": "PRES_VIS", "trial_index": 215}, "uniqueid": "MTK1390:3KWTYT0871AG87WZVXRZBA8KOHB5LU", "dateTime": 1515871729984}, {"current_trial": 216, "trialdata": {"rt": -1, "trial_type": "single-stim", "word": "toaster", "stimulus": "<p id=\"stim\">TOASTER</p>", "conditions": [24, 800, "v", 24000], "internal_node_id": "0.0-162.0", "trial": 5, "time_elapsed": 1214963, "serialpos": 19, "key_press": -1, "wordID": 1471, "type": "PRES_VIS", "trial_index": 216}, "uniqueid": "MTK1390:3KWTYT0871AG87WZVXRZBA8KOHB5LU", "dateTime": 1515871731917}, {"current_trial": 217, "trialdata": {"rt": -1, "trial_type": "single-stim", "word": "goblin", "stimulus": "<p id=\"stim\">GOBLIN</p>", "conditions": [24, 800, "v", 24000], "internal_node_id": "0.0-163.0", "trial": 5, "time_elapsed": 1216639, "serialpos": 20, "key_press": -1, "wordID": 644, "type": "PRES_VIS", "trial_index": 217}, "uniqueid": "MTK1390:3KWTYT0871AG87WZVXRZBA8KOHB5LU", "dateTime": 1515871733593}, {"current_trial": 218, "trialdata": {"rt": -1, "trial_type": "single-stim", "word": "girl", "stimulus": "<p id=\"stim\">GIRL</p>", "conditions": [24, 800, "v", 24000], "internal_node_id": "0.0-164.0", "trial": 5, "time_elapsed": 1218310, "serialpos": 21, "key_press": -1, "wordID": 636, "type": "PRES_VIS", "trial_index": 218}, "uniqueid": "MTK1390:3KWTYT0871AG87WZVXRZBA8KOHB5LU", "dateTime": 1515871735264}, {"current_trial": 219, "trialdata": {"rt": -1, "trial_type": "single-stim", "word": "woman", "stimulus": "<p id=\"stim\">WOMAN</p>", "conditions": [24, 800, "v", 24000], "internal_node_id": "0.0-165.0", "trial": 5, "time_elapsed": 1220268, "serialpos": 22, "key_press": -1, "wordID": 1619, "type": "PRES_VIS", "trial_index": 219}, "uniqueid": "MTK1390:3KWTYT0871AG87WZVXRZBA8KOHB5LU", "dateTime": 1515871737221}, {"current_trial": 220, "trialdata": {"rt": -1, "trial_type": "single-stim", "word": "piston", "stimulus": "<p id=\"stim\">PISTON</p>", "conditions": [24, 800, "v", 24000], "internal_node_id": "0.0-166.0", "trial": 5, "time_elapsed": 1222225, "serialpos": 23, "key_press": -1, "wordID": 1075, "type": "PRES_VIS", "trial_index": 220}, "uniqueid": "MTK1390:3KWTYT0871AG87WZVXRZBA8KOHB5LU", "dateTime": 1515871739178}, {"current_trial": 221, "trialdata": {"rt": -1, "trial_type": "single-stim", "stimulus": "", "internal_node_id": "0.0-167.0-0.0", "time_elapsed": 1224669, "key_press": -1, "type": "PRE_RECALL_DELAY", "trial_index": 221}, "uniqueid": "MTK1390:3KWTYT0871AG87WZVXRZBA8KOHB5LU", "dateTime": 1515871741623}, {"current_trial": 222, "trialdata": {"rt": -1000, "trial_type": "single-audio", "stimulus": "/static/audio/400Hz.wav", "internal_node_id": "0.0-168.0", "time_elapsed": 1225357, "key_press": -1, "type": "PRE_RECALL_ALERT", "trial_index": 222}, "uniqueid": "MTK1390:3KWTYT0871AG87WZVXRZBA8KOHB5LU", "dateTime": 1515871742310}, {"current_trial": 223, "trialdata": {"rt": [1602, 4754, 6434, 7685, 13045], "recwords": ["bubble", "plaid", "woman", "girl", "piston"], "key_times": [674, 822, 1003, 1172, 1296, 1376, 1602, 3201, 3324, 3488, 3743, 4202, 4452, 4557, 4754, 5751, 5840, 5991, 6138, 6225, 6434, 6933, 7182, 7304, 7416, 7685, 11734, 12168, 12305, 12486, 12559, 12705, 13045], "trial_type": "free-recall", "conditions": [24, 800, "v", 24000], "internal_node_id": "0.0-169.0-0.0", "key_presses": [66, 85, 66, 66, 76, 69, 13, 80, 76, 65, 68, 8, 73, 68, 13, 87, 79, 77, 65, 78, 13, 71, 73, 82, 76, 13, 80, 73, 83, 84, 79, 78, 13], "trial": 5, "time_elapsed": 1285360, "type": "FREE_RECALL", "trial_index": 223}, "uniqueid": "MTK1390:3KWTYT0871AG87WZVXRZBA8KOHB5LU", "dateTime": 1515871802326}, {"current_trial": 224, "trialdata": {"rt": 1652, "trial_type": "text", "internal_node_id": "0.0-170.0", "time_elapsed": 1289028, "key_press": 13, "type": "INSTRUCTIONS", "trial_index": 224}, "uniqueid": "MTK1390:3KWTYT0871AG87WZVXRZBA8KOHB5LU", "dateTime": 1515871805981}, {"current_trial": 225, "trialdata": {"rt": [2309, 3776, 6139, 9211, 11399], "trial_type": "math-distractor", "key_times": [1949, 2046, 2309, 3466, 3644, 3776, 5744, 5877, 6139, 7763, 8083, 8859, 8973, 9211, 11045, 11302, 11399], "responses": ["18", "11", "17", "14", "`4"], "num2": [9, 6, 9, 3, 4, 7], "num3": [3, 4, 5, 8, 5, 7], "conditions": [12, 800, "v", 12000], "internal_node_id": "0.0-171.0", "key_presses": [49, 56, 13, 49, 49, 13, 49, 55, 13, 49, 53, 8, 52, 13, 192, 52, 13], "trial": 6, "time_elapsed": 1303033, "type": "DISTRACTOR", "trial_index": 225, "num1": [6, 1, 3, 3, 2, 8]}, "uniqueid": "MTK1390:3KWTYT0871AG87WZVXRZBA8KOHB5LU", "dateTime": 1515871819987}, {"current_trial": 226, "trialdata": {"rt": -1, "trial_type": "single-stim", "stimulus": "<p id=\"stim\">10</p>", "internal_node_id": "0.0-172.0-0.0", "time_elapsed": 1306037, "key_press": -1, "trial_index": 226}, "uniqueid": "MTK1390:3KWTYT0871AG87WZVXRZBA8KOHB5LU", "dateTime": 1515871822991}, {"current_trial": 227, "trialdata": {"rt": -1, "trial_type": "single-stim", "stimulus": "<p id=\"stim\">9</p>", "internal_node_id": "0.0-172.0-1.0", "time_elapsed": 1307041, "key_press": -1, "trial_index": 227}, "uniqueid": "MTK1390:3KWTYT0871AG87WZVXRZBA8KOHB5LU", "dateTime": 1515871823995}, {"current_trial": 228, "trialdata": {"rt": -1, "trial_type": "single-stim", "stimulus": "<p id=\"stim\">8</p>", "internal_node_id": "0.0-172.0-2.0", "time_elapsed": 1308045, "key_press": -1, "trial_index": 228}, "uniqueid": "MTK1390:3KWTYT0871AG87WZVXRZBA8KOHB5LU", "dateTime": 1515871824999}, {"current_trial": 229, "trialdata": {"rt": -1, "trial_type": "single-stim", "stimulus": "<p id=\"stim\">7</p>", "internal_node_id": "0.0-172.0-3.0", "time_elapsed": 1309048, "key_press": -1, "trial_index": 229}, "uniqueid": "MTK1390:3KWTYT0871AG87WZVXRZBA8KOHB5LU", "dateTime": 1515871826002}, {"current_trial": 230, "trialdata": {"rt": -1, "trial_type": "single-stim", "stimulus": "<p id=\"stim\">6</p>", "internal_node_id": "0.0-172.0-4.0", "time_elapsed": 1310051, "key_press": -1, "trial_index": 230}, "uniqueid": "MTK1390:3KWTYT0871AG87WZVXRZBA8KOHB5LU", "dateTime": 1515871827005}, {"current_trial": 231, "trialdata": {"rt": -1, "trial_type": "single-stim", "stimulus": "<p id=\"stim\">5</p>", "internal_node_id": "0.0-172.0-5.0", "time_elapsed": 1311054, "key_press": -1, "trial_index": 231}, "uniqueid": "MTK1390:3KWTYT0871AG87WZVXRZBA8KOHB5LU", "dateTime": 1515871828007}, {"current_trial": 232, "trialdata": {"rt": -1, "trial_type": "single-stim", "stimulus": "<p id=\"stim\">4</p>", "internal_node_id": "0.0-172.0-6.0", "time_elapsed": 1312057, "key_press": -1, "trial_index": 232}, "uniqueid": "MTK1390:3KWTYT0871AG87WZVXRZBA8KOHB5LU", "dateTime": 1515871829017}, {"current_trial": 233, "trialdata": {"rt": -1, "trial_type": "single-stim", "stimulus": "<p id=\"stim\">3</p>", "internal_node_id": "0.0-172.0-7.0", "time_elapsed": 1313067, "key_press": -1, "trial_index": 233}, "uniqueid": "MTK1390:3KWTYT0871AG87WZVXRZBA8KOHB5LU", "dateTime": 1515871830021}, {"current_trial": 234, "trialdata": {"rt": -1, "trial_type": "single-stim", "stimulus": "<p id=\"stim\">2</p>", "internal_node_id": "0.0-172.0-8.0", "time_elapsed": 1314070, "key_press": -1, "trial_index": 234}, "uniqueid": "MTK1390:3KWTYT0871AG87WZVXRZBA8KOHB5LU", "dateTime": 1515871831024}, {"current_trial": 235, "trialdata": {"rt": -1, "trial_type": "single-stim", "stimulus": "<p id=\"stim\">1</p>", "internal_node_id": "0.0-172.0-9.0", "time_elapsed": 1315072, "key_press": -1, "trial_index": 235}, "uniqueid": "MTK1390:3KWTYT0871AG87WZVXRZBA8KOHB5LU", "dateTime": 1515871832026}, {"current_trial": 236, "trialdata": {"rt": -1, "trial_type": "single-stim", "stimulus": "<p id=\"stim\">+</p>", "internal_node_id": "0.0-173.0-0.0", "time_elapsed": 1316574, "key_press": -1, "type": "FIXATION", "trial_index": 236}, "uniqueid": "MTK1390:3KWTYT0871AG87WZVXRZBA8KOHB5LU", "dateTime": 1515871833528}, {"current_trial": 237, "trialdata": {"rt": -1, "trial_type": "single-stim", "word": "gangster", "stimulus": "<p id=\"stim\">GANGSTER</p>", "conditions": [12, 800, "v", 12000], "internal_node_id": "0.0-174.0", "trial": 6, "time_elapsed": 1317379, "serialpos": 0, "key_press": -1, "wordID": 619, "type": "PRES_VIS", "trial_index": 237}, "uniqueid": "MTK1390:3KWTYT0871AG87WZVXRZBA8KOHB5LU", "dateTime": 1515871834333}, {"current_trial": 238, "trialdata": {"rt": -1, "trial_type": "single-stim", "word": "robin", "stimulus": "<p id=\"stim\">ROBIN</p>", "conditions": [12, 800, "v", 12000], "internal_node_id": "0.0-175.0", "trial": 6, "time_elapsed": 1319371, "serialpos": 1, "key_press": -1, "wordID": 1198, "type": "PRES_VIS", "trial_index": 238}, "uniqueid": "MTK1390:3KWTYT0871AG87WZVXRZBA8KOHB5LU", "dateTime": 1515871836324}, {"current_trial": 239, "trialdata": {"rt": -1, "trial_type": "single-stim", "word": "sparrow", "stimulus": "<p id=\"stim\">SPARROW</p>", "conditions": [12, 800, "v", 12000], "internal_node_id": "0.0-176.0", "trial": 6, "time_elapsed": 1321327, "serialpos": 2, "key_press": -1, "wordID": 1346, "type": "PRES_VIS", "trial_index": 239}, "uniqueid": "MTK1390:3KWTYT0871AG87WZVXRZBA8KOHB5LU", "dateTime": 1515871838280}, {"current_trial": 240, "trialdata": {"rt": -1, "trial_type": "single-stim", "word": "onion", "stimulus": "<p id=\"stim\">ONION</p>", "conditions": [12, 800, "v", 12000], "internal_node_id": "0.0-177.0", "trial": 6, "time_elapsed": 1323022, "serialpos": 3, "key_press": -1, "wordID": 976, "type": "PRES_VIS", "trial_index": 240}, "uniqueid": "MTK1390:3KWTYT0871AG87WZVXRZBA8KOHB5LU", "dateTime": 1515871839975}, {"current_trial": 241, "trialdata": {"rt": -1, "trial_type": "single-stim", "word": "lady", "stimulus": "<p id=\"stim\">LADY</p>", "conditions": [12, 800, "v", 12000], "internal_node_id": "0.0-178.0", "trial": 6, "time_elapsed": 1324665, "serialpos": 4, "key_press": -1, "wordID": 793, "type": "PRES_VIS", "trial_index": 241}, "uniqueid": "MTK1390:3KWTYT0871AG87WZVXRZBA8KOHB5LU", "dateTime": 1515871841618}, {"current_trial": 242, "trialdata": {"rt": -1, "trial_type": "single-stim", "word": "picture", "stimulus": "<p id=\"stim\">PICTURE</p>", "conditions": [12, 800, "v", 12000], "internal_node_id": "0.0-179.0", "trial": 6, "time_elapsed": 1326447, "serialpos": 5, "key_press": -1, "wordID": 1060, "type": "PRES_VIS", "trial_index": 242}, "uniqueid": "MTK1390:3KWTYT0871AG87WZVXRZBA8KOHB5LU", "dateTime": 1515871843401}, {"current_trial": 243, "trialdata": {"rt": -1, "trial_type": "single-stim", "word": "radish", "stimulus": "<p id=\"stim\">RADISH</p>", "conditions": [12, 800, "v", 12000], "internal_node_id": "0.0-180.0", "trial": 6, "time_elapsed": 1328376, "serialpos": 6, "key_press": -1, "wordID": 1157, "type": "PRES_VIS", "trial_index": 243}, "uniqueid": "MTK1390:3KWTYT0871AG87WZVXRZBA8KOHB5LU", "dateTime": 1515871845330}, {"current_trial": 244, "trialdata": {"rt": -1, "trial_type": "single-stim", "word": "tortoise", "stimulus": "<p id=\"stim\">TORTOISE</p>", "conditions": [12, 800, "v", 12000], "internal_node_id": "0.0-181.0", "trial": 6, "time_elapsed": 1330087, "serialpos": 7, "key_press": -1, "wordID": 1485, "type": "PRES_VIS", "trial_index": 244}, "uniqueid": "MTK1390:3KWTYT0871AG87WZVXRZBA8KOHB5LU", "dateTime": 1515871847040}, {"current_trial": 245, "trialdata": {"rt": -1, "trial_type": "single-stim", "word": "flask", "stimulus": "<p id=\"stim\">FLASK</p>", "conditions": [12, 800, "v", 12000], "internal_node_id": "0.0-182.0", "trial": 6, "time_elapsed": 1332040, "serialpos": 8, "key_press": -1, "wordID": 575, "type": "PRES_VIS", "trial_index": 245}, "uniqueid": "MTK1390:3KWTYT0871AG87WZVXRZBA8KOHB5LU", "dateTime": 1515871848993}, {"current_trial": 246, "trialdata": {"rt": -1, "trial_type": "single-stim", "word": "leader", "stimulus": "<p id=\"stim\">LEADER</p>", "conditions": [12, 800, "v", 12000], "internal_node_id": "0.0-183.0", "trial": 6, "time_elapsed": 1333833, "serialpos": 9, "key_press": -1, "wordID": 806, "type": "PRES_VIS", "trial_index": 246}, "uniqueid": "MTK1390:3KWTYT0871AG87WZVXRZBA8KOHB5LU", "dateTime": 1515871850787}, {"current_trial": 247, "trialdata": {"rt": -1, "trial_type": "single-stim", "word": "outfit", "stimulus": "<p id=\"stim\">OUTFIT</p>", "conditions": [12, 800, "v", 12000], "internal_node_id": "0.0-184.0", "trial": 6, "time_elapsed": 1335543, "serialpos": 10, "key_press": -1, "wordID": 987, "type": "PRES_VIS", "trial_index": 247}, "uniqueid": "MTK1390:3KWTYT0871AG87WZVXRZBA8KOHB5LU", "dateTime": 1515871852497}, {"current_tr