{"assignmentId": "33ISQZVXPQT84OB8XUL8MXO7O89CCN", "workerId": "MTK1906", "questiondata": {"avail_screen_height": 1456, "color_depth": 24, "screen_width": 2732, "pixel_depth": 24, "avail_screen_width": 2732, "screen_height": 1536}, "bonus": 0, "hitId": "3EHVO81VN5SDB9EWDN5NR86CFWNH14", "counterbalance": 2735, "useragent": "Mozilla/5.0 (Windows NT 10.0; Win64; x64; rv:57.0) Gecko/20100101 Firefox/57.0", "eventdata": [{"eventtype": "initialized", "interval": 0, "value": null, "timestamp": 1516556819021}, {"eventtype": "window_resize", "interval": 0, "value": [2700, 1316], "timestamp": 1516556819021}, {"eventtype": "focus", "interval": 27743, "value": "off", "timestamp": 1516556846764}, {"eventtype": "focus", "interval": 11252, "value": "on", "timestamp": 1516556858016}, {"eventtype": "window_resize", "interval": 13961, "value": [4500, 2193], "timestamp": 1516556871977}, {"eventtype": "focus", "interval": 6752, "value": "off", "timestamp": 1516556878729}, {"eventtype": "focus", "interval": 3242, "value": "on", "timestamp": 1516556881971}, {"eventtype": "window_resize", "interval": 1720, "value": [2700, 1316], "timestamp": 1516556883691}, {"eventtype": "window_resize", "interval": 493, "value": [2025, 987], "timestamp": 1516556884184}, {"eventtype": "window_resize", "interval": 4480, "value": [1688, 823], "timestamp": 1516556888664}, {"eventtype": "focus", "interval": 46113, "value": "off", "timestamp": 1516556934777}, {"eventtype": "focus", "interval": 8562, "value": "on", "timestamp": 1516556943339}, {"eventtype": "focus", "interval": 24935, "value": "off", "timestamp": 1516556968274}, {"eventtype": "focus", "interval": 2, "value": "on", "timestamp": 1516556968276}], "data": [{"current_trial": 0, "trialdata": {"rt": 2811, "trial_type": "text", "internal_node_id": "0.0-0.0", "time_elapsed": 2814, "key_press": 16, "type": "INSTRUCTIONS", "trial_index": 0}, "uniqueid": "MTK1906:33ISQZVXPQT84OB8XUL8MXO7O89CCN", "dateTime": 1516556822233}, {"current_trial": 1, "trialdata": {"rt": 53424, "trial_type": "text", "internal_node_id": "0.0-1.0", "time_elapsed": 56240, "key_press": 76, "type": "INSTRUCTIONS", "trial_index": 1}, "uniqueid": "MTK1906:33ISQZVXPQT84OB8XUL8MXO7O89CCN", "dateTime": 1516556875659}, {"current_trial": 2, "trialdata": {"rt": [87663, 191294], "trial_type": "audio-test", "responses": ["no", "ocean"], "internal_node_id": "0.0-2.0", "time_elapsed": 247571, "type": "AUDIO_TEST", "trial_index": 2}, "uniqueid": "MTK1906:33ISQZVXPQT84OB8XUL8MXO7O89CCN", "dateTime": 1516557066989}, {"current_trial": 3, "trialdata": {"rt": [18698], "trial_type": "audio-test", "responses": ["crystal"], "internal_node_id": "0.0-3.0", "time_elapsed": 266286, "type": "AUDIO_TEST", "trial_index": 3}, "uniqueid": "MTK1906:33ISQZVXPQT84OB8XUL8MXO7O89CCN", "dateTime": 1516557085704}, {"current_trial": 4, "trialdata": {"rt": [8331], "trial_type": "audio-test", "responses": ["spice"], "internal_node_id": "0.0-4.0", "time_elapsed": 274635, "type": "AUDIO_TEST", "trial_index": 4}, "uniqueid": "MTK1906:33ISQZVXPQT84OB8XUL8MXO7O89CCN", "dateTime": 1516557094053}, {"current_trial": 5, "trialdata": {"rt": 31074, "trial_type": "survey-text", "responses": "{\"Q0\":\"9:00\",\"Q1\":\"6:00\",\"Q2\":\"5\"}", "internal_node_id": "0.0-5.0", "time_elapsed": 306462, "type": "SLEEP_SURVEY", "trial_index": 5}, "uniqueid": "MTK1906:33ISQZVXPQT84OB8XUL8MXO7O89CCN", "dateTime": 1516557125880}, {"current_trial": 6, "trialdata": {"rt": 63307, "trial_type": "text", "internal_node_id": "0.0-6.0", "time_elapsed": 370770, "key_press": 13, "type": "INSTRUCTIONS", "trial_index": 6}, "uniqueid": "MTK1906:33ISQZVXPQT84OB8XUL8MXO7O89CCN", "dateTime": 1516557190188}, {"current_trial": 7, "trialdata": {"rt": 11401, "trial_type": "text", "internal_node_id": "0.0-7.0", "time_elapsed": 382673, "key_press": 13, "type": "INSTRUCTIONS", "trial_index": 7}, "uniqueid": "MTK1906:33ISQZVXPQT84OB8XUL8MXO7O89CCN", "dateTime": 1516557202091}, {"current_trial": 8, "trialdata": {"rt": 5485, "trial_type": "text", "internal_node_id": "0.0-8.0", "time_elapsed": 388660, "key_press": 13, "type": "INSTRUCTIONS", "trial_index": 8}, "uniqueid": "MTK1906:33ISQZVXPQT84OB8XUL8MXO7O89CCN", "dateTime": 1516557208078}, {"current_trial": 9, "trialdata": {"rt": [3809, 8343, 11949, 14141, 16543], "trial_type": "math-distractor", "key_times": [2942, 3151, 3809, 7602, 7785, 8343, 11477, 11645, 11949, 13521, 13729, 14141, 16131, 16295, 16543], "responses": ["20", "25", "23", "12", "12"], "num2": [3, 9, 8, 7, 6, 5], "num3": [9, 9, 8, 2, 1, 9], "conditions": [18, 1200, "v", 18000], "internal_node_id": "0.0-9.0", "key_presses": [98, 96, 13, 98, 101, 13, 98, 99, 13, 97, 98, 13, 97, 98, 13], "trial": 0, "time_elapsed": 407665, "type": "DISTRACTOR", "trial_index": 9, "num1": [8, 7, 7, 3, 5, 8]}, "uniqueid": "MTK1906:33ISQZVXPQT84OB8XUL8MXO7O89CCN", "dateTime": 1516557227084}, {"current_trial": 10, "trialdata": {"rt": -1, "trial_type": "single-stim", "stimulus": "<p id=\"stim\">10</p>", "internal_node_id": "0.0-10.0-0.0", "time_elapsed": 410668, "key_press": -1, "trial_index": 10}, "uniqueid": "MTK1906:33ISQZVXPQT84OB8XUL8MXO7O89CCN", "dateTime": 1516557230086}, {"current_trial": 11, "trialdata": {"rt": -1, "trial_type": "single-stim", "stimulus": "<p id=\"stim\">9</p>", "internal_node_id": "0.0-10.0-1.0", "time_elapsed": 411669, "key_press": -1, "trial_index": 11}, "uniqueid": "MTK1906:33ISQZVXPQT84OB8XUL8MXO7O89CCN", "dateTime": 1516557231087}, {"current_trial": 12, "trialdata": {"rt": -1, "trial_type": "single-stim", "stimulus": "<p id=\"stim\">8</p>", "internal_node_id": "0.0-10.0-2.0", "time_elapsed": 412670, "key_press": -1, "trial_index": 12}, "uniqueid": "MTK1906:33ISQZVXPQT84OB8XUL8MXO7O89CCN", "dateTime": 1516557232088}, {"current_trial": 13, "trialdata": {"rt": -1, "trial_type": "single-stim", "stimulus": "<p id=\"stim\">7</p>", "internal_node_id": "0.0-10.0-3.0", "time_elapsed": 413672, "key_press": -1, "trial_index": 13}, "uniqueid": "MTK1906:33ISQZVXPQT84OB8XUL8MXO7O89CCN", "dateTime": 1516557233090}, {"current_trial": 14, "trialdata": {"rt": -1, "trial_type": "single-stim", "stimulus": "<p id=\"stim\">6</p>", "internal_node_id": "0.0-10.0-4.0", "time_elapsed": 414672, "key_press": -1, "trial_index": 14}, "uniqueid": "MTK1906:33ISQZVXPQT84OB8XUL8MXO7O89CCN", "dateTime": 1516557234091}, {"current_trial": 15, "trialdata": {"rt": -1, "trial_type": "single-stim", "stimulus": "<p id=\"stim\">5</p>", "internal_node_id": "0.0-10.0-5.0", "time_elapsed": 415674, "key_press": -1, "trial_index": 15}, "uniqueid": "MTK1906:33ISQZVXPQT84OB8XUL8MXO7O89CCN", "dateTime": 1516557235092}, {"current_trial": 16, "trialdata": {"rt": -1, "trial_type": "single-stim", "stimulus": "<p id=\"stim\">4</p>", "internal_node_id": "0.0-10.0-6.0", "time_elapsed": 416674, "key_press": -1, "trial_index": 16}, "uniqueid": "MTK1906:33ISQZVXPQT84OB8XUL8MXO7O89CCN", "dateTime": 1516557236092}, {"current_trial": 17, "trialdata": {"rt": -1, "trial_type": "single-stim", "stimulus": "<p id=\"stim\">3</p>", "internal_node_id": "0.0-10.0-7.0", "time_elapsed": 417676, "key_press": -1, "trial_index": 17}, "uniqueid": "MTK1906:33ISQZVXPQT84OB8XUL8MXO7O89CCN", "dateTime": 1516557237094}, {"current_trial": 18, "trialdata": {"rt": -1, "trial_type": "single-stim", "stimulus": "<p id=\"stim\">2</p>", "internal_node_id": "0.0-10.0-8.0", "time_elapsed": 418677, "key_press": -1, "trial_index": 18}, "uniqueid": "MTK1906:33ISQZVXPQT84OB8XUL8MXO7O89CCN", "dateTime": 1516557238095}, {"current_trial": 19, "trialdata": {"rt": -1, "trial_type": "single-stim", "stimulus": "<p id=\"stim\">1</p>", "internal_node_id": "0.0-10.0-9.0", "time_elapsed": 419678, "key_press": -1, "trial_index": 19}, "uniqueid": "MTK1906:33ISQZVXPQT84OB8XUL8MXO7O89CCN", "dateTime": 1516557239096}, {"current_trial": 20, "trialdata": {"rt": -1, "trial_type": "single-stim", "stimulus": "<p id=\"stim\">+</p>", "internal_node_id": "0.0-11.0-0.0", "time_elapsed": 421180, "key_press": -1, "type": "FIXATION", "trial_index": 20}, "uniqueid": "MTK1906:33ISQZVXPQT84OB8XUL8MXO7O89CCN", "dateTime": 1516557240598}, {"current_trial": 21, "trialdata": {"rt": -1, "trial_type": "single-stim", "word": "creature", "stimulus": "<p id=\"stim\">CREATURE</p>", "conditions": [18, 1200, "v", 18000], "internal_node_id": "0.0-12.0", "trial": 0, "time_elapsed": 422381, "serialpos": 0, "key_press": -1, "wordID": 402, "type": "PRES_VIS", "trial_index": 21}, "uniqueid": "MTK1906:33ISQZVXPQT84OB8XUL8MXO7O89CCN", "dateTime": 1516557241800}, {"current_trial": 22, "trialdata": {"rt": -1, "trial_type": "single-stim", "word": "chauffeur", "stimulus": "<p id=\"stim\">CHAUFFEUR</p>", "conditions": [18, 1200, "v", 18000], "internal_node_id": "0.0-13.0", "trial": 0, "time_elapsed": 424646, "serialpos": 1, "key_press": -1, "wordID": 282, "type": "PRES_VIS", "trial_index": 22}, "uniqueid": "MTK1906:33ISQZVXPQT84OB8XUL8MXO7O89CCN", "dateTime": 1516557244064}, {"current_trial": 23, "trialdata": {"rt": -1, "trial_type": "single-stim", "word": "kitchen", "stimulus": "<p id=\"stim\">KITCHEN</p>", "conditions": [18, 1200, "v", 18000], "internal_node_id": "0.0-14.0", "trial": 0, "time_elapsed": 426952, "serialpos": 2, "key_press": -1, "wordID": 777, "type": "PRES_VIS", "trial_index": 23}, "uniqueid": "MTK1906:33ISQZVXPQT84OB8XUL8MXO7O89CCN", "dateTime": 1516557246370}, {"current_trial": 24, "trialdata": {"rt": -1, "trial_type": "single-stim", "word": "waiter", "stimulus": "<p id=\"stim\">WAITER</p>", "conditions": [18, 1200, "v", 18000], "internal_node_id": "0.0-15.0", "trial": 0, "time_elapsed": 429235, "serialpos": 3, "key_press": -1, "wordID": 1579, "type": "PRES_VIS", "trial_index": 24}, "uniqueid": "MTK1906:33ISQZVXPQT84OB8XUL8MXO7O89CCN", "dateTime": 1516557248653}, {"current_trial": 25, "trialdata": {"rt": -1, "trial_type": "single-stim", "word": "marine", "stimulus": "<p id=\"stim\">MARINE</p>", "conditions": [18, 1200, "v", 18000], "internal_node_id": "0.0-16.0", "trial": 0, "time_elapsed": 431441, "serialpos": 4, "key_press": -1, "wordID": 868, "type": "PRES_VIS", "trial_index": 25}, "uniqueid": "MTK1906:33ISQZVXPQT84OB8XUL8MXO7O89CCN", "dateTime": 1516557250859}, {"current_trial": 26, "trialdata": {"rt": -1, "trial_type": "single-stim", "word": "award", "stimulus": "<p id=\"stim\">AWARD</p>", "conditions": [18, 1200, "v", 18000], "internal_node_id": "0.0-17.0", "trial": 0, "time_elapsed": 433563, "serialpos": 5, "key_press": -1, "wordID": 62, "type": "PRES_VIS", "trial_index": 26}, "uniqueid": "MTK1906:33ISQZVXPQT84OB8XUL8MXO7O89CCN", "dateTime": 1516557252981}, {"current_trial": 27, "trialdata": {"rt": -1, "trial_type": "single-stim", "word": "princess", "stimulus": "<p id=\"stim\">PRINCESS</p>", "conditions": [18, 1200, "v", 18000], "internal_node_id": "0.0-18.0", "trial": 0, "time_elapsed": 435813, "serialpos": 6, "key_press": -1, "wordID": 1124, "type": "PRES_VIS", "trial_index": 27}, "uniqueid": "MTK1906:33ISQZVXPQT84OB8XUL8MXO7O89CCN", "dateTime": 1516557255231}, {"current_trial": 28, "trialdata": {"rt": -1, "trial_type": "single-stim", "word": "grape", "stimulus": "<p id=\"stim\">GRAPE</p>", "conditions": [18, 1200, "v", 18000], "internal_node_id": "0.0-19.0", "trial": 0, "time_elapsed": 438176, "serialpos": 7, "key_press": -1, "wordID": 653, "type": "PRES_VIS", "trial_index": 28}, "uniqueid": "MTK1906:33ISQZVXPQT84OB8XUL8MXO7O89CCN", "dateTime": 1516557257595}, {"current_trial": 29, "trialdata": {"rt": -1, "trial_type": "single-stim", "word": "crayon", "stimulus": "<p id=\"stim\">CRAYON</p>", "conditions": [18, 1200, "v", 18000], "internal_node_id": "0.0-20.0", "trial": 0, "time_elapsed": 440233, "serialpos": 8, "key_press": -1, "wordID": 400, "type": "PRES_VIS", "trial_index": 29}, "uniqueid": "MTK1906:33ISQZVXPQT84OB8XUL8MXO7O89CCN", "dateTime": 1516557259651}, {"current_trial": 30, "trialdata": {"rt": -1, "trial_type": "single-stim", "word": "dashboard", "stimulus": "<p id=\"stim\">DASHBOARD</p>", "conditions": [18, 1200, "v", 18000], "internal_node_id": "0.0-21.0", "trial": 0, "time_elapsed": 442528, "serialpos": 9, "key_press": -1, "wordID": 440, "type": "PRES_VIS", "trial_index": 30}, "uniqueid": "MTK1906:33ISQZVXPQT84OB8XUL8MXO7O89CCN", "dateTime": 1516557261946}, {"current_trial": 31, "trialdata": {"rt": -1, "trial_type": "single-stim", "word": "poison", "stimulus": "<p id=\"stim\">POISON</p>", "conditions": [18, 1200, "v", 18000], "internal_node_id": "0.0-22.0", "trial": 0, "time_elapsed": 444817, "serialpos": 10, "key_press": -1, "wordID": 1095, "type": "PRES_VIS", "trial_index": 31}, "uniqueid": "MTK1906:33ISQZVXPQT84OB8XUL8MXO7O89CCN", "dateTime": 1516557264235}, {"current_trial": 32, "trialdata": {"rt": -1, "trial_type": "single-stim", "word": "blueprint", "stimulus": "<p id=\"stim\">BLUEPRINT</p>", "conditions": [18, 1200, "v", 18000], "internal_node_id": "0.0-23.0", "trial": 0, "time_elapsed": 446871, "serialpos": 11, "key_press": -1, "wordID": 141, "type": "PRES_VIS", "trial_index": 32}, "uniqueid": "MTK1906:33ISQZVXPQT84OB8XUL8MXO7O89CCN", "dateTime": 1516557266289}, {"current_trial": 33, "trialdata": {"rt": -1, "trial_type": "single-stim", "word": "cabin", "stimulus": "<p id=\"stim\">CABIN</p>", "conditions": [18, 1200, "v", 18000], "internal_node_id": "0.0-24.0", "trial": 0, "time_elapsed": 449194, "serialpos": 12, "key_press": -1, "wordID": 210, "type": "PRES_VIS", "trial_index": 33}, "uniqueid": "MTK1906:33ISQZVXPQT84OB8XUL8MXO7O89CCN", "dateTime": 1516557268613}, {"current_trial": 34, "trialdata": {"rt": -1, "trial_type": "single-stim", "word": "jello", "stimulus": "<p id=\"stim\">JELLO</p>", "conditions": [18, 1200, "v", 18000], "internal_node_id": "0.0-25.0", "trial": 0, "time_elapsed": 451269, "serialpos": 13, "key_press": -1, "wordID": 753, "type": "PRES_VIS", "trial_index": 34}, "uniqueid": "MTK1906:33ISQZVXPQT84OB8XUL8MXO7O89CCN", "dateTime": 1516557270687}, {"current_trial": 35, "trialdata": {"rt": -1, "trial_type": "single-stim", "word": "wife", "stimulus": "<p id=\"stim\">WIFE</p>", "conditions": [18, 1200, "v", 18000], "internal_node_id": "0.0-26.0", "trial": 0, "time_elapsed": 453595, "serialpos": 14, "key_press": -1, "wordID": 1608, "type": "PRES_VIS", "trial_index": 35}, "uniqueid": "MTK1906:33ISQZVXPQT84OB8XUL8MXO7O89CCN", "dateTime": 1516557273013}, {"current_trial": 36, "trialdata": {"rt": -1, "trial_type": "single-stim", "word": "salmon", "stimulus": "<p id=\"stim\">SALMON</p>", "conditions": [18, 1200, "v", 18000], "internal_node_id": "0.0-27.0", "trial": 0, "time_elapsed": 455672, "serialpos": 15, "key_press": -1, "wordID": 1226, "type": "PRES_VIS", "trial_index": 36}, "uniqueid": "MTK1906:33ISQZVXPQT84OB8XUL8MXO7O89CCN", "dateTime": 1516557275090}, {"current_trial": 37, "trialdata": {"rt": -1, "trial_type": "single-stim", "word": "item", "stimulus": "<p id=\"stim\">ITEM</p>", "conditions": [18, 1200, "v", 18000], "internal_node_id": "0.0-28.0", "trial": 0, "time_elapsed": 457906, "serialpos": 16, "key_press": -1, "wordID": 745, "type": "PRES_VIS", "trial_index": 37}, "uniqueid": "MTK1906:33ISQZVXPQT84OB8XUL8MXO7O89CCN", "dateTime": 1516557277324}, {"current_trial": 38, "trialdata": {"rt": -1, "trial_type": "single-stim", "word": "cigar", "stimulus": "<p id=\"stim\">CIGAR</p>", "conditions": [18, 1200, "v", 18000], "internal_node_id": "0.0-29.0", "trial": 0, "time_elapsed": 460059, "serialpos": 17, "key_press": -1, "wordID": 307, "type": "PRES_VIS", "trial_index": 38}, "uniqueid": "MTK1906:33ISQZVXPQT84OB8XUL8MXO7O89CCN", "dateTime": 1516557279477}, {"current_trial": 39, "trialdata": {"rt": -1, "trial_type": "single-stim", "stimulus": "", "internal_node_id": "0.0-30.0-0.0", "time_elapsed": 462267, "key_press": -1, "type": "PRE_RECALL_DELAY", "trial_index": 39}, "uniqueid": "MTK1906:33ISQZVXPQT84OB8XUL8MXO7O89CCN", "dateTime": 1516557281685}, {"current_trial": 40, "trialdata": {"rt": -1000, "trial_type": "single-audio", "stimulus": "/static/audio/400Hz.wav", "internal_node_id": "0.0-31.0", "time_elapsed": 462870, "key_press": -1, "type": "PRE_RECALL_ALERT", "trial_index": 40}, "uniqueid": "MTK1906:33ISQZVXPQT84OB8XUL8MXO7O89CCN", "dateTime": 1516557282288}, {"current_trial": 41, "trialdata": {"rt": [3396, 5451, 9577, 12084, 17318, 26378, 47389], "recwords": ["cigar", "marine", "dashboard", "chauffer", "princess", "kitchen", ""], "key_times": [1713, 1929, 2115, 2348, 2421, 3396, 4563, 4713, 4804, 4949, 5096, 5244, 5451, 6997, 7151, 7261, 7444, 7764, 8018, 9061, 9189, 9380, 9577, 10803, 10947, 11108, 11313, 11480, 11610, 11839, 11903, 12084, 15663, 15787, 15979, 16216, 16612, 16767, 16963, 17123, 17318, 25032, 25247, 25532, 25790, 25946, 26021, 26151, 26378, 47389], "trial_type": "free-recall", "conditions": [18, 1200, "v", 18000], "internal_node_id": "0.0-32.0-0.0", "key_presses": [67, 73, 71, 65, 82, 13, 77, 65, 82, 73, 78, 69, 13, 68, 65, 83, 72, 66, 79, 65, 82, 68, 13, 67, 72, 65, 85, 70, 70, 69, 82, 13, 80, 82, 73, 78, 67, 69, 83, 83, 13, 75, 73, 84, 67, 72, 69, 78, 13, 13], "trial": 0, "time_elapsed": 522874, "type": "FREE_RECALL", "trial_index": 41}, "uniqueid": "MTK1906:33ISQZVXPQT84OB8XUL8MXO7O89CCN", "dateTime": 1516557342296}, {"current_trial": 42, "trialdata": {"rt": 10870, "trial_type": "text", "internal_node_id": "0.0-33.0", "time_elapsed": 535751, "key_press": 13, "type": "INSTRUCTIONS", "trial_index": 42}, "uniqueid": "MTK1906:33ISQZVXPQT84OB8XUL8MXO7O89CCN", "dateTime": 1516557355169}, {"current_trial": 43, "trialdata": {"rt": [2493, 7033, 9219, 13332, 15742], "trial_type": "math-distractor", "key_times": [2185, 2493, 6616, 6810, 7033, 8747, 8941, 9219, 12933, 13127, 13332, 15438, 15742], "responses": ["5", "25", "15", "14", "9"], "num2": [1, 8, 5, 4, 5, 4], "num3": [1, 9, 6, 8, 2, 5], "conditions": [18, 1200, "v", 18000], "internal_node_id": "0.0-34.0", "key_presses": [101, 13, 98, 101, 13, 97, 101, 13, 97, 100, 13, 105, 13], "trial": 1, "time_elapsed": 555754, "type": "DISTRACTOR", "trial_index": 43, "num1": [3, 8, 4, 2, 2, 9]}, "uniqueid": "MTK1906:33ISQZVXPQT84OB8XUL8MXO7O89CCN", "dateTime": 1516557375173}, {"current_trial": 44, "trialdata": {"rt": -1, "trial_type": "single-stim", "stimulus": "<p id=\"stim\">10</p>", "internal_node_id": "0.0-35.0-0.0", "time_elapsed": 558757, "key_press": -1, "trial_index": 44}, "uniqueid": "MTK1906:33ISQZVXPQT84OB8XUL8MXO7O89CCN", "dateTime": 1516557378175}, {"current_trial": 45, "trialdata": {"rt": -1, "trial_type": "single-stim", "stimulus": "<p id=\"stim\">9</p>", "internal_node_id": "0.0-35.0-1.0", "time_elapsed": 559758, "key_press": -1, "trial_index": 45}, "uniqueid": "MTK1906:33ISQZVXPQT84OB8XUL8MXO7O89CCN", "dateTime": 1516557379176}, {"current_trial": 46, "trialdata": {"rt": -1, "trial_type": "single-stim", "stimulus": "<p id=\"stim\">8</p>", "internal_node_id": "0.0-35.0-2.0", "time_elapsed": 560760, "key_press": -1, "trial_index": 46}, "uniqueid": "MTK1906:33ISQZVXPQT84OB8XUL8MXO7O89CCN", "dateTime": 1516557380178}, {"current_trial": 47, "trialdata": {"rt": -1, "trial_type": "single-stim", "stimulus": "<p id=\"stim\">7</p>", "internal_node_id": "0.0-35.0-3.0", "time_elapsed": 561761, "key_press": -1, "trial_index": 47}, "uniqueid": "MTK1906:33ISQZVXPQT84OB8XUL8MXO7O89CCN", "dateTime": 1516557381179}, {"current_trial": 48, "trialdata": {"rt": -1, "trial_type": "single-stim", "stimulus": "<p id=\"stim\">6</p>", "internal_node_id": "0.0-35.0-4.0", "time_elapsed": 562762, "key_press": -1, "trial_index": 48}, "uniqueid": "MTK1906:33ISQZVXPQT84OB8XUL8MXO7O89CCN", "dateTime": 1516557382180}, {"current_trial": 49, "trialdata": {"rt": -1, "trial_type": "single-stim", "stimulus": "<p id=\"stim\">5</p>", "internal_node_id": "0.0-35.0-5.0", "time_elapsed": 563764, "key_press": -1, "trial_index": 49}, "uniqueid": "MTK1906:33ISQZVXPQT84OB8XUL8MXO7O89CCN", "dateTime": 1516557383182}, {"current_trial": 50, "trialdata": {"rt": -1, "trial_type": "single-stim", "stimulus": "<p id=\"stim\">4</p>", "internal_node_id": "0.0-35.0-6.0", "time_elapsed": 564765, "key_press": -1, "trial_index": 50}, "uniqueid": "MTK1906:33ISQZVXPQT84OB8XUL8MXO7O89CCN", "dateTime": 1516557384183}, {"current_trial": 51, "trialdata": {"rt": -1, "trial_type": "single-stim", "stimulus": "<p id=\"stim\">3</p>", "internal_node_id": "0.0-35.0-7.0", "time_elapsed": 565766, "key_press": -1, "trial_index": 51}, "uniqueid": "MTK1906:33ISQZVXPQT84OB8XUL8MXO7O89CCN", "dateTime": 1516557385184}, {"current_trial": 52, "trialdata": {"rt": -1, "trial_type": "single-stim", "stimulus": "<p id=\"stim\">2</p>", "internal_node_id": "0.0-35.0-8.0", "time_elapsed": 566767, "key_press": -1, "trial_index": 52}, "uniqueid": "MTK1906:33ISQZVXPQT84OB8XUL8MXO7O89CCN", "dateTime": 1516557386185}, {"current_trial": 53, "trialdata": {"rt": -1, "trial_type": "single-stim", "stimulus": "<p id=\"stim\">1</p>", "internal_node_id": "0.0-35.0-9.0", "time_elapsed": 567768, "key_press": -1, "trial_index": 53}, "uniqueid": "MTK1906:33ISQZVXPQT84OB8XUL8MXO7O89CCN", "dateTime": 1516557387186}, {"current_trial": 54, "trialdata": {"rt": -1, "trial_type": "single-stim", "stimulus": "<p id=\"stim\">+</p>", "internal_node_id": "0.0-36.0-0.0", "time_elapsed": 569269, "key_press": -1, "type": "FIXATION", "trial_index": 54}, "uniqueid": "MTK1906:33ISQZVXPQT84OB8XUL8MXO7O89CCN", "dateTime": 1516557388688}, {"current_trial": 55, "trialdata": {"rt": -1, "trial_type": "single-stim", "word": "mop", "stimulus": "<p id=\"stim\">MOP</p>", "conditions": [18, 1200, "v", 18000], "internal_node_id": "0.0-37.0", "trial": 1, "time_elapsed": 570470, "serialpos": 0, "key_press": -1, "wordID": 915, "type": "PRES_VIS", "trial_index": 55}, "uniqueid": "MTK1906:33ISQZVXPQT84OB8XUL8MXO7O89CCN", "dateTime": 1516557389888}, {"current_trial": 56, "trialdata": {"rt": -1, "trial_type": "single-stim", "word": "slime", "stimulus": "<p id=\"stim\">SLIME</p>", "conditions": [18, 1200, "v", 18000], "internal_node_id": "0.0-38.0", "trial": 1, "time_elapsed": 572858, "serialpos": 1, "key_press": -1, "wordID": 1326, "type": "PRES_VIS", "trial_index": 56}, "uniqueid": "MTK1906:33ISQZVXPQT84OB8XUL8MXO7O89CCN", "dateTime": 1516557392276}, {"current_trial": 57, "trialdata": {"rt": -1, "trial_type": "single-stim", "word": "dust", "stimulus": "<p id=\"stim\">DUST</p>", "conditions": [18, 1200, "v", 18000], "internal_node_id": "0.0-39.0", "trial": 1, "time_elapsed": 575064, "serialpos": 2, "key_press": -1, "wordID": 507, "type": "PRES_VIS", "trial_index": 57}, "uniqueid": "MTK1906:33ISQZVXPQT84OB8XUL8MXO7O89CCN", "dateTime": 1516557394482}, {"current_trial": 58, "trialdata": {"rt": -1, "trial_type": "single-stim", "word": "basement", "stimulus": "<p id=\"stim\">BASEMENT</p>", "conditions": [18, 1200, "v", 18000], "internal_node_id": "0.0-40.0", "trial": 1, "time_elapsed": 577109, "serialpos": 3, "key_press": -1, "wordID": 93, "type": "PRES_VIS", "trial_index": 58}, "uniqueid": "MTK1906:33ISQZVXPQT84OB8XUL8MXO7O89CCN", "dateTime": 1516557396527}, {"current_trial": 59, "trialdata": {"rt": -1, "trial_type": "single-stim", "word": "airport", "stimulus": "<p id=\"stim\">AIRPORT</p>", "conditions": [18, 1200, "v", 18000], "internal_node_id": "0.0-41.0", "trial": 1, "time_elapsed": 579459, "serialpos": 4, "key_press": -1, "wordID": 12, "type": "PRES_VIS", "trial_index": 59}, "uniqueid": "MTK1906:33ISQZVXPQT84OB8XUL8MXO7O89CCN", "dateTime": 1516557398877}, {"current_trial": 60, "trialdata": {"rt": -1, "trial_type": "single-stim", "word": "curtain", "stimulus": "<p id=\"stim\">CURTAIN</p>", "conditions": [18, 1200, "v", 18000], "internal_node_id": "0.0-42.0", "trial": 1, "time_elapsed": 581501, "serialpos": 5, "key_press": -1, "wordID": 426, "type": "PRES_VIS", "trial_index": 60}, "uniqueid": "MTK1906:33ISQZVXPQT84OB8XUL8MXO7O89CCN", "dateTime": 1516557400920}, {"current_trial": 61, "trialdata": {"rt": -1, "trial_type": "single-stim", "word": "sunrise", "stimulus": "<p id=\"stim\">SUNRISE</p>", "conditions": [18, 1200, "v", 18000], "internal_node_id": "0.0-43.0", "trial": 1, "time_elapsed": 583640, "serialpos": 6, "key_press": -1, "wordID": 1406, "type": "PRES_VIS", "trial_index": 61}, "uniqueid": "MTK1906:33ISQZVXPQT84OB8XUL8MXO7O89CCN", "dateTime": 1516557403058}, {"current_trial": 62, "trialdata": {"rt": -1, "trial_type": "single-stim", "word": "space", "stimulus": "<p id=\"stim\">SPACE</p>", "conditions": [18, 1200, "v", 18000], "internal_node_id": "0.0-44.0", "trial": 1, "time_elapsed": 585938, "serialpos": 7, "key_press": -1, "wordID": 1344, "type": "PRES_VIS", "trial_index": 62}, "uniqueid": "MTK1906:33ISQZVXPQT84OB8XUL8MXO7O89CCN", "dateTime": 1516557405356}, {"current_trial": 63, "trialdata": {"rt": -1, "trial_type": "single-stim", "word": "twig", "stimulus": "<p id=\"stim\">TWIG</p>", "conditions": [18, 1200, "v", 18000], "internal_node_id": "0.0-45.0", "trial": 1, "time_elapsed": 588053, "serialpos": 8, "key_press": -1, "wordID": 1526, "type": "PRES_VIS", "trial_index": 63}, "uniqueid": "MTK1906:33ISQZVXPQT84OB8XUL8MXO7O89CCN", "dateTime": 1516557407471}, {"current_trial": 64, "trialdata": {"rt": -1, "trial_type": "single-stim", "word": "glass", "stimulus": "<p id=\"stim\">GLASS</p>", "conditions": [18, 1200, "v", 18000], "internal_node_id": "0.0-46.0", "trial": 1, "time_elapsed": 590297, "serialpos": 9, "key_press": -1, "wordID": 638, "type": "PRES_VIS", "trial_index": 64}, "uniqueid": "MTK1906:33ISQZVXPQT84OB8XUL8MXO7O89CCN", "dateTime": 1516557409715}, {"current_trial": 65, "trialdata": {"rt": -1, "trial_type": "single-stim", "word": "chemist", "stimulus": "<p id=\"stim\">CHEMIST</p>", "conditions": [18, 1200, "v", 18000], "internal_node_id": "0.0-47.0", "trial": 1, "time_elapsed": 592632, "serialpos": 10, "key_press": -1, "wordID": 291, "type": "PRES_VIS", "trial_index": 65}, "uniqueid": "MTK1906:33ISQZVXPQT84OB8XUL8MXO7O89CCN", "dateTime": 1516557412050}, {"current_trial": 66, "trialdata": {"rt": -1, "trial_type": "single-stim", "word": "woman", "stimulus": "<p id=\"stim\">WOMAN</p>", "conditions": [18, 1200, "v", 18000], "internal_node_id": "0.0-48.0", "trial": 1, "time_elapsed": 594664, "serialpos": 11, "key_press": -1, "wordID": 1619, "type": "PRES_VIS", "trial_index": 66}, "uniqueid": "MTK1906:33ISQZVXPQT84OB8XUL8MXO7O89CCN", "dateTime": 1516557414082}, {"current_trial": 67, "trialdata": {"rt": -1, "trial_type": "single-stim", "word": "razor", "stimulus": "<p id=\"stim\">RAZOR</p>", "conditions": [18, 1200, "v", 18000], "internal_node_id": "0.0-49.0", "trial": 1, "time_elapsed": 596845, "serialpos": 12, "key_press": -1, "wordID": 1170, "type": "PRES_VIS", "trial_index": 67}, "uniqueid": "MTK1906:33ISQZVXPQT84OB8XUL8MXO7O89CCN", "dateTime": 1516557416263}, {"current_trial": 68, "trialdata": {"rt": -1, "trial_type": "single-stim", "word": "atom", "stimulus": "<p id=\"stim\">ATOM</p>", "conditions": [18, 1200, "v", 18000], "internal_node_id": "0.0-50.0", "trial": 1, "time_elapsed": 598896, "serialpos": 13, "key_press": -1, "wordID": 54, "type": "PRES_VIS", "trial_index": 68}, "uniqueid": "MTK1906:33ISQZVXPQT84OB8XUL8MXO7O89CCN", "dateTime": 1516557418314}, {"current_trial": 69, "trialdata": {"rt": -1, "trial_type": "single-stim", "word": "window", "stimulus": "<p id=\"stim\">WINDOW</p>", "conditions": [18, 1200, "v", 18000], "internal_node_id": "0.0-51.0", "trial": 1, "time_elapsed": 601197, "serialpos": 14, "key_press": -1, "wordID": 1610, "type": "PRES_VIS", "trial_index": 69}, "uniqueid": "MTK1906:33ISQZVXPQT84OB8XUL8MXO7O89CCN", "dateTime": 1516557420615}, {"current_trial": 70, "trialdata": {"rt": -1, "trial_type": "single-stim", "word": "outfit", "stimulus": "<p id=\"stim\">OUTFIT</p>", "conditions": [18, 1200, "v", 18000], "internal_node_id": "0.0-52.0", "trial": 1, "time_elapsed": 603581, "serialpos": 15, "key_press": -1, "wordID": 987, "type": "PRES_VIS", "trial_index": 70}, "uniqueid": "MTK1906:33ISQZVXPQT84OB8XUL8MXO7O89CCN", "dateTime": 1516557422999}, {"current_trial": 71, "trialdata": {"rt": -1, "trial_type": "single-stim", "word": "finger", "stimulus": "<p id=\"stim\">FINGER</p>", "conditions": [18, 1200, "v", 18000], "internal_node_id": "0.0-53.0", "trial": 1, "time_elapsed": 605688, "serialpos": 16, "key_press": -1, "wordID": 566, "type": "PRES_VIS", "trial_index": 71}, "uniqueid": "MTK1906:33ISQZVXPQT84OB8XUL8MXO7O89CCN", "dateTime": 1516557425106}, {"current_trial": 72, "trialdata": {"rt": -1, "trial_type": "single-stim", "word": "motor", "stimulus": "<p id=\"stim\">MOTOR</p>", "conditions": [18, 1200, "v", 18000], "internal_node_id": "0.0-54.0", "trial": 1, "time_elapsed": 608087, "serialpos": 17, "key_press": -1, "wordID": 921, "type": "PRES_VIS", "trial_index": 72}, "uniqueid": "MTK1906:33ISQZVXPQT84OB8XUL8MXO7O89CCN", "dateTime": 1516557427505}, {"current_trial": 73, "trialdata": {"rt": -1, "trial_type": "single-stim", "stimulus": "", "internal_node_id": "0.0-55.0-0.0", "time_elapsed": 610269, "key_press": -1, "type": "PRE_RECALL_DELAY", "trial_index": 73}, "uniqueid": "MTK1906:33ISQZVXPQT84OB8XUL8MXO7O89CCN", "dateTime": 1516557429687}, {"current_trial": 74, "trialdata": {"rt": -1000, "trial_type": "single-audio", "stimulus": "/static/audio/400Hz.wav", "internal_node_id": "0.0-56.0", "time_elapsed": 610771, "key_press": -1, "type": "PRE_RECALL_ALERT", "trial_index": 74}, "uniqueid": "MTK1906:33ISQZVXPQT84OB8XUL8MXO7O89CCN", "dateTime": 1516557430189}, {"current_trial": 75, "trialdata": {"rt": [4989, 8767, 12489, 17303, 20514, 23019, 24830, 31900, 35726, 43373], "recwords": ["dust", "sunrise", "outfit", "finger", "woman", "slime", "mop", "outfit", "razor", "basement"], "key_times": [2618, 2781, 3148, 3435, 4989, 7006, 7183, 7459, 7698, 7913, 8190, 8400, 8767, 10618, 10914, 11093, 11534, 11698, 11856, 12489, 16206, 16390, 16555, 16710, 16938, 17019, 17303, 19063, 19354, 19550, 19780, 19875, 20514, 21703, 21931, 22159, 22377, 22561, 23019, 23972, 24312, 24530, 24830, 30183, 30461, 30627, 31387, 31544, 31734, 31900, 33810, 34772, 35048, 35288, 35404, 35726, 41406, 41647, 42076, 42283, 42739, 42882, 43007, 43141, 43373], "trial_type": "free-recall", "conditions": [18, 1200, "v", 18000], "internal_node_id": "0.0-57.0-0.0", "key_presses": [68, 85, 83, 84, 13, 83, 85, 78, 82, 73, 83, 69, 13, 79, 85, 84, 70, 73, 84, 13, 70, 73, 78, 71, 69, 82, 13, 87, 79, 77, 65, 78, 13, 83, 76, 73, 77, 69, 13, 77, 79, 80, 13, 79, 85, 84, 70, 73, 84, 13, 82, 65, 90, 79, 82, 13, 66, 65, 83, 69, 77, 69, 78, 84, 13], "trial": 1, "time_elapsed": 670776, "type": "FREE_RECALL", "trial_index": 75}, "uniqueid": "MTK1906:33ISQZVXPQT84OB8XUL8MXO7O89CCN", "dateTime": 1516557490197}, {"current_trial": 76, "trialdata": {"rt": 30801, "trial_type": "text", "internal_node_id": "0.0-58.0", "time_elapsed": 703582, "key_press": 16, "type": "INSTRUCTIONS", "trial_index": 76}, "uniqueid": "MTK1906:33ISQZVXPQT84OB8XUL8MXO7O89CCN", "dateTime": 1516557523000}, {"current_trial": 77, "trialdata": {"rt": [3439, 5341, 9012], "trial_type": "math-distractor", "key_times": [2902, 3119, 3439, 4976, 5166, 5341, 8617, 8833, 9012, 11526], "responses": ["19", "14", "19"], "num2": [6, 6, 4, 6], "num3": [8, 2, 8, 6], "conditions": [24, 1600, "v", 12000], "internal_node_id": "0.0-59.0", "key_presses": [97, 105, 13, 97, 100, 13, 97, 105, 13, 97], "trial": 2, "time_elapsed": 716585, "type": "DISTRACTOR", "trial_index": 77, "num1": [5, 6, 7, 3]}, "uniqueid": "MTK1906:33ISQZVXPQT84OB8XUL8MXO7O89CCN", "dateTime": 1516557536003}, {"current_trial": 78, "trialdata": {"rt": -1, "trial_type": "single-stim", "stimulus": "<p id=\"stim\">10</p>", "internal_node_id": "0.0-60.0-0.0", "time_elapsed": 719587, "key_press": -1, "trial_index": 78}, "uniqueid": "MTK1906:33ISQZVXPQT84OB8XUL8MXO7O89CCN", "dateTime": 1516557539005}, {"current_trial": 79, "trialdata": {"rt": -1, "trial_type": "single-stim", "stimulus": "<p id=\"stim\">9</p>", "internal_node_id": "0.0-60.0-1.0", "time_elapsed": 720588, "key_press": -1, "trial_index": 79}, "uniqueid": "MTK1906:33ISQZVXPQT84OB8XUL8MXO7O89CCN", "dateTime": 1516557540006}, {"current_trial": 80, "trialdata": {"rt": -1, "trial_type": "single-stim", "stimulus": "<p id=\"stim\">8</p>", "internal_node_id": "0.0-60.0-2.0", "time_elapsed": 721590, "key_press": -1, "trial_index": 80}, "uniqueid": "MTK1906:33ISQZVXPQT84OB8XUL8MXO7O89CCN", "dateTime": 1516557541008}, {"current_trial": 81, "trialdata": {"rt": -1, "trial_type": "single-stim", "stimulus": "<p id=\"stim\">7</p>", "internal_node_id": "0.0-60.0-3.0", "time_elapsed": 722591, "key_press": -1, "trial_index": 81}, "uniqueid": "MTK1906:33ISQZVXPQT84OB8XUL8MXO7O89CCN", "dateTime": 1516557542009}, {"current_trial": 82, "trialdata": {"rt": -1, "trial_type": "single-stim", "stimulus": "<p id=\"stim\">6</p>", "internal_node_id": "0.0-60.0-4.0", "time_elapsed": 723592, "key_press": -1, "trial_index": 82}, "uniqueid": "MTK1906:33ISQZVXPQT84OB8XUL8MXO7O89CCN", "dateTime": 1516557543010}, {"current_trial": 83, "trialdata": {"rt": -1, "trial_type": "single-stim", "stimulus": "<p id=\"stim\">5</p>", "internal_node_id": "0.0-60.0-5.0", "time_elapsed": 724592, "key_press": -1, "trial_index": 83}, "uniqueid": "MTK1906:33ISQZVXPQT84OB8XUL8MXO7O89CCN", "dateTime": 1516557544011}, {"current_trial": 84, "trialdata": {"rt": -1, "trial_type": "single-stim", "stimulus": "<p id=\"stim\">4</p>", "internal_node_id": "0.0-60.0-6.0", "time_elapsed": 725596, "key_press": -1, "trial_index": 84}, "uniqueid": "MTK1906:33ISQZVXPQT84OB8XUL8MXO7O89CCN", "dateTime": 1516557545014}, {"current_trial": 85, "trialdata": {"rt": -1, "trial_type": "single-stim", "stimulus": "<p id=\"stim\">3</p>", "internal_node_id": "0.0-60.0-7.0", "time_elapsed": 726599, "key_press": -1, "trial_index": 85}, "uniqueid": "MTK1906:33ISQZVXPQT84OB8XUL8MXO7O89CCN", "dateTime": 1516557546017}, {"current_trial": 86, "trialdata": {"rt": -1, "trial_type": "single-stim", "stimulus": "<p id=\"stim\">2</p>", "internal_node_id": "0.0-60.0-8.0", "time_elapsed": 727601, "key_press": -1, "trial_index": 86}, "uniqueid": "MTK1906:33ISQZVXPQT84OB8XUL8MXO7O89CCN", "dateTime": 1516557547019}, {"current_trial": 87, "trialdata": {"rt": -1, "trial_type": "single-stim", "stimulus": "<p id=\"stim\">1</p>", "internal_node_id": "0.0-60.0-9.0", "time_elapsed": 728602, "key_press": -1, "trial_index": 87}, "uniqueid": "MTK1906:33ISQZVXPQT84OB8XUL8MXO7O89CCN", "dateTime": 1516557548020}, {"current_trial": 88, "trialdata": {"rt": -1, "trial_type": "single-stim", "stimulus": "<p id=\"stim\">+</p>", "internal_node_id": "0.0-61.0-0.0", "time_elapsed": 730103, "key_press": -1, "type": "FIXATION", "trial_index": 88}, "uniqueid": "MTK1906:33ISQZVXPQT84OB8XUL8MXO7O89CCN", "dateTime": 1516557549521}, {"current_trial": 89, "trialdata": {"rt": -1, "trial_type": "single-stim", "word": "tractor", "stimulus": "<p id=\"stim\">TRACTOR</p>", "conditions": [24, 1600, "v", 12000], "internal_node_id": "0.0-62.0", "trial": 2, "time_elapsed": 731704, "serialpos": 0, "key_press": -1, "wordID": 1492, "type": "PRES_VIS", "trial_index": 89}, "uniqueid": "MTK1906:33ISQZVXPQT84OB8XUL8MXO7O89CCN", "dateTime": 1516557551122}, {"current_trial": 90, "trialdata": {"rt": -1, "trial_type": "single-stim", "word": "summit", "stimulus": "<p id=\"stim\">SUMMIT</p>", "conditions": [24, 1600, "v", 12000], "internal_node_id": "0.0-63.0", "trial": 2, "time_elapsed": 734302, "serialpos": 1, "key_press": -1, "wordID": 1404, "type": "PRES_VIS", "trial_index": 90}, "uniqueid": "MTK1906:33ISQZVXPQT84OB8XUL8MXO7O89CCN", "dateTime": 1516557553720}, {"current_trial": 91, "trialdata": {"rt": -1, "trial_type": "single-stim", "word": "arm", "stimulus": "<p id=\"stim\">ARM</p>", "conditions": [24, 1600, "v", 12000], "internal_node_id": "0.0-64.0", "trial": 2, "time_elapsed": 737097, "serialpos": 2, "key_press": -1, "wordID": 37, "type": "PRES_VIS", "trial_index": 91}, "uniqueid": "MTK1906:33ISQZVXPQT84OB8XUL8MXO7O89CCN", "dateTime": 1516557556515}, {"current_trial": 92, "trialdata": {"rt": -1, "trial_type": "single-stim", "word": "toaster", "stimulus": "<p id=\"stim\">TOASTER</p>", "conditions": [24, 1600, "v", 12000], "internal_node_id": "0.0-65.0", "trial": 2, "time_elapsed": 739828, "serialpos": 3, "key_press": -1, "wordID": 1471, "type": "PRES_VIS", "trial_index": 92}, "uniqueid": "MTK1906:33ISQZVXPQT84OB8XUL8MXO7O89CCN", "dateTime": 1516557559246}, {"current_trial": 93, "trialdata": {"rt": -1, "trial_type": "single-stim", "word": "gift", "stimulus": "<p id=\"stim\">GIFT</p>", "conditions": [24, 1600, "v", 12000], "internal_node_id": "0.0-66.0", "trial": 2, "time_elapsed": 742332, "serialpos": 4, "key_press": -1, "wordID": 634, "type": "PRES_VIS", "trial_index": 93}, "uniqueid": "MTK1906:33ISQZVXPQT84OB8XUL8MXO7O89CCN", "dateTime": 1516557561750}, {"current_trial": 94, "trialdata": {"rt": -1, "trial_type": "single-stim", "word": "film", "stimulus": "<p id=\"stim\">FILM</p>", "conditions": [24, 1600, "v", 12000], "internal_node_id": "0.0-67.0", "trial": 2, "time_elapsed": 745072, "serialpos": 5, "key_press": -1, "wordID": 564, "type": "PRES_VIS", "trial_index": 94}, "uniqueid": "MTK1906:33ISQZVXPQT84OB8XUL8MXO7O89CCN", "dateTime": 1516557564490}, {"current_trial": 95, "trialdata": {"rt": -1, "trial_type": "single-stim", "word": "egypt", "stimulus": "<p id=\"stim\">EGYPT</p>", "conditions": [24, 1600, "v", 12000], "internal_node_id": "0.0-68.0", "trial": 2, "time_elapsed": 747803, "serialpos": 6, "key_press": -1, "wordID": 518, "type": "PRES_VIS", "trial_index": 95}, "uniqueid": "MTK1906:33ISQZVXPQT84OB8XUL8MXO7O89CCN", "dateTime": 1516557567221}, {"current_trial": 96, "trialdata": {"rt": -1, "trial_type": "single-stim", "word": "europe", "stimulus": "<p id=\"stim\">EUROPE</p>", "conditions": [24, 1600, "v", 12000], "internal_node_id": "0.0-69.0", "trial": 2, "time_elapsed": 750258, "serialpos": 7, "key_press": -1, "wordID": 540, "type": "PRES_VIS", "trial_index": 96}, "uniqueid": "MTK1906:33ISQZVXPQT84OB8XUL8MXO7O89CCN", "dateTime": 1516557569676}, {"current_trial": 97, "trialdata": {"rt": -1, "trial_type": "single-stim", "word": "cupboard", "stimulus": "<p id=\"stim\">CUPBOARD</p>", "conditions": [24, 1600, "v", 12000], "internal_node_id": "0.0-70.0", "trial": 2, "time_elapsed": 752940, "serialpos": 8, "key_press": -1, "wordID": 424, "type": "PRES_VIS", "trial_index": 97}, "uniqueid": "MTK1906:33ISQZVXPQT84OB8XUL8MXO7O89CCN", "dateTime": 1516557572359}, {"current_trial": 98, "trialdata": {"rt": -1, "trial_type": "single-stim", "word": "dancer", "stimulus": "<p id=\"stim\">DANCER</p>", "conditions": [24, 1600, "v", 12000], "internal_node_id": "0.0-71.0", "trial": 2, "time_elapsed": 755522, "serialpos": 9, "key_press": -1, "wordID": 436, "type": "PRES_VIS", "trial_index": 98}, "uniqueid": "MTK1906:33ISQZVXPQT84OB8XUL8MXO7O89CCN", "dateTime": 1516557574940}, {"current_trial": 99, "trialdata": {"rt": -1, "trial_type": "single-stim", "word": "ghetto", "stimulus": "<p id=\"stim\">GHETTO</p>", "conditions": [24, 1600, "v", 12000], "internal_node_id": "0.0-72.0", "trial": 2, "time_elapsed": 758023, "serialpos": 10, "key_press": -1, "wordID": 632, "type": "PRES_VIS", "trial_index": 99}, "uniqueid": "MTK1906:33ISQZVXPQT84OB8XUL8MXO7O89CCN", "dateTime": 1516557577441}, {"current_trial": 100, "trialdata": {"rt": -1, "trial_type": "single-stim", "word": "dresser", "stimulus": "<p id=\"stim\">DRESSER</p>", "conditions": [24, 1600, "v", 12000], "internal_node_id": "0.0-73.0", "trial": 2, "time_elapsed": 760570, "serialpos": 11, "key_press": -1, "wordID": 495, "type": "PRES_VIS", "trial_index": 100}, "uniqueid": "MTK1906:33ISQZVXPQT84OB8XUL8MXO7O89CCN", "dateTime": 1516557579988}, {"current_trial": 101, "trialdata": {"rt": -1, "trial_type": "single-stim", "word": "butcher", "stimulus": "<p id=\"stim\">BUTCHER</p>", "conditions": [24, 1600, "v", 12000], "internal_node_id": "0.0-74.0", "trial": 2, "time_elapsed": 763157, "serialpos": 12, "key_press": -1, "wordID": 202, "type": "PRES_VIS", "trial_index": 101}, "uniqueid": "MTK1906:33ISQZVXPQT84OB8XUL8MXO7O89CCN", "dateTime": 1516557582576}, {"current_trial": 102, "trialdata": {"rt": -1, "trial_type": "single-stim", "word": "outdoors", "stimulus": "<p id=\"stim\">OUTDOORS</p>", "conditions": [24, 1600, "v", 12000], "internal_node_id": "0.0-75.0", "trial": 2, "time_elapsed": 765742, "serialpos": 13, "key_press": -1, "wordID": 986, "type": "PRES_VIS", "trial_index": 102}, "uniqueid": "MTK1906:33ISQZVXPQT84OB8XUL8MXO7O89CCN", "dateTime": 1516557585160}, {"current_trial": 103, "trialdata": {"rt": -1, "trial_type": "single-stim", "word": "fireplace", "stimulus": "<p id=\"stim\">FIREPLACE</p>", "conditions": [24, 1600, "v", 12000], "internal_node_id": "0.0-76.0", "trial": 2, "time_elapsed": 768542, "serialpos": 14, "key_press": -1, "wordID": 569, "type": "PRES_VIS", "trial_index": 103}, "uniqueid": "MTK1906:33ISQZVXPQT84OB8XUL8MXO7O89CCN", "dateTime": 1516557587960}, {"current_trial": 104, "trialdata": {"rt": -1, "trial_type": "single-stim", "word": "scissors", "stimulus": "<p id=\"stim\">SCISSORS</p>", "conditions": [24, 1600, "v", 12000], "internal_node_id": "0.0-77.0", "trial": 2, "time_elapsed": 770962, "serialpos": 15, "key_press": -1, "wordID": 1249, "type": "PRES_VIS", "trial_index": 104}, "uniqueid": "MTK1906:33ISQZVXPQT84OB8XUL8MXO7O89CCN", "dateTime": 1516557590380}, {"current_trial": 105, "trialdata": {"rt": -1, "trial_type": "single-stim", "word": "dentist", "stimulus": "<p id=\"stim\">DENTIST</p>", "conditions": [24, 1600, "v", 12000], "internal_node_id": "0.0-78.0", "trial": 2, "time_elapsed": 773474, "serialpos": 16, "key_press": -1, "wordID": 446, "type": "PRES_VIS", "trial_index": 105}, "uniqueid": "MTK1906:33ISQZVXPQT84OB8XUL8MXO7O89CCN", "dateTime": 1516557592892}, {"current_trial": 106, "trialdata": {"rt": -1, "trial_type": "single-stim", "word": "briefcase", "stimulus": "<p id=\"stim\">BRIEFCASE</p>", "conditions": [24, 1600, "v", 12000], "internal_node_id": "0.0-79.0", "trial": 2, "time_elapsed": 776126, "serialpos": 17, "key_press": -1, "wordID": 174, "type": "PRES_VIS", "trial_index": 106}, "uniqueid": "MTK1906:33ISQZVXPQT84OB8XUL8MXO7O89CCN", "dateTime": 1516557595544}, {"current_trial": 107, "trialdata": {"rt": -1, "trial_type": "single-stim", "word": "shortcake", "stimulus": "<p id=\"stim\">SHORTCAKE</p>", "conditions": [24, 1600, "v", 12000], "internal_node_id": "0.0-80.0", "trial": 2, "time_elapsed": 778698, "serialpos": 18, "key_press": -1, "wordID": 1291, "type": "PRES_VIS", "trial_index": 107}, "uniqueid": "MTK1906:33ISQZVXPQT84OB8XUL8MXO7O89CCN", "dateTime": 1516557598116}, {"current_trial": 108, "trialdata": {"rt": -1, "trial_type": "single-stim", "word": "omelet", "stimulus": "<p id=\"stim\">OMELET</p>", "conditions": [24, 1600, "v", 12000], "internal_node_id": "0.0-81.0", "trial": 2, "time_elapsed": 781147, "serialpos": 19, "key_press": -1, "wordID": 975, "type": "PRES_VIS", "trial_index": 108}, "uniqueid": "MTK1906:33ISQZVXPQT84OB8XUL8MXO7O89CCN", "dateTime": 1516557600565}, {"current_trial": 109, "trialdata": {"rt": -1, "trial_type": "single-stim", "word": "robin", "stimulus": "<p id=\"stim\">ROBIN</p>", "conditions": [24, 1600, "v", 12000], "internal_node_id": "0.0-82.0", "trial": 2, "time_elapsed": 783605, "serialpos": 20, "key_press": -1, "wordID": 1198, "type": "PRES_VIS", "trial_index": 109}, "uniqueid": "MTK1906:33ISQZVXPQT84OB8XUL8MXO7O89CCN", "dateTime": 1516557603024}, {"current_trial": 110, "trialdata": {"rt": -1, "trial_type": "single-stim", "word": "drill", "stimulus": "<p id=\"stim\">DRILL</p>", "conditions": [24, 1600, "v", 12000], "internal_node_id": "0.0-83.0", "trial": 2, "time_elapsed": 786132, "serialpos": 21, "key_press": -1, "wordID": 496, "type": "PRES_VIS", "trial_index": 110}, "uniqueid": "MTK1906:33ISQZVXPQT84OB8XUL8MXO7O89CCN", "dateTime": 1516557605550}, {"current_trial": 111, "trialdata": {"rt": -1, "trial_type": "single-stim", "word": "maple", "stimulus": "<p id=\"stim\">MAPLE</p>", "conditions": [24, 1600, "v", 12000], "internal_node_id": "0.0-84.0", "trial": 2, "time_elapsed": 788790, "serialpos": 22, "key_press": -1, "wordID": 865, "type": "PRES_VIS", "trial_index": 111}, "uniqueid": "MTK1906:33ISQZVXPQT84OB8XUL8MXO7O89CCN", "dateTime": 1516557608209}, {"current_trial": 112, "trialdata": {"rt": -1, "trial_type": "single-stim", "word": "pocket", "stimulus": "<p id=\"stim\">POCKET</p>", "conditions": [24, 1600, "v", 12000], "internal_node_id": "0.0-85.0", "trial": 2, "time_elapsed": 791398, "serialpos": 23, "key_press": -1, "wordID": 1092, "type": "PRES_VIS", "trial_index": 112}, "uniqueid": "MTK1906:33ISQZVXPQT84OB8XUL8MXO7O89CCN", "dateTime": 1516557610816}, {"current_trial": 113, "trialdata": {"rt": -1, "trial_type": "single-stim", "stimulus": "", "internal_node_id": "0.0-86.0-0.0", "time_elapsed": 793666, "key_press": -1, "type": "PRE_RECALL_DELAY", "trial_index": 113}, "uniqueid": "MTK1906:33ISQZVXPQT84OB8XUL8MXO7O89CCN", "dateTime": 1516557613084}, {"current_trial": 114, "trialdata": {"rt": -1000, "trial_type": "single-audio", "stimulus": "/static/audio/400Hz.wav", "internal_node_id": "0.0-87.0", "time_elapsed": 794167, "key_press": -1, "type": "PRE_RECALL_ALERT", "trial_index": 114}, "uniqueid": "MTK1906:33ISQZVXPQT84OB8XUL8MXO7O89CCN", "dateTime": 1516557613585}, {"current_trial": 115, "trialdata": {"rt": [5113, 11695, 16687, 23074, 27595, 32182, 37236, 42177, 46858, 52224, 56601], "recwords": ["ghetto", "egypt", "drill", "fireplace", "dentist", "shortcake", "summit", "tractor", "outdoors", "omelet", "robin"], "key_times": [3372, 3565, 4019, 4270, 4395, 4556, 5113, 8289, 9752, 10222, 10884, 11133, 11695, 14784, 15160, 15433, 15992, 16148, 16687, 20200, 20437, 20637, 20742, 21119, 21350, 22344, 22566, 22724, 23074, 25559, 25716, 25898, 26074, 26325, 26500, 26691, 27595, 30354, 30535, 30760, 30941, 31135, 31582, 31740, 31901, 32011, 32182, 35866, 36088, 36360, 36511, 36797, 36963, 37236, 40606, 40783, 40934, 41076, 41348, 41575, 41698, 42177, 45009, 45297, 45494, 45890, 46101, 46240, 46472, 46657, 46858, 50901, 51227, 51430, 51731, 51897, 52082, 52224, 55307, 55566, 55753, 55920, 56201, 56601], "trial_type": "free-recall", "conditions": [24, 1600, "v", 12000], "internal_node_id": "0.0-88.0-0.0", "key_presses": [71, 72, 69, 84, 84, 79, 13, 69, 71, 89, 80, 84, 13, 68, 82, 73, 76, 76, 13, 70, 73, 82, 69, 80, 76, 65, 67, 69, 13, 68, 69, 78, 84, 73, 83, 84, 13, 83, 72, 79, 82, 84, 67, 65, 75, 69, 13, 83, 85, 77, 77, 73, 84, 13, 84, 82, 65, 67, 84, 79, 82, 13, 79, 85, 84, 68, 79, 79, 82, 83, 13, 79, 77, 69, 76, 69, 84, 13, 82, 79, 66, 73, 78, 13], "trial": 2, "time_elapsed": 854172, "type": "FREE_RECALL", "trial_index": 115}, "uniqueid": "MTK1906:33ISQZVXPQT84OB8XUL8MXO7O89CCN", "dateTime": 1516557673593}, {"current_trial": 116, "trialdata": {"rt": 3251, "trial_type": "text", "internal_node_id": "0.0-89.0", "time_elapsed": 859427, "key_press": 13, "type": "INSTRUCTIONS", "trial_index": 116}, "uniqueid": "MTK1906:33ISQZVXPQT84OB8XUL8MXO7O89CCN", "dateTime": 1516557678845}, {"current_trial": 117, "trialdata": {"rt": [2938, 4295, 8326, 10781, 12563, 14149, 17440, 19872, 21340], "trial_type": "math-distractor", "key_times": [2164, 2360, 2938, 4114, 4295, 7896, 8154, 8326, 10378, 10611, 10781, 12406, 12563, 13887, 14029, 14149, 17087, 17306, 17440, 19481, 19712, 19872, 21187, 21340], "responses": ["15", "4", "17", "13", "8", "11", "21", "15", "6"], "num2": [8, 1, 7, 6, 6, 1, 5, 8, 1, 7], "num3": [6, 1, 6, 4, 1, 4, 8, 6, 4, 8], "conditions": [12, 1600, "v", 24000], "internal_node_id": "0.0-90.0", "key_presses": [97, 101, 13, 100, 13, 97, 103, 13, 97, 99, 13, 104, 13, 97, 97, 13, 98, 97, 13, 97, 101, 13, 102, 13], "trial": 3, "time_elapsed": 885434, "type": "DISTRACTOR", "trial_index": 117, "num1": [1, 2, 6, 3, 1, 6, 8, 1, 1, 7]}, "uniqueid": "MTK1906:33ISQZVXPQT84OB8XUL8MXO7O89CCN", "dateTime": 1516557704852}, {"current_trial": 118, "trialdata": {"rt": -1, "trial_type": "single-stim", "stimulus": "<p id=\"stim\">10</p>", "internal_node_id": "0.0-91.0-0.0", "time_elapsed": 888436, "key_press": -1, "trial_index": 118}, "uniqueid": "MTK1906:33ISQZVXPQT84OB8XUL8MXO7O89CCN", "dateTime": 1516557707854}, {"current_trial": 119, "trialdata": {"rt": -1, "trial_type": "single-stim", "stimulus": "<p id=\"stim\">9</p>", "internal_node_id": "0.0-91.0-1.0", "time_elapsed": 889437, "key_press": -1, "trial_index": 119}, "uniqueid": "MTK1906:33ISQZVXPQT84OB8XUL8MXO7O89CCN", "dateTime": 1516557708855}, {"current_trial": 120, "trialdata": {"rt": -1, "trial_type": "single-stim", "stimulus": "<p id=\"stim\">8</p>", "internal_node_id": "0.0-91.0-2.0", "time_elapsed": 890439, "key_press": -1, "trial_index": 120}, "uniqueid": "MTK1906:33ISQZVXPQT84OB8XUL8MXO7O89CCN", "dateTime": 1516557709857}, {"current_trial": 121, "trialdata": {"rt": -1, "trial_type": "single-stim", "stimulus": "<p id=\"stim\">7</p>", "internal_node_id": "0.0-91.0-3.0", "time_elapsed": 891440, "key_press": -1, "trial_index": 121}, "uniqueid": "MTK1906:33ISQZVXPQT84OB8XUL8MXO7O89CCN", "dateTime": 1516557710858}, {"current_trial": 122, "trialdata": {"rt": -1, "trial_type": "single-stim", "stimulus": "<p id=\"stim\">6</p>", "internal_node_id": "0.0-91.0-4.0", "time_elapsed": 892441, "key_press": -1, "trial_index": 122}, "uniqueid": "MTK1906:33ISQZVXPQT84OB8XUL8MXO7O89CCN", "dateTime": 1516557711860}, {"current_trial": 123, "trialdata": {"rt": -1, "trial_type": "single-stim", "stimulus": "<p id=\"stim\">5</p>", "internal_node_id": "0.0-91.0-5.0", "time_elapsed": 893442, "key_press": -1, "trial_index": 123}, "uniqueid": "MTK1906:33ISQZVXPQT84OB8XUL8MXO7O89CCN", "dateTime": 1516557712860}, {"current_trial": 124, "trialdata": {"rt": -1, "trial_type": "single-stim", "stimulus": "<p id=\"stim\">4</p>", "internal_node_id": "0.0-91.0-6.0", "time_elapsed": 894443, "key_press": -1, "trial_index": 124}, "uniqueid": "MTK1906:33ISQZVXPQT84OB8XUL8MXO7O89CCN", "dateTime": 1516557713861}, {"current_trial": 125, "trialdata": {"rt": -1, "trial_type": "single-stim", "stimulus": "<p id=\"stim\">3</p>", "internal_node_id": "0.0-91.0-7.0", "time_elapsed": 895444, "key_press": -1, "trial_index": 125}, "uniqueid": "MTK1906:33ISQZVXPQT84OB8XUL8MXO7O89CCN", "dateTime": 1516557714862}, {"current_trial": 126, "trialdata": {"rt": -1, "trial_type": "single-stim", "stimulus": "<p id=\"stim\">2</p>", "internal_node_id": "0.0-91.0-8.0", "time_elapsed": 896445, "key_press": -1, "trial_index": 126}, "uniqueid": "MTK1906:33ISQZVXPQT84OB8XUL8MXO7O89CCN", "dateTime": 1516557715863}, {"current_trial": 127, "trialdata": {"rt": -1, "trial_type": "single-stim", "stimulus": "<p id=\"stim\">1</p>", "internal_node_id": "0.0-91.0-9.0", "time_elapsed": 897446, "key_press": -1, "trial_index": 127}, "uniqueid": "MTK1906:33ISQZVXPQT84OB8XUL8MXO7O89CCN", "dateTime": 1516557716864}, {"current_trial": 128, "trialdata": {"rt": -1, "trial_type": "single-stim", "stimulus": "<p id=\"stim\">+</p>", "internal_node_id": "0.0-92.0-0.0", "time_elapsed": 898948, "key_press": -1, "type": "FIXATION", "trial_index": 128}, "uniqueid": "MTK1906:33ISQZVXPQT84OB8XUL8MXO7O89CCN", "dateTime": 1516557718366}, {"current_trial": 129, "trialdata": {"rt": -1, "trial_type": "single-stim", "word": "bacon", "stimulus": "<p id=\"stim\">BACON</p>", "conditions": [12, 1600, "v", 24000], "internal_node_id": "0.0-93.0", "trial": 3, "time_elapsed": 900549, "serialpos": 0, "key_press": -1, "wordID": 66, "type": "PRES_VIS", "trial_index": 129}, "uniqueid": "MTK1906:33ISQZVXPQT84OB8XUL8MXO7O89CCN", "dateTime": 1516557719967}, {"current_trial": 130, "trialdata": {"rt": -1, "trial_type": "single-stim", "word": "daughter", "stimulus": "<p id=\"stim\">DAUGHTER</p>", "conditions": [12, 1600, "v", 24000], "internal_node_id": "0.0-94.0", "trial": 3, "time_elapsed": 903277, "serialpos": 1, "key_press": -1, "wordID": 441, "type": "PRES_VIS", "trial_index": 130}, "uniqueid": "MTK1906:33ISQZVXPQT84OB8XUL8MXO7O89CCN", "dateTime": 1516557722695}, {"current_trial": 131, "trialdata": {"rt": -1, "trial_type": "single-stim", "word": "grave", "stimulus": "<p id=\"stim\">GRAVE</p>", "conditions": [12, 1600, "v", 24000], "internal_node_id": "0.0-95.0", "trial": 3, "time_elapsed": 905686, "serialpos": 2, "key_press": -1, "wordID": 657, "type": "PRES_VIS", "trial_index": 131}, "uniqueid": "MTK1906:33ISQZVXPQT84OB8XUL8MXO7O89CCN", "dateTime": 1516557725104}, {"current_trial": 132, "trialdata": {"rt": -1, "trial_type": "single-stim", "word": "marker", "stimulus": "<p id=\"stim\">MARKER</p>", "conditions": [12, 1600, "v", 24000], "internal_node_id": "0.0-96.0", "trial": 3, "time_elapsed": 908356, "serialpos": 3, "key_press": -1, "wordID": 869, "type": "PRES_VIS", "trial_index": 132}, "uniqueid": "MTK1906:33ISQZVXPQT84OB8XUL8MXO7O89CCN", "dateTime": 1516557727774}, {"current_trial": 133, "trialdata": {"rt": -1, "trial_type": "single-stim", "word": "salad", "stimulus": "<p id=\"stim\">SALAD</p>", "conditions": [12, 1600, "v", 24000], "internal_node_id": "0.0-97.0", "trial": 3, "time_elapsed": 910822, "serialpos": 4, "key_press": -1, "wordID": 1223, "type": "PRES_VIS", "trial_index": 133}, "uniqueid": "MTK1906:33ISQZVXPQT84OB8XUL8MXO7O89CCN", "dateTime": 1516557730240}, {"current_trial": 134, "trialdata": {"rt": -1, "trial_type": "single-stim", "word": "lamp", "stimulus": "<p id=\"stim\">LAMP</p>", "conditions": [12, 1600, "v", 24000], "internal_node_id": "0.0-98.0", "trial": 3, "time_elapsed": 913311, "serialpos": 5, "key_press": -1, "wordID": 797, "type": "PRES_VIS", "trial_index": 134}, "uniqueid": "MTK1906:33ISQZVXPQT84OB8XUL8MXO7O89CCN", "dateTime": 1516557732729}, {"current_trial": 135, "trialdata": {"rt": -1, "trial_type": "single-stim", "word": "radish", "stimulus": "<p id=\"stim\">RADISH</p>", "conditions": [12, 1600, "v", 24000], "internal_node_id": "0.0-99.0", "trial": 3, "time_elapsed": 916005, "serialpos": 6, "key_press": -1, "wordID": 1157, "type": "PRES_VIS", "trial_index": 135}, "uniqueid": "MTK1906:33ISQZVXPQT84OB8XUL8MXO7O89CCN", "dateTime": 1516557735423}, {"current_trial": 136, "trialdata": {"rt": -1, "trial_type": "single-stim", "word": "lumber", "stimulus": "<p id=\"stim\">LUMBER</p>", "conditions": [12, 1600, "v", 24000], "internal_node_id": "0.0-100.0", "trial": 3, "time_elapsed": 918421, "serialpos": 7, "key_press": -1, "wordID": 847, "type": "PRES_VIS", "trial_index": 136}, "uniqueid": "MTK1906:33ISQZVXPQT84OB8XUL8MXO7O89CCN", "dateTime": 1516557737839}, {"current_trial": 137, "trialdata": {"rt": -1, "trial_type": "single-stim", "word": "peanut", "stimulus": "<p id=\"stim\">PEANUT</p>", "conditions": [12, 1600, "v", 24000], "internal_node_id": "0.0-101.0", "trial": 3, "time_elapsed": 921002, "serialpos": 8, "key_press": -1, "wordID": 1031, "type": "PRES_VIS", "trial_index": 137}, "uniqueid": "MTK1906:33ISQZVXPQT84OB8XUL8MXO7O89CCN", "dateTime": 1516557740421}, {"current_trial": 138, "trialdata": {"rt": -1, "trial_type": "single-stim", "word": "turnip", "stimulus": "<p id=\"stim\">TURNIP</p>", "conditions": [12, 1600, "v", 24000], "internal_node_id": "0.0-102.0", "trial": 3, "time_elapsed": 923787, "serialpos": 9, "key_press": -1, "wordID": 1520, "type": "PRES_VIS", "trial_index": 138}, "uniqueid": "MTK1906:33ISQZVXPQT84OB8XUL8MXO7O89CCN", "dateTime": 1516557743206}, {"current_trial": 139, "trialdata": {"rt": -1, "trial_type": "single-stim", "word": "chest", "stimulus": "<p id=\"stim\">CHEST</p>", "conditions": [12, 1600, "v", 24000], "internal_node_id": "0.0-103.0", "trial": 3, "time_elapsed": 926199, "serialpos": 10, "key_press": -1, "wordID": 294, "type": "PRES_VIS", "trial_index": 139}, "uniqueid": "MTK1906:33ISQZVXPQT84OB8XUL8MXO7O89CCN", "dateTime": 1516557745617}, {"current_trial": 140, "trialdata": {"rt": -1, "trial_type": "single-stim", "word": "stomach", "stimulus": "<p id=\"stim\">STOMACH</p>", "conditions": [12, 1600, "v", 24000], "internal_node_id": "0.0-104.0", "trial": 3, "time_elapsed": 928867, "serialpos": 11, "key_press": -1, "wordID": 1383, "type": "PRES_VIS", "trial_index": 140}, "uniqueid": "MTK1906:33ISQZVXPQT84OB8XUL8MXO7O89CCN", "dateTime": 1516557748286}, {"current_trial": 141, "trialdata": {"rt": -1, "trial_type": "single-stim", "stimulus": "", "internal_node_id": "0.0-105.0-0.0", "time_elapsed": 931366, "key_press": -1, "type": "PRE_RECALL_DELAY", "trial_index": 141}, "uniqueid": "MTK1906:33ISQZVXPQT84OB8XUL8MXO7O89CCN", "dateTime": 1516557750784}, {"current_trial": 142, "trialdata": {"rt": -1000, "trial_type": "single-audio", "stimulus": "/static/audio/400Hz.wav", "internal_node_id": "0.0-106.0", "time_elapsed": 931867, "key_press": -1, "type": "PRE_RECALL_ALERT", "trial_index": 142}, "uniqueid": "MTK1906:33ISQZVXPQT84OB8XUL8MXO7O89CCN", "dateTime": 1516557751285}, {"current_trial": 143, "trialdata": {"rt": [6359, 10547, 13357, 19605, 23736, 30812, 35015, 41992, 45789], "recwords": ["bacon", "sald", "salad", "daughter", "turnip", "marker", "lumber", "radish", "chest"], "key_times": [3895, 4546, 4792, 5196, 5421, 6359, 9371, 9677, 9916, 10117, 10547, 12095, 12290, 12677, 12844, 13031, 13357, 18352, 18563, 18771, 18897, 19053, 19175, 19339, 19406, 19605, 21642, 21811, 21908, 22105, 22323, 23071, 23736, 29786, 29947, 30039, 30286, 30505, 30587, 30812, 33626, 33951, 34205, 34376, 34669, 34736, 35015, 40109, 40378, 41080, 41321, 41456, 41605, 41992, 44866, 45037, 45185, 45421, 45490, 45789], "trial_type": "free-recall", "conditions": [12, 1600, "v", 24000], "internal_node_id": "0.0-107.0-0.0", "key_presses": [66, 65, 67, 79, 78, 13, 83, 65, 76, 68, 13, 83, 65, 76, 65, 68, 13, 68, 65, 85, 71, 72, 84, 69, 82, 13, 84, 85, 82, 78, 73, 80, 13, 77, 65, 82, 75, 69, 82, 13, 76, 85, 77, 66, 69, 82, 13, 82, 65, 68, 73, 83, 72, 13, 67, 72, 69, 83, 84, 13], "trial": 3, "time_elapsed": 991872, "type": "FREE_RECALL", "trial_index": 143}, "uniqueid": "MTK1906:33ISQZVXPQT84OB8XUL8MXO7O89CCN", "dateTime": 1516557811292}, {"current_trial": 144, "trialdata": {"rt": 4133, "trial_type": "text", "internal_node_id": "0.0-108.0", "time_elapsed": 998008, "key_press": 74, "type": "INSTRUCTIONS", "trial_index": 144}, "uniqueid": "MTK1906:33ISQZVXPQT84OB8XUL8MXO7O89CCN", "dateTime": 1516557817426}, {"current_trial": 145, "trialdata": {"rt": [6581, 10489, 14919, 19200, 20902, 23635], "trial_type": "math-distractor", "key_times": [4982, 5297, 6581, 10124, 10360, 10489, 14612, 14810, 14919, 18921, 19070, 19200, 20614, 20766, 20902, 23326, 23514, 23635], "responses": ["17", "17", "14", "15", "11", "16"], "num2": [4, 6, 5, 4, 1, 5, 8], "num3": [5, 9, 1, 3, 5, 3, 7], "conditions": [24, 800, "v", 24000], "internal_node_id": "0.0-109.0", "key_presses": [97, 103, 13, 97, 103, 13, 97, 100, 13, 97, 101, 13, 97, 97, 13, 97, 102, 13], "trial": 4, "time_elapsed": 1024012, "type": "DISTRACTOR", "trial_index": 145, "num1": [8, 2, 8, 8, 5, 9, 2]}, "uniqueid": "MTK1906:33ISQZVXPQT84OB8XUL8MXO7O89CCN", "dateTime": 1516557843430}, {"current_trial": 146, "trialdata": {"rt": -1, "trial_type": "single-stim", "stimulus": "<p id=\"stim\">10</p>", "internal_node_id": "0.0-110.0-0.0", "time_elapsed": 1027013, "key_press": -1, "trial_index": 146}, "uniqueid": "MTK1906:33ISQZVXPQT84OB8XUL8MXO7O89CCN", "dateTime": 1516557846432}, {"current_trial": 147, "trialdata": {"rt": -1, "trial_type": "single-stim", "stimulus": "<p id=\"stim\">9</p>", "internal_node_id": "0.0-110.0-1.0", "time_elapsed": 1028015, "key_press": -1, "trial_index": 147}, "uniqueid": "MTK1906:33ISQZVXPQT84OB8XUL8MXO7O89CCN", "dateTime": 1516557847433}, {"current_trial": 148, "trialdata": {"rt": -1, "trial_type": "single-stim", "stimulus": "<p id=\"stim\">8</p>", "internal_node_id": "0.0-110.0-2.0", "time_elapsed": 1029015, "key_press": -1, "trial_index": 148}, "uniqueid": "MTK1906:33ISQZVXPQT84OB8XUL8MXO7O89CCN", "dateTime": 1516557848434}, {"current_trial": 149, "trialdata": {"rt": -1, "trial_type": "single-stim", "stimulus": "<p id=\"stim\">7</p>", "internal_node_id": "0.0-110.0-3.0", "time_elapsed": 1030016, "key_press": -1, "trial_index": 149}, "uniqueid": "MTK1906:33ISQZVXPQT84OB8XUL8MXO7O89CCN", "dateTime": 1516557849435}, {"current_trial": 150, "trialdata": {"rt": -1, "trial_type": "single-stim", "stimulus": "<p id=\"stim\">6</p>", "internal_node_id": "0.0-110.0-4.0", "time_elapsed": 1031017, "key_press": -1, "trial_index": 150}, "uniqueid": "MTK1906:33ISQZVXPQT84OB8XUL8MXO7O89CCN", "dateTime": 1516557850435}, {"current_trial": 151, "trialdata": {"rt": -1, "trial_type": "single-stim", "stimulus": "<p id=\"stim\">5</p>", "internal_node_id": "0.0-110.0-5.0", "time_elapsed": 1032018, "key_press": -1, "trial_index": 151}, "uniqueid": "MTK1906:33ISQZVXPQT84OB8XUL8MXO7O89CCN", "dateTime": 1516557851436}, {"current_trial": 152, "trialdata": {"rt": -1, "trial_type": "single-stim", "stimulus": "<p id=\"stim\">4</p>", "internal_node_id": "0.0-110.0-6.0", "time_elapsed": 1033020, "key_press": -1, "trial_index": 152}, "uniqueid": "MTK1906:33ISQZVXPQT84OB8XUL8MXO7O89CCN", "dateTime": 1516557852438}, {"current_trial": 153, "trialdata": {"rt": -1, "trial_type": "single-stim", "stimulus": "<p id=\"stim\">3</p>", "internal_node_id": "0.0-110.0-7.0", "time_elapsed": 1034021, "key_press": -1, "trial_index": 153}, "uniqueid": "MTK1906:33ISQZVXPQT84OB8XUL8MXO7O89CCN", "dateTime": 1516557853439}, {"current_trial": 154, "trialdata": {"rt": -1, "trial_type": "single-stim", "stimulus": "<p id=\"stim\">2</p>", "internal_node_id": "0.0-110.0-8.0", "time_elapsed": 1035022, "key_press": -1, "trial_index": 154}, "uniqueid": "MTK1906:33ISQZVXPQT84OB8XUL8MXO7O89CCN", "dateTime": 1516557854440}, {"current_trial": 155, "trialdata": {"rt": -1, "trial_type": "single-stim", "stimulus": "<p id=\"stim\">1</p>", "internal_node_id": "0.0-110.0-9.0", "time_elapsed": 1036022, "key_press": -1, "trial_index": 155}, "uniqueid": "MTK1906:33ISQZVXPQT84OB8XUL8MXO7O89CCN", "dateTime": 1516557855440}, {"current_trial": 156, "trialdata": {"rt": -1, "trial_type": "single-stim", "stimulus": "<p id=\"stim\">+</p>", "internal_node_id": "0.0-111.0-0.0", "time_elapsed": 1037524, "key_press": -1, "type": "FIXATION", "trial_index": 156}, "uniqueid": "MTK1906:33ISQZVXPQT84OB8XUL8MXO7O89CCN", "dateTime": 1516557856942}, {"current_trial": 157, "trialdata": {"rt": -1, "trial_type": "single-stim", "word": "uncle", "stimulus": "<p id=\"stim\">UNCLE</p>", "conditions": [24, 800, "v", 24000], "internal_node_id": "0.0-112.0", "trial": 4, "time_elapsed": 1038327, "serialpos": 0, "key_press": -1, "wordID": 1535, "type": "PRES_VIS", "trial_index": 157}, "uniqueid": "MTK1906:33ISQZVXPQT84OB8XUL8MXO7O89CCN", "dateTime": 1516557857745}, {"current_trial": 158, "trialdata": {"rt": -1, "trial_type": "single-stim", "word": "widow", "stimulus": "<p id=\"stim\">WIDOW</p>", "conditions": [24, 800, "v", 24000], "internal_node_id": "0.0-113.0", "trial": 4, "time_elapsed": 1039983, "serialpos": 1, "key_press": -1, "wordID": 1607, "type": "PRES_VIS", "trial_index": 158}, "uniqueid": "MTK1906:33ISQZVXPQT84OB8XUL8MXO7O89CCN", "dateTime": 1516557859401}, {"current_trial": 159, "trialdata": {"rt": -1, "trial_type": "single-stim", "word": "doughnut", "stimulus": "<p id=\"stim\">DOUGHNUT</p>", "conditions": [24, 800, "v", 24000], "internal_node_id": "0.0-114.0", "trial": 4, "time_elapsed": 1041599, "serialpos": 2, "key_press": -1, "wordID": 489, "type": "PRES_VIS", "trial_index": 159}, "uniqueid": "MTK1906:33ISQZVXPQT84OB8XUL8MXO7O89CCN", "dateTime": 1516557861017}, {"current_trial": 160, "trialdata": {"rt": -1, "trial_type": "single-stim", "word": "puppy", "stimulus": "<p id=\"stim\">PUPPY</p>", "conditions": [24, 800, "v", 24000], "internal_node_id": "0.0-115.0", "trial": 4, "time_elapsed": 1043352, "serialpos": 3, "key_press": -1, "wordID": 1143, "type": "PRES_VIS", "trial_index": 160}, "uniqueid": "MTK1906:33ISQZVXPQT84OB8XUL8MXO7O89CCN", "dateTime": 1516557862770}, {"current_trial": 161, "trialdata": {"rt": -1, "trial_type": "single-stim", "word": "child", "stimulus": "<p id=\"stim\">CHILD</p>", "conditions": [24, 800, "v", 24000], "internal_node_id": "0.0-116.0", "trial": 4, "time_elapsed": 1044981, "serialpos": 4, "key_press": -1, "wordID": 298, "type": "PRES_VIS", "trial_index": 161}, "uniqueid": "MTK1906:33ISQZVXPQT84OB8XUL8MXO7O89CCN", "dateTime": 1516557864399}, {"current_trial": 162, "trialdata": {"rt": -1, "trial_type": "single-stim", "word": "wasp", "stimulus": "<p id=\"stim\">WASP</p>", "conditions": [24, 800, "v", 24000], "internal_node_id": "0.0-117.0", "trial": 4, "time_elapsed": 1046601, "serialpos": 5, "key_press": -1, "wordID": 1592, "type": "PRES_VIS", "trial_index": 162}, "uniqueid": "MTK1906:33ISQZVXPQT84OB8XUL8MXO7O89CCN", "dateTime": 1516557866020}, {"current_trial": 163, "trialdata": {"rt": -1, "trial_type": "single-stim", "word": "inmate", "stimulus": "<p id=\"stim\">INMATE</p>", "conditions": [24, 800, "v", 24000], "internal_node_id": "0.0-118.0", "trial": 4, "time_elapsed": 1048431, "serialpos": 6, "key_press": -1, "wordID": 737, "type": "PRES_VIS", "trial_index": 163}, "uniqueid": "MTK1906:33ISQZVXPQT84OB8XUL8MXO7O89CCN", "dateTime": 1516557867849}, {"current_trial": 164, "trialdata": {"rt": -1, "trial_type": "single-stim", "word": "nomad", "stimulus": "<p id=\"stim\">NOMAD</p>", "conditions": [24, 800, "v", 24000], "internal_node_id": "0.0-119.0", "trial": 4, "time_elapsed": 1050330, "serialpos": 7, "key_press": -1, "wordID": 954, "type": "PRES_VIS", "trial_index": 164}, "uniqueid": "MTK1906:33ISQZVXPQT84OB8XUL8MXO7O89CCN", "dateTime": 1516557869749}, {"current_trial": 165, "trialdata": {"rt": -1, "trial_type": "single-stim", "word": "boyfriend", "stimulus": "<p id=\"stim\">BOYFRIEND</p>", "conditions": [24, 800, "v", 24000], "internal_node_id": "0.0-120.0", "trial": 4, "time_elapsed": 1052221, "serialpos": 8, "key_press": -1, "wordID": 161, "type": "PRES_VIS", "trial_index": 165}, "uniqueid": "MTK1906:33ISQZVXPQT84OB8XUL8MXO7O89CCN", "dateTime": 1516557871639}, {"current_trial": 166, "trialdata": {"rt": -1, "trial_type": "single-stim", "word": "contract", "stimulus": "<p id=\"stim\">CONTRACT</p>", "conditions": [24, 800, "v", 24000], "internal_node_id": "0.0-121.0", "trial": 4, "time_elapsed": 1053952, "serialpos": 9, "key_press": -1, "wordID": 367, "type": "PRES_VIS", "trial_index": 166}, "uniqueid": "MTK1906:33ISQZVXPQT84OB8XUL8MXO7O89CCN", "dateTime": 1516557873370}, {"current_trial": 167, "trialdata": {"rt": -1, "trial_type": "single-stim", "word": "snack", "stimulus": "<p id=\"stim\">SNACK</p>", "conditions": [24, 800, "v", 24000], "internal_node_id": "0.0-122.0", "trial": 4, "time_elapsed": 1055918, "serialpos": 10, "key_press": -1, "wordID": 1330, "type": "PRES_VIS", "trial_index": 167}, "uniqueid": "MTK1906:33ISQZVXPQT84OB8XUL8MXO7O89CCN", "dateTime": 1516557875336}, {"current_trial": 168, "trialdata": {"rt": -1, "trial_type": "single-stim", "word": "cobra", "stimulus": "<p id=\"stim\">COBRA</p>", "conditions": [24, 800, "v", 24000], "internal_node_id": "0.0-123.0", "trial": 4, "time_elapsed": 1057559, "serialpos": 11, "key_press": -1, "wordID": 335, "type": "PRES_VIS", "trial_index": 168}, "uniqueid": "MTK1906:33ISQZVXPQT84OB8XUL8MXO7O89CCN", "dateTime": 1516557876977}, {"current_trial": 169, "trialdata": {"rt": -1, "trial_type": "single-stim", "word": "pasta", "stimulus": "<p id=\"stim\">PASTA</p>", "conditions": [24, 800, "v", 24000], "internal_node_id": "0.0-124.0", "trial": 4, "time_elapsed": 1059464, "serialpos": 12, "key_press": -1, "wordID": 1020, "type": "PRES_VIS", "trial_index": 169}, "uniqueid": "MTK1906:33ISQZVXPQT84OB8XUL8MXO7O89CCN", "dateTime": 1516557878882}, {"current_trial": 170, "trialdata": {"rt": -1, "trial_type": "single-stim", "word": "custard", "stimulus": "<p id=\"stim\">CUSTARD</p>", "conditions": [24, 800, "v", 24000], "internal_node_id": "0.0-125.0", "trial": 4, "time_elapsed": 1061124, "serialpos": 13, "key_press": -1, "wordID": 428, "type": "PRES_VIS", "trial_index": 170}, "uniqueid": "MTK1906:33ISQZVXPQT84OB8XUL8MXO7O89CCN", "dateTime": 1516557880543}, {"current_trial": 171, "trialdata": {"rt": -1, "trial_type": "single-stim", "word": "elbow", "stimulus": "<p id=\"stim\">ELBOW</p>", "conditions": [24, 800, "v", 24000], "internal_node_id": "0.0-126.0", "trial": 4, "time_elapsed": 1063115, "serialpos": 14, "key_press": -1, "wordID": 519, "type": "PRES_VIS", "trial_index": 171}, "uniqueid": "MTK1906:33ISQZVXPQT84OB8XUL8MXO7O89CCN", "dateTime": 1516557882533}, {"current_trial": 172, "trialdata": {"rt": -1, "trial_type": "single-stim", "word": "xerox", "stimulus": "<p id=\"stim\">XEROX</p>", "conditions": [24, 800, "v", 24000], "internal_node_id": "0.0-127.0", "trial": 4, "time_elapsed": 1065023, "serialpos": 15, "key_press": -1, "wordID": 1627, "type": "PRES_VIS", "trial_index": 172}, "uniqueid": "MTK1906:33ISQZVXPQT84OB8XUL8MXO7O89CCN", "dateTime": 1516557884442}, {"current_trial": 173, "trialdata": {"rt": -1, "trial_type": "single-stim", "word": "garlic", "stimulus": "<p id=\"stim\">GARLIC</p>", "conditions": [24, 800, "v", 24000], "internal_node_id": "0.0-128.0", "trial": 4, "time_elapsed": 1066895, "serialpos": 16, "key_press": -1, "wordID": 623, "type": "PRES_VIS", "trial_index": 173}, "uniqueid": "MTK1906:33ISQZVXPQT84OB8XUL8MXO7O89CCN", "dateTime": 1516557886313}, {"current_trial": 174, "trialdata": {"rt": -1, "trial_type": "single-stim", "word": "waitress", "stimulus": "<p id=\"stim\">WAITRESS</p>", "conditions": [24, 800, "v", 24000], "internal_node_id": "0.0-129.0", "trial": 4, "time_elapsed": 1068814, "serialpos": 17, "key_press": -1, "wordID": 1580, "type": "PRES_VIS", "trial_index": 174}, "uniqueid": "MTK1906:33ISQZVXPQT84OB8XUL8MXO7O89CCN", "dateTime": 1516557888232}, {"current_trial": 175, "trialdata": {"rt": -1, "trial_type": "single-stim", "word": "lace", "stimulus": "<p id=\"stim\">LACE</p>", "conditions": [24, 800, "v", 24000], "internal_node_id": "0.0-130.0", "trial": 4, "time_elapsed": 1070733, "serialpos": 18, "key_press": -1, "wordID": 791, "type": "PRES_VIS", "trial_index": 175}, "uniqueid": "MTK1906:33ISQZVXPQT84OB8XUL8MXO7O89CCN", "dateTime": 1516557890151}, {"current_trial": 176, "trialdata": {"rt": -1, "trial_type": "single-stim", "word": "captive", "stimulus": "<p id=\"stim\">CAPTIVE</p>", "conditions": [24, 800, "v", 24000], "internal_node_id": "0.0-131.0", "trial": 4, "time_elapsed": 1072548, "serialpos": 19, "key_press": -1, "wordID": 239, "type": "PRES_VIS", "trial_index": 176}, "uniqueid": "MTK1906:33ISQZVXPQT84OB8XUL8MXO7O89CCN", "dateTime": 1516557891966}, {"current_trial": 177, "trialdata": {"rt": -1, "trial_type": "single-stim", "word": "lizard", "stimulus": "<p id=\"stim\">LIZARD</p>", "conditions": [24, 800, "v", 24000], "internal_node_id": "0.0-132.0", "trial": 4, "time_elapsed": 1074162, "serialpos": 20, "key_press": -1, "wordID": 833, "type": "PRES_VIS", "trial_index": 177}, "uniqueid": "MTK1906:33ISQZVXPQT84OB8XUL8MXO7O89CCN", "dateTime": 1516557893581}, {"current_trial": 178, "trialdata": {"rt": -1, "trial_type": "single-stim", "word": "mailbox", "stimulus": "<p id=\"stim\">MAILBOX</p>", "conditions": [24, 800, "v", 24000], "internal_node_id": "0.0-133.0", "trial": 4, "time_elapsed": 1076061, "serialpos": 21, "key_press": -1, "wordID": 856, "type": "PRES_VIS", "trial_index": 178}, "uniqueid": "MTK1906:33ISQZVXPQT84OB8XUL8MXO7O89CCN", "dateTime": 1516557895480}, {"current_trial": 179, "trialdata": {"rt": -1, "trial_type": "single-stim", "word": "belly", "stimulus": "<p id=\"stim\">BELLY</p>", "conditions": [24, 800, "v", 24000], "internal_node_id": "0.0-134.0", "trial": 4, "time_elapsed": 1077963, "serialpos": 22, "key_press": -1, "wordID": 118, "type": "PRES_VIS", "trial_index": 179}, "uniqueid": "MTK1906:33ISQZVXPQT84OB8XUL8MXO7O89CCN", "dateTime": 1516557897381}, {"current_trial": 180, "trialdata": {"rt": -1, "trial_type": "single-stim", "word": "ankle", "stimulus": "<p id=\"stim\">ANKLE</p>", "conditions": [24, 800, "v", 24000], "internal_node_id": "0.0-135.0", "trial": 4, "time_elapsed": 1079949, "serialpos": 23, "key_press": -1, "wordID": 23, "type": "PRES_VIS", "trial_index": 180}, "uniqueid": "MTK1906:33ISQZVXPQT84OB8XUL8MXO7O89CCN", "dateTime": 1516557899368}, {"current_trial": 181, "trialdata": {"rt": -1, "trial_type": "single-stim", "stimulus": "", "internal_node_id": "0.0-136.0-0.0", "time_elapsed": 1082122, "key_press": -1, "type": "PRE_RECALL_DELAY", "trial_index": 181}, "uniqueid": "MTK1906:33ISQZVXPQT84OB8XUL8MXO7O89CCN", "dateTime": 1516557901541}, {"current_trial": 182, "trialdata": {"rt": -1000, "trial_type": "single-audio", "stimulus": "/static/audio/400Hz.wav", "internal_node_id": "0.0-137.0", "time_elapsed": 1082625, "key_press": -1, "type": "PRE_RECALL_ALERT", "trial_index": 182}, "uniqueid": "MTK1906:33ISQZVXPQT84OB8XUL8MXO7O89CCN", "dateTime": 1516557902044}, {"current_trial": 183, "trialdata": {"rt": [10314, 12794, 21129, 24864, 34075, 36256, 39654, 42136, 46209, 51784, 58785], "recwords": ["inmate", "nomad", "elbow", "ankle", "puppy", "lizard", "uncle", "widow", "captive", "wasp", "snack"], "key_times": [8661, 9037, 9261, 9544, 9747, 9927, 10314, 11374, 11846, 12115, 12380, 12575, 12794, 19604, 20058, 20343, 20539, 20882, 21129, 22998, 23213, 24256, 24494, 24657, 24864, 29677, 30969, 32520, 32909, 33309, 33458, 33681, 34075, 34745, 34978, 35313, 35559, 35843, 36040, 36256, 38714, 38933, 39107, 39304, 39459, 39654, 41003, 41154, 41499, 41626, 41790, 42136, 44880, 45036, 45200, 45411, 45610, 45804, 45969, 46209, 49887, 50654, 50844, 51052, 51784, 57486, 57735, 57989, 58196, 58536, 58785], "trial_type": "free-recall", "conditions": [24, 800, "v", 24000], "internal_node_id": "0.0-138.0-0.0", "key_presses": [73, 78, 77, 65, 84, 69, 13, 78, 79, 77, 65, 68, 13, 69, 76, 66, 79, 87, 13, 65, 78, 75, 76, 69, 13, 69, 8, 80, 85, 80, 80, 89, 13, 76, 73, 90, 65, 82, 68, 13, 85, 78, 67, 76, 69, 13, 87, 73, 68, 79, 87, 13, 67, 65, 80, 84, 73, 86, 69, 13, 87, 65, 83, 80, 13, 83, 78, 65, 67, 75, 13], "trial": 4, "time_elapsed": 1142630, "type": "FREE_RECALL", "trial_index": 183}, "uniqueid": "MTK1906:33ISQZVXPQT84OB8XUL8MXO7O89CCN", "dateTime": 1516557962055}, {"current_trial": 184, "trialdata": {"rt": 1769, "trial_type": "text", "internal_node_id": "0.0-139.0", "time_elapsed": 1146407, "key_press": 72, "type": "INSTRUCTIONS", "trial_index": 184}, "uniqueid": "MTK1906:33ISQZVXPQT84OB8XUL8MXO7O89CCN", "dateTime": 1516557965826}, {"current_trial": 185, "trialdata": {"rt": [2708, 5108, 8709], "trial_type": "math-distractor", "key_times": [2365, 2708, 4740, 4943, 5108, 8318, 8531, 8709], "responses": ["9", "18", "13"], "num2": [1, 5, 7, 8], "num3": [6, 5, 1, 4], "conditions": [24, 800, "v", 12000], "internal_node_id": "0.0-140.0", "key_presses": [105, 13, 97, 104, 13, 97, 99, 13], "trial": 5, "time_elapsed": 1160412, "type": "DISTRACTOR", "trial_index": 185, "num1": [2, 8, 5, 5]}, "uniqueid": "MTK1906:33ISQZVXPQT84OB8XUL8MXO7O89CCN", "dateTime": 1516557979830}, {"current_trial": 186, "trialdata": {"rt": -1, "trial_type": "single-stim", "stimulus": "<p id=\"stim\">10</p>", "internal_node_id": "0.0-141.0-0.0", "time_elapsed": 1163415, "key_press": -1, "trial_index": 186}, "uniqueid": "MTK1906:33ISQZVXPQT84OB8XUL8MXO7O89CCN", "dateTime": 1516557982833}, {"current_trial": 187, "trialdata": {"rt": -1, "trial_type": "single-stim", "stimulus": "<p id=\"stim\">9</p>", "internal_node_id": "0.0-141.0-1.0", "time_elapsed": 1164417, "key_press": -1, "trial_index": 187}, "uniqueid": "MTK1906:33ISQZVXPQT84OB8XUL8MXO7O89CCN", "dateTime": 1516557983836}, {"current_trial": 188, "trialdata": {"rt": -1, "trial_type": "single-stim", "stimulus": "<p id=\"stim\">8</p>", "internal_node_id": "0.0-141.0-2.0", "time_elapsed": 1165419, "key_press": -1, "trial_index": 188}, "uniqueid": "MTK1906:33ISQZVXPQT84OB8XUL8MXO7O89CCN", "dateTime": 1516557984837}, {"current_trial": 189, "trialdata": {"rt": -1, "trial_type": "single-stim", "stimulus": "<p id=\"stim\">7</p>", "internal_node_id": "0.0-141.0-3.0", "time_elapsed": 1166420, "key_press": -1, "trial_index": 189}, "uniqueid": "MTK1906:33ISQZVXPQT84OB8XUL8MXO7O89CCN", "dateTime": 1516557985838}, {"current_trial": 190, "trialdata": {"rt": -1, "trial_type": "single-stim", "stimulus": "<p id=\"stim\">6</p>", "internal_node_id": "0.0-141.0-4.0", "time_elapsed": 1167421, "key_press": -1, "trial_index": 190}, "uniqueid": "MTK1906:33ISQZVXPQT84OB8XUL8MXO7O89CCN", "dateTime": 1516557986840}, {"current_trial": 191, "trialdata": {"rt": -1, "trial_type": "single-stim", "stimulus": "<p id=\"stim\">5</p>", "internal_node_id": "0.0-141.0-5.0", "time_elapsed": 1168422, "key_press": -1, "trial_index": 191}, "uniqueid": "MTK1906:33ISQZVXPQT84OB8XUL8MXO7O89CCN", "dateTime": 1516557987841}, {"current_trial": 192, "trialdata": {"rt": -1, "trial_type": "single-stim", "stimulus": "<p id=\"stim\">4</p>", "internal_node_id": "0.0-141.0-6.0", "time_elapsed": 1169424, "key_press": -1, "trial_index": 192}, "uniqueid": "MTK1906:33ISQZVXPQT84OB8XUL8MXO7O89CCN", "dateTime": 1516557988842}, {"current_trial": 193, "trialdata": {"rt": -1, "trial_type": "single-stim", "stimulus": "<p id=\"stim\">3</p>", "internal_node_id": "0.0-141.0-7.0", "time_elapsed": 1170426, "key_press": -1, "trial_index": 193}, "uniqueid": "MTK1906:33ISQZVXPQT84OB8XUL8MXO7O89CCN", "dateTime": 1516557989844}, {"current_trial": 194, "trialdata": {"rt": -1, "trial_type": "single-stim", "stimulus": "<p id=\"stim\">2</p>", "internal_node_id": "0.0-141.0-8.0", "time_elapsed": 1171428, "key_press": -1, "trial_index": 194}, "uniqueid": "MTK1906:33ISQZVXPQT84OB8XUL8MXO7O89CCN", "dateTime": 1516557990846}, {"current_trial": 195, "trialdata": {"rt": -1, "trial_type": "single-stim", "stimulus": "<p id=\"stim\">1</p>", "internal_node_id": "0.0-141.0-9.0", "time_elapsed": 1172430, "key_press": -1, "trial_index": 195}, "uniqueid": "MTK1906:33ISQZVXPQT84OB8XUL8MXO7O89CCN", "dateTime": 1516557991848}, {"current_trial": 196, "trialdata": {"rt": -1, "trial_type": "single-stim", "stimulus": "<p id=\"stim\">+</p>", "internal_node_id": "0.0-142.0-0.0", "time_elapsed": 1173931, "key_press": -1, "type": "FIXATION", "trial_index": 196}, "uniqueid": "MTK1906:33ISQZVXPQT84OB8XUL8MXO7O89CCN", "dateTime": 1516557993349}, {"current_trial": 197, "trialdata": {"rt": -1, "trial_type": "single-stim", "word": "infant", "stimulus": "<p id=\"stim\">INFANT</p>", "conditions": [24, 800, "v", 12000], "internal_node_id": "0.0-143.0", "trial": 5, "time_elapsed": 1174732, "serialpos": 0, "key_press": -1, "wordID": 736, "type": "PRES_VIS", "trial_index": 197}, "uniqueid": "MTK1906:33ISQZVXPQT84OB8XUL8MXO7O89CCN", "dateTime": 1516557994150}, {"current_trial": 198, "trialdata": {"rt": -1, "trial_type": "single-stim", "word": "balloon", "stimulus": "<p id=\"stim\">BALLOON</p>", "conditions": [24, 800, "v", 12000], "internal_node_id": "0.0-144.0", "trial": 5, "time_elapsed": 1176463, "serialpos": 1, "key_press": -1, "wordID": 74, "type": "PRES_VIS", "trial_index": 198}, "uniqueid": "MTK1906:33ISQZVXPQT84OB8XUL8MXO7O89CCN", "dateTime": 1516557995881}, {"current_trial": 199, "trialdata": {"rt": -1, "trial_type": "single-stim", "word": "necklace", "stimulus": "<p id=\"stim\">NECKLACE</p>", "conditions": [24, 800, "v", 12000], "internal_node_id": "0.0-145.0", "trial": 5, "time_elapsed": 1178406, "serialpos": 2, "key_press": -1, "wordID": 939, "type": "PRES_VIS", "trial_index": 199}, "uniqueid": "MTK1906:33ISQZVXPQT84OB8XUL8MXO7O89CCN", "dateTime": 1516557997825}, {"current_trial": 200, "trialdata": {"rt": -1, "trial_type": "single-stim", "word": "whistle", "stimulus": "<p id=\"stim\">WHISTLE</p>", "conditions": [24, 800, "v", 12000], "internal_node_id": "0.0-146.0", "trial": 5, "time_elapsed": 1180227, "serialpos": 3, "key_press": -1, "wordID": 1605, "type": "PRES_VIS", "trial_index": 200}, "uniqueid": "MTK1906:33ISQZVXPQT84OB8XUL8MXO7O89CCN", "dateTime": 1516557999645}, {"current_trial": 201, "trialdata": {"rt": -1, "trial_type": "single-stim", "word": "suitcase", "stimulus": "<p id=\"stim\">SUITCASE</p>", "conditions": [24, 800, "v", 12000], "internal_node_id": "0.0-147.0", "trial": 5, "time_elapsed": 1182160, "serialpos": 4, "key_press": -1, "wordID": 1402, "type": "PRES_VIS", "trial_index": 201}, "uniqueid": "MTK1906:33ISQZVXPQT84OB8XUL8MXO7O89CCN", "dateTime": 1516558001578}, {"current_trial": 202, "trialdata": {"rt": -1, "trial_type": "single-stim", "word": "handbag", "stimulus": "<p id=\"stim\">HANDBAG</p>", "conditions": [24, 800, "v", 12000], "internal_node_id": "0.0-148.0", "trial": 5, "time_elapsed": 1183854, "serialpos": 5, "key_press": -1, "wordID": 683, "type": "PRES_VIS", "trial_index": 202}, "uniqueid": "MTK1906:33ISQZVXPQT84OB8XUL8MXO7O89CCN", "dateTime": 1516558003272}, {"current_trial": 203, "trialdata": {"rt": -1, "trial_type": "single-stim", "word": "parent", "stimulus": "<p id=\"stim\">PARENT</p>", "conditions": [24, 800, "v", 12000], "internal_node_id": "0.0-149.0", "trial": 5, "time_elapsed": 1185707, "serialpos": 6, "key_press": -1, "wordID": 1012, "type": "PRES_VIS", "trial_index": 203}, "uniqueid": "MTK1906:33ISQZVXPQT84OB8XUL8MXO7O89CCN", "dateTime": 1516558005125}, {"current_trial": 204, "trialdata": {"rt": -1, "trial_type": "single-stim", "word": "playground", "stimulus": "<p id=\"stim\">PLAYGROUND</p>", "conditions": [24, 800, "v", 12000], "internal_node_id": "0.0-150.0", "trial": 5, "time_elapsed": 1187410, "serialpos": 7, "key_press": -1, "wordID": 1086, "type": "PRES_VIS", "trial_index": 204}, "uniqueid": "MTK1906:33ISQZVXPQT84OB8XUL8MXO7O89CCN", "dateTime": 1516558006828}, {"current_trial": 205, "trialdata": {"rt": -1, "trial_type": "single-stim", "word": "fruit", "stimulus": "<p id=\"stim\">FRUIT</p>", "conditions": [24, 800, "v", 12000], "internal_node_id": "0.0-151.0", "trial": 5, "time_elapsed": 1189015, "serialpos": 8, "key_press": -1, "wordID": 609, "type": "PRES_VIS", "trial_index": 205}, "uniqueid": "MTK1906:33ISQZVXPQT84OB8XUL8MXO7O89CCN", "dateTime": 1516558008433}, {"current_trial": 206, "trialdata": {"rt": -1, "trial_type": "single-stim", "word": "peach", "stimulus": "<p id=\"stim\">PEACH</p>", "conditions": [24, 800, "v", 12000], "internal_node_id": "0.0-152.0", "trial": 5, "time_elapsed": 1190859, "serialpos": 9, "key_press": -1, "wordID": 1030, "type": "PRES_VIS", "trial_index": 206}, "uniqueid": "MTK1906:33ISQZVXPQT84OB8XUL8MXO7O89CCN", "dateTime": 1516558010277}, {"current_trial": 207, "trialdata": {"rt": -1, "trial_type": "single-stim", "word": "match", "stimulus": "<p id=\"stim\">MATCH</p>", "conditions": [24, 800, "v", 12000], "internal_node_id": "0.0-153.0", "trial": 5, "time_elapsed": 1192548, "serialpos": 10, "key_press": -1, "wordID": 877, "type": "PRES_VIS", "trial_index": 207}, "uniqueid": "MTK1906:33ISQZVXPQT84OB8XUL8MXO7O89CCN", "dateTime": 1516558011966}, {"current_trial": 208, "trialdata": {"rt": -1, "trial_type": "single-stim", "word": "grill", "stimulus": "<p id=\"stim\">GRILL</p>", "conditions": [24, 800, "v", 12000], "internal_node_id": "0.0-154.0", "trial": 5, "time_elapsed": 1194150, "serialpos": 11, "key_press": -1, "wordID": 660, "type": "PRES_VIS", "trial_index": 208}, "uniqueid": "MTK1906:33ISQZVXPQT84OB8XUL8MXO7O89CCN", "dateTime": 1516558013568}, {"current_trial": 209, "trialdata": {"rt": -1, "trial_type": "single-stim", "word": "eyelash", "stimulus": "<p id=\"stim\">EYELASH</p>", "conditions": [24, 800, "v", 12000], "internal_node_id": "0.0-155.0", "trial": 5, "time_elapsed": 1196119, "serialpos": 12, "key_press": -1, "wordID": 545, "type": "PRES_VIS", "trial_index": 209}, "uniqueid": "MTK1906:33ISQZVXPQT84OB8XUL8MXO7O89CCN", "dateTime": 1516558015537}, {"current_trial": 210, "trialdata": {"rt": -1, "trial_type": "single-stim", "word": "panther", "stimulus": "<p id=\"stim\">PANTHER</p>", "conditions": [24, 800, "v", 12000], "internal_node_id": "0.0-156.0", "trial": 5, "time_elapsed": 1198102, "serialpos": 13, "key_press": -1, "wordID": 1008, "type": "PRES_VIS", "trial_index": 210}, "uniqueid": "MTK1906:33ISQZVXPQT84OB8XUL8MXO7O89CCN", "dateTime": 1516558017521}, {"current_trial": 211, "trialdata": {"rt": -1, "trial_type": "single-stim", "word": "cattle", "stimulus": "<p id=\"stim\">CATTLE</p>", "conditions": [24, 800, "v", 12000], "internal_node_id": "0.0-157.0", "trial": 5, "time_elapsed": 1200054, "serialpos": 14, "key_press": -1, "wordID": 260, "type": "PRES_VIS", "trial_index": 211}, "uniqueid": "MTK1906:33ISQZVXPQT84OB8XUL8MXO7O89CCN", "dateTime": 1516558019472}, {"current_trial": 212, "trialdata": {"rt": -1, "trial_type": "single-stim", "word": "honey", "stimulus": "<p id=\"stim\">HONEY</p>", "conditions": [24, 800, "v", 12000], "internal_node_id": "0.0-158.0", "trial": 5, "time_elapsed": 1201778, "serialpos": 15, "key_press": -1, "wordID": 712, "type": "PRES_VIS", "trial_index": 212}, "uniqueid": "MTK1906:33ISQZVXPQT84OB8XUL8MXO7O89CCN", "dateTime": 1516558021199}, {"current_trial": 213, "trialdata": {"rt": -1, "trial_type": "single-stim", "word": "vagrant", "stimulus": "<p id=\"stim\">VAGRANT</p>", "conditions": [24, 800, "v", 12000], "internal_node_id": "0.0-159.0", "trial": 5, "time_elapsed": 1203435, "serialpos": 16, "key_press": -1, "wordID": 1543, "type": "PRES_VIS", "trial_index": 213}, "uniqueid": "MTK1906:33ISQZVXPQT84OB8XUL8MXO7O89CCN", "dateTime": 1516558022853}, {"current_trial": 214, "trialdata": {"rt": -1, "trial_type": "single-stim", "word": "skillet", "stimulus": "<p id=\"stim\">SKILLET</p>", "conditions": [24, 800, "v", 12000], "internal_node_id": "0.0-160.0", "trial": 5, "time_elapsed": 1205108, "serialpos": 17, "key_press": -1, "wordID": 1316, "type": "PRES_VIS", "trial_index": 214}, "uniqueid": "MTK1906:33ISQZVXPQT84OB8XUL8MXO7O89CCN", "dateTime": 1516558024526}, {"current_trial": 215, "trialdata": {"rt": -1, "trial_type": "single-stim", "word": "penguin", "stimulus": "<p id=\"stim\">PENGUIN</p>", "conditions": [24, 800, "v", 12000], "internal_node_id": "0.0-161.0", "trial": 5, "time_elapsed": 1206998, "serialpos": 18, "key_press": -1, "wordID": 1043, "type": "PRES_VIS", "trial_index": 215}, "uniqueid": "MTK1906:33ISQZVXPQT84OB8XUL8MXO7O89CCN", "dateTime": 1516558026416}, {"current_trial": 216, "trialdata": {"rt": -1, "trial_type": "single-stim", "word": "proton", "stimulus": "<p id=\"stim\">PROTON</p>", "conditions": [24, 800, "v", 12000], "internal_node_id": "0.0-162.0", "trial": 5, "time_elapsed": 1208863, "serialpos": 19, "key_press": -1, "wordID": 1131, "type": "PRES_VIS", "trial_index": 216}, "uniqueid": "MTK1906:33ISQZVXPQT84OB8XUL8MXO7O89CCN", "dateTime": 1516558028281}, {"current_trial": 217, "trialdata": {"rt": -1, "trial_type": "single-stim", "word": "fox", "stimulus": "<p id=\"stim\">FOX</p>", "conditions": [24, 800, "v", 12000], "internal_node_id": "0.0-163.0", "trial": 5, "time_elapsed": 1210519, "serialpos": 20, "key_press": -1, "wordID": 597, "type": "PRES_VIS", "trial_index": 217}, "uniqueid": "MTK1906:33ISQZVXPQT84OB8XUL8MXO7O89CCN", "dateTime": 1516558029937}, {"current_trial": 218, "trialdata": {"rt": -1, "trial_type": "single-stim", "word": "rooster", "stimulus": "<p id=\"stim\">ROOSTER</p>", "conditions": [24, 800, "v", 12000], "internal_node_id": "0.0-164.0", "trial": 5, "time_elapsed": 1212277, "serialpos": 21, "key_press": -1, "wordID": 1208, "type": "PRES_VIS", "trial_index": 218}, "uniqueid": "MTK1906:33ISQZVXPQT84OB8XUL8MXO7O89CCN", "dateTime": 1516558031695}, {"current_trial": 219, "trialdata": {"rt": -1, "trial_type": "single-stim", "word": "spoon", "stimulus": "<p id=\"stim\">SPOON</p>", "conditions": [24, 800, "v", 12000], "internal_node_id": "0.0-165.0", "trial": 5, "time_elapsed": 1214006, "serialpos": 22, "key_press": -1, "wordID": 1356, "type": "PRES_VIS", "trial_index": 219}, "uniqueid": "MTK1906:33ISQZVXPQT84OB8XUL8MXO7O89CCN", "dateTime": 1516558033424}, {"current_trial": 220, "trialdata": {"rt": -1, "trial_type": "single-stim", "word": "cottage", "stimulus": "<p id=\"stim\">COTTAGE</p>", "conditions": [24, 800, "v", 12000], "internal_node_id": "0.0-166.0", "trial": 5, "time_elapsed": 1215828, "serialpos": 23, "key_press": -1, "wordID": 383, "type": "PRES_VIS", "trial_index": 220}, "uniqueid": "MTK1906:33ISQZVXPQT84OB8XUL8MXO7O89CCN", "dateTime": 1516558035247}, {"current_trial": 221, "trialdata": {"rt": -1, "trial_type": "single-stim", "stimulus": "", "internal_node_id": "0.0-167.0-0.0", "time_elapsed": 1218231, "key_press": -1, "type": "PRE_RECALL_DELAY", "trial_index": 221}, "uniqueid": "MTK1906:33ISQZVXPQT84OB8XUL8MXO7O89CCN", "dateTime": 1516558037649}, {"current_trial": 222, "trialdata": {"rt": -1000, "trial_type": "single-audio", "stimulus": "/static/audio/400Hz.wav", "internal_node_id": "0.0-168.0", "time_elapsed": 1218733, "key_press": -1, "type": "PRE_RECALL_ALERT", "trial_index": 222}, "uniqueid": "MTK1906:33ISQZVXPQT84OB8XUL8MXO7O89CCN", "dateTime": 1516558038151}, {"current_trial": 223, "trialdata": {"rt": [6015, 7982, 9061, 13765, 20832, 24875, 30607, 34007, 36371, 37888, 43563], "recwords": ["penguin", "rooster", "fox", "cattle", "handbag", "suitcase", "spoon", "peach", "grill", "match", "balloon"], "key_times": [3792, 4090, 4365, 4969, 5295, 5483, 5742, 6015, 6482, 6696, 6822, 7228, 7464, 7660, 7732, 7982, 8424, 8643, 8877, 9061, 12269, 12511, 12882, 13009, 13168, 13330, 13765, 18724, 19317, 19506, 19702, 20051, 20331, 20532, 20832, 23101, 23401, 23602, 23739, 24052, 24241, 24458, 24591, 24875, 28801, 29244, 29540, 29668, 29967, 30607, 32740, 32944, 33124, 33247, 33587, 34007, 35393, 35586, 35762, 35973, 36107, 36371, 37005, 37185, 37273, 37530, 37615, 37888, 41785, 41961, 42130, 42247, 42471, 42599, 43311, 43563], "trial_type": "free-recall", "conditions": [24, 800, "v", 12000], "internal_node_id": "0.0-169.0-0.0", "key_presses": [80, 69, 78, 71, 85, 73, 78, 13, 82, 79, 79, 83, 84, 69, 82, 13, 70, 79, 88, 13, 67, 65, 84, 84, 76, 69, 13, 72, 65, 78, 68, 66, 65, 71, 13, 83, 85, 73, 84, 67, 65, 83, 69, 13, 83, 80, 79, 79, 78, 13, 80, 69, 65, 67, 72, 13, 71, 82, 73, 76, 76, 13, 77, 65, 84, 67, 72, 13, 66, 65, 76, 76, 79, 79, 78, 13], "trial": 5, "time_elapsed": 1278737, "type": "FREE_RECALL", "trial_index": 223}, "uniqueid": "MTK1906:33ISQZVXPQT84OB8XUL8MXO7O89CCN", "dateTime": 1516558098159}, {"current_trial": 224, "trialdata": {"rt": 10274, "trial_type": "text", "internal_node_id": "0.0-170.0", "time_elapsed": 1291016, "key_press": 13, "type": "INSTRUCTIONS", "trial_index": 224}, "uniqueid": "MTK1906:33ISQZVXPQT84OB8XUL8MXO7O89CCN", "dateTime": 1516558110434}, {"current_trial": 225, "trialdata": {"rt": [2996, 5856, 7348, 10198, 13221, 15025, 17717, 19837, 22659], "trial_type": "math-distractor", "key_times": [2591, 2836, 2996, 5389, 5671, 5856, 7017, 7202, 7348, 9844, 10058, 10198, 12888, 13098, 13221, 14755, 14907, 15025, 17586, 17717, 19455, 19694, 19837, 22239, 22659], "responses": ["18", "17", "14", "14", "12", "11", "9", "18", "1"], "num2": [3, 6, 5, 5, 3, 4, 4, 6, 7, 1], "num3": [7, 5, 4, 2, 6, 5, 2, 4, 9, 8], "conditions": [24, 800, "v", 24000], "internal_node_id": "0.0-171.0", "key_presses": [97, 104, 13, 97, 103, 13, 97, 100, 13, 97, 100, 13, 97, 98, 13, 97, 97, 13, 105, 13, 97, 104, 13, 97, 13], "trial": 6, "time_elapsed": 1317020, "type": "DISTRACTOR", "trial_index": 225, "num1": [8, 6, 5, 7, 3, 2, 3, 8, 3, 7]}, "uniqueid": "MTK1906:33ISQZVXPQT84OB8XUL8MXO7O89CCN", "dateTime": 1516558136438}, {"current_trial": 226, "trialdata": {"rt": -1, "trial_type": "single-stim", "stimulus": "<p id=\"stim\">10</p>", "internal_node_id": "0.0-172.0-0.0", "time_elapsed": 1320022, "key_press": -1, "trial_index": 226}, "uniqueid": "MTK1906:33ISQZVXPQT84OB8XUL8MXO7O89CCN", "dateTime": 1516558139440}, {"current_trial": 227, "trialdata": {"rt": -1, "trial_type": "single-stim", "stimulus": "<p id=\"stim\">9</p>", "internal_node_id": "0.0-172.0-1.0", "time_elapsed": 1321023, "key_press": -1, "trial_index": 227}, "uniqueid": "MTK1906:33ISQZVXPQT84OB8XUL8MXO7O89CCN", "dateTime": 1516558140441}, {"current_trial": 228, "trialdata": {"rt": -1, "trial_type": "single-stim", "stimulus": "<p id=\"stim\">8</p>", "internal_node_id": "0.0-172.0-2.0", "time_elapsed": 1322024, "key_press": -1, "trial_index": 228}, "uniqueid": "MTK1906:33ISQZVXPQT84OB8XUL8MXO7O89CCN", "dateTime": 1516558141443}, {"current_trial": 229, "trialdata": {"rt": -1, "trial_type": "single-stim", "stimulus": "<p id=\"stim\">7</p>", "internal_node_id": "0.0-172.0-3.0", "time_elapsed": 1323025, "key_press": -1, "trial_index": 229}, "uniqueid": "MTK1906:33ISQZVXPQT84OB8XUL8MXO7O89CCN", "dateTime": 1516558142444}, {"current_trial": 230, "trialdata": {"rt": -1, "trial_type": "single-stim", "stimulus": "<p id=\"stim\">6</p>", "internal_node_id": "0.0-172.0-4.0", "time_elapsed": 1324026, "key_press": -1, "trial_index": 230}, "uniqueid": "MTK1906:33ISQZVXPQT84OB8XUL8MXO7O89CCN", "dateTime": 1516558143445}, {"current_trial": 231, "trialdata": {"rt": -1, "trial_type": "single-stim", "stimulus": "<p id=\"stim\">5</p>", "internal_node_id": "0.0-172.0-5.0", "time_elapsed": 1325028, "key_press": -1, "trial_index": 231}, "uniqueid": "MTK1906:33ISQZVXPQT84OB8XUL8MXO7O89CCN", "dateTime": 1516558144446}, {"current_trial": 232, "trialdata": {"rt": -1, "trial_type": "single-stim", "stimulus": "<p id=\"stim\">4</p>", "internal_node_id": "0.0-172.0-6.0", "time_elapsed": 1326029, "key_press": -1, "trial_index": 232}, "uniqueid": "MTK1906:33ISQZVXPQT84OB8XUL8MXO7O89CCN", "dateTime": 1516558145447}, {"current_trial": 233, "trialdata": {"rt": -1, "trial_type": "single-stim", "stimulus": "<p id=\"stim\">3</p>", "internal_node_id": "0.0-172.0-7.0", "time_elapsed": 1327030, "key_press": -1, "trial_index": 233}, "uniqueid": "MTK1906:33ISQZVXPQT84OB8XUL8MXO7O89CCN", "dateTime": 1516558146449}, {"current_trial": 234, "trialdata": {"rt": -1, "trial_type": "single-stim", "stimulus": "<p id=\"stim\">2</p>", "internal_node_id": "0.0-172.0-8.0", "time_elapsed": 1328031, "key_press": -1, "trial_index": 234}, "uniqueid": "MTK1906:33ISQZVXPQT84OB8XUL8MXO7O89CCN", "dateTime": 1516558147450}, {"current_trial": 235, "trialdata": {"rt": -1, "trial_type": "single-stim", "stimulus": "<p id=\"stim\">1</p>", "internal_node_id": "0.0-172.0-9.0", "time_elapsed": 1329033, "key_press": -1, "trial_index": 235}, "uniqueid": "MTK1906:33ISQZVXPQT84OB8XUL8MXO7O89CCN", "dateTime": 1516558148451}, {"current_trial": 236, "trialdata": {"rt": -1, "trial_type": "single-stim", "stimulus": "<p id=\"stim\">+</p>", "internal_node_id": "0.0-173.0-0.0", "time_elapsed": 1330534, "key_press": -1, "type": "FIXATION", "trial_index": 236}, "uniqueid": "MTK1906:33ISQZVXPQT84OB8XUL8MXO7O89CCN", "dateTime": 1516558149952}, {"current_trial": 237, "trialdata": {"rt": -1, "trial_type": "single-stim", "word": "pork", "stimulus": "<p id=\"stim\">PORK</p>", "conditions": [24, 800, "v", 24000], "internal_node_id": "0.0-174.0", "trial": 6, "time_elapsed": 1331335, "serialpos": 0, "key_press": -1, "wordID": 1107, "type": "PRES_VIS", "trial_index": 237}, "uniqueid": "MTK1906:33ISQZVXPQT84OB8XUL8MXO7O89CCN", "dateTime": 1516558150754}, {"current_trial": 238, "trialdata": {"rt": -1, "trial_type": "single-stim", "word": "umpire", "stimulus": "<p id=\"stim\">UMPIRE</p>", "conditions": [24, 800, "v", 24000], "internal_node_id": "0.0-175.0", "trial": 6, "time_elapsed": 1333289, "serialpos": 1, "key_press": -1, "wordID": 1534, "type": "PRES_VIS", "trial_index": 238}, "uniqueid": "MTK1906:33ISQZVXPQT84OB8XUL8MXO7O89CCN", "dateTime": 1516558152707}, {"current_trial": 239, "trialdata": {"rt": -1, "trial_type": "single-stim", "word": "robber", "stimulus": "<p id=\"stim\">ROBBER</p>", "conditions": [24, 800, "v", 24000], "internal_node_id": "0.0-176.0", "trial": 6, "time_elapsed": 1335030, "serialpos": 2, "key_press": -1, "wordID": 1196, "type": "PRES_VIS", "trial_index": 239}, "uniqueid": "MTK1906:33ISQZVXPQT84OB8XUL8MXO7O89CCN", "dateTime": 1516558154448}, {"current_trial": 240, "trialdata": {"rt": -1, "trial_type": "single-stim", "word": "cashier", "stimulus": "<p id=\"stim\">CASHIER</p>", "conditions": [24, 800, "v", 24000], "internal_node_id": "0.0-177.0", "trial": 6, "time_elapsed": 1336955, "serialpos": 3, "key_press": -1, "wordID": 253, "type": "PRES_VIS", "trial_index": 240}, "uniqueid": "MTK1906:33ISQZVXPQT84OB8XUL8MXO7O89CCN", "dateTime": 1516558156373}, {"current_trial": 241, "trialdata": {"rt": -1, "trial_type": "single-stim", "word": "knife", "stimulus": "<p id=\"stim\">KNIFE</p>", "conditions": [24, 800, "v", 24000], "internal_node_id": "0.0-178.0", "trial": 6, "time_elapsed": 1338909, "serialpos": 4, "key_press": -1, "wordID": 784, "type": "PRES_VIS", "trial_index": 241}, "uniqueid": "MTK1906:33ISQZVXPQT84OB8XUL8MXO7O89CCN", "dateTime": 1516558158327}, {"current_trial": 242, "trialdata": {"rt": -1, "trial_type": "single-stim", "word": "seafood", "stimulus": "<p id=\"stim\">SEAFOOD</p>", "conditions": [24, 800, "v", 24000], "internal_node_id": "0.0-179.0", "trial": 6, "time_elapsed": 1340835, "serialpos": 5, "key_press": -1, "wordID": 1259, "type": "PRES_VIS", "trial_index": 242}, "uniqueid": "MTK1906:33ISQZVXPQT84OB8XUL8MXO7O89CCN", "dateTime": 1516558160253}, {"current_trial": 243, "trialdata": {"rt": -1, "trial_type": "single-stim", "word": "headband", "stimulus": "<p id=\"stim\">HEADBAND</p>", "conditions": [24, 800, "v", 24000], "internal_node_id": "0.0-180.0", "trial": 6, "time_elapsed": 1342528, "serialpos": 6, "key_press": -1, "wordID": 695, "type": "PRES_VIS", "trial_index": 243}, "uniqueid": "MTK1906:33ISQZVXPQT84OB8XUL8MXO7O89CCN", "dateTime": 1516558161946}, {"current_trial": 244, "trialdata": {"rt": -1, "trial_type": "single-stim", "word": "dress", "stimulus": "<p id=\"stim\">DRESS</p>", "conditions": [24, 800, "v", 24000], "internal_node_id": "0.0-181.0", "trial": 6, "time_elapsed": 1344187, "serialpos": 7, "key_press": -1, "wordID": 494, "type": "PRES_VIS", "trial_index": 244}, "uniqueid": "MTK1906:33ISQZVXPQT84OB8XUL8MXO7O89CCN", "dateTime": 1516558163606}, {"current_trial": 245, "trialdata": {"rt": -1, "trial_type": "single-stim", "word": "highway", "stimulus": "<p id=\"stim\">HIGHWAY</p>", "conditions": [24, 800, "v", 24000], "internal_node_id": "0.0-182.0", "trial": 6, "time_elapsed": 1345911, "serialpos": 8, "key_press": -1, "wordID": 706, "type": "PRES_VIS", "trial_index": 245}, "uniqueid": "MTK1906:33ISQZVXPQT84OB8XUL8MXO7O89CCN", "dateTime": 1516558165330}, {"current_trial": 246, "trialdata": {"rt": -1, "trial_type": "single-stim", "word": "tourist", "stimulus": "<p id=\"stim\">TOURIST</p>", "conditions": [24, 800, "v", 24000], "internal_node_id": "0.0-183.0", "trial": 6, "time_elapsed": 1347613, "serialpos": 9, "key_press": -1, "wordID": 1487, "type": "PRES_VIS", "trial_index": 246}, "uniqueid": "MTK1906:33ISQZVXPQT84OB8XUL8MXO7O89CCN", "dateTime": 1516558167032}, {"current_trial": 247, "trialdata": {"rt": -1, "trial_type": "single-stim", "word": "pliers", "stimulus": "<p id=\"stim\">PLIERS</p>", "conditions": [24, 800, "v", 24000], "internal_node_id": "0.0-184.0", "trial": 6, "time_elapsed": 1349325, "serialpos": 10, "key_press": -1, "wordID": 1088, "type": "PRES_VIS", "trial_index": 247}, "uniqueid": "MTK1906:33ISQZVXPQT84OB8XUL8MXO7O89CCN", "dateTime": 1516558168743}, {"current_trial": 248, "trialdata": {"rt": -1, "trial_type": "single-stim", "word": "actress", "stimulus": "<p id=\"stim\">ACTRESS</p>", "conditions": [24, 800, "v", 24000], "internal_node_id": "0.0-185.0", "trial": 6, "time_elapsed": 1350995, "serialpos": 11, "key_press": -1, "wordID": 5, "type": "PRES_VIS", "trial_index": 248}, "uniqueid": "MTK1906:33ISQZVXPQT84OB8XUL8MXO7O89CCN", "dateTime": 1516558170414}, {"current_trial": 249, "trialdata": {"rt": -1, "trial_type": "single-stim", "word": "sandwich", "stimulus": "<p id=\"stim\">SANDWICH</p>", "conditions": [24, 800, "v", 24000], "internal_node_id": "0.0-186.0", "trial": 6, "time_elapsed": 1352601, "serialpos": 12, "key_press": -1, "wordID": 1231, "type": "PRES_VIS", "trial_index": 249}, "uniqueid": "MTK1906:33ISQZVXPQT84OB8XUL8MXO7O89CCN", "dateTime": 1516558172019}, {"current_trial": 250, "trialdata": {"rt": -1, "trial_type": "single-stim", "word": "compass", "stimulus": "<p id=\"stim\">COMPASS</p>", "conditions": [24, 800, "v", 24000], "internal_node_id": "0.0-187.0", "trial": 6, "time_elapsed": 1354247, "serialpos": 13, "key_press": -1, "wordID": 357, "type": "PRES_VIS", "trial_index": 250}, "uniqueid": "MTK1906:33ISQZVXPQT84OB8XUL8MXO7O89CCN", "dateTime": 1516558173665}, {"current_trial": 251, "trialdata": {"rt": -1, "trial_type": "single-stim", "word": "beaker", "stimulus": "<p id=\"stim\">BEAKER</p>", "conditi