{"condition": 0, "counterbalance": 1341, "assignmentId": "3MX2NQ3YCA1B81DO9GUNM437T8F5X8", "workerId": "MTK1022", "hitId": "3OJX0UFJ0ZE050NBHZRFPTDL5DIU9O", "currenttrial": 626, "bonus": 0, "data": [{"uniqueid": "MTK1022:3MX2NQ3YCA1B81DO9GUNM437T8F5X8", "current_trial": 0, "dateTime": 1513011330302, "trialdata": {"rt": 19971, "key_press": 32, "type": "INSTRUCTIONS", "trial_type": "text", "trial_index": 0, "time_elapsed": 19973, "internal_node_id": "0.0-0.0"}}, {"uniqueid": "MTK1022:3MX2NQ3YCA1B81DO9GUNM437T8F5X8", "current_trial": 1, "dateTime": 1513011343004, "trialdata": {"rt": 12701, "key_press": 32, "type": "INSTRUCTIONS", "trial_type": "text", "trial_index": 1, "time_elapsed": 32677, "internal_node_id": "0.0-1.0"}}, {"uniqueid": "MTK1022:3MX2NQ3YCA1B81DO9GUNM437T8F5X8", "current_trial": 2, "dateTime": 1513011355725, "trialdata": {"rt": [12712], "responses": ["ocean"], "type": "AUDIO_TEST", "trial_type": "audio-test", "trial_index": 2, "time_elapsed": 45397, "internal_node_id": "0.0-2.0"}}, {"uniqueid": "MTK1022:3MX2NQ3YCA1B81DO9GUNM437T8F5X8", "current_trial": 3, "dateTime": 1513011380572, "trialdata": {"rt": [24843], "responses": ["crystal"], "type": "AUDIO_TEST", "trial_type": "audio-test", "trial_index": 3, "time_elapsed": 70244, "internal_node_id": "0.0-3.0"}}, {"uniqueid": "MTK1022:3MX2NQ3YCA1B81DO9GUNM437T8F5X8", "current_trial": 4, "dateTime": 1513011385676, "trialdata": {"rt": [5101], "responses": ["spice"], "type": "AUDIO_TEST", "trial_type": "audio-test", "trial_index": 4, "time_elapsed": 75348, "internal_node_id": "0.0-4.0"}}, {"uniqueid": "MTK1022:3MX2NQ3YCA1B81DO9GUNM437T8F5X8", "current_trial": 5, "dateTime": 1513011404115, "trialdata": {"rt": 17686, "responses": "{\"Q0\":\"2200\",\"Q1\":\"800\",\"Q2\":\"5\"}", "type": "SLEEP_SURVEY", "trial_type": "survey-text", "trial_index": 5, "time_elapsed": 93788, "internal_node_id": "0.0-5.0"}}, {"uniqueid": "MTK1022:3MX2NQ3YCA1B81DO9GUNM437T8F5X8", "current_trial": 6, "dateTime": 1513011411339, "trialdata": {"rt": 6223, "key_press": 32, "type": "INSTRUCTIONS", "trial_type": "text", "trial_index": 6, "time_elapsed": 101012, "internal_node_id": "0.0-6.0"}}, {"uniqueid": "MTK1022:3MX2NQ3YCA1B81DO9GUNM437T8F5X8", "current_trial": 7, "dateTime": 1513011422187, "trialdata": {"rt": 10347, "key_press": 32, "type": "INSTRUCTIONS", "trial_type": "text", "trial_index": 7, "time_elapsed": 111860, "internal_node_id": "0.0-7.0"}}, {"uniqueid": "MTK1022:3MX2NQ3YCA1B81DO9GUNM437T8F5X8", "current_trial": 8, "dateTime": 1513011427707, "trialdata": {"rt": 5019, "key_press": 32, "type": "INSTRUCTIONS", "trial_type": "text", "trial_index": 8, "time_elapsed": 117380, "internal_node_id": "0.0-8.0"}}, {"uniqueid": "MTK1022:3MX2NQ3YCA1B81DO9GUNM437T8F5X8", "current_trial": 9, "dateTime": 1513011446739, "trialdata": {"rt": [4473, 7625, 10969, 13145, 15129, 17065], "responses": ["18", "16", "17", "8", "18", "8"], "num1": [4, 4, 8, 2, 8, 6, 7], "num2": [5, 8, 6, 5, 8, 1, 6], "num3": [9, 4, 3, 1, 2, 1, 5], "type": "DISTRACTOR", "conditions": [18, 1200, "a", 18000], "trial": 0, "trial_type": "math-distractor", "trial_index": 9, "time_elapsed": 136412, "internal_node_id": "0.0-9.0"}}, {"uniqueid": "MTK1022:3MX2NQ3YCA1B81DO9GUNM437T8F5X8", "current_trial": 10, "dateTime": 1513011449741, "trialdata": {"rt": -1, "stimulus": "<p id=\"stim\">10</p>", "key_press": -1, "trial_type": "single-stim", "trial_index": 10, "time_elapsed": 139414, "internal_node_id": "0.0-10.0-0.0"}}, {"uniqueid": "MTK1022:3MX2NQ3YCA1B81DO9GUNM437T8F5X8", "current_trial": 11, "dateTime": 1513011450744, "trialdata": {"rt": -1, "stimulus": "<p id=\"stim\">9</p>", "key_press": -1, "trial_type": "single-stim", "trial_index": 11, "time_elapsed": 140417, "internal_node_id": "0.0-10.0-1.0"}}, {"uniqueid": "MTK1022:3MX2NQ3YCA1B81DO9GUNM437T8F5X8", "current_trial": 12, "dateTime": 1513011451745, "trialdata": {"rt": -1, "stimulus": "<p id=\"stim\">8</p>", "key_press": -1, "trial_type": "single-stim", "trial_index": 12, "time_elapsed": 141418, "internal_node_id": "0.0-10.0-2.0"}}, {"uniqueid": "MTK1022:3MX2NQ3YCA1B81DO9GUNM437T8F5X8", "current_trial": 13, "dateTime": 1513011452746, "trialdata": {"rt": -1, "stimulus": "<p id=\"stim\">7</p>", "key_press": -1, "trial_type": "single-stim", "trial_index": 13, "time_elapsed": 142419, "internal_node_id": "0.0-10.0-3.0"}}, {"uniqueid": "MTK1022:3MX2NQ3YCA1B81DO9GUNM437T8F5X8", "current_trial": 14, "dateTime": 1513011453748, "trialdata": {"rt": -1, "stimulus": "<p id=\"stim\">6</p>", "key_press": -1, "trial_type": "single-stim", "trial_index": 14, "time_elapsed": 143421, "internal_node_id": "0.0-10.0-4.0"}}, {"uniqueid": "MTK1022:3MX2NQ3YCA1B81DO9GUNM437T8F5X8", "current_trial": 15, "dateTime": 1513011454750, "trialdata": {"rt": -1, "stimulus": "<p id=\"stim\">5</p>", "key_press": -1, "trial_type": "single-stim", "trial_index": 15, "time_elapsed": 144423, "internal_node_id": "0.0-10.0-5.0"}}, {"uniqueid": "MTK1022:3MX2NQ3YCA1B81DO9GUNM437T8F5X8", "current_trial": 16, "dateTime": 1513011455753, "trialdata": {"rt": -1, "stimulus": "<p id=\"stim\">4</p>", "key_press": -1, "trial_type": "single-stim", "trial_index": 16, "time_elapsed": 145426, "internal_node_id": "0.0-10.0-6.0"}}, {"uniqueid": "MTK1022:3MX2NQ3YCA1B81DO9GUNM437T8F5X8", "current_trial": 17, "dateTime": 1513011456753, "trialdata": {"rt": -1, "stimulus": "<p id=\"stim\">3</p>", "key_press": -1, "trial_type": "single-stim", "trial_index": 17, "time_elapsed": 146426, "internal_node_id": "0.0-10.0-7.0"}}, {"uniqueid": "MTK1022:3MX2NQ3YCA1B81DO9GUNM437T8F5X8", "current_trial": 18, "dateTime": 1513011457754, "trialdata": {"rt": -1, "stimulus": "<p id=\"stim\">2</p>", "key_press": -1, "trial_type": "single-stim", "trial_index": 18, "time_elapsed": 147427, "internal_node_id": "0.0-10.0-8.0"}}, {"uniqueid": "MTK1022:3MX2NQ3YCA1B81DO9GUNM437T8F5X8", "current_trial": 19, "dateTime": 1513011458755, "trialdata": {"rt": -1, "stimulus": "<p id=\"stim\">1</p>", "key_press": -1, "trial_type": "single-stim", "trial_index": 19, "time_elapsed": 148428, "internal_node_id": "0.0-10.0-9.0"}}, {"uniqueid": "MTK1022:3MX2NQ3YCA1B81DO9GUNM437T8F5X8", "current_trial": 20, "dateTime": 1513011460256, "trialdata": {"rt": -1, "stimulus": "<p id=\"stim\">+</p>", "key_press": -1, "type": "FIXATION", "trial_type": "single-stim", "trial_index": 20, "time_elapsed": 149929, "internal_node_id": "0.0-11.0-0.0"}}, {"uniqueid": "MTK1022:3MX2NQ3YCA1B81DO9GUNM437T8F5X8", "current_trial": 21, "dateTime": 1513011462322, "trialdata": {"rt": -1000, "stimulus": "/static/audio/wordpool/COSTUME.wav", "key_press": -1, "type": "PRES_AUD", "word": "costume", "wordID": 382, "conditions": [18, 1200, "a", 18000], "trial": 0, "serialpos": 0, "trial_type": "single-audio", "trial_index": 21, "time_elapsed": 151995, "internal_node_id": "0.0-12.0"}}, {"uniqueid": "MTK1022:3MX2NQ3YCA1B81DO9GUNM437T8F5X8", "current_trial": 22, "dateTime": 1513011464531, "trialdata": {"rt": -1000, "stimulus": "/static/audio/wordpool/LADY.wav", "key_press": -1, "type": "PRES_AUD", "word": "lady", "wordID": 793, "conditions": [18, 1200, "a", 18000], "trial": 0, "serialpos": 1, "trial_type": "single-audio", "trial_index": 22, "time_elapsed": 154203, "internal_node_id": "0.0-13.0"}}, {"uniqueid": "MTK1022:3MX2NQ3YCA1B81DO9GUNM437T8F5X8", "current_trial": 23, "dateTime": 1513011466614, "trialdata": {"rt": -1000, "stimulus": "/static/audio/wordpool/LIPSTICK.wav", "key_press": -1, "type": "PRES_AUD", "word": "lipstick", "wordID": 828, "conditions": [18, 1200, "a", 18000], "trial": 0, "serialpos": 2, "trial_type": "single-audio", "trial_index": 23, "time_elapsed": 156287, "internal_node_id": "0.0-14.0"}}, {"uniqueid": "MTK1022:3MX2NQ3YCA1B81DO9GUNM437T8F5X8", "current_trial": 24, "dateTime": 1513011468928, "trialdata": {"rt": -1000, "stimulus": "/static/audio/wordpool/BANK.wav", "key_press": -1, "type": "PRES_AUD", "word": "bank", "wordID": 82, "conditions": [18, 1200, "a", 18000], "trial": 0, "serialpos": 3, "trial_type": "single-audio", "trial_index": 24, "time_elapsed": 158601, "internal_node_id": "0.0-15.0"}}, {"uniqueid": "MTK1022:3MX2NQ3YCA1B81DO9GUNM437T8F5X8", "current_trial": 25, "dateTime": 1513011471322, "trialdata": {"rt": -1000, "stimulus": "/static/audio/wordpool/PATIENT.wav", "key_press": -1, "type": "PRES_AUD", "word": "patient", "wordID": 1023, "conditions": [18, 1200, "a", 18000], "trial": 0, "serialpos": 4, "trial_type": "single-audio", "trial_index": 25, "time_elapsed": 160995, "internal_node_id": "0.0-16.0"}}, {"uniqueid": "MTK1022:3MX2NQ3YCA1B81DO9GUNM437T8F5X8", "current_trial": 26, "dateTime": 1513011473583, "trialdata": {"rt": -1000, "stimulus": "/static/audio/wordpool/PEANUT.wav", "key_press": -1, "type": "PRES_AUD", "word": "peanut", "wordID": 1031, "conditions": [18, 1200, "a", 18000], "trial": 0, "serialpos": 5, "trial_type": "single-audio", "trial_index": 26, "time_elapsed": 163256, "internal_node_id": "0.0-17.0"}}, {"uniqueid": "MTK1022:3MX2NQ3YCA1B81DO9GUNM437T8F5X8", "current_trial": 27, "dateTime": 1513011475812, "trialdata": {"rt": -1000, "stimulus": "/static/audio/wordpool/BULLET.wav", "key_press": -1, "type": "PRES_AUD", "word": "bullet", "wordID": 193, "conditions": [18, 1200, "a", 18000], "trial": 0, "serialpos": 6, "trial_type": "single-audio", "trial_index": 27, "time_elapsed": 165485, "internal_node_id": "0.0-18.0"}}, {"uniqueid": "MTK1022:3MX2NQ3YCA1B81DO9GUNM437T8F5X8", "current_trial": 28, "dateTime": 1513011477860, "trialdata": {"rt": -1000, "stimulus": "/static/audio/wordpool/DAISY.wav", "key_press": -1, "type": "PRES_AUD", "word": "daisy", "wordID": 434, "conditions": [18, 1200, "a", 18000], "trial": 0, "serialpos": 7, "trial_type": "single-audio", "trial_index": 28, "time_elapsed": 167533, "internal_node_id": "0.0-19.0"}}, {"uniqueid": "MTK1022:3MX2NQ3YCA1B81DO9GUNM437T8F5X8", "current_trial": 29, "dateTime": 1513011480129, "trialdata": {"rt": -1000, "stimulus": "/static/audio/wordpool/ANTLER.wav", "key_press": -1, "type": "PRES_AUD", "word": "antler", "wordID": 28, "conditions": [18, 1200, "a", 18000], "trial": 0, "serialpos": 8, "trial_type": "single-audio", "trial_index": 29, "time_elapsed": 169802, "internal_node_id": "0.0-20.0"}}, {"uniqueid": "MTK1022:3MX2NQ3YCA1B81DO9GUNM437T8F5X8", "current_trial": 30, "dateTime": 1513011482314, "trialdata": {"rt": -1000, "stimulus": "/static/audio/wordpool/SAUSAGE.wav", "key_press": -1, "type": "PRES_AUD", "word": "sausage", "wordID": 1237, "conditions": [18, 1200, "a", 18000], "trial": 0, "serialpos": 9, "trial_type": "single-audio", "trial_index": 30, "time_elapsed": 171987, "internal_node_id": "0.0-21.0"}}, {"uniqueid": "MTK1022:3MX2NQ3YCA1B81DO9GUNM437T8F5X8", "current_trial": 31, "dateTime": 1513011484628, "trialdata": {"rt": -1000, "stimulus": "/static/audio/wordpool/RUG.wav", "key_press": -1, "type": "PRES_AUD", "word": "rug", "wordID": 1214, "conditions": [18, 1200, "a", 18000], "trial": 0, "serialpos": 10, "trial_type": "single-audio", "trial_index": 31, "time_elapsed": 174301, "internal_node_id": "0.0-22.0"}}, {"uniqueid": "MTK1022:3MX2NQ3YCA1B81DO9GUNM437T8F5X8", "current_trial": 32, "dateTime": 1513011486917, "trialdata": {"rt": -1000, "stimulus": "/static/audio/wordpool/WRIST.wav", "key_press": -1, "type": "PRES_AUD", "word": "wrist", "wordID": 1625, "conditions": [18, 1200, "a", 18000], "trial": 0, "serialpos": 11, "trial_type": "single-audio", "trial_index": 32, "time_elapsed": 176589, "internal_node_id": "0.0-23.0"}}, {"uniqueid": "MTK1022:3MX2NQ3YCA1B81DO9GUNM437T8F5X8", "current_trial": 33, "dateTime": 1513011489274, "trialdata": {"rt": -1000, "stimulus": "/static/audio/wordpool/HATCHET.wav", "key_press": -1, "type": "PRES_AUD", "word": "hatchet", "wordID": 690, "conditions": [18, 1200, "a", 18000], "trial": 0, "serialpos": 12, "trial_type": "single-audio", "trial_index": 33, "time_elapsed": 178947, "internal_node_id": "0.0-24.0"}}, {"uniqueid": "MTK1022:3MX2NQ3YCA1B81DO9GUNM437T8F5X8", "current_trial": 34, "dateTime": 1513011491425, "trialdata": {"rt": -1000, "stimulus": "/static/audio/wordpool/COWBOY.wav", "key_press": -1, "type": "PRES_AUD", "word": "cowboy", "wordID": 394, "conditions": [18, 1200, "a", 18000], "trial": 0, "serialpos": 13, "trial_type": "single-audio", "trial_index": 34, "time_elapsed": 181098, "internal_node_id": "0.0-25.0"}}, {"uniqueid": "MTK1022:3MX2NQ3YCA1B81DO9GUNM437T8F5X8", "current_trial": 35, "dateTime": 1513011493821, "trialdata": {"rt": -1000, "stimulus": "/static/audio/wordpool/ANKLE.wav", "key_press": -1, "type": "PRES_AUD", "word": "ankle", "wordID": 23, "conditions": [18, 1200, "a", 18000], "trial": 0, "serialpos": 14, "trial_type": "single-audio", "trial_index": 35, "time_elapsed": 183494, "internal_node_id": "0.0-26.0"}}, {"uniqueid": "MTK1022:3MX2NQ3YCA1B81DO9GUNM437T8F5X8", "current_trial": 36, "dateTime": 1513011496037, "trialdata": {"rt": -1000, "stimulus": "/static/audio/wordpool/PIMPLE.wav", "key_press": -1, "type": "PRES_AUD", "word": "pimple", "wordID": 1070, "conditions": [18, 1200, "a", 18000], "trial": 0, "serialpos": 15, "trial_type": "single-audio", "trial_index": 36, "time_elapsed": 185709, "internal_node_id": "0.0-27.0"}}, {"uniqueid": "MTK1022:3MX2NQ3YCA1B81DO9GUNM437T8F5X8", "current_trial": 37, "dateTime": 1513011498305, "trialdata": {"rt": -1000, "stimulus": "/static/audio/wordpool/BODY.wav", "key_press": -1, "type": "PRES_AUD", "word": "body", "wordID": 144, "conditions": [18, 1200, "a", 18000], "trial": 0, "serialpos": 16, "trial_type": "single-audio", "trial_index": 37, "time_elapsed": 187978, "internal_node_id": "0.0-28.0"}}, {"uniqueid": "MTK1022:3MX2NQ3YCA1B81DO9GUNM437T8F5X8", "current_trial": 38, "dateTime": 1513011500685, "trialdata": {"rt": -1000, "stimulus": "/static/audio/wordpool/LONDON.wav", "key_press": -1, "type": "PRES_AUD", "word": "london", "wordID": 842, "conditions": [18, 1200, "a", 18000], "trial": 0, "serialpos": 17, "trial_type": "single-audio", "trial_index": 38, "time_elapsed": 190358, "internal_node_id": "0.0-29.0"}}, {"uniqueid": "MTK1022:3MX2NQ3YCA1B81DO9GUNM437T8F5X8", "current_trial": 39, "dateTime": 1513011502029, "trialdata": {"rt": -1, "stimulus": "", "key_press": -1, "type": "PRE_RECALL_DELAY", "trial_type": "single-stim", "trial_index": 39, "time_elapsed": 191702, "internal_node_id": "0.0-30.0-0.0"}}, {"uniqueid": "MTK1022:3MX2NQ3YCA1B81DO9GUNM437T8F5X8", "current_trial": 40, "dateTime": 1513011502530, "trialdata": {"rt": -1000, "stimulus": "/static/audio/400Hz.wav", "key_press": -1, "type": "PRE_RECALL_ALERT", "trial_type": "single-audio", "trial_index": 40, "time_elapsed": 192203, "internal_node_id": "0.0-31.0"}}, {"uniqueid": "MTK1022:3MX2NQ3YCA1B81DO9GUNM437T8F5X8", "current_trial": 41, "dateTime": 1513011562534, "trialdata": {"rt": [4328, 7067, 10008, 12456, 15544, 30280, 33368, 40136, 43640], "recwords": ["london", "pimple", "cowboy", "lady", "ratchet", "room", "elbow", "ladle", "road"], "type": "FREE_RECALL", "conditions": [18, 1200, "a", 18000], "trial": 0, "trial_type": "free-recall", "trial_index": 41, "time_elapsed": 252205, "internal_node_id": "0.0-32.0-0.0"}}, {"uniqueid": "MTK1022:3MX2NQ3YCA1B81DO9GUNM437T8F5X8", "current_trial": 42, "dateTime": 1513011566763, "trialdata": {"rt": 2228, "key_press": 32, "type": "INSTRUCTIONS", "trial_type": "text", "trial_index": 42, "time_elapsed": 256436, "internal_node_id": "0.0-33.0"}}, {"uniqueid": "MTK1022:3MX2NQ3YCA1B81DO9GUNM437T8F5X8", "current_trial": 43, "dateTime": 1513011586766, "trialdata": {"rt": [3502, 5822, 8958, 11758, 15710, 17470], "responses": ["24", "16", "12", "26", "20", "6"], "num1": [4, 6, 1, 9, 4, 4, 6], "num2": [6, 2, 2, 8, 8, 1, 1], "num3": [9, 8, 9, 9, 8, 1, 3], "type": "DISTRACTOR", "conditions": [18, 1200, "v", 18000], "trial": 1, "trial_type": "math-distractor", "trial_index": 43, "time_elapsed": 276439, "internal_node_id": "0.0-34.0"}}, {"uniqueid": "MTK1022:3MX2NQ3YCA1B81DO9GUNM437T8F5X8", "current_trial": 44, "dateTime": 1513011589768, "trialdata": {"rt": -1, "stimulus": "<p id=\"stim\">10</p>", "key_press": -1, "trial_type": "single-stim", "trial_index": 44, "time_elapsed": 279441, "internal_node_id": "0.0-35.0-0.0"}}, {"uniqueid": "MTK1022:3MX2NQ3YCA1B81DO9GUNM437T8F5X8", "current_trial": 45, "dateTime": 1513011590769, "trialdata": {"rt": -1, "stimulus": "<p id=\"stim\">9</p>", "key_press": -1, "trial_type": "single-stim", "trial_index": 45, "time_elapsed": 280442, "internal_node_id": "0.0-35.0-1.0"}}, {"uniqueid": "MTK1022:3MX2NQ3YCA1B81DO9GUNM437T8F5X8", "current_trial": 46, "dateTime": 1513011591771, "trialdata": {"rt": 249, "stimulus": "<p id=\"stim\">8</p>", "key_press": 175, "trial_type": "single-stim", "trial_index": 46, "time_elapsed": 281444, "internal_node_id": "0.0-35.0-2.0"}}, {"uniqueid": "MTK1022:3MX2NQ3YCA1B81DO9GUNM437T8F5X8", "current_trial": 47, "dateTime": 1513011592773, "trialdata": {"rt": -1, "stimulus": "<p id=\"stim\">7</p>", "key_press": -1, "trial_type": "single-stim", "trial_index": 47, "time_elapsed": 282446, "internal_node_id": "0.0-35.0-3.0"}}, {"uniqueid": "MTK1022:3MX2NQ3YCA1B81DO9GUNM437T8F5X8", "current_trial": 48, "dateTime": 1513011593777, "trialdata": {"rt": -1, "stimulus": "<p id=\"stim\">6</p>", "key_press": -1, "trial_type": "single-stim", "trial_index": 48, "time_elapsed": 283450, "internal_node_id": "0.0-35.0-4.0"}}, {"uniqueid": "MTK1022:3MX2NQ3YCA1B81DO9GUNM437T8F5X8", "current_trial": 49, "dateTime": 1513011594778, "trialdata": {"rt": -1, "stimulus": "<p id=\"stim\">5</p>", "key_press": -1, "trial_type": "single-stim", "trial_index": 49, "time_elapsed": 284451, "internal_node_id": "0.0-35.0-5.0"}}, {"uniqueid": "MTK1022:3MX2NQ3YCA1B81DO9GUNM437T8F5X8", "current_trial": 50, "dateTime": 1513011595780, "trialdata": {"rt": -1, "stimulus": "<p id=\"stim\">4</p>", "key_press": -1, "trial_type": "single-stim", "trial_index": 50, "time_elapsed": 285452, "internal_node_id": "0.0-35.0-6.0"}}, {"uniqueid": "MTK1022:3MX2NQ3YCA1B81DO9GUNM437T8F5X8", "current_trial": 51, "dateTime": 1513011596781, "trialdata": {"rt": -1, "stimulus": "<p id=\"stim\">3</p>", "key_press": -1, "trial_type": "single-stim", "trial_index": 51, "time_elapsed": 286454, "internal_node_id": "0.0-35.0-7.0"}}, {"uniqueid": "MTK1022:3MX2NQ3YCA1B81DO9GUNM437T8F5X8", "current_trial": 52, "dateTime": 1513011597782, "trialdata": {"rt": -1, "stimulus": "<p id=\"stim\">2</p>", "key_press": -1, "trial_type": "single-stim", "trial_index": 52, "time_elapsed": 287455, "internal_node_id": "0.0-35.0-8.0"}}, {"uniqueid": "MTK1022:3MX2NQ3YCA1B81DO9GUNM437T8F5X8", "current_trial": 53, "dateTime": 1513011598784, "trialdata": {"rt": -1, "stimulus": "<p id=\"stim\">1</p>", "key_press": -1, "trial_type": "single-stim", "trial_index": 53, "time_elapsed": 288457, "internal_node_id": "0.0-35.0-9.0"}}, {"uniqueid": "MTK1022:3MX2NQ3YCA1B81DO9GUNM437T8F5X8", "current_trial": 54, "dateTime": 1513011600285, "trialdata": {"rt": -1, "stimulus": "<p id=\"stim\">+</p>", "key_press": -1, "type": "FIXATION", "trial_type": "single-stim", "trial_index": 54, "time_elapsed": 289958, "internal_node_id": "0.0-36.0-0.0"}}, {"uniqueid": "MTK1022:3MX2NQ3YCA1B81DO9GUNM437T8F5X8", "current_trial": 55, "dateTime": 1513011601487, "trialdata": {"rt": -1, "stimulus": "<p id=\"stim\">DONKEY</p>", "key_press": -1, "type": "PRES_VIS", "word": "donkey", "wordID": 483, "conditions": [18, 1200, "v", 18000], "trial": 1, "serialpos": 0, "trial_type": "single-stim", "trial_index": 55, "time_elapsed": 291160, "internal_node_id": "0.0-37.0"}}, {"uniqueid": "MTK1022:3MX2NQ3YCA1B81DO9GUNM437T8F5X8", "current_trial": 56, "dateTime": 1513011603530, "trialdata": {"rt": -1, "stimulus": "<p id=\"stim\">PEPPER</p>", "key_press": -1, "type": "PRES_VIS", "word": "pepper", "wordID": 1046, "conditions": [18, 1200, "v", 18000], "trial": 1, "serialpos": 1, "trial_type": "single-stim", "trial_index": 56, "time_elapsed": 293203, "internal_node_id": "0.0-38.0"}}, {"uniqueid": "MTK1022:3MX2NQ3YCA1B81DO9GUNM437T8F5X8", "current_trial": 57, "dateTime": 1513011605818, "trialdata": {"rt": -1, "stimulus": "<p id=\"stim\">CLAMP</p>", "key_press": -1, "type": "PRES_VIS", "word": "clamp", "wordID": 315, "conditions": [18, 1200, "v", 18000], "trial": 1, "serialpos": 2, "trial_type": "single-stim", "trial_index": 57, "time_elapsed": 295491, "internal_node_id": "0.0-39.0"}}, {"uniqueid": "MTK1022:3MX2NQ3YCA1B81DO9GUNM437T8F5X8", "current_trial": 58, "dateTime": 1513011607865, "trialdata": {"rt": -1, "stimulus": "<p id=\"stim\">POCKET</p>", "key_press": -1, "type": "PRES_VIS", "word": "pocket", "wordID": 1092, "conditions": [18, 1200, "v", 18000], "trial": 1, "serialpos": 3, "trial_type": "single-stim", "trial_index": 58, "time_elapsed": 297537, "internal_node_id": "0.0-40.0"}}, {"uniqueid": "MTK1022:3MX2NQ3YCA1B81DO9GUNM437T8F5X8", "current_trial": 59, "dateTime": 1513011610046, "trialdata": {"rt": -1, "stimulus": "<p id=\"stim\">AIRPORT</p>", "key_press": -1, "type": "PRES_VIS", "word": "airport", "wordID": 12, "conditions": [18, 1200, "v", 18000], "trial": 1, "serialpos": 4, "trial_type": "single-stim", "trial_index": 59, "time_elapsed": 299719, "internal_node_id": "0.0-41.0"}}, {"uniqueid": "MTK1022:3MX2NQ3YCA1B81DO9GUNM437T8F5X8", "current_trial": 60, "dateTime": 1513011612349, "trialdata": {"rt": -1, "stimulus": "<p id=\"stim\">SEAGULL</p>", "key_press": -1, "type": "PRES_VIS", "word": "seagull", "wordID": 1260, "conditions": [18, 1200, "v", 18000], "trial": 1, "serialpos": 5, "trial_type": "single-stim", "trial_index": 60, "time_elapsed": 302021, "internal_node_id": "0.0-42.0"}}, {"uniqueid": "MTK1022:3MX2NQ3YCA1B81DO9GUNM437T8F5X8", "current_trial": 61, "dateTime": 1513011614440, "trialdata": {"rt": -1, "stimulus": "<p id=\"stim\">SPOUSE</p>", "key_press": -1, "type": "PRES_VIS", "word": "spouse", "wordID": 1357, "conditions": [18, 1200, "v", 18000], "trial": 1, "serialpos": 6, "trial_type": "single-stim", "trial_index": 61, "time_elapsed": 304112, "internal_node_id": "0.0-43.0"}}, {"uniqueid": "MTK1022:3MX2NQ3YCA1B81DO9GUNM437T8F5X8", "current_trial": 62, "dateTime": 1513011616765, "trialdata": {"rt": -1, "stimulus": "<p id=\"stim\">TUTU</p>", "key_press": -1, "type": "PRES_VIS", "word": "tutu", "wordID": 1523, "conditions": [18, 1200, "v", 18000], "trial": 1, "serialpos": 7, "trial_type": "single-stim", "trial_index": 62, "time_elapsed": 306438, "internal_node_id": "0.0-44.0"}}, {"uniqueid": "MTK1022:3MX2NQ3YCA1B81DO9GUNM437T8F5X8", "current_trial": 63, "dateTime": 1513011618858, "trialdata": {"rt": -1, "stimulus": "<p id=\"stim\">STICKER</p>", "key_press": -1, "type": "PRES_VIS", "word": "sticker", "wordID": 1381, "conditions": [18, 1200, "v", 18000], "trial": 1, "serialpos": 8, "trial_type": "single-stim", "trial_index": 63, "time_elapsed": 308531, "internal_node_id": "0.0-45.0"}}, {"uniqueid": "MTK1022:3MX2NQ3YCA1B81DO9GUNM437T8F5X8", "current_trial": 64, "dateTime": 1513011621038, "trialdata": {"rt": -1, "stimulus": "<p id=\"stim\">BOUQUET</p>", "key_press": -1, "type": "PRES_VIS", "word": "bouquet", "wordID": 156, "conditions": [18, 1200, "v", 18000], "trial": 1, "serialpos": 9, "trial_type": "single-stim", "trial_index": 64, "time_elapsed": 310711, "internal_node_id": "0.0-46.0"}}, {"uniqueid": "MTK1022:3MX2NQ3YCA1B81DO9GUNM437T8F5X8", "current_trial": 65, "dateTime": 1513011623111, "trialdata": {"rt": -1, "stimulus": "<p id=\"stim\">BRANDY</p>", "key_press": -1, "type": "PRES_VIS", "word": "brandy", "wordID": 168, "conditions": [18, 1200, "v", 18000], "trial": 1, "serialpos": 10, "trial_type": "single-stim", "trial_index": 65, "time_elapsed": 312784, "internal_node_id": "0.0-47.0"}}, {"uniqueid": "MTK1022:3MX2NQ3YCA1B81DO9GUNM437T8F5X8", "current_trial": 66, "dateTime": 1513011625257, "trialdata": {"rt": 295, "stimulus": "<p id=\"stim\">AIRPLANE</p>", "key_press": 174, "type": "PRES_VIS", "word": "airplane", "wordID": 11, "conditions": [18, 1200, "v", 18000], "trial": 1, "serialpos": 11, "trial_type": "single-stim", "trial_index": 66, "time_elapsed": 314929, "internal_node_id": "0.0-48.0"}}, {"uniqueid": "MTK1022:3MX2NQ3YCA1B81DO9GUNM437T8F5X8", "current_trial": 67, "dateTime": 1513011627344, "trialdata": {"rt": 62, "stimulus": "<p id=\"stim\">SHELF</p>", "key_press": 174, "type": "PRES_VIS", "word": "shelf", "wordID": 1279, "conditions": [18, 1200, "v", 18000], "trial": 1, "serialpos": 12, "trial_type": "single-stim", "trial_index": 67, "time_elapsed": 317017, "internal_node_id": "0.0-49.0"}}, {"uniqueid": "MTK1022:3MX2NQ3YCA1B81DO9GUNM437T8F5X8", "current_trial": 68, "dateTime": 1513011629361, "trialdata": {"rt": 701, "stimulus": "<p id=\"stim\">SKETCH</p>", "key_press": 174, "type": "PRES_VIS", "word": "sketch", "wordID": 1314, "conditions": [18, 1200, "v", 18000], "trial": 1, "serialpos": 13, "trial_type": "single-stim", "trial_index": 68, "time_elapsed": 319032, "internal_node_id": "0.0-50.0"}}, {"uniqueid": "MTK1022:3MX2NQ3YCA1B81DO9GUNM437T8F5X8", "current_trial": 69, "dateTime": 1513011631736, "trialdata": {"rt": -1, "stimulus": "<p id=\"stim\">SUMMIT</p>", "key_press": -1, "type": "PRES_VIS", "word": "summit", "wordID": 1404, "conditions": [18, 1200, "v", 18000], "trial": 1, "serialpos": 14, "trial_type": "single-stim", "trial_index": 69, "time_elapsed": 321409, "internal_node_id": "0.0-51.0"}}, {"uniqueid": "MTK1022:3MX2NQ3YCA1B81DO9GUNM437T8F5X8", "current_trial": 70, "dateTime": 1513011634052, "trialdata": {"rt": -1, "stimulus": "<p id=\"stim\">ZIPPER</p>", "key_press": -1, "type": "PRES_VIS", "word": "zipper", "wordID": 1635, "conditions": [18, 1200, "v", 18000], "trial": 1, "serialpos": 15, "trial_type": "single-stim", "trial_index": 70, "time_elapsed": 323725, "internal_node_id": "0.0-52.0"}}, {"uniqueid": "MTK1022:3MX2NQ3YCA1B81DO9GUNM437T8F5X8", "current_trial": 71, "dateTime": 1513011636373, "trialdata": {"rt": -1, "stimulus": "<p id=\"stim\">RAZOR</p>", "key_press": -1, "type": "PRES_VIS", "word": "razor", "wordID": 1170, "conditions": [18, 1200, "v", 18000], "trial": 1, "serialpos": 16, "trial_type": "single-stim", "trial_index": 71, "time_elapsed": 326046, "internal_node_id": "0.0-53.0"}}, {"uniqueid": "MTK1022:3MX2NQ3YCA1B81DO9GUNM437T8F5X8", "current_trial": 72, "dateTime": 1513011638432, "trialdata": {"rt": -1, "stimulus": "<p id=\"stim\">COUNTRY</p>", "key_press": -1, "type": "PRES_VIS", "word": "country", "wordID": 387, "conditions": [18, 1200, "v", 18000], "trial": 1, "serialpos": 17, "trial_type": "single-stim", "trial_index": 72, "time_elapsed": 328105, "internal_node_id": "0.0-54.0"}}, {"uniqueid": "MTK1022:3MX2NQ3YCA1B81DO9GUNM437T8F5X8", "current_trial": 73, "dateTime": 1513011640888, "trialdata": {"rt": -1, "stimulus": "", "key_press": -1, "type": "PRE_RECALL_DELAY", "trial_type": "single-stim", "trial_index": 73, "time_elapsed": 330561, "internal_node_id": "0.0-55.0-0.0"}}, {"uniqueid": "MTK1022:3MX2NQ3YCA1B81DO9GUNM437T8F5X8", "current_trial": 74, "dateTime": 1513011641390, "trialdata": {"rt": -1000, "stimulus": "/static/audio/400Hz.wav", "key_press": -1, "type": "PRE_RECALL_ALERT", "trial_type": "single-audio", "trial_index": 74, "time_elapsed": 331062, "internal_node_id": "0.0-56.0"}}, {"uniqueid": "MTK1022:3MX2NQ3YCA1B81DO9GUNM437T8F5X8", "current_trial": 75, "dateTime": 1513011701393, "trialdata": {"rt": [6557, 9069, 10813, 13069, 17533, 19917, 24317, 28365], "recwords": ["spouse", "seagul", "zipper", "tutu", "pocket", "airplane", "pick", "zipper"], "type": "FREE_RECALL", "conditions": [18, 1200, "v", 18000], "trial": 1, "trial_type": "free-recall", "trial_index": 75, "time_elapsed": 391065, "internal_node_id": "0.0-57.0-0.0"}}, {"uniqueid": "MTK1022:3MX2NQ3YCA1B81DO9GUNM437T8F5X8", "current_trial": 76, "dateTime": 1513011778958, "trialdata": {"rt": 75561, "key_press": 32, "type": "INSTRUCTIONS", "trial_type": "text", "trial_index": 76, "time_elapsed": 468629, "internal_node_id": "0.0-58.0"}}, {"uniqueid": "MTK1022:3MX2NQ3YCA1B81DO9GUNM437T8F5X8", "current_trial": 77, "dateTime": 1513011791960, "trialdata": {"rt": [4179, 6515, 8899, 10627], "responses": ["21", "17", "14", "8"], "num1": [9, 5, 4, 5, 8], "num2": [5, 4, 2, 2, 9], "num3": [7, 8, 8, 1, 5], "type": "DISTRACTOR", "conditions": [12, 1600, "v", 12000], "trial": 2, "trial_type": "math-distractor", "trial_index": 77, "time_elapsed": 481633, "internal_node_id": "0.0-59.0"}}, {"uniqueid": "MTK1022:3MX2NQ3YCA1B81DO9GUNM437T8F5X8", "current_trial": 78, "dateTime": 1513011794962, "trialdata": {"rt": 114, "stimulus": "<p id=\"stim\">10</p>", "key_press": 98, "trial_type": "single-stim", "trial_index": 78, "time_elapsed": 484635, "internal_node_id": "0.0-60.0-0.0"}}, {"uniqueid": "MTK1022:3MX2NQ3YCA1B81DO9GUNM437T8F5X8", "current_trial": 79, "dateTime": 1513011795963, "trialdata": {"rt": -1, "stimulus": "<p id=\"stim\">9</p>", "key_press": -1, "trial_type": "single-stim", "trial_index": 79, "time_elapsed": 485636, "internal_node_id": "0.0-60.0-1.0"}}, {"uniqueid": "MTK1022:3MX2NQ3YCA1B81DO9GUNM437T8F5X8", "current_trial": 80, "dateTime": 1513011796964, "trialdata": {"rt": -1, "stimulus": "<p id=\"stim\">8</p>", "key_press": -1, "trial_type": "single-stim", "trial_index": 80, "time_elapsed": 486637, "internal_node_id": "0.0-60.0-2.0"}}, {"uniqueid": "MTK1022:3MX2NQ3YCA1B81DO9GUNM437T8F5X8", "current_trial": 81, "dateTime": 1513011797966, "trialdata": {"rt": -1, "stimulus": "<p id=\"stim\">7</p>", "key_press": -1, "trial_type": "single-stim", "trial_index": 81, "time_elapsed": 487639, "internal_node_id": "0.0-60.0-3.0"}}, {"uniqueid": "MTK1022:3MX2NQ3YCA1B81DO9GUNM437T8F5X8", "current_trial": 82, "dateTime": 1513011798967, "trialdata": {"rt": -1, "stimulus": "<p id=\"stim\">6</p>", "key_press": -1, "trial_type": "single-stim", "trial_index": 82, "time_elapsed": 488640, "internal_node_id": "0.0-60.0-4.0"}}, {"uniqueid": "MTK1022:3MX2NQ3YCA1B81DO9GUNM437T8F5X8", "current_trial": 83, "dateTime": 1513011799968, "trialdata": {"rt": -1, "stimulus": "<p id=\"stim\">5</p>", "key_press": -1, "trial_type": "single-stim", "trial_index": 83, "time_elapsed": 489641, "internal_node_id": "0.0-60.0-5.0"}}, {"uniqueid": "MTK1022:3MX2NQ3YCA1B81DO9GUNM437T8F5X8", "current_trial": 84, "dateTime": 1513011800969, "trialdata": {"rt": -1, "stimulus": "<p id=\"stim\">4</p>", "key_press": -1, "trial_type": "single-stim", "trial_index": 84, "time_elapsed": 490642, "internal_node_id": "0.0-60.0-6.0"}}, {"uniqueid": "MTK1022:3MX2NQ3YCA1B81DO9GUNM437T8F5X8", "current_trial": 85, "dateTime": 1513011801971, "trialdata": {"rt": -1, "stimulus": "<p id=\"stim\">3</p>", "key_press": -1, "trial_type": "single-stim", "trial_index": 85, "time_elapsed": 491644, "internal_node_id": "0.0-60.0-7.0"}}, {"uniqueid": "MTK1022:3MX2NQ3YCA1B81DO9GUNM437T8F5X8", "current_trial": 86, "dateTime": 1513011802972, "trialdata": {"rt": -1, "stimulus": "<p id=\"stim\">2</p>", "key_press": -1, "trial_type": "single-stim", "trial_index": 86, "time_elapsed": 492645, "internal_node_id": "0.0-60.0-8.0"}}, {"uniqueid": "MTK1022:3MX2NQ3YCA1B81DO9GUNM437T8F5X8", "current_trial": 87, "dateTime": 1513011803975, "trialdata": {"rt": -1, "stimulus": "<p id=\"stim\">1</p>", "key_press": -1, "trial_type": "single-stim", "trial_index": 87, "time_elapsed": 493648, "internal_node_id": "0.0-60.0-9.0"}}, {"uniqueid": "MTK1022:3MX2NQ3YCA1B81DO9GUNM437T8F5X8", "current_trial": 88, "dateTime": 1513011805478, "trialdata": {"rt": -1, "stimulus": "<p id=\"stim\">+</p>", "key_press": -1, "type": "FIXATION", "trial_type": "single-stim", "trial_index": 88, "time_elapsed": 495151, "internal_node_id": "0.0-61.0-0.0"}}, {"uniqueid": "MTK1022:3MX2NQ3YCA1B81DO9GUNM437T8F5X8", "current_trial": 89, "dateTime": 1513011807080, "trialdata": {"rt": -1, "stimulus": "<p id=\"stim\">FRIEND</p>", "key_press": -1, "type": "PRES_VIS", "word": "friend", "wordID": 605, "conditions": [12, 1600, "v", 12000], "trial": 2, "serialpos": 0, "trial_type": "single-stim", "trial_index": 89, "time_elapsed": 496753, "internal_node_id": "0.0-62.0"}}, {"uniqueid": "MTK1022:3MX2NQ3YCA1B81DO9GUNM437T8F5X8", "current_trial": 90, "dateTime": 1513011809781, "trialdata": {"rt": -1, "stimulus": "<p id=\"stim\">BELLY</p>", "key_press": -1, "type": "PRES_VIS", "word": "belly", "wordID": 118, "conditions": [12, 1600, "v", 12000], "trial": 2, "serialpos": 1, "trial_type": "single-stim", "trial_index": 90, "time_elapsed": 499454, "internal_node_id": "0.0-63.0"}}, {"uniqueid": "MTK1022:3MX2NQ3YCA1B81DO9GUNM437T8F5X8", "current_trial": 91, "dateTime": 1513011812570, "trialdata": {"rt": -1, "stimulus": "<p id=\"stim\">GRAPE</p>", "key_press": -1, "type": "PRES_VIS", "word": "grape", "wordID": 653, "conditions": [12, 1600, "v", 12000], "trial": 2, "serialpos": 2, "trial_type": "single-stim", "trial_index": 91, "time_elapsed": 502243, "internal_node_id": "0.0-64.0"}}, {"uniqueid": "MTK1022:3MX2NQ3YCA1B81DO9GUNM437T8F5X8", "current_trial": 92, "dateTime": 1513011814991, "trialdata": {"rt": -1, "stimulus": "<p id=\"stim\">CASHIER</p>", "key_press": -1, "type": "PRES_VIS", "word": "cashier", "wordID": 253, "conditions": [12, 1600, "v", 12000], "trial": 2, "serialpos": 3, "trial_type": "single-stim", "trial_index": 92, "time_elapsed": 504664, "internal_node_id": "0.0-65.0"}}, {"uniqueid": "MTK1022:3MX2NQ3YCA1B81DO9GUNM437T8F5X8", "current_trial": 93, "dateTime": 1513011817398, "trialdata": {"rt": -1, "stimulus": "<p id=\"stim\">SODA</p>", "key_press": -1, "type": "PRES_VIS", "word": "soda", "wordID": 1340, "conditions": [12, 1600, "v", 12000], "trial": 2, "serialpos": 4, "trial_type": "single-stim", "trial_index": 93, "time_elapsed": 507071, "internal_node_id": "0.0-66.0"}}, {"uniqueid": "MTK1022:3MX2NQ3YCA1B81DO9GUNM437T8F5X8", "current_trial": 94, "dateTime": 1513011820022, "trialdata": {"rt": -1, "stimulus": "<p id=\"stim\">FRUIT</p>", "key_press": -1, "type": "PRES_VIS", "word": "fruit", "wordID": 609, "conditions": [12, 1600, "v", 12000], "trial": 2, "serialpos": 5, "trial_type": "single-stim", "trial_index": 94, "time_elapsed": 509695, "internal_node_id": "0.0-67.0"}}, {"uniqueid": "MTK1022:3MX2NQ3YCA1B81DO9GUNM437T8F5X8", "current_trial": 95, "dateTime": 1513011822744, "trialdata": {"rt": -1, "stimulus": "<p id=\"stim\">SNAIL</p>", "key_press": -1, "type": "PRES_VIS", "word": "snail", "wordID": 1331, "conditions": [12, 1600, "v", 12000], "trial": 2, "serialpos": 6, "trial_type": "single-stim", "trial_index": 95, "time_elapsed": 512417, "internal_node_id": "0.0-68.0"}}, {"uniqueid": "MTK1022:3MX2NQ3YCA1B81DO9GUNM437T8F5X8", "current_trial": 96, "dateTime": 1513011825499, "trialdata": {"rt": -1, "stimulus": "<p id=\"stim\">LIZARD</p>", "key_press": -1, "type": "PRES_VIS", "word": "lizard", "wordID": 833, "conditions": [12, 1600, "v", 12000], "trial": 2, "serialpos": 7, "trial_type": "single-stim", "trial_index": 96, "time_elapsed": 515172, "internal_node_id": "0.0-69.0"}}, {"uniqueid": "MTK1022:3MX2NQ3YCA1B81DO9GUNM437T8F5X8", "current_trial": 97, "dateTime": 1513011828142, "trialdata": {"rt": -1, "stimulus": "<p id=\"stim\">RUST</p>", "key_press": -1, "type": "PRES_VIS", "word": "rust", "wordID": 1218, "conditions": [12, 1600, "v", 12000], "trial": 2, "serialpos": 8, "trial_type": "single-stim", "trial_index": 97, "time_elapsed": 517815, "internal_node_id": "0.0-70.0"}}, {"uniqueid": "MTK1022:3MX2NQ3YCA1B81DO9GUNM437T8F5X8", "current_trial": 98, "dateTime": 1513011830725, "trialdata": {"rt": -1, "stimulus": "<p id=\"stim\">EAGLE</p>", "key_press": -1, "type": "PRES_VIS", "word": "eagle", "wordID": 511, "conditions": [12, 1600, "v", 12000], "trial": 2, "serialpos": 9, "trial_type": "single-stim", "trial_index": 98, "time_elapsed": 520398, "internal_node_id": "0.0-71.0"}}, {"uniqueid": "MTK1022:3MX2NQ3YCA1B81DO9GUNM437T8F5X8", "current_trial": 99, "dateTime": 1513011833424, "trialdata": {"rt": -1, "stimulus": "<p id=\"stim\">BLOUSE</p>", "key_press": -1, "type": "PRES_VIS", "word": "blouse", "wordID": 138, "conditions": [12, 1600, "v", 12000], "trial": 2, "serialpos": 10, "trial_type": "single-stim", "trial_index": 99, "time_elapsed": 523097, "internal_node_id": "0.0-72.0"}}, {"uniqueid": "MTK1022:3MX2NQ3YCA1B81DO9GUNM437T8F5X8", "current_trial": 100, "dateTime": 1513011835847, "trialdata": {"rt": -1, "stimulus": "<p id=\"stim\">BASEMENT</p>", "key_press": -1, "type": "PRES_VIS", "word": "basement", "wordID": 93, "conditions": [12, 1600, "v", 12000], "trial": 2, "serialpos": 11, "trial_type": "single-stim", "trial_index": 100, "time_elapsed": 525520, "internal_node_id": "0.0-73.0"}}, {"uniqueid": "MTK1022:3MX2NQ3YCA1B81DO9GUNM437T8F5X8", "current_trial": 101, "dateTime": 1513011838001, "trialdata": {"rt": -1, "stimulus": "", "key_press": -1, "type": "PRE_RECALL_DELAY", "trial_type": "single-stim", "trial_index": 101, "time_elapsed": 527674, "internal_node_id": "0.0-74.0-0.0"}}, {"uniqueid": "MTK1022:3MX2NQ3YCA1B81DO9GUNM437T8F5X8", "current_trial": 102, "dateTime": 1513011838502, "trialdata": {"rt": -1000, "stimulus": "/static/audio/400Hz.wav", "key_press": -1, "type": "PRE_RECALL_ALERT", "trial_type": "single-audio", "trial_index": 102, "time_elapsed": 528175, "internal_node_id": "0.0-75.0"}}, {"uniqueid": "MTK1022:3MX2NQ3YCA1B81DO9GUNM437T8F5X8", "current_trial": 103, "dateTime": 1513011898506, "trialdata": {"rt": [3892, 6660, 10244, 12084, 13732, 17828, 20628, 53588], "recwords": ["cashier", "blouse", "lizard", "snail", "eagle", "rust", "basement", "soda"], "type": "FREE_RECALL", "conditions": [12, 1600, "v", 12000], "trial": 2, "trial_type": "free-recall", "trial_index": 103, "time_elapsed": 588178, "internal_node_id": "0.0-76.0-0.0"}}, {"uniqueid": "MTK1022:3MX2NQ3YCA1B81DO9GUNM437T8F5X8", "current_trial": 104, "dateTime": 1513011904779, "trialdata": {"rt": 4272, "key_press": 32, "type": "INSTRUCTIONS", "trial_type": "text", "trial_index": 104, "time_elapsed": 594452, "internal_node_id": "0.0-77.0"}}, {"uniqueid": "MTK1022:3MX2NQ3YCA1B81DO9GUNM437T8F5X8", "current_trial": 105, "dateTime": 1513011930784, "trialdata": {"rt": [3173, 5615, 7358, 9917, 11741, 16093, 18400, 20413, 22573], "responses": ["16", "10", "8", "20", "14", "18", "15", "19", "15"], "num1": [7, 4, 1, 9, 5, 5, 5, 3, 6, 1], "num2": [1, 3, 5, 6, 4, 9, 6, 9, 2, 1], "num3": [8, 3, 2, 5, 5, 4, 4, 7, 7, 2], "type": "DISTRACTOR", "conditions": [24, 800, "v", 24000], "trial": 3, "trial_type": "math-distractor", "trial_index": 105, "time_elapsed": 620457, "internal_node_id": "0.0-78.0"}}, {"uniqueid": "MTK1022:3MX2NQ3YCA1B81DO9GUNM437T8F5X8", "current_trial": 106, "dateTime": 1513011933787, "trialdata": {"rt": -1, "stimulus": "<p id=\"stim\">10</p>", "key_press": -1, "trial_type": "single-stim", "trial_index": 106, "time_elapsed": 623459, "internal_node_id": "0.0-79.0-0.0"}}, {"uniqueid": "MTK1022:3MX2NQ3YCA1B81DO9GUNM437T8F5X8", "current_trial": 107, "dateTime": 1513011934788, "trialdata": {"rt": -1, "stimulus": "<p id=\"stim\">9</p>", "key_press": -1, "trial_type": "single-stim", "trial_index": 107, "time_elapsed": 624461, "internal_node_id": "0.0-79.0-1.0"}}, {"uniqueid": "MTK1022:3MX2NQ3YCA1B81DO9GUNM437T8F5X8", "current_trial": 108, "dateTime": 1513011935788, "trialdata": {"rt": -1, "stimulus": "<p id=\"stim\">8</p>", "key_press": -1, "trial_type": "single-stim", "trial_index": 108, "time_elapsed": 625461, "internal_node_id": "0.0-79.0-2.0"}}, {"uniqueid": "MTK1022:3MX2NQ3YCA1B81DO9GUNM437T8F5X8", "current_trial": 109, "dateTime": 1513011936790, "trialdata": {"rt": -1, "stimulus": "<p id=\"stim\">7</p>", "key_press": -1, "trial_type": "single-stim", "trial_index": 109, "time_elapsed": 626463, "internal_node_id": "0.0-79.0-3.0"}}, {"uniqueid": "MTK1022:3MX2NQ3YCA1B81DO9GUNM437T8F5X8", "current_trial": 110, "dateTime": 1513011937791, "trialdata": {"rt": -1, "stimulus": "<p id=\"stim\">6</p>", "key_press": -1, "trial_type": "single-stim", "trial_index": 110, "time_elapsed": 627464, "internal_node_id": "0.0-79.0-4.0"}}, {"uniqueid": "MTK1022:3MX2NQ3YCA1B81DO9GUNM437T8F5X8", "current_trial": 111, "dateTime": 1513011938792, "trialdata": {"rt": -1, "stimulus": "<p id=\"stim\">5</p>", "key_press": -1, "trial_type": "single-stim", "trial_index": 111, "time_elapsed": 628465, "internal_node_id": "0.0-79.0-5.0"}}, {"uniqueid": "MTK1022:3MX2NQ3YCA1B81DO9GUNM437T8F5X8", "current_trial": 112, "dateTime": 1513011939796, "trialdata": {"rt": -1, "stimulus": "<p id=\"stim\">4</p>", "key_press": -1, "trial_type": "single-stim", "trial_index": 112, "time_elapsed": 629468, "internal_node_id": "0.0-79.0-6.0"}}, {"uniqueid": "MTK1022:3MX2NQ3YCA1B81DO9GUNM437T8F5X8", "current_trial": 113, "dateTime": 1513011940800, "trialdata": {"rt": -1, "stimulus": "<p id=\"stim\">3</p>", "key_press": -1, "trial_type": "single-stim", "trial_index": 113, "time_elapsed": 630473, "internal_node_id": "0.0-79.0-7.0"}}, {"uniqueid": "MTK1022:3MX2NQ3YCA1B81DO9GUNM437T8F5X8", "current_trial": 114, "dateTime": 1513011941801, "trialdata": {"rt": -1, "stimulus": "<p id=\"stim\">2</p>", "key_press": -1, "trial_type": "single-stim", "trial_index": 114, "time_elapsed": 631474, "internal_node_id": "0.0-79.0-8.0"}}, {"uniqueid": "MTK1022:3MX2NQ3YCA1B81DO9GUNM437T8F5X8", "current_trial": 115, "dateTime": 1513011942803, "trialdata": {"rt": -1, "stimulus": "<p id=\"stim\">1</p>", "key_press": -1, "trial_type": "single-stim", "trial_index": 115, "time_elapsed": 632476, "internal_node_id": "0.0-79.0-9.0"}}, {"uniqueid": "MTK1022:3MX2NQ3YCA1B81DO9GUNM437T8F5X8", "current_trial": 116, "dateTime": 1513011944304, "trialdata": {"rt": -1, "stimulus": "<p id=\"stim\">+</p>", "key_press": -1, "type": "FIXATION", "trial_type": "single-stim", "trial_index": 116, "time_elapsed": 633977, "internal_node_id": "0.0-80.0-0.0"}}, {"uniqueid": "MTK1022:3MX2NQ3YCA1B81DO9GUNM437T8F5X8", "current_trial": 117, "dateTime": 1513011945105, "trialdata": {"rt": -1, "stimulus": "<p id=\"stim\">KLEENEX</p>", "key_press": -1, "type": "PRES_VIS", "word": "kleenex", "wordID": 781, "conditions": [24, 800, "v", 24000], "trial": 3, "serialpos": 0, "trial_type": "single-stim", "trial_index": 117, "time_elapsed": 634778, "internal_node_id": "0.0-81.0"}}, {"uniqueid": "MTK1022:3MX2NQ3YCA1B81DO9GUNM437T8F5X8", "current_trial": 118, "dateTime": 1513011946830, "trialdata": {"rt": -1, "stimulus": "<p id=\"stim\">SCISSORS</p>", "key_press": -1, "type": "PRES_VIS", "word": "scissors", "wordID": 1249, "conditions": [24, 800, "v", 24000], "trial": 3, "serialpos": 1, "trial_type": "single-stim", "trial_index": 118, "time_elapsed": 636503, "internal_node_id": "0.0-82.0"}}, {"uniqueid": "MTK1022:3MX2NQ3YCA1B81DO9GUNM437T8F5X8", "current_trial": 119, "dateTime": 1513011948727, "trialdata": {"rt": -1, "stimulus": "<p id=\"stim\">SALAD</p>", "key_press": -1, "type": "PRES_VIS", "word": "salad", "wordID": 1223, "conditions": [24, 800, "v", 24000], "trial": 3, "serialpos": 2, "trial_type": "single-stim", "trial_index": 119, "time_elapsed": 638400, "internal_node_id": "0.0-83.0"}}, {"uniqueid": "MTK1022:3MX2NQ3YCA1B81DO9GUNM437T8F5X8", "current_trial": 120, "dateTime": 1513011950539, "trialdata": {"rt": -1, "stimulus": "<p id=\"stim\">SANDWICH</p>", "key_press": -1, "type": "PRES_VIS", "word": "sandwich", "wordID": 1231, "conditions": [24, 800, "v", 24000], "trial": 3, "serialpos": 3, "trial_type": "single-stim", "trial_index": 120, "time_elapsed": 640211, "internal_node_id": "0.0-84.0"}}, {"uniqueid": "MTK1022:3MX2NQ3YCA1B81DO9GUNM437T8F5X8", "current_trial": 121, "dateTime": 1513011952456, "trialdata": {"rt": -1, "stimulus": "<p id=\"stim\">CRUTCH</p>", "key_press": -1, "type": "PRES_VIS", "word": "crutch", "wordID": 416, "conditions": [24, 800, "v", 24000], "trial": 3, "serialpos": 4, "trial_type": "single-stim", "trial_index": 121, "time_elapsed": 642129, "internal_node_id": "0.0-85.0"}}, {"uniqueid": "MTK1022:3MX2NQ3YCA1B81DO9GUNM437T8F5X8", "current_trial": 122, "dateTime": 1513011954191, "trialdata": {"rt": -1, "stimulus": "<p id=\"stim\">CHIPMUNK</p>", "key_press": -1, "type": "PRES_VIS", "word": "chipmunk", "wordID": 303, "conditions": [24, 800, "v", 24000], "trial": 3, "serialpos": 5, "trial_type": "single-stim", "trial_index": 122, "time_elapsed": 643864, "internal_node_id": "0.0-86.0"}}, {"uniqueid": "MTK1022:3MX2NQ3YCA1B81DO9GUNM437T8F5X8", "current_trial": 123, "dateTime": 1513011956147, "trialdata": {"rt": -1, "stimulus": "<p id=\"stim\">SCALPEL</p>", "key_press": -1, "type": "PRES_VIS", "word": "scalpel", "wordID": 1242, "conditions": [24, 800, "v", 24000], "trial": 3, "serialpos": 6, "trial_type": "single-stim", "trial_index": 123, "time_elapsed": 645819, "internal_node_id": "0.0-87.0"}}, {"uniqueid": "MTK1022:3MX2NQ3YCA1B81DO9GUNM437T8F5X8", "current_trial": 124, "dateTime": 1513011957875, "trialdata": {"rt": -1, "stimulus": "<p id=\"stim\">CLOCK</p>", "key_press": -1, "type": "PRES_VIS", "word": "clock", "wordID": 324, "conditions": [24, 800, "v", 24000], "trial": 3, "serialpos": 7, "trial_type": "single-stim", "trial_index": 124, "time_elapsed": 647547, "internal_node_id": "0.0-88.0"}}, {"uniqueid": "MTK1022:3MX2NQ3YCA1B81DO9GUNM437T8F5X8", "current_trial": 125, "dateTime": 1513011959669, "trialdata": {"rt": -1, "stimulus": "<p id=\"stim\">PIZZA</p>", "key_press": -1, "type": "PRES_VIS", "word": "pizza", "wordID": 1078, "conditions": [24, 800, "v", 24000], "trial": 3, "serialpos": 8, "trial_type": "single-stim", "trial_index": 125, "time_elapsed": 649342, "internal_node_id": "0.0-89.0"}}, {"uniqueid": "MTK1022:3MX2NQ3YCA1B81DO9GUNM437T8F5X8", "current_trial": 126, "dateTime": 1513011961619, "trialdata": {"rt": -1, "stimulus": "<p id=\"stim\">HARP</p>", "key_press": -1, "type": "PRES_VIS", "word": "harp", "wordID": 688, "conditions": [24, 800, "v", 24000], "trial": 3, "serialpos": 9, "trial_type": "single-stim", "trial_index": 126, "time_elapsed": 651292, "internal_node_id": "0.0-90.0"}}, {"uniqueid": "MTK1022:3MX2NQ3YCA1B81DO9GUNM437T8F5X8", "current_trial": 127, "dateTime": 1513011963264, "trialdata": {"rt": -1, "stimulus": "<p id=\"stim\">GLOVE</p>", "key_press": -1, "type": "PRES_VIS", "word": "glove", "wordID": 641, "conditions": [24, 800, "v", 24000], "trial": 3, "serialpos": 10, "trial_type": "single-stim", "trial_index": 127, "time_elapsed": 652936, "internal_node_id": "0.0-91.0"}}, {"uniqueid": "MTK1022:3MX2NQ3YCA1B81DO9GUNM437T8F5X8", "current_trial": 128, "dateTime": 1513011964931, "trialdata": {"rt": -1, "stimulus": "<p id=\"stim\">CRIB</p>", "key_press": -1, "type": "PRES_VIS", "word": "crib", "wordID": 406, "conditions": [24, 800, "v", 24000], "trial": 3, "serialpos": 11, "trial_type": "single-stim", "trial_index": 128, "time_elapsed": 654604, "internal_node_id": "0.0-92.0"}}, {"uniqueid": "MTK1022:3MX2NQ3YCA1B81DO9GUNM437T8F5X8", "current_trial": 129, "dateTime": 1513011966627, "trialdata": {"rt": -1, "stimulus": "<p id=\"stim\">MAILMAN</p>", "key_press": -1, "type": "PRES_VIS", "word": "mailman", "wordID": 857, "conditions": [24, 800, "v", 24000], "trial": 3, "serialpos": 12, "trial_type": "single-stim", "trial_index": 129, "time_elapsed": 656300, "internal_node_id": "0.0-93.0"}}, {"uniqueid": "MTK1022:3MX2NQ3YCA1B81DO9GUNM437T8F5X8", "current_trial": 130, "dateTime": 1513011968446, "trialdata": {"rt": -1, "stimulus": "<p id=\"stim\">TORTOISE</p>", "key_press": -1, "type": "PRES_VIS", "word": "tortoise", "wordID": 1485, "conditions": [24, 800, "v", 24000], "trial": 3, "serialpos": 13, "trial_type": "single-stim", "trial_index": 130, "time_elapsed": 658119, "internal_node_id": "0.0-94.0"}}, {"uniqueid": "MTK1022:3MX2NQ3YCA1B81DO9GUNM437T8F5X8", "current_trial": 131, "dateTime": 1513011970192, "trialdata": {"rt": -1, "stimulus": "<p id=\"stim\">POPCORN</p>", "key_press": -1, "type": "PRES_VIS", "word": "popcorn", "wordID": 1103, "conditions": [24, 800, "v", 24000], "trial": 3, "serialpos": 14, "trial_type": "single-stim", "trial_index": 131, "time_elapsed": 659865, "internal_node_id": "0.0-95.0"}}, {"uniqueid": "MTK1022:3MX2NQ3YCA1B81DO9GUNM437T8F5X8", "current_trial": 132, "dateTime": 1513011972084, "trialdata": {"rt": -1, "stimulus": "<p id=\"stim\">UNCLE</p>", "key_press": -1, "type": "PRES_VIS", "word": "uncle", "wordID": 1535, "conditions": [24, 800, "v", 24000], "trial": 3, "serialpos": 15, "trial_type": "single-stim", "trial_index": 132, "time_elapsed": 661757, "internal_node_id": "0.0-96.0"}}, {"uniqueid": "MTK1022:3MX2NQ3YCA1B81DO9GUNM437T8F5X8", "current_trial": 133, "dateTime": 1513011973980, "trialdata": {"rt": -1, "stimulus": "<p id=\"stim\">BRICK</p>", "key_press": -1, "type": "PRES_VIS", "word": "brick", "wordID": 171, "conditions": [24, 800, "v", 24000], "trial": 3, "serialpos": 16, "trial_type": "single-stim", "trial_index": 133, "time_elapsed": 663653, "internal_node_id": "0.0-97.0"}}, {"uniqueid": "MTK1022:3MX2NQ3YCA1B81DO9GUNM437T8F5X8", "current_trial": 134, "dateTime": 1513011975962, "trialdata": {"rt": -1, "stimulus": "<p id=\"stim\">STONE</p>", "key_press": -1, "type": "PRES_VIS", "word": "stone", "wordID": 1384, "conditions": [24, 800, "v", 24000], "trial": 3, "serialpos": 17, "trial_type": "single-stim", "trial_index": 134, "time_elapsed": 665635, "internal_node_id": "0.0-98.0"}}, {"uniqueid": "MTK1022:3MX2NQ3YCA1B81DO9GUNM437T8F5X8", "current_trial": 135, "dateTime": 1513011977885, "trialdata": {"rt": -1, "stimulus": "<p id=\"stim\">BINDER</p>", "key_press": -1, "type": "PRES_VIS", "word": "binder", "wordID": 126, "conditions": [24, 800, "v", 24000], "trial": 3, "serialpos": 18, "trial_type": "single-stim", "trial_index": 135, "time_elapsed": 667558, "internal_node_id": "0.0-99.0"}}, {"uniqueid": "MTK1022:3MX2NQ3YCA1B81DO9GUNM437T8F5X8", "current_trial": 136, "dateTime": 1513011979498, "trialdata": {"rt": -1, "stimulus": "<p id=\"stim\">NOTEBOOK</p>", "key_press": -1, "type": "PRES_VIS", "word": "notebook", "wordID": 958, "conditions": [24, 800, "v", 24000], "trial": 3, "serialpos": 19, "trial_type": "single-stim", "trial_index": 136, "time_elapsed": 669171, "internal_node_id": "0.0-100.0"}}, {"uniqueid": "MTK1022:3MX2NQ3YCA1B81DO9GUNM437T8F5X8", "current_trial": 137, "dateTime": 1513011981424, "trialdata": {"rt": -1, "stimulus": "<p id=\"stim\">MILDEW</p>", "key_press": -1, "type": "PRES_VIS", "word": "mildew", "wordID": 892, "conditions": [24, 800, "v", 24000], "trial": 3, "serialpos": 20, "trial_type": "single-stim", "trial_index": 137, "time_elapsed": 671097, "internal_node_id": "0.0-101.0"}}, {"uniqueid": "MTK1022:3MX2NQ3YCA1B81DO9GUNM437T8F5X8", "current_trial": 138, "dateTime": 1513011983096, "trialdata": {"rt": -1, "stimulus": "<p id=\"stim\">RIFLE</p>", "key_press": -1, "type": "PRES_VIS", "word": "rifle", "wordID": 1191, "conditions": [24, 800, "v", 24000], "trial": 3, "serialpos": 21, "trial_type": "single-stim", "trial_index": 138, "time_elapsed": 672769, "internal_node_id": "0.0-102.0"}}, {"uniqueid": "MTK1022:3MX2NQ3YCA1B81DO9GUNM437T8F5X8", "current_trial": 139, "dateTime": 1513011985088, "trialdata": {"rt": -1, "stimulus": "<p id=\"stim\">HIKER</p>", "key_press": -1, "type": "PRES_VIS", "word": "hiker", "wordID": 707, "conditions": [24, 800, "v", 24000], "trial": 3, "serialpos": 22, "trial_type": "single-stim", "trial_index": 139, "time_elapsed": 674761, "internal_node_id": "0.0-103.0"}}, {"uniqueid": "MTK1022:3MX2NQ3YCA1B81DO9GUNM437T8F5X8", "current_trial": 140, "dateTime": 1513011986754, "trialdata": {"rt": -1, "stimulus": "<p id=\"stim\">SNACK</p>", "key_press": -1, "type": "PRES_VIS", "word": "snack", "wordID": 1330, "conditions": [24, 800, "v", 24000], "trial": 3, "serialpos": 23, "trial_type": "single-stim", "trial_index": 140, "time_elapsed": 676427, "internal_node_id": "0.0-104.0"}}, {"uniqueid": "MTK1022:3MX2NQ3YCA1B81DO9GUNM437T8F5X8", "current_trial": 141, "dateTime": 1513011989263, "trialdata": {"rt": -1, "stimulus": "", "key_press": -1, "type": "PRE_RECALL_DELAY", "trial_type": "single-stim", "trial_index": 141, "time_elapsed": 678936, "internal_node_id": "0.0-105.0-0.0"}}, {"uniqueid": "MTK1022:3MX2NQ3YCA1B81DO9GUNM437T8F5X8", "current_trial": 142, "dateTime": 1513011989763, "trialdata": {"rt": -1000, "stimulus": "/static/audio/400Hz.wav", "key_press": -1, "type": "PRE_RECALL_ALERT", "trial_type": "single-audio", "trial_index": 142, "time_elapsed": 679436, "internal_node_id": "0.0-106.0"}}, {"uniqueid": "MTK1022:3MX2NQ3YCA1B81DO9GUNM437T8F5X8", "current_trial": 143, "dateTime": 1513012049767, "trialdata": {"rt": [2647, 4983, 9111, 11191, 15991, 19319, 22343, 24695, 26471, 34999, 38055, 40663, 43927, 46823, 49847, 53351], "recwords": ["mailman", "kleenex", "scisors", "scalpe", "mailman", "chipmunk", "tortois", "pizza", "clock", "popcorn", "mildew", "binder", "notebook", "salad", "rifle", "kiker"], "type": "FREE_RECALL", "conditions": [24, 800, "v", 24000], "trial": 3, "trial_type": "free-recall", "trial_index": 143, "time_elapsed": 739438, "internal_node_id": "0.0-107.0-0.0"}}, {"uniqueid": "MTK1022:3MX2NQ3YCA1B81DO9GUNM437T8F5X8", "current_trial": 144, "dateTime": 1513012074732, "trialdata": {"rt": 22964, "key_press": 32, "type": "INSTRUCTIONS", "trial_type": "text", "trial_index": 144, "time_elapsed": 764405, "internal_node_id": "0.0-108.0"}}, {"uniqueid": "MTK1022:3MX2NQ3YCA1B81DO9GUNM437T8F5X8", "current_trial": 145, "dateTime": 1513012088735, "trialdata": {"rt": [1726, 4654, 7230, 9982], "responses": ["11", "12", "10", "14"], "num1": [9, 4, 5, 2, 9], "num2": [1, 2, 3, 6, 9], "num3": [1, 6, 2, 6, 8], "type": "DISTRACTOR", "conditions": [24, 1600, "v", 12000], "trial": 4, "trial_type": "math-distractor", "trial_index": 145, "time_elapsed": 778407, "internal_node_id": "0.0-109.0"}}, {"uniqueid": "MTK1022:3MX2NQ3YCA1B81DO9GUNM437T8F5X8", "current_trial": 146, "dateTime": 1513012091737, "trialdata": {"rt": -1, "stimulus": "<p id=\"stim\">10</p>", "key_press": -1, "trial_type": "single-stim", "trial_index": 146, "time_elapsed": 781410, "internal_node_id": "0.0-110.0-0.0"}}, {"uniqueid": "MTK1022:3MX2NQ3YCA1B81DO9GUNM437T8F5X8", "current_trial": 147, "dateTime": 1513012092739, "trialdata": {"rt": -1, "stimulus": "<p id=\"stim\">9</p>", "key_press": -1, "trial_type": "single-stim", "trial_index": 147, "time_elapsed": 782412, "internal_node_id": "0.0-110.0-1.0"}}, {"uniqueid": "MTK1022:3MX2NQ3YCA1B81DO9GUNM437T8F5X8", "current_trial": 148, "dateTime": 1513012093740, "trialdata": {"rt": -1, "stimulus": "<p id=\"stim\">8</p>", "key_press": -1, "trial_type": "single-stim", "trial_index": 148, "time_elapsed": 783413, "internal_node_id": "0.0-110.0-2.0"}}, {"uniqueid": "MTK1022:3MX2NQ3YCA1B81DO9GUNM437T8F5X8", "current_trial": 149, "dateTime": 1513012094742, "trialdata": {"rt": -1, "stimulus": "<p id=\"stim\">7</p>", "key_press": -1, "trial_type": "single-stim", "trial_index": 149, "time_elapsed": 784415, "internal_node_id": "0.0-110.0-3.0"}}, {"uniqueid": "MTK1022:3MX2NQ3YCA1B81DO9GUNM437T8F5X8", "current_trial": 150, "dateTime": 1513012095745, "trialdata": {"rt": -1, "stimulus": "<p id=\"stim\">6</p>", "key_press": -1, "trial_type": "single-stim", "trial_index": 150, "time_elapsed": 785418, "internal_node_id": "0.0-110.0-4.0"}}, {"uniqueid": "MTK1022:3MX2NQ3YCA1B81DO9GUNM437T8F5X8", "current_trial": 151, "dateTime": 1513012096746, "trialdata": {"rt": -1, "stimulus": "<p id=\"stim\">5</p>", "key_press": -1, "trial_type": "single-stim", "trial_index": 151, "time_elapsed": 786419, "internal_node_id": "0.0-110.0-5.0"}}, {"uniqueid": "MTK1022:3MX2NQ3YCA1B81DO9GUNM437T8F5X8", "current_trial": 152, "dateTime": 1513012097747, "trialdata": {"rt": -1, "stimulus": "<p id=\"stim\">4</p>", "key_press": -1, "trial_type": "single-stim", "trial_index": 152, "time_elapsed": 787420, "internal_node_id": "0.0-110.0-6.0"}}, {"uniqueid": "MTK1022:3MX2NQ3YCA1B81DO9GUNM437T8F5X8", "current_trial": 153, "dateTime": 1513012098748, "trialdata": {"rt": -1, "stimulus": "<p id=\"stim\">3</p>", "key_press": -1, "trial_type": "single-stim", "trial_index": 153, "time_elapsed": 788421, "internal_node_id": "0.0-110.0-7.0"}}, {"uniqueid": "MTK1022:3MX2NQ3YCA1B81DO9GUNM437T8F5X8", "current_trial": 154, "dateTime": 1513012099752, "trialdata": {"rt": -1, "stimulus": "<p id=\"stim\">2</p>", "key_press": -1, "trial_type": "single-stim", "trial_index": 154, "time_elapsed": 789425, "internal_node_id": "0.0-110.0-8.0"}}, {"uniqueid": "MTK1022:3MX2NQ3YCA1B81DO9GUNM437T8F5X8", "current_trial": 155, "dateTime": 1513012100755, "trialdata": {"rt": -1, "stimulus": "<p id=\"stim\">1</p>", "key_press": -1, "trial_type": "single-stim", "trial_index": 155, "time_elapsed": 790427, "internal_node_id": "0.0-110.0-9.0"}}, {"uniqueid": "MTK1022:3MX2NQ3YCA1B81DO9GUNM437T8F5X8", "current_trial": 156, "dateTime": 1513012102255, "trialdata": {"rt": -1, "stimulus": "<p id=\"stim\">+</p>", "key_press": -1, "type": "FIXATION", "trial_type": "single-stim", "trial_index": 156, "time_elapsed": 791928, "internal_node_id": "0.0-111.0-0.0"}}, {"uniqueid": "MTK1022:3MX2NQ3YCA1B81DO9GUNM437T8F5X8", "current_trial": 157, "dateTime": 1513012103857, "trialdata": {"rt": -1, "stimulus": "<p id=\"stim\">MONEY</p>", "key_press": -1, "type": "PRES_VIS", "word": "money", "wordID": 907, "conditions": [24, 1600, "v", 12000], "trial": 4, "serialpos": 0, "trial_type": "single-stim", "trial_index": 157, "time_elapsed": 793530, "internal_node_id": "0.0-112.0"}}, {"uniqueid": "MTK1022:3MX2NQ3YCA1B81DO9GUNM437T8F5X8", "current_trial": 158, "dateTime": 1513012106336, "trialdata": {"rt": -1, "stimulus": "<p id=\"stim\">CABBAGE</p>", "key_press": -1, "type": "PRES_VIS", "word": "cabbage", "wordID": 209, "conditions": [24, 1600, "v", 12000], "trial": 4, "serialpos": 1, "trial_type": "single-stim", "trial_index": 158, "time_elapsed": 796009, "internal_node_id": "0.0-113.0"}}, {"uniqueid": "MTK1022:3MX2NQ3YCA1B81DO9GUNM437T8F5X8", "current_trial": 159, "dateTime": 1513012109089, "trialdata": {"rt": -1, "stimulus": "<p id=\"stim\">RECORD</p>", "key_press": -1, "type": "PRES_VIS", "word": "record", "wordID": 1175, "conditions": [24, 1600, "v", 12000], "trial": 4, "serialpos": 2, "trial_type": "single-stim", "trial_index": 159, "time_elapsed": 798762, "internal_node_id": "0.0-114.0"}}, {"uniqueid": "MTK1022:3MX2NQ3YCA1B81DO9GUNM437T8F5X8", "current_trial": 160, "dateTime": 1513012111765, "trialdata": {"rt": -1, "stimulus": "<p id=\"stim\">SUPPER</p>", "key_press": -1, "type": "PRES_VIS", "word": "supper", "wordID": 1410, "conditions": [24, 1600, "v", 12000], "trial": 4, "serialpos": 3, "trial_type": "single-stim", "trial_index": 160, "time_elapsed": 801438, "internal_node_id": "0.0-115.0"}}, {"uniqueid": "MTK1022:3MX2NQ3YCA1B81DO9GUNM437T8F5X8", "current_trial": 161, "dateTime": 1513012114268, "trialdata": {"rt": -1, "stimulus": "<p id=\"stim\">FIREMAN</p>", "key_press": -1, "type": "PRES_VIS", "word": "fireman", "wordID": 568, "conditions": [24, 1600, "v", 12000], "trial": 4, "serialpos": 4, "trial_type": "single-stim", "trial_index": 161, "time_elapsed": 803941, "internal_node_id": "0.0-116.0"}}, {"uniqueid": "MTK1022:3MX2NQ3YCA1B81DO9GUNM437T8F5X8", "current_trial": 162, "dateTime": 1513012116916, "trialdata": {"rt": -1, "stimulus": "<p id=\"stim\">TWIG</p>", "key_press": -1, "type": "PRES_VIS", "word": "twig", "wordID": 1526, "conditions": [24, 1600, "v", 12000], "trial": 4, "serialpos": 5, "trial_type": "single-stim", "trial_index": 162, "time_elapsed": 806589, "internal_node_id": "0.0-117.0"}}, {"uniqueid": "MTK1022:3MX2NQ3YCA1B81DO9GUNM437T8F5X8", "current_trial": 163, "dateTime": 1513012119475, "trialdata": {"rt": -1, "stimulus": "<p id=\"stim\">PEBBLE</p>", "key_press": -1, "type": "PRES_VIS", "word": "pebble", "wordID": 1034, "conditions": [24, 1600, "v", 12000], "trial": 4, "serialpos": 6, "trial_type": "single-stim", "trial_index": 163, "time_elapsed": 809148, "internal_node_id": "0.0-118.0"}}, {"uniqueid": "MTK1022:3MX2NQ3YCA1B81DO9GUNM437T8F5X8", "current_trial": 164, "dateTime": 1513012122279, "trialdata": {"rt": -1, "stimulus": "<p id=\"stim\">PICNIC</p>", "key_press": -1, "type": "PRES_VIS", "word": "picnic", "wordID": 1059, "conditions": [24, 1600, "v", 12000], "trial": 4, "serialpos": 7, "trial_type": "single-stim", "trial_index": 164, "time_elapsed": 811952, "internal_node_id": "0.0-119.0"}}, {"uniqueid": "MTK1022:3MX2NQ3YCA1B81DO9GUNM437T8F5X8", "current_trial": 165, "dateTime": 1513012124839, "trialdata": {"rt": -1, "stimulus": "<p id=\"stim\">JELLY</p>", "key_press": -1, "type": "PRES_VIS", "word": "jelly", "wordID": 754, "conditions": [24, 1600, "v", 12000], "trial": 4, "serialpos": 8, "trial_type": "single-stim", "trial_index": 165, "time_elapsed": 814512, "internal_node_id": "0.0-120.0"}}, {"uniqueid": "MTK1022:3MX2NQ3YCA1B81DO9GUNM437T8F5X8", "current_trial": 166, "dateTime": 1513012127572, "trialdata": {"rt": -1, "stimulus": "<p id=\"stim\">MATTRESS</p>", "key_press": -1, "type": "PRES_VIS", "word": "mattress", "wordID": 878, "conditions": [24, 1600, "v", 12000], "trial": 4, "serialpos": 9, "trial_type": "single-stim", "trial_index": 166, "time_elapsed": 817245, "internal_node_id": "0.0-121.0"}}, {"uniqueid": "MTK1022:3MX2NQ3YCA1B81DO9GUNM437T8F5X8", "current_trial": 167, "dateTime": 1513012130339, "trialdata": {"rt": -1, "stimulus": "<p id=\"stim\">COUCH</p>", "key_press": -1, "type": "PRES_VIS", "word": "couch", "wordID": 385, "conditions": [24, 1600, "v", 12000], "trial": 4, "serialpos": 10, "trial_type": "single-stim", "trial_index": 167, "time_elapsed": 820012, "internal_node_id": "0.0-122.0"}}, {"uniqueid": "MTK1022:3MX2NQ3YCA1B81DO9GUNM437T8F5X8", "current_trial": 168, "dateTime": 1513012132776, "trialdata": {"rt": -1, "stimulus": "<p id=\"stim\">FLAG</p>", "key_press": -1, "type": "PRES_VIS", "word": "flag", "wordID": 572, "conditions": [24, 1600, "v", 12000], "trial": 4, "serialpos": 11, "trial_type": "single-stim", "trial_index": 168, "time_elapsed": 822449, "internal_node_id": "0.0-123.0"}}, {"uniqueid": "MTK1022:3MX2NQ3YCA1B81DO9GUNM437T8F5X8", "current_trial": 169, "dateTime": 1513012135377, "trialdata": {"rt": -1, "stimulus": "<p id=\"stim\">LILY</p>", "key_press": -1, "type": "PRES_VIS", "word": "lily", "wordID": 820, "conditions": [24, 1600, "v", 12000], "trial": 4, "serialpos": 12, "trial_type": "single-stim", "trial_index": 169, "time_elapsed": 825050, "internal_node_id": "0.0-124.0"}}, {"uniqueid": "MTK1022:3MX2NQ3YCA1B81DO9GUNM437T8F5X8", "current_trial": 170, "dateTime": 1513012138092, "trialdata": {"rt": -1, "stimulus": "<p id=\"stim\">CURTAIN</p>", "key_press": -1, "type": "PRES_VIS", "word": "curtain", "wordID": 426, "conditions": [24, 1600, "v", 12000], "trial": 4, "serialpos": 13, "trial_type": "single-stim", "trial_index": 170, "time_elapsed": 827765, "internal_node_id": "0.0-125.0"}}, {"uniqueid": "MTK1022:3MX2NQ3YCA1B81DO9GUNM437T8F5X8", "current_trial": 171, "dateTime": 1513012140736, "trialdata": {"rt": -1, "stimulus": "<p id=\"stim\">PROTON</p>", "key_press": -1, "type": "PRES_VIS", "word": "proton", "wordID": 1131, "conditions": [24, 1600, "v", 12000], "trial": 4, "serialpos": 14, "trial_type": "single-stim", "trial_index": 171, "time_elapsed": 830409, "internal_node_id": "0.0-126.0"}}, {"uniqueid": "MTK1022:3MX2NQ3YCA1B81DO9GUNM437T8F5X8", "current_trial": 172, "dateTime": 1513012143216, "trialdata": {"rt": -1, "stimulus": "<p id=\"stim\">CLAM</p>", "key_press": -1, "type": "PRES_VIS", "word": "clam", "wordID": 314, "conditions": [24, 1600, "v", 12000], "trial": 4, "serialpos": 15, "trial_type": "single-stim", "trial_index": 172, "time_elapsed": 832889, "internal_node_id": "0.0-127.0"}}, {"uniqueid": "MTK1022:3MX2NQ3YCA1B81DO9GUNM437T8F5X8", "current_trial": 173, "dateTime": 1513012145905, "trialdata": {"rt": -1, "stimulus": "<p id=\"stim\">STALLION</p>", "key_press": -1, "type": "PRES_VIS", "word": "stallion", "wordID": 1368, "conditions": [24, 1600, "v", 12000], "trial": 4, "serialpos": 16, "trial_type": "single-stim", "trial_index": 173, "time_elapsed": 835578, "internal_node_id": "0.0-128.0"}}, {"uniqueid": "MTK1022:3MX2NQ3YCA1B81DO9GUNM437T8F5X8", "current_trial": 174, "dateTime": 1513012148353, "trialdata": {"rt": -1, "stimulus": "<p id=\"stim\">KEEPER</p>", "key_press": -1, "type": "PRES_VIS", "word": "keeper", "wordID": 768, "conditions": [24, 1600, "v", 12000], "trial": 4, "serialpos": 17, "trial_type": "single-stim", "trial_index": 174, "time_elapsed": 838026, "internal_node_id": "0.0-129.0"}}, {"uniqueid": "MTK1022:3MX2NQ3YCA1B81DO9GUNM437T8F5X8", "current_trial": 175, "dateTime": 1513012150838, "trialdata": {"rt": -1, "stimulus": "<p id=\"stim\">HEADBAND</p>", "key_press": -1, "type": "PRES_VIS", "word": "headband", "wordID": 695, "conditions": [24, 1600, "v", 12000], "trial": 4, "serialpos": 18, "trial_type": "single-stim", "trial_index": 175, "time_elapsed": 840511, "internal_node_id": "0.0-130.0"}}, {"uniqueid": "MTK1022:3MX2NQ3YCA1B81DO9GUNM437T8F5X8", "current_trial": 176, "dateTime": 1513012153274, "trialdata": {"rt": -1, "stimulus": "<p id=\"stim\">STATUE</p>", "key_press": -1, "type": "PRES_VIS", "word": "statue", "wordID": 1373, "conditions": [24, 1600, "v", 12000], "trial": 4, "serialpos": 19, "trial_type": "single-stim", "trial_index": 176, "time_elapsed": 842946, "internal_node_id": "0.0-131.0"}}, {"uniqueid": "MTK1022:3MX2NQ3YCA1B81DO9GUNM437T8F5X8", "current_trial": 177, "dateTime": 1513012156011, "trialdata": {"rt": -1, "stimulus": "<p id=\"stim\">SCULPTURE</p>", "key_press": -1, "type": "PRES_VIS", "word": "sculpture", "wordID": 1257, "conditions": [24, 1600, "v", 12000], "trial": 4, "serialpos": 20, "trial_type": "single-stim", "trial_index": 177, "time_elapsed": 845684, "internal_node_id": "0.0-132.0"}}, {"uniqueid": "MTK1022:3MX2NQ3YCA1B81DO9GUNM437T8F5X8", "current_trial": 178, "dateTime": 1513012158488, "trialdata": {"rt": -1, "stimulus": "<p id=\"stim\">BROOK</p>", "key_press": -1, "type": "PRES_VIS", "word": "brook", "wordID": 176, "conditions": [24, 1600, "v", 12000], "trial": 4, "serialpos": 21, "trial_type": "single-stim", "trial_index": 178, "time_elapsed": 848161, "internal_node_id": "0.0-133.0"}}, {"uniqueid": "MTK1022:3MX2NQ3YCA1B81DO9GUNM437T8F5X8", "current_trial": 179, "dateTime": 1513012161204, "trialdata": {"rt": -1, "stimulus": "<p id=\"stim\">SHIRT</p>", "key_press": -1, "type": "PRES_VIS", "word": "shirt", "wordID": 1286, "conditions": [24, 1600, "v", 12000], "trial": 4, "serialpos": 22, "trial_type": "single-stim", "trial_index": 179, "time_elapsed": 850877, "internal_node_id": "0.0-134.0"}}, {"uniqueid": "MTK1022:3MX2NQ3YCA1B81DO9GUNM437T8F5X8", "current_trial": 180, "dateTime": 1513012163614, "trialdata": {"rt": -1, "stimulus": "<p id=\"stim\">POISON</p>", "key_press": -1, "type": "PRES_VIS", "word": "poison", "wordID": 1095, "conditions": [24, 1600, "v", 12000], "trial": 4, "serialpos": 23, "trial_type": "single-stim", "trial_index": 180, "time_elapsed": 853287, "internal_node_id": "0.0-135.0"}}, {"uniqueid": "MTK1022:3MX2NQ3YCA1B81DO9GUNM437T8F5X8", "current_trial": 181, "dateTime": 1513012166087, "trialdata": {"rt": -1, "stimulus": "", "key_press": -1, "type": "PRE_RECALL_DELAY", "trial_type": "single-stim", "trial_index": 181, "time_elapsed": 855760, "internal_node_id": "0.0-136.0-0.0"}}, {"uniqueid": "MTK1022:3MX2NQ3YCA1B81DO9GUNM437T8F5X8", "current_trial": 182, "dateTime": 1513012166589, "trialdata": {"rt": -1000, "stimulus": "/static/audio/400Hz.wav", "key_press": -1, "type": "PRE_RECALL_ALERT", "trial_type": "single-audio", "trial_index": 182, "time_elapsed": 856262, "internal_node_id": "0.0-137.0"}}, {"uniqueid": "MTK1022:3MX2NQ3YCA1B81DO9GUNM437T8F5X8", "current_trial": 183, "dateTime": 1513012226594, "trialdata": {"rt": [4445, 5981, 8237, 9965, 11645, 13261, 15949, 17123, 19933, 21469, 23261, 25837, 30173, 32109, 34349], "recwords": ["poison", "brook", "proton", "clam", "lily", "flag", "headband", "shirt", "couch", "jelly", "lily", "stallion", "sculpture", "curtain", "couch"], "type": "FREE_RECALL", "conditions": [24, 1600, "v", 12000], "trial": 4, "trial_type": "free-recall", "trial_index": 183, "time_elapsed": 916265, "internal_node_id": "0.0-138.0-0.0"}}, {"uniqueid": "MTK1022:3MX2NQ3YCA1B81DO9GUNM437T8F5X8", "current_trial": 184, "dateTime": 1513012452588, "trialdata": {"rt": 223992, "key_press": 32, "type": "INSTRUCTIONS", "trial_type": "text", "trial_index": 184, "time_elapsed": 1142261, "internal_node_id": "0.0-139.0"}}, {"uniqueid": "MTK1022:3MX2NQ3YCA1B81DO9GUNM437T8F5X8", "current_trial": 185, "dateTime": 1513012478591, "trialdata": {"rt": [2733, 4605, 6989, 10013, 13150, 16077, 18925, 21213], "responses": ["11", "14", "16", "16", "15", "11", "12", "12"], "num1": [7, 5, 7, 8, 6, 3, 2, 3, 6], "num2": [1, 4, 1, 1, 6, 2, 6, 3, 9], "num3": [3, 5, 8, 7, 3, 6, 4, 6, 8], "type": "DISTRACTOR", "conditions": [24, 800, "a", 24000], "trial": 5, "trial_type": "math-distractor", "trial_index": 185, "time_elapsed": 1168264, "internal_node_id": "0.0-140.0"}}, {"uniqueid": "MTK1022:3MX2NQ3YCA1B81DO9GUNM437T8F5X8", "current_trial": 186, "dateTime": 1513012481593, "trialdata": {"rt": -1, "stimulus": "<p id=\"stim\">10</p>", "key_press": -1, "trial_type": "single-stim", "trial_index": 186, "time_elapsed": 1171266, "internal_node_id": "0.0-141.0-0.0"}}, {"uniqueid": "MTK1022:3MX2NQ3YCA1B81DO9GUNM437T8F5X8", "current_trial": 187, "dateTime": 1513012482611, "trialdata": {"rt": -1, "stimulus": "<p id=\"stim\">9</p>", "key_press": -1, "trial_type": "single-stim", "trial_index": 187, "time_elapsed": 1172284, "internal_node_id": "0.0-141.0-1.0"}}, {"uniqueid": "MTK1022:3MX2NQ3YCA1B81DO9GUNM437T8F5X8", "current_trial": 188, "dateTime": 1513012483613, "trialdata": {"rt": -1, "stimulus": "<p id=\"stim\">8</p>", "key_press": -1, "trial_type": "single-stim", "trial_index": 188, "time_elapsed": 1173286, "internal_node_id": "0.0-141.0-2.0"}}, {"uniqueid": "MTK1022:3MX2NQ3YCA1B81DO9GUNM437T8F5X8", "current_trial": 189, "dateTime": 1513012484614, "trialdata": {"rt": -1, "stimulus": "<p id=\"stim\">7</p>", "key_press": -1, "trial_type": "single-stim", "trial_index": 189, "time_elapsed": 1174287, "internal_node_id": "0.0-141.0-3.0"}}, {"uniqueid": "MTK1022:3MX2NQ3YCA1B81DO9GUNM437T8F5X8", "current_trial": 190, "dateTime": 1513012485616, "trialdata": {"rt": -1, "stimulus": "<p id=\"stim\">6</p>", "key_press": -1, "trial_type": "single-stim", "trial_index": 190, "time_elapsed": 1175289, "internal_node_id": "0.0-141.0-4.0"}}, {"uniqueid": "MTK1022:3MX2NQ3YCA1B81DO9GUNM437T8F5X8", "current_trial": 191, "dateTime": 1513012486618, "trialdata": {"rt": -1, "stimulus": "<p id=\"stim\">5</p>", "key_press": -1, "trial_type": "single-stim", "trial_index": 191, "time_elapsed": 1176291, "internal_node_id": "0.0-141.0-5.0"}}, {"uniqueid": "MTK1022:3MX2NQ3YCA1B81DO9GUNM437T8F5X8", "current_trial": 192, "dateTime": 1513012487621, "trialdata": {"rt": -1, "stimulus": "<p id=\"stim\">4</p>", "key_press": -1, "trial_type": "single-stim", "trial_index": 192, "time_elapsed": 1177294, "internal_node_id": "0.0-141.0-6.0"}}, {"uniqueid": "MTK1022:3MX2NQ3YCA1B81DO9GUNM437T8F5X8", "current_trial": 193, "dateTime": 1513012488622, "trialdata": {"rt": -1, "stimulus": "<p id=\"stim\">3</p>", "key_press": -1, "trial_type": "single-stim", "trial_index": 193, "time_elapsed": 1178295, "internal_node_id": "0.0-141.0-7.0"}}, {"uniqueid": "MTK1022:3MX2NQ3YCA1B81DO9GUNM437T8F5X8", "current_trial": 194, "dateTime": 1513012489623, "trialdata": {"rt": -1, "stimulus": "<p id=\"stim\">2</p>", "key_press": -1, "trial_type": "single-stim", "trial_index": 194, "time_elapsed": 1179296, "internal_node_id": "0.0-141.0-8.0"}}, {"uniqueid": "MTK1022:3MX2NQ3YCA1B81DO9GUNM437T8F5X8", "current_trial": 195, "dateTime": 1513012490624, "trialdata": {"rt": -1, "stimulus": "<p id=\"stim\">1</p>", "key_press": -1, "trial_type": "single-stim", "trial_index": 195, "time_elapsed": 1180297, "internal_node_id": "0.0-141.0-9.0"}}, {"uniqueid": "MTK1022:3MX2NQ3YCA1B81DO9GUNM437T8F5X8", "current_trial": 196, "dateTime": 1513012492125, "trialdata": {"rt": -1, "stimulus": "<p id=\"stim\">+</p>", "key_press": -1, "type": "FIXATION", "trial_type": "single-stim", "trial_index": 196, "time_elapsed": 1181798, "internal_node_id": "0.0-142.0-0.0"}}, {"uniqueid": "MTK1022:3MX2NQ3YCA1B81DO9GUNM437T8F5X8", "current_trial": 197, "dateTime": 1513012493884, "trialdata": {"rt": -1000, "stimulus": "/static/audio/wordpool/MARS.wav", "key_press": -1, "type": "PRES_AUD", "word": "mars", "wordID": 872, "conditions": [24, 800, "a", 24000], "trial": 5, "serialpos": 0, "trial_type": "single-audio", "trial_index": 197, "time_elapsed": 1183557, "internal_node_id": "0.0-143.0"}}, {"uniqueid": "MTK1022:3MX2NQ3YCA1B81DO9GUNM437T8F5X8", "current_trial": 198, "dateTime": 1513012495772, "trialdata": {"rt": -1000, "stimulus": "/static/audio/wordpool/ROCKET.wav", "key_press": -1, "type": "PRES_AUD", "word": "rocket", "wordID": 1201, "conditions": [24, 800, "a", 24000], "trial": 5, "serialpos": 1, "trial_type": "single-audio", "trial_index": 198, "time_elapsed": 1185445, "internal_node_id": "0.0-144.0"}}, {"uniqueid": "MTK1022:3MX2NQ3YCA1B81DO9GUNM437T8F5X8", "current_trial": 199, "dateTime": 1513012497557, "trialdata": {"rt": -1000, "stimulus": "/static/audio/wordpool/ARMY.wav", "key_press": -1, "type": "PRES_AUD", "word": "army", "wordID": 38, "conditions": [24, 800, "a", 24000], "trial": 5, "serialpos": 2, "trial_type": "single-audio", "trial_index": 199, "time_elapsed": 1187230, "internal_node_id": "0.0-145.0"}}, {"uniqueid": "MTK1022:3MX2NQ3YCA1B81DO9GUNM437T8F5X8", "current_trial": 200, "dateTime": 1513012499332, "trialdata": {"rt": -1000, "stimulus": "/static/audio/wordpool/VIRUS.wav", "key_press": -1, "type": "PRES_AUD", "word": "virus", "wordID": 1571, "conditions": [24, 800, "a", 24000], "trial": 5, "serialpos": 3, "trial_type": "single-audio", "trial_index": 200, "time_elapsed": 1189005, "internal_node_id": "0.0-146.0"}}, {"uniqueid": "MTK1022:3MX2NQ3YCA1B81DO9GUNM437T8F5X8", "current_trial": 201, "dateTime": 1513012501060, "trialdata": {"rt": -1000, "stimulus": "/static/audio/wordpool/DRUG.wav", "key_press": -1, "type": "PRES_AUD", "word": "drug", "wordID": 500, "conditions": [24, 800, "a", 24000], "trial": 5, "serialpos": 4, "trial_type": "single-audio", "trial_index": 201, "time_elapsed": 1190733, "internal_node_id": "0.0-147.0"}}, {"uniqueid": "MTK1022:3MX2NQ3YCA1B81DO9GUNM437T8F5X8", "current_trial": 202, "dateTime": 1513012503004, "trialdata": {"rt": -1000, "stimulus": "/static/audio/wordpool/FILM.wav", "key_press": -1, "type": "PRES_AUD", "word": "film", "wordID": 564, "conditions": [24, 800, "a", 24000], "trial": 5, "serialpos": 5, "trial_type": "single-audio", "trial_index": 202, "time_elapsed": 1192677, "internal_node_id": "0.0-148.0"}}, {"uniqueid": "MTK1022:3MX2NQ3YCA1B81DO9GUNM437T8F5X8", "current_trial": 203, "dateTime": 1513012504905, "trialdata": {"rt": -1000, "stimulus": "/static/audio/wordpool/CONCERT.wav", "key_press": -1, "type": "PRES_AUD", "word": "concert", "wordID": 359, "conditions": [24, 800, "a", 24000], "trial": 5, "serialpos": 6, "trial_type": "single-audio", "trial_index": 203, "time_elapsed": 1194578, "internal_node_id": "0.0-149.0"}}, {"uniqueid": "MTK1022:3MX2NQ3YCA1B81DO9GUNM437T8F5X8", "current_trial": 204, "dateTime": 1513012506759, "trialdata": {"rt": -1000, "stimulus": "/static/audio/wordpool/VAGRANT.wav", "key_press": -1, "type": "PRES_AUD", "word": "vagrant", "wordID": 1543, "conditions": [24, 800, "a", 24000], "trial": 5, "serialpos": 7, "trial_type": "single-audio", "trial_index": 204, "time_elapsed": 1196432, "internal_node_id": "0.0-150.0"}}, {"uniqueid": "MTK1022:3MX2NQ3YCA1B81DO9GUNM437T8F5X8", "current_trial": 205, "dateTime": 1513012508657, "trialdata": {"rt": -1000, "stimulus": "/static/audio/wordpool/ORCHID.wav", "key_press": -1, "type": "PRES_AUD", "word": "orchid", "wordID": 981, "conditions": [24, 800, "a", 24000], "trial": 5, "serialpos": 8, "trial_type": "single-audio", "trial_index": 205, "time_elapsed": 1198330, "internal_node_id": "0.0-151.0"}}, {"uniqueid": "MTK1022:3MX2NQ3YCA1B81DO9GUNM437T8F5X8", "current_trial": 206, "dateTime": 1513012510373, "trialdata": {"rt": -1000, "stimulus": "/static/audio/wordpool/GARDEN.wav", "key_press": -1, "type": "PRES_AUD", "word": "garden", "wordID": 622, "conditions": [24, 800, "a", 24000], "trial": 5, "serialpos": 9, "trial_type": "single-audio", "trial_index": 206, "time_elapsed": 1200046, "internal_node_id": "0.0-152.0"}}, {"uniqueid": "MTK1022:3MX2NQ3YCA1B81DO9GUNM437T8F5X8", "current_trial": 207, "dateTime": 1513012512356, "trialdata": {"rt": -1000, "stimulus": "/static/audio/wordpool/TABLET.wav", "key_press": -1, "type": "PRES_AUD", "word": "tablet", "wordID": 1426, "conditions": [24, 800, "a", 24000], "trial": 5, "serialpos": 10, "trial_type": "single-audio", "trial_index": 207, "time_elapsed": 1202029, "internal_node_id": "0.0-153.0"}}, {"uniqueid": "MTK1022:3MX2NQ3YCA1B81DO9GUNM437T8F5X8", "current_trial": 208, "dateTime": 1513012514123, "trialdata": {"rt": -1000, "stimulus": "/static/audio/wordpool/BUG.wav", "key_press": -1, "type": "PRES_AUD", "word": "bug", "wordID": 186, "conditions": [24, 800, "a", 24000], "trial": 5, "serialpos": 11, "trial_type": "single-audio", "trial_index": 208, "time_elapsed": 1203796, "internal_node_id": "0.0-154.0"}}, {"uniqueid": "MTK1022:3MX2NQ3YCA1B81DO9GUNM437T8F5X8", "current_trial": 209, "dateTime": 1513012515848, "trialdata": {"rt": -1000, "stimulus": "/static/audio/wordpool/BANQUET.wav", "key_press": -1, "type": "PRES_AUD", "word": "banquet", "wordID": 85, "conditions": [24, 800, "a", 24000], "trial": 5, "serialpos": 12, "trial_type": "single-audio", "trial_index": 209, "time_elapsed": 1205520, "internal_node_id": "0.0-155.0"}}, {"uniqueid": "MTK1022:3MX2NQ3YCA1B81DO9GUNM437T8F5X8", "current_trial": 210, "dateTime": 1513012517544, "trialdata": {"rt": -1000, "stimulus": "/static/audio/wordpool/LEG.wav", "key_press": -1, "type": "PRES_AUD", "word": "leg", "wordID": 808, "conditions": [24, 800, "a", 24000], "trial": 5, "serialpos": 13, "trial_type": "single-audio", "trial_index": 210, "time_elapsed": 1207217, "internal_node_id": "0.0-156.0"}}, {"uniqueid": "MTK1022:3MX2NQ3YCA1B81DO9GUNM437T8F5X8", "current_trial": 211, "dateTime": 1513012519157, "trialdata": {"rt": -1000, "stimulus": "/static/audio/wordpool/ELBOW.wav", "key_press": -1, "type": "PRES_AUD", "word": "elbow", "wordID": 519, "conditions": [24, 800, "a", 24000], "trial": 5, "serialpos": 14, "trial_type": "single-audio", "trial_index": 211, "time_elapsed": 1208830, "internal_node_id": "0.0-157.0"}}, {"uniqueid": "MTK1022:3MX2NQ3YCA1B81DO9GUNM437T8F5X8", "current_trial": 212, "dateTime": 1513012520854, "trialdata": {"rt": -1000, "stimulus": "/static/audio/wordpool/PLASTER.wav", "key_press": -1, "type": "PRES_AUD", "word": "plaster", "wordID": 1084, "conditions": [24, 800, "a", 24000], "trial": 5, "serialpos": 15, "trial_type": "single-audio", "trial_index": 212, "time_elapsed": 1210527, "internal_node_id": "0.0-158.0"}}, {"uniqueid": "MTK1022:3MX2NQ3YCA1B81DO9GUNM437T8F5X8", "current_trial": 213, "dateTime": 1513012522590, "trialdata": {"rt": -1000, "stimulus": "/static/audio/wordpool/PRINCESS.wav", "key_press": -1, "type": "PRES_AUD", "word": "princess", "wordID": 1124, "conditions": [24, 800, "a", 24000], "trial": 5, "serialpos": 16, "trial_type": "single-audio", "trial_index": 213, "time_elapsed": 1212263, "internal_node_id": "0.0-159.0"}}, {"uniqueid": "MTK1022:3MX2NQ3YCA1B81DO9GUNM437T8F5X8", "current_trial": 214, "dateTime": 1513012524267, "trialdata": {"rt": -1000, "stimulus": "/static/audio/wordpool/STAMP.wav", "key_press": -1, "type": "PRES_AUD", "word": "stamp", "wordID": 1369, "conditions": [24, 800, "a", 24000], "trial": 5, "serialpos": 17, "trial_type": "single-audio", "trial_index": 214, "time_elapsed": 1213940, "internal_node_id": "0.0-160.0"}}, {"uniqueid": "MTK1022:3MX2NQ3YCA1B81DO9GUNM437T8F5X8", "current_trial": 215, "dateTime": 1513012525904, "trialdata": {"rt": -1000, "stimulus": "/static/audio/wordpool/TRACTOR.wav", "key_press": -1, "type": "PRES_AUD", "word": "tractor", "wordID": 1492, "conditions": [24, 800, "a", 24000], "trial": 5, "serialpos": 18, "trial_type": "single-audio", "trial_index": 215, "time_elapsed": 1215577, "internal_node_id": "0.0-161.0"}}, {"uniqueid": "MTK1022:3MX2NQ3YCA1B81DO9GUNM437T8F5X8", "current_trial": 216, "dateTime": 1513012527612, "trialdata": {"rt": -1000, "stimulus": "/static/audio/wordpool/FINGER.wav", "key_press": -1, "type": "PRES_AUD", "word": "finger", "wordID": 566, "conditions": [24, 800, "a", 24000], "trial": 5, "serialpos": 19, "trial_type": "single-audio", "trial_index": 216, "time_elapsed": 1217282, "internal_node_id": "0.0-162.0"}}, {"uniqueid": "MTK1022:3MX2NQ3YCA1B81DO9GUNM437T8F5X8", "current_trial": 217, "dateTime": 1513012529243, "trialdata": {"rt": -1000, "stimulus": "/static/audio/wordpool/CONTRACT.wav", "key_press": -1, "type": "PRES_AUD", "word": "contract", "wordID": 367, "conditions": [24, 800, "a", 24000], "trial": 5, "serialpos": 20, "trial_type": "single-audio", "trial_index": 217, "time_elapsed": 1218916, "internal_node_id": "0.0-163.0"}}, {"uniqueid": "MTK1022:3MX2NQ3YCA1B81DO9GUNM437T8F5X8", "current_trial": 218, "dateTime": 1513012530847, "trialdata": {"rt": -1000, "stimulus": "/static/audio/wordpool/PACKAGE.wav", "key_press": -1, "type": "PRES_AUD", "word": "package", "wordID": 996, "conditions": [24, 800, "a", 24000], "trial": 5, "serialpos": 21, "trial_type": "single-audio", "trial_index": 218, "time_elapsed": 1220520, "internal_node_id": "0.0-164.0"}}, {"uniqueid": "MTK1022:3MX2NQ3YCA1B81DO9GUNM437T8F5X8", "current_trial": 219, "dateTime": 1513012532673, "trialdata": {"rt": -1000, "stimulus": "/static/audio/wordpool/SKILLET.wav", "key_press": -1, "type": "PRES_AUD", "word": "skillet", "wordID": 1316, "conditions": [24, 800, "a", 24000], "trial": 5, "serialpos": 22, "trial_type": "single-audio", "trial_index": 219, "time_elapsed": 1222346, "internal_node_id": "0.0-165.0"}}, {"uniqueid": "MTK1022:3MX2NQ3YCA1B81DO9GUNM437T8F5X8", "current_trial": 220, "dateTime": 1513012534560, "trialdata": {"rt": -1000, "stimulus": "/static/audio/wordpool/TRUCK.wav", "key_press": -1, "type": "PRES_AUD", "word": "truck", "wordID": 1511, "conditions": [24, 800, "a", 24000], "trial": 5, "serialpos": 23, "trial_type": "single-audio", "trial_index": 220, "time_elapsed": 1224233, "internal_node_id": "0.0-166.0"}}, {"uniqueid": "MTK1022:3MX2NQ3YCA1B81DO9GUNM437T8F5X8", "current_trial": 221, "dateTime": 1513012535806, "trialdata": {"rt": -1, "stimulus": "", "key_press": -1, "type": "PRE_RECALL_DELAY", "trial_type": "single-stim", "trial_index": 221, "time_elapsed": 1225479, "internal_node_id": "0.0-167.0-0.0"}}, {"uniqueid": "MTK1022:3MX2NQ3YCA1B81DO9GUNM437T8F5X8", "current_trial": 222, "dateTime": 1513012536308, "trialdata": {"rt": -1000, "stimulus": "/static/audio/400Hz.wav", "key_press": -1, "type": "PRE_RECALL_ALERT", "trial_type": "single-audio", "trial_index": 222, "time_elapsed": 1225981, "internal_node_id": "0.0-168.0"}}, {"uniqueid": "MTK1022:3MX2NQ3YCA1B81DO9GUNM437T8F5X8", "current_trial": 223, "dateTime": 1513012596311, "trialdata": {"rt": [7208, 10152, 12207, 16119, 18216, 20008, 24616, 26696, 28055, 30280, 31831, 36183, 40392, 41800, 43544, 45719, 46152], "recwords": ["skillet", "mars", "leg", "elbow", "orchid", "bug", "plaster", "army", "virus", "ricket", "mars", "concert", "film", "drug", "virus", "garden", ""], "type": "FREE_RECALL", "conditions": [24, 800, "a", 24000], "trial": 5, "trial_type": "free-recall", "trial_index": 223, "time_elapsed": 1285982, "internal_node_id": "0.0-169.0-0.0"}}, {"uniqueid": "MTK1022:3MX2NQ3YCA1B81DO9GUNM437T8F5X8", "current_trial": 224, "dateTime": 1513012712397, "trialdata": {"rt": 114084, "key_press": 32, "type": "INSTRUCTIONS", "trial_type": "text", "trial_index": 224, "time_elapsed": 1402069, "internal_node_id": "0.0-170.0"}}, {"uniqueid": "MTK1022:3MX2NQ3YCA1B81DO9GUNM437T8F5X8", "current_trial": 225, "dateTime": 1513012726400, "trialdata": {"rt": [2478, 5518, 8030, 10318], "responses": ["8", "14", "16", "21"], "num1": [4, 6, 8, 7, 5], "num2": [2, 6, 2, 8, 7], "num3": [2, 2, 6, 6, 5], "type": "DISTRACTOR", "conditions": [12, 1600, "a", 12000], "trial": 6, "trial_type": "math-distractor", "trial_index": 225, "time_elapsed": 1416073, "internal_node_id": "0.0-171.0"}}, {"uniqueid": "MTK1022:3MX2NQ3YCA1B81DO9GUNM437T8F5X8", "current_trial": 226, "dateTime": 1513012729401, "trialdata": {"rt": -1, "stimulus": "<p id=\"stim\">10</p>", "key_press": -1, "trial_type": "single-stim", "trial_index": 226, "time_elapsed": 1419074, "internal_node_id": "0.0-172.0-0.0"}}, {"uniqueid": "MTK1022:3MX2NQ3YCA1B81DO9GUNM437T8F5X8", "current_trial": 227, "dateTime": 1513012730404, "trialdata": {"rt": -1, "stimulus": "<p id=\"stim\">9</p>", "key_press": -1, "trial_type": "single-stim", "trial_index": 227, "time_elapsed": 1420077, "internal_node_id": "0.0-172.0-1.0"}}, {"uniqueid": "MTK1022:3MX2NQ3YCA1B81DO9GUNM437T8F5X8", "current_trial": 228, "dateTime": 1513012731407, "trialdata": {"rt": -1, "stimulus": "<p id=\"stim\">8</p>", "key_press": -1, "trial_type": "single-stim", "trial_index": 228, "time_elapsed": 1421079, "internal_node_id": "0.0-172.0-2.0"}}, {"uniqueid": "MTK1022:3MX2NQ3YCA1B81DO9GUNM437T8F5X8", "current_trial": 229, "dateTime": 1513012732408, "trialdata": {"rt": -1, "stimulus": "<p id=\"stim\">7</p>", "key_press": -1, "trial_type": "single-stim", "trial_index": 229, "time_elapsed": 1422081, "internal_node_id": "0.0-172.0-3.0"}}, {"uniqueid": "MTK1022:3MX2NQ3YCA1B81DO9GUNM437T8F5X8", "current_trial": 230, "dateTime": 1513012733410, "trialdata": {"rt": -1, "stimulus": "<p id=\"stim\">6</p>", "key_press": -1, "trial_type": "single-stim", "trial_index": 230, "time_elapsed": 1423082, "internal_node_id": "0.0-172.0-4.0"}}, {"uniqueid": "MTK1022:3MX2NQ3YCA1B81DO9GUNM437T8F5X8", "current_trial": 231, "dateTime": 1513012734414, "trialdata": {"rt": -1, "stimulus": "<p id=\"stim\">5</p>", "key_press": -1, "trial_type": "single-stim", "trial_index": 231, "time_elapsed": 1424087, "internal_node_id": "0.0-172.0-5.0"}}, {"uniqueid": "MTK1022:3MX2NQ3YCA1B81DO9GUNM437T8F5X8", "current_trial": 232, "dateTime": 1513012735415, "trialdata": {"rt": -1, "stimulus": "<p id=\"stim\">4</p>", "key_press": -1, "trial_type": "single-stim", "trial_index": 232, "time_elapsed": 1425088, "internal_node_id": "0.0-172.0-6.0"}}, {"uniqueid": "MTK1022:3MX2NQ3YCA1B81DO9GUNM437T8F5X8", "current_trial": 233, "dateTime": 1513012736416, "trialdata": {"rt": -1, "stimulus": "<p id=\"stim\">3</p>", "key_press": -1, "trial_type": "single-stim", "trial_index": 233, "time_elapsed": 1426089, "internal_node_id": "0.0-172.0-7.0"}}, {"uniqueid": "MTK1022:3MX2NQ3YCA1B81DO9GUNM437T8F5X8", "current_trial": 234, "dateTime": 1513012737417, "trialdata": {"rt": -1, "stimulus": "<p id=\"stim\">2</p>", "key_press": -1, "trial_type": "single-stim", "trial_index": 234, "time_elapsed": 1427090, "internal_node_id": "0.0-172.0-8.0"}}, {"uniqueid": "MTK1022:3MX2NQ3YCA1B81DO9GUNM437T8F5X8", "current_trial": 235, "dateTime": 1513012738418, "trialdata": {"rt": -1, "stimulus": "<p id=\"stim\">1</p>", "key_press": -1, "trial_type": "single-stim", "trial_index": 235, "time_elapsed": 1428091, "internal_node_id": "0.0-172.0-9.0"}}, {"uniqueid": "MTK1022:3MX2NQ3YCA1B81DO9GUNM437T8F5X8", "current_trial": 236, "dateTime": 1513012739919, "trialdata": {"rt": -1, "stimulus": "<p id=\"stim\">+</p>", "key_press": -1, "type": "FIXATION", "trial_type": "single-stim", "trial_index": 236, "time_elapsed": 1429591, "internal_node_id": "0.0-173.0-0.0"}}, {"uniqueid": "MTK1022:3MX2NQ3YCA1B81DO9GUNM437T8F5X8", "current_trial": 237, "dateTime": 1513012742524, "trialdata": {"rt": -1000, "stimulus": "/static/audio/wordpool/FREEZER.wav", "key_press": -1, "type": "PRES_AUD", "word": "freezer", "wordID": 603, "conditions": [12, 1600, "a", 12000], "trial": 6, "serialpos": 0, "trial_type": "single-audio", "trial_index": 237, "time_elapsed": 1432197, "internal_node_id": "0.0-174.0"}}, {"uniqueid": "MTK1022:3MX2NQ3YCA1B81DO9GUNM437T8F5X8", "current_trial": 238, "dateTime": 1513012745094, "trialdata": {"rt": -1000, "stimulus": "/static/audio/wordpool/PLUTO.wav", "key_press": -1, "type": "PRES_AUD", "word": "pluto", "wordID": 1091, "conditions": [12, 1600, "a", 12000], "trial": 6, "serialpos": 1, "trial_type": "single-audio", "trial_index": 238, "time_elapsed": 1434766, "internal_node_id": "0.0-175.0"}}, {"uniqueid": "MTK1022:3MX2NQ3YCA1B81DO9GUNM437T8F5X8", "current_trial": 239, "dateTime": 1513012747871, "trialdata": {"rt": -1000, "stimulus": "/static/audio/wordpool/WORKER.wav", "key_press": -1, "type": "PRES_AUD", "word": "worker", "wordID": 1620, "conditions": [12, 1600, "a", 12000], "trial": 6, "serialpos": 2, "trial_type": "single-audio", "trial_index": 239, "time_elapsed": 1437544, "internal_node_id": "0.0-176.0"}}, {"uniqueid": "MTK1022:3MX2NQ3YCA1B81DO9GUNM437T8F5X8", "current_trial": 240, "dateTime": 1513012750517, "trialdata": {"rt": -1000, "stimulus": "/static/audio/wordpool/RELISH.wav", "key_press": -1, "type": "PRES_AUD", "word": "relish", "wordID": 1182, "conditions": [12, 1600, "a", 12000], "trial": 6, "serialpos": 3, "trial_type": "single-audio", "trial_index": 240, "time_elapsed": 1440190, "internal_node_id": "0.0-177.0"}}, {"uniqueid": "MTK1022:3MX2NQ3YCA1B81DO9GUNM437T8F5X8", "current_trial": 241, "dateTime": 1513012753090, "trialdata": {"rt": -1000, "stimulus": "/static/audio/wordpool/SUITCASE.wav", "key_press": -1, "type": "PRES_AUD", "word": "suitcase", "wordID": 1402, "conditions": [12, 1600, "a", 12000], "trial": 6, "serialpos": 4, "trial_type": "single-audio", "trial_index": 241, "time_elapsed": 1442763, "internal_node_id": "0.0-178.0"}}, {"uniqueid": "MTK1022:3MX2NQ3YCA1B81DO9GUNM437T8F5X8", "current_trial": 242, "dateTime": 1513012755883, "trialdata": {"rt": -1000, "stimulus": "/static/audio/wordpool/TUBA.wav", "key_press": -1, "type": "PRES_AUD", "word": "tuba", "wordID": 1514, "conditions": [12, 1600, "a", 12000], "trial": 6, "serialpos": 5, "trial_type": "single-audio", "trial_index": 242, "time_elapsed": 1445555, "internal_node_id": "0.0-179.0"}}, {"uniqueid": "MTK1022:3MX2NQ3YCA1B81DO9GUNM437T8F5X8", "current_trial": 243, "dateTime": 1513012758650, "trialdata": {"rt": -1000, "stimulus": "/static/audio/wordpool/TWEEZERS.wav", "key_press": -1, "type": "PRES_AUD", "word": "tweezers", "wordID": 1525, "conditions": [12, 1600, "a", 12000], "trial": 6, "serialpos": 6, "trial_type": "single-audio", "trial_index": 243, "time_elapsed": 1448323, "internal_node_id": "0.0-180.0"}}, {"uniqueid": "MTK1022:3MX2NQ3YCA1B81DO9GUNM437T8F5X8", "current_trial": 244, "dateTime": 1513012761284, "trialdata": {"rt": -1000, "stimulus": "/static/audio/wordpool/THREAD.wav", "key_press": -1, "type": "PRES_AUD", "word": "thread", "wordID": 1459, "conditions": [12, 1600, "a", 12000], "trial": 6, "serialpos": 7, "trial_type": "single-audio", "trial_index": 244, "time_elapsed": 1450957, "internal_node_id": "0.0-181.0"}}, {"uniqueid": "MTK1022:3MX2NQ3YCA1B81DO9GUNM437T8F5X8", "current_trial": 245, "dateTime": 1513012763993, "trialdata": {"rt": -1000, "stimulus": "/static/audio/wordpool/PIANO.wav", "key_press": -1, "type": "PRES_AUD", "word": "piano", "wordID": 1056, "conditions": [12, 1600, "a", 12000], "trial": 6, "serialpos": 8, "trial_type": "single-audio", "trial_index": 245, "time_elapsed": 1453666, "internal_node_id": "0.0-182.0"}}, {"uniqueid": "MTK1022:3MX2NQ3YCA1B81DO9GUNM437T8F5X8", "current_trial": 246, "dateTime": 1513012766480, "trialdata": {"rt": -1000, "stimulus": "/static/audio/wordpool/PILOT.wav", "key_press": -1, "type": "PRES_AUD", "word": "pilot", "wordID": 1069, "conditions": [12, 1600, "a", 12000], "trial": 6, "serialpos": 9, "trial_type": "single-audio", "trial_index": 246, "time_elapsed": 1456153, "internal_node_id": "0.0-183.0"}}, {"uniqueid": "MTK1022:3MX2NQ3YCA1B81DO9GUNM437T8F5X8", "current_trial": 247, "dateTime": 1513012769061, "trialdata": {"rt": -1000, "stimulus": "/static/audio/wordpool/LAGOON.wav", "key_press": -1, "type": "PRES_AUD", "word": "lagoon", "wordID": 794, "conditions": [12, 1600, "a", 12000], "trial": 6, "serialpos": 10, "trial_type": "single-audio", "trial_index": 247, "time_elapsed": 1458734, "internal_node_id": "0.0-184.0"}}, {"uniqueid": "MTK1022:3MX2NQ3YCA1B81DO9GUNM437T8F5X8", "current_trial": 248, "dateTime": 1513012771634, "trialdata": {"rt": -1000, "stimulus": "/static/audio/wordpool/CANAL.wav", "key_press": -1, "type": "PRES_AUD", "word": "canal", "wordID": 225, "conditions": [12, 1600, "a", 12000], "trial": 6, "serialpos": 11, "trial_type": "single-audio", "trial_index": 248, "time_elapsed": 1461306, "internal_node_id": "0.0-185.0"}}, {"uniqueid": "MTK1022:3MX2NQ3YCA1B81DO9GUNM437T8F5X8", "current_trial": 249, "dateTime": 1513012773019, "trialdata": {"rt": -1, "stimulus": "", "key_press": -1, "type": "PRE_RECALL_DELAY", "trial_type": "single-stim", "trial_index": 249, "time_elapsed": 1462692, "internal_node_id": "0.0-186.0-0.0"}}, {"uniqueid": "MTK1022:3MX2NQ3YCA1B81DO9GUNM437T8F5X8", "current_trial": 250, "dateTime": 1513012773520, "trialdata": {"rt": -1000, "stimulus": "/static/audio/400Hz.wav", "key_press": -1, "type": "PRE_RECALL_ALERT", "trial_type": "single-audio", "trial_index": 250, "time_elapsed": 1463193, "internal_node_id": "0.0-187.0"}}, {"uniqueid": "MTK1022:3MX2NQ3YCA1B81DO9GUNM437T8F5X8", "current_trial": 251, "dateTime": 1513012833524, "trialdata": {"rt": [5643, 7259, 8987, 10971], "recwords": ["canal", "piano", "pluto", "suitcase"], "type": "FREE_RECALL", "conditions": [12, 1600, "a", 12000], "trial": 6, "trial_type": "free-recall", "trial_index": 251, "time_elapsed": 1523195, "internal_node_id": "0.0-188.0-0.0"}}, {"uniqueid": "MTK1022:3MX2NQ3YCA1B81DO9GUNM437T8F5X8", "current_trial": 252, "dateTime": 1513013017036, "trialdata": {"rt": 181511, "key_press": 32, "type": "INSTRUCTIONS", "trial_type": "text", "trial_index": 252, "time_elapsed": 1706709, "internal_node_id": "0.0-189.0"}}, {"uniqueid": "MTK1022:3MX2NQ3YCA1B81DO9GUNM437T8F5X8", "current_trial": 253, "dateTime": 1513013043039, "trialdata": {"rt": [3262, 5712, 7630, 10446, 12686, 15278, 17374, 19806, 22670], "responses": ["15", "18", "13", "12", "14", "10", "17", "14", "13"], "num1": [3, 6, 8, 1, 9, 7, 8, 1, 1, 5], "num2": [9, 4, 2, 6, 1, 1, 1, 4, 6, 2], "num3": [3, 8, 3, 5, 4, 2, 8, 9, 6, 5], "type": "DISTRACTOR", "conditions": [12, 800, "v", 24000], "trial": 7, "trial_type": "math-distractor", "trial_index": 253, "time_elapsed": 1732712, "internal_node_id": "0.0-190.0"}}, {"uniqueid": "MTK1022:3MX2NQ3YCA1B81DO9GUNM437T8F5X8", "current_trial": 254, "dateTime": 1513013046041, "trialdata": {"rt": -1, "stimulus": "<p id=\"stim\">10</p>", "key_press": -1, "trial_type": "single-stim", "trial_index": 254, "time_elapsed": 1735714, "internal_node_id": "0.0-191.0-0.0"}}, {"uniqueid": "MTK1022:3MX2NQ3YCA1B81DO9GUNM437T8F5X8", "current_trial": 255, "dateTime": 1513013047042, "trialdata": {"rt": -1, "stimulus": "<p id=\"stim\">9</p>", "key_press": -1, "trial_type": "single-stim", "trial_index": 255, "time_elapsed": 1736715, "internal_node_id": "0.0-191.0-1.0"}}, {"uniqueid": "MTK1022:3MX2NQ3YCA1B81DO9GUNM437T8F5X8", "current_trial": 256, "dateTime": 1513013048043, "trialdata": {"rt": -1, "stimulus": "<p id=\"stim\">8</p>", "key_press": -1, "trial_type": "single-stim", "trial_index": 256, "time_elapsed": 1737716, "internal_node_id": "0.0-191.0-2.0"}}, {"uniqueid": "MTK1022:3MX2NQ3YCA1B81DO9GUNM437T8F5X8", "current_trial": 257, "dateTime": 1513013049044, "trialdata": {"rt": -1, "stimulus": "<p id=\"stim\">7</p>", "key_press": -1, "trial_type": "single-stim", "trial_index": 257, "time_elapsed": 1738717, "internal_node_id": "0.0-191.0-3.0"}}, {"uniqueid": "MTK1022:3MX2NQ3YCA1B81DO9GUNM437T8F5X8", "current_trial": 258, "dateTime": 1513013050046, "trialdata": {"rt": -1, "stimulus": "<p id=\"stim\">6</p>", "key_press": -1, "trial_type": "single-stim", "trial_index": 258, "time_elapsed": 1739719, "internal_node_id": "0.0-191.0-4.0"}}, {"uniqueid": "MTK1022:3MX2NQ3YCA1B81DO9GUNM437T8F5X8", "current_trial": 259, "dateTime": 1513013051048, "trialdata": {"rt": -1, "stimulus": "<p id=\"stim\">5</p>", "key_press": -1, "trial_type": "single-stim", "trial_index": 259, "time_elapsed": 1740720, "internal_node_id": "0.0-191.0-5.0"}}, {"uniqueid": "MTK1022:3MX2NQ3YCA1B81DO9GUNM437T8F5X8", "current_trial": 260, "dateTime": 1513013052049, "trialdata": {"rt": -1, "stimulus": "<p id=\"stim\">4</p>", "key_press": -1, "trial_type": "single-stim", "trial_index": 260, "time_elapsed": 1741722, "internal_node_id": "0.0-191.0-6.0"}}, {"uniqueid": "MTK1022:3MX2NQ3YCA1B81DO9GUNM437T8F5X8", "current_trial": 261, "dateTime": 1513013053050, "trialdata": {"rt": -1, "stimulus": "<p id=\"stim\">3</p>", "key_press": -1, "trial_type": "single-stim", "trial_index": 261, "time_elapsed": 1742723, "internal_node_id": "0.0-191.0-7.0"}}, {"uniqueid": "MTK1022:3MX2NQ3YCA1B81DO9GUNM437T8F5X8", "current_trial": 262, "dateTime": 1513013054051, "trialdata": {"rt": -1, "stimulus": "<p id=\"stim\">2</p>", "key_press": -1, "trial_type": "single-stim", "trial_index": 262, "time_elapsed": 1743724, "internal_node_id": "0.0-191.0-8.0"}}, {"uniqueid": "MTK1022:3MX2NQ3YCA1B81DO9GUNM437T8F5X8", "current_trial": 263, "dateTime": 1513013055058, "trialdata": {"rt": -1, "stimulus": "<p id=\"stim\">1</p>", "key_press": -1, "trial_type": "single-stim", "trial_index": 263, "time_elapsed": 1744730, "internal_node_id": "0.0-191.0-9.0"}}, {"uniqueid": "MTK1022:3MX2NQ3YCA1B81DO9GUNM437T8F5X8", "current_trial": 264, "dateTime": 1513013056558, "trialdata": {"rt": -1, "stimulus": "<p id=\"stim\">+</p>", "key_press": -1, "type": "FIXATION", "trial_type": "single-stim", "trial_index": 264, "time_elapsed": 1746231, "internal_node_id": "0.0-192.0-0.0"}}, {"uniqueid": "MTK1022:3MX2NQ3YCA1B81DO9GUNM437T8F5X8", "current_trial": 265, "dateTime": 1513013057360, "trialdata": {"rt": -1, "stimulus": "<p id=\"stim\">OZONE</p>", "key_press": -1, "type": "PRES_VIS", "word": "ozone", "wordID": 995, "conditions": [12, 800, "v", 24000], "trial": 7, "serialpos": 0, "trial_type": "single-stim", "trial_index": 265, "time_elapsed": 1747033, "internal_node_id": "0.0-193.0"}}, {"uniqueid": "MTK1022:3MX2NQ3YCA1B81DO9GUNM437T8F5X8", "current_trial": 266, "dateTime": 1513013059322, "trialdata": {"rt": -1, "stimulus": "<p id=\"stim\">PECAN</p>", "key_press": -1, "type": "PRES_VIS", "word": "pecan", "wordID": 1035, "conditions": [12, 800, "v", 24000], "trial": 7, "serialpos": 1, "trial_type": "single-stim", "trial_index": 266, "time_elapsed": 1748995, "internal_node_id": "0.0-194.0"}}, {"uniqueid": "MTK1022:3MX2NQ3YCA1B81DO9GUNM437T8F5X8", "current_trial": 267, "dateTime": 1513013061050, "trialdata": {"rt": -1, "stimulus": "<p id=\"stim\">CHEMIST</p>", "key_press": -1, "type": "PRES_VIS", "word": "chemist", "wordID": 291, "conditions": [12, 800, "v", 24000], "trial": 7, "serialpos": 2, "trial_type": "single-stim", "trial_index": 267, "time_elapsed": 1750723, "internal_node_id": "0.0-195.0"}}, {"uniqueid": "MTK1022:3MX2NQ3YCA1B81DO9GUNM437T8F5X8", "current_trial": 268, "dateTime": 1513013062697, "trialdata": {"rt": -1, "stimulus": "<p id=\"stim\">ATOM</p>", "key_press": -1, "type": "PRES_VIS", "word": "atom", "wordID": 54, "conditions": [12, 800, "v", 24000], "trial": 7, "serialpos": 3, "trial_type": "single-stim", "trial_index": 268, "time_elapsed": 1752370, "internal_node_id": "0.0-196.0"}}, {"uniqueid": "MTK1022:3MX2NQ3YCA1B81DO9GUNM437T8F5X8", "current_trial": 269, "dateTime": 1513013064490, "trialdata": {"rt": -1, "stimulus": "<p id=\"stim\">WIDOW</p>", "key_press": -1, "type": "PRES_VIS", "word": "widow", "wordID": 1607, "conditions": [12, 800, "v", 24000], "trial": 7, "serialpos": 4, "trial_type": "single-stim", "trial_index": 269, "time_elapsed": 1754163, "internal_node_id": "0.0-197.0"}}, {"uniqueid": "MTK1022:3MX2NQ3YCA1B81DO9GUNM437T8F5X8", "current_trial": 270, "dateTime": 1513013066393, "trialdata": {"rt": -1, "stimulus": "<p id=\"stim\">PEACH</p>", "key_press": -1, "type": "PRES_VIS", "word": "peach", "wordID": 1030, "conditions": [12, 800, "v", 24000], "trial": 7, "serialpos": 5, "trial_type": "single-stim", "trial_index": 270, "time_elapsed": 1756066, "internal_node_id": "0.0-198.0"}}, {"uniqueid": "MTK1022:3MX2NQ3YCA1B81DO9GUNM437T8F5X8", "current_trial": 271, "dateTime": 1513013068153, "trialdata": {"rt": -1,