{"assignmentId": "30JNVC0ORAR3FXW7O404HTA432FHQE", "workerId": "MTK1502", "questiondata": {"origin": "United States", "strat-rehearsal": "41", "marital": "Single", "education": "Some college", "ethnicity": "Hispanic", "color_depth": 24, "distracted": "No", "wrote-notes": "Yes", "strat-other": "", "screen_width": 1366, "avail_screen_width": 1366, "avail_screen_height": 720, "strat-image": "24", "language": "spanish", "gender": "Female", "age": "25", "gender_other": "", "race": ["White"], "strat-categorize": "100", "pixel_depth": 24, "strat-spatial": "8", "strat-story": "49", "race_other": "", "screen_height": 768}, "bonus": 0, "hitId": "3MXX6RQ9EVCMGP93JIWUYFF6CWE4PT", "counterbalance": 2455, "useragent": "Mozilla/5.0 (X11; CrOS x86_64 10176.41.0) AppleWebKit/537.36 (KHTML, like Gecko) Chrome/64.0.3282.79 Safari/537.36", "eventdata": [{"eventtype": "initialized", "interval": 0, "value": null, "timestamp": 1515952462915}, {"eventtype": "window_resize", "interval": 1, "value": [1366, 656], "timestamp": 1515952462916}, {"eventtype": "focus", "interval": 24229, "value": "off", "timestamp": 1515952487145}, {"eventtype": "focus", "interval": 5671, "value": "on", "timestamp": 1515952492816}, {"eventtype": "focus", "interval": 16027, "value": "off", "timestamp": 1515952508843}, {"eventtype": "focus", "interval": 8644, "value": "on", "timestamp": 1515952517487}, {"eventtype": "focus", "interval": 6786, "value": "off", "timestamp": 1515952524273}, {"eventtype": "focus", "interval": 961, "value": "on", "timestamp": 1515952525234}, {"eventtype": "focus", "interval": 1106465, "value": "off", "timestamp": 1515953631699}, {"eventtype": "focus", "interval": 1421, "value": "on", "timestamp": 1515953633120}, {"eventtype": "focus", "interval": 380307, "value": "off", "timestamp": 1515954013427}, {"eventtype": "focus", "interval": 6066, "value": "on", "timestamp": 1515954019493}, {"eventtype": "window_resize", "interval": 18085, "value": [1366, 589], "timestamp": 1515954037578}, {"eventtype": "window_resize", "interval": 733, "value": [1366, 577], "timestamp": 1515954038311}, {"eventtype": "window_resize", "interval": 2063, "value": [1366, 625], "timestamp": 1515954040374}, {"eventtype": "window_resize", "interval": 828, "value": [1366, 656], "timestamp": 1515954041202}, {"eventtype": "focus", "interval": 522283, "value": "off", "timestamp": 1515954563485}, {"eventtype": "focus", "interval": 5402, "value": "on", "timestamp": 1515954568887}, {"eventtype": "focus", "interval": 307892, "value": "off", "timestamp": 1515954876779}, {"eventtype": "focus", "interval": 8418, "value": "on", "timestamp": 1515954885197}, {"eventtype": "focus", "interval": 701690, "value": "off", "timestamp": 1515955586887}, {"eventtype": "focus", "interval": 218, "value": "on", "timestamp": 1515955587105}], "data": [{"current_trial": 0, "trialdata": {"rt": 4260, "trial_type": "text", "internal_node_id": "0.0-0.0", "time_elapsed": 4267, "key_press": 32, "type": "INSTRUCTIONS", "trial_index": 0}, "uniqueid": "MTK1502:30JNVC0ORAR3FXW7O404HTA432FHQE", "dateTime": 1515952467816}, {"current_trial": 1, "trialdata": {"rt": 14679, "trial_type": "text", "internal_node_id": "0.0-1.0", "time_elapsed": 18951, "key_press": 32, "type": "INSTRUCTIONS", "trial_index": 1}, "uniqueid": "MTK1502:30JNVC0ORAR3FXW7O404HTA432FHQE", "dateTime": 1515952482499}, {"current_trial": 2, "trialdata": {"rt": [47355], "trial_type": "audio-test", "responses": ["ocean"], "internal_node_id": "0.0-2.0", "time_elapsed": 66362, "type": "AUDIO_TEST", "trial_index": 2}, "uniqueid": "MTK1502:30JNVC0ORAR3FXW7O404HTA432FHQE", "dateTime": 1515952529909}, {"current_trial": 3, "trialdata": {"rt": [9483], "trial_type": "audio-test", "responses": ["crystal"], "internal_node_id": "0.0-3.0", "time_elapsed": 75855, "type": "AUDIO_TEST", "trial_index": 3}, "uniqueid": "MTK1502:30JNVC0ORAR3FXW7O404HTA432FHQE", "dateTime": 1515952539402}, {"current_trial": 4, "trialdata": {"rt": [9971], "trial_type": "audio-test", "responses": ["spice"], "internal_node_id": "0.0-4.0", "time_elapsed": 85839, "type": "AUDIO_TEST", "trial_index": 4}, "uniqueid": "MTK1502:30JNVC0ORAR3FXW7O404HTA432FHQE", "dateTime": 1515952549386}, {"current_trial": 5, "trialdata": {"rt": 35104, "trial_type": "survey-text", "responses": "{\"Q0\":\"10\",\"Q1\":\"8\",\"Q2\":\"5\"}", "internal_node_id": "0.0-5.0", "time_elapsed": 121701, "type": "SLEEP_SURVEY", "trial_index": 5}, "uniqueid": "MTK1502:30JNVC0ORAR3FXW7O404HTA432FHQE", "dateTime": 1515952585248}, {"current_trial": 6, "trialdata": {"rt": 31088, "trial_type": "text", "internal_node_id": "0.0-6.0", "time_elapsed": 153793, "key_press": 32, "type": "INSTRUCTIONS", "trial_index": 6}, "uniqueid": "MTK1502:30JNVC0ORAR3FXW7O404HTA432FHQE", "dateTime": 1515952617340}, {"current_trial": 7, "trialdata": {"rt": 14643, "trial_type": "text", "internal_node_id": "0.0-7.0", "time_elapsed": 168938, "key_press": 71, "type": "INSTRUCTIONS", "trial_index": 7}, "uniqueid": "MTK1502:30JNVC0ORAR3FXW7O404HTA432FHQE", "dateTime": 1515952632485}, {"current_trial": 8, "trialdata": {"rt": 18596, "trial_type": "text", "internal_node_id": "0.0-8.0", "time_elapsed": 188037, "key_press": 71, "type": "INSTRUCTIONS", "trial_index": 8}, "uniqueid": "MTK1502:30JNVC0ORAR3FXW7O404HTA432FHQE", "dateTime": 1515952651584}, {"current_trial": 9, "trialdata": {"rt": [6899, 11032, 15987], "trial_type": "math-distractor", "key_times": [5807, 6168, 6899, 9492, 10407, 11032, 14280, 14675, 15337, 15547, 15987], "responses": ["11", "19", "18"], "num2": [3, 6, 7, 7], "num3": [4, 7, 9, 7], "conditions": [18, 1200, "v", 18000], "internal_node_id": "0.0-9.0", "key_presses": [49, 49, 13, 49, 57, 13, 49, 55, 8, 56, 13], "trial": 0, "time_elapsed": 207069, "type": "DISTRACTOR", "trial_index": 9, "num1": [4, 6, 2, 1]}, "uniqueid": "MTK1502:30JNVC0ORAR3FXW7O404HTA432FHQE", "dateTime": 1515952670617}, {"current_trial": 10, "trialdata": {"rt": -1, "trial_type": "single-stim", "stimulus": "<p id=\"stim\">10</p>", "internal_node_id": "0.0-10.0-0.0", "time_elapsed": 210075, "key_press": -1, "trial_index": 10}, "uniqueid": "MTK1502:30JNVC0ORAR3FXW7O404HTA432FHQE", "dateTime": 1515952673622}, {"current_trial": 11, "trialdata": {"rt": -1, "trial_type": "single-stim", "stimulus": "<p id=\"stim\">9</p>", "internal_node_id": "0.0-10.0-1.0", "time_elapsed": 211079, "key_press": -1, "trial_index": 11}, "uniqueid": "MTK1502:30JNVC0ORAR3FXW7O404HTA432FHQE", "dateTime": 1515952674626}, {"current_trial": 12, "trialdata": {"rt": -1, "trial_type": "single-stim", "stimulus": "<p id=\"stim\">8</p>", "internal_node_id": "0.0-10.0-2.0", "time_elapsed": 212082, "key_press": -1, "trial_index": 12}, "uniqueid": "MTK1502:30JNVC0ORAR3FXW7O404HTA432FHQE", "dateTime": 1515952675629}, {"current_trial": 13, "trialdata": {"rt": -1, "trial_type": "single-stim", "stimulus": "<p id=\"stim\">7</p>", "internal_node_id": "0.0-10.0-3.0", "time_elapsed": 213084, "key_press": -1, "trial_index": 13}, "uniqueid": "MTK1502:30JNVC0ORAR3FXW7O404HTA432FHQE", "dateTime": 1515952676631}, {"current_trial": 14, "trialdata": {"rt": -1, "trial_type": "single-stim", "stimulus": "<p id=\"stim\">6</p>", "internal_node_id": "0.0-10.0-4.0", "time_elapsed": 214088, "key_press": -1, "trial_index": 14}, "uniqueid": "MTK1502:30JNVC0ORAR3FXW7O404HTA432FHQE", "dateTime": 1515952677635}, {"current_trial": 15, "trialdata": {"rt": -1, "trial_type": "single-stim", "stimulus": "<p id=\"stim\">5</p>", "internal_node_id": "0.0-10.0-5.0", "time_elapsed": 215092, "key_press": -1, "trial_index": 15}, "uniqueid": "MTK1502:30JNVC0ORAR3FXW7O404HTA432FHQE", "dateTime": 1515952678639}, {"current_trial": 16, "trialdata": {"rt": -1, "trial_type": "single-stim", "stimulus": "<p id=\"stim\">4</p>", "internal_node_id": "0.0-10.0-6.0", "time_elapsed": 216095, "key_press": -1, "trial_index": 16}, "uniqueid": "MTK1502:30JNVC0ORAR3FXW7O404HTA432FHQE", "dateTime": 1515952679643}, {"current_trial": 17, "trialdata": {"rt": -1, "trial_type": "single-stim", "stimulus": "<p id=\"stim\">3</p>", "internal_node_id": "0.0-10.0-7.0", "time_elapsed": 217099, "key_press": -1, "trial_index": 17}, "uniqueid": "MTK1502:30JNVC0ORAR3FXW7O404HTA432FHQE", "dateTime": 1515952680647}, {"current_trial": 18, "trialdata": {"rt": -1, "trial_type": "single-stim", "stimulus": "<p id=\"stim\">2</p>", "internal_node_id": "0.0-10.0-8.0", "time_elapsed": 218103, "key_press": -1, "trial_index": 18}, "uniqueid": "MTK1502:30JNVC0ORAR3FXW7O404HTA432FHQE", "dateTime": 1515952681650}, {"current_trial": 19, "trialdata": {"rt": -1, "trial_type": "single-stim", "stimulus": "<p id=\"stim\">1</p>", "internal_node_id": "0.0-10.0-9.0", "time_elapsed": 219105, "key_press": -1, "trial_index": 19}, "uniqueid": "MTK1502:30JNVC0ORAR3FXW7O404HTA432FHQE", "dateTime": 1515952682652}, {"current_trial": 20, "trialdata": {"rt": -1, "trial_type": "single-stim", "stimulus": "<p id=\"stim\">+</p>", "internal_node_id": "0.0-11.0-0.0", "time_elapsed": 220607, "key_press": -1, "type": "FIXATION", "trial_index": 20}, "uniqueid": "MTK1502:30JNVC0ORAR3FXW7O404HTA432FHQE", "dateTime": 1515952684154}, {"current_trial": 21, "trialdata": {"rt": -1, "trial_type": "single-stim", "word": "omelet", "stimulus": "<p id=\"stim\">OMELET</p>", "conditions": [18, 1200, "v", 18000], "internal_node_id": "0.0-12.0", "trial": 0, "time_elapsed": 221810, "serialpos": 0, "key_press": -1, "wordID": 975, "type": "PRES_VIS", "trial_index": 21}, "uniqueid": "MTK1502:30JNVC0ORAR3FXW7O404HTA432FHQE", "dateTime": 1515952685357}, {"current_trial": 22, "trialdata": {"rt": -1, "trial_type": "single-stim", "word": "wardrobe", "stimulus": "<p id=\"stim\">WARDROBE</p>", "conditions": [18, 1200, "v", 18000], "internal_node_id": "0.0-13.0", "trial": 0, "time_elapsed": 223834, "serialpos": 1, "key_press": -1, "wordID": 1586, "type": "PRES_VIS", "trial_index": 22}, "uniqueid": "MTK1502:30JNVC0ORAR3FXW7O404HTA432FHQE", "dateTime": 1515952687381}, {"current_trial": 23, "trialdata": {"rt": -1, "trial_type": "single-stim", "word": "badge", "stimulus": "<p id=\"stim\">BADGE</p>", "conditions": [18, 1200, "v", 18000], "internal_node_id": "0.0-14.0", "trial": 0, "time_elapsed": 225857, "serialpos": 2, "key_press": -1, "wordID": 67, "type": "PRES_VIS", "trial_index": 23}, "uniqueid": "MTK1502:30JNVC0ORAR3FXW7O404HTA432FHQE", "dateTime": 1515952689404}, {"current_trial": 24, "trialdata": {"rt": -1, "trial_type": "single-stim", "word": "pluto", "stimulus": "<p id=\"stim\">PLUTO</p>", "conditions": [18, 1200, "v", 18000], "internal_node_id": "0.0-15.0", "trial": 0, "time_elapsed": 228237, "serialpos": 3, "key_press": -1, "wordID": 1091, "type": "PRES_VIS", "trial_index": 24}, "uniqueid": "MTK1502:30JNVC0ORAR3FXW7O404HTA432FHQE", "dateTime": 1515952691784}, {"current_trial": 25, "trialdata": {"rt": -1, "trial_type": "single-stim", "word": "breast", "stimulus": "<p id=\"stim\">BREAST</p>", "conditions": [18, 1200, "v", 18000], "internal_node_id": "0.0-16.0", "trial": 0, "time_elapsed": 230575, "serialpos": 4, "key_press": -1, "wordID": 170, "type": "PRES_VIS", "trial_index": 25}, "uniqueid": "MTK1502:30JNVC0ORAR3FXW7O404HTA432FHQE", "dateTime": 1515952694122}, {"current_trial": 26, "trialdata": {"rt": -1, "trial_type": "single-stim", "word": "missile", "stimulus": "<p id=\"stim\">MISSILE</p>", "conditions": [18, 1200, "v", 18000], "internal_node_id": "0.0-17.0", "trial": 0, "time_elapsed": 232605, "serialpos": 5, "key_press": -1, "wordID": 899, "type": "PRES_VIS", "trial_index": 26}, "uniqueid": "MTK1502:30JNVC0ORAR3FXW7O404HTA432FHQE", "dateTime": 1515952696152}, {"current_trial": 27, "trialdata": {"rt": -1, "trial_type": "single-stim", "word": "blueprint", "stimulus": "<p id=\"stim\">BLUEPRINT</p>", "conditions": [18, 1200, "v", 18000], "internal_node_id": "0.0-18.0", "trial": 0, "time_elapsed": 234682, "serialpos": 6, "key_press": -1, "wordID": 141, "type": "PRES_VIS", "trial_index": 27}, "uniqueid": "MTK1502:30JNVC0ORAR3FXW7O404HTA432FHQE", "dateTime": 1515952698229}, {"current_trial": 28, "trialdata": {"rt": -1, "trial_type": "single-stim", "word": "subway", "stimulus": "<p id=\"stim\">SUBWAY</p>", "conditions": [18, 1200, "v", 18000], "internal_node_id": "0.0-19.0", "trial": 0, "time_elapsed": 236806, "serialpos": 7, "key_press": -1, "wordID": 1399, "type": "PRES_VIS", "trial_index": 28}, "uniqueid": "MTK1502:30JNVC0ORAR3FXW7O404HTA432FHQE", "dateTime": 1515952700354}, {"current_trial": 29, "trialdata": {"rt": -1, "trial_type": "single-stim", "word": "lady", "stimulus": "<p id=\"stim\">LADY</p>", "conditions": [18, 1200, "v", 18000], "internal_node_id": "0.0-20.0", "trial": 0, "time_elapsed": 238953, "serialpos": 8, "key_press": -1, "wordID": 793, "type": "PRES_VIS", "trial_index": 29}, "uniqueid": "MTK1502:30JNVC0ORAR3FXW7O404HTA432FHQE", "dateTime": 1515952702501}, {"current_trial": 30, "trialdata": {"rt": -1, "trial_type": "single-stim", "word": "patrol", "stimulus": "<p id=\"stim\">PATROL</p>", "conditions": [18, 1200, "v", 18000], "internal_node_id": "0.0-21.0", "trial": 0, "time_elapsed": 241289, "serialpos": 9, "key_press": -1, "wordID": 1026, "type": "PRES_VIS", "trial_index": 30}, "uniqueid": "MTK1502:30JNVC0ORAR3FXW7O404HTA432FHQE", "dateTime": 1515952704836}, {"current_trial": 31, "trialdata": {"rt": -1, "trial_type": "single-stim", "word": "catcher", "stimulus": "<p id=\"stim\">CATCHER</p>", "conditions": [18, 1200, "v", 18000], "internal_node_id": "0.0-22.0", "trial": 0, "time_elapsed": 243348, "serialpos": 10, "key_press": -1, "wordID": 257, "type": "PRES_VIS", "trial_index": 31}, "uniqueid": "MTK1502:30JNVC0ORAR3FXW7O404HTA432FHQE", "dateTime": 1515952706895}, {"current_trial": 32, "trialdata": {"rt": -1, "trial_type": "single-stim", "word": "denim", "stimulus": "<p id=\"stim\">DENIM</p>", "conditions": [18, 1200, "v", 18000], "internal_node_id": "0.0-23.0", "trial": 0, "time_elapsed": 245684, "serialpos": 11, "key_press": -1, "wordID": 445, "type": "PRES_VIS", "trial_index": 32}, "uniqueid": "MTK1502:30JNVC0ORAR3FXW7O404HTA432FHQE", "dateTime": 1515952709231}, {"current_trial": 33, "trialdata": {"rt": -1, "trial_type": "single-stim", "word": "leopard", "stimulus": "<p id=\"stim\">LEOPARD</p>", "conditions": [18, 1200, "v", 18000], "internal_node_id": "0.0-24.0", "trial": 0, "time_elapsed": 247921, "serialpos": 12, "key_press": -1, "wordID": 811, "type": "PRES_VIS", "trial_index": 33}, "uniqueid": "MTK1502:30JNVC0ORAR3FXW7O404HTA432FHQE", "dateTime": 1515952711468}, {"current_trial": 34, "trialdata": {"rt": -1, "trial_type": "single-stim", "word": "canyon", "stimulus": "<p id=\"stim\">CANYON</p>", "conditions": [18, 1200, "v", 18000], "internal_node_id": "0.0-25.0", "trial": 0, "time_elapsed": 250210, "serialpos": 13, "key_press": -1, "wordID": 234, "type": "PRES_VIS", "trial_index": 34}, "uniqueid": "MTK1502:30JNVC0ORAR3FXW7O404HTA432FHQE", "dateTime": 1515952713758}, {"current_trial": 35, "trialdata": {"rt": -1, "trial_type": "single-stim", "word": "fireplace", "stimulus": "<p id=\"stim\">FIREPLACE</p>", "conditions": [18, 1200, "v", 18000], "internal_node_id": "0.0-26.0", "trial": 0, "time_elapsed": 252607, "serialpos": 14, "key_press": -1, "wordID": 569, "type": "PRES_VIS", "trial_index": 35}, "uniqueid": "MTK1502:30JNVC0ORAR3FXW7O404HTA432FHQE", "dateTime": 1515952716154}, {"current_trial": 36, "trialdata": {"rt": -1, "trial_type": "single-stim", "word": "witness", "stimulus": "<p id=\"stim\">WITNESS</p>", "conditions": [18, 1200, "v", 18000], "internal_node_id": "0.0-27.0", "trial": 0, "time_elapsed": 254965, "serialpos": 15, "key_press": -1, "wordID": 1617, "type": "PRES_VIS", "trial_index": 36}, "uniqueid": "MTK1502:30JNVC0ORAR3FXW7O404HTA432FHQE", "dateTime": 1515952718512}, {"current_trial": 37, "trialdata": {"rt": -1, "trial_type": "single-stim", "word": "silk", "stimulus": "<p id=\"stim\">SILK</p>", "conditions": [18, 1200, "v", 18000], "internal_node_id": "0.0-28.0", "trial": 0, "time_elapsed": 257164, "serialpos": 16, "key_press": -1, "wordID": 1306, "type": "PRES_VIS", "trial_index": 37}, "uniqueid": "MTK1502:30JNVC0ORAR3FXW7O404HTA432FHQE", "dateTime": 1515952720712}, {"current_trial": 38, "trialdata": {"rt": -1, "trial_type": "single-stim", "word": "flipper", "stimulus": "<p id=\"stim\">FLIPPER</p>", "conditions": [18, 1200, "v", 18000], "internal_node_id": "0.0-29.0", "trial": 0, "time_elapsed": 259339, "serialpos": 17, "key_press": -1, "wordID": 579, "type": "PRES_VIS", "trial_index": 38}, "uniqueid": "MTK1502:30JNVC0ORAR3FXW7O404HTA432FHQE", "dateTime": 1515952722886}, {"current_trial": 39, "trialdata": {"rt": -1, "trial_type": "single-stim", "stimulus": "", "internal_node_id": "0.0-30.0-0.0", "time_elapsed": 261533, "key_press": -1, "type": "PRE_RECALL_DELAY", "trial_index": 39}, "uniqueid": "MTK1502:30JNVC0ORAR3FXW7O404HTA432FHQE", "dateTime": 1515952725080}, {"current_trial": 40, "trialdata": {"rt": -1000, "trial_type": "single-audio", "stimulus": "/static/audio/400Hz.wav", "internal_node_id": "0.0-31.0", "time_elapsed": 262037, "key_press": -1, "type": "PRE_RECALL_ALERT", "trial_index": 40}, "uniqueid": "MTK1502:30JNVC0ORAR3FXW7O404HTA432FHQE", "dateTime": 1515952725585}, {"current_trial": 41, "trialdata": {"rt": [3625, 7611, 11792, 15895, 28710, 37379], "recwords": ["silk", "fireplace", "flipper", "omelet", "badge", "subway"], "key_times": [1160, 1669, 2013, 2382, 3625, 4478, 4799, 5001, 5366, 5744, 6039, 6271, 6577, 6879, 7611, 8303, 8635, 8902, 9200, 9372, 9808, 10879, 11151, 11404, 11792, 12396, 12767, 13301, 13931, 14188, 14508, 14996, 15351, 15895, 18073, 18750, 25171, 25441, 25766, 26217, 26344, 26814, 27128, 27594, 28274, 28710, 35297, 35501, 35969, 36387, 36710, 36866, 37379], "trial_type": "free-recall", "conditions": [18, 1200, "v", 18000], "internal_node_id": "0.0-32.0-0.0", "key_presses": [83, 73, 76, 75, 13, 70, 73, 82, 69, 80, 76, 65, 67, 69, 13, 70, 76, 73, 80, 80, 82, 8, 69, 82, 13, 79, 77, 82, 8, 69, 76, 69, 84, 13, 83, 8, 66, 65, 71, 8, 70, 8, 68, 71, 69, 13, 83, 85, 66, 87, 65, 89, 13], "trial": 0, "time_elapsed": 322043, "type": "FREE_RECALL", "trial_index": 41}, "uniqueid": "MTK1502:30JNVC0ORAR3FXW7O404HTA432FHQE", "dateTime": 1515952785595}, {"current_trial": 42, "trialdata": {"rt": 2771, "trial_type": "text", "internal_node_id": "0.0-33.0", "time_elapsed": 326822, "key_press": 86, "type": "INSTRUCTIONS", "trial_index": 42}, "uniqueid": "MTK1502:30JNVC0ORAR3FXW7O404HTA432FHQE", "dateTime": 1515952790370}, {"current_trial": 43, "trialdata": {"rt": [7105, 10818, 17618], "trial_type": "math-distractor", "key_times": [5836, 6498, 7105, 10210, 10402, 10818, 15063, 15803, 16072, 17022, 17618], "responses": ["27", "10", "22"], "num2": [8, 2, 9, 9], "num3": [8, 6, 9, 1], "conditions": [18, 1200, "v", 18000], "internal_node_id": "0.0-34.0", "key_presses": [50, 55, 13, 49, 48, 13, 51, 8, 50, 50, 13], "trial": 1, "time_elapsed": 346834, "type": "DISTRACTOR", "trial_index": 43, "num1": [9, 2, 4, 1]}, "uniqueid": "MTK1502:30JNVC0ORAR3FXW7O404HTA432FHQE", "dateTime": 1515952810381}, {"current_trial": 44, "trialdata": {"rt": -1, "trial_type": "single-stim", "stimulus": "<p id=\"stim\">10</p>", "internal_node_id": "0.0-35.0-0.0", "time_elapsed": 349839, "key_press": -1, "trial_index": 44}, "uniqueid": "MTK1502:30JNVC0ORAR3FXW7O404HTA432FHQE", "dateTime": 1515952813386}, {"current_trial": 45, "trialdata": {"rt": -1, "trial_type": "single-stim", "stimulus": "<p id=\"stim\">9</p>", "internal_node_id": "0.0-35.0-1.0", "time_elapsed": 350842, "key_press": -1, "trial_index": 45}, "uniqueid": "MTK1502:30JNVC0ORAR3FXW7O404HTA432FHQE", "dateTime": 1515952814389}, {"current_trial": 46, "trialdata": {"rt": -1, "trial_type": "single-stim", "stimulus": "<p id=\"stim\">8</p>", "internal_node_id": "0.0-35.0-2.0", "time_elapsed": 351845, "key_press": -1, "trial_index": 46}, "uniqueid": "MTK1502:30JNVC0ORAR3FXW7O404HTA432FHQE", "dateTime": 1515952815393}, {"current_trial": 47, "trialdata": {"rt": -1, "trial_type": "single-stim", "stimulus": "<p id=\"stim\">7</p>", "internal_node_id": "0.0-35.0-3.0", "time_elapsed": 352849, "key_press": -1, "trial_index": 47}, "uniqueid": "MTK1502:30JNVC0ORAR3FXW7O404HTA432FHQE", "dateTime": 1515952816396}, {"current_trial": 48, "trialdata": {"rt": -1, "trial_type": "single-stim", "stimulus": "<p id=\"stim\">6</p>", "internal_node_id": "0.0-35.0-4.0", "time_elapsed": 353851, "key_press": -1, "trial_index": 48}, "uniqueid": "MTK1502:30JNVC0ORAR3FXW7O404HTA432FHQE", "dateTime": 1515952817399}, {"current_trial": 49, "trialdata": {"rt": -1, "trial_type": "single-stim", "stimulus": "<p id=\"stim\">5</p>", "internal_node_id": "0.0-35.0-5.0", "time_elapsed": 354854, "key_press": -1, "trial_index": 49}, "uniqueid": "MTK1502:30JNVC0ORAR3FXW7O404HTA432FHQE", "dateTime": 1515952818401}, {"current_trial": 50, "trialdata": {"rt": -1, "trial_type": "single-stim", "stimulus": "<p id=\"stim\">4</p>", "internal_node_id": "0.0-35.0-6.0", "time_elapsed": 355857, "key_press": -1, "trial_index": 50}, "uniqueid": "MTK1502:30JNVC0ORAR3FXW7O404HTA432FHQE", "dateTime": 1515952819404}, {"current_trial": 51, "trialdata": {"rt": -1, "trial_type": "single-stim", "stimulus": "<p id=\"stim\">3</p>", "internal_node_id": "0.0-35.0-7.0", "time_elapsed": 356859, "key_press": -1, "trial_index": 51}, "uniqueid": "MTK1502:30JNVC0ORAR3FXW7O404HTA432FHQE", "dateTime": 1515952820406}, {"current_trial": 52, "trialdata": {"rt": -1, "trial_type": "single-stim", "stimulus": "<p id=\"stim\">2</p>", "internal_node_id": "0.0-35.0-8.0", "time_elapsed": 357861, "key_press": -1, "trial_index": 52}, "uniqueid": "MTK1502:30JNVC0ORAR3FXW7O404HTA432FHQE", "dateTime": 1515952821408}, {"current_trial": 53, "trialdata": {"rt": -1, "trial_type": "single-stim", "stimulus": "<p id=\"stim\">1</p>", "internal_node_id": "0.0-35.0-9.0", "time_elapsed": 358863, "key_press": -1, "trial_index": 53}, "uniqueid": "MTK1502:30JNVC0ORAR3FXW7O404HTA432FHQE", "dateTime": 1515952822411}, {"current_trial": 54, "trialdata": {"rt": -1, "trial_type": "single-stim", "stimulus": "<p id=\"stim\">+</p>", "internal_node_id": "0.0-36.0-0.0", "time_elapsed": 360369, "key_press": -1, "type": "FIXATION", "trial_index": 54}, "uniqueid": "MTK1502:30JNVC0ORAR3FXW7O404HTA432FHQE", "dateTime": 1515952823916}, {"current_trial": 55, "trialdata": {"rt": -1, "trial_type": "single-stim", "word": "garlic", "stimulus": "<p id=\"stim\">GARLIC</p>", "conditions": [18, 1200, "v", 18000], "internal_node_id": "0.0-37.0", "trial": 1, "time_elapsed": 361574, "serialpos": 0, "key_press": -1, "wordID": 623, "type": "PRES_VIS", "trial_index": 55}, "uniqueid": "MTK1502:30JNVC0ORAR3FXW7O404HTA432FHQE", "dateTime": 1515952825122}, {"current_trial": 56, "trialdata": {"rt": -1, "trial_type": "single-stim", "word": "gavel", "stimulus": "<p id=\"stim\">GAVEL</p>", "conditions": [18, 1200, "v", 18000], "internal_node_id": "0.0-38.0", "trial": 1, "time_elapsed": 363829, "serialpos": 1, "key_press": -1, "wordID": 626, "type": "PRES_VIS", "trial_index": 56}, "uniqueid": "MTK1502:30JNVC0ORAR3FXW7O404HTA432FHQE", "dateTime": 1515952827377}, {"current_trial": 57, "trialdata": {"rt": -1, "trial_type": "single-stim", "word": "beef", "stimulus": "<p id=\"stim\">BEEF</p>", "conditions": [18, 1200, "v", 18000], "internal_node_id": "0.0-39.0", "trial": 1, "time_elapsed": 366154, "serialpos": 2, "key_press": -1, "wordID": 112, "type": "PRES_VIS", "trial_index": 57}, "uniqueid": "MTK1502:30JNVC0ORAR3FXW7O404HTA432FHQE", "dateTime": 1515952829701}, {"current_trial": 58, "trialdata": {"rt": -1, "trial_type": "single-stim", "word": "lipstick", "stimulus": "<p id=\"stim\">LIPSTICK</p>", "conditions": [18, 1200, "v", 18000], "internal_node_id": "0.0-40.0", "trial": 1, "time_elapsed": 368557, "serialpos": 3, "key_press": -1, "wordID": 828, "type": "PRES_VIS", "trial_index": 58}, "uniqueid": "MTK1502:30JNVC0ORAR3FXW7O404HTA432FHQE", "dateTime": 1515952832104}, {"current_trial": 59, "trialdata": {"rt": -1, "trial_type": "single-stim", "word": "sibling", "stimulus": "<p id=\"stim\">SIBLING</p>", "conditions": [18, 1200, "v", 18000], "internal_node_id": "0.0-41.0", "trial": 1, "time_elapsed": 370662, "serialpos": 4, "key_press": -1, "wordID": 1300, "type": "PRES_VIS", "trial_index": 59}, "uniqueid": "MTK1502:30JNVC0ORAR3FXW7O404HTA432FHQE", "dateTime": 1515952834209}, {"current_trial": 60, "trialdata": {"rt": -1, "trial_type": "single-stim", "word": "ointment", "stimulus": "<p id=\"stim\">OINTMENT</p>", "conditions": [18, 1200, "v", 18000], "internal_node_id": "0.0-42.0", "trial": 1, "time_elapsed": 372815, "serialpos": 5, "key_press": -1, "wordID": 973, "type": "PRES_VIS", "trial_index": 60}, "uniqueid": "MTK1502:30JNVC0ORAR3FXW7O404HTA432FHQE", "dateTime": 1515952836363}, {"current_trial": 61, "trialdata": {"rt": -1, "trial_type": "single-stim", "word": "umpire", "stimulus": "<p id=\"stim\">UMPIRE</p>", "conditions": [18, 1200, "v", 18000], "internal_node_id": "0.0-43.0", "trial": 1, "time_elapsed": 374980, "serialpos": 6, "key_press": -1, "wordID": 1534, "type": "PRES_VIS", "trial_index": 61}, "uniqueid": "MTK1502:30JNVC0ORAR3FXW7O404HTA432FHQE", "dateTime": 1515952838528}, {"current_trial": 62, "trialdata": {"rt": -1, "trial_type": "single-stim", "word": "elbow", "stimulus": "<p id=\"stim\">ELBOW</p>", "conditions": [18, 1200, "v", 18000], "internal_node_id": "0.0-44.0", "trial": 1, "time_elapsed": 377094, "serialpos": 7, "key_press": -1, "wordID": 519, "type": "PRES_VIS", "trial_index": 62}, "uniqueid": "MTK1502:30JNVC0ORAR3FXW7O404HTA432FHQE", "dateTime": 1515952840641}, {"current_trial": 63, "trialdata": {"rt": -1, "trial_type": "single-stim", "word": "brother", "stimulus": "<p id=\"stim\">BROTHER</p>", "conditions": [18, 1200, "v", 18000], "internal_node_id": "0.0-45.0", "trial": 1, "time_elapsed": 379267, "serialpos": 8, "key_press": -1, "wordID": 178, "type": "PRES_VIS", "trial_index": 63}, "uniqueid": "MTK1502:30JNVC0ORAR3FXW7O404HTA432FHQE", "dateTime": 1515952842814}, {"current_trial": 64, "trialdata": {"rt": -1, "trial_type": "single-stim", "word": "world", "stimulus": "<p id=\"stim\">WORLD</p>", "conditions": [18, 1200, "v", 18000], "internal_node_id": "0.0-46.0", "trial": 1, "time_elapsed": 381540, "serialpos": 9, "key_press": -1, "wordID": 1621, "type": "PRES_VIS", "trial_index": 64}, "uniqueid": "MTK1502:30JNVC0ORAR3FXW7O404HTA432FHQE", "dateTime": 1515952845087}, {"current_trial": 65, "trialdata": {"rt": -1, "trial_type": "single-stim", "word": "clothes", "stimulus": "<p id=\"stim\">CLOTHES</p>", "conditions": [18, 1200, "v", 18000], "internal_node_id": "0.0-47.0", "trial": 1, "time_elapsed": 383632, "serialpos": 10, "key_press": -1, "wordID": 326, "type": "PRES_VIS", "trial_index": 65}, "uniqueid": "MTK1502:30JNVC0ORAR3FXW7O404HTA432FHQE", "dateTime": 1515952847179}, {"current_trial": 66, "trialdata": {"rt": -1, "trial_type": "single-stim", "word": "diner", "stimulus": "<p id=\"stim\">DINER</p>", "conditions": [18, 1200, "v", 18000], "internal_node_id": "0.0-48.0", "trial": 1, "time_elapsed": 385659, "serialpos": 11, "key_press": -1, "wordID": 466, "type": "PRES_VIS", "trial_index": 66}, "uniqueid": "MTK1502:30JNVC0ORAR3FXW7O404HTA432FHQE", "dateTime": 1515952849206}, {"current_trial": 67, "trialdata": {"rt": -1, "trial_type": "single-stim", "word": "cloud", "stimulus": "<p id=\"stim\">CLOUD</p>", "conditions": [18, 1200, "v", 18000], "internal_node_id": "0.0-49.0", "trial": 1, "time_elapsed": 387930, "serialpos": 12, "key_press": -1, "wordID": 327, "type": "PRES_VIS", "trial_index": 67}, "uniqueid": "MTK1502:30JNVC0ORAR3FXW7O404HTA432FHQE", "dateTime": 1515952851477}, {"current_trial": 68, "trialdata": {"rt": -1, "trial_type": "single-stim", "word": "hamper", "stimulus": "<p id=\"stim\">HAMPER</p>", "conditions": [18, 1200, "v", 18000], "internal_node_id": "0.0-50.0", "trial": 1, "time_elapsed": 390219, "serialpos": 13, "key_press": -1, "wordID": 681, "type": "PRES_VIS", "trial_index": 68}, "uniqueid": "MTK1502:30JNVC0ORAR3FXW7O404HTA432FHQE", "dateTime": 1515952853772}, {"current_trial": 69, "trialdata": {"rt": -1, "trial_type": "single-stim", "word": "actor", "stimulus": "<p id=\"stim\">ACTOR</p>", "conditions": [18, 1200, "v", 18000], "internal_node_id": "0.0-51.0", "trial": 1, "time_elapsed": 392305, "serialpos": 14, "key_press": -1, "wordID": 4, "type": "PRES_VIS", "trial_index": 69}, "uniqueid": "MTK1502:30JNVC0ORAR3FXW7O404HTA432FHQE", "dateTime": 1515952855852}, {"current_trial": 70, "trialdata": {"rt": -1, "trial_type": "single-stim", "word": "napkin", "stimulus": "<p id=\"stim\">NAPKIN</p>", "conditions": [18, 1200, "v", 18000], "internal_node_id": "0.0-52.0", "trial": 1, "time_elapsed": 394380, "serialpos": 15, "key_press": -1, "wordID": 936, "type": "PRES_VIS", "trial_index": 70}, "uniqueid": "MTK1502:30JNVC0ORAR3FXW7O404HTA432FHQE", "dateTime": 1515952857927}, {"current_trial": 71, "trialdata": {"rt": -1, "trial_type": "single-stim", "word": "iceberg", "stimulus": "<p id=\"stim\">ICEBERG</p>", "conditions": [18, 1200, "v", 18000], "internal_node_id": "0.0-53.0", "trial": 1, "time_elapsed": 396410, "serialpos": 16, "key_press": -1, "wordID": 730, "type": "PRES_VIS", "trial_index": 71}, "uniqueid": "MTK1502:30JNVC0ORAR3FXW7O404HTA432FHQE", "dateTime": 1515952859957}, {"current_trial": 72, "trialdata": {"rt": -1, "trial_type": "single-stim", "word": "hook", "stimulus": "<p id=\"stim\">HOOK</p>", "conditions": [18, 1200, "v", 18000], "internal_node_id": "0.0-54.0", "trial": 1, "time_elapsed": 398692, "serialpos": 17, "key_press": -1, "wordID": 714, "type": "PRES_VIS", "trial_index": 72}, "uniqueid": "MTK1502:30JNVC0ORAR3FXW7O404HTA432FHQE", "dateTime": 1515952862239}, {"current_trial": 73, "trialdata": {"rt": -1, "trial_type": "single-stim", "stimulus": "", "internal_node_id": "0.0-55.0-0.0", "time_elapsed": 400857, "key_press": -1, "type": "PRE_RECALL_DELAY", "trial_index": 73}, "uniqueid": "MTK1502:30JNVC0ORAR3FXW7O404HTA432FHQE", "dateTime": 1515952864404}, {"current_trial": 74, "trialdata": {"rt": -1000, "trial_type": "single-audio", "stimulus": "/static/audio/400Hz.wav", "internal_node_id": "0.0-56.0", "time_elapsed": 401359, "key_press": -1, "type": "PRE_RECALL_ALERT", "trial_index": 74}, "uniqueid": "MTK1502:30JNVC0ORAR3FXW7O404HTA432FHQE", "dateTime": 1515952864906}, {"current_trial": 75, "trialdata": {"rt": [2683, 8779, 12612, 18023, 22984, 25248, 27310, 33972, 54576], "recwords": ["hook", "iceberg", "u", "umpire", "garlic", "brother", "hamper", "beef", "mallet"], "key_times": [874, 1369, 1572, 1777, 1989, 2320, 2683, 3034, 3693, 4400, 4668, 5196, 5903, 6390, 6546, 7103, 7538, 7744, 8006, 8340, 8779, 9217, 9555, 12162, 12612, 14244, 14646, 15281, 15799, 16472, 16786, 17124, 17517, 18023, 20941, 21289, 21514, 21982, 22274, 22572, 22984, 23968, 24170, 24310, 24498, 24623, 24704, 24887, 25248, 25910, 26105, 26268, 26568, 26843, 27072, 27310, 32968, 33119, 33391, 33640, 33972, 42129, 42884, 53179, 53373, 53572, 53782, 53900, 54388, 54576], "trial_type": "free-recall", "conditions": [18, 1200, "v", 18000], "internal_node_id": "0.0-57.0-0.0", "key_presses": [71, 8, 72, 79, 79, 75, 13, 73, 86, 8, 66, 8, 86, 8, 67, 69, 66, 69, 82, 71, 13, 85, 80, 8, 188, 85, 77, 80, 85, 8, 73, 82, 69, 13, 71, 65, 82, 76, 73, 67, 13, 66, 82, 79, 84, 72, 69, 82, 13, 72, 65, 77, 80, 69, 82, 13, 66, 69, 69, 70, 13, 87, 8, 77, 65, 76, 76, 69, 84, 13], "trial": 1, "time_elapsed": 461364, "type": "FREE_RECALL", "trial_index": 75}, "uniqueid": "MTK1502:30JNVC0ORAR3FXW7O404HTA432FHQE", "dateTime": 1515952924919}, {"current_trial": 76, "trialdata": {"rt": 2459, "trial_type": "text", "internal_node_id": "0.0-58.0", "time_elapsed": 465834, "key_press": 74, "type": "INSTRUCTIONS", "trial_index": 76}, "uniqueid": "MTK1502:30JNVC0ORAR3FXW7O404HTA432FHQE", "dateTime": 1515952929382}, {"current_trial": 77, "trialdata": {"rt": [7265, 10843, 13972, 16942, 22306], "trial_type": "math-distractor", "key_times": [5332, 6518, 7265, 9176, 9523, 10050, 10230, 10843, 12503, 13553, 13972, 16198, 16473, 16942, 19574, 20094, 20293, 21211, 21860, 22306], "responses": ["24", "16", "10", "15", "6"], "num2": [9, 8, 2, 7, 3, 9], "num3": [8, 7, 1, 7, 2, 9], "conditions": [12, 1600, "v", 24000], "internal_node_id": "0.0-59.0", "key_presses": [50, 52, 13, 49, 53, 8, 54, 13, 49, 48, 13, 49, 53, 13, 51, 8, 52, 8, 54, 13], "trial": 2, "time_elapsed": 490843, "type": "DISTRACTOR", "trial_index": 77, "num1": [7, 1, 7, 1, 1, 8]}, "uniqueid": "MTK1502:30JNVC0ORAR3FXW7O404HTA432FHQE", "dateTime": 1515952954390}, {"current_trial": 78, "trialdata": {"rt": -1, "trial_type": "single-stim", "stimulus": "<p id=\"stim\">10</p>", "internal_node_id": "0.0-60.0-0.0", "time_elapsed": 493846, "key_press": -1, "trial_index": 78}, "uniqueid": "MTK1502:30JNVC0ORAR3FXW7O404HTA432FHQE", "dateTime": 1515952957393}, {"current_trial": 79, "trialdata": {"rt": -1, "trial_type": "single-stim", "stimulus": "<p id=\"stim\">9</p>", "internal_node_id": "0.0-60.0-1.0", "time_elapsed": 494848, "key_press": -1, "trial_index": 79}, "uniqueid": "MTK1502:30JNVC0ORAR3FXW7O404HTA432FHQE", "dateTime": 1515952958395}, {"current_trial": 80, "trialdata": {"rt": -1, "trial_type": "single-stim", "stimulus": "<p id=\"stim\">8</p>", "internal_node_id": "0.0-60.0-2.0", "time_elapsed": 495849, "key_press": -1, "trial_index": 80}, "uniqueid": "MTK1502:30JNVC0ORAR3FXW7O404HTA432FHQE", "dateTime": 1515952959396}, {"current_trial": 81, "trialdata": {"rt": -1, "trial_type": "single-stim", "stimulus": "<p id=\"stim\">7</p>", "internal_node_id": "0.0-60.0-3.0", "time_elapsed": 496852, "key_press": -1, "trial_index": 81}, "uniqueid": "MTK1502:30JNVC0ORAR3FXW7O404HTA432FHQE", "dateTime": 1515952960399}, {"current_trial": 82, "trialdata": {"rt": -1, "trial_type": "single-stim", "stimulus": "<p id=\"stim\">6</p>", "internal_node_id": "0.0-60.0-4.0", "time_elapsed": 497854, "key_press": -1, "trial_index": 82}, "uniqueid": "MTK1502:30JNVC0ORAR3FXW7O404HTA432FHQE", "dateTime": 1515952961401}, {"current_trial": 83, "trialdata": {"rt": -1, "trial_type": "single-stim", "stimulus": "<p id=\"stim\">5</p>", "internal_node_id": "0.0-60.0-5.0", "time_elapsed": 498857, "key_press": -1, "trial_index": 83}, "uniqueid": "MTK1502:30JNVC0ORAR3FXW7O404HTA432FHQE", "dateTime": 1515952962404}, {"current_trial": 84, "trialdata": {"rt": -1, "trial_type": "single-stim", "stimulus": "<p id=\"stim\">4</p>", "internal_node_id": "0.0-60.0-6.0", "time_elapsed": 499859, "key_press": -1, "trial_index": 84}, "uniqueid": "MTK1502:30JNVC0ORAR3FXW7O404HTA432FHQE", "dateTime": 1515952963407}, {"current_trial": 85, "trialdata": {"rt": -1, "trial_type": "single-stim", "stimulus": "<p id=\"stim\">3</p>", "internal_node_id": "0.0-60.0-7.0", "time_elapsed": 500861, "key_press": -1, "trial_index": 85}, "uniqueid": "MTK1502:30JNVC0ORAR3FXW7O404HTA432FHQE", "dateTime": 1515952964409}, {"current_trial": 86, "trialdata": {"rt": -1, "trial_type": "single-stim", "stimulus": "<p id=\"stim\">2</p>", "internal_node_id": "0.0-60.0-8.0", "time_elapsed": 501863, "key_press": -1, "trial_index": 86}, "uniqueid": "MTK1502:30JNVC0ORAR3FXW7O404HTA432FHQE", "dateTime": 1515952965411}, {"current_trial": 87, "trialdata": {"rt": -1, "trial_type": "single-stim", "stimulus": "<p id=\"stim\">1</p>", "internal_node_id": "0.0-60.0-9.0", "time_elapsed": 502866, "key_press": -1, "trial_index": 87}, "uniqueid": "MTK1502:30JNVC0ORAR3FXW7O404HTA432FHQE", "dateTime": 1515952966413}, {"current_trial": 88, "trialdata": {"rt": -1, "trial_type": "single-stim", "stimulus": "<p id=\"stim\">+</p>", "internal_node_id": "0.0-61.0-0.0", "time_elapsed": 504369, "key_press": -1, "type": "FIXATION", "trial_index": 88}, "uniqueid": "MTK1502:30JNVC0ORAR3FXW7O404HTA432FHQE", "dateTime": 1515952967916}, {"current_trial": 89, "trialdata": {"rt": -1, "trial_type": "single-stim", "word": "blade", "stimulus": "<p id=\"stim\">BLADE</p>", "conditions": [12, 1600, "v", 24000], "internal_node_id": "0.0-62.0", "trial": 2, "time_elapsed": 505973, "serialpos": 0, "key_press": -1, "wordID": 133, "type": "PRES_VIS", "trial_index": 89}, "uniqueid": "MTK1502:30JNVC0ORAR3FXW7O404HTA432FHQE", "dateTime": 1515952969520}, {"current_trial": 90, "trialdata": {"rt": -1, "trial_type": "single-stim", "word": "uncle", "stimulus": "<p id=\"stim\">UNCLE</p>", "conditions": [12, 1600, "v", 24000], "internal_node_id": "0.0-63.0", "trial": 2, "time_elapsed": 508720, "serialpos": 1, "key_press": -1, "wordID": 1535, "type": "PRES_VIS", "trial_index": 90}, "uniqueid": "MTK1502:30JNVC0ORAR3FXW7O404HTA432FHQE", "dateTime": 1515952972267}, {"current_trial": 91, "trialdata": {"rt": -1, "trial_type": "single-stim", "word": "suitcase", "stimulus": "<p id=\"stim\">SUITCASE</p>", "conditions": [12, 1600, "v", 24000], "internal_node_id": "0.0-64.0", "trial": 2, "time_elapsed": 511336, "serialpos": 2, "key_press": -1, "wordID": 1402, "type": "PRES_VIS", "trial_index": 91}, "uniqueid": "MTK1502:30JNVC0ORAR3FXW7O404HTA432FHQE", "dateTime": 1515952974884}, {"current_trial": 92, "trialdata": {"rt": -1, "trial_type": "single-stim", "word": "briefcase", "stimulus": "<p id=\"stim\">BRIEFCASE</p>", "conditions": [12, 1600, "v", 24000], "internal_node_id": "0.0-65.0", "trial": 2, "time_elapsed": 513962, "serialpos": 3, "key_press": -1, "wordID": 174, "type": "PRES_VIS", "trial_index": 92}, "uniqueid": "MTK1502:30JNVC0ORAR3FXW7O404HTA432FHQE", "dateTime": 1515952977510}, {"current_trial": 93, "trialdata": {"rt": -1, "trial_type": "single-stim", "word": "brook", "stimulus": "<p id=\"stim\">BROOK</p>", "conditions": [12, 1600, "v", 24000], "internal_node_id": "0.0-66.0", "trial": 2, "time_elapsed": 516750, "serialpos": 4, "key_press": -1, "wordID": 176, "type": "PRES_VIS", "trial_index": 93}, "uniqueid": "MTK1502:30JNVC0ORAR3FXW7O404HTA432FHQE", "dateTime": 1515952980297}, {"current_trial": 94, "trialdata": {"rt": -1, "trial_type": "single-stim", "word": "teacher", "stimulus": "<p id=\"stim\">TEACHER</p>", "conditions": [12, 1600, "v", 24000], "internal_node_id": "0.0-67.0", "trial": 2, "time_elapsed": 519247, "serialpos": 5, "key_press": -1, "wordID": 1439, "type": "PRES_VIS", "trial_index": 94}, "uniqueid": "MTK1502:30JNVC0ORAR3FXW7O404HTA432FHQE", "dateTime": 1515952982794}, {"current_trial": 95, "trialdata": {"rt": -1, "trial_type": "single-stim", "word": "venus", "stimulus": "<p id=\"stim\">VENUS</p>", "conditions": [12, 1600, "v", 24000], "internal_node_id": "0.0-68.0", "trial": 2, "time_elapsed": 522045, "serialpos": 6, "key_press": -1, "wordID": 1556, "type": "PRES_VIS", "trial_index": 95}, "uniqueid": "MTK1502:30JNVC0ORAR3FXW7O404HTA432FHQE", "dateTime": 1515952985592}, {"current_trial": 96, "trialdata": {"rt": -1, "trial_type": "single-stim", "word": "report", "stimulus": "<p id=\"stim\">REPORT</p>", "conditions": [12, 1600, "v", 24000], "internal_node_id": "0.0-69.0", "trial": 2, "time_elapsed": 524657, "serialpos": 7, "key_press": -1, "wordID": 1183, "type": "PRES_VIS", "trial_index": 96}, "uniqueid": "MTK1502:30JNVC0ORAR3FXW7O404HTA432FHQE", "dateTime": 1515952988204}, {"current_trial": 97, "trialdata": {"rt": -1, "trial_type": "single-stim", "word": "perch", "stimulus": "<p id=\"stim\">PERCH</p>", "conditions": [12, 1600, "v", 24000], "internal_node_id": "0.0-70.0", "trial": 2, "time_elapsed": 527387, "serialpos": 8, "key_press": -1, "wordID": 1047, "type": "PRES_VIS", "trial_index": 97}, "uniqueid": "MTK1502:30JNVC0ORAR3FXW7O404HTA432FHQE", "dateTime": 1515952990934}, {"current_trial": 98, "trialdata": {"rt": -1, "trial_type": "single-stim", "word": "wife", "stimulus": "<p id=\"stim\">WIFE</p>", "conditions": [12, 1600, "v", 24000], "internal_node_id": "0.0-71.0", "trial": 2, "time_elapsed": 530137, "serialpos": 9, "key_press": -1, "wordID": 1608, "type": "PRES_VIS", "trial_index": 98}, "uniqueid": "MTK1502:30JNVC0ORAR3FXW7O404HTA432FHQE", "dateTime": 1515952993684}, {"current_trial": 99, "trialdata": {"rt": -1, "trial_type": "single-stim", "word": "forehead", "stimulus": "<p id=\"stim\">FOREHEAD</p>", "conditions": [12, 1600, "v", 24000], "internal_node_id": "0.0-72.0", "trial": 2, "time_elapsed": 532663, "serialpos": 10, "key_press": -1, "wordID": 591, "type": "PRES_VIS", "trial_index": 99}, "uniqueid": "MTK1502:30JNVC0ORAR3FXW7O404HTA432FHQE", "dateTime": 1515952996210}, {"current_trial": 100, "trialdata": {"rt": -1, "trial_type": "single-stim", "word": "glove", "stimulus": "<p id=\"stim\">GLOVE</p>", "conditions": [12, 1600, "v", 24000], "internal_node_id": "0.0-73.0", "trial": 2, "time_elapsed": 535093, "serialpos": 11, "key_press": -1, "wordID": 641, "type": "PRES_VIS", "trial_index": 100}, "uniqueid": "MTK1502:30JNVC0ORAR3FXW7O404HTA432FHQE", "dateTime": 1515952998640}, {"current_trial": 101, "trialdata": {"rt": -1, "trial_type": "single-stim", "stimulus": "", "internal_node_id": "0.0-74.0-0.0", "time_elapsed": 537608, "key_press": -1, "type": "PRE_RECALL_DELAY", "trial_index": 101}, "uniqueid": "MTK1502:30JNVC0ORAR3FXW7O404HTA432FHQE", "dateTime": 1515953001155}, {"current_trial": 102, "trialdata": {"rt": -1000, "trial_type": "single-audio", "stimulus": "/static/audio/400Hz.wav", "internal_node_id": "0.0-75.0", "time_elapsed": 538110, "key_press": -1, "type": "PRE_RECALL_ALERT", "trial_index": 102}, "uniqueid": "MTK1502:30JNVC0ORAR3FXW7O404HTA432FHQE", "dateTime": 1515953001657}, {"current_trial": 103, "trialdata": {"rt": [2486, 5691, 8507, 10301, 12116, 16225], "recwords": ["glove", "forehead", "beach", "wife", "uncle", "blade"], "key_times": [678, 1115, 1326, 1525, 1772, 1971, 2246, 2486, 2855, 3053, 3427, 3609, 3753, 3978, 4247, 4511, 4691, 4847, 5108, 5456, 5691, 6988, 7644, 7899, 8140, 8222, 8507, 8832, 9093, 9306, 9648, 9823, 10082, 10301, 10679, 10952, 11213, 11310, 11486, 12116, 12617, 12822, 13244, 13417, 13570, 13793, 14200, 14388, 14590, 14787, 15004, 15533, 15965, 16225, 50773, 51227], "trial_type": "free-recall", "conditions": [12, 1600, "v", 24000], "internal_node_id": "0.0-76.0-0.0", "key_presses": [70, 8, 71, 76, 79, 86, 69, 13, 71, 79, 8, 8, 70, 79, 82, 69, 72, 69, 65, 68, 13, 66, 69, 65, 67, 72, 13, 87, 73, 82, 8, 70, 69, 13, 85, 78, 67, 76, 69, 13, 67, 76, 8, 8, 86, 76, 8, 8, 66, 76, 65, 68, 69, 13, 74, 8], "trial": 2, "time_elapsed": 598115, "type": "FREE_RECALL", "trial_index": 103}, "uniqueid": "MTK1502:30JNVC0ORAR3FXW7O404HTA432FHQE", "dateTime": 1515953061666}, {"current_trial": 104, "trialdata": {"rt": 2145, "trial_type": "text", "internal_node_id": "0.0-77.0", "time_elapsed": 602266, "key_press": 66, "type": "INSTRUCTIONS", "trial_index": 104}, "uniqueid": "MTK1502:30JNVC0ORAR3FXW7O404HTA432FHQE", "dateTime": 1515953065814}, {"current_trial": 105, "trialdata": {"rt": [2441, 6815, 9017], "trial_type": "math-distractor", "key_times": [1588, 2035, 2441, 5180, 5616, 6094, 6327, 6815, 8526, 9017, 11407, 11831], "responses": ["14", "17", "5"], "num2": [6, 4, 1, 1], "num3": [2, 4, 1, 9], "conditions": [24, 1600, "v", 12000], "internal_node_id": "0.0-78.0", "key_presses": [49, 52, 13, 49, 56, 8, 55, 13, 53, 13, 49, 52], "trial": 3, "time_elapsed": 616272, "type": "DISTRACTOR", "trial_index": 105, "num1": [6, 9, 3, 5]}, "uniqueid": "MTK1502:30JNVC0ORAR3FXW7O404HTA432FHQE", "dateTime": 1515953079819}, {"current_trial": 106, "trialdata": {"rt": -1, "trial_type": "single-stim", "stimulus": "<p id=\"stim\">10</p>", "internal_node_id": "0.0-79.0-0.0", "time_elapsed": 619275, "key_press": -1, "trial_index": 106}, "uniqueid": "MTK1502:30JNVC0ORAR3FXW7O404HTA432FHQE", "dateTime": 1515953082822}, {"current_trial": 107, "trialdata": {"rt": -1, "trial_type": "single-stim", "stimulus": "<p id=\"stim\">9</p>", "internal_node_id": "0.0-79.0-1.0", "time_elapsed": 620277, "key_press": -1, "trial_index": 107}, "uniqueid": "MTK1502:30JNVC0ORAR3FXW7O404HTA432FHQE", "dateTime": 1515953083824}, {"current_trial": 108, "trialdata": {"rt": -1, "trial_type": "single-stim", "stimulus": "<p id=\"stim\">8</p>", "internal_node_id": "0.0-79.0-2.0", "time_elapsed": 621280, "key_press": -1, "trial_index": 108}, "uniqueid": "MTK1502:30JNVC0ORAR3FXW7O404HTA432FHQE", "dateTime": 1515953084827}, {"current_trial": 109, "trialdata": {"rt": -1, "trial_type": "single-stim", "stimulus": "<p id=\"stim\">7</p>", "internal_node_id": "0.0-79.0-3.0", "time_elapsed": 622282, "key_press": -1, "trial_index": 109}, "uniqueid": "MTK1502:30JNVC0ORAR3FXW7O404HTA432FHQE", "dateTime": 1515953085830}, {"current_trial": 110, "trialdata": {"rt": -1, "trial_type": "single-stim", "stimulus": "<p id=\"stim\">6</p>", "internal_node_id": "0.0-79.0-4.0", "time_elapsed": 623285, "key_press": -1, "trial_index": 110}, "uniqueid": "MTK1502:30JNVC0ORAR3FXW7O404HTA432FHQE", "dateTime": 1515953086832}, {"current_trial": 111, "trialdata": {"rt": -1, "trial_type": "single-stim", "stimulus": "<p id=\"stim\">5</p>", "internal_node_id": "0.0-79.0-5.0", "time_elapsed": 624291, "key_press": -1, "trial_index": 111}, "uniqueid": "MTK1502:30JNVC0ORAR3FXW7O404HTA432FHQE", "dateTime": 1515953087839}, {"current_trial": 112, "trialdata": {"rt": -1, "trial_type": "single-stim", "stimulus": "<p id=\"stim\">4</p>", "internal_node_id": "0.0-79.0-6.0", "time_elapsed": 625295, "key_press": -1, "trial_index": 112}, "uniqueid": "MTK1502:30JNVC0ORAR3FXW7O404HTA432FHQE", "dateTime": 1515953088842}, {"current_trial": 113, "trialdata": {"rt": -1, "trial_type": "single-stim", "stimulus": "<p id=\"stim\">3</p>", "internal_node_id": "0.0-79.0-7.0", "time_elapsed": 626298, "key_press": -1, "trial_index": 113}, "uniqueid": "MTK1502:30JNVC0ORAR3FXW7O404HTA432FHQE", "dateTime": 1515953089845}, {"current_trial": 114, "trialdata": {"rt": -1, "trial_type": "single-stim", "stimulus": "<p id=\"stim\">2</p>", "internal_node_id": "0.0-79.0-8.0", "time_elapsed": 627300, "key_press": -1, "trial_index": 114}, "uniqueid": "MTK1502:30JNVC0ORAR3FXW7O404HTA432FHQE", "dateTime": 1515953090847}, {"current_trial": 115, "trialdata": {"rt": -1, "trial_type": "single-stim", "stimulus": "<p id=\"stim\">1</p>", "internal_node_id": "0.0-79.0-9.0", "time_elapsed": 628303, "key_press": -1, "trial_index": 115}, "uniqueid": "MTK1502:30JNVC0ORAR3FXW7O404HTA432FHQE", "dateTime": 1515953091850}, {"current_trial": 116, "trialdata": {"rt": -1, "trial_type": "single-stim", "stimulus": "<p id=\"stim\">+</p>", "internal_node_id": "0.0-80.0-0.0", "time_elapsed": 629806, "key_press": -1, "type": "FIXATION", "trial_index": 116}, "uniqueid": "MTK1502:30JNVC0ORAR3FXW7O404HTA432FHQE", "dateTime": 1515953093354}, {"current_trial": 117, "trialdata": {"rt": -1, "trial_type": "single-stim", "word": "beast", "stimulus": "<p id=\"stim\">BEAST</p>", "conditions": [24, 1600, "v", 12000], "internal_node_id": "0.0-81.0", "trial": 3, "time_elapsed": 631410, "serialpos": 0, "key_press": -1, "wordID": 107, "type": "PRES_VIS", "trial_index": 117}, "uniqueid": "MTK1502:30JNVC0ORAR3FXW7O404HTA432FHQE", "dateTime": 1515953094957}, {"current_trial": 118, "trialdata": {"rt": 1165, "trial_type": "single-stim", "word": "monster", "stimulus": "<p id=\"stim\">MONSTER</p>", "conditions": [24, 1600, "v", 12000], "internal_node_id": "0.0-82.0", "trial": 3, "time_elapsed": 634167, "serialpos": 1, "key_press": 77, "wordID": 911, "type": "PRES_VIS", "trial_index": 118}, "uniqueid": "MTK1502:30JNVC0ORAR3FXW7O404HTA432FHQE", "dateTime": 1515953097714}, {"current_trial": 119, "trialdata": {"rt": 535, "trial_type": "single-stim", "word": "package", "stimulus": "<p id=\"stim\">PACKAGE</p>", "conditions": [24, 1600, "v", 12000], "internal_node_id": "0.0-83.0", "trial": 3, "time_elapsed": 636851, "serialpos": 2, "key_press": 82, "wordID": 996, "type": "PRES_VIS", "trial_index": 119}, "uniqueid": "MTK1502:30JNVC0ORAR3FXW7O404HTA432FHQE", "dateTime": 1515953100398}, {"current_trial": 120, "trialdata": {"rt": -1, "trial_type": "single-stim", "word": "chipmunk", "stimulus": "<p id=\"stim\">CHIPMUNK</p>", "conditions": [24, 1600, "v", 12000], "internal_node_id": "0.0-84.0", "trial": 3, "time_elapsed": 639477, "serialpos": 3, "key_press": -1, "wordID": 303, "type": "PRES_VIS", "trial_index": 120}, "uniqueid": "MTK1502:30JNVC0ORAR3FXW7O404HTA432FHQE", "dateTime": 1515953103025}, {"current_trial": 121, "trialdata": {"rt": -1, "trial_type": "single-stim", "word": "cabin", "stimulus": "<p id=\"stim\">CABIN</p>", "conditions": [24, 1600, "v", 12000], "internal_node_id": "0.0-85.0", "trial": 3, "time_elapsed": 642027, "serialpos": 4, "key_press": -1, "wordID": 210, "type": "PRES_VIS", "trial_index": 121}, "uniqueid": "MTK1502:30JNVC0ORAR3FXW7O404HTA432FHQE", "dateTime": 1515953105574}, {"current_trial": 122, "trialdata": {"rt": -1, "trial_type": "single-stim", "word": "contract", "stimulus": "<p id=\"stim\">CONTRACT</p>", "conditions": [24, 1600, "v", 12000], "internal_node_id": "0.0-86.0", "trial": 3, "time_elapsed": 644457, "serialpos": 5, "key_press": -1, "wordID": 367, "type": "PRES_VIS", "trial_index": 122}, "uniqueid": "MTK1502:30JNVC0ORAR3FXW7O404HTA432FHQE", "dateTime": 1515953108004}, {"current_trial": 123, "trialdata": {"rt": -1, "trial_type": "single-stim", "word": "beaver", "stimulus": "<p id=\"stim\">BEAVER</p>", "conditions": [24, 1600, "v", 12000], "internal_node_id": "0.0-87.0", "trial": 3, "time_elapsed": 646900, "serialpos": 6, "key_press": -1, "wordID": 108, "type": "PRES_VIS", "trial_index": 123}, "uniqueid": "MTK1502:30JNVC0ORAR3FXW7O404HTA432FHQE", "dateTime": 1515953110447}, {"current_trial": 124, "trialdata": {"rt": -1, "trial_type": "single-stim", "word": "mustard", "stimulus": "<p id=\"stim\">MUSTARD</p>", "conditions": [24, 1600, "v", 12000], "internal_node_id": "0.0-88.0", "trial": 3, "time_elapsed": 649623, "serialpos": 7, "key_press": -1, "wordID": 934, "type": "PRES_VIS", "trial_index": 124}, "uniqueid": "MTK1502:30JNVC0ORAR3FXW7O404HTA432FHQE", "dateTime": 1515953113170}, {"current_trial": 125, "trialdata": {"rt": -1, "trial_type": "single-stim", "word": "turkey", "stimulus": "<p id=\"stim\">TURKEY</p>", "conditions": [24, 1600, "v", 12000], "internal_node_id": "0.0-89.0", "trial": 3, "time_elapsed": 652125, "serialpos": 8, "key_press": -1, "wordID": 1519, "type": "PRES_VIS", "trial_index": 125}, "uniqueid": "MTK1502:30JNVC0ORAR3FXW7O404HTA432FHQE", "dateTime": 1515953115672}, {"current_trial": 126, "trialdata": {"rt": -1, "trial_type": "single-stim", "word": "heart", "stimulus": "<p id=\"stim\">HEART</p>", "conditions": [24, 1600, "v", 12000], "internal_node_id": "0.0-90.0", "trial": 3, "time_elapsed": 654680, "serialpos": 9, "key_press": -1, "wordID": 696, "type": "PRES_VIS", "trial_index": 126}, "uniqueid": "MTK1502:30JNVC0ORAR3FXW7O404HTA432FHQE", "dateTime": 1515953118227}, {"current_trial": 127, "trialdata": {"rt": -1, "trial_type": "single-stim", "word": "dime", "stimulus": "<p id=\"stim\">DIME</p>", "conditions": [24, 1600, "v", 12000], "internal_node_id": "0.0-91.0", "trial": 3, "time_elapsed": 657288, "serialpos": 10, "key_press": -1, "wordID": 465, "type": "PRES_VIS", "trial_index": 127}, "uniqueid": "MTK1502:30JNVC0ORAR3FXW7O404HTA432FHQE", "dateTime": 1515953120835}, {"current_trial": 128, "trialdata": {"rt": -1, "trial_type": "single-stim", "word": "sandwich", "stimulus": "<p id=\"stim\">SANDWICH</p>", "conditions": [24, 1600, "v", 12000], "internal_node_id": "0.0-92.0", "trial": 3, "time_elapsed": 659862, "serialpos": 11, "key_press": -1, "wordID": 1231, "type": "PRES_VIS", "trial_index": 128}, "uniqueid": "MTK1502:30JNVC0ORAR3FXW7O404HTA432FHQE", "dateTime": 1515953123409}, {"current_trial": 129, "trialdata": {"rt": -1, "trial_type": "single-stim", "word": "toaster", "stimulus": "<p id=\"stim\">TOASTER</p>", "conditions": [24, 1600, "v", 12000], "internal_node_id": "0.0-93.0", "trial": 3, "time_elapsed": 662267, "serialpos": 12, "key_press": -1, "wordID": 1471, "type": "PRES_VIS", "trial_index": 129}, "uniqueid": "MTK1502:30JNVC0ORAR3FXW7O404HTA432FHQE", "dateTime": 1515953125814}, {"current_trial": 130, "trialdata": {"rt": -1, "trial_type": "single-stim", "word": "switch", "stimulus": "<p id=\"stim\">SWITCH</p>", "conditions": [24, 1600, "v", 12000], "internal_node_id": "0.0-94.0", "trial": 3, "time_elapsed": 664865, "serialpos": 13, "key_press": -1, "wordID": 1421, "type": "PRES_VIS", "trial_index": 130}, "uniqueid": "MTK1502:30JNVC0ORAR3FXW7O404HTA432FHQE", "dateTime": 1515953128412}, {"current_trial": 131, "trialdata": {"rt": -1, "trial_type": "single-stim", "word": "radish", "stimulus": "<p id=\"stim\">RADISH</p>", "conditions": [24, 1600, "v", 12000], "internal_node_id": "0.0-95.0", "trial": 3, "time_elapsed": 667592, "serialpos": 14, "key_press": -1, "wordID": 1157, "type": "PRES_VIS", "trial_index": 131}, "uniqueid": "MTK1502:30JNVC0ORAR3FXW7O404HTA432FHQE", "dateTime": 1515953131139}, {"current_trial": 132, "trialdata": {"rt": -1, "trial_type": "single-stim", "word": "climber", "stimulus": "<p id=\"stim\">CLIMBER</p>", "conditions": [24, 1600, "v", 12000], "internal_node_id": "0.0-96.0", "trial": 3, "time_elapsed": 670150, "serialpos": 15, "key_press": -1, "wordID": 322, "type": "PRES_VIS", "trial_index": 132}, "uniqueid": "MTK1502:30JNVC0ORAR3FXW7O404HTA432FHQE", "dateTime": 1515953133698}, {"current_trial": 133, "trialdata": {"rt": -1, "trial_type": "single-stim", "word": "hiker", "stimulus": "<p id=\"stim\">HIKER</p>", "conditions": [24, 1600, "v", 12000], "internal_node_id": "0.0-97.0", "trial": 3, "time_elapsed": 672680, "serialpos": 16, "key_press": -1, "wordID": 707, "type": "PRES_VIS", "trial_index": 133}, "uniqueid": "MTK1502:30JNVC0ORAR3FXW7O404HTA432FHQE", "dateTime": 1515953136227}, {"current_trial": 134, "trialdata": {"rt": -1, "trial_type": "single-stim", "word": "motor", "stimulus": "<p id=\"stim\">MOTOR</p>", "conditions": [24, 1600, "v", 12000], "internal_node_id": "0.0-98.0", "trial": 3, "time_elapsed": 675384, "serialpos": 17, "key_press": -1, "wordID": 921, "type": "PRES_VIS", "trial_index": 134}, "uniqueid": "MTK1502:30JNVC0ORAR3FXW7O404HTA432FHQE", "dateTime": 1515953138931}, {"current_trial": 135, "trialdata": {"rt": -1, "trial_type": "single-stim", "word": "scarf", "stimulus": "<p id=\"stim\">SCARF</p>", "conditions": [24, 1600, "v", 12000], "internal_node_id": "0.0-99.0", "trial": 3, "time_elapsed": 677797, "serialpos": 18, "key_press": -1, "wordID": 1245, "type": "PRES_VIS", "trial_index": 135}, "uniqueid": "MTK1502:30JNVC0ORAR3FXW7O404HTA432FHQE", "dateTime": 1515953141345}, {"current_trial": 136, "trialdata": {"rt": -1, "trial_type": "single-stim", "word": "crater", "stimulus": "<p id=\"stim\">CRATER</p>", "conditions": [24, 1600, "v", 12000], "internal_node_id": "0.0-100.0", "trial": 3, "time_elapsed": 680570, "serialpos": 19, "key_press": -1, "wordID": 399, "type": "PRES_VIS", "trial_index": 136}, "uniqueid": "MTK1502:30JNVC0ORAR3FXW7O404HTA432FHQE", "dateTime": 1515953144117}, {"current_trial": 137, "trialdata": {"rt": -1, "trial_type": "single-stim", "word": "coin", "stimulus": "<p id=\"stim\">COIN</p>", "conditions": [24, 1600, "v", 12000], "internal_node_id": "0.0-101.0", "trial": 3, "time_elapsed": 683129, "serialpos": 20, "key_press": -1, "wordID": 342, "type": "PRES_VIS", "trial_index": 137}, "uniqueid": "MTK1502:30JNVC0ORAR3FXW7O404HTA432FHQE", "dateTime": 1515953146676}, {"current_trial": 138, "trialdata": {"rt": -1, "trial_type": "single-stim", "word": "washer", "stimulus": "<p id=\"stim\">WASHER</p>", "conditions": [24, 1600, "v", 12000], "internal_node_id": "0.0-102.0", "trial": 3, "time_elapsed": 685604, "serialpos": 21, "key_press": -1, "wordID": 1591, "type": "PRES_VIS", "trial_index": 138}, "uniqueid": "MTK1502:30JNVC0ORAR3FXW7O404HTA432FHQE", "dateTime": 1515953149151}, {"current_trial": 139, "trialdata": {"rt": -1, "trial_type": "single-stim", "word": "turnip", "stimulus": "<p id=\"stim\">TURNIP</p>", "conditions": [24, 1600, "v", 12000], "internal_node_id": "0.0-103.0", "trial": 3, "time_elapsed": 688390, "serialpos": 22, "key_press": -1, "wordID": 1520, "type": "PRES_VIS", "trial_index": 139}, "uniqueid": "MTK1502:30JNVC0ORAR3FXW7O404HTA432FHQE", "dateTime": 1515953151937}, {"current_trial": 140, "trialdata": {"rt": -1, "trial_type": "single-stim", "word": "powder", "stimulus": "<p id=\"stim\">POWDER</p>", "conditions": [24, 1600, "v", 12000], "internal_node_id": "0.0-104.0", "trial": 3, "time_elapsed": 691011, "serialpos": 23, "key_press": -1, "wordID": 1116, "type": "PRES_VIS", "trial_index": 140}, "uniqueid": "MTK1502:30JNVC0ORAR3FXW7O404HTA432FHQE", "dateTime": 1515953154558}, {"current_trial": 141, "trialdata": {"rt": -1, "trial_type": "single-stim", "stimulus": "", "internal_node_id": "0.0-105.0-0.0", "time_elapsed": 693110, "key_press": -1, "type": "PRE_RECALL_DELAY", "trial_index": 141}, "uniqueid": "MTK1502:30JNVC0ORAR3FXW7O404HTA432FHQE", "dateTime": 1515953156657}, {"current_trial": 142, "trialdata": {"rt": -1000, "trial_type": "single-audio", "stimulus": "/static/audio/400Hz.wav", "internal_node_id": "0.0-106.0", "time_elapsed": 693612, "key_press": -1, "type": "PRE_RECALL_ALERT", "trial_index": 142}, "uniqueid": "MTK1502:30JNVC0ORAR3FXW7O404HTA432FHQE", "dateTime": 1515953157159}, {"current_trial": 143, "trialdata": {"rt": [3042, 9410, 12553, 19327, 22166, 24124, 31412], "recwords": ["mustard", "beaver", "turkey", "sandwich", "coin", "washer", "bat"], "key_times": [494, 835, 1034, 1322, 1642, 1948, 2264, 2657, 2787, 3042, 3966, 4473, 4633, 5151, 5579, 5690, 6212, 6407, 6959, 7148, 7531, 8181, 8763, 9007, 9410, 9667, 9899, 10204, 10633, 10838, 11196, 11509, 12204, 12553, 13211, 14005, 14188, 14901, 15594, 16227, 16614, 16747, 17222, 17401, 17535, 18195, 18391, 18705, 19327, 20945, 21121, 21388, 21850, 22166, 22452, 22710, 22971, 23180, 23401, 23633, 24124, 30736, 30860, 31130, 31412, 58732, 59092, 59413, 59884], "trial_type": "free-recall", "conditions": [24, 1600, "v", 12000], "internal_node_id": "0.0-107.0-0.0", "key_presses": [77, 85, 83, 84, 65, 82, 70, 8, 68, 13, 86, 8, 67, 8, 66, 66, 8, 82, 8, 69, 65, 86, 69, 82, 13, 84, 85, 69, 8, 82, 75, 69, 89, 13, 83, 65, 78, 68, 87, 73, 86, 74, 8, 8, 66, 8, 67, 72, 13, 67, 79, 73, 78, 13, 87, 65, 83, 72, 69, 82, 13, 66, 65, 84, 13, 82, 65, 83, 8], "trial": 3, "time_elapsed": 753620, "type": "FREE_RECALL", "trial_index": 143}, "uniqueid": "MTK1502:30JNVC0ORAR3FXW7O404HTA432FHQE", "dateTime": 1515953217177}, {"current_trial": 144, "trialdata": {"rt": 1177, "trial_type": "text", "internal_node_id": "0.0-108.0", "time_elapsed": 756809, "key_press": 78, "type": "INSTRUCTIONS", "trial_index": 144}, "uniqueid": "MTK1502:30JNVC0ORAR3FXW7O404HTA432FHQE", "dateTime": 1515953220356}, {"current_trial": 145, "trialdata": {"rt": [8907, 11886, 14658], "trial_type": "math-distractor", "key_times": [8156, 8449, 8907, 10973, 11401, 11886, 14068, 14306, 14658, 19169], "responses": ["22", "15", "11"], "num2": [9, 3, 4, 7], "num3": [6, 6, 4, 6], "conditions": [24, 1600, "v", 24000], "internal_node_id": "0.0-109.0", "key_presses": [50, 50, 13, 49, 53, 13, 49, 49, 13, 49], "trial": 4, "time_elapsed": 782815, "type": "DISTRACTOR", "trial_index": 145, "num1": [7, 6, 3, 1]}, "uniqueid": "MTK1502:30JNVC0ORAR3FXW7O404HTA432FHQE", "dateTime": 1515953246363}, {"current_trial": 146, "trialdata": {"rt": -1, "trial_type": "single-stim", "stimulus": "<p id=\"stim\">10</p>", "internal_node_id": "0.0-110.0-0.0", "time_elapsed": 785819, "key_press": -1, "trial_index": 146}, "uniqueid": "MTK1502:30JNVC0ORAR3FXW7O404HTA432FHQE", "dateTime": 1515953249366}, {"current_trial": 147, "trialdata": {"rt": -1, "trial_type": "single-stim", "stimulus": "<p id=\"stim\">9</p>", "internal_node_id": "0.0-110.0-1.0", "time_elapsed": 786822, "key_press": -1, "trial_index": 147}, "uniqueid": "MTK1502:30JNVC0ORAR3FXW7O404HTA432FHQE", "dateTime": 1515953250369}, {"current_trial": 148, "trialdata": {"rt": -1, "trial_type": "single-stim", "stimulus": "<p id=\"stim\">8</p>", "internal_node_id": "0.0-110.0-2.0", "time_elapsed": 787824, "key_press": -1, "trial_index": 148}, "uniqueid": "MTK1502:30JNVC0ORAR3FXW7O404HTA432FHQE", "dateTime": 1515953251372}, {"current_trial": 149, "trialdata": {"rt": -1, "trial_type": "single-stim", "stimulus": "<p id=\"stim\">7</p>", "internal_node_id": "0.0-110.0-3.0", "time_elapsed": 788826, "key_press": -1, "trial_index": 149}, "uniqueid": "MTK1502:30JNVC0ORAR3FXW7O404HTA432FHQE", "dateTime": 1515953252374}, {"current_trial": 150, "trialdata": {"rt": -1, "trial_type": "single-stim", "stimulus": "<p id=\"stim\">6</p>", "internal_node_id": "0.0-110.0-4.0", "time_elapsed": 789829, "key_press": -1, "trial_index": 150}, "uniqueid": "MTK1502:30JNVC0ORAR3FXW7O404HTA432FHQE", "dateTime": 1515953253377}, {"current_trial": 151, "trialdata": {"rt": -1, "trial_type": "single-stim", "stimulus": "<p id=\"stim\">5</p>", "internal_node_id": "0.0-110.0-5.0", "time_elapsed": 790832, "key_press": -1, "trial_index": 151}, "uniqueid": "MTK1502:30JNVC0ORAR3FXW7O404HTA432FHQE", "dateTime": 1515953254379}, {"current_trial": 152, "trialdata": {"rt": -1, "trial_type": "single-stim", "stimulus": "<p id=\"stim\">4</p>", "internal_node_id": "0.0-110.0-6.0", "time_elapsed": 791834, "key_press": -1, "trial_index": 152}, "uniqueid": "MTK1502:30JNVC0ORAR3FXW7O404HTA432FHQE", "dateTime": 1515953255381}, {"current_trial": 153, "trialdata": {"rt": -1, "trial_type": "single-stim", "stimulus": "<p id=\"stim\">3</p>", "internal_node_id": "0.0-110.0-7.0", "time_elapsed": 792836, "key_press": -1, "trial_index": 153}, "uniqueid": "MTK1502:30JNVC0ORAR3FXW7O404HTA432FHQE", "dateTime": 1515953256384}, {"current_trial": 154, "trialdata": {"rt": -1, "trial_type": "single-stim", "stimulus": "<p id=\"stim\">2</p>", "internal_node_id": "0.0-110.0-8.0", "time_elapsed": 793839, "key_press": -1, "trial_index": 154}, "uniqueid": "MTK1502:30JNVC0ORAR3FXW7O404HTA432FHQE", "dateTime": 1515953257386}, {"current_trial": 155, "trialdata": {"rt": -1, "trial_type": "single-stim", "stimulus": "<p id=\"stim\">1</p>", "internal_node_id": "0.0-110.0-9.0", "time_elapsed": 794842, "key_press": -1, "trial_index": 155}, "uniqueid": "MTK1502:30JNVC0ORAR3FXW7O404HTA432FHQE", "dateTime": 1515953258389}, {"current_trial": 156, "trialdata": {"rt": -1, "trial_type": "single-stim", "stimulus": "<p id=\"stim\">+</p>", "internal_node_id": "0.0-111.0-0.0", "time_elapsed": 796344, "key_press": -1, "type": "FIXATION", "trial_index": 156}, "uniqueid": "MTK1502:30JNVC0ORAR3FXW7O404HTA432FHQE", "dateTime": 1515953259891}, {"current_trial": 157, "trialdata": {"rt": -1, "trial_type": "single-stim", "word": "marsh", "stimulus": "<p id=\"stim\">MARSH</p>", "conditions": [24, 1600, "v", 24000], "internal_node_id": "0.0-112.0", "trial": 4, "time_elapsed": 797946, "serialpos": 0, "key_press": -1, "wordID": 873, "type": "PRES_VIS", "trial_index": 157}, "uniqueid": "MTK1502:30JNVC0ORAR3FXW7O404HTA432FHQE", "dateTime": 1515953261493}, {"current_trial": 158, "trialdata": {"rt": -1, "trial_type": "single-stim", "word": "friend", "stimulus": "<p id=\"stim\">FRIEND</p>", "conditions": [24, 1600, "v", 24000], "internal_node_id": "0.0-113.0", "trial": 4, "time_elapsed": 800460, "serialpos": 1, "key_press": -1, "wordID": 605, "type": "PRES_VIS", "trial_index": 158}, "uniqueid": "MTK1502:30JNVC0ORAR3FXW7O404HTA432FHQE", "dateTime": 1515953264007}, {"current_trial": 159, "trialdata": {"rt": -1, "trial_type": "single-stim", "word": "journal", "stimulus": "<p id=\"stim\">JOURNAL</p>", "conditions": [24, 1600, "v", 24000], "internal_node_id": "0.0-114.0", "trial": 4, "time_elapsed": 803033, "serialpos": 2, "key_press": -1, "wordID": 759, "type": "PRES_VIS", "trial_index": 159}, "uniqueid": "MTK1502:30JNVC0ORAR3FXW7O404HTA432FHQE", "dateTime": 1515953266581}, {"current_trial": 160, "trialdata": {"rt": -1, "trial_type": "single-stim", "word": "dashboard", "stimulus": "<p id=\"stim\">DASHBOARD</p>", "conditions": [24, 1600, "v", 24000], "internal_node_id": "0.0-115.0", "trial": 4, "time_elapsed": 805759, "serialpos": 3, "key_press": -1, "wordID": 440, "type": "PRES_VIS", "trial_index": 160}, "uniqueid": "MTK1502:30JNVC0ORAR3FXW7O404HTA432FHQE", "dateTime": 1515953269307}, {"current_trial": 161, "trialdata": {"rt": -1, "trial_type": "single-stim", "word": "lagoon", "stimulus": "<p id=\"stim\">LAGOON</p>", "conditions": [24, 1600, "v", 24000], "internal_node_id": "0.0-116.0", "trial": 4, "time_elapsed": 808267, "serialpos": 4, "key_press": -1, "wordID": 794, "type": "PRES_VIS", "trial_index": 161}, "uniqueid": "MTK1502:30JNVC0ORAR3FXW7O404HTA432FHQE", "dateTime": 1515953271814}, {"current_trial": 162, "trialdata": {"rt": -1, "trial_type": "single-stim", "word": "pastry", "stimulus": "<p id=\"stim\">PASTRY</p>", "conditions": [24, 1600, "v", 24000], "internal_node_id": "0.0-117.0", "trial": 4, "time_elapsed": 811013, "serialpos": 5, "key_press": -1, "wordID": 1021, "type": "PRES_VIS", "trial_index": 162}, "uniqueid": "MTK1502:30JNVC0ORAR3FXW7O404HTA432FHQE", "dateTime": 1515953274560}, {"current_trial": 163, "trialdata": {"rt": -1, "trial_type": "single-stim", "word": "highway", "stimulus": "<p id=\"stim\">HIGHWAY</p>", "conditions": [24, 1600, "v", 24000], "internal_node_id": "0.0-118.0", "trial": 4, "time_elapsed": 813751, "serialpos": 6, "key_press": -1, "wordID": 706, "type": "PRES_VIS", "trial_index": 163}, "uniqueid": "MTK1502:30JNVC0ORAR3FXW7O404HTA432FHQE", "dateTime": 1515953277298}, {"current_trial": 164, "trialdata": {"rt": -1, "trial_type": "single-stim", "word": "zipper", "stimulus": "<p id=\"stim\">ZIPPER</p>", "conditions": [24, 1600, "v", 24000], "internal_node_id": "0.0-119.0", "trial": 4, "time_elapsed": 816367, "serialpos": 7, "key_press": -1, "wordID": 1635, "type": "PRES_VIS", "trial_index": 164}, "uniqueid": "MTK1502:30JNVC0ORAR3FXW7O404HTA432FHQE", "dateTime": 1515953279915}, {"current_trial": 165, "trialdata": {"rt": -1, "trial_type": "single-stim", "word": "baby", "stimulus": "<p id=\"stim\">BABY</p>", "conditions": [24, 1600, "v", 24000], "internal_node_id": "0.0-120.0", "trial": 4, "time_elapsed": 818873, "serialpos": 8, "key_press": -1, "wordID": 63, "type": "PRES_VIS", "trial_index": 165}, "uniqueid": "MTK1502:30JNVC0ORAR3FXW7O404HTA432FHQE", "dateTime": 1515953282420}, {"current_trial": 166, "trialdata": {"rt": -1, "trial_type": "single-stim", "word": "puppy", "stimulus": "<p id=\"stim\">PUPPY</p>", "conditions": [24, 1600, "v", 24000], "internal_node_id": "0.0-121.0", "trial": 4, "time_elapsed": 821315, "serialpos": 9, "key_press": -1, "wordID": 1143, "type": "PRES_VIS", "trial_index": 166}, "uniqueid": "MTK1502:30JNVC0ORAR3FXW7O404HTA432FHQE", "dateTime": 1515953284862}, {"current_trial": 167, "trialdata": {"rt": -1, "trial_type": "single-stim", "word": "shortcake", "stimulus": "<p id=\"stim\">SHORTCAKE</p>", "conditions": [24, 1600, "v", 24000], "internal_node_id": "0.0-122.0", "trial": 4, "time_elapsed": 823806, "serialpos": 10, "key_press": -1, "wordID": 1291, "type": "PRES_VIS", "trial_index": 167}, "uniqueid": "MTK1502:30JNVC0ORAR3FXW7O404HTA432FHQE", "dateTime": 1515953287353}, {"current_trial": 168, "trialdata": {"rt": -1, "trial_type": "single-stim", "word": "lava", "stimulus": "<p id=\"stim\">LAVA</p>", "conditions": [24, 1600, "v", 24000], "internal_node_id": "0.0-123.0", "trial": 4, "time_elapsed": 826231, "serialpos": 11, "key_press": -1, "wordID": 803, "type": "PRES_VIS", "trial_index": 168}, "uniqueid": "MTK1502:30JNVC0ORAR3FXW7O404HTA432FHQE", "dateTime": 1515953289778}, {"current_trial": 169, "trialdata": {"rt": -1, "trial_type": "single-stim", "word": "citrus", "stimulus": "<p id=\"stim\">CITRUS</p>", "conditions": [24, 1600, "v", 24000], "internal_node_id": "0.0-124.0", "trial": 4, "time_elapsed": 829010, "serialpos": 12, "key_press": -1, "wordID": 312, "type": "PRES_VIS", "trial_index": 169}, "uniqueid": "MTK1502:30JNVC0ORAR3FXW7O404HTA432FHQE", "dateTime": 1515953292558}, {"current_trial": 170, "trialdata": {"rt": -1, "trial_type": "single-stim", "word": "marrow", "stimulus": "<p id=\"stim\">MARROW</p>", "conditions": [24, 1600, "v", 24000], "internal_node_id": "0.0-125.0", "trial": 4, "time_elapsed": 831694, "serialpos": 13, "key_press": -1, "wordID": 871, "type": "PRES_VIS", "trial_index": 170}, "uniqueid": "MTK1502:30JNVC0ORAR3FXW7O404HTA432FHQE", "dateTime": 1515953295242}, {"current_trial": 171, "trialdata": {"rt": -1, "trial_type": "single-stim", "word": "stream", "stimulus": "<p id=\"stim\">STREAM</p>", "conditions": [24, 1600, "v", 24000], "internal_node_id": "0.0-126.0", "trial": 4, "time_elapsed": 834212, "serialpos": 14, "key_press": -1, "wordID": 1391, "type": "PRES_VIS", "trial_index": 171}, "uniqueid": "MTK1502:30JNVC0ORAR3FXW7O404HTA432FHQE", "dateTime": 1515953297759}, {"current_trial": 172, "trialdata": {"rt": -1, "trial_type": "single-stim", "word": "scissors", "stimulus": "<p id=\"stim\">SCISSORS</p>", "conditions": [24, 1600, "v", 24000], "internal_node_id": "0.0-127.0", "trial": 4, "time_elapsed": 836901, "serialpos": 15, "key_press": -1, "wordID": 1249, "type": "PRES_VIS", "trial_index": 172}, "uniqueid": "MTK1502:30JNVC0ORAR3FXW7O404HTA432FHQE", "dateTime": 1515953300449}, {"current_trial": 173, "trialdata": {"rt": -1, "trial_type": "single-stim", "word": "tweezers", "stimulus": "<p id=\"stim\">TWEEZERS</p>", "conditions": [24, 1600, "v", 24000], "internal_node_id": "0.0-128.0", "trial": 4, "time_elapsed": 839333, "serialpos": 16, "key_press": -1, "wordID": 1525, "type": "PRES_VIS", "trial_index": 173}, "uniqueid": "MTK1502:30JNVC0ORAR3FXW7O404HTA432FHQE", "dateTime": 1515953302881}, {"current_trial": 174, "trialdata": {"rt": -1, "trial_type": "single-stim", "word": "trout", "stimulus": "<p id=\"stim\">TROUT</p>", "conditions": [24, 1600, "v", 24000], "internal_node_id": "0.0-129.0", "trial": 4, "time_elapsed": 841786, "serialpos": 17, "key_press": -1, "wordID": 1510, "type": "PRES_VIS", "trial_index": 174}, "uniqueid": "MTK1502:30JNVC0ORAR3FXW7O404HTA432FHQE", "dateTime": 1515953305333}, {"current_trial": 175, "trialdata": {"rt": -1, "trial_type": "single-stim", "word": "passage", "stimulus": "<p id=\"stim\">PASSAGE</p>", "conditions": [24, 1600, "v", 24000], "internal_node_id": "0.0-130.0", "trial": 4, "time_elapsed": 844535, "serialpos": 18, "key_press": -1, "wordID": 1018, "type": "PRES_VIS", "trial_index": 175}, "uniqueid": "MTK1502:30JNVC0ORAR3FXW7O404HTA432FHQE", "dateTime": 1515953308083}, {"current_trial": 176, "trialdata": {"rt": -1, "trial_type": "single-stim", "word": "label", "stimulus": "<p id=\"stim\">LABEL</p>", "conditions": [24, 1600, "v", 24000], "internal_node_id": "0.0-131.0", "trial": 4, "time_elapsed": 847025, "serialpos": 19, "key_press": -1, "wordID": 789, "type": "PRES_VIS", "trial_index": 176}, "uniqueid": "MTK1502:30JNVC0ORAR3FXW7O404HTA432FHQE", "dateTime": 1515953310572}, {"current_trial": 177, "trialdata": {"rt": -1, "trial_type": "single-stim", "word": "crib", "stimulus": "<p id=\"stim\">CRIB</p>", "conditions": [24, 1600, "v", 24000], "internal_node_id": "0.0-132.0", "trial": 4, "time_elapsed": 849811, "serialpos": 20, "key_press": -1, "wordID": 406, "type": "PRES_VIS", "trial_index": 177}, "uniqueid": "MTK1502:30JNVC0ORAR3FXW7O404HTA432FHQE", "dateTime": 1515953313358}, {"current_trial": 178, "trialdata": {"rt": -1, "trial_type": "single-stim", "word": "fruit", "stimulus": "<p id=\"stim\">FRUIT</p>", "conditions": [24, 1600, "v", 24000], "internal_node_id": "0.0-133.0", "trial": 4, "time_elapsed": 852428, "serialpos": 21, "key_press": -1, "wordID": 609, "type": "PRES_VIS", "trial_index": 178}, "uniqueid": "MTK1502:30JNVC0ORAR3FXW7O404HTA432FHQE", "dateTime": 1515953315975}, {"current_trial": 179, "trialdata": {"rt": -1, "trial_type": "single-stim", "word": "agent", "stimulus": "<p id=\"stim\">AGENT</p>", "conditions": [24, 1600, "v", 24000], "internal_node_id": "0.0-134.0", "trial": 4, "time_elapsed": 854862, "serialpos": 22, "key_press": -1, "wordID": 9, "type": "PRES_VIS", "trial_index": 179}, "uniqueid": "MTK1502:30JNVC0ORAR3FXW7O404HTA432FHQE", "dateTime": 1515953318409}, {"current_trial": 180, "trialdata": {"rt": -1, "trial_type": "single-stim", "word": "sphinx", "stimulus": "<p id=\"stim\">SPHINX</p>", "conditions": [24, 1600, "v", 24000], "internal_node_id": "0.0-135.0", "trial": 4, "time_elapsed": 857602, "serialpos": 23, "key_press": -1, "wordID": 1348, "type": "PRES_VIS", "trial_index": 180}, "uniqueid": "MTK1502:30JNVC0ORAR3FXW7O404HTA432FHQE", "dateTime": 1515953321149}, {"current_trial": 181, "trialdata": {"rt": -1, "trial_type": "single-stim", "stimulus": "", "internal_node_id": "0.0-136.0-0.0", "time_elapsed": 860024, "key_press": -1, "type": "PRE_RECALL_DELAY", "trial_index": 181}, "uniqueid": "MTK1502:30JNVC0ORAR3FXW7O404HTA432FHQE", "dateTime": 1515953323572}, {"current_trial": 182, "trialdata": {"rt": -1000, "trial_type": "single-audio", "stimulus": "/static/audio/400Hz.wav", "internal_node_id": "0.0-137.0", "time_elapsed": 860528, "key_press": -1, "type": "PRE_RECALL_ALERT", "trial_index": 182}, "uniqueid": "MTK1502:30JNVC0ORAR3FXW7O404HTA432FHQE", "dateTime": 1515953324075}, {"current_trial": 183, "trialdata": {"rt": [3245, 7800, 11766, 14061, 17414, 19850, 29979, 58270], "recwords": ["trout", "passage", "label", "print", "fruit", "baby", "sphinx", "journal"], "key_times": [1128, 1460, 1880, 2046, 2212, 2523, 2749, 3245, 3640, 3807, 4101, 4371, 4701, 4827, 5314, 5467, 5706, 6390, 6611, 7184, 7341, 7800, 8190, 8353, 8594, 9093, 9260, 9527, 10014, 10622, 10888, 11149, 11350, 11766, 12204, 12454, 12942, 13296, 13606, 14061, 14602, 15117, 15727, 16448, 16800, 17414, 17940, 18126, 18260, 18693, 19226, 19476, 19850, 26230, 26451, 26991, 27467, 27624, 27852, 28270, 28486, 29979, 53747, 54016, 54351, 54560, 54879, 55042, 55438, 55626, 55979, 56245, 56507, 56653, 57279, 57468, 57612, 58270, 58672, 59092, 59510, 59650, 59849, 59996], "trial_type": "free-recall", "conditions": [24, 1600, "v", 24000], "internal_node_id": "0.0-138.0-0.0", "key_presses": [84, 73, 8, 82, 79, 85, 84, 13, 80, 65, 83, 83, 65, 72, 8, 71, 82, 8, 52, 8, 69, 13, 76, 65, 86, 8, 66, 76, 82, 8, 8, 69, 76, 13, 80, 82, 73, 78, 84, 13, 70, 82, 85, 73, 84, 13, 66, 65, 66, 72, 8, 89, 13, 83, 80, 71, 8, 72, 73, 78, 88, 13, 71, 73, 8, 8, 72, 79, 8, 8, 74, 79, 85, 82, 78, 65, 76, 13, 70, 82, 73, 69, 78, 68], "trial": 4, "time_elapsed": 920536, "type": "FREE_RECALL", "trial_index": 183}, "uniqueid": "MTK1502:30JNVC0ORAR3FXW7O404HTA432FHQE", "dateTime": 1515953384088}, {"current_trial": 184, "trialdata": {"rt": 1719, "trial_type": "text", "internal_node_id": "0.0-139.0", "time_elapsed": 924263, "key_press": 72, "type": "INSTRUCTIONS", "trial_index": 184}, "uniqueid": "MTK1502:30JNVC0ORAR3FXW7O404HTA432FHQE", "dateTime": 1515953387810}, {"current_trial": 185, "trialdata": {"rt": [5545, 11439], "trial_type": "math-distractor", "key_times": [3188, 3498, 4011, 4245, 4677, 5013, 5545, 7614, 7856, 8484, 8827, 9456, 9726, 10420, 10948, 11439], "responses": ["18", "10"], "num2": [9, 2, 1], "num3": [4, 4, 6], "conditions": [24, 800, "v", 12000], "internal_node_id": "0.0-140.0", "key_presses": [49, 57, 8, 55, 8, 56, 13, 49, 57, 8, 79, 8, 80, 8, 48, 13], "trial": 5, "time_elapsed": 938269, "type": "DISTRACTOR", "trial_index": 185, "num1": [5, 4, 9]}, "uniqueid": "MTK1502:30JNVC0ORAR3FXW7O404HTA432FHQE", "dateTime": 1515953401816}, {"current_trial": 186, "trialdata": {"rt": -1, "trial_type": "single-stim", "stimulus": "<p id=\"stim\">10</p>", "internal_node_id": "0.0-141.0-0.0", "time_elapsed": 941296, "key_press": -1, "trial_index": 186}, "uniqueid": "MTK1502:30JNVC0ORAR3FXW7O404HTA432FHQE", "dateTime": 1515953404843}, {"current_trial": 187, "trialdata": {"rt": -1, "trial_type": "single-stim", "stimulus": "<p id=\"stim\">9</p>", "internal_node_id": "0.0-141.0-1.0", "time_elapsed": 942298, "key_press": -1, "trial_index": 187}, "uniqueid": "MTK1502:30JNVC0ORAR3FXW7O404HTA432FHQE", "dateTime": 1515953405846}, {"current_trial": 188, "trialdata": {"rt": -1, "trial_type": "single-stim", "stimulus": "<p id=\"stim\">8</p>", "internal_node_id": "0.0-141.0-2.0", "time_elapsed": 943301, "key_press": -1, "trial_index": 188}, "uniqueid": "MTK1502:30JNVC0ORAR3FXW7O404HTA432FHQE", "dateTime": 1515953406848}, {"current_trial": 189, "trialdata": {"rt": -1, "trial_type": "single-stim", "stimulus": "<p id=\"stim\">7</p>", "internal_node_id": "0.0-141.0-3.0", "time_elapsed": 944303, "key_press": -1, "trial_index": 189}, "uniqueid": "MTK1502:30JNVC0ORAR3FXW7O404HTA432FHQE", "dateTime": 1515953407850}, {"current_trial": 190, "trialdata": {"rt": -1, "trial_type": "single-stim", "stimulus": "<p id=\"stim\">6</p>", "internal_node_id": "0.0-141.0-4.0", "time_elapsed": 945305, "key_press": -1, "trial_index": 190}, "uniqueid": "MTK1502:30JNVC0ORAR3FXW7O404HTA432FHQE", "dateTime": 1515953408852}, {"current_trial": 191, "trialdata": {"rt": -1, "trial_type": "single-stim", "stimulus": "<p id=\"stim\">5</p>", "internal_node_id": "0.0-141.0-5.0", "time_elapsed": 946307, "key_press": -1, "trial_index": 191}, "uniqueid": "MTK1502:30JNVC0ORAR3FXW7O404HTA432FHQE", "dateTime": 1515953409854}, {"current_trial": 192, "trialdata": {"rt": -1, "trial_type": "single-stim", "stimulus": "<p id=\"stim\">4</p>", "internal_node_id": "0.0-141.0-6.0", "time_elapsed": 947309, "key_press": -1, "trial_index": 192}, "uniqueid": "MTK1502:30JNVC0ORAR3FXW7O404HTA432FHQE", "dateTime": 1515953410857}, {"current_trial": 193, "trialdata": {"rt": -1, "trial_type": "single-stim", "stimulus": "<p id=\"stim\">3</p>", "internal_node_id": "0.0-141.0-7.0", "time_elapsed": 948312, "key_press": -1, "trial_index": 193}, "uniqueid": "MTK1502:30JNVC0ORAR3FXW7O404HTA432FHQE", "dateTime": 1515953411859}, {"current_trial": 194, "trialdata": {"rt": -1, "trial_type": "single-stim", "stimulus": "<p id=\"stim\">2</p>", "internal_node_id": "0.0-141.0-8.0", "time_elapsed": 949315, "key_press": -1, "trial_index": 194}, "uniqueid": "MTK1502:30JNVC0ORAR3FXW7O404HTA432FHQE", "dateTime": 1515953412863}, {"current_trial": 195, "trialdata": {"rt": -1, "trial_type": "single-stim", "stimulus": "<p id=\"stim\">1</p>", "internal_node_id": "0.0-141.0-9.0", "time_elapsed": 950320, "key_press": -1, "trial_index": 195}, "uniqueid": "MTK1502:30JNVC0ORAR3FXW7O404HTA432FHQE", "dateTime": 1515953413867}, {"current_trial": 196, "trialdata": {"rt": -1, "trial_type": "single-stim", "stimulus": "<p id=\"stim\">+</p>", "internal_node_id": "0.0-142.0-0.0", "time_elapsed": 951823, "key_press": -1, "type": "FIXATION", "trial_index": 196}, "uniqueid": "MTK1502:30JNVC0ORAR3FXW7O404HTA432FHQE", "dateTime": 1515953415370}, {"current_trial": 197, "trialdata": {"rt": -1, "trial_type": "single-stim", "word": "cellar", "stimulus": "<p id=\"stim\">CELLAR</p>", "conditions": [24, 800, "v", 12000], "internal_node_id": "0.0-143.0", "trial": 5, "time_elapsed": 952626, "serialpos": 0, "key_press": -1, "wordID": 266, "type": "PRES_VIS", "trial_index": 197}, "uniqueid": "MTK1502:30JNVC0ORAR3FXW7O404HTA432FHQE", "dateTime": 1515953416174}, {"current_trial": 198, "trialdata": {"rt": -1, "trial_type": "single-stim", "word": "supper", "stimulus": "<p id=\"stim\">SUPPER</p>", "conditions": [24, 800, "v", 12000], "internal_node_id": "0.0-144.0", "trial": 5, "time_elapsed": 954511, "serialpos": 1, "key_press": -1, "wordID": 1410, "type": "PRES_VIS", "trial_index": 198}, "uniqueid": "MTK1502:30JNVC0ORAR3FXW7O404HTA432FHQE", "dateTime": 1515953418058}, {"current_trial": 199, "trialdata": {"rt": -1, "trial_type": "single-stim", "word": "shirt", "stimulus": "<p id=\"stim\">SHIRT</p>", "conditions": [24, 800, "v", 12000], "internal_node_id": "0.0-145.0", "trial": 5, "time_elapsed": 956254, "serialpos": 2, "key_press": -1, "wordID": 1286, "type": "PRES_VIS", "trial_index": 199}, "uniqueid": "MTK1502:30JNVC0ORAR3FXW7O404HTA432FHQE", "dateTime": 1515953419802}, {"current_trial": 200, "trialdata": {"rt": -1, "trial_type": "single-stim", "word": "blouse", "stimulus": "<p id=\"stim\">BLOUSE</p>", "conditions": [24, 800, "v", 12000], "internal_node_id": "0.0-146.0", "trial": 5, "time_elapsed": 957920, "serialpos": 3, "key_press": -1, "wordID": 138, "type": "PRES_VIS", "trial_index": 200}, "uniqueid": "MTK1502:30JNVC0ORAR3FXW7O404HTA432FHQE", "dateTime": 1515953421467}, {"current_trial": 201, "trialdata": {"rt": -1, "trial_type": "single-stim", "word": "nurse", "stimulus": "<p id=\"stim\">NURSE</p>", "conditions": [24, 800, "v", 12000], "internal_node_id": "0.0-147.0", "trial": 5, "time_elapsed": 959788, "serialpos": 4, "key_press": -1, "wordID": 962, "type": "PRES_VIS", "trial_index": 201}, "uniqueid": "MTK1502:30JNVC0ORAR3FXW7O404HTA432FHQE", "dateTime": 1515953423335}, {"current_trial": 202, "trialdata": {"rt": -1, "trial_type": "single-stim", "word": "gymnast", "stimulus": "<p id=\"stim\">GYMNAST</p>", "conditions": [24, 800, "v", 12000], "internal_node_id": "0.0-148.0", "trial": 5, "time_elapsed": 961423, "serialpos": 5, "key_press": -1, "wordID": 674, "type": "PRES_VIS", "trial_index": 202}, "uniqueid": "MTK1502:30JNVC0ORAR3FXW7O404HTA432FHQE", "dateTime": 1515953424971}, {"current_trial": 203, "trialdata": {"rt": -1, "trial_type": "single-stim", "word": "sheriff", "stimulus": "<p id=\"stim\">SHERIFF</p>", "conditions": [24, 800, "v", 12000], "internal_node_id": "0.0-149.0", "trial": 5, "time_elapsed": 963112, "serialpos": 6, "key_press": -1, "wordID": 1283, "type": "PRES_VIS", "trial_index": 203}, "uniqueid": "MTK1502:30JNVC0ORAR3FXW7O404HTA432FHQE", "dateTime": 1515953426660}, {"current_trial": 204, "trialdata": {"rt": -1, "trial_type": "single-stim", "word": "balloon", "stimulus": "<p id=\"stim\">BALLOON</p>", "conditions": [24, 800, "v", 12000], "internal_node_id": "0.0-150.0", "trial": 5, "time_elapsed": 964869, "serialpos": 7, "key_press": -1, "wordID": 74, "type": "PRES_VIS", "trial_index": 204}, "uniqueid": "MTK1502:30JNVC0ORAR3FXW7O404HTA432FHQE", "dateTime": 1515953428416}, {"current_trial": 205, "trialdata": {"rt": -1, "trial_type": "single-stim", "word": "convict", "stimulus": "<p id=\"stim\">CONVICT</p>", "conditions": [24, 800, "v", 12000], "internal_node_id": "0.0-151.0", "trial": 5, "time_elapsed": 966482, "serialpos": 8, "key_press": -1, "wordID": 370, "type": "PRES_VIS", "trial_index": 205}, "uniqueid": "MTK1502:30JNVC0ORAR3FXW7O404HTA432FHQE", "dateTime": 1515953430030}, {"current_trial": 206, "trialdata": {"rt": -1, "trial_type": "single-stim", "word": "husband", "stimulus": "<p id=\"stim\">HUSBAND</p>", "conditions": [24, 800, "v", 12000], "internal_node_id": "0.0-152.0", "trial": 5, "time_elapsed": 968370, "serialpos": 9, "key_press": -1, "wordID": 727, "type": "PRES_VIS", "trial_index": 206}, "uniqueid": "MTK1502:30JNVC0ORAR3FXW7O404HTA432FHQE", "dateTime": 1515953431917}, {"current_trial": 207, "trialdata": {"rt": -1, "trial_type": "single-stim", "word": "basement", "stimulus": "<p id=\"stim\">BASEMENT</p>", "conditions": [24, 800, "v", 12000], "internal_node_id": "0.0-153.0", "trial": 5, "time_elapsed": 970158, "serialpos": 10, "key_press": -1, "wordID": 93, "type": "PRES_VIS", "trial_index": 207}, "uniqueid": "MTK1502:30JNVC0ORAR3FXW7O404HTA432FHQE", "dateTime": 1515953433705}, {"current_trial": 208, "trialdata": {"rt": -1, "trial_type": "single-stim", "word": "paper", "stimulus": "<p id=\"stim\">PAPER</p>", "conditions": [24, 800, "v", 12000], "internal_node_id": "0.0-154.0", "trial": 5, "time_elapsed": 971939, "serialpos": 11, "key_press": -1, "wordID": 1010, "type": "PRES_VIS", "trial_index": 208}, "uniqueid": "MTK1502:30JNVC0ORAR3FXW7O404HTA432FHQE", "dateTime": 1515953435486}, {"current_trial": 209, "trialdata": {"rt": -1, "trial_type": "single-stim", "word": "grave", "stimulus": "<p id=\"stim\">GRAVE</p>", "conditions": [24, 800, "v", 12000], "internal_node_id": "0.0-155.0", "trial": 5, "time_elapsed": 973824, "serialpos": 12, "key_press": -1, "wordID": 657, "type": "PRES_VIS", "trial_index": 209}, "uniqueid": "MTK1502:30JNVC0ORAR3FXW7O404HTA432FHQE", "dateTime": 1515953437371}, {"current_trial": 210, "trialdata": {"rt": -1, "trial_type": "single-stim", "word": "concert", "stimulus": "<p id=\"stim\">CONCERT</p>", "conditions": [24, 800, "v", 12000], "internal_node_id": "0.0-156.0", "trial": 5, "time_elapsed": 975544, "serialpos": 13, "key_press": -1, "wordID": 359, "type": "PRES_VIS", "trial_index": 210}, "uniqueid": "MTK1502:30JNVC0ORAR3FXW7O404HTA432FHQE", "dateTime": 1515953439092}, {"current_trial": 211, "trialdata": {"rt": -1, "trial_type": "single-stim", "word": "bacon", "stimulus": "<p id=\"stim\">BACON</p>", "conditions": [24, 800, "v", 12000], "internal_node_id": "0.0-157.0", "trial": 5, "time_elapsed": 977218, "serialpos": 14, "key_press": -1, "wordID": 66, "type": "PRES_VIS", "trial_index": 211}, "uniqueid": "MTK1502:30JNVC0ORAR3FXW7O404HTA432FHQE", "dateTime": 1515953440765}, {"current_trial": 212, "trialdata": {"rt": -1, "trial_type": "single-stim", "word": "kidney", "stimulus": "<p id=\"stim\">KIDNEY</p>", "conditions": [24, 800, "v", 12000], "internal_node_id": "0.0-158.0", "trial": 5, "time_elapsed": 978882, "serialpos": 15, "key_press": -1, "wordID": 775, "type": "PRES_VIS", "trial_index": 212}, "uniqueid": "MTK1502:30JNVC0ORAR3FXW7O404HTA432FHQE", "dateTime": 1515953442429}, {"current_trial": 213, "trialdata": {"rt": -1, "trial_type": "single-stim", "word": "hornet", "stimulus": "<p id=\"stim\">HORNET</p>", "conditions": [24, 800, "v", 12000], "internal_node_id": "0.0-159.0", "trial": 5, "time_elapsed": 980737, "serialpos": 16, "key_press": -1, "wordID": 717, "type": "PRES_VIS", "trial_index": 213}, "uniqueid": "MTK1502:30JNVC0ORAR3FXW7O404HTA432FHQE", "dateTime": 1515953444285}, {"current_trial": 214, "trialdata": {"rt": -1, "trial_type": "single-stim", "word": "wasp", "stimulus": "<p id=\"stim\">WASP</p>", "conditions": [24, 800, "v", 12000], "internal_node_id": "0.0-160.0", "trial": 5, "time_elapsed": 982676, "serialpos": 17, "key_press": -1, "wordID": 1592, "type": "PRES_VIS", "trial_index": 214}, "uniqueid": "MTK1502:30JNVC0ORAR3FXW7O404HTA432FHQE", "dateTime": 1515953446223}, {"current_trial": 215, "trialdata": {"rt": -1, "trial_type": "single-stim", "word": "sausage", "stimulus": "<p id=\"stim\">SAUSAGE</p>", "conditions": [24, 800, "v", 12000], "internal_node_id": "0.0-161.0", "trial": 5, "time_elapsed": 984342, "serialpos": 18, "key_press": -1, "wordID": 1237, "type": "PRES_VIS", "trial_index": 215}, "uniqueid": "MTK1502:30JNVC0ORAR3FXW7O404HTA432FHQE", "dateTime": 1515953447889}, {"current_trial": 216, "trialdata": {"rt": -1, "trial_type": "single-stim", "word": "mailbox", "stimulus": "<p id=\"stim\">MAILBOX</p>", "conditions": [24, 800, "v", 12000], "internal_node_id": "0.0-162.0", "trial": 5, "time_elapsed": 986137, "serialpos": 19, "key_press": -1, "wordID": 856, "type": "PRES_VIS", "trial_index": 216}, "uniqueid": "MTK1502:30JNVC0ORAR3FXW7O404HTA432FHQE", "dateTime": 1515953449684}, {"current_trial": 217, "trialdata": {"rt": -1, "trial_type": "single-stim", "word": "bullet", "stimulus": "<p id=\"stim\">BULLET</p>", "conditions": [24, 800, "v", 12000], "internal_node_id": "0.0-163.0", "trial": 5, "time_elapsed": 988092, "serialpos": 20, "key_press": -1, "wordID": 193, "type": "PRES_VIS", "trial_index": 217}, "uniqueid": "MTK1502:30JNVC0ORAR3FXW7O404HTA432FHQE", "dateTime": 1515953451639}, {"current_trial": 218, "trialdata": {"rt": -1, "trial_type": "single-stim", "word": "ankle", "stimulus": "<p id=\"stim\">ANKLE</p>", "conditions": [24, 800, "v", 12000], "internal_node_id": "0.0-164.0", "trial": 5, "time_elapsed": 989831, "serialpos": 21, "key_press": -1, "wordID": 23, "type": "PRES_VIS", "trial_index": 218}, "uniqueid": "MTK1502:30JNVC0ORAR3FXW7O404HTA432FHQE", "dateTime": 1515953453378}, {"current_trial": 219, "trialdata": {"rt": -1, "trial_type": "single-stim", "word": "actress", "stimulus": "<p id=\"stim\">ACTRESS</p>", "conditions": [24, 800, "v", 12000], "internal_node_id": "0.0-165.0", "trial": 5, "time_elapsed": 991664, "serialpos": 22, "key_press": -1, "wordID": 5, "type": "PRES_VIS", "trial_index": 219}, "uniqueid": "MTK1502:30JNVC0ORAR3FXW7O404HTA432FHQE", "dateTime": 1515953455211}, {"current_trial": 220, "trialdata": {"rt": -1, "trial_type": "single-stim", "word": "comet", "stimulus": "<p id=\"stim\">COMET</p>", "conditions": [24, 800, "v", 12000], "internal_node_id": "0.0-166.0", "trial": 5, "time_elapsed": 993315, "serialpos": 23, "key_press": -1, "wordID": 352, "type": "PRES_VIS", "trial_index": 220}, "uniqueid": "MTK1502:30JNVC0ORAR3FXW7O404HTA432FHQE", "dateTime": 1515953456862}, {"current_trial": 221, "trialdata": {"rt": -1, "trial_type": "single-stim", "stimulus": "", "internal_node_id": "0.0-167.0-0.0", "time_elapsed": 995805, "key_press": -1, "type": "PRE_RECALL_DELAY", "trial_index": 221}, "uniqueid": "MTK1502:30JNVC0ORAR3FXW7O404HTA432FHQE", "dateTime": 1515953459352}, {"current_trial": 222, "trialdata": {"rt": -1000, "trial_type": "single-audio", "stimulus": "/static/audio/400Hz.wav", "internal_node_id": "0.0-168.0", "time_elapsed": 996307, "key_press": -1, "type": "PRE_RECALL_ALERT", "trial_index": 222}, "uniqueid": "MTK1502:30JNVC0ORAR3FXW7O404HTA432FHQE", "dateTime": 1515953459854}, {"current_trial": 223, "trialdata": {"rt": [3002, 5054, 8253, 10867, 14441, 20945, 24799, 30382], "recwords": ["mailbox", "bullet", "ankle", "comet", "husband", "gymnast", "sherrif", "convict"], "key_times": [318, 479, 610, 812, 969, 1128, 1715, 2359, 2594, 3002, 3495, 3747, 4067, 4267, 4374, 4643, 5054, 6537, 6700, 7698, 7917, 8107, 8253, 9441, 9662, 9934, 10135, 10408, 10867, 12381, 12592, 12775, 13241, 13395, 13525, 14075, 14441, 18035, 18293, 18794, 19003, 19391, 20080, 20217, 20477, 20736, 20945, 21889, 22193, 22465, 23134, 23392, 23636, 23965, 24393, 24498, 24799, 25516, 25686, 26214, 28145, 29132, 29448, 29912, 30382], "trial_type": "free-recall", "conditions": [24, 800, "v", 12000], "internal_node_id": "0.0-169.0-0.0", "key_presses": [77, 65, 73, 76, 66, 79, 90, 8, 88, 13, 66, 85, 76, 76, 69, 84, 13, 65, 78, 75, 76, 69, 13, 67, 79, 77, 69, 84, 13, 72, 85, 83, 66, 65, 78, 68, 13, 71, 72, 8, 89, 77, 78, 65, 83, 84, 13, 83, 72, 69, 82, 82, 73, 71, 8, 70, 13, 67, 79, 78, 86, 73, 67, 84, 13], "trial": 5, "time_elapsed": 1056312, "type": "FREE_RECALL", "trial_index": 223}, "uniqueid": "MTK1502:30JNVC0ORAR3FXW7O404HTA432FHQE", "dateTime": 1515953519865}, {"current_trial": 224, "trialdata": {"rt": 1136, "trial_type": "text", "internal_node_id": "0.0-170.0", "time_elapsed": 1059458, "key_press": 70, "type": "INSTRUCTIONS", "trial_index": 224}, "uniqueid": "MTK1502:30JNVC0ORAR3FXW7O404HTA432FHQE", "dateTime": 1515953523005}, {"current_trial": 225, "trialdata": {"rt": [2259, 6351, 10268, 13517, 17681, 21067, 23838], "trial_type": "math-distractor", "key_times": [1605, 1799, 2259, 5055, 5574, 6351, 8561, 9050, 9728, 9885, 10268, 12727, 13102, 13517, 15401, 16031, 16527, 16783, 17681, 20037, 20754, 21067, 23385, 23838], "responses": ["10", "15", "16", "19", "17", "18", "9"], "num2": [7, 2, 4, 7, 8, 6, 1, 5], "num3": [1, 6, 7, 5, 1, 7, 7, 4], "conditions": [12, 800, "v", 24000], "internal_node_id": "0.0-171.0", "key_presses": [49, 48, 13, 49, 53, 13, 49, 55, 8, 54, 13, 49, 57, 13, 49, 56, 8, 55, 13, 49, 56, 13, 57, 13], "trial": 6, "time_elapsed": 1085465, "type": "DISTRACTOR", "trial_index": 225, "num1": [2, 7, 5, 7, 8, 5, 1, 6]}, "uniqueid": "MTK1502:30JNVC0ORAR3FXW7O404HTA432FHQE", "dateTime": 1515953549012}, {"current_trial": 226, "trialdata": {"rt": -1, "trial_type": "single-stim", "stimulus": "<p id=\"stim\">10</p>", "internal_node_id": "0.0-172.0-0.0", "time_elapsed": 1088473, "key_press": -1, "trial_index": 226}, "uniqueid": "MTK1502:30JNVC0ORAR3FXW7O404HTA432FHQE", "dateTime": 1515953552020}, {"current_trial": 227, "trialdata": {"rt": -1, "trial_type": "single-stim", "stimulus": "<p id=\"stim\">9</p>", "internal_node_id": "0.0-172.0-1.0", "time_elapsed": 1089478, "key_press": -1, "trial_index": 227}, "uniqueid": "MTK1502:30JNVC0ORAR3FXW7O404HTA432FHQE", "dateTime": 1515953553026}, {"current_trial": 228, "trialdata": {"rt": -1, "trial_type": "single-stim", "stimulus": "<p id=\"stim\">8</p>", "internal_node_id": "0.0-172.0-2.0", "time_elapsed": 1090482, "key_press": -1, "trial_index": 228}, "uniqueid": "MTK1502:30JNVC0ORAR3FXW7O404HTA432FHQE", "dateTime": 1515953554029}, {"current_trial": 229, "trialdata": {"rt": -1, "trial_type": "single-stim", "stimulus": "<p id=\"stim\">7</p>", "internal_node_id": "0.0-172.0-3.0", "time_elapsed": 1091484, "key_press": -1, "trial_index": 229}, "uniqueid": "MTK1502:30JNVC0ORAR3FXW7O404HTA432FHQE", "dateTime": 1515953555032}, {"current_trial": 230, "trialdata": {"rt": -1, "trial_type": "single-stim", "stimulus": "<p id=\"stim\">6</p>", "internal_node_id": "0.0-172.0-4.0", "time_elapsed": 1092487, "key_press": -1, "trial_index": 230}, "uniqueid": "MTK1502:30JNVC0ORAR3FXW7O404HTA432FHQE", "dateTime": 1515953556035}, {"current_trial": 231, "trialdata": {"rt": -1, "trial_type": "single-stim", "stimulus": "<p id=\"stim\">5</p>", "internal_node_id": "0.0-172.0-5.0", "time_elapsed": 1093489, "key_press": -1, "trial_index": 231}, "uniqueid": "MTK1502:30JNVC0ORAR3FXW7O404HTA432FHQE", "dateTime": 1515953557037}, {"current_trial": 232, "trialdata": {"rt": -1, "trial_type": "single-stim", "stimulus": "<p id=\"stim\">4</p>", "internal_node_id": "0.0-172.0-6.0", "time_elapsed": 1094491, "key_press": -1, "trial_index": 232}, "uniqueid": "MTK1502:30JNVC0ORAR3FXW7O404HTA432FHQE", "dateTime": 1515953558039}, {"current_trial": 233, "trialdata": {"rt": -1, "trial_type": "single-stim", "stimulus": "<p id=\"stim\">3</p>", "internal_node_id": "0.0-172.0-7.0", "time_elapsed": 1095493, "key_press": -1, "trial_index": 233}, "uniqueid": "MTK1502:30JNVC0ORAR3FXW7O404HTA432FHQE", "dateTime": 1515953559041}, {"current_trial": 234, "trialdata": {"rt": -1, "trial_type": "single-stim", "stimulus": "<p id=\"stim\">2</p>", "internal_node_id": "0.0-172.0-8.0", "time_elapsed": 1096495, "key_press": -1, "trial_index": 234}, "uniqueid": "MTK1502:30JNVC0ORAR3FXW7O404HTA432FHQE", "dateTime": 1515953560042}, {"current_trial": 235, "trialdata": {"rt": -1, "trial_type": "single-stim", "stimulus": "<p id=\"stim\">1</p>", "internal_node_id": "0.0-172.0-9.0", "time_elapsed": 1097563, "key_press": -1, "trial_index": 235}, "uniqueid": "MTK1502:30JNVC0ORAR3FXW7O404HTA432FHQE", "dateTime": 1515953561110}, {"current_trial": 236, "trialdata": {"rt": -1, "trial_type": "single-stim", "stimulus": "<p id=\"stim\">+</p>", "internal_node_id": "0.0-173.0-0.0", "time_elapsed": 1099065, "key_press": -1, "type": "FIXATION", "trial_index": 236}, "uniqueid": "MTK1502:30JNVC0ORAR3FXW7O404HTA432FHQE", "dateTime": 1515953562612}, {"current_trial": 237, "trialdata": {"rt": -1, "trial_type": "single-stim", "word": "church", "stimulus": "<p id=\"stim\">CHURCH</p>", "conditions": [12, 800, "v", 24000], "internal_node_id": "0.0-174.0", "trial": 6, "time_elapsed": 1099867, "serialpos": 0, "key_press": -1, "wordID": 306, "type": "PRES_VIS", "trial_index": 237}, "uniqueid": "MTK1502:30JNVC0ORAR3FXW7O404HTA432FHQE", "dateTime": 1515953563415}, {"current_trial": 238, "trialdata": {"rt": -1, "trial_type": "single-stim", "word": "pigeon", "stimulus": "<p id=\"stim\">PIGEON</p>", "conditions": [12, 800, "v", 24000], "internal_node_id": "0.0-175.0", "trial": 6, "time_elapsed": 1101856, "serialpos": 1, "key_press": -1, "wordID": 1064, "type": "PRES_VIS", "trial_index": 238}, "uniqueid": "MTK1502:30JNVC0ORAR3FXW7O404HTA432FHQE", "dateTime": 1515953565403}, {"current_trial": 239, "trialdata": {"rt": -1, "trial_type": "single-stim", "word": "fox", "stimulus": "<p id=\"stim\">FOX</p>", "conditions": [12, 800, "v", 24000], "internal_node_id": "0.0-176.0", "trial": 6, "time_elapsed": 1103855, "serialpos": 2, "key_press": -1, "wordID": 597, "type": "PRES_VIS", "trial_index": 239}, "uniqueid": "MTK1502:30JNVC0ORAR3FXW7O404HTA432FHQE", "dateTime": 1515953567402}, {"current_trial": 240, "trialdata": {"rt": -1, "trial_type": "single-stim", "word": "camel", "stimulus": "<p id=\"stim\">CAMEL</p>", "conditions": [12, 800, "v", 24000], "internal_node_id": "0.0-177.0", "trial": 6, "time_elapsed": 1105735, "serialpos": 3, "key_press": -1, "wordID": 222, "type": "PRES_VIS", "trial_index": 240}, "uniqueid": "MTK1502:30JNVC0ORAR3FXW7O404HTA432FHQE", "dateTime": 1515953569282}, {"current_trial": 241, "trialdata": {"rt": -1, "trial_type": "single-stim", "word": "expert", "stimulus": "<p id=\"stim\">EXPERT</p>", "conditions": [12, 800, "v", 24000], "internal_node_id": "0.0-178.0", "trial": 6, "time_elapsed": 1107407, "serialpos": 4, "key_press": -1, "wordID": 542, "type": "PRES_VIS", "trial_index": 241}, "uniqueid": "MTK1502:30JNVC0ORAR3FXW7O404HTA432FHQE", "dateTime": 1515953570955}, {"current_trial": 242, "trialdata": {"rt": -1, "trial_type": "single-stim", "word": "crayon", "stimulus": "<p id=\"stim\">CRAYON</p>", "conditions": [12, 800, "v", 24000], "internal_node_id": "0.0-179.0", "trial": 6, "time_elapsed": 1109399, "serialpos": 5, "key_press": -1, "wordID": 400, "type": "PRES_VIS", "trial_index": 242}, "uniqueid": "MTK1502:30JNVC0ORAR3FXW7O404HTA432FHQE", "dateTime": 1515953572946}, {"current_trial": 243, "trialdata": {"rt": -1, "trial_type": "single-stim", "word": "puddle", "stimulus": "<p id=\"stim\">PUDDLE</p>", "conditions": [12, 800, "v", 24000], "internal_node_id": "0.0-180.0", "trial": 6, "time_elapsed": 1111169, "serialpos": 6, "key_press": -1, "wordID": 1139, "type": "PRES_VIS", "trial_index": 243}, "uniqueid": "MTK1502:30JNVC0ORAR3FXW7O404HTA432FHQE", "dateTime": 1515953574716}, {"current_trial": 244, "trialdata": {"rt": -1, "trial_type": "single-stim", "word": "brick", "stimulus": "<p id=\"stim\">BRICK</p>", "conditions": [12, 800, "v", 24000], "internal_node_id": "0.0-181.0", "trial": 6, "time_elapsed": 1112814, "serialpos": 7, "key_press": -1, "wordID": 171, "type": "PRES_VIS", "trial_index": 244}, "uniqueid": "MTK1502:30JNVC0ORAR3FXW7O404HTA432FHQE", "dateTime": 1515953576361}, {"current_trial": 245, "trialdata": {"rt": -1, "trial_type": "single-stim", "word": "tourist", "stimulus": "<p id=\"stim\">TOURIST</p>", "conditions": [12, 800, "v", 24000], "internal_node_id": "0.0-182.0", "trial": 6, "time_elapsed": 1114448, "serialpos": 8, "key_press": -1, "wordID": 1487, "type": "PRES_VIS", "trial_index": 245}, "uniqueid": "MTK1502:30JNVC0ORAR3FXW7O404HTA432FHQE", "dateTime": 1515953577995}, {"current_trial": 246, "trialdata": {"rt": -1, "trial_type": "single-stim", "word": "partner", "stimulus": "<p id=\"stim\">PARTNER</p>", "conditions": [12, 800, "v", 24000], "internal_node_id": "0.0-183.0", "trial": 6, "time_elapsed": 1116110, "serialpos": 9, "key_press": -1, "wordID": 1016, "type": "PRES_VIS", "trial_index": 246}, "uniqueid": "MTK1502:30JNVC0ORAR3FXW7O404HTA432FHQE", "dateTime": 1515953579657}, {"current_trial": 247, "trialdata": {"rt": -1, "trial_type": "single-stim", "word": "ghetto", "stimulus": "<p id=\"stim\">GHETTO</p>", "conditions": [12, 800, "v", 24000], "internal_node_id": "0.0-184.0", "trial": 6, "time_elapsed": 1117913, "serialpos": 10, "key_press": -1, "wordID": 632, "type": "PRES_VIS", "trial_index": 247}, "uniqueid": "MTK1502:30JNVC0ORAR3FXW7O404HTA432FHQE", "dateTime": 1515953581460}, {"current_trial": 248, "trialdata": {"rt": -1, "trial_type": "single-stim", "word": "donkey", "stimulus": "<p id=\"stim\">DONKEY</p>", "conditions": [12, 800, "v", 24000], "internal_node_id": "0.0-185.0", "trial": 6, "time_elapsed": 1119790, "serialpos": 11, "key_press": -1, "wordID": 483, "type": "PRES_VIS", "trial_index": 248}, "uniqueid": "MTK1502:30JNVC0ORAR3FXW7O404HTA432FHQE", "dateTime": 1515953583337}, {"current_trial": 249, "trialdata": {"rt": -1, "trial_type": "single-stim", "stimulus": "", "internal_node_id": "0.0-186.0-0.0", "time_elapsed": 1122080, "key_press": -1, "type": "PRE_RECALL_DELAY", "trial_index": 249}, "uniqueid": "MTK1502:30JNVC0ORAR3FXW7O404HTA432FHQE", "dateTime": 1515953585627}, {"current_trial": 250, "trialdata": {"rt": -1000, "trial_type": "single-audio", "stimulus": "/static/audio/400Hz.wav", "internal_node_id": "0.0-187.0", "time_elapsed": 1122582, "key_press": -1, "type": "PRE_RECALL_ALERT", "trial_index": 250}, "uniqueid": "MTK1502:30JNVC0ORAR3FXW7O404HTA432FHQE", "dateTime": 1515953586130}, {"current_trial": 251, "trialdata": {"rt": [2951, 8710, 11601, 17695], "recwords": ["ghetto", "donkey", "church", "paddle"], "key_times": [1425, 1593, 1789, 2080, 2270, 2505, 2951, 4710, 5559, 5835, 6161, 6360, 6811, 7047, 7598, 7817, 8198, 8710, 952