{"assignmentId": "3LRKMWOKB6O8EZUGSFGALIG6L3CZ22", "workerId": "MTK1952", "questiondata": {"origin": "United States", "strat-rehearsal": "0", "marital": "Single", "education": "Associate degree", "ethnicity": "Not Hispanic", "color_depth": 24, "distracted": "No", "wrote-notes": "Yes", "strat-other": "None", "screen_width": 1920, "avail_screen_width": 1920, "avail_screen_height": 1050, "strat-image": "92", "language": "English", "gender": "Male", "age": "33", "gender_other": "", "race": ["White"], "strat-categorize": "19", "pixel_depth": 24, "strat-spatial": "0", "strat-story": "100", "race_other": "", "screen_height": 1080}, "bonus": 0, "hitId": "34OWYT6U3WOVW9SBNI216QPADL4I9L", "counterbalance": 1669, "useragent": "Mozilla/5.0 (Windows NT 10.0; Win64; x64) AppleWebKit/537.36 (KHTML, like Gecko) Chrome/63.0.3239.132 Safari/537.36", "eventdata": [{"eventtype": "initialized", "interval": 0, "value": null, "timestamp": 1516636250976}, {"eventtype": "window_resize", "interval": 0, "value": [1920, 1033], "timestamp": 1516636250976}, {"eventtype": "window_resize", "interval": 1520, "value": [1920, 999], "timestamp": 1516636252496}, {"eventtype": "focus", "interval": 998974, "value": "off", "timestamp": 1516637251470}, {"eventtype": "focus", "interval": 2775, "value": "on", "timestamp": 1516637254245}, {"eventtype": "focus", "interval": 142537, "value": "off", "timestamp": 1516637396782}, {"eventtype": "focus", "interval": 118222, "value": "on", "timestamp": 1516637515004}, {"eventtype": "focus", "interval": 114146, "value": "off", "timestamp": 1516637629150}, {"eventtype": "focus", "interval": 124487, "value": "on", "timestamp": 1516637753637}, {"eventtype": "focus", "interval": 9529, "value": "off", "timestamp": 1516637763166}, {"eventtype": "focus", "interval": 81, "value": "on", "timestamp": 1516637763247}, {"eventtype": "focus", "interval": 100511, "value": "off", "timestamp": 1516637863758}, {"eventtype": "focus", "interval": 59585, "value": "on", "timestamp": 1516637923343}, {"eventtype": "focus", "interval": 30271, "value": "off", "timestamp": 1516637953614}, {"eventtype": "focus", "interval": 291, "value": "on", "timestamp": 1516637953905}, {"eventtype": "focus", "interval": 80469, "value": "off", "timestamp": 1516638034374}, {"eventtype": "focus", "interval": 9423, "value": "on", "timestamp": 1516638043797}, {"eventtype": "focus", "interval": 1027, "value": "off", "timestamp": 1516638044824}, {"eventtype": "focus", "interval": 319987, "value": "on", "timestamp": 1516638364811}, {"eventtype": "focus", "interval": 279188, "value": "off", "timestamp": 1516638643999}, {"eventtype": "focus", "interval": 29303, "value": "on", "timestamp": 1516638673302}, {"eventtype": "focus", "interval": 128705, "value": "off", "timestamp": 1516638802007}, {"eventtype": "focus", "interval": 105255, "value": "on", "timestamp": 1516638907262}, {"eventtype": "focus", "interval": 239505, "value": "off", "timestamp": 1516639146767}, {"eventtype": "focus", "interval": 15166, "value": "on", "timestamp": 1516639161933}, {"eventtype": "focus", "interval": 274274, "value": "off", "timestamp": 1516639436207}, {"eventtype": "focus", "interval": 29757, "value": "on", "timestamp": 1516639465964}, {"eventtype": "focus", "interval": 159731, "value": "off", "timestamp": 1516639625695}, {"eventtype": "focus", "interval": 57582, "value": "on", "timestamp": 1516639683277}, {"eventtype": "focus", "interval": 2451, "value": "off", "timestamp": 1516639685728}, {"eventtype": "focus", "interval": 96530, "value": "on", "timestamp": 1516639782258}], "data": [{"current_trial": 0, "trialdata": {"rt": 5865, "trial_type": "text", "internal_node_id": "0.0-0.0", "time_elapsed": 5866, "key_press": 13, "type": "INSTRUCTIONS", "trial_index": 0}, "uniqueid": "MTK1952:3LRKMWOKB6O8EZUGSFGALIG6L3CZ22", "dateTime": 1516636257007}, {"current_trial": 1, "trialdata": {"rt": 5122, "trial_type": "text", "internal_node_id": "0.0-1.0", "time_elapsed": 10990, "key_press": 175, "type": "INSTRUCTIONS", "trial_index": 1}, "uniqueid": "MTK1952:3LRKMWOKB6O8EZUGSFGALIG6L3CZ22", "dateTime": 1516636262131}, {"current_trial": 2, "trialdata": {"rt": [17790], "trial_type": "audio-test", "responses": ["ocean"], "internal_node_id": "0.0-2.0", "time_elapsed": 28790, "type": "AUDIO_TEST", "trial_index": 2}, "uniqueid": "MTK1952:3LRKMWOKB6O8EZUGSFGALIG6L3CZ22", "dateTime": 1516636279930}, {"current_trial": 3, "trialdata": {"rt": [6338], "trial_type": "audio-test", "responses": ["crystal"], "internal_node_id": "0.0-3.0", "time_elapsed": 35132, "type": "AUDIO_TEST", "trial_index": 3}, "uniqueid": "MTK1952:3LRKMWOKB6O8EZUGSFGALIG6L3CZ22", "dateTime": 1516636286272}, {"current_trial": 4, "trialdata": {"rt": [5864], "trial_type": "audio-test", "responses": ["spice"], "internal_node_id": "0.0-4.0", "time_elapsed": 40999, "type": "AUDIO_TEST", "trial_index": 4}, "uniqueid": "MTK1952:3LRKMWOKB6O8EZUGSFGALIG6L3CZ22", "dateTime": 1516636292139}, {"current_trial": 5, "trialdata": {"rt": 23689, "trial_type": "survey-text", "responses": "{\"Q0\":\"12\",\"Q1\":\"8:30\",\"Q2\":\"5\"}", "internal_node_id": "0.0-5.0", "time_elapsed": 65441, "type": "SLEEP_SURVEY", "trial_index": 5}, "uniqueid": "MTK1952:3LRKMWOKB6O8EZUGSFGALIG6L3CZ22", "dateTime": 1516636316581}, {"current_trial": 6, "trialdata": {"rt": 45389, "trial_type": "text", "internal_node_id": "0.0-6.0", "time_elapsed": 111832, "key_press": 32, "type": "INSTRUCTIONS", "trial_index": 6}, "uniqueid": "MTK1952:3LRKMWOKB6O8EZUGSFGALIG6L3CZ22", "dateTime": 1516636362972}, {"current_trial": 7, "trialdata": {"rt": 19698, "trial_type": "text", "internal_node_id": "0.0-7.0", "time_elapsed": 132032, "key_press": 32, "type": "INSTRUCTIONS", "trial_index": 7}, "uniqueid": "MTK1952:3LRKMWOKB6O8EZUGSFGALIG6L3CZ22", "dateTime": 1516636383172}, {"current_trial": 8, "trialdata": {"rt": 14662, "trial_type": "text", "internal_node_id": "0.0-8.0", "time_elapsed": 147196, "key_press": 32, "type": "INSTRUCTIONS", "trial_index": 8}, "uniqueid": "MTK1952:3LRKMWOKB6O8EZUGSFGALIG6L3CZ22", "dateTime": 1516636398336}, {"current_trial": 9, "trialdata": {"rt": [2771, 5839, 8452, 11247, 12781, 15205, 17326], "trial_type": "math-distractor", "key_times": [2078, 2199, 2771, 5373, 5577, 5839, 7998, 8169, 8452, 10138, 10361, 11247, 12561, 12781, 14879, 15003, 15205, 17012, 17117, 17326], "responses": ["13", "17", "14", "14", "5", "13", "12"], "num2": [5, 9, 3, 8, 2, 5, 6, 2], "num3": [1, 5, 8, 2, 1, 5, 3, 7], "conditions": [18, 1200, "v", 18000], "internal_node_id": "0.0-9.0", "key_presses": [97, 99, 13, 97, 103, 13, 97, 100, 13, 97, 100, 13, 101, 13, 97, 99, 13, 97, 98, 13], "trial": 0, "time_elapsed": 166200, "type": "DISTRACTOR", "trial_index": 9, "num1": [7, 3, 3, 4, 2, 3, 3, 3]}, "uniqueid": "MTK1952:3LRKMWOKB6O8EZUGSFGALIG6L3CZ22", "dateTime": 1516636417340}, {"current_trial": 10, "trialdata": {"rt": -1, "trial_type": "single-stim", "stimulus": "<p id=\"stim\">10</p>", "internal_node_id": "0.0-10.0-0.0", "time_elapsed": 169202, "key_press": -1, "trial_index": 10}, "uniqueid": "MTK1952:3LRKMWOKB6O8EZUGSFGALIG6L3CZ22", "dateTime": 1516636420342}, {"current_trial": 11, "trialdata": {"rt": -1, "trial_type": "single-stim", "stimulus": "<p id=\"stim\">9</p>", "internal_node_id": "0.0-10.0-1.0", "time_elapsed": 170204, "key_press": -1, "trial_index": 11}, "uniqueid": "MTK1952:3LRKMWOKB6O8EZUGSFGALIG6L3CZ22", "dateTime": 1516636421344}, {"current_trial": 12, "trialdata": {"rt": -1, "trial_type": "single-stim", "stimulus": "<p id=\"stim\">8</p>", "internal_node_id": "0.0-10.0-2.0", "time_elapsed": 171206, "key_press": -1, "trial_index": 12}, "uniqueid": "MTK1952:3LRKMWOKB6O8EZUGSFGALIG6L3CZ22", "dateTime": 1516636422346}, {"current_trial": 13, "trialdata": {"rt": -1, "trial_type": "single-stim", "stimulus": "<p id=\"stim\">7</p>", "internal_node_id": "0.0-10.0-3.0", "time_elapsed": 172207, "key_press": -1, "trial_index": 13}, "uniqueid": "MTK1952:3LRKMWOKB6O8EZUGSFGALIG6L3CZ22", "dateTime": 1516636423347}, {"current_trial": 14, "trialdata": {"rt": -1, "trial_type": "single-stim", "stimulus": "<p id=\"stim\">6</p>", "internal_node_id": "0.0-10.0-4.0", "time_elapsed": 173208, "key_press": -1, "trial_index": 14}, "uniqueid": "MTK1952:3LRKMWOKB6O8EZUGSFGALIG6L3CZ22", "dateTime": 1516636424348}, {"current_trial": 15, "trialdata": {"rt": -1, "trial_type": "single-stim", "stimulus": "<p id=\"stim\">5</p>", "internal_node_id": "0.0-10.0-5.0", "time_elapsed": 174210, "key_press": -1, "trial_index": 15}, "uniqueid": "MTK1952:3LRKMWOKB6O8EZUGSFGALIG6L3CZ22", "dateTime": 1516636425350}, {"current_trial": 16, "trialdata": {"rt": -1, "trial_type": "single-stim", "stimulus": "<p id=\"stim\">4</p>", "internal_node_id": "0.0-10.0-6.0", "time_elapsed": 175211, "key_press": -1, "trial_index": 16}, "uniqueid": "MTK1952:3LRKMWOKB6O8EZUGSFGALIG6L3CZ22", "dateTime": 1516636426351}, {"current_trial": 17, "trialdata": {"rt": -1, "trial_type": "single-stim", "stimulus": "<p id=\"stim\">3</p>", "internal_node_id": "0.0-10.0-7.0", "time_elapsed": 176214, "key_press": -1, "trial_index": 17}, "uniqueid": "MTK1952:3LRKMWOKB6O8EZUGSFGALIG6L3CZ22", "dateTime": 1516636427354}, {"current_trial": 18, "trialdata": {"rt": -1, "trial_type": "single-stim", "stimulus": "<p id=\"stim\">2</p>", "internal_node_id": "0.0-10.0-8.0", "time_elapsed": 177215, "key_press": -1, "trial_index": 18}, "uniqueid": "MTK1952:3LRKMWOKB6O8EZUGSFGALIG6L3CZ22", "dateTime": 1516636428355}, {"current_trial": 19, "trialdata": {"rt": -1, "trial_type": "single-stim", "stimulus": "<p id=\"stim\">1</p>", "internal_node_id": "0.0-10.0-9.0", "time_elapsed": 178216, "key_press": -1, "trial_index": 19}, "uniqueid": "MTK1952:3LRKMWOKB6O8EZUGSFGALIG6L3CZ22", "dateTime": 1516636429356}, {"current_trial": 20, "trialdata": {"rt": -1, "trial_type": "single-stim", "stimulus": "<p id=\"stim\">+</p>", "internal_node_id": "0.0-11.0-0.0", "time_elapsed": 179717, "key_press": -1, "type": "FIXATION", "trial_index": 20}, "uniqueid": "MTK1952:3LRKMWOKB6O8EZUGSFGALIG6L3CZ22", "dateTime": 1516636430857}, {"current_trial": 21, "trialdata": {"rt": -1, "trial_type": "single-stim", "word": "guard", "stimulus": "<p id=\"stim\">GUARD</p>", "conditions": [18, 1200, "v", 18000], "internal_node_id": "0.0-12.0", "trial": 0, "time_elapsed": 180918, "serialpos": 0, "key_press": -1, "wordID": 666, "type": "PRES_VIS", "trial_index": 21}, "uniqueid": "MTK1952:3LRKMWOKB6O8EZUGSFGALIG6L3CZ22", "dateTime": 1516636432058}, {"current_trial": 22, "trialdata": {"rt": -1, "trial_type": "single-stim", "word": "flashlight", "stimulus": "<p id=\"stim\">FLASHLIGHT</p>", "conditions": [18, 1200, "v", 18000], "internal_node_id": "0.0-13.0", "trial": 0, "time_elapsed": 183031, "serialpos": 1, "key_press": -1, "wordID": 574, "type": "PRES_VIS", "trial_index": 22}, "uniqueid": "MTK1952:3LRKMWOKB6O8EZUGSFGALIG6L3CZ22", "dateTime": 1516636434171}, {"current_trial": 23, "trialdata": {"rt": -1, "trial_type": "single-stim", "word": "drawing", "stimulus": "<p id=\"stim\">DRAWING</p>", "conditions": [18, 1200, "v", 18000], "internal_node_id": "0.0-14.0", "trial": 0, "time_elapsed": 185214, "serialpos": 2, "key_press": -1, "wordID": 493, "type": "PRES_VIS", "trial_index": 23}, "uniqueid": "MTK1952:3LRKMWOKB6O8EZUGSFGALIG6L3CZ22", "dateTime": 1516636436354}, {"current_trial": 24, "trialdata": {"rt": -1, "trial_type": "single-stim", "word": "bike", "stimulus": "<p id=\"stim\">BIKE</p>", "conditions": [18, 1200, "v", 18000], "internal_node_id": "0.0-15.0", "trial": 0, "time_elapsed": 187450, "serialpos": 3, "key_press": -1, "wordID": 124, "type": "PRES_VIS", "trial_index": 24}, "uniqueid": "MTK1952:3LRKMWOKB6O8EZUGSFGALIG6L3CZ22", "dateTime": 1516636438590}, {"current_trial": 25, "trialdata": {"rt": -1, "trial_type": "single-stim", "word": "leopard", "stimulus": "<p id=\"stim\">LEOPARD</p>", "conditions": [18, 1200, "v", 18000], "internal_node_id": "0.0-16.0", "trial": 0, "time_elapsed": 189668, "serialpos": 4, "key_press": -1, "wordID": 811, "type": "PRES_VIS", "trial_index": 25}, "uniqueid": "MTK1952:3LRKMWOKB6O8EZUGSFGALIG6L3CZ22", "dateTime": 1516636440808}, {"current_trial": 26, "trialdata": {"rt": -1, "trial_type": "single-stim", "word": "truck", "stimulus": "<p id=\"stim\">TRUCK</p>", "conditions": [18, 1200, "v", 18000], "internal_node_id": "0.0-17.0", "trial": 0, "time_elapsed": 192029, "serialpos": 5, "key_press": -1, "wordID": 1511, "type": "PRES_VIS", "trial_index": 26}, "uniqueid": "MTK1952:3LRKMWOKB6O8EZUGSFGALIG6L3CZ22", "dateTime": 1516636443169}, {"current_trial": 27, "trialdata": {"rt": -1, "trial_type": "single-stim", "word": "convict", "stimulus": "<p id=\"stim\">CONVICT</p>", "conditions": [18, 1200, "v", 18000], "internal_node_id": "0.0-18.0", "trial": 0, "time_elapsed": 194122, "serialpos": 6, "key_press": -1, "wordID": 370, "type": "PRES_VIS", "trial_index": 27}, "uniqueid": "MTK1952:3LRKMWOKB6O8EZUGSFGALIG6L3CZ22", "dateTime": 1516636445262}, {"current_trial": 28, "trialdata": {"rt": -1, "trial_type": "single-stim", "word": "airplane", "stimulus": "<p id=\"stim\">AIRPLANE</p>", "conditions": [18, 1200, "v", 18000], "internal_node_id": "0.0-19.0", "trial": 0, "time_elapsed": 196212, "serialpos": 7, "key_press": -1, "wordID": 11, "type": "PRES_VIS", "trial_index": 28}, "uniqueid": "MTK1952:3LRKMWOKB6O8EZUGSFGALIG6L3CZ22", "dateTime": 1516636447352}, {"current_trial": 29, "trialdata": {"rt": -1, "trial_type": "single-stim", "word": "nightgown", "stimulus": "<p id=\"stim\">NIGHTGOWN</p>", "conditions": [18, 1200, "v", 18000], "internal_node_id": "0.0-20.0", "trial": 0, "time_elapsed": 198342, "serialpos": 8, "key_press": -1, "wordID": 952, "type": "PRES_VIS", "trial_index": 29}, "uniqueid": "MTK1952:3LRKMWOKB6O8EZUGSFGALIG6L3CZ22", "dateTime": 1516636449482}, {"current_trial": 30, "trialdata": {"rt": -1, "trial_type": "single-stim", "word": "candy", "stimulus": "<p id=\"stim\">CANDY</p>", "conditions": [18, 1200, "v", 18000], "internal_node_id": "0.0-21.0", "trial": 0, "time_elapsed": 200389, "serialpos": 9, "key_press": -1, "wordID": 229, "type": "PRES_VIS", "trial_index": 30}, "uniqueid": "MTK1952:3LRKMWOKB6O8EZUGSFGALIG6L3CZ22", "dateTime": 1516636451529}, {"current_trial": 31, "trialdata": {"rt": -1, "trial_type": "single-stim", "word": "taxi", "stimulus": "<p id=\"stim\">TAXI</p>", "conditions": [18, 1200, "v", 18000], "internal_node_id": "0.0-22.0", "trial": 0, "time_elapsed": 202731, "serialpos": 10, "key_press": -1, "wordID": 1437, "type": "PRES_VIS", "trial_index": 31}, "uniqueid": "MTK1952:3LRKMWOKB6O8EZUGSFGALIG6L3CZ22", "dateTime": 1516636453871}, {"current_trial": 32, "trialdata": {"rt": -1, "trial_type": "single-stim", "word": "drink", "stimulus": "<p id=\"stim\">DRINK</p>", "conditions": [18, 1200, "v", 18000], "internal_node_id": "0.0-23.0", "trial": 0, "time_elapsed": 205005, "serialpos": 11, "key_press": -1, "wordID": 497, "type": "PRES_VIS", "trial_index": 32}, "uniqueid": "MTK1952:3LRKMWOKB6O8EZUGSFGALIG6L3CZ22", "dateTime": 1516636456145}, {"current_trial": 33, "trialdata": {"rt": -1, "trial_type": "single-stim", "word": "item", "stimulus": "<p id=\"stim\">ITEM</p>", "conditions": [18, 1200, "v", 18000], "internal_node_id": "0.0-24.0", "trial": 0, "time_elapsed": 207223, "serialpos": 12, "key_press": -1, "wordID": 745, "type": "PRES_VIS", "trial_index": 33}, "uniqueid": "MTK1952:3LRKMWOKB6O8EZUGSFGALIG6L3CZ22", "dateTime": 1516636458363}, {"current_trial": 34, "trialdata": {"rt": -1, "trial_type": "single-stim", "word": "stamp", "stimulus": "<p id=\"stim\">STAMP</p>", "conditions": [18, 1200, "v", 18000], "internal_node_id": "0.0-25.0", "trial": 0, "time_elapsed": 209232, "serialpos": 13, "key_press": -1, "wordID": 1369, "type": "PRES_VIS", "trial_index": 34}, "uniqueid": "MTK1952:3LRKMWOKB6O8EZUGSFGALIG6L3CZ22", "dateTime": 1516636460372}, {"current_trial": 35, "trialdata": {"rt": -1, "trial_type": "single-stim", "word": "turtle", "stimulus": "<p id=\"stim\">TURTLE</p>", "conditions": [18, 1200, "v", 18000], "internal_node_id": "0.0-26.0", "trial": 0, "time_elapsed": 211280, "serialpos": 14, "key_press": -1, "wordID": 1521, "type": "PRES_VIS", "trial_index": 35}, "uniqueid": "MTK1952:3LRKMWOKB6O8EZUGSFGALIG6L3CZ22", "dateTime": 1516636462420}, {"current_trial": 36, "trialdata": {"rt": -1, "trial_type": "single-stim", "word": "dorm", "stimulus": "<p id=\"stim\">DORM</p>", "conditions": [18, 1200, "v", 18000], "internal_node_id": "0.0-27.0", "trial": 0, "time_elapsed": 213347, "serialpos": 15, "key_press": -1, "wordID": 487, "type": "PRES_VIS", "trial_index": 36}, "uniqueid": "MTK1952:3LRKMWOKB6O8EZUGSFGALIG6L3CZ22", "dateTime": 1516636464487}, {"current_trial": 37, "trialdata": {"rt": -1, "trial_type": "single-stim", "word": "witness", "stimulus": "<p id=\"stim\">WITNESS</p>", "conditions": [18, 1200, "v", 18000], "internal_node_id": "0.0-28.0", "trial": 0, "time_elapsed": 215377, "serialpos": 16, "key_press": -1, "wordID": 1617, "type": "PRES_VIS", "trial_index": 37}, "uniqueid": "MTK1952:3LRKMWOKB6O8EZUGSFGALIG6L3CZ22", "dateTime": 1516636466517}, {"current_trial": 38, "trialdata": {"rt": -1, "trial_type": "single-stim", "word": "pimple", "stimulus": "<p id=\"stim\">PIMPLE</p>", "conditions": [18, 1200, "v", 18000], "internal_node_id": "0.0-29.0", "trial": 0, "time_elapsed": 217444, "serialpos": 17, "key_press": -1, "wordID": 1070, "type": "PRES_VIS", "trial_index": 38}, "uniqueid": "MTK1952:3LRKMWOKB6O8EZUGSFGALIG6L3CZ22", "dateTime": 1516636468584}, {"current_trial": 39, "trialdata": {"rt": -1, "trial_type": "single-stim", "stimulus": "", "internal_node_id": "0.0-30.0-0.0", "time_elapsed": 219860, "key_press": -1, "type": "PRE_RECALL_DELAY", "trial_index": 39}, "uniqueid": "MTK1952:3LRKMWOKB6O8EZUGSFGALIG6L3CZ22", "dateTime": 1516636471000}, {"current_trial": 40, "trialdata": {"rt": -1000, "trial_type": "single-audio", "stimulus": "/static/audio/400Hz.wav", "internal_node_id": "0.0-31.0", "time_elapsed": 220361, "key_press": -1, "type": "PRE_RECALL_ALERT", "trial_index": 40}, "uniqueid": "MTK1952:3LRKMWOKB6O8EZUGSFGALIG6L3CZ22", "dateTime": 1516636471501}, {"current_trial": 41, "trialdata": {"rt": [3560, 6561, 8545, 11329, 13795, 15833, 17710, 19148, 20924, 23220, 26674, 29030, 31909, 33956, 35853, 44628], "recwords": ["guard", "flashlight", "drawing", "bike", "leopard", "truck", "airplane", "convict", "drink", "object", "stamp", "turtle", "dorm", "witness", "pimple", "taxi"], "key_times": [1926, 2040, 2271, 2363, 2608, 3560, 4641, 4783, 4929, 5097, 5243, 5435, 5674, 5866, 6135, 6314, 6561, 7242, 7413, 7558, 7755, 7947, 8053, 8191, 8545, 8885, 9057, 9308, 9562, 11329, 11590, 11727, 12162, 12401, 12614, 12879, 13530, 13795, 14772, 15024, 15139, 15412, 15548, 15833, 16276, 16435, 16627, 16807, 16925, 17158, 17334, 17560, 17710, 17957, 18056, 18257, 18423, 18594, 18700, 18960, 19148, 19498, 19707, 19811, 20037, 20155, 20924, 21494, 21763, 21946, 22070, 22217, 22488, 23220, 23476, 23634, 23746, 23884, 24228, 24500, 25544, 26674, 27614, 27772, 27959, 28390, 28523, 28677, 29030, 29525, 29666, 29862, 30003, 31909, 32170, 32328, 32485, 32583, 32707, 32907, 33051, 33956, 34479, 34785, 35092, 35387, 35488, 35682, 35853, 43126, 43246, 43649, 43842, 44628], "trial_type": "free-recall", "conditions": [18, 1200, "v", 18000], "internal_node_id": "0.0-32.0-0.0", "key_presses": [71, 85, 65, 82, 68, 13, 70, 76, 65, 83, 72, 76, 73, 71, 72, 84, 13, 68, 82, 65, 87, 73, 78, 71, 13, 66, 73, 75, 69, 13, 76, 69, 79, 80, 65, 82, 68, 13, 84, 82, 85, 67, 75, 13, 65, 73, 82, 80, 76, 65, 78, 69, 13, 67, 79, 78, 86, 73, 67, 84, 13, 68, 82, 73, 78, 75, 13, 79, 66, 74, 69, 67, 84, 13, 83, 84, 65, 78, 8, 77, 80, 13, 84, 85, 82, 84, 76, 69, 13, 68, 79, 82, 77, 13, 87, 73, 84, 78, 69, 83, 83, 13, 80, 73, 77, 80, 76, 69, 13, 84, 65, 88, 73, 13], "trial": 0, "time_elapsed": 280364, "type": "FREE_RECALL", "trial_index": 41}, "uniqueid": "MTK1952:3LRKMWOKB6O8EZUGSFGALIG6L3CZ22", "dateTime": 1516636531505}, {"current_trial": 42, "trialdata": {"rt": 1237, "trial_type": "text", "internal_node_id": "0.0-33.0", "time_elapsed": 283603, "key_press": 32, "type": "INSTRUCTIONS", "trial_index": 42}, "uniqueid": "MTK1952:3LRKMWOKB6O8EZUGSFGALIG6L3CZ22", "dateTime": 1516636534743}, {"current_trial": 43, "trialdata": {"rt": [1861, 4368, 6561, 9514, 11952, 14931, 17429], "trial_type": "math-distractor", "key_times": [1484, 1658, 1861, 3903, 4368, 6341, 6561, 9112, 9321, 9514, 11497, 11722, 11952, 14638, 14809, 14931, 17094, 17290, 17429], "responses": ["14", "8", "9", "17", "20", "11", "25"], "num2": [4, 1, 2, 2, 4, 6, 7, 5], "num3": [4, 2, 6, 8, 8, 2, 8, 9], "conditions": [18, 1200, "v", 18000], "internal_node_id": "0.0-34.0", "key_presses": [97, 100, 13, 104, 13, 105, 13, 97, 103, 13, 98, 96, 13, 97, 97, 13, 98, 101, 13], "trial": 1, "time_elapsed": 303607, "type": "DISTRACTOR", "trial_index": 43, "num1": [6, 5, 1, 7, 8, 3, 8, 7]}, "uniqueid": "MTK1952:3LRKMWOKB6O8EZUGSFGALIG6L3CZ22", "dateTime": 1516636554747}, {"current_trial": 44, "trialdata": {"rt": -1, "trial_type": "single-stim", "stimulus": "<p id=\"stim\">10</p>", "internal_node_id": "0.0-35.0-0.0", "time_elapsed": 306610, "key_press": -1, "trial_index": 44}, "uniqueid": "MTK1952:3LRKMWOKB6O8EZUGSFGALIG6L3CZ22", "dateTime": 1516636557750}, {"current_trial": 45, "trialdata": {"rt": -1, "trial_type": "single-stim", "stimulus": "<p id=\"stim\">9</p>", "internal_node_id": "0.0-35.0-1.0", "time_elapsed": 307611, "key_press": -1, "trial_index": 45}, "uniqueid": "MTK1952:3LRKMWOKB6O8EZUGSFGALIG6L3CZ22", "dateTime": 1516636558751}, {"current_trial": 46, "trialdata": {"rt": -1, "trial_type": "single-stim", "stimulus": "<p id=\"stim\">8</p>", "internal_node_id": "0.0-35.0-2.0", "time_elapsed": 308613, "key_press": -1, "trial_index": 46}, "uniqueid": "MTK1952:3LRKMWOKB6O8EZUGSFGALIG6L3CZ22", "dateTime": 1516636559753}, {"current_trial": 47, "trialdata": {"rt": -1, "trial_type": "single-stim", "stimulus": "<p id=\"stim\">7</p>", "internal_node_id": "0.0-35.0-3.0", "time_elapsed": 309614, "key_press": -1, "trial_index": 47}, "uniqueid": "MTK1952:3LRKMWOKB6O8EZUGSFGALIG6L3CZ22", "dateTime": 1516636560754}, {"current_trial": 48, "trialdata": {"rt": -1, "trial_type": "single-stim", "stimulus": "<p id=\"stim\">6</p>", "internal_node_id": "0.0-35.0-4.0", "time_elapsed": 310616, "key_press": -1, "trial_index": 48}, "uniqueid": "MTK1952:3LRKMWOKB6O8EZUGSFGALIG6L3CZ22", "dateTime": 1516636561756}, {"current_trial": 49, "trialdata": {"rt": -1, "trial_type": "single-stim", "stimulus": "<p id=\"stim\">5</p>", "internal_node_id": "0.0-35.0-5.0", "time_elapsed": 311617, "key_press": -1, "trial_index": 49}, "uniqueid": "MTK1952:3LRKMWOKB6O8EZUGSFGALIG6L3CZ22", "dateTime": 1516636562757}, {"current_trial": 50, "trialdata": {"rt": -1, "trial_type": "single-stim", "stimulus": "<p id=\"stim\">4</p>", "internal_node_id": "0.0-35.0-6.0", "time_elapsed": 312619, "key_press": -1, "trial_index": 50}, "uniqueid": "MTK1952:3LRKMWOKB6O8EZUGSFGALIG6L3CZ22", "dateTime": 1516636563759}, {"current_trial": 51, "trialdata": {"rt": -1, "trial_type": "single-stim", "stimulus": "<p id=\"stim\">3</p>", "internal_node_id": "0.0-35.0-7.0", "time_elapsed": 313620, "key_press": -1, "trial_index": 51}, "uniqueid": "MTK1952:3LRKMWOKB6O8EZUGSFGALIG6L3CZ22", "dateTime": 1516636564760}, {"current_trial": 52, "trialdata": {"rt": -1, "trial_type": "single-stim", "stimulus": "<p id=\"stim\">2</p>", "internal_node_id": "0.0-35.0-8.0", "time_elapsed": 314621, "key_press": -1, "trial_index": 52}, "uniqueid": "MTK1952:3LRKMWOKB6O8EZUGSFGALIG6L3CZ22", "dateTime": 1516636565761}, {"current_trial": 53, "trialdata": {"rt": -1, "trial_type": "single-stim", "stimulus": "<p id=\"stim\">1</p>", "internal_node_id": "0.0-35.0-9.0", "time_elapsed": 315623, "key_press": -1, "trial_index": 53}, "uniqueid": "MTK1952:3LRKMWOKB6O8EZUGSFGALIG6L3CZ22", "dateTime": 1516636566763}, {"current_trial": 54, "trialdata": {"rt": -1, "trial_type": "single-stim", "stimulus": "<p id=\"stim\">+</p>", "internal_node_id": "0.0-36.0-0.0", "time_elapsed": 317124, "key_press": -1, "type": "FIXATION", "trial_index": 54}, "uniqueid": "MTK1952:3LRKMWOKB6O8EZUGSFGALIG6L3CZ22", "dateTime": 1516636568264}, {"current_trial": 55, "trialdata": {"rt": -1, "trial_type": "single-stim", "word": "airport", "stimulus": "<p id=\"stim\">AIRPORT</p>", "conditions": [18, 1200, "v", 18000], "internal_node_id": "0.0-37.0", "trial": 1, "time_elapsed": 318325, "serialpos": 0, "key_press": -1, "wordID": 12, "type": "PRES_VIS", "trial_index": 55}, "uniqueid": "MTK1952:3LRKMWOKB6O8EZUGSFGALIG6L3CZ22", "dateTime": 1516636569465}, {"current_trial": 56, "trialdata": {"rt": -1, "trial_type": "single-stim", "word": "mammal", "stimulus": "<p id=\"stim\">MAMMAL</p>", "conditions": [18, 1200, "v", 18000], "internal_node_id": "0.0-38.0", "trial": 1, "time_elapsed": 320458, "serialpos": 1, "key_press": -1, "wordID": 860, "type": "PRES_VIS", "trial_index": 56}, "uniqueid": "MTK1952:3LRKMWOKB6O8EZUGSFGALIG6L3CZ22", "dateTime": 1516636571599}, {"current_trial": 57, "trialdata": {"rt": -1, "trial_type": "single-stim", "word": "whiskers", "stimulus": "<p id=\"stim\">WHISKERS</p>", "conditions": [18, 1200, "v", 18000], "internal_node_id": "0.0-39.0", "trial": 1, "time_elapsed": 322730, "serialpos": 2, "key_press": -1, "wordID": 1604, "type": "PRES_VIS", "trial_index": 57}, "uniqueid": "MTK1952:3LRKMWOKB6O8EZUGSFGALIG6L3CZ22", "dateTime": 1516636573870}, {"current_trial": 58, "trialdata": {"rt": -1, "trial_type": "single-stim", "word": "gangster", "stimulus": "<p id=\"stim\">GANGSTER</p>", "conditions": [18, 1200, "v", 18000], "internal_node_id": "0.0-40.0", "trial": 1, "time_elapsed": 325008, "serialpos": 3, "key_press": -1, "wordID": 619, "type": "PRES_VIS", "trial_index": 58}, "uniqueid": "MTK1952:3LRKMWOKB6O8EZUGSFGALIG6L3CZ22", "dateTime": 1516636576148}, {"current_trial": 59, "trialdata": {"rt": -1, "trial_type": "single-stim", "word": "grave", "stimulus": "<p id=\"stim\">GRAVE</p>", "conditions": [18, 1200, "v", 18000], "internal_node_id": "0.0-41.0", "trial": 1, "time_elapsed": 327354, "serialpos": 4, "key_press": -1, "wordID": 657, "type": "PRES_VIS", "trial_index": 59}, "uniqueid": "MTK1952:3LRKMWOKB6O8EZUGSFGALIG6L3CZ22", "dateTime": 1516636578494}, {"current_trial": 60, "trialdata": {"rt": -1, "trial_type": "single-stim", "word": "female", "stimulus": "<p id=\"stim\">FEMALE</p>", "conditions": [18, 1200, "v", 18000], "internal_node_id": "0.0-42.0", "trial": 1, "time_elapsed": 329386, "serialpos": 5, "key_press": -1, "wordID": 558, "type": "PRES_VIS", "trial_index": 60}, "uniqueid": "MTK1952:3LRKMWOKB6O8EZUGSFGALIG6L3CZ22", "dateTime": 1516636580526}, {"current_trial": 61, "trialdata": {"rt": -1, "trial_type": "single-stim", "word": "donor", "stimulus": "<p id=\"stim\">DONOR</p>", "conditions": [18, 1200, "v", 18000], "internal_node_id": "0.0-43.0", "trial": 1, "time_elapsed": 331496, "serialpos": 6, "key_press": -1, "wordID": 484, "type": "PRES_VIS", "trial_index": 61}, "uniqueid": "MTK1952:3LRKMWOKB6O8EZUGSFGALIG6L3CZ22", "dateTime": 1516636582636}, {"current_trial": 62, "trialdata": {"rt": -1, "trial_type": "single-stim", "word": "survey", "stimulus": "<p id=\"stim\">SURVEY</p>", "conditions": [18, 1200, "v", 18000], "internal_node_id": "0.0-44.0", "trial": 1, "time_elapsed": 333733, "serialpos": 7, "key_press": -1, "wordID": 1413, "type": "PRES_VIS", "trial_index": 62}, "uniqueid": "MTK1952:3LRKMWOKB6O8EZUGSFGALIG6L3CZ22", "dateTime": 1516636584873}, {"current_trial": 63, "trialdata": {"rt": -1, "trial_type": "single-stim", "word": "pepper", "stimulus": "<p id=\"stim\">PEPPER</p>", "conditions": [18, 1200, "v", 18000], "internal_node_id": "0.0-45.0", "trial": 1, "time_elapsed": 335766, "serialpos": 8, "key_press": -1, "wordID": 1046, "type": "PRES_VIS", "trial_index": 63}, "uniqueid": "MTK1952:3LRKMWOKB6O8EZUGSFGALIG6L3CZ22", "dateTime": 1516636586907}, {"current_trial": 64, "trialdata": {"rt": -1, "trial_type": "single-stim", "word": "treat", "stimulus": "<p id=\"stim\">TREAT</p>", "conditions": [18, 1200, "v", 18000], "internal_node_id": "0.0-46.0", "trial": 1, "time_elapsed": 338167, "serialpos": 9, "key_press": -1, "wordID": 1500, "type": "PRES_VIS", "trial_index": 64}, "uniqueid": "MTK1952:3LRKMWOKB6O8EZUGSFGALIG6L3CZ22", "dateTime": 1516636589307}, {"current_trial": 65, "trialdata": {"rt": -1, "trial_type": "single-stim", "word": "chipmunk", "stimulus": "<p id=\"stim\">CHIPMUNK</p>", "conditions": [18, 1200, "v", 18000], "internal_node_id": "0.0-47.0", "trial": 1, "time_elapsed": 340344, "serialpos": 10, "key_press": -1, "wordID": 303, "type": "PRES_VIS", "trial_index": 65}, "uniqueid": "MTK1952:3LRKMWOKB6O8EZUGSFGALIG6L3CZ22", "dateTime": 1516636591484}, {"current_trial": 66, "trialdata": {"rt": -1, "trial_type": "single-stim", "word": "crevice", "stimulus": "<p id=\"stim\">CREVICE</p>", "conditions": [18, 1200, "v", 18000], "internal_node_id": "0.0-48.0", "trial": 1, "time_elapsed": 342639, "serialpos": 11, "key_press": -1, "wordID": 404, "type": "PRES_VIS", "trial_index": 66}, "uniqueid": "MTK1952:3LRKMWOKB6O8EZUGSFGALIG6L3CZ22", "dateTime": 1516636593779}, {"current_trial": 67, "trialdata": {"rt": -1, "trial_type": "single-stim", "word": "penguin", "stimulus": "<p id=\"stim\">PENGUIN</p>", "conditions": [18, 1200, "v", 18000], "internal_node_id": "0.0-49.0", "trial": 1, "time_elapsed": 344898, "serialpos": 12, "key_press": -1, "wordID": 1043, "type": "PRES_VIS", "trial_index": 67}, "uniqueid": "MTK1952:3LRKMWOKB6O8EZUGSFGALIG6L3CZ22", "dateTime": 1516636596038}, {"current_trial": 68, "trialdata": {"rt": -1, "trial_type": "single-stim", "word": "market", "stimulus": "<p id=\"stim\">MARKET</p>", "conditions": [18, 1200, "v", 18000], "internal_node_id": "0.0-50.0", "trial": 1, "time_elapsed": 347110, "serialpos": 13, "key_press": -1, "wordID": 870, "type": "PRES_VIS", "trial_index": 68}, "uniqueid": "MTK1952:3LRKMWOKB6O8EZUGSFGALIG6L3CZ22", "dateTime": 1516636598252}, {"current_trial": 69, "trialdata": {"rt": -1, "trial_type": "single-stim", "word": "football", "stimulus": "<p id=\"stim\">FOOTBALL</p>", "conditions": [18, 1200, "v", 18000], "internal_node_id": "0.0-51.0", "trial": 1, "time_elapsed": 349314, "serialpos": 14, "key_press": -1, "wordID": 590, "type": "PRES_VIS", "trial_index": 69}, "uniqueid": "MTK1952:3LRKMWOKB6O8EZUGSFGALIG6L3CZ22", "dateTime": 1516636600454}, {"current_trial": 70, "trialdata": {"rt": -1, "trial_type": "single-stim", "word": "ozone", "stimulus": "<p id=\"stim\">OZONE</p>", "conditions": [18, 1200, "v", 18000], "internal_node_id": "0.0-52.0", "trial": 1, "time_elapsed": 351570, "serialpos": 15, "key_press": -1, "wordID": 995, "type": "PRES_VIS", "trial_index": 70}, "uniqueid": "MTK1952:3LRKMWOKB6O8EZUGSFGALIG6L3CZ22", "dateTime": 1516636602710}, {"current_trial": 71, "trialdata": {"rt": -1, "trial_type": "single-stim", "word": "hedge", "stimulus": "<p id=\"stim\">HEDGE</p>", "conditions": [18, 1200, "v", 18000], "internal_node_id": "0.0-53.0", "trial": 1, "time_elapsed": 353882, "serialpos": 16, "key_press": -1, "wordID": 698, "type": "PRES_VIS", "trial_index": 71}, "uniqueid": "MTK1952:3LRKMWOKB6O8EZUGSFGALIG6L3CZ22", "dateTime": 1516636605023}, {"current_trial": 72, "trialdata": {"rt": -1, "trial_type": "single-stim", "word": "mattress", "stimulus": "<p id=\"stim\">MATTRESS</p>", "conditions": [18, 1200, "v", 18000], "internal_node_id": "0.0-54.0", "trial": 1, "time_elapsed": 356008, "serialpos": 17, "key_press": -1, "wordID": 878, "type": "PRES_VIS", "trial_index": 72}, "uniqueid": "MTK1952:3LRKMWOKB6O8EZUGSFGALIG6L3CZ22", "dateTime": 1516636607148}, {"current_trial": 73, "trialdata": {"rt": -1, "trial_type": "single-stim", "stimulus": "", "internal_node_id": "0.0-55.0-0.0", "time_elapsed": 358074, "key_press": -1, "type": "PRE_RECALL_DELAY", "trial_index": 73}, "uniqueid": "MTK1952:3LRKMWOKB6O8EZUGSFGALIG6L3CZ22", "dateTime": 1516636609214}, {"current_trial": 74, "trialdata": {"rt": -1000, "trial_type": "single-audio", "stimulus": "/static/audio/400Hz.wav", "internal_node_id": "0.0-56.0", "time_elapsed": 358575, "key_press": -1, "type": "PRE_RECALL_ALERT", "trial_index": 74}, "uniqueid": "MTK1952:3LRKMWOKB6O8EZUGSFGALIG6L3CZ22", "dateTime": 1516636609715}, {"current_trial": 75, "trialdata": {"rt": [4133, 7500, 10656, 13936, 16613, 17849, 23007, 24569, 29410, 41092, 52407], "recwords": ["airport", "mammal", "whiskers", "grave", "female", "donor", "survey", "hedge", "crevice", "gangster", "hedge"], "key_times": [2662, 2810, 3009, 3163, 3397, 3542, 3763, 4133, 4440, 4576, 4799, 4948, 5099, 5256, 5822, 6001, 6145, 6298, 6652, 6800, 6933, 7210, 7500, 8646, 8816, 8886, 9057, 9572, 9768, 9847, 10061, 10656, 10951, 11216, 11294, 11513, 11605, 13936, 15246, 15338, 15521, 15676, 15834, 16166, 16613, 16922, 17046, 17255, 17439, 17666, 17849, 20108, 20283, 20449, 20679, 20923, 21020, 23007, 23367, 23546, 23764, 24012, 24212, 24569, 25413, 25673, 25783, 26118, 26254, 26403, 26513, 29410, 39546, 39716, 39922, 40062, 40271, 40450, 40608, 40704, 41092, 51651, 51826, 52018, 52155, 52260, 52407], "trial_type": "free-recall", "conditions": [18, 1200, "v", 18000], "internal_node_id": "0.0-57.0-0.0", "key_presses": [65, 73, 82, 80, 79, 82, 84, 13, 77, 65, 82, 77, 65, 76, 8, 8, 8, 8, 77, 77, 65, 76, 13, 87, 72, 73, 83, 75, 69, 82, 83, 13, 71, 82, 65, 86, 69, 13, 70, 69, 77, 65, 76, 69, 13, 68, 79, 78, 79, 82, 13, 83, 85, 82, 86, 69, 89, 13, 72, 69, 68, 71, 69, 13, 67, 82, 69, 86, 73, 67, 69, 13, 71, 65, 78, 71, 83, 84, 69, 82, 13, 72, 69, 68, 71, 69, 13], "trial": 1, "time_elapsed": 418578, "type": "FREE_RECALL", "trial_index": 75}, "uniqueid": "MTK1952:3LRKMWOKB6O8EZUGSFGALIG6L3CZ22", "dateTime": 1516636669719}, {"current_trial": 76, "trialdata": {"rt": 1974, "trial_type": "text", "internal_node_id": "0.0-58.0", "time_elapsed": 422556, "key_press": 32, "type": "INSTRUCTIONS", "trial_index": 76}, "uniqueid": "MTK1952:3LRKMWOKB6O8EZUGSFGALIG6L3CZ22", "dateTime": 1516636673696}, {"current_trial": 77, "trialdata": {"rt": [2212, 5326, 8433, 11065, 13307, 15578, 18941, 20427, 22370], "trial_type": "math-distractor", "key_times": [1810, 1963, 2212, 5132, 5326, 7944, 8226, 8433, 10759, 10896, 11065, 13034, 13150, 13307, 15048, 15373, 15578, 17879, 18471, 18941, 20255, 20427, 21750, 22125, 22370], "responses": ["18", "8", "16", "10", "10", "19", "16", "5", "18"], "num2": [4, 1, 9, 4, 2, 9, 3, 3, 9, 7], "num3": [6, 5, 4, 5, 3, 1, 7, 1, 8, 9], "conditions": [24, 1600, "v", 24000], "internal_node_id": "0.0-59.0", "key_presses": [97, 104, 13, 104, 13, 97, 102, 13, 97, 96, 13, 97, 96, 13, 97, 105, 13, 97, 102, 13, 101, 13, 97, 104, 13], "trial": 2, "time_elapsed": 447560, "type": "DISTRACTOR", "trial_index": 77, "num1": [8, 2, 3, 1, 5, 9, 6, 1, 1, 6]}, "uniqueid": "MTK1952:3LRKMWOKB6O8EZUGSFGALIG6L3CZ22", "dateTime": 1516636698700}, {"current_trial": 78, "trialdata": {"rt": -1, "trial_type": "single-stim", "stimulus": "<p id=\"stim\">10</p>", "internal_node_id": "0.0-60.0-0.0", "time_elapsed": 450562, "key_press": -1, "trial_index": 78}, "uniqueid": "MTK1952:3LRKMWOKB6O8EZUGSFGALIG6L3CZ22", "dateTime": 1516636701702}, {"current_trial": 79, "trialdata": {"rt": -1, "trial_type": "single-stim", "stimulus": "<p id=\"stim\">9</p>", "internal_node_id": "0.0-60.0-1.0", "time_elapsed": 451563, "key_press": -1, "trial_index": 79}, "uniqueid": "MTK1952:3LRKMWOKB6O8EZUGSFGALIG6L3CZ22", "dateTime": 1516636702703}, {"current_trial": 80, "trialdata": {"rt": 176, "trial_type": "single-stim", "stimulus": "<p id=\"stim\">8</p>", "internal_node_id": "0.0-60.0-2.0", "time_elapsed": 452564, "key_press": 174, "trial_index": 80}, "uniqueid": "MTK1952:3LRKMWOKB6O8EZUGSFGALIG6L3CZ22", "dateTime": 1516636703704}, {"current_trial": 81, "trialdata": {"rt": 766, "trial_type": "single-stim", "stimulus": "<p id=\"stim\">7</p>", "internal_node_id": "0.0-60.0-3.0", "time_elapsed": 453565, "key_press": 174, "trial_index": 81}, "uniqueid": "MTK1952:3LRKMWOKB6O8EZUGSFGALIG6L3CZ22", "dateTime": 1516636704705}, {"current_trial": 82, "trialdata": {"rt": -1, "trial_type": "single-stim", "stimulus": "<p id=\"stim\">6</p>", "internal_node_id": "0.0-60.0-4.0", "time_elapsed": 454566, "key_press": -1, "trial_index": 82}, "uniqueid": "MTK1952:3LRKMWOKB6O8EZUGSFGALIG6L3CZ22", "dateTime": 1516636705706}, {"current_trial": 83, "trialdata": {"rt": -1, "trial_type": "single-stim", "stimulus": "<p id=\"stim\">5</p>", "internal_node_id": "0.0-60.0-5.0", "time_elapsed": 455567, "key_press": -1, "trial_index": 83}, "uniqueid": "MTK1952:3LRKMWOKB6O8EZUGSFGALIG6L3CZ22", "dateTime": 1516636706707}, {"current_trial": 84, "trialdata": {"rt": -1, "trial_type": "single-stim", "stimulus": "<p id=\"stim\">4</p>", "internal_node_id": "0.0-60.0-6.0", "time_elapsed": 456568, "key_press": -1, "trial_index": 84}, "uniqueid": "MTK1952:3LRKMWOKB6O8EZUGSFGALIG6L3CZ22", "dateTime": 1516636707708}, {"current_trial": 85, "trialdata": {"rt": -1, "trial_type": "single-stim", "stimulus": "<p id=\"stim\">3</p>", "internal_node_id": "0.0-60.0-7.0", "time_elapsed": 457569, "key_press": -1, "trial_index": 85}, "uniqueid": "MTK1952:3LRKMWOKB6O8EZUGSFGALIG6L3CZ22", "dateTime": 1516636708709}, {"current_trial": 86, "trialdata": {"rt": -1, "trial_type": "single-stim", "stimulus": "<p id=\"stim\">2</p>", "internal_node_id": "0.0-60.0-8.0", "time_elapsed": 458571, "key_press": -1, "trial_index": 86}, "uniqueid": "MTK1952:3LRKMWOKB6O8EZUGSFGALIG6L3CZ22", "dateTime": 1516636709711}, {"current_trial": 87, "trialdata": {"rt": -1, "trial_type": "single-stim", "stimulus": "<p id=\"stim\">1</p>", "internal_node_id": "0.0-60.0-9.0", "time_elapsed": 459572, "key_press": -1, "trial_index": 87}, "uniqueid": "MTK1952:3LRKMWOKB6O8EZUGSFGALIG6L3CZ22", "dateTime": 1516636710712}, {"current_trial": 88, "trialdata": {"rt": -1, "trial_type": "single-stim", "stimulus": "<p id=\"stim\">+</p>", "internal_node_id": "0.0-61.0-0.0", "time_elapsed": 461074, "key_press": -1, "type": "FIXATION", "trial_index": 88}, "uniqueid": "MTK1952:3LRKMWOKB6O8EZUGSFGALIG6L3CZ22", "dateTime": 1516636712214}, {"current_trial": 89, "trialdata": {"rt": -1, "trial_type": "single-stim", "word": "banjo", "stimulus": "<p id=\"stim\">BANJO</p>", "conditions": [24, 1600, "v", 24000], "internal_node_id": "0.0-62.0", "trial": 2, "time_elapsed": 462675, "serialpos": 0, "key_press": -1, "wordID": 81, "type": "PRES_VIS", "trial_index": 89}, "uniqueid": "MTK1952:3LRKMWOKB6O8EZUGSFGALIG6L3CZ22", "dateTime": 1516636713815}, {"current_trial": 90, "trialdata": {"rt": -1, "trial_type": "single-stim", "word": "tuba", "stimulus": "<p id=\"stim\">TUBA</p>", "conditions": [24, 1600, "v", 24000], "internal_node_id": "0.0-63.0", "trial": 2, "time_elapsed": 465472, "serialpos": 1, "key_press": -1, "wordID": 1514, "type": "PRES_VIS", "trial_index": 90}, "uniqueid": "MTK1952:3LRKMWOKB6O8EZUGSFGALIG6L3CZ22", "dateTime": 1516636716613}, {"current_trial": 91, "trialdata": {"rt": -1, "trial_type": "single-stim", "word": "donkey", "stimulus": "<p id=\"stim\">DONKEY</p>", "conditions": [24, 1600, "v", 24000], "internal_node_id": "0.0-64.0", "trial": 2, "time_elapsed": 468121, "serialpos": 2, "key_press": -1, "wordID": 483, "type": "PRES_VIS", "trial_index": 91}, "uniqueid": "MTK1952:3LRKMWOKB6O8EZUGSFGALIG6L3CZ22", "dateTime": 1516636719261}, {"current_trial": 92, "trialdata": {"rt": -1, "trial_type": "single-stim", "word": "daughter", "stimulus": "<p id=\"stim\">DAUGHTER</p>", "conditions": [24, 1600, "v", 24000], "internal_node_id": "0.0-65.0", "trial": 2, "time_elapsed": 470724, "serialpos": 3, "key_press": -1, "wordID": 441, "type": "PRES_VIS", "trial_index": 92}, "uniqueid": "MTK1952:3LRKMWOKB6O8EZUGSFGALIG6L3CZ22", "dateTime": 1516636721864}, {"current_trial": 93, "trialdata": {"rt": -1, "trial_type": "single-stim", "word": "farmer", "stimulus": "<p id=\"stim\">FARMER</p>", "conditions": [24, 1600, "v", 24000], "internal_node_id": "0.0-66.0", "trial": 2, "time_elapsed": 473448, "serialpos": 4, "key_press": -1, "wordID": 552, "type": "PRES_VIS", "trial_index": 93}, "uniqueid": "MTK1952:3LRKMWOKB6O8EZUGSFGALIG6L3CZ22", "dateTime": 1516636724588}, {"current_trial": 94, "trialdata": {"rt": -1, "trial_type": "single-stim", "word": "plate", "stimulus": "<p id=\"stim\">PLATE</p>", "conditions": [24, 1600, "v", 24000], "internal_node_id": "0.0-67.0", "trial": 2, "time_elapsed": 476099, "serialpos": 5, "key_press": -1, "wordID": 1085, "type": "PRES_VIS", "trial_index": 94}, "uniqueid": "MTK1952:3LRKMWOKB6O8EZUGSFGALIG6L3CZ22", "dateTime": 1516636727239}, {"current_trial": 95, "trialdata": {"rt": -1, "trial_type": "single-stim", "word": "igloo", "stimulus": "<p id=\"stim\">IGLOO</p>", "conditions": [24, 1600, "v", 24000], "internal_node_id": "0.0-68.0", "trial": 2, "time_elapsed": 478658, "serialpos": 6, "key_press": -1, "wordID": 733, "type": "PRES_VIS", "trial_index": 95}, "uniqueid": "MTK1952:3LRKMWOKB6O8EZUGSFGALIG6L3CZ22", "dateTime": 1516636729798}, {"current_trial": 96, "trialdata": {"rt": -1, "trial_type": "single-stim", "word": "suspect", "stimulus": "<p id=\"stim\">SUSPECT</p>", "conditions": [24, 1600, "v", 24000], "internal_node_id": "0.0-69.0", "trial": 2, "time_elapsed": 481210, "serialpos": 7, "key_press": -1, "wordID": 1414, "type": "PRES_VIS", "trial_index": 96}, "uniqueid": "MTK1952:3LRKMWOKB6O8EZUGSFGALIG6L3CZ22", "dateTime": 1516636732350}, {"current_trial": 97, "trialdata": {"rt": -1, "trial_type": "single-stim", "word": "flute", "stimulus": "<p id=\"stim\">FLUTE</p>", "conditions": [24, 1600, "v", 24000], "internal_node_id": "0.0-70.0", "trial": 2, "time_elapsed": 483735, "serialpos": 8, "key_press": -1, "wordID": 584, "type": "PRES_VIS", "trial_index": 97}, "uniqueid": "MTK1952:3LRKMWOKB6O8EZUGSFGALIG6L3CZ22", "dateTime": 1516636734876}, {"current_trial": 98, "trialdata": {"rt": -1, "trial_type": "single-stim", "word": "glove", "stimulus": "<p id=\"stim\">GLOVE</p>", "conditions": [24, 1600, "v", 24000], "internal_node_id": "0.0-71.0", "trial": 2, "time_elapsed": 486283, "serialpos": 9, "key_press": -1, "wordID": 641, "type": "PRES_VIS", "trial_index": 98}, "uniqueid": "MTK1952:3LRKMWOKB6O8EZUGSFGALIG6L3CZ22", "dateTime": 1516636737423}, {"current_trial": 99, "trialdata": {"rt": -1, "trial_type": "single-stim", "word": "robber", "stimulus": "<p id=\"stim\">ROBBER</p>", "conditions": [24, 1600, "v", 24000], "internal_node_id": "0.0-72.0", "trial": 2, "time_elapsed": 488863, "serialpos": 10, "key_press": -1, "wordID": 1196, "type": "PRES_VIS", "trial_index": 99}, "uniqueid": "MTK1952:3LRKMWOKB6O8EZUGSFGALIG6L3CZ22", "dateTime": 1516636740003}, {"current_trial": 100, "trialdata": {"rt": -1, "trial_type": "single-stim", "word": "parsley", "stimulus": "<p id=\"stim\">PARSLEY</p>", "conditions": [24, 1600, "v", 24000], "internal_node_id": "0.0-73.0", "trial": 2, "time_elapsed": 491307, "serialpos": 11, "key_press": -1, "wordID": 1015, "type": "PRES_VIS", "trial_index": 100}, "uniqueid": "MTK1952:3LRKMWOKB6O8EZUGSFGALIG6L3CZ22", "dateTime": 1516636742447}, {"current_trial": 101, "trialdata": {"rt": -1, "trial_type": "single-stim", "word": "milk", "stimulus": "<p id=\"stim\">MILK</p>", "conditions": [24, 1600, "v", 24000], "internal_node_id": "0.0-74.0", "trial": 2, "time_elapsed": 493993, "serialpos": 12, "key_press": -1, "wordID": 894, "type": "PRES_VIS", "trial_index": 101}, "uniqueid": "MTK1952:3LRKMWOKB6O8EZUGSFGALIG6L3CZ22", "dateTime": 1516636745133}, {"current_trial": 102, "trialdata": {"rt": -1, "trial_type": "single-stim", "word": "honey", "stimulus": "<p id=\"stim\">HONEY</p>", "conditions": [24, 1600, "v", 24000], "internal_node_id": "0.0-75.0", "trial": 2, "time_elapsed": 496586, "serialpos": 13, "key_press": -1, "wordID": 712, "type": "PRES_VIS", "trial_index": 102}, "uniqueid": "MTK1952:3LRKMWOKB6O8EZUGSFGALIG6L3CZ22", "dateTime": 1516636747726}, {"current_trial": 103, "trialdata": {"rt": -1, "trial_type": "single-stim", "word": "dresser", "stimulus": "<p id=\"stim\">DRESSER</p>", "conditions": [24, 1600, "v", 24000], "internal_node_id": "0.0-76.0", "trial": 2, "time_elapsed": 499157, "serialpos": 14, "key_press": -1, "wordID": 495, "type": "PRES_VIS", "trial_index": 103}, "uniqueid": "MTK1952:3LRKMWOKB6O8EZUGSFGALIG6L3CZ22", "dateTime": 1516636750297}, {"current_trial": 104, "trialdata": {"rt": -1, "trial_type": "single-stim", "word": "pigeon", "stimulus": "<p id=\"stim\">PIGEON</p>", "conditions": [24, 1600, "v", 24000], "internal_node_id": "0.0-77.0", "trial": 2, "time_elapsed": 501698, "serialpos": 15, "key_press": -1, "wordID": 1064, "type": "PRES_VIS", "trial_index": 104}, "uniqueid": "MTK1952:3LRKMWOKB6O8EZUGSFGALIG6L3CZ22", "dateTime": 1516636752838}, {"current_trial": 105, "trialdata": {"rt": -1, "trial_type": "single-stim", "word": "spouse", "stimulus": "<p id=\"stim\">SPOUSE</p>", "conditions": [24, 1600, "v", 24000], "internal_node_id": "0.0-78.0", "trial": 2, "time_elapsed": 504130, "serialpos": 16, "key_press": -1, "wordID": 1357, "type": "PRES_VIS", "trial_index": 105}, "uniqueid": "MTK1952:3LRKMWOKB6O8EZUGSFGALIG6L3CZ22", "dateTime": 1516636755270}, {"current_trial": 106, "trialdata": {"rt": -1, "trial_type": "single-stim", "word": "spider", "stimulus": "<p id=\"stim\">SPIDER</p>", "conditions": [24, 1600, "v", 24000], "internal_node_id": "0.0-79.0", "trial": 2, "time_elapsed": 506918, "serialpos": 17, "key_press": -1, "wordID": 1350, "type": "PRES_VIS", "trial_index": 106}, "uniqueid": "MTK1952:3LRKMWOKB6O8EZUGSFGALIG6L3CZ22", "dateTime": 1516636758058}, {"current_trial": 107, "trialdata": {"rt": -1, "trial_type": "single-stim", "word": "camel", "stimulus": "<p id=\"stim\">CAMEL</p>", "conditions": [24, 1600, "v", 24000], "internal_node_id": "0.0-80.0", "trial": 2, "time_elapsed": 509527, "serialpos": 18, "key_press": -1, "wordID": 222, "type": "PRES_VIS", "trial_index": 107}, "uniqueid": "MTK1952:3LRKMWOKB6O8EZUGSFGALIG6L3CZ22", "dateTime": 1516636760667}, {"current_trial": 108, "trialdata": {"rt": -1, "trial_type": "single-stim", "word": "pork", "stimulus": "<p id=\"stim\">PORK</p>", "conditions": [24, 1600, "v", 24000], "internal_node_id": "0.0-81.0", "trial": 2, "time_elapsed": 512269, "serialpos": 19, "key_press": -1, "wordID": 1107, "type": "PRES_VIS", "trial_index": 108}, "uniqueid": "MTK1952:3LRKMWOKB6O8EZUGSFGALIG6L3CZ22", "dateTime": 1516636763409}, {"current_trial": 109, "trialdata": {"rt": -1, "trial_type": "single-stim", "word": "lover", "stimulus": "<p id=\"stim\">LOVER</p>", "conditions": [24, 1600, "v", 24000], "internal_node_id": "0.0-82.0", "trial": 2, "time_elapsed": 514758, "serialpos": 20, "key_press": -1, "wordID": 845, "type": "PRES_VIS", "trial_index": 109}, "uniqueid": "MTK1952:3LRKMWOKB6O8EZUGSFGALIG6L3CZ22", "dateTime": 1516636765898}, {"current_trial": 110, "trialdata": {"rt": -1, "trial_type": "single-stim", "word": "toaster", "stimulus": "<p id=\"stim\">TOASTER</p>", "conditions": [24, 1600, "v", 24000], "internal_node_id": "0.0-83.0", "trial": 2, "time_elapsed": 517482, "serialpos": 21, "key_press": -1, "wordID": 1471, "type": "PRES_VIS", "trial_index": 110}, "uniqueid": "MTK1952:3LRKMWOKB6O8EZUGSFGALIG6L3CZ22", "dateTime": 1516636768622}, {"current_trial": 111, "trialdata": {"rt": -1, "trial_type": "single-stim", "word": "portrait", "stimulus": "<p id=\"stim\">PORTRAIT</p>", "conditions": [24, 1600, "v", 24000], "internal_node_id": "0.0-84.0", "trial": 2, "time_elapsed": 520269, "serialpos": 22, "key_press": -1, "wordID": 1110, "type": "PRES_VIS", "trial_index": 111}, "uniqueid": "MTK1952:3LRKMWOKB6O8EZUGSFGALIG6L3CZ22", "dateTime": 1516636771409}, {"current_trial": 112, "trialdata": {"rt": -1, "trial_type": "single-stim", "word": "husband", "stimulus": "<p id=\"stim\">HUSBAND</p>", "conditions": [24, 1600, "v", 24000], "internal_node_id": "0.0-85.0", "trial": 2, "time_elapsed": 522748, "serialpos": 23, "key_press": -1, "wordID": 727, "type": "PRES_VIS", "trial_index": 112}, "uniqueid": "MTK1952:3LRKMWOKB6O8EZUGSFGALIG6L3CZ22", "dateTime": 1516636773888}, {"current_trial": 113, "trialdata": {"rt": -1, "trial_type": "single-stim", "stimulus": "", "internal_node_id": "0.0-86.0-0.0", "time_elapsed": 525025, "key_press": -1, "type": "PRE_RECALL_DELAY", "trial_index": 113}, "uniqueid": "MTK1952:3LRKMWOKB6O8EZUGSFGALIG6L3CZ22", "dateTime": 1516636776165}, {"current_trial": 114, "trialdata": {"rt": -1000, "trial_type": "single-audio", "stimulus": "/static/audio/400Hz.wav", "internal_node_id": "0.0-87.0", "time_elapsed": 525526, "key_press": -1, "type": "PRE_RECALL_ALERT", "trial_index": 114}, "uniqueid": "MTK1952:3LRKMWOKB6O8EZUGSFGALIG6L3CZ22", "dateTime": 1516636776666}, {"current_trial": 115, "trialdata": {"rt": [4147, 5610, 7443, 9027, 11407, 13185, 16552, 17903, 19694, 20834, 25646, 27781, 30300, 33645, 35816, 39455, 42787, 50011, 55845, 58554], "recwords": ["banjo", "tuba", "donkey", "daughter", "farmer", "plate", "suspect", "robber", "flute", "glove", "parsley", "spuse", "husband", "toaster", "portrait", "igloo", "dresser", "pigeon", "spider", "camel"], "key_times": [2650, 2794, 2914, 3242, 3370, 4147, 4861, 5036, 5170, 5418, 5610, 6056, 6127, 6336, 6522, 6785, 6933, 7443, 7724, 7816, 7931, 8080, 8172, 8308, 8487, 8601, 9027, 9337, 9486, 9713, 9879, 10080, 10144, 11407, 11724, 11861, 12569, 12855, 12933, 13185, 14473, 14643, 14805, 15178, 15341, 15478, 15987, 16552, 16872, 17013, 17260, 17404, 17532, 17664, 17903, 18456, 18559, 18849, 18976, 19081, 19694, 19942, 20070, 20305, 20417, 20613, 20834, 22467, 22608, 22717, 23016, 23322, 23504, 23739, 25646, 25972, 26762, 27193, 27461, 27674, 27781, 29226, 29335, 29587, 29736, 29864, 29967, 30164, 30300, 32310, 32451, 32583, 32750, 32947, 33074, 33170, 33645, 33948, 34216, 34547, 34734, 34951, 35113, 35339, 35510, 35816, 38549, 38766, 38878, 39086, 39235, 39455, 41129, 41334, 41417, 41604, 42008, 42203, 42295, 42787, 48515, 48940, 49263, 49371, 49466, 49641, 50011, 54532, 54660, 54911, 55060, 55256, 55321, 55845, 57833, 57898, 58113, 58233, 58340, 58554], "trial_type": "free-recall", "conditions": [24, 1600, "v", 24000], "internal_node_id": "0.0-88.0-0.0", "key_presses": [66, 65, 78, 74, 79, 13, 84, 85, 66, 65, 13, 68, 79, 78, 75, 69, 89, 13, 68, 65, 85, 71, 72, 84, 69, 82, 13, 70, 65, 82, 77, 69, 82, 13, 80, 76, 65, 84, 69, 13, 83, 85, 83, 80, 69, 67, 84, 13, 82, 79, 66, 66, 69, 82, 13, 70, 76, 85, 84, 69, 13, 71, 76, 79, 86, 69, 13, 80, 65, 82, 83, 76, 69, 89, 13, 83, 80, 85, 83, 69, 13, 72, 85, 83, 66, 65, 78, 68, 13, 84, 79, 65, 83, 84, 69, 82, 13, 80, 79, 82, 84, 82, 65, 73, 84, 13, 73, 71, 76, 79, 79, 13, 68, 82, 69, 83, 83, 69, 82, 13, 80, 73, 71, 69, 79, 78, 13, 83, 80, 73, 68, 69, 82, 13, 67, 65, 77, 69, 76, 13], "trial": 2, "time_elapsed": 585528, "type": "FREE_RECALL", "trial_index": 115}, "uniqueid": "MTK1952:3LRKMWOKB6O8EZUGSFGALIG6L3CZ22", "dateTime": 1516636836670}, {"current_trial": 116, "trialdata": {"rt": 5545, "trial_type": "text", "internal_node_id": "0.0-89.0", "time_elapsed": 593076, "key_press": 32, "type": "INSTRUCTIONS", "trial_index": 116}, "uniqueid": "MTK1952:3LRKMWOKB6O8EZUGSFGALIG6L3CZ22", "dateTime": 1516636844216}, {"current_trial": 117, "trialdata": {"rt": [1961, 3970, 6113, 7706, 8995, 11965], "trial_type": "math-distractor", "key_times": [1742, 1961, 3755, 3970, 5786, 5884, 6113, 7261, 7466, 7706, 8733, 8860, 8995, 10937, 11393, 11965], "responses": ["7", "8", "15", "17", "11", "21"], "num2": [4, 2, 2, 8, 1, 3, 8], "num3": [2, 3, 7, 7, 1, 9, 7], "conditions": [24, 1600, "v", 12000], "internal_node_id": "0.0-90.0", "key_presses": [103, 13, 104, 13, 97, 101, 13, 97, 103, 13, 97, 97, 13, 98, 97, 13], "trial": 3, "time_elapsed": 607080, "type": "DISTRACTOR", "trial_index": 117, "num1": [1, 3, 6, 2, 9, 9, 7]}, "uniqueid": "MTK1952:3LRKMWOKB6O8EZUGSFGALIG6L3CZ22", "dateTime": 1516636858220}, {"current_trial": 118, "trialdata": {"rt": -1, "trial_type": "single-stim", "stimulus": "<p id=\"stim\">10</p>", "internal_node_id": "0.0-91.0-0.0", "time_elapsed": 610082, "key_press": -1, "trial_index": 118}, "uniqueid": "MTK1952:3LRKMWOKB6O8EZUGSFGALIG6L3CZ22", "dateTime": 1516636861222}, {"current_trial": 119, "trialdata": {"rt": -1, "trial_type": "single-stim", "stimulus": "<p id=\"stim\">9</p>", "internal_node_id": "0.0-91.0-1.0", "time_elapsed": 611084, "key_press": -1, "trial_index": 119}, "uniqueid": "MTK1952:3LRKMWOKB6O8EZUGSFGALIG6L3CZ22", "dateTime": 1516636862224}, {"current_trial": 120, "trialdata": {"rt": -1, "trial_type": "single-stim", "stimulus": "<p id=\"stim\">8</p>", "internal_node_id": "0.0-91.0-2.0", "time_elapsed": 612085, "key_press": -1, "trial_index": 120}, "uniqueid": "MTK1952:3LRKMWOKB6O8EZUGSFGALIG6L3CZ22", "dateTime": 1516636863225}, {"current_trial": 121, "trialdata": {"rt": -1, "trial_type": "single-stim", "stimulus": "<p id=\"stim\">7</p>", "internal_node_id": "0.0-91.0-3.0", "time_elapsed": 613086, "key_press": -1, "trial_index": 121}, "uniqueid": "MTK1952:3LRKMWOKB6O8EZUGSFGALIG6L3CZ22", "dateTime": 1516636864226}, {"current_trial": 122, "trialdata": {"rt": -1, "trial_type": "single-stim", "stimulus": "<p id=\"stim\">6</p>", "internal_node_id": "0.0-91.0-4.0", "time_elapsed": 614087, "key_press": -1, "trial_index": 122}, "uniqueid": "MTK1952:3LRKMWOKB6O8EZUGSFGALIG6L3CZ22", "dateTime": 1516636865228}, {"current_trial": 123, "trialdata": {"rt": -1, "trial_type": "single-stim", "stimulus": "<p id=\"stim\">5</p>", "internal_node_id": "0.0-91.0-5.0", "time_elapsed": 615089, "key_press": -1, "trial_index": 123}, "uniqueid": "MTK1952:3LRKMWOKB6O8EZUGSFGALIG6L3CZ22", "dateTime": 1516636866229}, {"current_trial": 124, "trialdata": {"rt": -1, "trial_type": "single-stim", "stimulus": "<p id=\"stim\">4</p>", "internal_node_id": "0.0-91.0-6.0", "time_elapsed": 616090, "key_press": -1, "trial_index": 124}, "uniqueid": "MTK1952:3LRKMWOKB6O8EZUGSFGALIG6L3CZ22", "dateTime": 1516636867230}, {"current_trial": 125, "trialdata": {"rt": -1, "trial_type": "single-stim", "stimulus": "<p id=\"stim\">3</p>", "internal_node_id": "0.0-91.0-7.0", "time_elapsed": 617091, "key_press": -1, "trial_index": 125}, "uniqueid": "MTK1952:3LRKMWOKB6O8EZUGSFGALIG6L3CZ22", "dateTime": 1516636868231}, {"current_trial": 126, "trialdata": {"rt": -1, "trial_type": "single-stim", "stimulus": "<p id=\"stim\">2</p>", "internal_node_id": "0.0-91.0-8.0", "time_elapsed": 618093, "key_press": -1, "trial_index": 126}, "uniqueid": "MTK1952:3LRKMWOKB6O8EZUGSFGALIG6L3CZ22", "dateTime": 1516636869233}, {"current_trial": 127, "trialdata": {"rt": -1, "trial_type": "single-stim", "stimulus": "<p id=\"stim\">1</p>", "internal_node_id": "0.0-91.0-9.0", "time_elapsed": 619094, "key_press": -1, "trial_index": 127}, "uniqueid": "MTK1952:3LRKMWOKB6O8EZUGSFGALIG6L3CZ22", "dateTime": 1516636870234}, {"current_trial": 128, "trialdata": {"rt": -1, "trial_type": "single-stim", "stimulus": "<p id=\"stim\">+</p>", "internal_node_id": "0.0-92.0-0.0", "time_elapsed": 620596, "key_press": -1, "type": "FIXATION", "trial_index": 128}, "uniqueid": "MTK1952:3LRKMWOKB6O8EZUGSFGALIG6L3CZ22", "dateTime": 1516636871736}, {"current_trial": 129, "trialdata": {"rt": -1, "trial_type": "single-stim", "word": "wasp", "stimulus": "<p id=\"stim\">WASP</p>", "conditions": [24, 1600, "v", 12000], "internal_node_id": "0.0-93.0", "trial": 3, "time_elapsed": 622197, "serialpos": 0, "key_press": -1, "wordID": 1592, "type": "PRES_VIS", "trial_index": 129}, "uniqueid": "MTK1952:3LRKMWOKB6O8EZUGSFGALIG6L3CZ22", "dateTime": 1516636873337}, {"current_trial": 130, "trialdata": {"rt": -1, "trial_type": "single-stim", "word": "globe", "stimulus": "<p id=\"stim\">GLOBE</p>", "conditions": [24, 1600, "v", 12000], "internal_node_id": "0.0-94.0", "trial": 3, "time_elapsed": 624792, "serialpos": 1, "key_press": -1, "wordID": 640, "type": "PRES_VIS", "trial_index": 130}, "uniqueid": "MTK1952:3LRKMWOKB6O8EZUGSFGALIG6L3CZ22", "dateTime": 1516636875933}, {"current_trial": 131, "trialdata": {"rt": -1, "trial_type": "single-stim", "word": "pluto", "stimulus": "<p id=\"stim\">PLUTO</p>", "conditions": [24, 1600, "v", 12000], "internal_node_id": "0.0-95.0", "trial": 3, "time_elapsed": 627438, "serialpos": 2, "key_press": -1, "wordID": 1091, "type": "PRES_VIS", "trial_index": 131}, "uniqueid": "MTK1952:3LRKMWOKB6O8EZUGSFGALIG6L3CZ22", "dateTime": 1516636878578}, {"current_trial": 132, "trialdata": {"rt": -1, "trial_type": "single-stim", "word": "cafe", "stimulus": "<p id=\"stim\">CAFE</p>", "conditions": [24, 1600, "v", 12000], "internal_node_id": "0.0-96.0", "trial": 3, "time_elapsed": 630098, "serialpos": 3, "key_press": -1, "wordID": 215, "type": "PRES_VIS", "trial_index": 132}, "uniqueid": "MTK1952:3LRKMWOKB6O8EZUGSFGALIG6L3CZ22", "dateTime": 1516636881238}, {"current_trial": 133, "trialdata": {"rt": -1, "trial_type": "single-stim", "word": "citrus", "stimulus": "<p id=\"stim\">CITRUS</p>", "conditions": [24, 1600, "v", 12000], "internal_node_id": "0.0-97.0", "trial": 3, "time_elapsed": 632880, "serialpos": 4, "key_press": -1, "wordID": 312, "type": "PRES_VIS", "trial_index": 133}, "uniqueid": "MTK1952:3LRKMWOKB6O8EZUGSFGALIG6L3CZ22", "dateTime": 1516636884020}, {"current_trial": 134, "trialdata": {"rt": -1, "trial_type": "single-stim", "word": "pliers", "stimulus": "<p id=\"stim\">PLIERS</p>", "conditions": [24, 1600, "v", 12000], "internal_node_id": "0.0-98.0", "trial": 3, "time_elapsed": 635556, "serialpos": 5, "key_press": -1, "wordID": 1088, "type": "PRES_VIS", "trial_index": 134}, "uniqueid": "MTK1952:3LRKMWOKB6O8EZUGSFGALIG6L3CZ22", "dateTime": 1516636886696}, {"current_trial": 135, "trialdata": {"rt": -1, "trial_type": "single-stim", "word": "tweezers", "stimulus": "<p id=\"stim\">TWEEZERS</p>", "conditions": [24, 1600, "v", 12000], "internal_node_id": "0.0-99.0", "trial": 3, "time_elapsed": 638133, "serialpos": 6, "key_press": -1, "wordID": 1525, "type": "PRES_VIS", "trial_index": 135}, "uniqueid": "MTK1952:3LRKMWOKB6O8EZUGSFGALIG6L3CZ22", "dateTime": 1516636889273}, {"current_trial": 136, "trialdata": {"rt": -1, "trial_type": "single-stim", "word": "sunset", "stimulus": "<p id=\"stim\">SUNSET</p>", "conditions": [24, 1600, "v", 12000], "internal_node_id": "0.0-100.0", "trial": 3, "time_elapsed": 640596, "serialpos": 7, "key_press": -1, "wordID": 1407, "type": "PRES_VIS", "trial_index": 136}, "uniqueid": "MTK1952:3LRKMWOKB6O8EZUGSFGALIG6L3CZ22", "dateTime": 1516636891736}, {"current_trial": 137, "trialdata": {"rt": -1, "trial_type": "single-stim", "word": "foot", "stimulus": "<p id=\"stim\">FOOT</p>", "conditions": [24, 1600, "v", 12000], "internal_node_id": "0.0-101.0", "trial": 3, "time_elapsed": 643375, "serialpos": 8, "key_press": -1, "wordID": 589, "type": "PRES_VIS", "trial_index": 137}, "uniqueid": "MTK1952:3LRKMWOKB6O8EZUGSFGALIG6L3CZ22", "dateTime": 1516636894515}, {"current_trial": 138, "trialdata": {"rt": -1, "trial_type": "single-stim", "word": "bullet", "stimulus": "<p id=\"stim\">BULLET</p>", "conditions": [24, 1600, "v", 12000], "internal_node_id": "0.0-102.0", "trial": 3, "time_elapsed": 646084, "serialpos": 9, "key_press": -1, "wordID": 193, "type": "PRES_VIS", "trial_index": 138}, "uniqueid": "MTK1952:3LRKMWOKB6O8EZUGSFGALIG6L3CZ22", "dateTime": 1516636897224}, {"current_trial": 139, "trialdata": {"rt": -1, "trial_type": "single-stim", "word": "sunrise", "stimulus": "<p id=\"stim\">SUNRISE</p>", "conditions": [24, 1600, "v", 12000], "internal_node_id": "0.0-103.0", "trial": 3, "time_elapsed": 648515, "serialpos": 10, "key_press": -1, "wordID": 1406, "type": "PRES_VIS", "trial_index": 139}, "uniqueid": "MTK1952:3LRKMWOKB6O8EZUGSFGALIG6L3CZ22", "dateTime": 1516636899656}, {"current_trial": 140, "trialdata": {"rt": -1, "trial_type": "single-stim", "word": "seal", "stimulus": "<p id=\"stim\">SEAL</p>", "conditions": [24, 1600, "v", 12000], "internal_node_id": "0.0-104.0", "trial": 3, "time_elapsed": 651205, "serialpos": 11, "key_press": -1, "wordID": 1261, "type": "PRES_VIS", "trial_index": 140}, "uniqueid": "MTK1952:3LRKMWOKB6O8EZUGSFGALIG6L3CZ22", "dateTime": 1516636902345}, {"current_trial": 141, "trialdata": {"rt": -1, "trial_type": "single-stim", "word": "cottage", "stimulus": "<p id=\"stim\">COTTAGE</p>", "conditions": [24, 1600, "v", 12000], "internal_node_id": "0.0-105.0", "trial": 3, "time_elapsed": 653891, "serialpos": 12, "key_press": -1, "wordID": 383, "type": "PRES_VIS", "trial_index": 141}, "uniqueid": "MTK1952:3LRKMWOKB6O8EZUGSFGALIG6L3CZ22", "dateTime": 1516636905031}, {"current_trial": 142, "trialdata": {"rt": -1, "trial_type": "single-stim", "word": "cupboard", "stimulus": "<p id=\"stim\">CUPBOARD</p>", "conditions": [24, 1600, "v", 12000], "internal_node_id": "0.0-106.0", "trial": 3, "time_elapsed": 656421, "serialpos": 13, "key_press": -1, "wordID": 424, "type": "PRES_VIS", "trial_index": 142}, "uniqueid": "MTK1952:3LRKMWOKB6O8EZUGSFGALIG6L3CZ22", "dateTime": 1516636907561}, {"current_trial": 143, "trialdata": {"rt": -1, "trial_type": "single-stim", "word": "hostess", "stimulus": "<p id=\"stim\">HOSTESS</p>", "conditions": [24, 1600, "v", 12000], "internal_node_id": "0.0-107.0", "trial": 3, "time_elapsed": 658914, "serialpos": 14, "key_press": -1, "wordID": 722, "type": "PRES_VIS", "trial_index": 143}, "uniqueid": "MTK1952:3LRKMWOKB6O8EZUGSFGALIG6L3CZ22", "dateTime": 1516636910054}, {"current_trial": 144, "trialdata": {"rt": -1, "trial_type": "single-stim", "word": "proton", "stimulus": "<p id=\"stim\">PROTON</p>", "conditions": [24, 1600, "v", 12000], "internal_node_id": "0.0-108.0", "trial": 3, "time_elapsed": 661616, "serialpos": 15, "key_press": -1, "wordID": 1131, "type": "PRES_VIS", "trial_index": 144}, "uniqueid": "MTK1952:3LRKMWOKB6O8EZUGSFGALIG6L3CZ22", "dateTime": 1516636912756}, {"current_trial": 145, "trialdata": {"rt": -1, "trial_type": "single-stim", "word": "baby", "stimulus": "<p id=\"stim\">BABY</p>", "conditions": [24, 1600, "v", 12000], "internal_node_id": "0.0-109.0", "trial": 3, "time_elapsed": 664079, "serialpos": 16, "key_press": -1, "wordID": 63, "type": "PRES_VIS", "trial_index": 145}, "uniqueid": "MTK1952:3LRKMWOKB6O8EZUGSFGALIG6L3CZ22", "dateTime": 1516636915219}, {"current_trial": 146, "trialdata": {"rt": -1, "trial_type": "single-stim", "word": "boyfriend", "stimulus": "<p id=\"stim\">BOYFRIEND</p>", "conditions": [24, 1600, "v", 12000], "internal_node_id": "0.0-110.0", "trial": 3, "time_elapsed": 666532, "serialpos": 17, "key_press": -1, "wordID": 161, "type": "PRES_VIS", "trial_index": 146}, "uniqueid": "MTK1952:3LRKMWOKB6O8EZUGSFGALIG6L3CZ22", "dateTime": 1516636917672}, {"current_trial": 147, "trialdata": {"rt": -1, "trial_type": "single-stim", "word": "mildew", "stimulus": "<p id=\"stim\">MILDEW</p>", "conditions": [24, 1600, "v", 12000], "internal_node_id": "0.0-111.0", "trial": 3, "time_elapsed": 669291, "serialpos": 18, "key_press": -1, "wordID": 892, "type": "PRES_VIS", "trial_index": 147}, "uniqueid": "MTK1952:3LRKMWOKB6O8EZUGSFGALIG6L3CZ22", "dateTime": 1516636920431}, {"current_trial": 148, "trialdata": {"rt": -1, "trial_type": "single-stim", "word": "bison", "stimulus": "<p id=\"stim\">BISON</p>", "conditions": [24, 1600, "v", 12000], "internal_node_id": "0.0-112.0", "trial": 3, "time_elapsed": 671757, "serialpos": 19, "key_press": -1, "wordID": 130, "type": "PRES_VIS", "trial_index": 148}, "uniqueid": "MTK1952:3LRKMWOKB6O8EZUGSFGALIG6L3CZ22", "dateTime": 1516636922897}, {"current_trial": 149, "trialdata": {"rt": -1, "trial_type": "single-stim", "word": "cattle", "stimulus": "<p id=\"stim\">CATTLE</p>", "conditions": [24, 1600, "v", 12000], "internal_node_id": "0.0-113.0", "trial": 3, "time_elapsed": 674446, "serialpos": 20, "key_press": -1, "wordID": 260, "type": "PRES_VIS", "trial_index": 149}, "uniqueid": "MTK1952:3LRKMWOKB6O8EZUGSFGALIG6L3CZ22", "dateTime": 1516636925586}, {"current_trial": 150, "trialdata": {"rt": -1, "trial_type": "single-stim", "word": "crib", "stimulus": "<p id=\"stim\">CRIB</p>", "conditions": [24, 1600, "v", 12000], "internal_node_id": "0.0-114.0", "trial": 3, "time_elapsed": 676976, "serialpos": 21, "key_press": -1, "wordID": 406, "type": "PRES_VIS", "trial_index": 150}, "uniqueid": "MTK1952:3LRKMWOKB6O8EZUGSFGALIG6L3CZ22", "dateTime": 1516636928116}, {"current_trial": 151, "trialdata": {"rt": -1, "trial_type": "single-stim", "word": "picnic", "stimulus": "<p id=\"stim\">PICNIC</p>", "conditions": [24, 1600, "v", 12000], "internal_node_id": "0.0-115.0", "trial": 3, "time_elapsed": 679554, "serialpos": 22, "key_press": -1, "wordID": 1059, "type": "PRES_VIS", "trial_index": 151}, "uniqueid": "MTK1952:3LRKMWOKB6O8EZUGSFGALIG6L3CZ22", "dateTime": 1516636930694}, {"current_trial": 152, "trialdata": {"rt": -1, "trial_type": "single-stim", "word": "girl", "stimulus": "<p id=\"stim\">GIRL</p>", "conditions": [24, 1600, "v", 12000], "internal_node_id": "0.0-116.0", "trial": 3, "time_elapsed": 682242, "serialpos": 23, "key_press": -1, "wordID": 636, "type": "PRES_VIS", "trial_index": 152}, "uniqueid": "MTK1952:3LRKMWOKB6O8EZUGSFGALIG6L3CZ22", "dateTime": 1516636933383}, {"current_trial": 153, "trialdata": {"rt": -1, "trial_type": "single-stim", "stimulus": "", "internal_node_id": "0.0-117.0-0.0", "time_elapsed": 684397, "key_press": -1, "type": "PRE_RECALL_DELAY", "trial_index": 153}, "uniqueid": "MTK1952:3LRKMWOKB6O8EZUGSFGALIG6L3CZ22", "dateTime": 1516636935537}, {"current_trial": 154, "trialdata": {"rt": -1000, "trial_type": "single-audio", "stimulus": "/static/audio/400Hz.wav", "internal_node_id": "0.0-118.0", "time_elapsed": 684898, "key_press": -1, "type": "PRE_RECALL_ALERT", "trial_index": 154}, "uniqueid": "MTK1952:3LRKMWOKB6O8EZUGSFGALIG6L3CZ22", "dateTime": 1516636936038}, {"current_trial": 155, "trialdata": {"rt": [2924, 4407, 6059, 7099, 9218, 12290, 13513, 15672, 17891, 19238, 20729, 28010, 30135, 32026, 34767, 37844, 40139, 42110, 43010, 46518, 48203, 54115], "recwords": ["picnic", "girl", "proton", "baby", "mildew", "bison", "cattle", "mildew", "wasp", "globe", "pluto", "citrus", "cafe", "pliers", "tweezers", "cottage", "cupboard", "hostess", "cafe", "sunrise", "sunset", "crib"], "key_times": [1434, 1660, 1813, 1919, 2056, 2254, 2924, 3262, 3415, 3641, 4083, 4407, 4706, 4894, 5269, 5482, 5606, 5720, 6059, 6303, 6397, 6521, 6739, 7099, 8029, 8178, 8390, 8569, 8827, 9053, 9218, 9522, 9692, 10538, 11138, 11397, 11517, 11595, 12290, 12594, 12697, 12877, 13031, 13202, 13348, 13513, 14193, 14377, 14607, 14768, 15414, 15510, 15672, 16794, 17023, 17124, 17466, 17891, 18210, 18323, 18536, 18863, 19029, 19238, 19630, 19749, 20052, 20358, 20482, 20729, 26889, 27018, 27235, 27572, 27682, 27844, 28010, 28365, 28462, 28734, 29629, 30135, 30973, 31100, 31353, 31507, 31625, 31830, 32026, 32907, 33060, 33286, 33430, 33719, 33967, 34091, 34316, 34767, 36888, 36999, 37135, 37272, 37397, 37568, 37678, 37844, 38237, 38398, 38845, 39105, 39300, 39445, 39757, 39961, 40139, 41074, 41201, 41338, 41487, 41603, 41825, 41952, 42110, 42260, 42393, 42628, 42786, 43010, 45244, 45351, 45483, 45695, 45841, 45995, 46242, 46518, 47046, 47226, 47431, 47584, 47801, 47913, 48203, 52793, 53056, 53592, 53797, 54115], "trial_type": "free-recall", "conditions": [24, 1600, "v", 12000], "internal_node_id": "0.0-119.0-0.0", "key_presses": [80, 73, 67, 78, 73, 67, 13, 71, 73, 82, 76, 13, 80, 82, 79, 84, 79, 78, 13, 66, 65, 66, 89, 13, 77, 73, 76, 68, 69, 87, 13, 66, 85, 8, 73, 83, 79, 78, 13, 67, 65, 84, 84, 76, 69, 13, 77, 73, 76, 68, 69, 87, 13, 87, 65, 83, 80, 13, 71, 76, 79, 66, 69, 13, 80, 76, 85, 84, 79, 13, 67, 73, 84, 82, 85, 83, 13, 67, 65, 70, 69, 13, 80, 76, 73, 69, 82, 83, 13, 84, 87, 69, 69, 90, 69, 82, 83, 13, 67, 79, 84, 84, 65, 71, 69, 13, 67, 85, 80, 66, 79, 65, 82, 68, 13, 72, 79, 83, 84, 69, 83, 83, 13, 67, 65, 70, 69, 13, 83, 85, 78, 82, 73, 83, 69, 13, 83, 85, 78, 83, 69, 84, 13, 67, 82, 73, 66, 13], "trial": 3, "time_elapsed": 744900, "type": "FREE_RECALL", "trial_index": 155}, "uniqueid": "MTK1952:3LRKMWOKB6O8EZUGSFGALIG6L3CZ22", "dateTime": 1516636996041}, {"current_trial": 156, "trialdata": {"rt": 2808, "trial_type": "text", "internal_node_id": "0.0-120.0", "time_elapsed": 749710, "key_press": 32, "type": "INSTRUCTIONS", "trial_index": 156}, "uniqueid": "MTK1952:3LRKMWOKB6O8EZUGSFGALIG6L3CZ22", "dateTime": 1516637000850}, {"current_trial": 157, "trialdata": {"rt": [1505, 4437, 7187, 11259, 13211, 15279, 16954, 19329, 21181, 22834], "trial_type": "math-distractor", "key_times": [1237, 1311, 1505, 4147, 4244, 4437, 6580, 6785, 7187, 9462, 9593, 10276, 10404, 10783, 10997, 11259, 12847, 13015, 13211, 14795, 15084, 15279, 16552, 16773, 16954, 18994, 19198, 19329, 20867, 21038, 21181, 22623, 22834], "responses": ["12", "15", "25", "21", "16", "10", "14", "14", "15", "9"], "num2": [1, 7, 9, 9, 5, 5, 2, 3, 1, 1, 8], "num3": [2, 6, 9, 8, 4, 3, 6, 6, 9, 1, 5], "conditions": [24, 800, "v", 24000], "internal_node_id": "0.0-121.0", "key_presses": [97, 98, 13, 97, 101, 13, 98, 101, 13, 97, 98, 8, 8, 98, 97, 13, 97, 102, 13, 97, 96, 13, 97, 100, 13, 97, 100, 13, 97, 101, 13, 105, 13], "trial": 4, "time_elapsed": 775714, "type": "DISTRACTOR", "trial_index": 157, "num1": [9, 2, 7, 4, 7, 2, 6, 5, 5, 7, 9]}, "uniqueid": "MTK1952:3LRKMWOKB6O8EZUGSFGALIG6L3CZ22", "dateTime": 1516637026854}, {"current_trial": 158, "trialdata": {"rt": -1, "trial_type": "single-stim", "stimulus": "<p id=\"stim\">10</p>", "internal_node_id": "0.0-122.0-0.0", "time_elapsed": 778717, "key_press": -1, "trial_index": 158}, "uniqueid": "MTK1952:3LRKMWOKB6O8EZUGSFGALIG6L3CZ22", "dateTime": 1516637029858}, {"current_trial": 159, "trialdata": {"rt": -1, "trial_type": "single-stim", "stimulus": "<p id=\"stim\">9</p>", "internal_node_id": "0.0-122.0-1.0", "time_elapsed": 779719, "key_press": -1, "trial_index": 159}, "uniqueid": "MTK1952:3LRKMWOKB6O8EZUGSFGALIG6L3CZ22", "dateTime": 1516637030860}, {"current_trial": 160, "trialdata": {"rt": -1, "trial_type": "single-stim", "stimulus": "<p id=\"stim\">8</p>", "internal_node_id": "0.0-122.0-2.0", "time_elapsed": 780721, "key_press": -1, "trial_index": 160}, "uniqueid": "MTK1952:3LRKMWOKB6O8EZUGSFGALIG6L3CZ22", "dateTime": 1516637031861}, {"current_trial": 161, "trialdata": {"rt": -1, "trial_type": "single-stim", "stimulus": "<p id=\"stim\">7</p>", "internal_node_id": "0.0-122.0-3.0", "time_elapsed": 781722, "key_press": -1, "trial_index": 161}, "uniqueid": "MTK1952:3LRKMWOKB6O8EZUGSFGALIG6L3CZ22", "dateTime": 1516637032862}, {"current_trial": 162, "trialdata": {"rt": -1, "trial_type": "single-stim", "stimulus": "<p id=\"stim\">6</p>", "internal_node_id": "0.0-122.0-4.0", "time_elapsed": 782723, "key_press": -1, "trial_index": 162}, "uniqueid": "MTK1952:3LRKMWOKB6O8EZUGSFGALIG6L3CZ22", "dateTime": 1516637033863}, {"current_trial": 163, "trialdata": {"rt": -1, "trial_type": "single-stim", "stimulus": "<p id=\"stim\">5</p>", "internal_node_id": "0.0-122.0-5.0", "time_elapsed": 783724, "key_press": -1, "trial_index": 163}, "uniqueid": "MTK1952:3LRKMWOKB6O8EZUGSFGALIG6L3CZ22", "dateTime": 1516637034864}, {"current_trial": 164, "trialdata": {"rt": -1, "trial_type": "single-stim", "stimulus": "<p id=\"stim\">4</p>", "internal_node_id": "0.0-122.0-6.0", "time_elapsed": 784725, "key_press": -1, "trial_index": 164}, "uniqueid": "MTK1952:3LRKMWOKB6O8EZUGSFGALIG6L3CZ22", "dateTime": 1516637035865}, {"current_trial": 165, "trialdata": {"rt": -1, "trial_type": "single-stim", "stimulus": "<p id=\"stim\">3</p>", "internal_node_id": "0.0-122.0-7.0", "time_elapsed": 785726, "key_press": -1, "trial_index": 165}, "uniqueid": "MTK1952:3LRKMWOKB6O8EZUGSFGALIG6L3CZ22", "dateTime": 1516637036866}, {"current_trial": 166, "trialdata": {"rt": -1, "trial_type": "single-stim", "stimulus": "<p id=\"stim\">2</p>", "internal_node_id": "0.0-122.0-8.0", "time_elapsed": 786727, "key_press": -1, "trial_index": 166}, "uniqueid": "MTK1952:3LRKMWOKB6O8EZUGSFGALIG6L3CZ22", "dateTime": 1516637037867}, {"current_trial": 167, "trialdata": {"rt": -1, "trial_type": "single-stim", "stimulus": "<p id=\"stim\">1</p>", "internal_node_id": "0.0-122.0-9.0", "time_elapsed": 787728, "key_press": -1, "trial_index": 167}, "uniqueid": "MTK1952:3LRKMWOKB6O8EZUGSFGALIG6L3CZ22", "dateTime": 1516637038868}, {"current_trial": 168, "trialdata": {"rt": -1, "trial_type": "single-stim", "stimulus": "<p id=\"stim\">+</p>", "internal_node_id": "0.0-123.0-0.0", "time_elapsed": 789230, "key_press": -1, "type": "FIXATION", "trial_index": 168}, "uniqueid": "MTK1952:3LRKMWOKB6O8EZUGSFGALIG6L3CZ22", "dateTime": 1516637040370}, {"current_trial": 169, "trialdata": {"rt": -1, "trial_type": "single-stim", "word": "typist", "stimulus": "<p id=\"stim\">TYPIST</p>", "conditions": [24, 800, "v", 24000], "internal_node_id": "0.0-124.0", "trial": 4, "time_elapsed": 790031, "serialpos": 0, "key_press": -1, "wordID": 1531, "type": "PRES_VIS", "trial_index": 169}, "uniqueid": "MTK1952:3LRKMWOKB6O8EZUGSFGALIG6L3CZ22", "dateTime": 1516637041171}, {"current_trial": 170, "trialdata": {"rt": -1, "trial_type": "single-stim", "word": "paddle", "stimulus": "<p id=\"stim\">PADDLE</p>", "conditions": [24, 800, "v", 24000], "internal_node_id": "0.0-125.0", "trial": 4, "time_elapsed": 791685, "serialpos": 1, "key_press": -1, "wordID": 999, "type": "PRES_VIS", "trial_index": 170}, "uniqueid": "MTK1952:3LRKMWOKB6O8EZUGSFGALIG6L3CZ22", "dateTime": 1516637042825}, {"current_trial": 171, "trialdata": {"rt": -1, "trial_type": "single-stim", "word": "sidewalk", "stimulus": "<p id=\"stim\">SIDEWALK</p>", "conditions": [24, 800, "v", 24000], "internal_node_id": "0.0-126.0", "trial": 4, "time_elapsed": 793605, "serialpos": 2, "key_press": -1, "wordID": 1302, "type": "PRES_VIS", "trial_index": 171}, "uniqueid": "MTK1952:3LRKMWOKB6O8EZUGSFGALIG6L3CZ22", "dateTime": 1516637044745}, {"current_trial": 172, "trialdata": {"rt": -1, "trial_type": "single-stim", "word": "clothes", "stimulus": "<p id=\"stim\">CLOTHES</p>", "conditions": [24, 800, "v", 24000], "internal_node_id": "0.0-127.0", "trial": 4, "time_elapsed": 795384, "serialpos": 3, "key_press": -1, "wordID": 326, "type": "PRES_VIS", "trial_index": 172}, "uniqueid": "MTK1952:3LRKMWOKB6O8EZUGSFGALIG6L3CZ22", "dateTime": 1516637046524}, {"current_trial": 173, "trialdata": {"rt": -1, "trial_type": "single-stim", "word": "student", "stimulus": "<p id=\"stim\">STUDENT</p>", "conditions": [24, 800, "v", 24000], "internal_node_id": "0.0-128.0", "trial": 4, "time_elapsed": 797007, "serialpos": 4, "key_press": -1, "wordID": 1394, "type": "PRES_VIS", "trial_index": 173}, "uniqueid": "MTK1952:3LRKMWOKB6O8EZUGSFGALIG6L3CZ22", "dateTime": 1516637048148}, {"current_trial": 174, "trialdata": {"rt": -1, "trial_type": "single-stim", "word": "lion", "stimulus": "<p id=\"stim\">LION</p>", "conditions": [24, 800, "v", 24000], "internal_node_id": "0.0-129.0", "trial": 4, "time_elapsed": 798904, "serialpos": 5, "key_press": -1, "wordID": 826, "type": "PRES_VIS", "trial_index": 174}, "uniqueid": "MTK1952:3LRKMWOKB6O8EZUGSFGALIG6L3CZ22", "dateTime": 1516637050044}, {"current_trial": 175, "trialdata": {"rt": -1, "trial_type": "single-stim", "word": "star", "stimulus": "<p id=\"stim\">STAR</p>", "conditions": [24, 800, "v", 24000], "internal_node_id": "0.0-130.0", "trial": 4, "time_elapsed": 800682, "serialpos": 6, "key_press": -1, "wordID": 1372, "type": "PRES_VIS", "trial_index": 175}, "uniqueid": "MTK1952:3LRKMWOKB6O8EZUGSFGALIG6L3CZ22", "dateTime": 1516637051822}, {"current_trial": 176, "trialdata": {"rt": -1, "trial_type": "single-stim", "word": "ketchup", "stimulus": "<p id=\"stim\">KETCHUP</p>", "conditions": [24, 800, "v", 24000], "internal_node_id": "0.0-131.0", "trial": 4, "time_elapsed": 802396, "serialpos": 7, "key_press": -1, "wordID": 770, "type": "PRES_VIS", "trial_index": 176}, "uniqueid": "MTK1952:3LRKMWOKB6O8EZUGSFGALIG6L3CZ22", "dateTime": 1516637053536}, {"current_trial": 177, "trialdata": {"rt": -1, "trial_type": "single-stim", "word": "grill", "stimulus": "<p id=\"stim\">GRILL</p>", "conditions": [24, 800, "v", 24000], "internal_node_id": "0.0-132.0", "trial": 4, "time_elapsed": 804323, "serialpos": 8, "key_press": -1, "wordID": 660, "type": "PRES_VIS", "trial_index": 177}, "uniqueid": "MTK1952:3LRKMWOKB6O8EZUGSFGALIG6L3CZ22", "dateTime": 1516637055463}, {"current_trial": 178, "trialdata": {"rt": -1, "trial_type": "single-stim", "word": "skillet", "stimulus": "<p id=\"stim\">SKILLET</p>", "conditions": [24, 800, "v", 24000], "internal_node_id": "0.0-133.0", "trial": 4, "time_elapsed": 806136, "serialpos": 9, "key_press": -1, "wordID": 1316, "type": "PRES_VIS", "trial_index": 178}, "uniqueid": "MTK1952:3LRKMWOKB6O8EZUGSFGALIG6L3CZ22", "dateTime": 1516637057276}, {"current_trial": 179, "trialdata": {"rt": -1, "trial_type": "single-stim", "word": "slide", "stimulus": "<p id=\"stim\">SLIDE</p>", "conditions": [24, 800, "v", 24000], "internal_node_id": "0.0-134.0", "trial": 4, "time_elapsed": 807978, "serialpos": 10, "key_press": -1, "wordID": 1325, "type": "PRES_VIS", "trial_index": 179}, "uniqueid": "MTK1952:3LRKMWOKB6O8EZUGSFGALIG6L3CZ22", "dateTime": 1516637059118}, {"current_trial": 180, "trialdata": {"rt": -1, "trial_type": "single-stim", "word": "college", "stimulus": "<p id=\"stim\">COLLEGE</p>", "conditions": [24, 800, "v", 24000], "internal_node_id": "0.0-135.0", "trial": 4, "time_elapsed": 809584, "serialpos": 11, "key_press": -1, "wordID": 345, "type": "PRES_VIS", "trial_index": 180}, "uniqueid": "MTK1952:3LRKMWOKB6O8EZUGSFGALIG6L3CZ22", "dateTime": 1516637060724}, {"current_trial": 181, "trialdata": {"rt": -1, "trial_type": "single-stim", "word": "temple", "stimulus": "<p id=\"stim\">TEMPLE</p>", "conditions": [24, 800, "v", 24000], "internal_node_id": "0.0-136.0", "trial": 4, "time_elapsed": 811426, "serialpos": 12, "key_press": -1, "wordID": 1447, "type": "PRES_VIS", "trial_index": 181}, "uniqueid": "MTK1952:3LRKMWOKB6O8EZUGSFGALIG6L3CZ22", "dateTime": 1516637062566}, {"current_trial": 182, "trialdata": {"rt": -1, "trial_type": "single-stim", "word": "umpire", "stimulus": "<p id=\"stim\">UMPIRE</p>", "conditions": [24, 800, "v", 24000], "internal_node_id": "0.0-137.0", "trial": 4, "time_elapsed": 813220, "serialpos": 13, "key_press": -1, "wordID": 1534, "type": "PRES_VIS", "trial_index": 182}, "uniqueid": "MTK1952:3LRKMWOKB6O8EZUGSFGALIG6L3CZ22", "dateTime": 1516637064360}, {"current_trial": 183, "trialdata": {"rt": -1, "trial_type": "single-stim", "word": "body", "stimulus": "<p id=\"stim\">BODY</p>", "conditions": [24, 800, "v", 24000], "internal_node_id": "0.0-138.0", "trial": 4, "time_elapsed": 815165, "serialpos": 14, "key_press": -1, "wordID": 144, "type": "PRES_VIS", "trial_index": 183}, "uniqueid": "MTK1952:3LRKMWOKB6O8EZUGSFGALIG6L3CZ22", "dateTime": 1516637066305}, {"current_trial": 184, "trialdata": {"rt": -1, "trial_type": "single-stim", "word": "pilot", "stimulus": "<p id=\"stim\">PILOT</p>", "conditions": [24, 800, "v", 24000], "internal_node_id": "0.0-139.0", "trial": 4, "time_elapsed": 816870, "serialpos": 15, "key_press": -1, "wordID": 1069, "type": "PRES_VIS", "trial_index": 184}, "uniqueid": "MTK1952:3LRKMWOKB6O8EZUGSFGALIG6L3CZ22", "dateTime": 1516637068010}, {"current_trial": 185, "trialdata": {"rt": -1, "trial_type": "single-stim", "word": "canal", "stimulus": "<p id=\"stim\">CANAL</p>", "conditions": [24, 800, "v", 24000], "internal_node_id": "0.0-140.0", "trial": 4, "time_elapsed": 818688, "serialpos": 16, "key_press": -1, "wordID": 225, "type": "PRES_VIS", "trial_index": 185}, "uniqueid": "MTK1952:3LRKMWOKB6O8EZUGSFGALIG6L3CZ22", "dateTime": 1516637069828}, {"current_trial": 186, "trialdata": {"rt": -1, "trial_type": "single-stim", "word": "tribe", "stimulus": "<p id=\"stim\">TRIBE</p>", "conditions": [24, 800, "v", 24000], "internal_node_id": "0.0-141.0", "trial": 4, "time_elapsed": 820392, "serialpos": 17, "key_press": -1, "wordID": 1504, "type": "PRES_VIS", "trial_index": 186}, "uniqueid": "MTK1952:3LRKMWOKB6O8EZUGSFGALIG6L3CZ22", "dateTime": 1516637071532}, {"current_trial": 187, "trialdata": {"rt": -1, "trial_type": "single-stim", "word": "eagle", "stimulus": "<p id=\"stim\">EAGLE</p>", "conditions": [24, 800, "v", 24000], "internal_node_id": "0.0-142.0", "trial": 4, "time_elapsed": 822191, "serialpos": 18, "key_press": -1, "wordID": 511, "type": "PRES_VIS", "trial_index": 187}, "uniqueid": "MTK1952:3LRKMWOKB6O8EZUGSFGALIG6L3CZ22", "dateTime": 1516637073331}, {"current_trial": 188, "trialdata": {"rt": -1, "trial_type": "single-stim", "word": "gymnast", "stimulus": "<p id=\"stim\">GYMNAST</p>", "conditions": [24, 800, "v", 24000], "internal_node_id": "0.0-143.0", "trial": 4, "time_elapsed": 824093, "serialpos": 19, "key_press": -1, "wordID": 674, "type": "PRES_VIS", "trial_index": 188}, "uniqueid": "MTK1952:3LRKMWOKB6O8EZUGSFGALIG6L3CZ22", "dateTime": 1516637075233}, {"current_trial": 189, "trialdata": {"rt": -1, "trial_type": "single-stim", "word": "peach", "stimulus": "<p id=\"stim\">PEACH</p>", "conditions": [24, 800, "v", 24000], "internal_node_id": "0.0-144.0", "trial": 4, "time_elapsed": 826070, "serialpos": 20, "key_press": -1, "wordID": 1030, "type": "PRES_VIS", "trial_index": 189}, "uniqueid": "MTK1952:3LRKMWOKB6O8EZUGSFGALIG6L3CZ22", "dateTime": 1516637077211}, {"current_trial": 190, "trialdata": {"rt": -1, "trial_type": "single-stim", "word": "pecan", "stimulus": "<p id=\"stim\">PECAN</p>", "conditions": [24, 800, "v", 24000], "internal_node_id": "0.0-145.0", "trial": 4, "time_elapsed": 827779, "serialpos": 21, "key_press": -1, "wordID": 1035, "type": "PRES_VIS", "trial_index": 190}, "uniqueid": "MTK1952:3LRKMWOKB6O8EZUGSFGALIG6L3CZ22", "dateTime": 1516637078919}, {"current_trial": 191, "trialdata": {"rt": -1, "trial_type": "single-stim", "word": "dancer", "stimulus": "<p id=\"stim\">DANCER</p>", "conditions": [24, 800, "v", 24000], "internal_node_id": "0.0-146.0", "trial": 4, "time_elapsed": 829478, "serialpos": 22, "key_press": -1, "wordID": 436, "type": "PRES_VIS", "trial_index": 191}, "uniqueid": "MTK1952:3LRKMWOKB6O8EZUGSFGALIG6L3CZ22", "dateTime": 1516637080618}, {"current_trial": 192, "trialdata": {"rt": -1, "trial_type": "single-stim", "word": "slug", "stimulus": "<p id=\"stim\">SLUG</p>", "conditions": [24, 800, "v", 24000], "internal_node_id": "0.0-147.0", "trial": 4, "time_elapsed": 831377, "serialpos": 23, "key_press": -1, "wordID": 1328, "type": "PRES_VIS", "trial_index": 192}, "uniqueid": "MTK1952:3LRKMWOKB6O8EZUGSFGALIG6L3CZ22", "dateTime": 1516637082517}, {"current_trial": 193, "trialdata": {"rt": -1, "trial_type": "single-stim", "stimulus": "", "internal_node_id": "0.0-148.0-0.0", "time_elapsed": 833638, "key_press": -1, "type": "PRE_RECALL_DELAY", "trial_index": 193}, "uniqueid": "MTK1952:3LRKMWOKB6O8EZUGSFGALIG6L3CZ22", "dateTime": 1516637084778}, {"current_trial": 194, "trialdata": {"rt": -1000, "trial_type": "single-audio", "stimulus": "/static/audio/400Hz.wav", "internal_node_id": "0.0-149.0", "time_elapsed": 834139, "key_press": -1, "type": "PRE_RECALL_ALERT", "trial_index": 194}, "uniqueid": "MTK1952:3LRKMWOKB6O8EZUGSFGALIG6L3CZ22", "dateTime": 1516637085279}, {"current_trial": 195, "trialdata": {"rt": [1516, 3703, 6277, 7748, 9567, 11351, 13925, 16389, 19667, 21843, 23804, 25459, 29891, 31407, 32955, 35414, 37521, 38774, 43165, 48616, 59524], "recwords": ["dancer", "slug", "typist", "paddle", "clothes", "sidewalk", "college", "temple", "tribe", "eagle", "pilot", "canal", "grill", "star", "lion", "ketchup", "pecan", "peach", "gymnast", "umpire", "body"], "key_times": [689, 798, 889, 1017, 1204, 1314, 1516, 1771, 1898, 2179, 2603, 3703, 4023, 4182, 4470, 4786, 5457, 5549, 6277, 6751, 6938, 7169, 7288, 7437, 7603, 7748, 8318, 8442, 8616, 8757, 8869, 9005, 9265, 9567, 9967, 10107, 10291, 10495, 10673, 10848, 11006, 11116, 11351, 13068, 13150, 13359, 13503, 13588, 13695, 13787, 13925, 14147, 14343, 14590, 14846, 15237, 15429, 16389, 18360, 18608, 18778, 19216, 19411, 19667, 20019, 20248, 20566, 20666, 21503, 21843, 22211, 23028, 23285, 23472, 23616, 23804, 24399, 24569, 24688, 24850, 25229, 25459, 28877, 29124, 29227, 29522, 29670, 29891, 30585, 30681, 30878, 31006, 31407, 32000, 32307, 32385, 32670, 32955, 33414, 33695, 33903, 34316, 34419, 34564, 35120, 35414, 36480, 36638, 36936, 37141, 37270, 37521, 37799, 37971, 38132, 38372, 38480, 38774, 41467, 41621, 41885, 42106, 42241, 42446, 42616, 43165, 47020, 47267, 47446, 47737, 48008, 48091, 48616, 58820, 58986, 59165, 59263, 59524], "trial_type": "free-recall", "conditions": [24, 800, "v", 24000], "internal_node_id": "0.0-150.0-0.0", "key_presses": [68, 65, 78, 67, 69, 82, 13, 83, 76, 85, 71, 13, 84, 89, 80, 73, 83, 84, 13, 80, 65, 68, 68, 76, 69, 13, 67, 76, 79, 84, 72, 69, 83, 13, 83, 73, 68, 69, 87, 65, 76, 75, 13, 67, 79, 76, 76, 69, 71, 69, 13, 84, 69, 77, 80, 76, 69, 13, 84, 82, 73, 66, 69, 13, 69, 65, 71, 76, 69, 13, 80, 73, 76, 79, 84, 13, 67, 65, 78, 65, 76, 13, 71, 82, 73, 76, 76, 13, 83, 84, 65, 82, 13, 76, 73, 79, 78, 13, 75, 69, 84, 67, 72, 85, 80, 13, 80, 69, 67, 65, 78, 13, 80, 69, 65, 67, 72, 13, 71, 89, 77, 78, 65, 83, 84, 13, 85, 77, 80, 73, 82, 69, 13, 66, 79, 68, 89, 13], "trial": 4, "time_elapsed": 894142, "type": "FREE_RECALL", "trial_index": 195}, "uniqueid": "MTK1952:3LRKMWOKB6O8EZUGSFGALIG6L3CZ22", "dateTime": 1516637145284}, {"current_trial": 196, "trialdata": {"rt": 1971, "trial_type": "text", "internal_node_id": "0.0-151.0", "time_elapsed": 898117, "key_press": 32, "type": "INSTRUCTIONS", "trial_index": 196}, "uniqueid": "MTK1952:3LRKMWOKB6O8EZUGSFGALIG6L3CZ22", "dateTime": 1516637149257}, {"current_trial": 197, "trialdata": {"rt": [2593, 6309, 9167, 11487], "trial_type": "math-distractor", "key_times": [2184, 2339, 2593, 5880, 6098, 6309, 8770, 8936, 9167, 11012, 11247, 11487], "responses": ["19", "17", "22", "17"], "num2": [6, 9, 9, 6, 6], "num3": [8, 3, 6, 3, 5], "conditions": [12, 800, "v", 12000], "internal_node_id": "0.0-152.0", "key_presses": [97, 105, 13, 97, 103, 13, 98, 98, 13, 97, 103, 13], "trial": 5, "time_elapsed": 912121, "type": "DISTRACTOR", "trial_index": 197, "num1": [5, 5, 7, 8, 2]}, "uniqueid": "MTK1952:3LRKMWOKB6O8EZUGSFGALIG6L3CZ22", "dateTime": 1516637163261}, {"current_trial": 198, "trialdata": {"rt": -1, "trial_type": "single-stim", "stimulus": "<p id=\"stim\">10</p>", "internal_node_id": "0.0-153.0-0.0", "time_elapsed": 915124, "key_press": -1, "trial_index": 198}, "uniqueid": "MTK1952:3LRKMWOKB6O8EZUGSFGALIG6L3CZ22", "dateTime": 1516637166264}, {"current_trial": 199, "trialdata": {"rt": -1, "trial_type": "single-stim", "stimulus": "<p id=\"stim\">9</p>", "internal_node_id": "0.0-153.0-1.0", "time_elapsed": 916125, "key_press": -1, "trial_index": 199}, "uniqueid": "MTK1952:3LRKMWOKB6O8EZUGSFGALIG6L3CZ22", "dateTime": 1516637167265}, {"current_trial": 200, "trialdata": {"rt": -1, "trial_type": "single-stim", "stimulus": "<p id=\"stim\">8</p>", "internal_node_id": "0.0-153.0-2.0", "time_elapsed": 917126, "key_press": -1, "trial_index": 200}, "uniqueid": "MTK1952:3LRKMWOKB6O8EZUGSFGALIG6L3CZ22", "dateTime": 1516637168266}, {"current_trial": 201, "trialdata": {"rt": -1, "trial_type": "single-stim", "stimulus": "<p id=\"stim\">7</p>", "internal_node_id": "0.0-153.0-3.0", "time_elapsed": 918128, "key_press": -1, "trial_index": 201}, "uniqueid": "MTK1952:3LRKMWOKB6O8EZUGSFGALIG6L3CZ22", "dateTime": 1516637169268}, {"current_trial": 202, "trialdata": {"rt": -1, "trial_type": "single-stim", "stimulus": "<p id=\"stim\">6</p>", "internal_node_id": "0.0-153.0-4.0", "time_elapsed": 919130, "key_press": -1, "trial_index": 202}, "uniqueid": "MTK1952:3LRKMWOKB6O8EZUGSFGALIG6L3CZ22", "dateTime": 1516637170270}, {"current_trial": 203, "trialdata": {"rt": -1, "trial_type": "single-stim", "stimulus": "<p id=\"stim\">5</p>", "internal_node_id": "0.0-153.0-5.0", "time_elapsed": 920131, "key_press": -1, "trial_index": 203}, "uniqueid": "MTK1952:3LRKMWOKB6O8EZUGSFGALIG6L3CZ22", "dateTime": 1516637171271}, {"current_trial": 204, "trialdata": {"rt": -1, "trial_type": "single-stim", "stimulus": "<p id=\"stim\">4</p>", "internal_node_id": "0.0-153.0-6.0", "time_elapsed": 921133, "key_press": -1, "trial_index": 204}, "uniqueid": "MTK1952:3LRKMWOKB6O8EZUGSFGALIG6L3CZ22", "dateTime": 1516637172273}, {"current_trial": 205, "trialdata": {"rt": -1, "trial_type": "single-stim", "stimulus": "<p id=\"stim\">3</p>", "internal_node_id": "0.0-153.0-7.0", "time_elapsed": 922134, "key_press": -1, "trial_index": 205}, "uniqueid": "MTK1952:3LRKMWOKB6O8EZUGSFGALIG6L3CZ22", "dateTime": 1516637173274}, {"current_trial": 206, "trialdata": {"rt": -1, "trial_type": "single-stim", "stimulus": "<p id=\"stim\">2</p>", "internal_node_id": "0.0-153.0-8.0", "time_elapsed": 923135, "key_press": -1, "trial_index": 206}, "uniqueid": "MTK1952:3LRKMWOKB6O8EZUGSFGALIG6L3CZ22", "dateTime": 1516637174275}, {"current_trial": 207, "trialdata": {"rt": -1, "trial_type": "single-stim", "stimulus": "<p id=\"stim\">1</p>", "internal_node_id": "0.0-153.0-9.0", "time_elapsed": 924137, "key_press": -1, "trial_index": 207}, "uniqueid": "MTK1952:3LRKMWOKB6O8EZUGSFGALIG6L3CZ22", "dateTime": 1516637175277}, {"current_trial": 208, "trialdata": {"rt": -1, "trial_type": "single-stim", "stimulus": "<p id=\"stim\">+</p>", "internal_node_id": "0.0-154.0-0.0", "time_elapsed": 925639, "key_press": -1, "type": "FIXATION", "trial_index": 208}, "uniqueid": "MTK1952:3LRKMWOKB6O8EZUGSFGALIG6L3CZ22", "dateTime": 1516637176779}, {"current_trial": 209, "trialdata": {"rt": -1, "trial_type": "single-stim", "word": "trout", "stimulus": "<p id=\"stim\">TROUT</p>", "conditions": [12, 800, "v", 12000], "internal_node_id": "0.0-155.0", "trial": 5, "time_elapsed": 926441, "serialpos": 0, "key_press": -1, "wordID": 1510, "type": "PRES_VIS", "trial_index": 209}, "uniqueid": "MTK1952:3LRKMWOKB6O8EZUGSFGALIG6L3CZ22", "dateTime": 1516637177581}, {"current_trial": 210, "trialdata": {"rt": -1, "trial_type": "single-stim", "word": "barley", "stimulus": "<p id=\"stim\">BARLEY</p>", "conditions": [12, 800, "v", 12000], "internal_node_id": "0.0-156.0", "trial": 5, "time_elapsed": 928240, "serialpos": 1, "key_press": -1, "wordID": 87, "type": "PRES_VIS", "trial_index": 210}, "uniqueid": "MTK1952:3LRKMWOKB6O8EZUGSFGALIG6L3CZ22", "dateTime": 1516637179380}, {"current_trial": 211, "trialdata": {"rt": -1, "trial_type": "single-stim", "word": "rabbit", "stimulus": "<p id=\"stim\">RABBIT</p>", "conditions": [12, 800, "v", 12000], "internal_node_id": "0.0-157.0", "trial": 5, "time_elapsed": 930016, "serialpos": 2, "key_press": -1, "wordID": 1151, "type": "PRES_VIS", "trial_index": 211}, "uniqueid": "MTK1952:3LRKMWOKB6O8EZUGSFGALIG6L3CZ22", "dateTime": 1516637181157}, {"current_trial": 212, "trialdata": {"rt": -1, "trial_type": "single-stim", "word": "creature", "stimulus": "<p id=\"stim\">CREATURE</p>", "conditions": [12, 800, "v", 12000], "internal_node_id": "0.0-158.0", "trial": 5, "time_elapsed": 931858, "serialpos": 3, "key_press": -1, "wordID": 402, "type": "PRES_VIS", "trial_index": 212}, "uniqueid": "MTK1952:3LRKMWOKB6O8EZUGSFGALIG6L3CZ22", "dateTime": 1516637182998}, {"current_trial": 213, "trialdata": {"rt": -1, "trial_type": "single-stim", "word": "cellar", "stimulus": "<p id=\"stim\">CELLAR</p>", "conditions": [12, 800, "v", 12000], "internal_node_id": "0.0-159.0", "trial": 5, "time_elapsed": 933589, "serialpos": 4, "key_press": -1, "wordID": 266, "type": "PRES_VIS", "trial_index": 213}, "uniqueid": "MTK1952:3LRKMWOKB6O8EZUGSFGALIG6L3CZ22", "dateTime": 1516637184729}, {"current_trial": 214, "trialdata": {"rt": -1, "trial_type": "single-stim", "word": "snake", "stimulus": "<p id=\"stim\">SNAKE</p>", "conditions": [12, 800, "v", 12000], "internal_node_id": "0.0-160.0", "trial": 5, "time_elapsed": 935446, "serialpos": 5, "key_press": -1, "wordID": 1332, "type": "PRES_VIS", "trial_index": 214}, "uniqueid": "MTK1952:3LRKMWOKB6O8EZUGSFGALIG6L3CZ22", "dateTime": 1516637186586}, {"current_trial": 215, "trialdata": {"rt": -1, "trial_type": "single-stim", "word": "snail", "stimulus": "<p id=\"stim\">SNAIL</p>", "conditions": [12, 800, "v", 12000], "internal_node_id": "0.0-161.0", "trial": 5, "time_elapsed": 937339, "serialpos": 6, "key_press": -1, "wordID": 1331, "type": "PRES_VIS", "trial_index": 215}, "uniqueid": "MTK1952:3LRKMWOKB6O8EZUGSFGALIG6L3CZ22", "dateTime": 1516637188479}, {"current_trial": 216, "trialdata": {"rt": -1, "trial_type": "single-stim", "word": "beaver", "stimulus": "<p id=\"stim\">BEAVER</p>", "conditions": [12, 800, "v", 12000], "internal_node_id": "0.0-162.0", "trial": 5, "time_elapsed": 939267, "serialpos": 7, "key_press": -1, "wordID": 108, "type": "PRES_VIS", "trial_index": 216}, "uniqueid": "MTK1952:3LRKMWOKB6O8EZUGSFGALIG6L3CZ22", "dateTime": 1516637190407}, {"current_trial": 217, "trialdata": {"rt": -1, "trial_type": "single-stim", "word": "summit", "stimulus": "<p id=\"stim\">SUMMIT</p>", "conditions": [12, 800, "v", 12000], "internal_node_id": "0.0-163.0", "trial": 5, "time_elapsed": 940986, "serialpos": 8, "key_press": -1, "wordID": 1404, "type": "PRES_VIS", "trial_index": 217}, "uniqueid": "MTK1952:3LRKMWOKB6O8EZUGSFGALIG6L3CZ22", "dateTime": 1516637192126}, {"current_trial": 218, "trialdata": {"rt": -1, "trial_type": "single-stim", "word": "perch", "stimulus": "<p id=\"stim\">PERCH</p>", "conditions": [12, 800, "v", 12000], "internal_node_id": "0.0-164.0", "trial": 5, "time_elapsed": 942876, "serialpos": 9, "key_press": -1, "wordID": 1047, "type": "PRES_VIS", "trial_index": 218}, "uniqueid": "MTK1952:3LRKMWOKB6O8EZUGSFGALIG6L3CZ22", "dateTime": 1516637194017}, {"current_trial": 219, "trialdata": {"rt": -1, "trial_type": "single-stim", "word": "lizard", "stimulus": "<p id=\"stim\">LIZARD</p>", "conditions": [12, 800, "v", 12000], "internal_node_id": "0.0-165.0", "trial": 5, "time_elapsed": 944854, "serialpos": 10, "key_press": -1, "wordID": 833, "type": "PRES_VIS", "trial_index": 219}, "uniqueid": "MTK1952:3LRKMWOKB6O8EZUGSFGALIG6L3CZ22", "dateTime": 1516637195994}, {"current_trial": 220, "trialdata": {"rt": -1, "trial_type": "single-stim", "word": "parrot", "stimulus": "<p id=\"stim\">PARROT</p>", "conditions": [12, 800, "v", 12000], "internal_node_id": "0.0-166.0", "trial": 5, "time_elapsed": 946643, "serialpos": 11, "key_press": -1, "wordID": 1014, "type": "PRES_VIS", "trial_index": 220}, "uniqueid": "MTK1952:3LRKMWOKB6O8EZUGSFGALIG6L3CZ22", "dateTime": 1516637197783}, {"current_trial": 221, "trialdata": {"rt": -1, "trial_type": "single-stim", "stimulus": "", "internal_node_id": "0.0-167.0-0.0", "time_elapsed": 949155, "key_press": -1, "type": "PRE_RECALL_DELAY", "trial_index": 221}, "uniqueid": "MTK1952:3LRKMWOKB6O8EZUGSFGALIG6L3CZ22", "dateTime": 1516637200295}, {"current_trial": 222, "trialdata": {"rt": -1000, "trial_type": "single-audio", "stimulus": "/static/audio/400Hz.wav", "internal_node_id": "0.0-168.0", "time_elapsed": 949656, "key_press": -1, "type": "PRE_RECALL_ALERT", "trial_index": 222}, "uniqueid": "MTK1952:3LRKMWOKB6O8EZUGSFGALIG6L3CZ22", "dateTime": 1516637200796}, {"current_trial": 223, "trialdata": {"rt": [3455, 4750, 5923, 7400, 10619, 12374, 14435, 19140, 20750, 22505, 29551], "recwords": ["trout", "barley", "rabbit", "creature", "parrot", "lizard", "perch", "summit", "beaver", "snail", "cellar"], "key_times": [2160, 2365, 2425, 2521, 3025, 3455, 3780, 3891, 4021, 4145, 4329, 4478, 4750, 5005, 5134, 5322, 5476, 5616, 5760, 5923, 6127, 6323, 6423, 6528, 6664, 7026, 7144, 7232, 7400, 8933, 9074, 9521, 9657, 9807, 9977, 10619, 10906, 11123, 11247, 11638, 11783, 11992, 12374, 12707, 12925, 13012, 13872, 13958, 14435, 18203, 18322, 18534, 18654, 18817, 18974, 19140, 19859, 19932, 20099, 20291, 20499, 20591, 20750, 21085, 21226, 21363, 21664, 22162, 22505, 28341, 28433, 28604, 28757, 28847, 28943, 29551], "trial_type": "free-recall", "conditions": [12, 800, "v", 12000], "internal_node_id": "0.0-169.0-0.0", "key_presses": [84, 82, 79, 85, 84, 13, 66, 65, 82, 76, 69, 89, 13, 82, 65, 66, 66, 73, 84, 13, 67, 82, 69, 65, 84, 85, 82, 69, 13, 80, 65, 82, 82, 79, 84, 13, 76, 73, 90, 65, 82, 68, 13, 80, 69, 82, 67, 72, 13, 83, 85, 77, 77, 73, 84, 13, 66, 69, 65, 86, 69, 82, 13, 83, 78, 65, 73, 76, 13, 67, 69, 76, 76, 65, 82, 13], "trial": 5, "time_elapsed": 1009659, "type": "FREE_RECALL", "trial_index": 223}, "uniqueid": "MTK1952:3LRKMWOKB6O8EZUGSFGALIG6L3CZ22", "dateTime": 1516637260801}, {"current_trial": 224, "trialdata": {"rt": 3638, "trial_type": "text", "internal_node_id": "0.0-170.0", "time_elapsed": 1015301, "key_press": 32, "type": "INSTRUCTIONS", "trial_index": 224}, "uniqueid": "MTK1952:3LRKMWOKB6O8EZUGSFGALIG6L3CZ22", "dateTime": 1516637266441}, {"current_trial": 225, "trialdata": {"rt": [1812, 3411, 5677, 8881, 11303, 13736, 15968, 17539, 19483, 21001, 22121, 23834], "trial_type": "math-distractor", "key_times": [1488, 1613, 1812, 2990, 3209, 3411, 5444, 5556, 5677, 7926, 8297, 8881, 10970, 11154, 11303, 13394, 13545, 13736, 15618, 15754, 15968, 17349, 17539, 19190, 19361, 19483, 20666, 20863, 21001, 21951, 22121, 23475, 23626, 23834], "responses": ["13", "18", "15", "18", "11", "16", "16", "8", "11", "12", "5", "19"], "num2": [3, 5, 6, 5, 2, 8, 4, 4, 2, 3, 1, 9, 7], "num3": [4, 8, 3, 7, 3, 2, 8, 2, 4, 4, 3, 1, 5], "conditions": [12, 800, "v", 24000], "internal_node_id": "0.0-171.0", "key_presses": [97, 99, 13, 97, 104, 13, 97, 101, 13, 97, 104, 13, 97, 97, 13, 97, 102, 13, 97, 102, 13, 104, 13, 97, 97, 13, 97, 98, 13, 101, 13, 97, 105, 13], "trial": 6, "time_elapsed": 1041305, "type": "DISTRACTOR", "trial_index": 225, "num1": [6, 5, 3, 6, 6, 6, 4, 2, 5, 5, 1, 9, 6]}, "uniqueid": "MTK1952:3LRKMWOKB6O8EZUGSFGALIG6L3CZ22", "dateTime": 1516637292445}, {"current_trial": 226, "trialdata": {"rt": -1, "trial_type": "single-stim", "stimulus": "<p id=\"stim\">10</p>", "internal_node_id": "0.0-172.0-0.0", "time_elapsed": 1044308, "key_press": -1, "trial_index": 226}, "uniqueid": "MTK1952:3LRKMWOKB6O8EZUGSFGALIG6L3CZ22", "dateTime": 1516637295448}, {"current_trial": 227, "trialdata": {"rt": -1, "trial_type": "single-stim", "stimulus": "<p id=\"stim\">9</p>", "internal_node_id": "0.0-172.0-1.0", "time_elapsed": 1045309, "key_press": -1, "trial_index": 227}, "uniqueid": "MTK1952:3LRKMWOKB6O8EZUGSFGALIG6L3CZ22", "dateTime": 1516637296449}, {"current_trial": 228, "trialdata": {"rt": -1, "trial_type": "single-stim", "stimulus": "<p id=\"stim\">8</p>", "internal_node_id": "0.0-172.0-2.0", "time_elapsed": 1046310, "key_press": -1, "trial_index": 228}, "uniqueid": "MTK1952:3LRKMWOKB6O8EZUGSFGALIG6L3CZ22", "dateTime": 1516637297450}, {"current_trial": 229, "trialdata": {"rt": -1, "trial_type": "single-stim", "stimulus": "<p id=\"stim\">7</p>", "internal_node_id": "0.0-172.0-3.0", "time_elapsed": 1047311, "key_press": -1, "trial_index": 229}, "uniqueid": "MTK1952:3LRKMWOKB6O8EZUGSFGALIG6L3CZ22", "dateTime": 1516637298451}, {"current_trial": 230, "trialdata": {"rt": -1, "trial_type": "single-stim", "stimulus": "<p id=\"stim\">6</p>", "internal_node_id": "0.0-172.0-4.0", "time_elapsed": 1048312, "key_press": -1, "trial_index": 230}, "uniqueid": "MTK1952:3LRKMWOKB6O8EZUGSFGALIG6L3CZ22", "dateTime": 1516637299452}, {"current_trial": 231, "trialdata": {"rt": -1, "trial_type": "single-stim", "stimulus": "<p id=\"stim\">5</p>", "internal_node_id": "0.0-172.0-5.0", "time_elapsed": 1049314, "key_press": -1, "trial_index": 231}, "uniqueid": "MTK1952:3LRKMWOKB6O8EZUGSFGALIG6L3CZ22", "dateTime": 1516637300454}, {"current_trial": 232, "trialdata": {"rt": -1, "trial_type": "single-stim", "stimulus": "<p id=\"stim\">4</p>", "internal_node_id": "0.0-172.0-6.0", "time_elapsed": 1050315, "key_press": -1, "trial_index": 232}, "uniqueid": "MTK1952:3LRKMWOKB6O8EZUGSFGALIG6L3CZ22", "dateTime": 1516637301455}, {"current_trial": 233, "trialdata": {"rt": -1, "trial_type": "single-stim", "stimulus": "<p id=\"stim\">3</p>", "internal_node_id": "0.0-172.0-7.0", "time_elapsed": 1051316, "key_press": -1, "trial_index": 233}, "uniqueid": "MTK1952:3LRKMWOKB6O8EZUGSFGALIG6L3CZ22", "dateTime": 1516637302456}, {"current_trial": 234, "trialdata": {"rt": -1, "trial_type": "single-stim", "stimulus": "<p id=\"stim\">2</p>", "internal_node_id": "0.0-172.0-8.0", "time_elapsed": 1052317, "key_press": -1, "trial_index": 234}, "uniqueid": "MTK1952:3LRKMWOKB6O8EZUGSFGALIG6L3CZ22", "dateTime": 1516637303457}, {"current_trial": 235, "trialdata": {"rt": -1, "trial_type": "single-stim", "stimulus": "<p id=\"stim\">1</p>", "internal_node_id": "0.0-172