{"assignmentId": "3LUY3GC6307LMWPGBIZ3QBV0KX77P9", "workerId": "MTK1377", "questiondata": {"origin": "United States", "strat-rehearsal": "89", "marital": "Single", "education": "Some graduate education", "ethnicity": "Not Hispanic", "color_depth": 24, "distracted": "Yes", "wrote-notes": "No", "strat-other": "", "screen_width": 1093, "avail_screen_width": 1093, "avail_screen_height": 576, "strat-image": "74", "language": "English", "gender": "Male", "age": "46", "gender_other": "", "race": ["White"], "strat-categorize": "0", "pixel_depth": 24, "strat-spatial": "42", "strat-story": "83", "race_other": "", "screen_height": 615}, "bonus": 0, "hitId": "3N7PQ0KLI5WX1219AQB0UYOWKOZ3E3", "counterbalance": 852, "useragent": "Mozilla/5.0 (Windows NT 6.1; Win64; x64) AppleWebKit/537.36 (KHTML, like Gecko) Chrome/62.0.3202.75 Safari/537.36", "eventdata": [{"eventtype": "initialized", "interval": 0, "value": null, "timestamp": 1515870339726}, {"eventtype": "window_resize", "interval": 1, "value": [1096, 567], "timestamp": 1515870339727}, {"eventtype": "focus", "interval": 12013, "value": "off", "timestamp": 1515870351740}, {"eventtype": "focus", "interval": 2904, "value": "on", "timestamp": 1515870354644}, {"eventtype": "focus", "interval": 3225, "value": "off", "timestamp": 1515870357869}, {"eventtype": "focus", "interval": 1514, "value": "on", "timestamp": 1515870359383}, {"eventtype": "focus", "interval": 33271, "value": "off", "timestamp": 1515870392654}, {"eventtype": "focus", "interval": 74, "value": "on", "timestamp": 1515870392728}, {"eventtype": "focus", "interval": 32494, "value": "off", "timestamp": 1515870425222}, {"eventtype": "focus", "interval": 1818, "value": "on", "timestamp": 1515870427040}, {"eventtype": "focus", "interval": 24483, "value": "off", "timestamp": 1515870451523}, {"eventtype": "focus", "interval": 90, "value": "on", "timestamp": 1515870451613}, {"eventtype": "focus", "interval": 8019, "value": "off", "timestamp": 1515870459632}, {"eventtype": "focus", "interval": 1352, "value": "on", "timestamp": 1515870460984}, {"eventtype": "focus", "interval": 5921, "value": "off", "timestamp": 1515870466905}, {"eventtype": "focus", "interval": 1621, "value": "on", "timestamp": 1515870468526}, {"eventtype": "focus", "interval": 20279, "value": "off", "timestamp": 1515870488805}, {"eventtype": "focus", "interval": 46, "value": "on", "timestamp": 1515870488851}, {"eventtype": "window_resize", "interval": 11744, "value": [1094, 526], "timestamp": 1515870500595}, {"eventtype": "window_resize", "interval": 2329, "value": [1096, 567], "timestamp": 1515870502924}, {"eventtype": "window_resize", "interval": 1302, "value": [1094, 526], "timestamp": 1515870504226}, {"eventtype": "focus", "interval": 73202, "value": "off", "timestamp": 1515870577428}, {"eventtype": "focus", "interval": 782, "value": "on", "timestamp": 1515870578210}, {"eventtype": "focus", "interval": 1073, "value": "off", "timestamp": 1515870579283}, {"eventtype": "focus", "interval": 3195, "value": "on", "timestamp": 1515870582478}, {"eventtype": "focus", "interval": 22226, "value": "off", "timestamp": 1515870604704}, {"eventtype": "focus", "interval": 1289, "value": "on", "timestamp": 1515870605993}, {"eventtype": "focus", "interval": 20596, "value": "off", "timestamp": 1515870626589}, {"eventtype": "focus", "interval": 4619, "value": "on", "timestamp": 1515870631208}, {"eventtype": "focus", "interval": 2798214, "value": "off", "timestamp": 1515873429422}, {"eventtype": "focus", "interval": 58, "value": "on", "timestamp": 1515873429480}, {"eventtype": "focus", "interval": 24666, "value": "off", "timestamp": 1515873454146}, {"eventtype": "focus", "interval": 77, "value": "on", "timestamp": 1515873454223}, {"eventtype": "focus", "interval": 8994, "value": "off", "timestamp": 1515873463217}, {"eventtype": "focus", "interval": 71, "value": "on", "timestamp": 1515873463288}], "data": [{"current_trial": 0, "trialdata": {"rt": 2921, "trial_type": "text", "internal_node_id": "0.0-0.0", "time_elapsed": 2923, "key_press": 16, "type": "INSTRUCTIONS", "trial_index": 0}, "uniqueid": "MTK1377:3LUY3GC6307LMWPGBIZ3QBV0KX77P9", "dateTime": 1515870344709}, {"current_trial": 1, "trialdata": {"rt": 2821, "trial_type": "text", "internal_node_id": "0.0-1.0", "time_elapsed": 5747, "key_press": 16, "type": "INSTRUCTIONS", "trial_index": 1}, "uniqueid": "MTK1377:3LUY3GC6307LMWPGBIZ3QBV0KX77P9", "dateTime": 1515870347532}, {"current_trial": 2, "trialdata": {"rt": [18114], "trial_type": "audio-test", "responses": ["ocean"], "internal_node_id": "0.0-2.0", "time_elapsed": 23869, "type": "AUDIO_TEST", "trial_index": 2}, "uniqueid": "MTK1377:3LUY3GC6307LMWPGBIZ3QBV0KX77P9", "dateTime": 1515870365654}, {"current_trial": 3, "trialdata": {"rt": [11679], "trial_type": "audio-test", "responses": ["crystal"], "internal_node_id": "0.0-3.0", "time_elapsed": 35553, "type": "AUDIO_TEST", "trial_index": 3}, "uniqueid": "MTK1377:3LUY3GC6307LMWPGBIZ3QBV0KX77P9", "dateTime": 1515870377338}, {"current_trial": 4, "trialdata": {"rt": [9821], "trial_type": "audio-test", "responses": ["spice"], "internal_node_id": "0.0-4.0", "time_elapsed": 45380, "type": "AUDIO_TEST", "trial_index": 4}, "uniqueid": "MTK1377:3LUY3GC6307LMWPGBIZ3QBV0KX77P9", "dateTime": 1515870387165}, {"current_trial": 5, "trialdata": {"rt": 121925, "trial_type": "survey-text", "responses": "{\"Q0\":\"3am\",\"Q1\":\"11am\",\"Q2\":\"5\\n5\"}", "internal_node_id": "0.0-5.0", "time_elapsed": 168058, "type": "SLEEP_SURVEY", "trial_index": 5}, "uniqueid": "MTK1377:3LUY3GC6307LMWPGBIZ3QBV0KX77P9", "dateTime": 1515870509843}, {"current_trial": 6, "trialdata": {"rt": 49812, "trial_type": "text", "internal_node_id": "0.0-6.0", "time_elapsed": 218872, "key_press": 186, "type": "INSTRUCTIONS", "trial_index": 6}, "uniqueid": "MTK1377:3LUY3GC6307LMWPGBIZ3QBV0KX77P9", "dateTime": 1515870560657}, {"current_trial": 7, "trialdata": {"rt": 22341, "trial_type": "text", "internal_node_id": "0.0-7.0", "time_elapsed": 241715, "key_press": 80, "type": "INSTRUCTIONS", "trial_index": 7}, "uniqueid": "MTK1377:3LUY3GC6307LMWPGBIZ3QBV0KX77P9", "dateTime": 1515870583500}, {"current_trial": 8, "trialdata": {"rt": 7705, "trial_type": "text", "internal_node_id": "0.0-8.0", "time_elapsed": 249921, "key_press": 80, "type": "INSTRUCTIONS", "trial_index": 8}, "uniqueid": "MTK1377:3LUY3GC6307LMWPGBIZ3QBV0KX77P9", "dateTime": 1515870591706}, {"current_trial": 9, "trialdata": {"rt": [15331], "trial_type": "math-distractor", "key_times": [5395, 5851, 8323, 10043, 15331, 17947], "responses": ["12"], "num2": [6, 8], "num3": [2, 7], "conditions": [18, 1200, "v", 18000], "internal_node_id": "0.0-9.0", "key_presses": [49, 50, 80, 8, 13, 49], "trial": 0, "time_elapsed": 268928, "type": "DISTRACTOR", "trial_index": 9, "num1": [4, 2]}, "uniqueid": "MTK1377:3LUY3GC6307LMWPGBIZ3QBV0KX77P9", "dateTime": 1515870610713}, {"current_trial": 10, "trialdata": {"rt": -1, "trial_type": "single-stim", "stimulus": "<p id=\"stim\">10</p>", "internal_node_id": "0.0-10.0-0.0", "time_elapsed": 271930, "key_press": -1, "trial_index": 10}, "uniqueid": "MTK1377:3LUY3GC6307LMWPGBIZ3QBV0KX77P9", "dateTime": 1515870613715}, {"current_trial": 11, "trialdata": {"rt": -1, "trial_type": "single-stim", "stimulus": "<p id=\"stim\">9</p>", "internal_node_id": "0.0-10.0-1.0", "time_elapsed": 272932, "key_press": -1, "trial_index": 11}, "uniqueid": "MTK1377:3LUY3GC6307LMWPGBIZ3QBV0KX77P9", "dateTime": 1515870614717}, {"current_trial": 12, "trialdata": {"rt": -1, "trial_type": "single-stim", "stimulus": "<p id=\"stim\">8</p>", "internal_node_id": "0.0-10.0-2.0", "time_elapsed": 273933, "key_press": -1, "trial_index": 12}, "uniqueid": "MTK1377:3LUY3GC6307LMWPGBIZ3QBV0KX77P9", "dateTime": 1515870615718}, {"current_trial": 13, "trialdata": {"rt": -1, "trial_type": "single-stim", "stimulus": "<p id=\"stim\">7</p>", "internal_node_id": "0.0-10.0-3.0", "time_elapsed": 274934, "key_press": -1, "trial_index": 13}, "uniqueid": "MTK1377:3LUY3GC6307LMWPGBIZ3QBV0KX77P9", "dateTime": 1515870616719}, {"current_trial": 14, "trialdata": {"rt": -1, "trial_type": "single-stim", "stimulus": "<p id=\"stim\">6</p>", "internal_node_id": "0.0-10.0-4.0", "time_elapsed": 275935, "key_press": -1, "trial_index": 14}, "uniqueid": "MTK1377:3LUY3GC6307LMWPGBIZ3QBV0KX77P9", "dateTime": 1515870617720}, {"current_trial": 15, "trialdata": {"rt": -1, "trial_type": "single-stim", "stimulus": "<p id=\"stim\">5</p>", "internal_node_id": "0.0-10.0-5.0", "time_elapsed": 276937, "key_press": -1, "trial_index": 15}, "uniqueid": "MTK1377:3LUY3GC6307LMWPGBIZ3QBV0KX77P9", "dateTime": 1515870618722}, {"current_trial": 16, "trialdata": {"rt": -1, "trial_type": "single-stim", "stimulus": "<p id=\"stim\">4</p>", "internal_node_id": "0.0-10.0-6.0", "time_elapsed": 277938, "key_press": -1, "trial_index": 16}, "uniqueid": "MTK1377:3LUY3GC6307LMWPGBIZ3QBV0KX77P9", "dateTime": 1515870619723}, {"current_trial": 17, "trialdata": {"rt": -1, "trial_type": "single-stim", "stimulus": "<p id=\"stim\">3</p>", "internal_node_id": "0.0-10.0-7.0", "time_elapsed": 278939, "key_press": -1, "trial_index": 17}, "uniqueid": "MTK1377:3LUY3GC6307LMWPGBIZ3QBV0KX77P9", "dateTime": 1515870620724}, {"current_trial": 18, "trialdata": {"rt": -1, "trial_type": "single-stim", "stimulus": "<p id=\"stim\">2</p>", "internal_node_id": "0.0-10.0-8.0", "time_elapsed": 279940, "key_press": -1, "trial_index": 18}, "uniqueid": "MTK1377:3LUY3GC6307LMWPGBIZ3QBV0KX77P9", "dateTime": 1515870621725}, {"current_trial": 19, "trialdata": {"rt": -1, "trial_type": "single-stim", "stimulus": "<p id=\"stim\">1</p>", "internal_node_id": "0.0-10.0-9.0", "time_elapsed": 280941, "key_press": -1, "trial_index": 19}, "uniqueid": "MTK1377:3LUY3GC6307LMWPGBIZ3QBV0KX77P9", "dateTime": 1515870622726}, {"current_trial": 20, "trialdata": {"rt": -1, "trial_type": "single-stim", "stimulus": "<p id=\"stim\">+</p>", "internal_node_id": "0.0-11.0-0.0", "time_elapsed": 282442, "key_press": -1, "type": "FIXATION", "trial_index": 20}, "uniqueid": "MTK1377:3LUY3GC6307LMWPGBIZ3QBV0KX77P9", "dateTime": 1515870624227}, {"current_trial": 21, "trialdata": {"rt": -1, "trial_type": "single-stim", "word": "tutu", "stimulus": "<p id=\"stim\">TUTU</p>", "conditions": [18, 1200, "v", 18000], "internal_node_id": "0.0-12.0", "trial": 0, "time_elapsed": 283646, "serialpos": 0, "key_press": -1, "wordID": 1523, "type": "PRES_VIS", "trial_index": 21}, "uniqueid": "MTK1377:3LUY3GC6307LMWPGBIZ3QBV0KX77P9", "dateTime": 1515870625431}, {"current_trial": 22, "trialdata": {"rt": -1, "trial_type": "single-stim", "word": "sticker", "stimulus": "<p id=\"stim\">STICKER</p>", "conditions": [18, 1200, "v", 18000], "internal_node_id": "0.0-13.0", "trial": 0, "time_elapsed": 285919, "serialpos": 1, "key_press": -1, "wordID": 1381, "type": "PRES_VIS", "trial_index": 22}, "uniqueid": "MTK1377:3LUY3GC6307LMWPGBIZ3QBV0KX77P9", "dateTime": 1515870627705}, {"current_trial": 23, "trialdata": {"rt": -1, "trial_type": "single-stim", "word": "convict", "stimulus": "<p id=\"stim\">CONVICT</p>", "conditions": [18, 1200, "v", 18000], "internal_node_id": "0.0-14.0", "trial": 0, "time_elapsed": 288197, "serialpos": 2, "key_press": -1, "wordID": 370, "type": "PRES_VIS", "trial_index": 23}, "uniqueid": "MTK1377:3LUY3GC6307LMWPGBIZ3QBV0KX77P9", "dateTime": 1515870629982}, {"current_trial": 24, "trialdata": {"rt": -1, "trial_type": "single-stim", "word": "umpire", "stimulus": "<p id=\"stim\">UMPIRE</p>", "conditions": [18, 1200, "v", 18000], "internal_node_id": "0.0-15.0", "trial": 0, "time_elapsed": 290276, "serialpos": 3, "key_press": -1, "wordID": 1534, "type": "PRES_VIS", "trial_index": 24}, "uniqueid": "MTK1377:3LUY3GC6307LMWPGBIZ3QBV0KX77P9", "dateTime": 1515870632061}, {"current_trial": 25, "trialdata": {"rt": -1, "trial_type": "single-stim", "word": "butcher", "stimulus": "<p id=\"stim\">BUTCHER</p>", "conditions": [18, 1200, "v", 18000], "internal_node_id": "0.0-16.0", "trial": 0, "time_elapsed": 292592, "serialpos": 4, "key_press": -1, "wordID": 202, "type": "PRES_VIS", "trial_index": 25}, "uniqueid": "MTK1377:3LUY3GC6307LMWPGBIZ3QBV0KX77P9", "dateTime": 1515870634378}, {"current_trial": 26, "trialdata": {"rt": -1, "trial_type": "single-stim", "word": "body", "stimulus": "<p id=\"stim\">BODY</p>", "conditions": [18, 1200, "v", 18000], "internal_node_id": "0.0-17.0", "trial": 0, "time_elapsed": 294840, "serialpos": 5, "key_press": -1, "wordID": 144, "type": "PRES_VIS", "trial_index": 26}, "uniqueid": "MTK1377:3LUY3GC6307LMWPGBIZ3QBV0KX77P9", "dateTime": 1515870636625}, {"current_trial": 27, "trialdata": {"rt": -1, "trial_type": "single-stim", "word": "camel", "stimulus": "<p id=\"stim\">CAMEL</p>", "conditions": [18, 1200, "v", 18000], "internal_node_id": "0.0-18.0", "trial": 0, "time_elapsed": 296847, "serialpos": 6, "key_press": -1, "wordID": 222, "type": "PRES_VIS", "trial_index": 27}, "uniqueid": "MTK1377:3LUY3GC6307LMWPGBIZ3QBV0KX77P9", "dateTime": 1515870638632}, {"current_trial": 28, "trialdata": {"rt": -1, "trial_type": "single-stim", "word": "beast", "stimulus": "<p id=\"stim\">BEAST</p>", "conditions": [18, 1200, "v", 18000], "internal_node_id": "0.0-19.0", "trial": 0, "time_elapsed": 299106, "serialpos": 7, "key_press": -1, "wordID": 107, "type": "PRES_VIS", "trial_index": 28}, "uniqueid": "MTK1377:3LUY3GC6307LMWPGBIZ3QBV0KX77P9", "dateTime": 1515870640891}, {"current_trial": 29, "trialdata": {"rt": -1, "trial_type": "single-stim", "word": "buggy", "stimulus": "<p id=\"stim\">BUGGY</p>", "conditions": [18, 1200, "v", 18000], "internal_node_id": "0.0-20.0", "trial": 0, "time_elapsed": 301133, "serialpos": 8, "key_press": -1, "wordID": 187, "type": "PRES_VIS", "trial_index": 29}, "uniqueid": "MTK1377:3LUY3GC6307LMWPGBIZ3QBV0KX77P9", "dateTime": 1515870642918}, {"current_trial": 30, "trialdata": {"rt": -1, "trial_type": "single-stim", "word": "slime", "stimulus": "<p id=\"stim\">SLIME</p>", "conditions": [18, 1200, "v", 18000], "internal_node_id": "0.0-21.0", "trial": 0, "time_elapsed": 303143, "serialpos": 9, "key_press": -1, "wordID": 1326, "type": "PRES_VIS", "trial_index": 30}, "uniqueid": "MTK1377:3LUY3GC6307LMWPGBIZ3QBV0KX77P9", "dateTime": 1515870644928}, {"current_trial": 31, "trialdata": {"rt": -1, "trial_type": "single-stim", "word": "blade", "stimulus": "<p id=\"stim\">BLADE</p>", "conditions": [18, 1200, "v", 18000], "internal_node_id": "0.0-22.0", "trial": 0, "time_elapsed": 305429, "serialpos": 10, "key_press": -1, "wordID": 133, "type": "PRES_VIS", "trial_index": 31}, "uniqueid": "MTK1377:3LUY3GC6307LMWPGBIZ3QBV0KX77P9", "dateTime": 1515870647214}, {"current_trial": 32, "trialdata": {"rt": -1, "trial_type": "single-stim", "word": "bureau", "stimulus": "<p id=\"stim\">BUREAU</p>", "conditions": [18, 1200, "v", 18000], "internal_node_id": "0.0-23.0", "trial": 0, "time_elapsed": 307631, "serialpos": 11, "key_press": -1, "wordID": 198, "type": "PRES_VIS", "trial_index": 32}, "uniqueid": "MTK1377:3LUY3GC6307LMWPGBIZ3QBV0KX77P9", "dateTime": 1515870649416}, {"current_trial": 33, "trialdata": {"rt": -1, "trial_type": "single-stim", "word": "airport", "stimulus": "<p id=\"stim\">AIRPORT</p>", "conditions": [18, 1200, "v", 18000], "internal_node_id": "0.0-24.0", "trial": 0, "time_elapsed": 309789, "serialpos": 12, "key_press": -1, "wordID": 12, "type": "PRES_VIS", "trial_index": 33}, "uniqueid": "MTK1377:3LUY3GC6307LMWPGBIZ3QBV0KX77P9", "dateTime": 1515870651574}, {"current_trial": 34, "trialdata": {"rt": -1, "trial_type": "single-stim", "word": "helmet", "stimulus": "<p id=\"stim\">HELMET</p>", "conditions": [18, 1200, "v", 18000], "internal_node_id": "0.0-25.0", "trial": 0, "time_elapsed": 312076, "serialpos": 13, "key_press": -1, "wordID": 701, "type": "PRES_VIS", "trial_index": 34}, "uniqueid": "MTK1377:3LUY3GC6307LMWPGBIZ3QBV0KX77P9", "dateTime": 1515870653861}, {"current_trial": 35, "trialdata": {"rt": -1, "trial_type": "single-stim", "word": "sister", "stimulus": "<p id=\"stim\">SISTER</p>", "conditions": [18, 1200, "v", 18000], "internal_node_id": "0.0-26.0", "trial": 0, "time_elapsed": 314373, "serialpos": 14, "key_press": -1, "wordID": 1311, "type": "PRES_VIS", "trial_index": 35}, "uniqueid": "MTK1377:3LUY3GC6307LMWPGBIZ3QBV0KX77P9", "dateTime": 1515870656158}, {"current_trial": 36, "trialdata": {"rt": -1, "trial_type": "single-stim", "word": "award", "stimulus": "<p id=\"stim\">AWARD</p>", "conditions": [18, 1200, "v", 18000], "internal_node_id": "0.0-27.0", "trial": 0, "time_elapsed": 316466, "serialpos": 15, "key_press": -1, "wordID": 62, "type": "PRES_VIS", "trial_index": 36}, "uniqueid": "MTK1377:3LUY3GC6307LMWPGBIZ3QBV0KX77P9", "dateTime": 1515870658251}, {"current_trial": 37, "trialdata": {"rt": -1, "trial_type": "single-stim", "word": "poison", "stimulus": "<p id=\"stim\">POISON</p>", "conditions": [18, 1200, "v", 18000], "internal_node_id": "0.0-28.0", "trial": 0, "time_elapsed": 318799, "serialpos": 16, "key_press": -1, "wordID": 1095, "type": "PRES_VIS", "trial_index": 37}, "uniqueid": "MTK1377:3LUY3GC6307LMWPGBIZ3QBV0KX77P9", "dateTime": 1515870660584}, {"current_trial": 38, "trialdata": {"rt": -1, "trial_type": "single-stim", "word": "toaster", "stimulus": "<p id=\"stim\">TOASTER</p>", "conditions": [18, 1200, "v", 18000], "internal_node_id": "0.0-29.0", "trial": 0, "time_elapsed": 320874, "serialpos": 17, "key_press": -1, "wordID": 1471, "type": "PRES_VIS", "trial_index": 38}, "uniqueid": "MTK1377:3LUY3GC6307LMWPGBIZ3QBV0KX77P9", "dateTime": 1515870662659}, {"current_trial": 39, "trialdata": {"rt": -1, "trial_type": "single-stim", "stimulus": "", "internal_node_id": "0.0-30.0-0.0", "time_elapsed": 323312, "key_press": -1, "type": "PRE_RECALL_DELAY", "trial_index": 39}, "uniqueid": "MTK1377:3LUY3GC6307LMWPGBIZ3QBV0KX77P9", "dateTime": 1515870665097}, {"current_trial": 40, "trialdata": {"rt": -1000, "trial_type": "single-audio", "stimulus": "/static/audio/400Hz.wav", "internal_node_id": "0.0-31.0", "time_elapsed": 323814, "key_press": -1, "type": "PRE_RECALL_ALERT", "trial_index": 40}, "uniqueid": "MTK1377:3LUY3GC6307LMWPGBIZ3QBV0KX77P9", "dateTime": 1515870665599}, {"current_trial": 41, "trialdata": {"rt": [11561, 11641, 21201, 27498, 43041], "recwords": ["convict", "", "beast", "tutu", "helper"], "key_times": [2866, 3952, 4713, 5522, 6833, 7833, 9249, 11561, 11641, 13845, 14657, 15369, 15833, 16777, 21201, 22746, 23514, 24450, 24986, 27498, 37961, 38744, 39855, 40649, 41809, 42217, 43041], "trial_type": "free-recall", "conditions": [18, 1200, "v", 18000], "internal_node_id": "0.0-32.0-0.0", "key_presses": [67, 79, 78, 86, 73, 67, 84, 188, 188, 66, 69, 65, 83, 84, 188, 84, 85, 84, 85, 188, 72, 69, 76, 80, 69, 82, 188], "trial": 0, "time_elapsed": 383820, "type": "FREE_RECALL", "trial_index": 41}, "uniqueid": "MTK1377:3LUY3GC6307LMWPGBIZ3QBV0KX77P9", "dateTime": 1515870725607}, {"current_trial": 42, "trialdata": {"rt": 3971, "trial_type": "text", "internal_node_id": "0.0-33.0", "time_elapsed": 389795, "key_press": 79, "type": "INSTRUCTIONS", "trial_index": 42}, "uniqueid": "MTK1377:3LUY3GC6307LMWPGBIZ3QBV0KX77P9", "dateTime": 1515870731580}, {"current_trial": 43, "trialdata": {"rt": [6659, 11484, 16243], "trial_type": "math-distractor", "key_times": [3715, 4203, 6659, 9597, 10428, 11484, 14052, 15140, 16243], "responses": ["23", "15", "13"], "num2": [8, 5, 3, 8], "num3": [7, 4, 1, 5], "conditions": [18, 1200, "v", 18000], "internal_node_id": "0.0-34.0", "key_presses": [50, 51, 13, 49, 53, 13, 49, 51, 13], "trial": 1, "time_elapsed": 409798, "type": "DISTRACTOR", "trial_index": 43, "num1": [8, 6, 9, 6]}, "uniqueid": "MTK1377:3LUY3GC6307LMWPGBIZ3QBV0KX77P9", "dateTime": 1515870751584}, {"current_trial": 44, "trialdata": {"rt": -1, "trial_type": "single-stim", "stimulus": "<p id=\"stim\">10</p>", "internal_node_id": "0.0-35.0-0.0", "time_elapsed": 412801, "key_press": -1, "trial_index": 44}, "uniqueid": "MTK1377:3LUY3GC6307LMWPGBIZ3QBV0KX77P9", "dateTime": 1515870754586}, {"current_trial": 45, "trialdata": {"rt": -1, "trial_type": "single-stim", "stimulus": "<p id=\"stim\">9</p>", "internal_node_id": "0.0-35.0-1.0", "time_elapsed": 413802, "key_press": -1, "trial_index": 45}, "uniqueid": "MTK1377:3LUY3GC6307LMWPGBIZ3QBV0KX77P9", "dateTime": 1515870755587}, {"current_trial": 46, "trialdata": {"rt": -1, "trial_type": "single-stim", "stimulus": "<p id=\"stim\">8</p>", "internal_node_id": "0.0-35.0-2.0", "time_elapsed": 414803, "key_press": -1, "trial_index": 46}, "uniqueid": "MTK1377:3LUY3GC6307LMWPGBIZ3QBV0KX77P9", "dateTime": 1515870756588}, {"current_trial": 47, "trialdata": {"rt": -1, "trial_type": "single-stim", "stimulus": "<p id=\"stim\">7</p>", "internal_node_id": "0.0-35.0-3.0", "time_elapsed": 415804, "key_press": -1, "trial_index": 47}, "uniqueid": "MTK1377:3LUY3GC6307LMWPGBIZ3QBV0KX77P9", "dateTime": 1515870757589}, {"current_trial": 48, "trialdata": {"rt": -1, "trial_type": "single-stim", "stimulus": "<p id=\"stim\">6</p>", "internal_node_id": "0.0-35.0-4.0", "time_elapsed": 416806, "key_press": -1, "trial_index": 48}, "uniqueid": "MTK1377:3LUY3GC6307LMWPGBIZ3QBV0KX77P9", "dateTime": 1515870758591}, {"current_trial": 49, "trialdata": {"rt": -1, "trial_type": "single-stim", "stimulus": "<p id=\"stim\">5</p>", "internal_node_id": "0.0-35.0-5.0", "time_elapsed": 417807, "key_press": -1, "trial_index": 49}, "uniqueid": "MTK1377:3LUY3GC6307LMWPGBIZ3QBV0KX77P9", "dateTime": 1515870759592}, {"current_trial": 50, "trialdata": {"rt": -1, "trial_type": "single-stim", "stimulus": "<p id=\"stim\">4</p>", "internal_node_id": "0.0-35.0-6.0", "time_elapsed": 418808, "key_press": -1, "trial_index": 50}, "uniqueid": "MTK1377:3LUY3GC6307LMWPGBIZ3QBV0KX77P9", "dateTime": 1515870760593}, {"current_trial": 51, "trialdata": {"rt": -1, "trial_type": "single-stim", "stimulus": "<p id=\"stim\">3</p>", "internal_node_id": "0.0-35.0-7.0", "time_elapsed": 419809, "key_press": -1, "trial_index": 51}, "uniqueid": "MTK1377:3LUY3GC6307LMWPGBIZ3QBV0KX77P9", "dateTime": 1515870761594}, {"current_trial": 52, "trialdata": {"rt": -1, "trial_type": "single-stim", "stimulus": "<p id=\"stim\">2</p>", "internal_node_id": "0.0-35.0-8.0", "time_elapsed": 420810, "key_press": -1, "trial_index": 52}, "uniqueid": "MTK1377:3LUY3GC6307LMWPGBIZ3QBV0KX77P9", "dateTime": 1515870762595}, {"current_trial": 53, "trialdata": {"rt": -1, "trial_type": "single-stim", "stimulus": "<p id=\"stim\">1</p>", "internal_node_id": "0.0-35.0-9.0", "time_elapsed": 421811, "key_press": -1, "trial_index": 53}, "uniqueid": "MTK1377:3LUY3GC6307LMWPGBIZ3QBV0KX77P9", "dateTime": 1515870763596}, {"current_trial": 54, "trialdata": {"rt": -1, "trial_type": "single-stim", "stimulus": "<p id=\"stim\">+</p>", "internal_node_id": "0.0-36.0-0.0", "time_elapsed": 423312, "key_press": -1, "type": "FIXATION", "trial_index": 54}, "uniqueid": "MTK1377:3LUY3GC6307LMWPGBIZ3QBV0KX77P9", "dateTime": 1515870765097}, {"current_trial": 55, "trialdata": {"rt": -1, "trial_type": "single-stim", "word": "arm", "stimulus": "<p id=\"stim\">ARM</p>", "conditions": [18, 1200, "v", 18000], "internal_node_id": "0.0-37.0", "trial": 1, "time_elapsed": 424513, "serialpos": 0, "key_press": -1, "wordID": 37, "type": "PRES_VIS", "trial_index": 55}, "uniqueid": "MTK1377:3LUY3GC6307LMWPGBIZ3QBV0KX77P9", "dateTime": 1515870766298}, {"current_trial": 56, "trialdata": {"rt": -1, "trial_type": "single-stim", "word": "mammal", "stimulus": "<p id=\"stim\">MAMMAL</p>", "conditions": [18, 1200, "v", 18000], "internal_node_id": "0.0-38.0", "trial": 1, "time_elapsed": 426742, "serialpos": 1, "key_press": -1, "wordID": 860, "type": "PRES_VIS", "trial_index": 56}, "uniqueid": "MTK1377:3LUY3GC6307LMWPGBIZ3QBV0KX77P9", "dateTime": 1515870768527}, {"current_trial": 57, "trialdata": {"rt": -1, "trial_type": "single-stim", "word": "canal", "stimulus": "<p id=\"stim\">CANAL</p>", "conditions": [18, 1200, "v", 18000], "internal_node_id": "0.0-39.0", "trial": 1, "time_elapsed": 429030, "serialpos": 2, "key_press": -1, "wordID": 225, "type": "PRES_VIS", "trial_index": 57}, "uniqueid": "MTK1377:3LUY3GC6307LMWPGBIZ3QBV0KX77P9", "dateTime": 1515870770815}, {"current_trial": 58, "trialdata": {"rt": -1, "trial_type": "single-stim", "word": "turnip", "stimulus": "<p id=\"stim\">TURNIP</p>", "conditions": [18, 1200, "v", 18000], "internal_node_id": "0.0-40.0", "trial": 1, "time_elapsed": 431422, "serialpos": 3, "key_press": -1, "wordID": 1520, "type": "PRES_VIS", "trial_index": 58}, "uniqueid": "MTK1377:3LUY3GC6307LMWPGBIZ3QBV0KX77P9", "dateTime": 1515870773207}, {"current_trial": 59, "trialdata": {"rt": -1, "trial_type": "single-stim", "word": "receipt", "stimulus": "<p id=\"stim\">RECEIPT</p>", "conditions": [18, 1200, "v", 18000], "internal_node_id": "0.0-41.0", "trial": 1, "time_elapsed": 433567, "serialpos": 4, "key_press": -1, "wordID": 1172, "type": "PRES_VIS", "trial_index": 59}, "uniqueid": "MTK1377:3LUY3GC6307LMWPGBIZ3QBV0KX77P9", "dateTime": 1515870775352}, {"current_trial": 60, "trialdata": {"rt": -1, "trial_type": "single-stim", "word": "typist", "stimulus": "<p id=\"stim\">TYPIST</p>", "conditions": [18, 1200, "v", 18000], "internal_node_id": "0.0-42.0", "trial": 1, "time_elapsed": 435860, "serialpos": 5, "key_press": -1, "wordID": 1531, "type": "PRES_VIS", "trial_index": 60}, "uniqueid": "MTK1377:3LUY3GC6307LMWPGBIZ3QBV0KX77P9", "dateTime": 1515870777645}, {"current_trial": 61, "trialdata": {"rt": -1, "trial_type": "single-stim", "word": "goblin", "stimulus": "<p id=\"stim\">GOBLIN</p>", "conditions": [18, 1200, "v", 18000], "internal_node_id": "0.0-43.0", "trial": 1, "time_elapsed": 437925, "serialpos": 6, "key_press": -1, "wordID": 644, "type": "PRES_VIS", "trial_index": 61}, "uniqueid": "MTK1377:3LUY3GC6307LMWPGBIZ3QBV0KX77P9", "dateTime": 1515870779710}, {"current_trial": 62, "trialdata": {"rt": -1, "trial_type": "single-stim", "word": "foot", "stimulus": "<p id=\"stim\">FOOT</p>", "conditions": [18, 1200, "v", 18000], "internal_node_id": "0.0-44.0", "trial": 1, "time_elapsed": 440130, "serialpos": 7, "key_press": -1, "wordID": 589, "type": "PRES_VIS", "trial_index": 62}, "uniqueid": "MTK1377:3LUY3GC6307LMWPGBIZ3QBV0KX77P9", "dateTime": 1515870781915}, {"current_trial": 63, "trialdata": {"rt": -1, "trial_type": "single-stim", "word": "pluto", "stimulus": "<p id=\"stim\">PLUTO</p>", "conditions": [18, 1200, "v", 18000], "internal_node_id": "0.0-45.0", "trial": 1, "time_elapsed": 442195, "serialpos": 8, "key_press": -1, "wordID": 1091, "type": "PRES_VIS", "trial_index": 63}, "uniqueid": "MTK1377:3LUY3GC6307LMWPGBIZ3QBV0KX77P9", "dateTime": 1515870783980}, {"current_trial": 64, "trialdata": {"rt": -1, "trial_type": "single-stim", "word": "lion", "stimulus": "<p id=\"stim\">LION</p>", "conditions": [18, 1200, "v", 18000], "internal_node_id": "0.0-46.0", "trial": 1, "time_elapsed": 444344, "serialpos": 9, "key_press": -1, "wordID": 826, "type": "PRES_VIS", "trial_index": 64}, "uniqueid": "MTK1377:3LUY3GC6307LMWPGBIZ3QBV0KX77P9", "dateTime": 1515870786129}, {"current_trial": 65, "trialdata": {"rt": -1, "trial_type": "single-stim", "word": "bank", "stimulus": "<p id=\"stim\">BANK</p>", "conditions": [18, 1200, "v", 18000], "internal_node_id": "0.0-47.0", "trial": 1, "time_elapsed": 446477, "serialpos": 10, "key_press": -1, "wordID": 82, "type": "PRES_VIS", "trial_index": 65}, "uniqueid": "MTK1377:3LUY3GC6307LMWPGBIZ3QBV0KX77P9", "dateTime": 1515870788262}, {"current_trial": 66, "trialdata": {"rt": -1, "trial_type": "single-stim", "word": "padding", "stimulus": "<p id=\"stim\">PADDING</p>", "conditions": [18, 1200, "v", 18000], "internal_node_id": "0.0-48.0", "trial": 1, "time_elapsed": 448496, "serialpos": 11, "key_press": -1, "wordID": 998, "type": "PRES_VIS", "trial_index": 66}, "uniqueid": "MTK1377:3LUY3GC6307LMWPGBIZ3QBV0KX77P9", "dateTime": 1515870790281}, {"current_trial": 67, "trialdata": {"rt": -1, "trial_type": "single-stim", "word": "japan", "stimulus": "<p id=\"stim\">JAPAN</p>", "conditions": [18, 1200, "v", 18000], "internal_node_id": "0.0-49.0", "trial": 1, "time_elapsed": 450785, "serialpos": 12, "key_press": -1, "wordID": 748, "type": "PRES_VIS", "trial_index": 67}, "uniqueid": "MTK1377:3LUY3GC6307LMWPGBIZ3QBV0KX77P9", "dateTime": 1515870792570}, {"current_trial": 68, "trialdata": {"rt": -1, "trial_type": "single-stim", "word": "motor", "stimulus": "<p id=\"stim\">MOTOR</p>", "conditions": [18, 1200, "v", 18000], "internal_node_id": "0.0-50.0", "trial": 1, "time_elapsed": 453104, "serialpos": 13, "key_press": -1, "wordID": 921, "type": "PRES_VIS", "trial_index": 68}, "uniqueid": "MTK1377:3LUY3GC6307LMWPGBIZ3QBV0KX77P9", "dateTime": 1515870794891}, {"current_trial": 69, "trialdata": {"rt": -1, "trial_type": "single-stim", "word": "county", "stimulus": "<p id=\"stim\">COUNTY</p>", "conditions": [18, 1200, "v", 18000], "internal_node_id": "0.0-51.0", "trial": 1, "time_elapsed": 455483, "serialpos": 14, "key_press": -1, "wordID": 388, "type": "PRES_VIS", "trial_index": 69}, "uniqueid": "MTK1377:3LUY3GC6307LMWPGBIZ3QBV0KX77P9", "dateTime": 1515870797268}, {"current_trial": 70, "trialdata": {"rt": -1, "trial_type": "single-stim", "word": "spoon", "stimulus": "<p id=\"stim\">SPOON</p>", "conditions": [18, 1200, "v", 18000], "internal_node_id": "0.0-52.0", "trial": 1, "time_elapsed": 457586, "serialpos": 15, "key_press": -1, "wordID": 1356, "type": "PRES_VIS", "trial_index": 70}, "uniqueid": "MTK1377:3LUY3GC6307LMWPGBIZ3QBV0KX77P9", "dateTime": 1515870799371}, {"current_trial": 71, "trialdata": {"rt": -1, "trial_type": "single-stim", "word": "kleenex", "stimulus": "<p id=\"stim\">KLEENEX</p>", "conditions": [18, 1200, "v", 18000], "internal_node_id": "0.0-53.0", "trial": 1, "time_elapsed": 459738, "serialpos": 16, "key_press": -1, "wordID": 781, "type": "PRES_VIS", "trial_index": 71}, "uniqueid": "MTK1377:3LUY3GC6307LMWPGBIZ3QBV0KX77P9", "dateTime": 1515870801523}, {"current_trial": 72, "trialdata": {"rt": -1, "trial_type": "single-stim", "word": "film", "stimulus": "<p id=\"stim\">FILM</p>", "conditions": [18, 1200, "v", 18000], "internal_node_id": "0.0-54.0", "trial": 1, "time_elapsed": 461948, "serialpos": 17, "key_press": -1, "wordID": 564, "type": "PRES_VIS", "trial_index": 72}, "uniqueid": "MTK1377:3LUY3GC6307LMWPGBIZ3QBV0KX77P9", "dateTime": 1515870803733}, {"current_trial": 73, "trialdata": {"rt": -1, "trial_type": "single-stim", "stimulus": "", "internal_node_id": "0.0-55.0-0.0", "time_elapsed": 464161, "key_press": -1, "type": "PRE_RECALL_DELAY", "trial_index": 73}, "uniqueid": "MTK1377:3LUY3GC6307LMWPGBIZ3QBV0KX77P9", "dateTime": 1515870805946}, {"current_trial": 74, "trialdata": {"rt": -1000, "trial_type": "single-audio", "stimulus": "/static/audio/400Hz.wav", "internal_node_id": "0.0-56.0", "time_elapsed": 464663, "key_press": -1, "type": "PRE_RECALL_ALERT", "trial_index": 74}, "uniqueid": "MTK1377:3LUY3GC6307LMWPGBIZ3QBV0KX77P9", "dateTime": 1515870806448}, {"current_trial": 75, "trialdata": {"rt": [6256, 11168, 19960, 28561, 35328, 59145], "recwords": ["arm", "foot", "japan", "country", "pluto", "bank"], "key_times": [2064, 2840, 4417, 6256, 7449, 8416, 8616, 9568, 11168, 14040, 15168, 16560, 17512, 18640, 19960, 21480, 22497, 23104, 23913, 25225, 26160, 26768, 28561, 29577, 30064, 30872, 31504, 32728, 35328, 54616, 55696, 56720, 57392, 59145], "trial_type": "free-recall", "conditions": [18, 1200, "v", 18000], "internal_node_id": "0.0-57.0-0.0", "key_presses": [65, 82, 77, 188, 70, 79, 79, 84, 188, 74, 65, 80, 65, 78, 188, 67, 79, 85, 78, 84, 82, 89, 188, 80, 76, 85, 84, 79, 188, 66, 65, 78, 75, 188], "trial": 1, "time_elapsed": 524668, "type": "FREE_RECALL", "trial_index": 75}, "uniqueid": "MTK1377:3LUY3GC6307LMWPGBIZ3QBV0KX77P9", "dateTime": 1515870866456}, {"current_trial": 76, "trialdata": {"rt": 6184, "trial_type": "text", "internal_node_id": "0.0-58.0", "time_elapsed": 532856, "key_press": 75, "type": "INSTRUCTIONS", "trial_index": 76}, "uniqueid": "MTK1377:3LUY3GC6307LMWPGBIZ3QBV0KX77P9", "dateTime": 1515870874641}, {"current_trial": 77, "trialdata": {"rt": [4237, 9421, 12909, 18980, 23317], "trial_type": "math-distractor", "key_times": [2829, 4237, 7222, 8125, 9421, 12125, 12909, 17165, 17820, 18980, 21237, 22437, 23317], "responses": ["6", "10", "9", "17", "16"], "num2": [3, 5, 3, 5, 5, 6], "num3": [2, 4, 5, 3, 6, 5], "conditions": [24, 1600, "v", 24000], "internal_node_id": "0.0-59.0", "key_presses": [54, 13, 49, 48, 13, 57, 13, 49, 55, 13, 49, 54, 13], "trial": 2, "time_elapsed": 557859, "type": "DISTRACTOR", "trial_index": 77, "num1": [1, 1, 1, 9, 5, 9]}, "uniqueid": "MTK1377:3LUY3GC6307LMWPGBIZ3QBV0KX77P9", "dateTime": 1515870899644}, {"current_trial": 78, "trialdata": {"rt": -1, "trial_type": "single-stim", "stimulus": "<p id=\"stim\">10</p>", "internal_node_id": "0.0-60.0-0.0", "time_elapsed": 560861, "key_press": -1, "trial_index": 78}, "uniqueid": "MTK1377:3LUY3GC6307LMWPGBIZ3QBV0KX77P9", "dateTime": 1515870902646}, {"current_trial": 79, "trialdata": {"rt": -1, "trial_type": "single-stim", "stimulus": "<p id=\"stim\">9</p>", "internal_node_id": "0.0-60.0-1.0", "time_elapsed": 561862, "key_press": -1, "trial_index": 79}, "uniqueid": "MTK1377:3LUY3GC6307LMWPGBIZ3QBV0KX77P9", "dateTime": 1515870903647}, {"current_trial": 80, "trialdata": {"rt": -1, "trial_type": "single-stim", "stimulus": "<p id=\"stim\">8</p>", "internal_node_id": "0.0-60.0-2.0", "time_elapsed": 562863, "key_press": -1, "trial_index": 80}, "uniqueid": "MTK1377:3LUY3GC6307LMWPGBIZ3QBV0KX77P9", "dateTime": 1515870904648}, {"current_trial": 81, "trialdata": {"rt": -1, "trial_type": "single-stim", "stimulus": "<p id=\"stim\">7</p>", "internal_node_id": "0.0-60.0-3.0", "time_elapsed": 563864, "key_press": -1, "trial_index": 81}, "uniqueid": "MTK1377:3LUY3GC6307LMWPGBIZ3QBV0KX77P9", "dateTime": 1515870905649}, {"current_trial": 82, "trialdata": {"rt": -1, "trial_type": "single-stim", "stimulus": "<p id=\"stim\">6</p>", "internal_node_id": "0.0-60.0-4.0", "time_elapsed": 564865, "key_press": -1, "trial_index": 82}, "uniqueid": "MTK1377:3LUY3GC6307LMWPGBIZ3QBV0KX77P9", "dateTime": 1515870906650}, {"current_trial": 83, "trialdata": {"rt": -1, "trial_type": "single-stim", "stimulus": "<p id=\"stim\">5</p>", "internal_node_id": "0.0-60.0-5.0", "time_elapsed": 565866, "key_press": -1, "trial_index": 83}, "uniqueid": "MTK1377:3LUY3GC6307LMWPGBIZ3QBV0KX77P9", "dateTime": 1515870907651}, {"current_trial": 84, "trialdata": {"rt": -1, "trial_type": "single-stim", "stimulus": "<p id=\"stim\">4</p>", "internal_node_id": "0.0-60.0-6.0", "time_elapsed": 566867, "key_press": -1, "trial_index": 84}, "uniqueid": "MTK1377:3LUY3GC6307LMWPGBIZ3QBV0KX77P9", "dateTime": 1515870908652}, {"current_trial": 85, "trialdata": {"rt": -1, "trial_type": "single-stim", "stimulus": "<p id=\"stim\">3</p>", "internal_node_id": "0.0-60.0-7.0", "time_elapsed": 567868, "key_press": -1, "trial_index": 85}, "uniqueid": "MTK1377:3LUY3GC6307LMWPGBIZ3QBV0KX77P9", "dateTime": 1515870909653}, {"current_trial": 86, "trialdata": {"rt": -1, "trial_type": "single-stim", "stimulus": "<p id=\"stim\">2</p>", "internal_node_id": "0.0-60.0-8.0", "time_elapsed": 568869, "key_press": -1, "trial_index": 86}, "uniqueid": "MTK1377:3LUY3GC6307LMWPGBIZ3QBV0KX77P9", "dateTime": 1515870910654}, {"current_trial": 87, "trialdata": {"rt": -1, "trial_type": "single-stim", "stimulus": "<p id=\"stim\">1</p>", "internal_node_id": "0.0-60.0-9.0", "time_elapsed": 569870, "key_press": -1, "trial_index": 87}, "uniqueid": "MTK1377:3LUY3GC6307LMWPGBIZ3QBV0KX77P9", "dateTime": 1515870911655}, {"current_trial": 88, "trialdata": {"rt": -1, "trial_type": "single-stim", "stimulus": "<p id=\"stim\">+</p>", "internal_node_id": "0.0-61.0-0.0", "time_elapsed": 571371, "key_press": -1, "type": "FIXATION", "trial_index": 88}, "uniqueid": "MTK1377:3LUY3GC6307LMWPGBIZ3QBV0KX77P9", "dateTime": 1515870913156}, {"current_trial": 89, "trialdata": {"rt": -1, "trial_type": "single-stim", "word": "actress", "stimulus": "<p id=\"stim\">ACTRESS</p>", "conditions": [24, 1600, "v", 24000], "internal_node_id": "0.0-62.0", "trial": 2, "time_elapsed": 572972, "serialpos": 0, "key_press": -1, "wordID": 5, "type": "PRES_VIS", "trial_index": 89}, "uniqueid": "MTK1377:3LUY3GC6307LMWPGBIZ3QBV0KX77P9", "dateTime": 1515870914757}, {"current_trial": 90, "trialdata": {"rt": -1, "trial_type": "single-stim", "word": "tractor", "stimulus": "<p id=\"stim\">TRACTOR</p>", "conditions": [24, 1600, "v", 24000], "internal_node_id": "0.0-63.0", "trial": 2, "time_elapsed": 575646, "serialpos": 1, "key_press": -1, "wordID": 1492, "type": "PRES_VIS", "trial_index": 90}, "uniqueid": "MTK1377:3LUY3GC6307LMWPGBIZ3QBV0KX77P9", "dateTime": 1515870917431}, {"current_trial": 91, "trialdata": {"rt": -1, "trial_type": "single-stim", "word": "spider", "stimulus": "<p id=\"stim\">SPIDER</p>", "conditions": [24, 1600, "v", 24000], "internal_node_id": "0.0-64.0", "trial": 2, "time_elapsed": 578239, "serialpos": 2, "key_press": -1, "wordID": 1350, "type": "PRES_VIS", "trial_index": 91}, "uniqueid": "MTK1377:3LUY3GC6307LMWPGBIZ3QBV0KX77P9", "dateTime": 1515870920024}, {"current_trial": 92, "trialdata": {"rt": -1, "trial_type": "single-stim", "word": "office", "stimulus": "<p id=\"stim\">OFFICE</p>", "conditions": [24, 1600, "v", 24000], "internal_node_id": "0.0-65.0", "trial": 2, "time_elapsed": 580761, "serialpos": 3, "key_press": -1, "wordID": 971, "type": "PRES_VIS", "trial_index": 92}, "uniqueid": "MTK1377:3LUY3GC6307LMWPGBIZ3QBV0KX77P9", "dateTime": 1515870922546}, {"current_trial": 93, "trialdata": {"rt": -1, "trial_type": "single-stim", "word": "peanut", "stimulus": "<p id=\"stim\">PEANUT</p>", "conditions": [24, 1600, "v", 24000], "internal_node_id": "0.0-66.0", "trial": 2, "time_elapsed": 583258, "serialpos": 4, "key_press": -1, "wordID": 1031, "type": "PRES_VIS", "trial_index": 93}, "uniqueid": "MTK1377:3LUY3GC6307LMWPGBIZ3QBV0KX77P9", "dateTime": 1515870925043}, {"current_trial": 94, "trialdata": {"rt": -1, "trial_type": "single-stim", "word": "doughnut", "stimulus": "<p id=\"stim\">DOUGHNUT</p>", "conditions": [24, 1600, "v", 24000], "internal_node_id": "0.0-67.0", "trial": 2, "time_elapsed": 585893, "serialpos": 5, "key_press": -1, "wordID": 489, "type": "PRES_VIS", "trial_index": 94}, "uniqueid": "MTK1377:3LUY3GC6307LMWPGBIZ3QBV0KX77P9", "dateTime": 1515870927678}, {"current_trial": 95, "trialdata": {"rt": -1, "trial_type": "single-stim", "word": "antler", "stimulus": "<p id=\"stim\">ANTLER</p>", "conditions": [24, 1600, "v", 24000], "internal_node_id": "0.0-68.0", "trial": 2, "time_elapsed": 588617, "serialpos": 6, "key_press": -1, "wordID": 28, "type": "PRES_VIS", "trial_index": 95}, "uniqueid": "MTK1377:3LUY3GC6307LMWPGBIZ3QBV0KX77P9", "dateTime": 1515870930402}, {"current_trial": 96, "trialdata": {"rt": -1, "trial_type": "single-stim", "word": "cellar", "stimulus": "<p id=\"stim\">CELLAR</p>", "conditions": [24, 1600, "v", 24000], "internal_node_id": "0.0-69.0", "trial": 2, "time_elapsed": 591208, "serialpos": 7, "key_press": -1, "wordID": 266, "type": "PRES_VIS", "trial_index": 96}, "uniqueid": "MTK1377:3LUY3GC6307LMWPGBIZ3QBV0KX77P9", "dateTime": 1515870932993}, {"current_trial": 97, "trialdata": {"rt": -1, "trial_type": "single-stim", "word": "lizard", "stimulus": "<p id=\"stim\">LIZARD</p>", "conditions": [24, 1600, "v", 24000], "internal_node_id": "0.0-70.0", "trial": 2, "time_elapsed": 593938, "serialpos": 8, "key_press": -1, "wordID": 833, "type": "PRES_VIS", "trial_index": 97}, "uniqueid": "MTK1377:3LUY3GC6307LMWPGBIZ3QBV0KX77P9", "dateTime": 1515870935723}, {"current_trial": 98, "trialdata": {"rt": -1, "trial_type": "single-stim", "word": "snake", "stimulus": "<p id=\"stim\">SNAKE</p>", "conditions": [24, 1600, "v", 24000], "internal_node_id": "0.0-71.0", "trial": 2, "time_elapsed": 596541, "serialpos": 9, "key_press": -1, "wordID": 1332, "type": "PRES_VIS", "trial_index": 98}, "uniqueid": "MTK1377:3LUY3GC6307LMWPGBIZ3QBV0KX77P9", "dateTime": 1515870938326}, {"current_trial": 99, "trialdata": {"rt": -1, "trial_type": "single-stim", "word": "asia", "stimulus": "<p id=\"stim\">ASIA</p>", "conditions": [24, 1600, "v", 24000], "internal_node_id": "0.0-72.0", "trial": 2, "time_elapsed": 599088, "serialpos": 10, "key_press": -1, "wordID": 45, "type": "PRES_VIS", "trial_index": 99}, "uniqueid": "MTK1377:3LUY3GC6307LMWPGBIZ3QBV0KX77P9", "dateTime": 1515870940873}, {"current_trial": 100, "trialdata": {"rt": -1, "trial_type": "single-stim", "word": "basement", "stimulus": "<p id=\"stim\">BASEMENT</p>", "conditions": [24, 1600, "v", 24000], "internal_node_id": "0.0-73.0", "trial": 2, "time_elapsed": 601715, "serialpos": 11, "key_press": -1, "wordID": 93, "type": "PRES_VIS", "trial_index": 100}, "uniqueid": "MTK1377:3LUY3GC6307LMWPGBIZ3QBV0KX77P9", "dateTime": 1515870943500}, {"current_trial": 101, "trialdata": {"rt": -1, "trial_type": "single-stim", "word": "box", "stimulus": "<p id=\"stim\">BOX</p>", "conditions": [24, 1600, "v", 24000], "internal_node_id": "0.0-74.0", "trial": 2, "time_elapsed": 604259, "serialpos": 12, "key_press": -1, "wordID": 158, "type": "PRES_VIS", "trial_index": 101}, "uniqueid": "MTK1377:3LUY3GC6307LMWPGBIZ3QBV0KX77P9", "dateTime": 1515870946044}, {"current_trial": 102, "trialdata": {"rt": -1, "trial_type": "single-stim", "word": "candy", "stimulus": "<p id=\"stim\">CANDY</p>", "conditions": [24, 1600, "v", 24000], "internal_node_id": "0.0-75.0", "trial": 2, "time_elapsed": 606874, "serialpos": 13, "key_press": -1, "wordID": 229, "type": "PRES_VIS", "trial_index": 102}, "uniqueid": "MTK1377:3LUY3GC6307LMWPGBIZ3QBV0KX77P9", "dateTime": 1515870948659}, {"current_trial": 103, "trialdata": {"rt": -1, "trial_type": "single-stim", "word": "harp", "stimulus": "<p id=\"stim\">HARP</p>", "conditions": [24, 1600, "v", 24000], "internal_node_id": "0.0-76.0", "trial": 2, "time_elapsed": 609345, "serialpos": 14, "key_press": -1, "wordID": 688, "type": "PRES_VIS", "trial_index": 103}, "uniqueid": "MTK1377:3LUY3GC6307LMWPGBIZ3QBV0KX77P9", "dateTime": 1515870951130}, {"current_trial": 104, "trialdata": {"rt": -1, "trial_type": "single-stim", "word": "swimmer", "stimulus": "<p id=\"stim\">SWIMMER</p>", "conditions": [24, 1600, "v", 24000], "internal_node_id": "0.0-77.0", "trial": 2, "time_elapsed": 611804, "serialpos": 15, "key_press": -1, "wordID": 1419, "type": "PRES_VIS", "trial_index": 104}, "uniqueid": "MTK1377:3LUY3GC6307LMWPGBIZ3QBV0KX77P9", "dateTime": 1515870953589}, {"current_trial": 105, "trialdata": {"rt": -1, "trial_type": "single-stim", "word": "diver", "stimulus": "<p id=\"stim\">DIVER</p>", "conditions": [24, 1600, "v", 24000], "internal_node_id": "0.0-78.0", "trial": 2, "time_elapsed": 614343, "serialpos": 16, "key_press": -1, "wordID": 475, "type": "PRES_VIS", "trial_index": 105}, "uniqueid": "MTK1377:3LUY3GC6307LMWPGBIZ3QBV0KX77P9", "dateTime": 1515870956128}, {"current_trial": 106, "trialdata": {"rt": -1, "trial_type": "single-stim", "word": "pimple", "stimulus": "<p id=\"stim\">PIMPLE</p>", "conditions": [24, 1600, "v", 24000], "internal_node_id": "0.0-79.0", "trial": 2, "time_elapsed": 616766, "serialpos": 17, "key_press": -1, "wordID": 1070, "type": "PRES_VIS", "trial_index": 106}, "uniqueid": "MTK1377:3LUY3GC6307LMWPGBIZ3QBV0KX77P9", "dateTime": 1515870958551}, {"current_trial": 107, "trialdata": {"rt": -1, "trial_type": "single-stim", "word": "outdoors", "stimulus": "<p id=\"stim\">OUTDOORS</p>", "conditions": [24, 1600, "v", 24000], "internal_node_id": "0.0-80.0", "trial": 2, "time_elapsed": 619302, "serialpos": 18, "key_press": -1, "wordID": 986, "type": "PRES_VIS", "trial_index": 107}, "uniqueid": "MTK1377:3LUY3GC6307LMWPGBIZ3QBV0KX77P9", "dateTime": 1515870961087}, {"current_trial": 108, "trialdata": {"rt": -1, "trial_type": "single-stim", "word": "blouse", "stimulus": "<p id=\"stim\">BLOUSE</p>", "conditions": [24, 1600, "v", 24000], "internal_node_id": "0.0-81.0", "trial": 2, "time_elapsed": 621920, "serialpos": 19, "key_press": -1, "wordID": 138, "type": "PRES_VIS", "trial_index": 108}, "uniqueid": "MTK1377:3LUY3GC6307LMWPGBIZ3QBV0KX77P9", "dateTime": 1515870963705}, {"current_trial": 109, "trialdata": {"rt": -1, "trial_type": "single-stim", "word": "chipmunk", "stimulus": "<p id=\"stim\">CHIPMUNK</p>", "conditions": [24, 1600, "v", 24000], "internal_node_id": "0.0-82.0", "trial": 2, "time_elapsed": 624676, "serialpos": 20, "key_press": -1, "wordID": 303, "type": "PRES_VIS", "trial_index": 109}, "uniqueid": "MTK1377:3LUY3GC6307LMWPGBIZ3QBV0KX77P9", "dateTime": 1515870966461}, {"current_trial": 110, "trialdata": {"rt": -1, "trial_type": "single-stim", "word": "piston", "stimulus": "<p id=\"stim\">PISTON</p>", "conditions": [24, 1600, "v", 24000], "internal_node_id": "0.0-83.0", "trial": 2, "time_elapsed": 627361, "serialpos": 21, "key_press": -1, "wordID": 1075, "type": "PRES_VIS", "trial_index": 110}, "uniqueid": "MTK1377:3LUY3GC6307LMWPGBIZ3QBV0KX77P9", "dateTime": 1515870969146}, {"current_trial": 111, "trialdata": {"rt": -1, "trial_type": "single-stim", "word": "market", "stimulus": "<p id=\"stim\">MARKET</p>", "conditions": [24, 1600, "v", 24000], "internal_node_id": "0.0-84.0", "trial": 2, "time_elapsed": 630162, "serialpos": 22, "key_press": -1, "wordID": 870, "type": "PRES_VIS", "trial_index": 111}, "uniqueid": "MTK1377:3LUY3GC6307LMWPGBIZ3QBV0KX77P9", "dateTime": 1515870971947}, {"current_trial": 112, "trialdata": {"rt": -1, "trial_type": "single-stim", "word": "skirt", "stimulus": "<p id=\"stim\">SKIRT</p>", "conditions": [24, 1600, "v", 24000], "internal_node_id": "0.0-85.0", "trial": 2, "time_elapsed": 632947, "serialpos": 23, "key_press": -1, "wordID": 1318, "type": "PRES_VIS", "trial_index": 112}, "uniqueid": "MTK1377:3LUY3GC6307LMWPGBIZ3QBV0KX77P9", "dateTime": 1515870974732}, {"current_trial": 113, "trialdata": {"rt": -1, "trial_type": "single-stim", "stimulus": "", "internal_node_id": "0.0-86.0-0.0", "time_elapsed": 635147, "key_press": -1, "type": "PRE_RECALL_DELAY", "trial_index": 113}, "uniqueid": "MTK1377:3LUY3GC6307LMWPGBIZ3QBV0KX77P9", "dateTime": 1515870976932}, {"current_trial": 114, "trialdata": {"rt": -1000, "trial_type": "single-audio", "stimulus": "/static/audio/400Hz.wav", "internal_node_id": "0.0-87.0", "time_elapsed": 635648, "key_press": -1, "type": "PRE_RECALL_ALERT", "trial_index": 114}, "uniqueid": "MTK1377:3LUY3GC6307LMWPGBIZ3QBV0KX77P9", "dateTime": 1515870977433}, {"current_trial": 115, "trialdata": {"rt": [7533, 14622, 25790, 34477, 44150, 49421, 59909], "recwords": ["actress", "spider", "lizard", "snake", "chipmonk", "asia", "skirt"], "key_times": [1399, 2782, 3742, 4286, 4782, 5438, 5742, 7533, 8911, 10126, 10998, 11855, 12462, 12958, 14622, 15254, 15862, 16942, 17854, 18364, 19118, 21269, 23710, 25790, 27213, 28605, 29397, 29549, 30933, 31725, 32725, 34477, 36205, 37029, 37637, 38333, 39428, 40260, 40932, 41581, 44150, 45117, 45789, 46773, 47661, 49421, 50493, 51452, 52252, 53085, 55261, 59909], "trial_type": "free-recall", "conditions": [24, 1600, "v", 24000], "internal_node_id": "0.0-88.0-0.0", "key_presses": [65, 67, 84, 82, 69, 83, 83, 188, 83, 80, 73, 68, 69, 82, 188, 76, 73, 90, 65, 82, 83, 8, 68, 188, 83, 78, 65, 65, 8, 75, 69, 188, 67, 72, 73, 80, 77, 79, 78, 75, 188, 65, 83, 73, 65, 188, 83, 75, 73, 82, 84, 188], "trial": 2, "time_elapsed": 695651, "type": "FREE_RECALL", "trial_index": 115}, "uniqueid": "MTK1377:3LUY3GC6307LMWPGBIZ3QBV0KX77P9", "dateTime": 1515871037439}, {"current_trial": 116, "trialdata": {"rt": 2814, "trial_type": "text", "internal_node_id": "0.0-89.0", "time_elapsed": 700470, "key_press": 74, "type": "INSTRUCTIONS", "trial_index": 116}, "uniqueid": "MTK1377:3LUY3GC6307LMWPGBIZ3QBV0KX77P9", "dateTime": 1515871042255}, {"current_trial": 117, "trialdata": {"rt": [6389, 11021], "trial_type": "math-distractor", "key_times": [4582, 5470, 6389, 8885, 9885, 11021], "responses": ["20", "14"], "num2": [9, 3, 6], "num3": [4, 5, 8], "conditions": [12, 800, "v", 12000], "internal_node_id": "0.0-90.0", "key_presses": [50, 48, 13, 49, 52, 13], "trial": 3, "time_elapsed": 714474, "type": "DISTRACTOR", "trial_index": 117, "num1": [7, 6, 4]}, "uniqueid": "MTK1377:3LUY3GC6307LMWPGBIZ3QBV0KX77P9", "dateTime": 1515871056259}, {"current_trial": 118, "trialdata": {"rt": -1, "trial_type": "single-stim", "stimulus": "<p id=\"stim\">10</p>", "internal_node_id": "0.0-91.0-0.0", "time_elapsed": 717476, "key_press": -1, "trial_index": 118}, "uniqueid": "MTK1377:3LUY3GC6307LMWPGBIZ3QBV0KX77P9", "dateTime": 1515871059261}, {"current_trial": 119, "trialdata": {"rt": -1, "trial_type": "single-stim", "stimulus": "<p id=\"stim\">9</p>", "internal_node_id": "0.0-91.0-1.0", "time_elapsed": 718477, "key_press": -1, "trial_index": 119}, "uniqueid": "MTK1377:3LUY3GC6307LMWPGBIZ3QBV0KX77P9", "dateTime": 1515871060262}, {"current_trial": 120, "trialdata": {"rt": -1, "trial_type": "single-stim", "stimulus": "<p id=\"stim\">8</p>", "internal_node_id": "0.0-91.0-2.0", "time_elapsed": 719478, "key_press": -1, "trial_index": 120}, "uniqueid": "MTK1377:3LUY3GC6307LMWPGBIZ3QBV0KX77P9", "dateTime": 1515871061263}, {"current_trial": 121, "trialdata": {"rt": -1, "trial_type": "single-stim", "stimulus": "<p id=\"stim\">7</p>", "internal_node_id": "0.0-91.0-3.0", "time_elapsed": 720479, "key_press": -1, "trial_index": 121}, "uniqueid": "MTK1377:3LUY3GC6307LMWPGBIZ3QBV0KX77P9", "dateTime": 1515871062264}, {"current_trial": 122, "trialdata": {"rt": -1, "trial_type": "single-stim", "stimulus": "<p id=\"stim\">6</p>", "internal_node_id": "0.0-91.0-4.0", "time_elapsed": 721480, "key_press": -1, "trial_index": 122}, "uniqueid": "MTK1377:3LUY3GC6307LMWPGBIZ3QBV0KX77P9", "dateTime": 1515871063265}, {"current_trial": 123, "trialdata": {"rt": -1, "trial_type": "single-stim", "stimulus": "<p id=\"stim\">5</p>", "internal_node_id": "0.0-91.0-5.0", "time_elapsed": 722482, "key_press": -1, "trial_index": 123}, "uniqueid": "MTK1377:3LUY3GC6307LMWPGBIZ3QBV0KX77P9", "dateTime": 1515871064267}, {"current_trial": 124, "trialdata": {"rt": -1, "trial_type": "single-stim", "stimulus": "<p id=\"stim\">4</p>", "internal_node_id": "0.0-91.0-6.0", "time_elapsed": 723483, "key_press": -1, "trial_index": 124}, "uniqueid": "MTK1377:3LUY3GC6307LMWPGBIZ3QBV0KX77P9", "dateTime": 1515871065268}, {"current_trial": 125, "trialdata": {"rt": -1, "trial_type": "single-stim", "stimulus": "<p id=\"stim\">3</p>", "internal_node_id": "0.0-91.0-7.0", "time_elapsed": 724484, "key_press": -1, "trial_index": 125}, "uniqueid": "MTK1377:3LUY3GC6307LMWPGBIZ3QBV0KX77P9", "dateTime": 1515871066269}, {"current_trial": 126, "trialdata": {"rt": -1, "trial_type": "single-stim", "stimulus": "<p id=\"stim\">2</p>", "internal_node_id": "0.0-91.0-8.0", "time_elapsed": 725485, "key_press": -1, "trial_index": 126}, "uniqueid": "MTK1377:3LUY3GC6307LMWPGBIZ3QBV0KX77P9", "dateTime": 1515871067270}, {"current_trial": 127, "trialdata": {"rt": -1, "trial_type": "single-stim", "stimulus": "<p id=\"stim\">1</p>", "internal_node_id": "0.0-91.0-9.0", "time_elapsed": 726486, "key_press": -1, "trial_index": 127}, "uniqueid": "MTK1377:3LUY3GC6307LMWPGBIZ3QBV0KX77P9", "dateTime": 1515871068271}, {"current_trial": 128, "trialdata": {"rt": -1, "trial_type": "single-stim", "stimulus": "<p id=\"stim\">+</p>", "internal_node_id": "0.0-92.0-0.0", "time_elapsed": 727987, "key_press": -1, "type": "FIXATION", "trial_index": 128}, "uniqueid": "MTK1377:3LUY3GC6307LMWPGBIZ3QBV0KX77P9", "dateTime": 1515871069772}, {"current_trial": 129, "trialdata": {"rt": -1, "trial_type": "single-stim", "word": "police", "stimulus": "<p id=\"stim\">POLICE</p>", "conditions": [12, 800, "v", 12000], "internal_node_id": "0.0-93.0", "trial": 3, "time_elapsed": 728788, "serialpos": 0, "key_press": -1, "wordID": 1097, "type": "PRES_VIS", "trial_index": 129}, "uniqueid": "MTK1377:3LUY3GC6307LMWPGBIZ3QBV0KX77P9", "dateTime": 1515871070573}, {"current_trial": 130, "trialdata": {"rt": -1, "trial_type": "single-stim", "word": "patrol", "stimulus": "<p id=\"stim\">PATROL</p>", "conditions": [12, 800, "v", 12000], "internal_node_id": "0.0-94.0", "trial": 3, "time_elapsed": 730519, "serialpos": 1, "key_press": -1, "wordID": 1026, "type": "PRES_VIS", "trial_index": 130}, "uniqueid": "MTK1377:3LUY3GC6307LMWPGBIZ3QBV0KX77P9", "dateTime": 1515871072304}, {"current_trial": 131, "trialdata": {"rt": -1, "trial_type": "single-stim", "word": "leader", "stimulus": "<p id=\"stim\">LEADER</p>", "conditions": [12, 800, "v", 12000], "internal_node_id": "0.0-95.0", "trial": 3, "time_elapsed": 732399, "serialpos": 2, "key_press": -1, "wordID": 806, "type": "PRES_VIS", "trial_index": 131}, "uniqueid": "MTK1377:3LUY3GC6307LMWPGBIZ3QBV0KX77P9", "dateTime": 1515871074184}, {"current_trial": 132, "trialdata": {"rt": -1, "trial_type": "single-stim", "word": "lady", "stimulus": "<p id=\"stim\">LADY</p>", "conditions": [12, 800, "v", 12000], "internal_node_id": "0.0-96.0", "trial": 3, "time_elapsed": 734278, "serialpos": 3, "key_press": -1, "wordID": 793, "type": "PRES_VIS", "trial_index": 132}, "uniqueid": "MTK1377:3LUY3GC6307LMWPGBIZ3QBV0KX77P9", "dateTime": 1515871076063}, {"current_trial": 133, "trialdata": {"rt": -1, "trial_type": "single-stim", "word": "critic", "stimulus": "<p id=\"stim\">CRITIC</p>", "conditions": [12, 800, "v", 12000], "internal_node_id": "0.0-97.0", "trial": 3, "time_elapsed": 736089, "serialpos": 4, "key_press": -1, "wordID": 409, "type": "PRES_VIS", "trial_index": 133}, "uniqueid": "MTK1377:3LUY3GC6307LMWPGBIZ3QBV0KX77P9", "dateTime": 1515871077874}, {"current_trial": 134, "trialdata": {"rt": -1, "trial_type": "single-stim", "word": "judge", "stimulus": "<p id=\"stim\">JUDGE</p>", "conditions": [12, 800, "v", 12000], "internal_node_id": "0.0-98.0", "trial": 3, "time_elapsed": 737788, "serialpos": 5, "key_press": -1, "wordID": 760, "type": "PRES_VIS", "trial_index": 134}, "uniqueid": "MTK1377:3LUY3GC6307LMWPGBIZ3QBV0KX77P9", "dateTime": 1515871079573}, {"current_trial": 135, "trialdata": {"rt": -1, "trial_type": "single-stim", "word": "college", "stimulus": "<p id=\"stim\">COLLEGE</p>", "conditions": [12, 800, "v", 12000], "internal_node_id": "0.0-99.0", "trial": 3, "time_elapsed": 739617, "serialpos": 6, "key_press": -1, "wordID": 345, "type": "PRES_VIS", "trial_index": 135}, "uniqueid": "MTK1377:3LUY3GC6307LMWPGBIZ3QBV0KX77P9", "dateTime": 1515871081402}, {"current_trial": 136, "trialdata": {"rt": -1, "trial_type": "single-stim", "word": "partner", "stimulus": "<p id=\"stim\">PARTNER</p>", "conditions": [12, 800, "v", 12000], "internal_node_id": "0.0-100.0", "trial": 3, "time_elapsed": 741331, "serialpos": 7, "key_press": -1, "wordID": 1016, "type": "PRES_VIS", "trial_index": 136}, "uniqueid": "MTK1377:3LUY3GC6307LMWPGBIZ3QBV0KX77P9", "dateTime": 1515871083116}, {"current_trial": 137, "trialdata": {"rt": -1, "trial_type": "single-stim", "word": "jury", "stimulus": "<p id=\"stim\">JURY</p>", "conditions": [12, 800, "v", 12000], "internal_node_id": "0.0-101.0", "trial": 3, "time_elapsed": 743184, "serialpos": 8, "key_press": -1, "wordID": 765, "type": "PRES_VIS", "trial_index": 137}, "uniqueid": "MTK1377:3LUY3GC6307LMWPGBIZ3QBV0KX77P9", "dateTime": 1515871084969}, {"current_trial": 138, "trialdata": {"rt": -1, "trial_type": "single-stim", "word": "dragon", "stimulus": "<p id=\"stim\">DRAGON</p>", "conditions": [12, 800, "v", 12000], "internal_node_id": "0.0-102.0", "trial": 3, "time_elapsed": 745035, "serialpos": 9, "key_press": -1, "wordID": 491, "type": "PRES_VIS", "trial_index": 138}, "uniqueid": "MTK1377:3LUY3GC6307LMWPGBIZ3QBV0KX77P9", "dateTime": 1515871086820}, {"current_trial": 139, "trialdata": {"rt": -1, "trial_type": "single-stim", "word": "turtle", "stimulus": "<p id=\"stim\">TURTLE</p>", "conditions": [12, 800, "v", 12000], "internal_node_id": "0.0-103.0", "trial": 3, "time_elapsed": 746977, "serialpos": 10, "key_press": -1, "wordID": 1521, "type": "PRES_VIS", "trial_index": 139}, "uniqueid": "MTK1377:3LUY3GC6307LMWPGBIZ3QBV0KX77P9", "dateTime": 1515871088762}, {"current_trial": 140, "trialdata": {"rt": -1, "trial_type": "single-stim", "word": "seal", "stimulus": "<p id=\"stim\">SEAL</p>", "conditions": [12, 800, "v", 12000], "internal_node_id": "0.0-104.0", "trial": 3, "time_elapsed": 748714, "serialpos": 11, "key_press": -1, "wordID": 1261, "type": "PRES_VIS", "trial_index": 140}, "uniqueid": "MTK1377:3LUY3GC6307LMWPGBIZ3QBV0KX77P9", "dateTime": 1515871090499}, {"current_trial": 141, "trialdata": {"rt": -1, "trial_type": "single-stim", "stimulus": "", "internal_node_id": "0.0-105.0-0.0", "time_elapsed": 751093, "key_press": -1, "type": "PRE_RECALL_DELAY", "trial_index": 141}, "uniqueid": "MTK1377:3LUY3GC6307LMWPGBIZ3QBV0KX77P9", "dateTime": 1515871092879}, {"current_trial": 142, "trialdata": {"rt": -1000, "trial_type": "single-audio", "stimulus": "/static/audio/400Hz.wav", "internal_node_id": "0.0-106.0", "time_elapsed": 751595, "key_press": -1, "type": "PRE_RECALL_ALERT", "trial_index": 142}, "uniqueid": "MTK1377:3LUY3GC6307LMWPGBIZ3QBV0KX77P9", "dateTime": 1515871093380}, {"current_trial": 143, "trialdata": {"rt": [6930, 16698, 23107, 31273], "recwords": ["police", "potrol", "lady", "judge"], "key_times": [1403, 2259, 2826, 3602, 4706, 5331, 6930, 7730, 8282, 9210, 12546, 13689, 15090, 16698, 17851, 18747, 19603, 20443, 23107, 24018, 24563, 26362, 27458, 28514, 31273], "trial_type": "free-recall", "conditions": [12, 800, "v", 12000], "internal_node_id": "0.0-107.0-0.0", "key_presses": [80, 79, 76, 73, 67, 69, 188, 80, 79, 84, 82, 79, 76, 188, 76, 65, 68, 89, 188, 74, 85, 68, 71, 69, 188], "trial": 3, "time_elapsed": 811599, "type": "FREE_RECALL", "trial_index": 143}, "uniqueid": "MTK1377:3LUY3GC6307LMWPGBIZ3QBV0KX77P9", "dateTime": 1515871153387}, {"current_trial": 144, "trialdata": {"rt": 1883, "trial_type": "text", "internal_node_id": "0.0-108.0", "time_elapsed": 815486, "key_press": 72, "type": "INSTRUCTIONS", "trial_index": 144}, "uniqueid": "MTK1377:3LUY3GC6307LMWPGBIZ3QBV0KX77P9", "dateTime": 1515871157271}, {"current_trial": 145, "trialdata": {"rt": [5846, 10869], "trial_type": "math-distractor", "key_times": [3134, 4150, 5846, 8750, 9534, 10869], "responses": ["20", "12"], "num2": [8, 1, 7], "num3": [6, 9, 1], "conditions": [24, 1600, "v", 12000], "internal_node_id": "0.0-109.0", "key_presses": [50, 48, 13, 49, 50, 13], "trial": 4, "time_elapsed": 829490, "type": "DISTRACTOR", "trial_index": 145, "num1": [6, 2, 7]}, "uniqueid": "MTK1377:3LUY3GC6307LMWPGBIZ3QBV0KX77P9", "dateTime": 1515871171276}, {"current_trial": 146, "trialdata": {"rt": -1, "trial_type": "single-stim", "stimulus": "<p id=\"stim\">10</p>", "internal_node_id": "0.0-110.0-0.0", "time_elapsed": 832493, "key_press": -1, "trial_index": 146}, "uniqueid": "MTK1377:3LUY3GC6307LMWPGBIZ3QBV0KX77P9", "dateTime": 1515871174278}, {"current_trial": 147, "trialdata": {"rt": -1, "trial_type": "single-stim", "stimulus": "<p id=\"stim\">9</p>", "internal_node_id": "0.0-110.0-1.0", "time_elapsed": 833494, "key_press": -1, "trial_index": 147}, "uniqueid": "MTK1377:3LUY3GC6307LMWPGBIZ3QBV0KX77P9", "dateTime": 1515871175279}, {"current_trial": 148, "trialdata": {"rt": -1, "trial_type": "single-stim", "stimulus": "<p id=\"stim\">8</p>", "internal_node_id": "0.0-110.0-2.0", "time_elapsed": 834495, "key_press": -1, "trial_index": 148}, "uniqueid": "MTK1377:3LUY3GC6307LMWPGBIZ3QBV0KX77P9", "dateTime": 1515871176280}, {"current_trial": 149, "trialdata": {"rt": -1, "trial_type": "single-stim", "stimulus": "<p id=\"stim\">7</p>", "internal_node_id": "0.0-110.0-3.0", "time_elapsed": 835496, "key_press": -1, "trial_index": 149}, "uniqueid": "MTK1377:3LUY3GC6307LMWPGBIZ3QBV0KX77P9", "dateTime": 1515871177281}, {"current_trial": 150, "trialdata": {"rt": -1, "trial_type": "single-stim", "stimulus": "<p id=\"stim\">6</p>", "internal_node_id": "0.0-110.0-4.0", "time_elapsed": 836498, "key_press": -1, "trial_index": 150}, "uniqueid": "MTK1377:3LUY3GC6307LMWPGBIZ3QBV0KX77P9", "dateTime": 1515871178283}, {"current_trial": 151, "trialdata": {"rt": -1, "trial_type": "single-stim", "stimulus": "<p id=\"stim\">5</p>", "internal_node_id": "0.0-110.0-5.0", "time_elapsed": 837499, "key_press": -1, "trial_index": 151}, "uniqueid": "MTK1377:3LUY3GC6307LMWPGBIZ3QBV0KX77P9", "dateTime": 1515871179284}, {"current_trial": 152, "trialdata": {"rt": -1, "trial_type": "single-stim", "stimulus": "<p id=\"stim\">4</p>", "internal_node_id": "0.0-110.0-6.0", "time_elapsed": 838500, "key_press": -1, "trial_index": 152}, "uniqueid": "MTK1377:3LUY3GC6307LMWPGBIZ3QBV0KX77P9", "dateTime": 1515871180285}, {"current_trial": 153, "trialdata": {"rt": -1, "trial_type": "single-stim", "stimulus": "<p id=\"stim\">3</p>", "internal_node_id": "0.0-110.0-7.0", "time_elapsed": 839501, "key_press": -1, "trial_index": 153}, "uniqueid": "MTK1377:3LUY3GC6307LMWPGBIZ3QBV0KX77P9", "dateTime": 1515871181286}, {"current_trial": 154, "trialdata": {"rt": -1, "trial_type": "single-stim", "stimulus": "<p id=\"stim\">2</p>", "internal_node_id": "0.0-110.0-8.0", "time_elapsed": 840502, "key_press": -1, "trial_index": 154}, "uniqueid": "MTK1377:3LUY3GC6307LMWPGBIZ3QBV0KX77P9", "dateTime": 1515871182287}, {"current_trial": 155, "trialdata": {"rt": -1, "trial_type": "single-stim", "stimulus": "<p id=\"stim\">1</p>", "internal_node_id": "0.0-110.0-9.0", "time_elapsed": 841503, "key_press": -1, "trial_index": 155}, "uniqueid": "MTK1377:3LUY3GC6307LMWPGBIZ3QBV0KX77P9", "dateTime": 1515871183288}, {"current_trial": 156, "trialdata": {"rt": -1, "trial_type": "single-stim", "stimulus": "<p id=\"stim\">+</p>", "internal_node_id": "0.0-111.0-0.0", "time_elapsed": 843005, "key_press": -1, "type": "FIXATION", "trial_index": 156}, "uniqueid": "MTK1377:3LUY3GC6307LMWPGBIZ3QBV0KX77P9", "dateTime": 1515871184790}, {"current_trial": 157, "trialdata": {"rt": -1, "trial_type": "single-stim", "word": "lover", "stimulus": "<p id=\"stim\">LOVER</p>", "conditions": [24, 1600, "v", 12000], "internal_node_id": "0.0-112.0", "trial": 4, "time_elapsed": 844606, "serialpos": 0, "key_press": -1, "wordID": 845, "type": "PRES_VIS", "trial_index": 157}, "uniqueid": "MTK1377:3LUY3GC6307LMWPGBIZ3QBV0KX77P9", "dateTime": 1515871186391}, {"current_trial": 158, "trialdata": {"rt": -1, "trial_type": "single-stim", "word": "bubble", "stimulus": "<p id=\"stim\">BUBBLE</p>", "conditions": [24, 1600, "v", 12000], "internal_node_id": "0.0-113.0", "trial": 4, "time_elapsed": 847115, "serialpos": 1, "key_press": -1, "wordID": 182, "type": "PRES_VIS", "trial_index": 158}, "uniqueid": "MTK1377:3LUY3GC6307LMWPGBIZ3QBV0KX77P9", "dateTime": 1515871188900}, {"current_trial": 159, "trialdata": {"rt": -1, "trial_type": "single-stim", "word": "scarecrow", "stimulus": "<p id=\"stim\">SCARECROW</p>", "conditions": [24, 1600, "v", 12000], "internal_node_id": "0.0-114.0", "trial": 4, "time_elapsed": 849666, "serialpos": 2, "key_press": -1, "wordID": 1244, "type": "PRES_VIS", "trial_index": 159}, "uniqueid": "MTK1377:3LUY3GC6307LMWPGBIZ3QBV0KX77P9", "dateTime": 1515871191451}, {"current_trial": 160, "trialdata": {"rt": -1, "trial_type": "single-stim", "word": "banker", "stimulus": "<p id=\"stim\">BANKER</p>", "conditions": [24, 1600, "v", 12000], "internal_node_id": "0.0-115.0", "trial": 4, "time_elapsed": 852079, "serialpos": 3, "key_press": -1, "wordID": 83, "type": "PRES_VIS", "trial_index": 160}, "uniqueid": "MTK1377:3LUY3GC6307LMWPGBIZ3QBV0KX77P9", "dateTime": 1515871193864}, {"current_trial": 161, "trialdata": {"rt": -1, "trial_type": "single-stim", "word": "crown", "stimulus": "<p id=\"stim\">CROWN</p>", "conditions": [24, 1600, "v", 12000], "internal_node_id": "0.0-116.0", "trial": 4, "time_elapsed": 854780, "serialpos": 4, "key_press": -1, "wordID": 414, "type": "PRES_VIS", "trial_index": 161}, "uniqueid": "MTK1377:3LUY3GC6307LMWPGBIZ3QBV0KX77P9", "dateTime": 1515871196565}, {"current_trial": 162, "trialdata": {"rt": -1, "trial_type": "single-stim", "word": "brook", "stimulus": "<p id=\"stim\">BROOK</p>", "conditions": [24, 1600, "v", 12000], "internal_node_id": "0.0-117.0", "trial": 4, "time_elapsed": 857373, "serialpos": 5, "key_press": -1, "wordID": 176, "type": "PRES_VIS", "trial_index": 162}, "uniqueid": "MTK1377:3LUY3GC6307LMWPGBIZ3QBV0KX77P9", "dateTime": 1515871199158}, {"current_trial": 163, "trialdata": {"rt": -1, "trial_type": "single-stim", "word": "river", "stimulus": "<p id=\"stim\">RIVER</p>", "conditions": [24, 1600, "v", 12000], "internal_node_id": "0.0-118.0", "trial": 4, "time_elapsed": 859987, "serialpos": 6, "key_press": -1, "wordID": 1193, "type": "PRES_VIS", "trial_index": 163}, "uniqueid": "MTK1377:3LUY3GC6307LMWPGBIZ3QBV0KX77P9", "dateTime": 1515871201772}, {"current_trial": 164, "trialdata": {"rt": -1, "trial_type": "single-stim", "word": "empire", "stimulus": "<p id=\"stim\">EMPIRE</p>", "conditions": [24, 1600, "v", 12000], "internal_node_id": "0.0-119.0", "trial": 4, "time_elapsed": 862759, "serialpos": 7, "key_press": -1, "wordID": 529, "type": "PRES_VIS", "trial_index": 164}, "uniqueid": "MTK1377:3LUY3GC6307LMWPGBIZ3QBV0KX77P9", "dateTime": 1515871204544}, {"current_trial": 165, "trialdata": {"rt": -1, "trial_type": "single-stim", "word": "silk", "stimulus": "<p id=\"stim\">SILK</p>", "conditions": [24, 1600, "v", 12000], "internal_node_id": "0.0-120.0", "trial": 4, "time_elapsed": 865356, "serialpos": 8, "key_press": -1, "wordID": 1306, "type": "PRES_VIS", "trial_index": 165}, "uniqueid": "MTK1377:3LUY3GC6307LMWPGBIZ3QBV0KX77P9", "dateTime": 1515871207141}, {"current_trial": 166, "trialdata": {"rt": -1, "trial_type": "single-stim", "word": "pigment", "stimulus": "<p id=\"stim\">PIGMENT</p>", "conditions": [24, 1600, "v", 12000], "internal_node_id": "0.0-121.0", "trial": 4, "time_elapsed": 867844, "serialpos": 9, "key_press": -1, "wordID": 1065, "type": "PRES_VIS", "trial_index": 166}, "uniqueid": "MTK1377:3LUY3GC6307LMWPGBIZ3QBV0KX77P9", "dateTime": 1515871209629}, {"current_trial": 167, "trialdata": {"rt": -1, "trial_type": "single-stim", "word": "friend", "stimulus": "<p id=\"stim\">FRIEND</p>", "conditions": [24, 1600, "v", 12000], "internal_node_id": "0.0-122.0", "trial": 4, "time_elapsed": 870395, "serialpos": 10, "key_press": -1, "wordID": 605, "type": "PRES_VIS", "trial_index": 167}, "uniqueid": "MTK1377:3LUY3GC6307LMWPGBIZ3QBV0KX77P9", "dateTime": 1515871212180}, {"current_trial": 168, "trialdata": {"rt": -1, "trial_type": "single-stim", "word": "daughter", "stimulus": "<p id=\"stim\">DAUGHTER</p>", "conditions": [24, 1600, "v", 12000], "internal_node_id": "0.0-123.0", "trial": 4, "time_elapsed": 873083, "serialpos": 11, "key_press": -1, "wordID": 441, "type": "PRES_VIS", "trial_index": 168}, "uniqueid": "MTK1377:3LUY3GC6307LMWPGBIZ3QBV0KX77P9", "dateTime": 1515871214869}, {"current_trial": 169, "trialdata": {"rt": -1, "trial_type": "single-stim", "word": "drink", "stimulus": "<p id=\"stim\">DRINK</p>", "conditions": [24, 1600, "v", 12000], "internal_node_id": "0.0-124.0", "trial": 4, "time_elapsed": 875788, "serialpos": 12, "key_press": -1, "wordID": 497, "type": "PRES_VIS", "trial_index": 169}, "uniqueid": "MTK1377:3LUY3GC6307LMWPGBIZ3QBV0KX77P9", "dateTime": 1515871217574}, {"current_trial": 170, "trialdata": {"rt": -1, "trial_type": "single-stim", "word": "gangster", "stimulus": "<p id=\"stim\">GANGSTER</p>", "conditions": [24, 1600, "v", 12000], "internal_node_id": "0.0-125.0", "trial": 4, "time_elapsed": 878315, "serialpos": 13, "key_press": -1, "wordID": 619, "type": "PRES_VIS", "trial_index": 170}, "uniqueid": "MTK1377:3LUY3GC6307LMWPGBIZ3QBV0KX77P9", "dateTime": 1515871220100}, {"current_trial": 171, "trialdata": {"rt": -1, "trial_type": "single-stim", "word": "thief", "stimulus": "<p id=\"stim\">THIEF</p>", "conditions": [24, 1600, "v", 12000], "internal_node_id": "0.0-126.0", "trial": 4, "time_elapsed": 880879, "serialpos": 14, "key_press": -1, "wordID": 1455, "type": "PRES_VIS", "trial_index": 171}, "uniqueid": "MTK1377:3LUY3GC6307LMWPGBIZ3QBV0KX77P9", "dateTime": 1515871222664}, {"current_trial": 172, "trialdata": {"rt": -1, "trial_type": "single-stim", "word": "zebra", "stimulus": "<p id=\"stim\">ZEBRA</p>", "conditions": [24, 1600, "v", 12000], "internal_node_id": "0.0-127.0", "trial": 4, "time_elapsed": 883615, "serialpos": 15, "key_press": -1, "wordID": 1634, "type": "PRES_VIS", "trial_index": 172}, "uniqueid": "MTK1377:3LUY3GC6307LMWPGBIZ3QBV0KX77P9", "dateTime": 1515871225400}, {"current_trial": 173, "trialdata": {"rt": -1, "trial_type": "single-stim", "word": "money", "stimulus": "<p id=\"stim\">MONEY</p>", "conditions": [24, 1600, "v", 12000], "internal_node_id": "0.0-128.0", "trial": 4, "time_elapsed": 886373, "serialpos": 16, "key_press": -1, "wordID": 907, "type": "PRES_VIS", "trial_index": 173}, "uniqueid": "MTK1377:3LUY3GC6307LMWPGBIZ3QBV0KX77P9", "dateTime": 1515871228158}, {"current_trial": 174, "trialdata": {"rt": -1, "trial_type": "single-stim", "word": "breast", "stimulus": "<p id=\"stim\">BREAST</p>", "conditions": [24, 1600, "v", 12000], "internal_node_id": "0.0-129.0", "trial": 4, "time_elapsed": 889048, "serialpos": 17, "key_press": -1, "wordID": 170, "type": "PRES_VIS", "trial_index": 174}, "uniqueid": "MTK1377:3LUY3GC6307LMWPGBIZ3QBV0KX77P9", "dateTime": 1515871230833}, {"current_trial": 175, "trialdata": {"rt": -1, "trial_type": "single-stim", "word": "garden", "stimulus": "<p id=\"stim\">GARDEN</p>", "conditions": [24, 1600, "v", 12000], "internal_node_id": "0.0-130.0", "trial": 4, "time_elapsed": 891468, "serialpos": 18, "key_press": -1, "wordID": 622, "type": "PRES_VIS", "trial_index": 175}, "uniqueid": "MTK1377:3LUY3GC6307LMWPGBIZ3QBV0KX77P9", "dateTime": 1515871233253}, {"current_trial": 176, "trialdata": {"rt": -1, "trial_type": "single-stim", "word": "smog", "stimulus": "<p id=\"stim\">SMOG</p>", "conditions": [24, 1600, "v", 12000], "internal_node_id": "0.0-131.0", "trial": 4, "time_elapsed": 894164, "serialpos": 19, "key_press": -1, "wordID": 1329, "type": "PRES_VIS", "trial_index": 176}, "uniqueid": "MTK1377:3LUY3GC6307LMWPGBIZ3QBV0KX77P9", "dateTime": 1515871235949}, {"current_trial": 177, "trialdata": {"rt": -1, "trial_type": "single-stim", "word": "ozone", "stimulus": "<p id=\"stim\">OZONE</p>", "conditions": [24, 1600, "v", 12000], "internal_node_id": "0.0-132.0", "trial": 4, "time_elapsed": 896709, "serialpos": 20, "key_press": -1, "wordID": 995, "type": "PRES_VIS", "trial_index": 177}, "uniqueid": "MTK1377:3LUY3GC6307LMWPGBIZ3QBV0KX77P9", "dateTime": 1515871238494}, {"current_trial": 178, "trialdata": {"rt": -1, "trial_type": "single-stim", "word": "pocket", "stimulus": "<p id=\"stim\">POCKET</p>", "conditions": [24, 1600, "v", 12000], "internal_node_id": "0.0-133.0", "trial": 4, "time_elapsed": 899245, "serialpos": 21, "key_press": -1, "wordID": 1092, "type": "PRES_VIS", "trial_index": 178}, "uniqueid": "MTK1377:3LUY3GC6307LMWPGBIZ3QBV0KX77P9", "dateTime": 1515871241030}, {"current_trial": 179, "trialdata": {"rt": -1, "trial_type": "single-stim", "word": "flower", "stimulus": "<p id=\"stim\">FLOWER</p>", "conditions": [24, 1600, "v", 12000], "internal_node_id": "0.0-134.0", "trial": 4, "time_elapsed": 901771, "serialpos": 22, "key_press": -1, "wordID": 583, "type": "PRES_VIS", "trial_index": 179}, "uniqueid": "MTK1377:3LUY3GC6307LMWPGBIZ3QBV0KX77P9", "dateTime": 1515871243556}, {"current_trial": 180, "trialdata": {"rt": -1, "trial_type": "single-stim", "word": "twister", "stimulus": "<p id=\"stim\">TWISTER</p>", "conditions": [24, 1600, "v", 12000], "internal_node_id": "0.0-135.0", "trial": 4, "time_elapsed": 904418, "serialpos": 23, "key_press": -1, "wordID": 1529, "type": "PRES_VIS", "trial_index": 180}, "uniqueid": "MTK1377:3LUY3GC6307LMWPGBIZ3QBV0KX77P9", "dateTime": 1515871246203}, {"current_trial": 181, "trialdata": {"rt": -1, "trial_type": "single-stim", "stimulus": "", "internal_node_id": "0.0-136.0-0.0", "time_elapsed": 906882, "key_press": -1, "type": "PRE_RECALL_DELAY", "trial_index": 181}, "uniqueid": "MTK1377:3LUY3GC6307LMWPGBIZ3QBV0KX77P9", "dateTime": 1515871248667}, {"current_trial": 182, "trialdata": {"rt": -1000, "trial_type": "single-audio", "stimulus": "/static/audio/400Hz.wav", "internal_node_id": "0.0-137.0", "time_elapsed": 907383, "key_press": -1, "type": "PRE_RECALL_ALERT", "trial_index": 182}, "uniqueid": "MTK1377:3LUY3GC6307LMWPGBIZ3QBV0KX77P9", "dateTime": 1515871249168}, {"current_trial": 183, "trialdata": {"rt": [7469, 19525, 28933, 37549, 53597], "recwords": ["lover", "bubble", "daughter", "ozone", "scarcrow"], "key_times": [1982, 3085, 4581, 5421, 5885, 7469, 8534, 9477, 10741, 13181, 14196, 16509, 19525, 21061, 22613, 23622, 24565, 25349, 26109, 26901, 27381, 28933, 30157, 31941, 32844, 33679, 35493, 37549, 43085, 44277, 45293, 46405, 47181, 48005, 49317, 50317, 53597, 56908, 57764, 58732, 59412], "trial_type": "free-recall", "conditions": [24, 1600, "v", 12000], "internal_node_id": "0.0-138.0-0.0", "key_presses": [76, 79, 86, 69, 82, 188, 66, 85, 66, 66, 76, 69, 188, 68, 65, 85, 71, 72, 84, 69, 82, 188, 79, 90, 79, 78, 69, 188, 83, 67, 65, 82, 67, 82, 79, 87, 188, 71, 65, 78, 71], "trial": 4, "time_elapsed": 967387, "type": "FREE_RECALL", "trial_index": 183}, "uniqueid": "MTK1377:3LUY3GC6307LMWPGBIZ3QBV0KX77P9", "dateTime": 1515871309176}, {"current_trial": 184, "trialdata": {"rt": 1628, "trial_type": "text", "internal_node_id": "0.0-139.0", "time_elapsed": 971022, "key_press": 79, "type": "INSTRUCTIONS", "trial_index": 184}, "uniqueid": "MTK1377:3LUY3GC6307LMWPGBIZ3QBV0KX77P9", "dateTime": 1515871312807}, {"current_trial": 185, "trialdata": {"rt": [5228, 8508, 12835, 16691, 21748], "trial_type": "math-distractor", "key_times": [2965, 4132, 5228, 7588, 8508, 11172, 11699, 12835, 14956, 15587, 16691, 19851, 20860, 21748, 23876], "responses": ["18", "8", "12", "13", "26"], "num2": [6, 3, 2, 4, 9, 2], "num3": [3, 4, 6, 3, 8, 7], "conditions": [12, 800, "v", 24000], "internal_node_id": "0.0-140.0", "key_presses": [49, 56, 13, 56, 13, 49, 50, 13, 49, 51, 13, 50, 54, 13, 49], "trial": 5, "time_elapsed": 997027, "type": "DISTRACTOR", "trial_index": 185, "num1": [9, 1, 4, 6, 9, 5]}, "uniqueid": "MTK1377:3LUY3GC6307LMWPGBIZ3QBV0KX77P9", "dateTime": 1515871338812}, {"current_trial": 186, "trialdata": {"rt": -1, "trial_type": "single-stim", "stimulus": "<p id=\"stim\">10</p>", "internal_node_id": "0.0-141.0-0.0", "time_elapsed": 1000029, "key_press": -1, "trial_index": 186}, "uniqueid": "MTK1377:3LUY3GC6307LMWPGBIZ3QBV0KX77P9", "dateTime": 1515871341814}, {"current_trial": 187, "trialdata": {"rt": -1, "trial_type": "single-stim", "stimulus": "<p id=\"stim\">9</p>", "internal_node_id": "0.0-141.0-1.0", "time_elapsed": 1001030, "key_press": -1, "trial_index": 187}, "uniqueid": "MTK1377:3LUY3GC6307LMWPGBIZ3QBV0KX77P9", "dateTime": 1515871342815}, {"current_trial": 188, "trialdata": {"rt": -1, "trial_type": "single-stim", "stimulus": "<p id=\"stim\">8</p>", "internal_node_id": "0.0-141.0-2.0", "time_elapsed": 1002031, "key_press": -1, "trial_index": 188}, "uniqueid": "MTK1377:3LUY3GC6307LMWPGBIZ3QBV0KX77P9", "dateTime": 1515871343816}, {"current_trial": 189, "trialdata": {"rt": -1, "trial_type": "single-stim", "stimulus": "<p id=\"stim\">7</p>", "internal_node_id": "0.0-141.0-3.0", "time_elapsed": 1003032, "key_press": -1, "trial_index": 189}, "uniqueid": "MTK1377:3LUY3GC6307LMWPGBIZ3QBV0KX77P9", "dateTime": 1515871344817}, {"current_trial": 190, "trialdata": {"rt": -1, "trial_type": "single-stim", "stimulus": "<p id=\"stim\">6</p>", "internal_node_id": "0.0-141.0-4.0", "time_elapsed": 1004036, "key_press": -1, "trial_index": 190}, "uniqueid": "MTK1377:3LUY3GC6307LMWPGBIZ3QBV0KX77P9", "dateTime": 1515871345822}, {"current_trial": 191, "trialdata": {"rt": -1, "trial_type": "single-stim", "stimulus": "<p id=\"stim\">5</p>", "internal_node_id": "0.0-141.0-5.0", "time_elapsed": 1005038, "key_press": -1, "trial_index": 191}, "uniqueid": "MTK1377:3LUY3GC6307LMWPGBIZ3QBV0KX77P9", "dateTime": 1515871346823}, {"current_trial": 192, "trialdata": {"rt": -1, "trial_type": "single-stim", "stimulus": "<p id=\"stim\">4</p>", "internal_node_id": "0.0-141.0-6.0", "time_elapsed": 1006039, "key_press": -1, "trial_index": 192}, "uniqueid": "MTK1377:3LUY3GC6307LMWPGBIZ3QBV0KX77P9", "dateTime": 1515871347824}, {"current_trial": 193, "trialdata": {"rt": -1, "trial_type": "single-stim", "stimulus": "<p id=\"stim\">3</p>", "internal_node_id": "0.0-141.0-7.0", "time_elapsed": 1007040, "key_press": -1, "trial_index": 193}, "uniqueid": "MTK1377:3LUY3GC6307LMWPGBIZ3QBV0KX77P9", "dateTime": 1515871348825}, {"current_trial": 194, "trialdata": {"rt": -1, "trial_type": "single-stim", "stimulus": "<p id=\"stim\">2</p>", "internal_node_id": "0.0-141.0-8.0", "time_elapsed": 1008041, "key_press": -1, "trial_index": 194}, "uniqueid": "MTK1377:3LUY3GC6307LMWPGBIZ3QBV0KX77P9", "dateTime": 1515871349829}, {"current_trial": 195, "trialdata": {"rt": -1, "trial_type": "single-stim", "stimulus": "<p id=\"stim\">1</p>", "internal_node_id": "0.0-141.0-9.0", "time_elapsed": 1009045, "key_press": -1, "trial_index": 195}, "uniqueid": "MTK1377:3LUY3GC6307LMWPGBIZ3QBV0KX77P9", "dateTime": 1515871350830}, {"current_trial": 196, "trialdata": {"rt": -1, "trial_type": "single-stim", "stimulus": "<p id=\"stim\">+</p>", "internal_node_id": "0.0-142.0-0.0", "time_elapsed": 1010546, "key_press": -1, "type": "FIXATION", "trial_index": 196}, "uniqueid": "MTK1377:3LUY3GC6307LMWPGBIZ3QBV0KX77P9", "dateTime": 1515871352331}, {"current_trial": 197, "trialdata": {"rt": -1, "trial_type": "single-stim", "word": "suitcase", "stimulus": "<p id=\"stim\">SUITCASE</p>", "conditions": [12, 800, "v", 24000], "internal_node_id": "0.0-143.0", "trial": 5, "time_elapsed": 1011348, "serialpos": 0, "key_press": -1, "wordID": 1402, "type": "PRES_VIS", "trial_index": 197}, "uniqueid": "MTK1377:3LUY3GC6307LMWPGBIZ3QBV0KX77P9", "dateTime": 1515871353133}, {"current_trial": 198, "trialdata": {"rt": -1, "trial_type": "single-stim", "word": "child", "stimulus": "<p id=\"stim\">CHILD</p>", "conditions": [12, 800, "v", 24000], "internal_node_id": "0.0-144.0", "trial": 5, "time_elapsed": 1013170, "serialpos": 1, "key_press": -1, "wordID": 298, "type": "PRES_VIS", "trial_index": 198}, "uniqueid": "MTK1377:3LUY3GC6307LMWPGBIZ3QBV0KX77P9", "dateTime": 1515871354955}, {"current_trial": 199, "trialdata": {"rt": -1, "trial_type": "single-stim", "word": "dentist", "stimulus": "<p id=\"stim\">DENTIST</p>", "conditions": [12, 800, "v", 24000], "internal_node_id": "0.0-145.0", "trial": 5, "time_elapsed": 1015085, "serialpos": 2, "key_press": -1, "wordID": 446, "type": "PRES_VIS", "trial_index": 199}, "uniqueid": "MTK1377:3LUY3GC6307LMWPGBIZ3QBV0KX77P9", "dateTime": 1515871356870}, {"current_trial": 200, "trialdata": {"rt": -1, "trial_type": "single-stim", "word": "widow", "stimulus": "<p id=\"stim\">WIDOW</p>", "conditions": [12, 800, "v", 24000], "internal_node_id": "0.0-146.0", "trial": 5, "time_elapsed": 1016963, "serialpos": 3, "key_press": -1, "wordID": 1607, "type": "PRES_VIS", "trial_index": 200}, "uniqueid": "MTK1377:3LUY3GC6307LMWPGBIZ3QBV0KX77P9", "dateTime": 1515871358749}, {"current_trial": 201, "trialdata": {"rt": -1, "trial_type": "single-stim", "word": "tortoise", "stimulus": "<p id=\"stim\">TORTOISE</p>", "conditions": [12, 800, "v", 24000], "internal_node_id": "0.0-147.0", "trial": 5, "time_elapsed": 1018577, "serialpos": 4, "key_press": -1, "wordID": 1485, "type": "PRES_VIS", "trial_index": 201}, "uniqueid": "MTK1377:3LUY3GC6307LMWPGBIZ3QBV0KX77P9", "dateTime": 1515871360362}, {"current_trial": 202, "trialdata": {"rt": -1, "trial_type": "single-stim", "word": "handbag", "stimulus": "<p id=\"stim\">HANDBAG</p>", "conditions": [12, 800, "v", 24000], "internal_node_id": "0.0-148.0", "trial": 5, "time_elapsed": 1020350, "serialpos": 5, "key_press": -1, "wordID": 683, "type": "PRES_VIS", "trial_index": 202}, "uniqueid": "MTK1377:3LUY3GC6307LMWPGBIZ3QBV0KX77P9", "dateTime": 1515871362135}, {"current_trial": 203, "trialdata": {"rt": -1, "trial_type": "single-stim", "word": "monster", "stimulus": "<p id=\"stim\">MONSTER</p>", "conditions": [12, 800, "v", 24000], "internal_node_id": "0.0-149.0", "trial": 5, "time_elapsed": 1022098, "serialpos": 6, "key_press": -1, "wordID": 911, "type": "PRES_VIS", "trial_index": 203}, "uniqueid": "MTK1377:3LUY3GC6307LMWPGBIZ3QBV0KX77P9", "dateTime": 1515871363883}, {"current_trial": 204, "trialdata": {"rt": -1, "trial_type": "single-stim", "word": "creature", "stimulus": "<p id=\"stim\">CREATURE</p>", "conditions": [12, 800, "v", 24000], "internal_node_id": "0.0-150.0", "trial": 5, "time_elapsed": 1023731, "serialpos": 7, "key_press": -1, "wordID": 402, "type": "PRES_VIS", "trial_index": 204}, "uniqueid": "MTK1377:3LUY3GC6307LMWPGBIZ3QBV0KX77P9", "dateTime": 1515871365516}, {"current_trial": 205, "trialdata": {"rt": -1, "trial_type": "single-stim", "word": "worker", "stimulus": "<p id=\"stim\">WORKER</p>", "conditions": [12, 800, "v", 24000], "internal_node_id": "0.0-151.0", "trial": 5, "time_elapsed": 1025592, "serialpos": 8, "key_press": -1, "wordID": 1620, "type": "PRES_VIS", "trial_index": 205}, "uniqueid": "MTK1377:3LUY3GC6307LMWPGBIZ3QBV0KX77P9", "dateTime": 1515871367377}, {"current_trial": 206, "trialdata": {"rt": -1, "trial_type": "single-stim", "word": "beef", "stimulus": "<p id=\"stim\">BEEF</p>", "conditions": [12, 800, "v", 24000], "internal_node_id": "0.0-152.0", "trial": 5, "time_elapsed": 1027298, "serialpos": 9, "key_press": -1, "wordID": 112, "type": "PRES_VIS", "trial_index": 206}, "uniqueid": "MTK1377:3LUY3GC6307LMWPGBIZ3QBV0KX77P9", "dateTime": 1515871369083}, {"current_trial": 207, "trialdata": {"rt": -1, "trial_type": "single-stim", "word": "inmate", "stimulus": "<p id=\"stim\">INMATE</p>", "conditions": [12, 800, "v", 24000], "internal_node_id": "0.0-153.0", "trial": 5, "time_elapsed": 1029202, "serialpos": 10, "key_press": -1, "wordID": 737, "type": "PRES_VIS", "trial_index": 207}, "uniqueid": "MTK1377:3LUY3GC6307LMWPGBIZ3QBV0KX77P9", "dateTime": 1515871370987}, {"current_trial": 208, "trialdata": {"rt": -1, "trial_type": "single-stim", "word": "mustard", "stimulus": "<p id=\"stim\">MUSTARD</p>", "conditions": [12, 800, "v", 24000], "internal_node_id": "0.0-154.0", "trial": 5, "time_elapsed": 1031099, "serialpos": 11, "key_press": -1, "wordID": 934, "type": "PRES_VIS", "trial_index": 208}, "uniqueid": "MTK1377:3LUY3GC6307LMWPGBIZ3QBV0KX77P9", "dateTime": 1515871372884}, {"current_trial": 209, "trialdata": {"rt": -1, "trial_type": "single-stim", "stimulus": "", "internal_node_id": "0.0-155.0-0.0", "time_elapsed": 1033496, "key_press": -1, "type": "PRE_RECALL_DELAY", "trial_index": 209}, "uniqueid": "MTK1377:3LUY3GC6307LMWPGBIZ3QBV0KX77P9", "dateTime": 1515871375281}, {"current_trial": 210, "trialdata": {"rt": -1000, "trial_type": "single-audio", "stimulus": "/static/audio/400Hz.wav", "internal_node_id": "0.0-156.0", "time_elapsed": 1033997, "key_press": -1, "type": "PRE_RECALL_ALERT", "trial_index": 210}, "uniqueid": "MTK1377:3LUY3GC6307LMWPGBIZ3QBV0KX77P9", "dateTime": 1515871375782}, {"current_trial": 211, "trialdata": {"rt": [5814, 13751, 29053, 40285], "recwords": ["beef", "inmate", "tortise", "widow"], "key_times": [1951, 3447, 3678, 4782, 5814, 6806, 7614, 8606, 10142, 11294, 11975, 13751, 15166, 16126, 17158, 17782, 19126, 21902, 22831, 23966, 24502, 29053, 31878, 33136, 34238, 35294, 37606, 40285], "trial_type": "free-recall", "conditions": [12, 800, "v", 24000], "internal_node_id": "0.0-157.0-0.0", "key_presses": [66, 69, 69, 70, 188, 73, 78, 77, 65, 84, 69, 188, 84, 79, 82, 84, 79, 8, 73, 83, 69, 188, 87, 73, 68, 79, 87, 188], "trial": 5, "time_elapsed": 1094000, "type": "FREE_RECALL", "trial_index": 211}, "uniqueid": "MTK1377:3LUY3GC6307LMWPGBIZ3QBV0KX77P9", "dateTime": 1515871435789}, {"current_trial": 212, "trialdata": {"rt": 2487, "trial_type": "text", "internal_node_id": "0.0-158.0", "time_elapsed": 1098492, "key_press": 73, "type": "INSTRUCTIONS", "trial_index": 212}, "uniqueid": "MTK1377:3LUY3GC6307LMWPGBIZ3QBV0KX77P9", "dateTime": 1515871440277}, {"current_trial": 213, "trialdata": {"rt": [4437, 8837, 11164, 15301, 23132], "trial_type": "math-distractor", "key_times": [2237, 2853, 4437, 7277, 7916, 8837, 10444, 11164, 13476, 14564, 15301, 20654, 21733, 23132], "responses": ["14", "14", "8", "19", "17"], "num2": [6, 6, 1, 7, 1, 4], "num3": [2, 5, 6, 9, 8, 7], "conditions": [24, 1600, "v", 24000], "internal_node_id": "0.0-159.0", "key_presses": [49, 52, 13, 49, 52, 13, 56, 13, 49, 57, 13, 49, 55, 13], "trial": 6, "time_elapsed": 1124495, "type": "DISTRACTOR", "trial_index": 213, "num1": [6, 3, 1, 3, 8, 1]}, "uniqueid": "MTK1377:3LUY3GC6307LMWPGBIZ3QBV0KX77P9", "dateTime": 1515871466281}, {"current_trial": 214, "trialdata": {"rt": -1, "trial_type": "single-stim", "stimulus": "<p id=\"stim\">10</p>", "internal_node_id": "0.0-160.0-0.0", "time_elapsed": 1127498, "key_press": -1, "trial_index": 214}, "uniqueid": "MTK1377:3LUY3GC6307LMWPGBIZ3QBV0KX77P9", "dateTime": 1515871469283}, {"current_trial": 215, "trialdata": {"rt": -1, "trial_type": "single-stim", "stimulus": "<p id=\"stim\">9</p>", "internal_node_id": "0.0-160.0-1.0", "time_elapsed": 1128499, "key_press": -1, "trial_index": 215}, "uniqueid": "MTK1377:3LUY3GC6307LMWPGBIZ3QBV0KX77P9", "dateTime": 1515871470284}, {"current_trial": 216, "trialdata": {"rt": -1, "trial_type": "single-stim", "stimulus": "<p id=\"stim\">8</p>", "internal_node_id": "0.0-160.0-2.0", "time_elapsed": 1129500, "key_press": -1, "trial_index": 216}, "uniqueid": "MTK1377:3LUY3GC6307LMWPGBIZ3QBV0KX77P9", "dateTime": 1515871471285}, {"current_trial": 217, "trialdata": {"rt": -1, "trial_type": "single-stim", "stimulus": "<p id=\"stim\">7</p>", "internal_node_id": "0.0-160.0-3.0", "time_elapsed": 1130501, "key_press": -1, "trial_index": 217}, "uniqueid": "MTK1377:3LUY3GC6307LMWPGBIZ3QBV0KX77P9", "dateTime": 1515871472286}, {"current_trial": 218, "trialdata": {"rt": -1, "trial_type": "single-stim", "stimulus": "<p id=\"stim\">6</p>", "internal_node_id": "0.0-160.0-4.0", "time_elapsed": 1131502, "key_press": -1, "trial_index": 218}, "uniqueid": "MTK1377:3LUY3GC6307LMWPGBIZ3QBV0KX77P9", "dateTime": 1515871473287}, {"current_trial": 219, "trialdata": {"rt": -1, "trial_type": "single-stim", "stimulus": "<p id=\"stim\">5</p>", "internal_node_id": "0.0-160.0-5.0", "time_elapsed": 1132503, "key_press": -1, "trial_index": 219}, "uniqueid": "MTK1377:3LUY3GC6307LMWPGBIZ3QBV0KX77P9", "dateTime": 1515871474288}, {"current_trial": 220, "trialdata": {"rt": -1, "trial_type": "single-stim", "stimulus": "<p id=\"stim\">4</p>", "internal_node_id": "0.0-160.0-6.0", "time_elapsed": 1133506, "key_press": -1, "trial_index": 220}, "uniqueid": "MTK1377:3LUY3GC6307LMWPGBIZ3QBV0KX77P9", "dateTime": 1515871475291}, {"current_trial": 221, "trialdata": {"rt": -1, "trial_type": "single-stim", "stimulus": "<p id=\"stim\">3</p>", "internal_node_id": "0.0-160.0-7.0", "time_elapsed": 1134507, "key_press": -1, "trial_index": 221}, "uniqueid": "MTK1377:3LUY3GC6307LMWPGBIZ3QBV0KX77P9", "dateTime": 1515871476292}, {"current_trial": 222, "trialdata": {"rt": -1, "trial_type": "single-stim", "stimulus": "<p id=\"stim\">2</p>", "internal_node_id": "0.0-160.0-8.0", "time_elapsed": 1135508, "key_press": -1, "trial_index": 222}, "uniqueid": "MTK1377:3LUY3GC6307LMWPGBIZ3QBV0KX77P9", "dateTime": 1515871477293}, {"current_trial": 223, "trialdata": {"rt": -1, "trial_type": "single-stim", "stimulus": "<p id=\"stim\">1</p>", "internal_node_id": "0.0-160.0-9.0", "time_elapsed": 1136509, "key_press": -1, "trial_index": 223}, "uniqueid": "MTK1377:3LUY3GC6307LMWPGBIZ3QBV0KX77P9", "dateTime": 1515871478294}, {"current_trial": 224, "trialdata": {"rt": -1, "trial_type": "single-stim", "stimulus": "<p id=\"stim\">+</p>", "internal_node_id": "0.0-161.0-0.0", "time_elapsed": 1138010, "key_press": -1, "type": "FIXATION", "trial_index": 224}, "uniqueid": "MTK1377:3LUY3GC6307LMWPGBIZ3QBV0KX77P9", "dateTime": 1515871479795}, {"current_trial": 225, "trialdata": {"rt": -1, "trial_type": "single-stim", "word": "fungus", "stimulus": "<p id=\"stim\">FUNGUS</p>", "conditions": [24, 1600, "v", 24000], "internal_node_id": "0.0-162.0", "trial": 6, "time_elapsed": 1139611, "serialpos": 0, "key_press": -1, "wordID": 613, "type": "PRES_VIS", "trial_index": 225}, "uniqueid": "MTK1377:3LUY3GC6307LMWPGBIZ3QBV0KX77P9", "dateTime": 1515871481396}, {"current_trial": 226, "trialdata": {"rt": -1, "trial_type": "single-stim", "word": "supper", "stimulus": "<p id=\"stim\">SUPPER</p>", "conditions": [24, 1600, "v", 24000], "internal_node_id": "0.0-163.0", "trial": 6, "time_elapsed": 1142393, "serialpos": 1, "key_press": -1, "wordID": 1410, "type": "PRES_VIS", "trial_index": 226}, "uniqueid": "MTK1377:3LUY3GC6307LMWPGBIZ3QBV0KX77P9", "dateTime": 1515871484178}, {"current_trial": 227, "trialdata": {"rt": -1, "trial_type": "single-stim", "word": "lunch", "stimulus": "<p id=\"stim\">LUNCH</p>", "conditions": [24, 1600, "v", 24000], "internal_node_id": "0.0-164.0", "trial": 6, "time_elapsed": 1145027, "serialpos": 2, "key_press": -1, "wordID": 848, "type": "PRES_VIS", "trial_index": 227}, "uniqueid": "MTK1377:3LUY3GC6307LMWPGBIZ3QBV0KX77P9", "dateTime": 1515871486812}, {"current_trial": 228, "trialdata": {"rt": -1, "trial_type": "single-stim", "word": "cupboard", "stimulus": "<p id=\"stim\">CUPBOARD</p>", "conditions": [24, 1600, "v", 24000], "internal_node_id": "0.0-165.0", "trial": 6, "time_elapsed": 1147790, "serialpos": 3, "key_press": -1, "wordID": 424, "type": "PRES_VIS", "trial_index": 228}, "uniqueid": "MTK1377:3LUY3GC6307LMWPGBIZ3QBV0KX77P9", "dateTime": 1515871489575}, {"current_trial": 229, "trialdata": {"rt": -1, "trial_type": "single-stim", "word": "orange", "stimulus": "<p id=\"stim\">ORANGE</p>", "conditions": [24, 1600, "v", 24000], "internal_node_id": "0.0-166.0", "trial": 6, "time_elapsed": 1150302, "serialpos": 4, "key_press": -1, "wordID": 979, "type": "PRES_VIS", "trial_index": 229}, "uniqueid": "MTK1377:3LUY3GC6307LMWPGBIZ3QBV0KX77P9", "dateTime": 1515871492087}, {"current_trial": 230, "trialdata": {"rt": -1, "trial_type": "single-stim", "word": "cashew", "stimulus": "<p id=\"stim\">CASHEW</p>", "conditions": [24, 1600, "v", 24000], "internal_node_id": "0.0-167.0", "trial": 6, "time_elapsed": 1153053, "serialpos": 5, "key_press": -1, "wordID": 252, "type": "PRES_VIS", "trial_index": 230}, "uniqueid": "MTK1377:3LUY3GC6307LMWPGBIZ3QBV0KX77P9", "dateTime": 1515871494838}, {"current_trial": 231, "trialdata": {"rt": -1, "trial_type": "single-stim", "word": "space", "stimulus": "<p id=\"stim\">SPACE</p>", "conditions": [24, 1600, "v", 24000], "internal_node_id": "0.0-168.0", "trial": 6, "time_elapsed": 1155659, "serialpos": 6, "key_press": -1, "wordID": 1344, "type": "PRES_VIS", "trial_index": 231}, "uniqueid": "MTK1377:3LUY3GC6307LMWPGBIZ3QBV0KX77P9", "dateTime": 1515871497445}, {"current_trial": 232, "trialdata": {"rt": -1, "trial_type": "single-stim", "word": "valley", "stimulus": "<p id=\"stim\">VALLEY</p>", "conditions": [24, 1600, "v", 24000], "internal_node_id": "0.0-169.0", "trial": 6, "time_elapsed": 1158079, "serialpos": 7, "key_press": -1, "wordID": 1544, "type": "PRES_VIS", "trial_index": 232}, "uniqueid": "MTK1377:3LUY3GC6307LMWPGBIZ3QBV0KX77P9", "dateTime": 1515871499864}, {"current_trial": 233, "trialdata": {"rt": -1, "trial_type": "single-stim", "word": "wasp", "stimulus": "<p id=\"stim\">WASP</p>", "conditions": [24, 1600, "v", 24000], "internal_node_id": "0.0-170.0", "trial": 6, "time_elapsed": 1160546, "serialpos": 8, "key_press": -1, "wordID": 1592, "type": "PRES_VIS", "trial_index": 233}, "uniqueid": "MTK1377:3LUY3GC6307LMWPGBIZ3QBV0KX77P9", "dateTime": 1515871502331}, {"current_trial": 234, "trialdata": {"rt": -1, "trial_type": "single-stim", "word": "wrist", "stimulus": "<p id=\"stim\">WRIST</p>", "conditions": [24, 1600, "v", 24000], "internal_node_id": "0.0-171.0", "trial": 6, "time_elapsed": 1163200, "serialpos": 9, "key_press": -1, "wordID": 1625, "type": "PRES_VIS", "trial_index": 234}, "uniqueid": "MTK1377:3LUY3GC6307LMWPGBIZ3QBV0KX77P9", "dateTime": 1515871504985}, {"current_trial": 235, "trialdata": {"rt": -1, "trial_type": "single-stim", "word": "paddle", "stimulus": "<p id=\"stim\">PADDLE</p>", "conditions": [24, 1600, "v", 24000], "internal_node_id": "0.0-172.0", "trial": 6, "time_elapsed": 1165951, "serialpos": 10, "key_press": -1, "wordID": 999, "type": "PRES_VIS", "trial_index": 235}, "uniqueid": "MTK1377:3LUY3GC6307LMWPGBIZ3QBV0KX77P9", "dateTime": 1515871507736}, {"current_trial": 236, "trialdata": {"rt": -1, "trial_type": "single-stim", "word": "rocket", "stimulus": "<p id=\"stim\">ROCKET</p>", "conditions": [24, 1600, "v", 24000], "internal_node_id": "0.0-173.0", "trial": 6, "time_elapsed": 1168727, "serialpos": 11, "key_press": -1, "wordID": 1201, "type": "PRES_VIS", "trial_index": 236}, "uniqueid": "MTK1377:3LUY3GC6307LMWPGBIZ3QBV0KX77P9", "dateTime": 1515871510512}, {"current_trial": 237, "trialdata": {"rt": -1, "trial_type": "single-stim", "word": "london", "stimulus": "<p id=\"stim\">LONDON</p>", "conditions": [24, 1600, "v", 24000], "internal_node_id": "0.0-174.0", "trial": 6, "time_elapsed": 1171274, "serialpos": 12, "key_press": -1, "wordID": 842, "type": "PRES_VIS", "trial_index": 237}, "uniqueid": "MTK1377:3LUY3GC6307LMWPGBIZ3QBV0KX77P9", "dateTime": 1515871513059}, {"current_trial": 238, "trialdata": {"rt": -1, "trial_type": "single-stim", "word": "cigar", "stimulus": "<p id=\"stim\">CIGAR</p>", "conditions": [24, 1600, "v", 24000], "internal_node_id": "0.0-175.0", "trial": 6, "time_elapsed": 1174002, "serialpos": 13, "key_press": -1, "wordID": 307, "type": "PRES_VIS", "trial_index": 238}, "uniqueid": "MTK1377:3LUY3GC6307LMWPGBIZ3QBV0KX77P9", "dateTime": 1515871515787}, {"current_trial": 239, "trialdata": {"rt": -1, "trial_type": "single-stim", "word": "yacht", "stimulus": "<p id=\"stim\">YACHT</p>", "conditions": [24, 1600, "v", 24000], "internal_node_id": "0.0-176.0", "trial": 6, "time_elapsed": 1176660, "serialpos": 14, "key_press": -1, "wordID": 1628, "type": "PRES_VIS", "trial_index": 239}, "uniqueid": "MTK1377:3LUY3GC6307LMWPGBIZ3QBV0KX77P9", "dateTime": 1515871518445}, {"current_trial": 240, "trialdata": {"rt": -1, "trial_type": "single-stim", "word": "climber", "stimulus": "<p id=\"stim\">CLIMBER</p>", "conditions": [24, 1600, "v", 24000], "internal_node_id": "0.0-177.0", "trial": 6, "time_elapsed": 1179086, "serialpos": 15, "key_press": -1, "wordID": 322, "type": "PRES_VIS", "trial_index": 240}, "uniqueid": "MTK1377:3LUY3GC6307LMWPGBIZ3QBV0KX77P9", "dateTime": 1515871520871}, {"current_trial": 241, "trialdata": {"rt": -1, "trial_type": "single-stim", "word": "hiker", "stimulus": "<p id=\"stim\">HIKER</p>", "conditions": [24, 1600, "v", 24000], "internal_node_id": "0.0-178.0", "trial": 6, "time_elapsed": 1181655, "serialpos": 16, "key_press": -1, "wordID": 707, "type": "PRES_VIS", "trial_index": 241}, "uniqueid": "MTK1377:3LUY3GC6307LMWPGBIZ3QBV0KX77P9", "dateTime": 1515871523440}, {"current_trial": 242, "trialdata": {"rt": -1, "trial_type": "single-stim", "word": "virus", "stimulus": "<p id=\"stim\">VIRUS</p>", "conditions": [24, 1600, "v", 24000], "internal_node_id": "0.0-179.0", "trial": 6, "time_elapsed": 1184200, "serialpos": 17, "key_press": -1, "wordID": 1571, "type": "PRES_VIS", "trial_index": 242}, "uniqueid": "MTK1377:3LUY3GC6307LMWPGBIZ3QBV0KX77P9", "dateTime": 1515871525985}, {"current_trial": 243, "trialdata": {"rt": -1, "trial_type": "single-stim", "word": "kitchen", "stimulus": "<p id=\"stim\">KITCHEN</p>", "conditions": [24, 1600, "v", 24000], "internal_node_id": "0.0-180.0", "trial": 6, "time_elapsed": 1186615, "serialpos": 18, "key_press": -1, "wordID": 777, "type": "PRES_VIS", "trial_index": 243}, "uniqueid": "MTK1377:3LUY3GC6307LMWPGBIZ3QBV0KX77P9", "dateTime": 1515871528401}, {"current_trial": 244, "trialdata": {"rt": -1, "trial_type": "single-stim", "word": "survey", "stimulus": "<p id=\"stim\">SURVEY</p>", "conditions": [24, 1600, "v", 24000], "internal_node_id": "0.0-181.0", "trial": 6, "time_elapsed": 1189219, "serialpos": 19, "key_press": -1, "wordID": 1413, "type": "PRES_VIS", "trial_index": 244}, "uniqueid": "MTK1377:3LUY3GC6307LMWPGBIZ3QBV0KX77P9", "dateTime": 1515871531004}, {"current_trial": 245, "trialdata": {"rt": -1, "trial_type": "single-stim", "word": "tweezers", "stimulus": "<p id=\"stim\">TWEEZERS</p>", "conditions": [24, 1600, "v", 24000], "internal_node_id": "0.0-182.0", "trial": 6, "time_elapsed": 1191829, "serialpos": 20, "key_press": -1, "wordID": 1525, "type": "PRES_VIS", "trial_index": 245}, "uniqueid": "MTK1377:3LUY3GC6307LMWPGBIZ3QBV0KX77P9", "dateTime": 1515871533614}, {"current_trial": 246, "trialdata": {"rt": -1, "trial_type": "single-stim", "word": "mattress", "stimulus": "<p id=\"stim\">MATTRESS</p>", "conditions": [24, 1600, "v", 24000], "internal_node_id": "0.0-183.0", "trial": 6, "time_elapsed": 1194439, "serialpos": 21, "key_press": -1, "wordID": 878, "type": "PRES_VIS", "trial_index": 246}, "uniqueid": "MTK1377:3LUY3GC6307LMWPGBIZ3QBV0KX77P9", "dateTime": 1515871536224}, {"current_trial": 247, "trialdata": {"rt": -1, "trial_type": "single-stim", "word": "france", "stimulus": "<p id=\"stim\">FRANCE</p>", "conditions": [24, 1600, "v", 24000], "internal_node_id": "0.0-184.0", "trial": 6, "time_elapsed": 1197240, "serialpos": 22, "key_press": -1, "wordID": 600, "type": "PRES_VIS", "trial_index": 247}, "uniqueid": "MTK1377:3LUY3GC6307LMWPGBIZ3QBV0KX77P9", "dateTime": 1515871539025}, {"current_trial": 248, "trialdata": {"rt": -1, "trial_type": "single-stim", "word": "army", "stimulus": "<p id=\"stim\">ARMY</p>", "conditions": [24, 1600, "v", 24000], "internal_node_id": "0.0-185.0", "trial": 6, "time_elapsed": 1199791, "serialpos": 23, "key_press": -1, "wordID": 38, "type": "PRES_VIS", "trial_index": 248}, "uniqueid": "MTK1377:3LUY3GC6307LMWPGBIZ3QBV0KX77P9", "dateTime": 1515871541576}, {"current_trial": 249, "trialdata": {"rt": -1, "trial_type": "single-stim", "stimulus": "", "internal_node_id": "0.0-186.0-0.0", "time_elapsed": 1202355, "key_press": -1, "type": "PRE_RECALL_DELAY", "trial_index": 249}, "uniqueid": "MTK1377:3LUY3GC6307LMWPGBIZ3QBV0KX77P9", "dateTime": 1515871544140}, {"current_trial": 250, "trialdata": {"rt": -1000, "trial_type": "single-audio", "stimulus": "/static/audio/400Hz.wav", "internal_node_id": "0.0-187.0", "time_elapsed": 1202856, "key_press": -1, "type": "PRE_RECALL_ALERT", "trial_index": 250}, "uniqueid": "MTK1377:3LUY3GC6307LMWPGBIZ3QBV0KX77P9", "dateTime": 1515871544642}, {"current_trial": 251, "trialdata": {"rt": [7624, 13968, 21816, 27871, 36016, 42432, 48535], "recwords": ["france", "army", "supper", "lunch", "cupboard", "wasp", "wrist"], "key_times": [1729, 2352, 3224, 4144, 4920, 5928, 7624, 8640, 9512, 10624, 11336, 13968, 15256, 16256, 16871, 17048, 18147, 18568, 21816, 22744, 23544, 24330, 25376, 26160, 27871, 29008, 29832, 30447, 31391, 32191, 33119, 33919, 34832, 36016, 37240, 37840, 38242, 40688, 42432, 43424, 44440, 45328, 46199, 46912, 48535], "trial_type": "free-recall", "conditions": [24, 1600, "v", 24000], "internal_node_id": "0.0-188.0-0.0", "key_presses": [70, 82, 65, 78, 67, 69, 188, 65, 82, 77, 89, 188, 83, 85, 80, 80, 69, 82, 188, 76, 85, 78, 67, 72, 188, 67, 85, 80, 66, 79, 65, 82, 68, 188, 87, 65, 83, 80, 188, 87, 82, 73, 83, 84, 188], "trial": 6, "time_elapsed": 1262863, "type": "FREE_RECALL", "trial_index": 251}, "uniqueid": "MTK1377:3LUY3GC6307LMWPGBIZ3QBV0KX77P9", "dateTime": 1515871604652}, {"current_trial": 252, "trialdata": {"rt": 1758, "trial_type": "text", "internal_node_id": "0.0-189.0", "time_elapsed": 1266627, "key_press": 56, "type": "INSTRUCTIONS", "trial_index": 252}, "uniqueid": "MTK1377:3LUY3GC6307LMWPGBIZ3QBV0KX77P9", "dateTime": 1515871608412}, {"current_trial": 253, "trialdata": {"rt": [4253, 10286], "trial_type": "math-distractor", "key_times": [2654, 2813, 4253, 8558, 9286, 10286], "responses": ["11", "23"], "num2": [1, 7, 8], "num3": [7, 9, 4], "conditions": [12, 800, "v", 12000], "internal_node_id": "0.0-190.0", "key_presses": [49, 49, 13, 50, 51, 13], "trial": 7, "time_elapsed": 1280631, "type": "DISTRACTOR", "trial_index": 253, "num1": [3, 7, 1]}, "uniqueid": "MTK1377:3LUY3GC6307LMWPGBIZ3