{"condition": 0, "counterbalance": 2592, "assignmentId": "3L0KT67Y8FN1E819Q8TXYTK89ANSYX", "workerId": "MTK1224", "hitId": "3BKZLF990Z6NE8O282ZQE99NC5UYQI", "currenttrial": 626, "bonus": 0, "data": [{"uniqueid": "MTK1224:3L0KT67Y8FN1E819Q8TXYTK89ANSYX", "current_trial": 0, "dateTime": 1513462378864, "trialdata": {"rt": 4102, "key_press": 74, "type": "INSTRUCTIONS", "trial_type": "text", "trial_index": 0, "time_elapsed": 4108, "internal_node_id": "0.0-0.0"}}, {"uniqueid": "MTK1224:3L0KT67Y8FN1E819Q8TXYTK89ANSYX", "current_trial": 1, "dateTime": 1513462403657, "trialdata": {"rt": 24787, "key_press": 76, "type": "INSTRUCTIONS", "trial_type": "text", "trial_index": 1, "time_elapsed": 28901, "internal_node_id": "0.0-1.0"}}, {"uniqueid": "MTK1224:3L0KT67Y8FN1E819Q8TXYTK89ANSYX", "current_trial": 2, "dateTime": 1513462414196, "trialdata": {"rt": [10462], "responses": ["ocean"], "type": "AUDIO_TEST", "trial_type": "audio-test", "trial_index": 2, "time_elapsed": 39442, "internal_node_id": "0.0-2.0"}}, {"uniqueid": "MTK1224:3L0KT67Y8FN1E819Q8TXYTK89ANSYX", "current_trial": 3, "dateTime": 1513462421871, "trialdata": {"rt": [7664], "responses": ["crystal"], "type": "AUDIO_TEST", "trial_type": "audio-test", "trial_index": 3, "time_elapsed": 47116, "internal_node_id": "0.0-3.0"}}, {"uniqueid": "MTK1224:3L0KT67Y8FN1E819Q8TXYTK89ANSYX", "current_trial": 4, "dateTime": 1513462427811, "trialdata": {"rt": [5928], "responses": ["spice"], "type": "AUDIO_TEST", "trial_type": "audio-test", "trial_index": 4, "time_elapsed": 53056, "internal_node_id": "0.0-4.0"}}, {"uniqueid": "MTK1224:3L0KT67Y8FN1E819Q8TXYTK89ANSYX", "current_trial": 5, "dateTime": 1513462500122, "trialdata": {"rt": 71549, "responses": "{\"Q0\":\"11:00pm\",\"Q1\":\"07:30am\",\"Q2\":\"4\"}", "type": "SLEEP_SURVEY", "trial_type": "survey-text", "trial_index": 5, "time_elapsed": 125368, "internal_node_id": "0.0-5.0"}}, {"uniqueid": "MTK1224:3L0KT67Y8FN1E819Q8TXYTK89ANSYX", "current_trial": 6, "dateTime": 1513462548621, "trialdata": {"rt": 47489, "key_press": 74, "type": "INSTRUCTIONS", "trial_type": "text", "trial_index": 6, "time_elapsed": 173866, "internal_node_id": "0.0-6.0"}}, {"uniqueid": "MTK1224:3L0KT67Y8FN1E819Q8TXYTK89ANSYX", "current_trial": 7, "dateTime": 1513462561585, "trialdata": {"rt": 12454, "key_press": 13, "type": "INSTRUCTIONS", "trial_type": "text", "trial_index": 7, "time_elapsed": 186831, "internal_node_id": "0.0-7.0"}}, {"uniqueid": "MTK1224:3L0KT67Y8FN1E819Q8TXYTK89ANSYX", "current_trial": 8, "dateTime": 1513462573730, "trialdata": {"rt": 11642, "key_press": 13, "type": "INSTRUCTIONS", "trial_type": "text", "trial_index": 8, "time_elapsed": 198976, "internal_node_id": "0.0-8.0"}}, {"uniqueid": "MTK1224:3L0KT67Y8FN1E819Q8TXYTK89ANSYX", "current_trial": 9, "dateTime": 1513462592756, "trialdata": {"rt": [2708, 4595, 6343, 7923, 9274, 11374, 13761, 16343], "responses": ["13", "8", "6", "11", "12", "14", "16", "17"], "num1": [1, 4, 2, 7, 4, 6, 8, 5, 2], "num2": [4, 3, 3, 3, 4, 3, 3, 7, 7], "num3": [8, 1, 1, 1, 4, 5, 5, 5, 1], "type": "DISTRACTOR", "conditions": [18, 1200, "a", 18000], "trial": 0, "trial_type": "math-distractor", "trial_index": 9, "time_elapsed": 218002, "internal_node_id": "0.0-9.0"}}, {"uniqueid": "MTK1224:3L0KT67Y8FN1E819Q8TXYTK89ANSYX", "current_trial": 10, "dateTime": 1513462595780, "trialdata": {"rt": -1, "stimulus": "<p id=\"stim\">10</p>", "key_press": -1, "trial_type": "single-stim", "trial_index": 10, "time_elapsed": 221026, "internal_node_id": "0.0-10.0-0.0"}}, {"uniqueid": "MTK1224:3L0KT67Y8FN1E819Q8TXYTK89ANSYX", "current_trial": 11, "dateTime": 1513462596795, "trialdata": {"rt": -1, "stimulus": "<p id=\"stim\">9</p>", "key_press": -1, "trial_type": "single-stim", "trial_index": 11, "time_elapsed": 222041, "internal_node_id": "0.0-10.0-1.0"}}, {"uniqueid": "MTK1224:3L0KT67Y8FN1E819Q8TXYTK89ANSYX", "current_trial": 12, "dateTime": 1513462597812, "trialdata": {"rt": -1, "stimulus": "<p id=\"stim\">8</p>", "key_press": -1, "trial_type": "single-stim", "trial_index": 12, "time_elapsed": 223057, "internal_node_id": "0.0-10.0-2.0"}}, {"uniqueid": "MTK1224:3L0KT67Y8FN1E819Q8TXYTK89ANSYX", "current_trial": 13, "dateTime": 1513462598815, "trialdata": {"rt": -1, "stimulus": "<p id=\"stim\">7</p>", "key_press": -1, "trial_type": "single-stim", "trial_index": 13, "time_elapsed": 224060, "internal_node_id": "0.0-10.0-3.0"}}, {"uniqueid": "MTK1224:3L0KT67Y8FN1E819Q8TXYTK89ANSYX", "current_trial": 14, "dateTime": 1513462599822, "trialdata": {"rt": -1, "stimulus": "<p id=\"stim\">6</p>", "key_press": -1, "trial_type": "single-stim", "trial_index": 14, "time_elapsed": 225067, "internal_node_id": "0.0-10.0-4.0"}}, {"uniqueid": "MTK1224:3L0KT67Y8FN1E819Q8TXYTK89ANSYX", "current_trial": 15, "dateTime": 1513462600826, "trialdata": {"rt": -1, "stimulus": "<p id=\"stim\">5</p>", "key_press": -1, "trial_type": "single-stim", "trial_index": 15, "time_elapsed": 226071, "internal_node_id": "0.0-10.0-5.0"}}, {"uniqueid": "MTK1224:3L0KT67Y8FN1E819Q8TXYTK89ANSYX", "current_trial": 16, "dateTime": 1513462601835, "trialdata": {"rt": 439, "stimulus": "<p id=\"stim\">4</p>", "key_press": 183, "trial_type": "single-stim", "trial_index": 16, "time_elapsed": 227081, "internal_node_id": "0.0-10.0-6.0"}}, {"uniqueid": "MTK1224:3L0KT67Y8FN1E819Q8TXYTK89ANSYX", "current_trial": 17, "dateTime": 1513462602852, "trialdata": {"rt": 58, "stimulus": "<p id=\"stim\">3</p>", "key_press": 183, "trial_type": "single-stim", "trial_index": 17, "time_elapsed": 228098, "internal_node_id": "0.0-10.0-7.0"}}, {"uniqueid": "MTK1224:3L0KT67Y8FN1E819Q8TXYTK89ANSYX", "current_trial": 18, "dateTime": 1513462603862, "trialdata": {"rt": -1, "stimulus": "<p id=\"stim\">2</p>", "key_press": -1, "trial_type": "single-stim", "trial_index": 18, "time_elapsed": 229107, "internal_node_id": "0.0-10.0-8.0"}}, {"uniqueid": "MTK1224:3L0KT67Y8FN1E819Q8TXYTK89ANSYX", "current_trial": 19, "dateTime": 1513462604878, "trialdata": {"rt": -1, "stimulus": "<p id=\"stim\">1</p>", "key_press": -1, "trial_type": "single-stim", "trial_index": 19, "time_elapsed": 230124, "internal_node_id": "0.0-10.0-9.0"}}, {"uniqueid": "MTK1224:3L0KT67Y8FN1E819Q8TXYTK89ANSYX", "current_trial": 20, "dateTime": 1513462606394, "trialdata": {"rt": -1, "stimulus": "<p id=\"stim\">+</p>", "key_press": -1, "type": "FIXATION", "trial_type": "single-stim", "trial_index": 20, "time_elapsed": 231639, "internal_node_id": "0.0-11.0-0.0"}}, {"uniqueid": "MTK1224:3L0KT67Y8FN1E819Q8TXYTK89ANSYX", "current_trial": 21, "dateTime": 1513462608436, "trialdata": {"rt": 1780.0000000000011, "stimulus": "/static/audio/wordpool/RATTLE.wav", "key_press": 183, "type": "PRES_AUD", "word": "rattle", "wordID": 1169, "conditions": [18, 1200, "a", 18000], "trial": 0, "serialpos": 0, "trial_type": "single-audio", "trial_index": 21, "time_elapsed": 233681, "internal_node_id": "0.0-12.0"}}, {"uniqueid": "MTK1224:3L0KT67Y8FN1E819Q8TXYTK89ANSYX", "current_trial": 22, "dateTime": 1513462610693, "trialdata": {"rt": -9.333333333330529, "stimulus": "/static/audio/wordpool/SHERIFF.wav", "key_press": 183, "type": "PRES_AUD", "word": "sheriff", "wordID": 1283, "conditions": [18, 1200, "a", 18000], "trial": 0, "serialpos": 1, "trial_type": "single-audio", "trial_index": 22, "time_elapsed": 235938, "internal_node_id": "0.0-13.0"}}, {"uniqueid": "MTK1224:3L0KT67Y8FN1E819Q8TXYTK89ANSYX", "current_trial": 23, "dateTime": 1513462612727, "trialdata": {"rt": 249.33333333333962, "stimulus": "/static/audio/wordpool/VICTIM.wav", "key_press": 183, "type": "PRES_AUD", "word": "victim", "wordID": 1561, "conditions": [18, 1200, "a", 18000], "trial": 0, "serialpos": 2, "trial_type": "single-audio", "trial_index": 23, "time_elapsed": 237973, "internal_node_id": "0.0-14.0"}}, {"uniqueid": "MTK1224:3L0KT67Y8FN1E819Q8TXYTK89ANSYX", "current_trial": 24, "dateTime": 1513462614763, "trialdata": {"rt": -1000, "stimulus": "/static/audio/wordpool/ANTLER.wav", "key_press": -1, "type": "PRES_AUD", "word": "antler", "wordID": 28, "conditions": [18, 1200, "a", 18000], "trial": 0, "serialpos": 3, "trial_type": "single-audio", "trial_index": 24, "time_elapsed": 240008, "internal_node_id": "0.0-15.0"}}, {"uniqueid": "MTK1224:3L0KT67Y8FN1E819Q8TXYTK89ANSYX", "current_trial": 25, "dateTime": 1513462617049, "trialdata": {"rt": -1000, "stimulus": "/static/audio/wordpool/DRINK.wav", "key_press": -1, "type": "PRES_AUD", "word": "drink", "wordID": 497, "conditions": [18, 1200, "a", 18000], "trial": 0, "serialpos": 4, "trial_type": "single-audio", "trial_index": 25, "time_elapsed": 242295, "internal_node_id": "0.0-16.0"}}, {"uniqueid": "MTK1224:3L0KT67Y8FN1E819Q8TXYTK89ANSYX", "current_trial": 26, "dateTime": 1513462619254, "trialdata": {"rt": -1000, "stimulus": "/static/audio/wordpool/LONDON.wav", "key_press": -1, "type": "PRES_AUD", "word": "london", "wordID": 842, "conditions": [18, 1200, "a", 18000], "trial": 0, "serialpos": 5, "trial_type": "single-audio", "trial_index": 26, "time_elapsed": 244500, "internal_node_id": "0.0-17.0"}}, {"uniqueid": "MTK1224:3L0KT67Y8FN1E819Q8TXYTK89ANSYX", "current_trial": 27, "dateTime": 1513462621398, "trialdata": {"rt": -1000, "stimulus": "/static/audio/wordpool/PANTHER.wav", "key_press": -1, "type": "PRES_AUD", "word": "panther", "wordID": 1008, "conditions": [18, 1200, "a", 18000], "trial": 0, "serialpos": 6, "trial_type": "single-audio", "trial_index": 27, "time_elapsed": 246644, "internal_node_id": "0.0-18.0"}}, {"uniqueid": "MTK1224:3L0KT67Y8FN1E819Q8TXYTK89ANSYX", "current_trial": 28, "dateTime": 1513462623582, "trialdata": {"rt": -1000, "stimulus": "/static/audio/wordpool/STREAM.wav", "key_press": -1, "type": "PRES_AUD", "word": "stream", "wordID": 1391, "conditions": [18, 1200, "a", 18000], "trial": 0, "serialpos": 7, "trial_type": "single-audio", "trial_index": 28, "time_elapsed": 248827, "internal_node_id": "0.0-19.0"}}, {"uniqueid": "MTK1224:3L0KT67Y8FN1E819Q8TXYTK89ANSYX", "current_trial": 29, "dateTime": 1513462625994, "trialdata": {"rt": -1000, "stimulus": "/static/audio/wordpool/CRITIC.wav", "key_press": -1, "type": "PRES_AUD", "word": "critic", "wordID": 409, "conditions": [18, 1200, "a", 18000], "trial": 0, "serialpos": 8, "trial_type": "single-audio", "trial_index": 29, "time_elapsed": 251239, "internal_node_id": "0.0-20.0"}}, {"uniqueid": "MTK1224:3L0KT67Y8FN1E819Q8TXYTK89ANSYX", "current_trial": 30, "dateTime": 1513462628321, "trialdata": {"rt": -1000, "stimulus": "/static/audio/wordpool/SWIMMER.wav", "key_press": -1, "type": "PRES_AUD", "word": "swimmer", "wordID": 1419, "conditions": [18, 1200, "a", 18000], "trial": 0, "serialpos": 9, "trial_type": "single-audio", "trial_index": 30, "time_elapsed": 253567, "internal_node_id": "0.0-21.0"}}, {"uniqueid": "MTK1224:3L0KT67Y8FN1E819Q8TXYTK89ANSYX", "current_trial": 31, "dateTime": 1513462630376, "trialdata": {"rt": -1000, "stimulus": "/static/audio/wordpool/ELBOW.wav", "key_press": -1, "type": "PRES_AUD", "word": "elbow", "wordID": 519, "conditions": [18, 1200, "a", 18000], "trial": 0, "serialpos": 10, "trial_type": "single-audio", "trial_index": 31, "time_elapsed": 255622, "internal_node_id": "0.0-22.0"}}, {"uniqueid": "MTK1224:3L0KT67Y8FN1E819Q8TXYTK89ANSYX", "current_trial": 32, "dateTime": 1513462632473, "trialdata": {"rt": -1000, "stimulus": "/static/audio/wordpool/GAVEL.wav", "key_press": -1, "type": "PRES_AUD", "word": "gavel", "wordID": 626, "conditions": [18, 1200, "a", 18000], "trial": 0, "serialpos": 11, "trial_type": "single-audio", "trial_index": 32, "time_elapsed": 257719, "internal_node_id": "0.0-23.0"}}, {"uniqueid": "MTK1224:3L0KT67Y8FN1E819Q8TXYTK89ANSYX", "current_trial": 33, "dateTime": 1513462634831, "trialdata": {"rt": -1000, "stimulus": "/static/audio/wordpool/MISSILE.wav", "key_press": -1, "type": "PRES_AUD", "word": "missile", "wordID": 899, "conditions": [18, 1200, "a", 18000], "trial": 0, "serialpos": 12, "trial_type": "single-audio", "trial_index": 33, "time_elapsed": 260077, "internal_node_id": "0.0-24.0"}}, {"uniqueid": "MTK1224:3L0KT67Y8FN1E819Q8TXYTK89ANSYX", "current_trial": 34, "dateTime": 1513462637052, "trialdata": {"rt": -1000, "stimulus": "/static/audio/wordpool/FLAG.wav", "key_press": -1, "type": "PRES_AUD", "word": "flag", "wordID": 572, "conditions": [18, 1200, "a", 18000], "trial": 0, "serialpos": 13, "trial_type": "single-audio", "trial_index": 34, "time_elapsed": 262298, "internal_node_id": "0.0-25.0"}}, {"uniqueid": "MTK1224:3L0KT67Y8FN1E819Q8TXYTK89ANSYX", "current_trial": 35, "dateTime": 1513462639086, "trialdata": {"rt": 1579.999999999984, "stimulus": "/static/audio/wordpool/FOOTBALL.wav", "key_press": 183, "type": "PRES_AUD", "word": "football", "wordID": 590, "conditions": [18, 1200, "a", 18000], "trial": 0, "serialpos": 14, "trial_type": "single-audio", "trial_index": 35, "time_elapsed": 264331, "internal_node_id": "0.0-26.0"}}, {"uniqueid": "MTK1224:3L0KT67Y8FN1E819Q8TXYTK89ANSYX", "current_trial": 36, "dateTime": 1513462641450, "trialdata": {"rt": 270.66666666661376, "stimulus": "/static/audio/wordpool/ISLAND.wav", "key_press": 183, "type": "PRES_AUD", "word": "island", "wordID": 744, "conditions": [18, 1200, "a", 18000], "trial": 0, "serialpos": 15, "trial_type": "single-audio", "trial_index": 36, "time_elapsed": 266695, "internal_node_id": "0.0-27.0"}}, {"uniqueid": "MTK1224:3L0KT67Y8FN1E819Q8TXYTK89ANSYX", "current_trial": 37, "dateTime": 1513462643592, "trialdata": {"rt": -1000, "stimulus": "/static/audio/wordpool/COOK.wav", "key_press": -1, "type": "PRES_AUD", "word": "cook", "wordID": 371, "conditions": [18, 1200, "a", 18000], "trial": 0, "serialpos": 16, "trial_type": "single-audio", "trial_index": 37, "time_elapsed": 268838, "internal_node_id": "0.0-28.0"}}, {"uniqueid": "MTK1224:3L0KT67Y8FN1E819Q8TXYTK89ANSYX", "current_trial": 38, "dateTime": 1513462645814, "trialdata": {"rt": -1000, "stimulus": "/static/audio/wordpool/OUTFIT.wav", "key_press": -1, "type": "PRES_AUD", "word": "outfit", "wordID": 987, "conditions": [18, 1200, "a", 18000], "trial": 0, "serialpos": 17, "trial_type": "single-audio", "trial_index": 38, "time_elapsed": 271060, "internal_node_id": "0.0-29.0"}}, {"uniqueid": "MTK1224:3L0KT67Y8FN1E819Q8TXYTK89ANSYX", "current_trial": 39, "dateTime": 1513462647110, "trialdata": {"rt": -1, "stimulus": "", "key_press": -1, "type": "PRE_RECALL_DELAY", "trial_type": "single-stim", "trial_index": 39, "time_elapsed": 272356, "internal_node_id": "0.0-30.0-0.0"}}, {"uniqueid": "MTK1224:3L0KT67Y8FN1E819Q8TXYTK89ANSYX", "current_trial": 40, "dateTime": 1513462647621, "trialdata": {"rt": -1000, "stimulus": "/static/audio/400Hz.wav", "key_press": -1, "type": "PRE_RECALL_ALERT", "trial_type": "single-audio", "trial_index": 40, "time_elapsed": 272866, "internal_node_id": "0.0-31.0"}}, {"uniqueid": "MTK1224:3L0KT67Y8FN1E819Q8TXYTK89ANSYX", "current_trial": 41, "dateTime": 1513462707653, "trialdata": {"rt": [2939, 4711, 6292, 7991, 9812, 19322, 28424], "recwords": ["football", "island", "outfit", "london", "victim", "atlas", "antler"], "type": "FREE_RECALL", "conditions": [18, 1200, "a", 18000], "trial": 0, "trial_type": "free-recall", "trial_index": 41, "time_elapsed": 332888, "internal_node_id": "0.0-32.0-0.0"}}, {"uniqueid": "MTK1224:3L0KT67Y8FN1E819Q8TXYTK89ANSYX", "current_trial": 42, "dateTime": 1513462711594, "trialdata": {"rt": 1931, "key_press": 32, "type": "INSTRUCTIONS", "trial_type": "text", "trial_index": 42, "time_elapsed": 336840, "internal_node_id": "0.0-33.0"}}, {"uniqueid": "MTK1224:3L0KT67Y8FN1E819Q8TXYTK89ANSYX", "current_trial": 43, "dateTime": 1513462731606, "trialdata": {"rt": [2669, 4278, 6440, 8985, 11919, 13712, 16060], "responses": ["21", "4", "12", "19", "19", "15", "16"], "num1": [9, 1, 3, 9, 8, 1, 2, 2], "num2": [9, 2, 4, 3, 4, 5, 6, 6], "num3": [3, 1, 5, 7, 7, 9, 8, 6], "type": "DISTRACTOR", "conditions": [18, 1200, "v", 18000], "trial": 1, "trial_type": "math-distractor", "trial_index": 43, "time_elapsed": 356852, "internal_node_id": "0.0-34.0"}}, {"uniqueid": "MTK1224:3L0KT67Y8FN1E819Q8TXYTK89ANSYX", "current_trial": 44, "dateTime": 1513462734635, "trialdata": {"rt": -1, "stimulus": "<p id=\"stim\">10</p>", "key_press": -1, "trial_type": "single-stim", "trial_index": 44, "time_elapsed": 359881, "internal_node_id": "0.0-35.0-0.0"}}, {"uniqueid": "MTK1224:3L0KT67Y8FN1E819Q8TXYTK89ANSYX", "current_trial": 45, "dateTime": 1513462735652, "trialdata": {"rt": -1, "stimulus": "<p id=\"stim\">9</p>", "key_press": -1, "trial_type": "single-stim", "trial_index": 45, "time_elapsed": 360898, "internal_node_id": "0.0-35.0-1.0"}}, {"uniqueid": "MTK1224:3L0KT67Y8FN1E819Q8TXYTK89ANSYX", "current_trial": 46, "dateTime": 1513462736659, "trialdata": {"rt": -1, "stimulus": "<p id=\"stim\">8</p>", "key_press": -1, "trial_type": "single-stim", "trial_index": 46, "time_elapsed": 361904, "internal_node_id": "0.0-35.0-2.0"}}, {"uniqueid": "MTK1224:3L0KT67Y8FN1E819Q8TXYTK89ANSYX", "current_trial": 47, "dateTime": 1513462737664, "trialdata": {"rt": -1, "stimulus": "<p id=\"stim\">7</p>", "key_press": -1, "trial_type": "single-stim", "trial_index": 47, "time_elapsed": 362909, "internal_node_id": "0.0-35.0-3.0"}}, {"uniqueid": "MTK1224:3L0KT67Y8FN1E819Q8TXYTK89ANSYX", "current_trial": 48, "dateTime": 1513462738674, "trialdata": {"rt": -1, "stimulus": "<p id=\"stim\">6</p>", "key_press": -1, "trial_type": "single-stim", "trial_index": 48, "time_elapsed": 363920, "internal_node_id": "0.0-35.0-4.0"}}, {"uniqueid": "MTK1224:3L0KT67Y8FN1E819Q8TXYTK89ANSYX", "current_trial": 49, "dateTime": 1513462739677, "trialdata": {"rt": -1, "stimulus": "<p id=\"stim\">5</p>", "key_press": -1, "trial_type": "single-stim", "trial_index": 49, "time_elapsed": 364922, "internal_node_id": "0.0-35.0-5.0"}}, {"uniqueid": "MTK1224:3L0KT67Y8FN1E819Q8TXYTK89ANSYX", "current_trial": 50, "dateTime": 1513462740694, "trialdata": {"rt": -1, "stimulus": "<p id=\"stim\">4</p>", "key_press": -1, "trial_type": "single-stim", "trial_index": 50, "time_elapsed": 365940, "internal_node_id": "0.0-35.0-6.0"}}, {"uniqueid": "MTK1224:3L0KT67Y8FN1E819Q8TXYTK89ANSYX", "current_trial": 51, "dateTime": 1513462741699, "trialdata": {"rt": -1, "stimulus": "<p id=\"stim\">3</p>", "key_press": -1, "trial_type": "single-stim", "trial_index": 51, "time_elapsed": 366944, "internal_node_id": "0.0-35.0-7.0"}}, {"uniqueid": "MTK1224:3L0KT67Y8FN1E819Q8TXYTK89ANSYX", "current_trial": 52, "dateTime": 1513462742713, "trialdata": {"rt": -1, "stimulus": "<p id=\"stim\">2</p>", "key_press": -1, "trial_type": "single-stim", "trial_index": 52, "time_elapsed": 367959, "internal_node_id": "0.0-35.0-8.0"}}, {"uniqueid": "MTK1224:3L0KT67Y8FN1E819Q8TXYTK89ANSYX", "current_trial": 53, "dateTime": 1513462743724, "trialdata": {"rt": -1, "stimulus": "<p id=\"stim\">1</p>", "key_press": -1, "trial_type": "single-stim", "trial_index": 53, "time_elapsed": 368970, "internal_node_id": "0.0-35.0-9.0"}}, {"uniqueid": "MTK1224:3L0KT67Y8FN1E819Q8TXYTK89ANSYX", "current_trial": 54, "dateTime": 1513462745227, "trialdata": {"rt": -1, "stimulus": "<p id=\"stim\">+</p>", "key_press": -1, "type": "FIXATION", "trial_type": "single-stim", "trial_index": 54, "time_elapsed": 370473, "internal_node_id": "0.0-36.0-0.0"}}, {"uniqueid": "MTK1224:3L0KT67Y8FN1E819Q8TXYTK89ANSYX", "current_trial": 55, "dateTime": 1513462746443, "trialdata": {"rt": -1, "stimulus": "<p id=\"stim\">TROMBONE</p>", "key_press": -1, "type": "PRES_VIS", "word": "trombone", "wordID": 1507, "conditions": [18, 1200, "v", 18000], "trial": 1, "serialpos": 0, "trial_type": "single-stim", "trial_index": 55, "time_elapsed": 371689, "internal_node_id": "0.0-37.0"}}, {"uniqueid": "MTK1224:3L0KT67Y8FN1E819Q8TXYTK89ANSYX", "current_trial": 56, "dateTime": 1513462748696, "trialdata": {"rt": -1, "stimulus": "<p id=\"stim\">TUBA</p>", "key_press": -1, "type": "PRES_VIS", "word": "tuba", "wordID": 1514, "conditions": [18, 1200, "v", 18000], "trial": 1, "serialpos": 1, "trial_type": "single-stim", "trial_index": 56, "time_elapsed": 373942, "internal_node_id": "0.0-38.0"}}, {"uniqueid": "MTK1224:3L0KT67Y8FN1E819Q8TXYTK89ANSYX", "current_trial": 57, "dateTime": 1513462750742, "trialdata": {"rt": -1, "stimulus": "<p id=\"stim\">HATCHET</p>", "key_press": -1, "type": "PRES_VIS", "word": "hatchet", "wordID": 690, "conditions": [18, 1200, "v", 18000], "trial": 1, "serialpos": 2, "trial_type": "single-stim", "trial_index": 57, "time_elapsed": 375987, "internal_node_id": "0.0-39.0"}}, {"uniqueid": "MTK1224:3L0KT67Y8FN1E819Q8TXYTK89ANSYX", "current_trial": 58, "dateTime": 1513462752761, "trialdata": {"rt": -1, "stimulus": "<p id=\"stim\">TURTLE</p>", "key_press": -1, "type": "PRES_VIS", "word": "turtle", "wordID": 1521, "conditions": [18, 1200, "v", 18000], "trial": 1, "serialpos": 3, "trial_type": "single-stim", "trial_index": 58, "time_elapsed": 378007, "internal_node_id": "0.0-40.0"}}, {"uniqueid": "MTK1224:3L0KT67Y8FN1E819Q8TXYTK89ANSYX", "current_trial": 59, "dateTime": 1513462754928, "trialdata": {"rt": -1, "stimulus": "<p id=\"stim\">ANKLE</p>", "key_press": -1, "type": "PRES_VIS", "word": "ankle", "wordID": 23, "conditions": [18, 1200, "v", 18000], "trial": 1, "serialpos": 4, "trial_type": "single-stim", "trial_index": 59, "time_elapsed": 380173, "internal_node_id": "0.0-41.0"}}, {"uniqueid": "MTK1224:3L0KT67Y8FN1E819Q8TXYTK89ANSYX", "current_trial": 60, "dateTime": 1513462757319, "trialdata": {"rt": -1, "stimulus": "<p id=\"stim\">COSTUME</p>", "key_press": -1, "type": "PRES_VIS", "word": "costume", "wordID": 382, "conditions": [18, 1200, "v", 18000], "trial": 1, "serialpos": 5, "trial_type": "single-stim", "trial_index": 60, "time_elapsed": 382565, "internal_node_id": "0.0-42.0"}}, {"uniqueid": "MTK1224:3L0KT67Y8FN1E819Q8TXYTK89ANSYX", "current_trial": 61, "dateTime": 1513462759486, "trialdata": {"rt": -1, "stimulus": "<p id=\"stim\">SUNRISE</p>", "key_press": -1, "type": "PRES_VIS", "word": "sunrise", "wordID": 1406, "conditions": [18, 1200, "v", 18000], "trial": 1, "serialpos": 6, "trial_type": "single-stim", "trial_index": 61, "time_elapsed": 384732, "internal_node_id": "0.0-43.0"}}, {"uniqueid": "MTK1224:3L0KT67Y8FN1E819Q8TXYTK89ANSYX", "current_trial": 62, "dateTime": 1513462761594, "trialdata": {"rt": -1, "stimulus": "<p id=\"stim\">DRILL</p>", "key_press": -1, "type": "PRES_VIS", "word": "drill", "wordID": 496, "conditions": [18, 1200, "v", 18000], "trial": 1, "serialpos": 7, "trial_type": "single-stim", "trial_index": 62, "time_elapsed": 386840, "internal_node_id": "0.0-44.0"}}, {"uniqueid": "MTK1224:3L0KT67Y8FN1E819Q8TXYTK89ANSYX", "current_trial": 63, "dateTime": 1513462763962, "trialdata": {"rt": -1, "stimulus": "<p id=\"stim\">STALLION</p>", "key_press": -1, "type": "PRES_VIS", "word": "stallion", "wordID": 1368, "conditions": [18, 1200, "v", 18000], "trial": 1, "serialpos": 8, "trial_type": "single-stim", "trial_index": 63, "time_elapsed": 389208, "internal_node_id": "0.0-45.0"}}, {"uniqueid": "MTK1224:3L0KT67Y8FN1E819Q8TXYTK89ANSYX", "current_trial": 64, "dateTime": 1513462766230, "trialdata": {"rt": -1, "stimulus": "<p id=\"stim\">STUDENT</p>", "key_press": -1, "type": "PRES_VIS", "word": "student", "wordID": 1394, "conditions": [18, 1200, "v", 18000], "trial": 1, "serialpos": 9, "trial_type": "single-stim", "trial_index": 64, "time_elapsed": 391476, "internal_node_id": "0.0-46.0"}}, {"uniqueid": "MTK1224:3L0KT67Y8FN1E819Q8TXYTK89ANSYX", "current_trial": 65, "dateTime": 1513462768267, "trialdata": {"rt": -1, "stimulus": "<p id=\"stim\">ORCHID</p>", "key_press": -1, "type": "PRES_VIS", "word": "orchid", "wordID": 981, "conditions": [18, 1200, "v", 18000], "trial": 1, "serialpos": 10, "trial_type": "single-stim", "trial_index": 65, "time_elapsed": 393513, "internal_node_id": "0.0-47.0"}}, {"uniqueid": "MTK1224:3L0KT67Y8FN1E819Q8TXYTK89ANSYX", "current_trial": 66, "dateTime": 1513462770291, "trialdata": {"rt": -1, "stimulus": "<p id=\"stim\">CRAYON</p>", "key_press": -1, "type": "PRES_VIS", "word": "crayon", "wordID": 400, "conditions": [18, 1200, "v", 18000], "trial": 1, "serialpos": 11, "trial_type": "single-stim", "trial_index": 66, "time_elapsed": 395537, "internal_node_id": "0.0-48.0"}}, {"uniqueid": "MTK1224:3L0KT67Y8FN1E819Q8TXYTK89ANSYX", "current_trial": 67, "dateTime": 1513462772687, "trialdata": {"rt": -1, "stimulus": "<p id=\"stim\">LIVER</p>", "key_press": -1, "type": "PRES_VIS", "word": "liver", "wordID": 832, "conditions": [18, 1200, "v", 18000], "trial": 1, "serialpos": 12, "trial_type": "single-stim", "trial_index": 67, "time_elapsed": 397933, "internal_node_id": "0.0-49.0"}}, {"uniqueid": "MTK1224:3L0KT67Y8FN1E819Q8TXYTK89ANSYX", "current_trial": 68, "dateTime": 1513462774977, "trialdata": {"rt": -1, "stimulus": "<p id=\"stim\">OINTMENT</p>", "key_press": -1, "type": "PRES_VIS", "word": "ointment", "wordID": 973, "conditions": [18, 1200, "v", 18000], "trial": 1, "serialpos": 13, "trial_type": "single-stim", "trial_index": 68, "time_elapsed": 400223, "internal_node_id": "0.0-50.0"}}, {"uniqueid": "MTK1224:3L0KT67Y8FN1E819Q8TXYTK89ANSYX", "current_trial": 69, "dateTime": 1513462777369, "trialdata": {"rt": -1, "stimulus": "<p id=\"stim\">OYSTER</p>", "key_press": -1, "type": "PRES_VIS", "word": "oyster", "wordID": 994, "conditions": [18, 1200, "v", 18000], "trial": 1, "serialpos": 14, "trial_type": "single-stim", "trial_index": 69, "time_elapsed": 402614, "internal_node_id": "0.0-51.0"}}, {"uniqueid": "MTK1224:3L0KT67Y8FN1E819Q8TXYTK89ANSYX", "current_trial": 70, "dateTime": 1513462779760, "trialdata": {"rt": -1, "stimulus": "<p id=\"stim\">VIKING</p>", "key_press": -1, "type": "PRES_VIS", "word": "viking", "wordID": 1564, "conditions": [18, 1200, "v", 18000], "trial": 1, "serialpos": 15, "trial_type": "single-stim", "trial_index": 70, "time_elapsed": 405006, "internal_node_id": "0.0-52.0"}}, {"uniqueid": "MTK1224:3L0KT67Y8FN1E819Q8TXYTK89ANSYX", "current_trial": 71, "dateTime": 1513462782077, "trialdata": {"rt": -1, "stimulus": "<p id=\"stim\">FOOT</p>", "key_press": -1, "type": "PRES_VIS", "word": "foot", "wordID": 589, "conditions": [18, 1200, "v", 18000], "trial": 1, "serialpos": 16, "trial_type": "single-stim", "trial_index": 71, "time_elapsed": 407322, "internal_node_id": "0.0-53.0"}}, {"uniqueid": "MTK1224:3L0KT67Y8FN1E819Q8TXYTK89ANSYX", "current_trial": 72, "dateTime": 1513462784309, "trialdata": {"rt": -1, "stimulus": "<p id=\"stim\">BIKE</p>", "key_press": -1, "type": "PRES_VIS", "word": "bike", "wordID": 124, "conditions": [18, 1200, "v", 18000], "trial": 1, "serialpos": 17, "trial_type": "single-stim", "trial_index": 72, "time_elapsed": 409555, "internal_node_id": "0.0-54.0"}}, {"uniqueid": "MTK1224:3L0KT67Y8FN1E819Q8TXYTK89ANSYX", "current_trial": 73, "dateTime": 1513462786530, "trialdata": {"rt": -1, "stimulus": "", "key_press": -1, "type": "PRE_RECALL_DELAY", "trial_type": "single-stim", "trial_index": 73, "time_elapsed": 411776, "internal_node_id": "0.0-55.0-0.0"}}, {"uniqueid": "MTK1224:3L0KT67Y8FN1E819Q8TXYTK89ANSYX", "current_trial": 74, "dateTime": 1513462787032, "trialdata": {"rt": -1000, "stimulus": "/static/audio/400Hz.wav", "key_press": -1, "type": "PRE_RECALL_ALERT", "trial_type": "single-audio", "trial_index": 74, "time_elapsed": 412277, "internal_node_id": "0.0-56.0"}}, {"uniqueid": "MTK1224:3L0KT67Y8FN1E819Q8TXYTK89ANSYX", "current_trial": 75, "dateTime": 1513462847046, "trialdata": {"rt": [2207, 3512, 4737, 6172, 8192, 9729, 11558, 14817, 23376, 24516, 58551], "recwords": ["viking", "foot", "bike", "ankle", "turtle", "hatchet", "ointment", "oyster", "trombone", "tuba", "crayon"], "type": "FREE_RECALL", "conditions": [18, 1200, "v", 18000], "trial": 1, "trial_type": "free-recall", "trial_index": 75, "time_elapsed": 472285, "internal_node_id": "0.0-57.0-0.0"}}, {"uniqueid": "MTK1224:3L0KT67Y8FN1E819Q8TXYTK89ANSYX", "current_trial": 76, "dateTime": 1513462852499, "trialdata": {"rt": 3444, "key_press": 13, "type": "INSTRUCTIONS", "trial_type": "text", "trial_index": 76, "time_elapsed": 477741, "internal_node_id": "0.0-58.0"}}, {"uniqueid": "MTK1224:3L0KT67Y8FN1E819Q8TXYTK89ANSYX", "current_trial": 77, "dateTime": 1513462865510, "trialdata": {"rt": [2250, 3749, 6241, 8187, 10321], "responses": ["10", "11", "16", "16", "18"], "num1": [2, 7, 7, 9, 7, 9], "num2": [5, 1, 7, 1, 4, 2], "num3": [3, 3, 2, 6, 7, 1], "type": "DISTRACTOR", "conditions": [12, 800, "a", 12000], "trial": 2, "trial_type": "math-distractor", "trial_index": 77, "time_elapsed": 490755, "internal_node_id": "0.0-59.0"}}, {"uniqueid": "MTK1224:3L0KT67Y8FN1E819Q8TXYTK89ANSYX", "current_trial": 78, "dateTime": 1513462868517, "trialdata": {"rt": -1, "stimulus": "<p id=\"stim\">10</p>", "key_press": -1, "trial_type": "single-stim", "trial_index": 78, "time_elapsed": 493762, "internal_node_id": "0.0-60.0-0.0"}}, {"uniqueid": "MTK1224:3L0KT67Y8FN1E819Q8TXYTK89ANSYX", "current_trial": 79, "dateTime": 1513462869531, "trialdata": {"rt": -1, "stimulus": "<p id=\"stim\">9</p>", "key_press": -1, "trial_type": "single-stim", "trial_index": 79, "time_elapsed": 494776, "internal_node_id": "0.0-60.0-1.0"}}, {"uniqueid": "MTK1224:3L0KT67Y8FN1E819Q8TXYTK89ANSYX", "current_trial": 80, "dateTime": 1513462870533, "trialdata": {"rt": -1, "stimulus": "<p id=\"stim\">8</p>", "key_press": -1, "trial_type": "single-stim", "trial_index": 80, "time_elapsed": 495778, "internal_node_id": "0.0-60.0-2.0"}}, {"uniqueid": "MTK1224:3L0KT67Y8FN1E819Q8TXYTK89ANSYX", "current_trial": 81, "dateTime": 1513462871536, "trialdata": {"rt": -1, "stimulus": "<p id=\"stim\">7</p>", "key_press": -1, "trial_type": "single-stim", "trial_index": 81, "time_elapsed": 496782, "internal_node_id": "0.0-60.0-3.0"}}, {"uniqueid": "MTK1224:3L0KT67Y8FN1E819Q8TXYTK89ANSYX", "current_trial": 82, "dateTime": 1513462872543, "trialdata": {"rt": -1, "stimulus": "<p id=\"stim\">6</p>", "key_press": -1, "trial_type": "single-stim", "trial_index": 82, "time_elapsed": 497789, "internal_node_id": "0.0-60.0-4.0"}}, {"uniqueid": "MTK1224:3L0KT67Y8FN1E819Q8TXYTK89ANSYX", "current_trial": 83, "dateTime": 1513462873546, "trialdata": {"rt": -1, "stimulus": "<p id=\"stim\">5</p>", "key_press": -1, "trial_type": "single-stim", "trial_index": 83, "time_elapsed": 498791, "internal_node_id": "0.0-60.0-5.0"}}, {"uniqueid": "MTK1224:3L0KT67Y8FN1E819Q8TXYTK89ANSYX", "current_trial": 84, "dateTime": 1513462874547, "trialdata": {"rt": -1, "stimulus": "<p id=\"stim\">4</p>", "key_press": -1, "trial_type": "single-stim", "trial_index": 84, "time_elapsed": 499793, "internal_node_id": "0.0-60.0-6.0"}}, {"uniqueid": "MTK1224:3L0KT67Y8FN1E819Q8TXYTK89ANSYX", "current_trial": 85, "dateTime": 1513462875553, "trialdata": {"rt": -1, "stimulus": "<p id=\"stim\">3</p>", "key_press": -1, "trial_type": "single-stim", "trial_index": 85, "time_elapsed": 500798, "internal_node_id": "0.0-60.0-7.0"}}, {"uniqueid": "MTK1224:3L0KT67Y8FN1E819Q8TXYTK89ANSYX", "current_trial": 86, "dateTime": 1513462876558, "trialdata": {"rt": -1, "stimulus": "<p id=\"stim\">2</p>", "key_press": -1, "trial_type": "single-stim", "trial_index": 86, "time_elapsed": 501803, "internal_node_id": "0.0-60.0-8.0"}}, {"uniqueid": "MTK1224:3L0KT67Y8FN1E819Q8TXYTK89ANSYX", "current_trial": 87, "dateTime": 1513462877574, "trialdata": {"rt": -1, "stimulus": "<p id=\"stim\">1</p>", "key_press": -1, "trial_type": "single-stim", "trial_index": 87, "time_elapsed": 502819, "internal_node_id": "0.0-60.0-9.0"}}, {"uniqueid": "MTK1224:3L0KT67Y8FN1E819Q8TXYTK89ANSYX", "current_trial": 88, "dateTime": 1513462879088, "trialdata": {"rt": -1, "stimulus": "<p id=\"stim\">+</p>", "key_press": -1, "type": "FIXATION", "trial_type": "single-stim", "trial_index": 88, "time_elapsed": 504334, "internal_node_id": "0.0-61.0-0.0"}}, {"uniqueid": "MTK1224:3L0KT67Y8FN1E819Q8TXYTK89ANSYX", "current_trial": 89, "dateTime": 1513462880767, "trialdata": {"rt": -1000, "stimulus": "/static/audio/wordpool/SCARF.wav", "key_press": -1, "type": "PRES_AUD", "word": "scarf", "wordID": 1245, "conditions": [12, 800, "a", 12000], "trial": 2, "serialpos": 0, "trial_type": "single-audio", "trial_index": 89, "time_elapsed": 506012, "internal_node_id": "0.0-62.0"}}, {"uniqueid": "MTK1224:3L0KT67Y8FN1E819Q8TXYTK89ANSYX", "current_trial": 90, "dateTime": 1513462882481, "trialdata": {"rt": -1000, "stimulus": "/static/audio/wordpool/WAITER.wav", "key_press": -1, "type": "PRES_AUD", "word": "waiter", "wordID": 1579, "conditions": [12, 800, "a", 12000], "trial": 2, "serialpos": 1, "trial_type": "single-audio", "trial_index": 90, "time_elapsed": 507726, "internal_node_id": "0.0-63.0"}}, {"uniqueid": "MTK1224:3L0KT67Y8FN1E819Q8TXYTK89ANSYX", "current_trial": 91, "dateTime": 1513462884154, "trialdata": {"rt": 510.666666666566, "stimulus": "/static/audio/wordpool/ARMY.wav", "key_press": 183, "type": "PRES_AUD", "word": "army", "wordID": 38, "conditions": [12, 800, "a", 12000], "trial": 2, "serialpos": 2, "trial_type": "single-audio", "trial_index": 91, "time_elapsed": 509400, "internal_node_id": "0.0-64.0"}}, {"uniqueid": "MTK1224:3L0KT67Y8FN1E819Q8TXYTK89ANSYX", "current_trial": 92, "dateTime": 1513462885852, "trialdata": {"rt": -1000, "stimulus": "/static/audio/wordpool/COUSIN.wav", "key_press": -1, "type": "PRES_AUD", "word": "cousin", "wordID": 391, "conditions": [12, 800, "a", 12000], "trial": 2, "serialpos": 3, "trial_type": "single-audio", "trial_index": 92, "time_elapsed": 511097, "internal_node_id": "0.0-65.0"}}, {"uniqueid": "MTK1224:3L0KT67Y8FN1E819Q8TXYTK89ANSYX", "current_trial": 93, "dateTime": 1513462887774, "trialdata": {"rt": -1000, "stimulus": "/static/audio/wordpool/GYMNAST.wav", "key_press": -1, "type": "PRES_AUD", "word": "gymnast", "wordID": 674, "conditions": [12, 800, "a", 12000], "trial": 2, "serialpos": 4, "trial_type": "single-audio", "trial_index": 93, "time_elapsed": 513020, "internal_node_id": "0.0-66.0"}}, {"uniqueid": "MTK1224:3L0KT67Y8FN1E819Q8TXYTK89ANSYX", "current_trial": 94, "dateTime": 1513462889504, "trialdata": {"rt": -1000, "stimulus": "/static/audio/wordpool/UNCLE.wav", "key_press": -1, "type": "PRES_AUD", "word": "uncle", "wordID": 1535, "conditions": [12, 800, "a", 12000], "trial": 2, "serialpos": 5, "trial_type": "single-audio", "trial_index": 94, "time_elapsed": 514750, "internal_node_id": "0.0-67.0"}}, {"uniqueid": "MTK1224:3L0KT67Y8FN1E819Q8TXYTK89ANSYX", "current_trial": 95, "dateTime": 1513462891375, "trialdata": {"rt": -1000, "stimulus": "/static/audio/wordpool/PIANO.wav", "key_press": -1, "type": "PRES_AUD", "word": "piano", "wordID": 1056, "conditions": [12, 800, "a", 12000], "trial": 2, "serialpos": 6, "trial_type": "single-audio", "trial_index": 95, "time_elapsed": 516620, "internal_node_id": "0.0-68.0"}}, {"uniqueid": "MTK1224:3L0KT67Y8FN1E819Q8TXYTK89ANSYX", "current_trial": 96, "dateTime": 1513462893057, "trialdata": {"rt": -1000, "stimulus": "/static/audio/wordpool/FLUTE.wav", "key_press": -1, "type": "PRES_AUD", "word": "flute", "wordID": 584, "conditions": [12, 800, "a", 12000], "trial": 2, "serialpos": 7, "trial_type": "single-audio", "trial_index": 96, "time_elapsed": 518303, "internal_node_id": "0.0-69.0"}}, {"uniqueid": "MTK1224:3L0KT67Y8FN1E819Q8TXYTK89ANSYX", "current_trial": 97, "dateTime": 1513462894781, "trialdata": {"rt": -1000, "stimulus": "/static/audio/wordpool/DANCER.wav", "key_press": -1, "type": "PRES_AUD", "word": "dancer", "wordID": 436, "conditions": [12, 800, "a", 12000], "trial": 2, "serialpos": 8, "trial_type": "single-audio", "trial_index": 97, "time_elapsed": 520027, "internal_node_id": "0.0-70.0"}}, {"uniqueid": "MTK1224:3L0KT67Y8FN1E819Q8TXYTK89ANSYX", "current_trial": 98, "dateTime": 1513462896686, "trialdata": {"rt": -1000, "stimulus": "/static/audio/wordpool/COTTAGE.wav", "key_press": -1, "type": "PRES_AUD", "word": "cottage", "wordID": 383, "conditions": [12, 800, "a", 12000], "trial": 2, "serialpos": 9, "trial_type": "single-audio", "trial_index": 98, "time_elapsed": 521932, "internal_node_id": "0.0-71.0"}}, {"uniqueid": "MTK1224:3L0KT67Y8FN1E819Q8TXYTK89ANSYX", "current_trial": 99, "dateTime": 1513462898617, "trialdata": {"rt": -1000, "stimulus": "/static/audio/wordpool/MAILMAN.wav", "key_press": -1, "type": "PRES_AUD", "word": "mailman", "wordID": 857, "conditions": [12, 800, "a", 12000], "trial": 2, "serialpos": 10, "trial_type": "single-audio", "trial_index": 99, "time_elapsed": 523861, "internal_node_id": "0.0-72.0"}}, {"uniqueid": "MTK1224:3L0KT67Y8FN1E819Q8TXYTK89ANSYX", "current_trial": 100, "dateTime": 1513462900492, "trialdata": {"rt": -1000, "stimulus": "/static/audio/wordpool/WASHER.wav", "key_press": -1, "type": "PRES_AUD", "word": "washer", "wordID": 1591, "conditions": [12, 800, "a", 12000], "trial": 2, "serialpos": 11, "trial_type": "single-audio", "trial_index": 100, "time_elapsed": 525738, "internal_node_id": "0.0-73.0"}}, {"uniqueid": "MTK1224:3L0KT67Y8FN1E819Q8TXYTK89ANSYX", "current_trial": 101, "dateTime": 1513462901804, "trialdata": {"rt": -1, "stimulus": "", "key_press": -1, "type": "PRE_RECALL_DELAY", "trial_type": "single-stim", "trial_index": 101, "time_elapsed": 527050, "internal_node_id": "0.0-74.0-0.0"}}, {"uniqueid": "MTK1224:3L0KT67Y8FN1E819Q8TXYTK89ANSYX", "current_trial": 102, "dateTime": 1513462902315, "trialdata": {"rt": -1000, "stimulus": "/static/audio/400Hz.wav", "key_press": -1, "type": "PRE_RECALL_ALERT", "trial_type": "single-audio", "trial_index": 102, "time_elapsed": 527561, "internal_node_id": "0.0-75.0"}}, {"uniqueid": "MTK1224:3L0KT67Y8FN1E819Q8TXYTK89ANSYX", "current_trial": 103, "dateTime": 1513462962337, "trialdata": {"rt": [1960, 3211, 4660, 6287, 8397, 12039], "recwords": ["mailman", "washer", "cousin", "uncle", "army", "cottage"], "type": "FREE_RECALL", "conditions": [12, 800, "a", 12000], "trial": 2, "trial_type": "free-recall", "trial_index": 103, "time_elapsed": 587576, "internal_node_id": "0.0-76.0-0.0"}}, {"uniqueid": "MTK1224:3L0KT67Y8FN1E819Q8TXYTK89ANSYX", "current_trial": 104, "dateTime": 1513462965907, "trialdata": {"rt": 1567, "key_press": 32, "type": "INSTRUCTIONS", "trial_type": "text", "trial_index": 104, "time_elapsed": 591153, "internal_node_id": "0.0-77.0"}}, {"uniqueid": "MTK1224:3L0KT67Y8FN1E819Q8TXYTK89ANSYX", "current_trial": 105, "dateTime": 1513462991939, "trialdata": {"rt": [2793, 4989, 7576, 9549, 11610, 13528, 15770, 17675, 19169, 21250, 23609], "responses": ["13", "15", "20", "20", "20", "10", "13", "13", "13", "21", "17"], "num1": [7, 7, 7, 6, 8, 1, 5, 9, 5, 5, 4, 6], "num2": [4, 3, 5, 7, 6, 7, 2, 2, 5, 8, 7, 4], "num3": [2, 5, 8, 7, 6, 2, 6, 2, 3, 8, 6, 2], "type": "DISTRACTOR", "conditions": [12, 800, "a", 24000], "trial": 3, "trial_type": "math-distractor", "trial_index": 105, "time_elapsed": 617184, "internal_node_id": "0.0-78.0"}}, {"uniqueid": "MTK1224:3L0KT67Y8FN1E819Q8TXYTK89ANSYX", "current_trial": 106, "dateTime": 1513462994958, "trialdata": {"rt": -1, "stimulus": "<p id=\"stim\">10</p>", "key_press": -1, "trial_type": "single-stim", "trial_index": 106, "time_elapsed": 620204, "internal_node_id": "0.0-79.0-0.0"}}, {"uniqueid": "MTK1224:3L0KT67Y8FN1E819Q8TXYTK89ANSYX", "current_trial": 107, "dateTime": 1513462995963, "trialdata": {"rt": -1, "stimulus": "<p id=\"stim\">9</p>", "key_press": -1, "trial_type": "single-stim", "trial_index": 107, "time_elapsed": 621208, "internal_node_id": "0.0-79.0-1.0"}}, {"uniqueid": "MTK1224:3L0KT67Y8FN1E819Q8TXYTK89ANSYX", "current_trial": 108, "dateTime": 1513462996964, "trialdata": {"rt": -1, "stimulus": "<p id=\"stim\">8</p>", "key_press": -1, "trial_type": "single-stim", "trial_index": 108, "time_elapsed": 622210, "internal_node_id": "0.0-79.0-2.0"}}, {"uniqueid": "MTK1224:3L0KT67Y8FN1E819Q8TXYTK89ANSYX", "current_trial": 109, "dateTime": 1513462997980, "trialdata": {"rt": -1, "stimulus": "<p id=\"stim\">7</p>", "key_press": -1, "trial_type": "single-stim", "trial_index": 109, "time_elapsed": 623226, "internal_node_id": "0.0-79.0-3.0"}}, {"uniqueid": "MTK1224:3L0KT67Y8FN1E819Q8TXYTK89ANSYX", "current_trial": 110, "dateTime": 1513462998982, "trialdata": {"rt": -1, "stimulus": "<p id=\"stim\">6</p>", "key_press": -1, "trial_type": "single-stim", "trial_index": 110, "time_elapsed": 624227, "internal_node_id": "0.0-79.0-4.0"}}, {"uniqueid": "MTK1224:3L0KT67Y8FN1E819Q8TXYTK89ANSYX", "current_trial": 111, "dateTime": 1513462999990, "trialdata": {"rt": -1, "stimulus": "<p id=\"stim\">5</p>", "key_press": -1, "trial_type": "single-stim", "trial_index": 111, "time_elapsed": 625236, "internal_node_id": "0.0-79.0-5.0"}}, {"uniqueid": "MTK1224:3L0KT67Y8FN1E819Q8TXYTK89ANSYX", "current_trial": 112, "dateTime": 1513463000992, "trialdata": {"rt": -1, "stimulus": "<p id=\"stim\">4</p>", "key_press": -1, "trial_type": "single-stim", "trial_index": 112, "time_elapsed": 626238, "internal_node_id": "0.0-79.0-6.0"}}, {"uniqueid": "MTK1224:3L0KT67Y8FN1E819Q8TXYTK89ANSYX", "current_trial": 113, "dateTime": 1513463001994, "trialdata": {"rt": -1, "stimulus": "<p id=\"stim\">3</p>", "key_press": -1, "trial_type": "single-stim", "trial_index": 113, "time_elapsed": 627240, "internal_node_id": "0.0-79.0-7.0"}}, {"uniqueid": "MTK1224:3L0KT67Y8FN1E819Q8TXYTK89ANSYX", "current_trial": 114, "dateTime": 1513463003001, "trialdata": {"rt": -1, "stimulus": "<p id=\"stim\">2</p>", "key_press": -1, "trial_type": "single-stim", "trial_index": 114, "time_elapsed": 628246, "internal_node_id": "0.0-79.0-8.0"}}, {"uniqueid": "MTK1224:3L0KT67Y8FN1E819Q8TXYTK89ANSYX", "current_trial": 115, "dateTime": 1513463004005, "trialdata": {"rt": -1, "stimulus": "<p id=\"stim\">1</p>", "key_press": -1, "trial_type": "single-stim", "trial_index": 115, "time_elapsed": 629251, "internal_node_id": "0.0-79.0-9.0"}}, {"uniqueid": "MTK1224:3L0KT67Y8FN1E819Q8TXYTK89ANSYX", "current_trial": 116, "dateTime": 1513463005516, "trialdata": {"rt": -1, "stimulus": "<p id=\"stim\">+</p>", "key_press": -1, "type": "FIXATION", "trial_type": "single-stim", "trial_index": 116, "time_elapsed": 630762, "internal_node_id": "0.0-80.0-0.0"}}, {"uniqueid": "MTK1224:3L0KT67Y8FN1E819Q8TXYTK89ANSYX", "current_trial": 117, "dateTime": 1513463007473, "trialdata": {"rt": -1000, "stimulus": "/static/audio/wordpool/GLOBE.wav", "key_press": -1, "type": "PRES_AUD", "word": "globe", "wordID": 640, "conditions": [12, 800, "a", 24000], "trial": 3, "serialpos": 0, "trial_type": "single-audio", "trial_index": 117, "time_elapsed": 632718, "internal_node_id": "0.0-81.0"}}, {"uniqueid": "MTK1224:3L0KT67Y8FN1E819Q8TXYTK89ANSYX", "current_trial": 118, "dateTime": 1513463009264, "trialdata": {"rt": -1000, "stimulus": "/static/audio/wordpool/HANDBAG.wav", "key_press": -1, "type": "PRES_AUD", "word": "handbag", "wordID": 683, "conditions": [12, 800, "a", 24000], "trial": 3, "serialpos": 1, "trial_type": "single-audio", "trial_index": 118, "time_elapsed": 634509, "internal_node_id": "0.0-82.0"}}, {"uniqueid": "MTK1224:3L0KT67Y8FN1E819Q8TXYTK89ANSYX", "current_trial": 119, "dateTime": 1513463011232, "trialdata": {"rt": -1000, "stimulus": "/static/audio/wordpool/SEAL.wav", "key_press": -1, "type": "PRES_AUD", "word": "seal", "wordID": 1261, "conditions": [12, 800, "a", 24000], "trial": 3, "serialpos": 2, "trial_type": "single-audio", "trial_index": 119, "time_elapsed": 636478, "internal_node_id": "0.0-83.0"}}, {"uniqueid": "MTK1224:3L0KT67Y8FN1E819Q8TXYTK89ANSYX", "current_trial": 120, "dateTime": 1513463013147, "trialdata": {"rt": -1000, "stimulus": "/static/audio/wordpool/WHISTLE.wav", "key_press": -1, "type": "PRES_AUD", "word": "whistle", "wordID": 1605, "conditions": [12, 800, "a", 24000], "trial": 3, "serialpos": 3, "trial_type": "single-audio", "trial_index": 120, "time_elapsed": 638392, "internal_node_id": "0.0-84.0"}}, {"uniqueid": "MTK1224:3L0KT67Y8FN1E819Q8TXYTK89ANSYX", "current_trial": 121, "dateTime": 1513463015105, "trialdata": {"rt": -1000, "stimulus": "/static/audio/wordpool/UMPIRE.wav", "key_press": -1, "type": "PRES_AUD", "word": "umpire", "wordID": 1534, "conditions": [12, 800, "a", 24000], "trial": 3, "serialpos": 4, "trial_type": "single-audio", "trial_index": 121, "time_elapsed": 640350, "internal_node_id": "0.0-85.0"}}, {"uniqueid": "MTK1224:3L0KT67Y8FN1E819Q8TXYTK89ANSYX", "current_trial": 122, "dateTime": 1513463016770, "trialdata": {"rt": -1000, "stimulus": "/static/audio/wordpool/PUDDING.wav", "key_press": -1, "type": "PRES_AUD", "word": "pudding", "wordID": 1138, "conditions": [12, 800, "a", 24000], "trial": 3, "serialpos": 5, "trial_type": "single-audio", "trial_index": 122, "time_elapsed": 642016, "internal_node_id": "0.0-86.0"}}, {"uniqueid": "MTK1224:3L0KT67Y8FN1E819Q8TXYTK89ANSYX", "current_trial": 123, "dateTime": 1513463018684, "trialdata": {"rt": -1000, "stimulus": "/static/audio/wordpool/CUSTARD.wav", "key_press": -1, "type": "PRES_AUD", "word": "custard", "wordID": 428, "conditions": [12, 800, "a", 24000], "trial": 3, "serialpos": 6, "trial_type": "single-audio", "trial_index": 123, "time_elapsed": 643930, "internal_node_id": "0.0-87.0"}}, {"uniqueid": "MTK1224:3L0KT67Y8FN1E819Q8TXYTK89ANSYX", "current_trial": 124, "dateTime": 1513463020367, "trialdata": {"rt": -1000, "stimulus": "/static/audio/wordpool/SUMMIT.wav", "key_press": -1, "type": "PRES_AUD", "word": "summit", "wordID": 1404, "conditions": [12, 800, "a", 24000], "trial": 3, "serialpos": 7, "trial_type": "single-audio", "trial_index": 124, "time_elapsed": 645613, "internal_node_id": "0.0-88.0"}}, {"uniqueid": "MTK1224:3L0KT67Y8FN1E819Q8TXYTK89ANSYX", "current_trial": 125, "dateTime": 1513463022216, "trialdata": {"rt": -1000, "stimulus": "/static/audio/wordpool/CASKET.wav", "key_press": -1, "type": "PRES_AUD", "word": "casket", "wordID": 254, "conditions": [12, 800, "a", 24000], "trial": 3, "serialpos": 8, "trial_type": "single-audio", "trial_index": 125, "time_elapsed": 647462, "internal_node_id": "0.0-89.0"}}, {"uniqueid": "MTK1224:3L0KT67Y8FN1E819Q8TXYTK89ANSYX", "current_trial": 126, "dateTime": 1513463024052, "trialdata": {"rt": -1000, "stimulus": "/static/audio/wordpool/BEAVER.wav", "key_press": -1, "type": "PRES_AUD", "word": "beaver", "wordID": 108, "conditions": [12, 800, "a", 24000], "trial": 3, "serialpos": 9, "trial_type": "single-audio", "trial_index": 126, "time_elapsed": 649298, "internal_node_id": "0.0-90.0"}}, {"uniqueid": "MTK1224:3L0KT67Y8FN1E819Q8TXYTK89ANSYX", "current_trial": 127, "dateTime": 1513463025736, "trialdata": {"rt": -1000, "stimulus": "/static/audio/wordpool/TERMITE.wav", "key_press": -1, "type": "PRES_AUD", "word": "termite", "wordID": 1450, "conditions": [12, 800, "a", 24000], "trial": 3, "serialpos": 10, "trial_type": "single-audio", "trial_index": 127, "time_elapsed": 650982, "internal_node_id": "0.0-91.0"}}, {"uniqueid": "MTK1224:3L0KT67Y8FN1E819Q8TXYTK89ANSYX", "current_trial": 128, "dateTime": 1513463027646, "trialdata": {"rt": -1000, "stimulus": "/static/audio/wordpool/TOMBSTONE.wav", "key_press": -1, "type": "PRES_AUD", "word": "tombstone", "wordID": 1477, "conditions": [12, 800, "a", 24000], "trial": 3, "serialpos": 11, "trial_type": "single-audio", "trial_index": 128, "time_elapsed": 652892, "internal_node_id": "0.0-92.0"}}, {"uniqueid": "MTK1224:3L0KT67Y8FN1E819Q8TXYTK89ANSYX", "current_trial": 129, "dateTime": 1513463028871, "trialdata": {"rt": -1, "stimulus": "", "key_press": -1, "type": "PRE_RECALL_DELAY", "trial_type": "single-stim", "trial_index": 129, "time_elapsed": 654116, "internal_node_id": "0.0-93.0-0.0"}}, {"uniqueid": "MTK1224:3L0KT67Y8FN1E819Q8TXYTK89ANSYX", "current_trial": 130, "dateTime": 1513463029379, "trialdata": {"rt": -1000, "stimulus": "/static/audio/400Hz.wav", "key_press": -1, "type": "PRE_RECALL_ALERT", "trial_type": "single-audio", "trial_index": 130, "time_elapsed": 654625, "internal_node_id": "0.0-94.0"}}, {"uniqueid": "MTK1224:3L0KT67Y8FN1E819Q8TXYTK89ANSYX", "current_trial": 131, "dateTime": 1513463089400, "trialdata": {"rt": [1441, 3773, 5768, 7398, 8904, 10738], "recwords": ["seal", "umpire", "tombstone", "beaver", "casket", "whistle"], "type": "FREE_RECALL", "conditions": [12, 800, "a", 24000], "trial": 3, "trial_type": "free-recall", "trial_index": 131, "time_elapsed": 714639, "internal_node_id": "0.0-95.0-0.0"}}, {"uniqueid": "MTK1224:3L0KT67Y8FN1E819Q8TXYTK89ANSYX", "current_trial": 132, "dateTime": 1513463093738, "trialdata": {"rt": 2325, "key_press": 32, "type": "INSTRUCTIONS", "trial_type": "text", "trial_index": 132, "time_elapsed": 718984, "internal_node_id": "0.0-96.0"}}, {"uniqueid": "MTK1224:3L0KT67Y8FN1E819Q8TXYTK89ANSYX", "current_trial": 133, "dateTime": 1513463107755, "trialdata": {"rt": [3541, 5817, 7581, 9676, 11319], "responses": ["17", "18", "9", "18", "9"], "num1": [8, 5, 1, 8, 1, 9], "num2": [2, 8, 1, 6, 7, 9], "num3": [7, 5, 7, 4, 1, 2], "type": "DISTRACTOR", "conditions": [24, 1600, "a", 12000], "trial": 4, "trial_type": "math-distractor", "trial_index": 133, "time_elapsed": 733000, "internal_node_id": "0.0-97.0"}}, {"uniqueid": "MTK1224:3L0KT67Y8FN1E819Q8TXYTK89ANSYX", "current_trial": 134, "dateTime": 1513463110763, "trialdata": {"rt": -1, "stimulus": "<p id=\"stim\">10</p>", "key_press": -1, "trial_type": "single-stim", "trial_index": 134, "time_elapsed": 736009, "internal_node_id": "0.0-98.0-0.0"}}, {"uniqueid": "MTK1224:3L0KT67Y8FN1E819Q8TXYTK89ANSYX", "current_trial": 135, "dateTime": 1513463111781, "trialdata": {"rt": -1, "stimulus": "<p id=\"stim\">9</p>", "key_press": -1, "trial_type": "single-stim", "trial_index": 135, "time_elapsed": 737027, "internal_node_id": "0.0-98.0-1.0"}}, {"uniqueid": "MTK1224:3L0KT67Y8FN1E819Q8TXYTK89ANSYX", "current_trial": 136, "dateTime": 1513463112797, "trialdata": {"rt": -1, "stimulus": "<p id=\"stim\">8</p>", "key_press": -1, "trial_type": "single-stim", "trial_index": 136, "time_elapsed": 738043, "internal_node_id": "0.0-98.0-2.0"}}, {"uniqueid": "MTK1224:3L0KT67Y8FN1E819Q8TXYTK89ANSYX", "current_trial": 137, "dateTime": 1513463113801, "trialdata": {"rt": -1, "stimulus": "<p id=\"stim\">7</p>", "key_press": -1, "trial_type": "single-stim", "trial_index": 137, "time_elapsed": 739046, "internal_node_id": "0.0-98.0-3.0"}}, {"uniqueid": "MTK1224:3L0KT67Y8FN1E819Q8TXYTK89ANSYX", "current_trial": 138, "dateTime": 1513463114815, "trialdata": {"rt": -1, "stimulus": "<p id=\"stim\">6</p>", "key_press": -1, "trial_type": "single-stim", "trial_index": 138, "time_elapsed": 740061, "internal_node_id": "0.0-98.0-4.0"}}, {"uniqueid": "MTK1224:3L0KT67Y8FN1E819Q8TXYTK89ANSYX", "current_trial": 139, "dateTime": 1513463115819, "trialdata": {"rt": -1, "stimulus": "<p id=\"stim\">5</p>", "key_press": -1, "trial_type": "single-stim", "trial_index": 139, "time_elapsed": 741064, "internal_node_id": "0.0-98.0-5.0"}}, {"uniqueid": "MTK1224:3L0KT67Y8FN1E819Q8TXYTK89ANSYX", "current_trial": 140, "dateTime": 1513463116835, "trialdata": {"rt": -1, "stimulus": "<p id=\"stim\">4</p>", "key_press": -1, "trial_type": "single-stim", "trial_index": 140, "time_elapsed": 742080, "internal_node_id": "0.0-98.0-6.0"}}, {"uniqueid": "MTK1224:3L0KT67Y8FN1E819Q8TXYTK89ANSYX", "current_trial": 141, "dateTime": 1513463117852, "trialdata": {"rt": -1, "stimulus": "<p id=\"stim\">3</p>", "key_press": -1, "trial_type": "single-stim", "trial_index": 141, "time_elapsed": 743098, "internal_node_id": "0.0-98.0-7.0"}}, {"uniqueid": "MTK1224:3L0KT67Y8FN1E819Q8TXYTK89ANSYX", "current_trial": 142, "dateTime": 1513463118855, "trialdata": {"rt": -1, "stimulus": "<p id=\"stim\">2</p>", "key_press": -1, "trial_type": "single-stim", "trial_index": 142, "time_elapsed": 744101, "internal_node_id": "0.0-98.0-8.0"}}, {"uniqueid": "MTK1224:3L0KT67Y8FN1E819Q8TXYTK89ANSYX", "current_trial": 143, "dateTime": 1513463119859, "trialdata": {"rt": -1, "stimulus": "<p id=\"stim\">1</p>", "key_press": -1, "trial_type": "single-stim", "trial_index": 143, "time_elapsed": 745105, "internal_node_id": "0.0-98.0-9.0"}}, {"uniqueid": "MTK1224:3L0KT67Y8FN1E819Q8TXYTK89ANSYX", "current_trial": 144, "dateTime": 1513463121366, "trialdata": {"rt": -1, "stimulus": "<p id=\"stim\">+</p>", "key_press": -1, "type": "FIXATION", "trial_type": "single-stim", "trial_index": 144, "time_elapsed": 746612, "internal_node_id": "0.0-99.0-0.0"}}, {"uniqueid": "MTK1224:3L0KT67Y8FN1E819Q8TXYTK89ANSYX", "current_trial": 145, "dateTime": 1513463123865, "trialdata": {"rt": -1000, "stimulus": "/static/audio/wordpool/MAMMAL.wav", "key_press": -1, "type": "PRES_AUD", "word": "mammal", "wordID": 860, "conditions": [24, 1600, "a", 12000], "trial": 4, "serialpos": 0, "trial_type": "single-audio", "trial_index": 145, "time_elapsed": 749111, "internal_node_id": "0.0-100.0"}}, {"uniqueid": "MTK1224:3L0KT67Y8FN1E819Q8TXYTK89ANSYX", "current_trial": 146, "dateTime": 1513463126463, "trialdata": {"rt": -1000, "stimulus": "/static/audio/wordpool/DAISY.wav", "key_press": -1, "type": "PRES_AUD", "word": "daisy", "wordID": 434, "conditions": [24, 1600, "a", 12000], "trial": 4, "serialpos": 1, "trial_type": "single-audio", "trial_index": 146, "time_elapsed": 751709, "internal_node_id": "0.0-101.0"}}, {"uniqueid": "MTK1224:3L0KT67Y8FN1E819Q8TXYTK89ANSYX", "current_trial": 147, "dateTime": 1513463129022, "trialdata": {"rt": -1000, "stimulus": "/static/audio/wordpool/FLOWER.wav", "key_press": -1, "type": "PRES_AUD", "word": "flower", "wordID": 583, "conditions": [24, 1600, "a", 12000], "trial": 4, "serialpos": 2, "trial_type": "single-audio", "trial_index": 147, "time_elapsed": 754268, "internal_node_id": "0.0-102.0"}}, {"uniqueid": "MTK1224:3L0KT67Y8FN1E819Q8TXYTK89ANSYX", "current_trial": 148, "dateTime": 1513463131730, "trialdata": {"rt": -1000, "stimulus": "/static/audio/wordpool/MOTOR.wav", "key_press": -1, "type": "PRES_AUD", "word": "motor", "wordID": 921, "conditions": [24, 1600, "a", 12000], "trial": 4, "serialpos": 3, "trial_type": "single-audio", "trial_index": 148, "time_elapsed": 756975, "internal_node_id": "0.0-103.0"}}, {"uniqueid": "MTK1224:3L0KT67Y8FN1E819Q8TXYTK89ANSYX", "current_trial": 149, "dateTime": 1513463134350, "trialdata": {"rt": -1000, "stimulus": "/static/audio/wordpool/ONION.wav", "key_press": -1, "type": "PRES_AUD", "word": "onion", "wordID": 976, "conditions": [24, 1600, "a", 12000], "trial": 4, "serialpos": 4, "trial_type": "single-audio", "trial_index": 149, "time_elapsed": 759596, "internal_node_id": "0.0-104.0"}}, {"uniqueid": "MTK1224:3L0KT67Y8FN1E819Q8TXYTK89ANSYX", "current_trial": 150, "dateTime": 1513463136798, "trialdata": {"rt": -1000, "stimulus": "/static/audio/wordpool/CROWN.wav", "key_press": -1, "type": "PRES_AUD", "word": "crown", "wordID": 414, "conditions": [24, 1600, "a", 12000], "trial": 4, "serialpos": 5, "trial_type": "single-audio", "trial_index": 150, "time_elapsed": 762044, "internal_node_id": "0.0-105.0"}}, {"uniqueid": "MTK1224:3L0KT67Y8FN1E819Q8TXYTK89ANSYX", "current_trial": 151, "dateTime": 1513463139511, "trialdata": {"rt": -1000, "stimulus": "/static/audio/wordpool/HIKER.wav", "key_press": -1, "type": "PRES_AUD", "word": "hiker", "wordID": 707, "conditions": [24, 1600, "a", 12000], "trial": 4, "serialpos": 6, "trial_type": "single-audio", "trial_index": 151, "time_elapsed": 764756, "internal_node_id": "0.0-106.0"}}, {"uniqueid": "MTK1224:3L0KT67Y8FN1E819Q8TXYTK89ANSYX", "current_trial": 152, "dateTime": 1513463142289, "trialdata": {"rt": -1000, "stimulus": "/static/audio/wordpool/TRACTOR.wav", "key_press": -1, "type": "PRES_AUD", "word": "tractor", "wordID": 1492, "conditions": [24, 1600, "a", 12000], "trial": 4, "serialpos": 7, "trial_type": "single-audio", "trial_index": 152, "time_elapsed": 767535, "internal_node_id": "0.0-107.0"}}, {"uniqueid": "MTK1224:3L0KT67Y8FN1E819Q8TXYTK89ANSYX", "current_trial": 153, "dateTime": 1513463144837, "trialdata": {"rt": -1000, "stimulus": "/static/audio/wordpool/FRANCE.wav", "key_press": -1, "type": "PRES_AUD", "word": "france", "wordID": 600, "conditions": [24, 1600, "a", 12000], "trial": 4, "serialpos": 8, "trial_type": "single-audio", "trial_index": 153, "time_elapsed": 770082, "internal_node_id": "0.0-108.0"}}, {"uniqueid": "MTK1224:3L0KT67Y8FN1E819Q8TXYTK89ANSYX", "current_trial": 154, "dateTime": 1513463147448, "trialdata": {"rt": -1000, "stimulus": "/static/audio/wordpool/ASIA.wav", "key_press": -1, "type": "PRES_AUD", "word": "asia", "wordID": 45, "conditions": [24, 1600, "a", 12000], "trial": 4, "serialpos": 9, "trial_type": "single-audio", "trial_index": 154, "time_elapsed": 772694, "internal_node_id": "0.0-109.0"}}, {"uniqueid": "MTK1224:3L0KT67Y8FN1E819Q8TXYTK89ANSYX", "current_trial": 155, "dateTime": 1513463149990, "trialdata": {"rt": -1000, "stimulus": "/static/audio/wordpool/POCKET.wav", "key_press": -1, "type": "PRES_AUD", "word": "pocket", "wordID": 1092, "conditions": [24, 1600, "a", 12000], "trial": 4, "serialpos": 10, "trial_type": "single-audio", "trial_index": 155, "time_elapsed": 775236, "internal_node_id": "0.0-110.0"}}, {"uniqueid": "MTK1224:3L0KT67Y8FN1E819Q8TXYTK89ANSYX", "current_trial": 156, "dateTime": 1513463152494, "trialdata": {"rt": -1000, "stimulus": "/static/audio/wordpool/TRUCK.wav", "key_press": -1, "type": "PRES_AUD", "word": "truck", "wordID": 1511, "conditions": [24, 1600, "a", 12000], "trial": 4, "serialpos": 11, "trial_type": "single-audio", "trial_index": 156, "time_elapsed": 777739, "internal_node_id": "0.0-111.0"}}, {"uniqueid": "MTK1224:3L0KT67Y8FN1E819Q8TXYTK89ANSYX", "current_trial": 157, "dateTime": 1513463154901, "trialdata": {"rt": -1000, "stimulus": "/static/audio/wordpool/MAPLE.wav", "key_press": -1, "type": "PRES_AUD", "word": "maple", "wordID": 865, "conditions": [24, 1600, "a", 12000], "trial": 4, "serialpos": 12, "trial_type": "single-audio", "trial_index": 157, "time_elapsed": 780146, "internal_node_id": "0.0-112.0"}}, {"uniqueid": "MTK1224:3L0KT67Y8FN1E819Q8TXYTK89ANSYX", "current_trial": 158, "dateTime": 1513463157340, "trialdata": {"rt": -1000, "stimulus": "/static/audio/wordpool/YARN.wav", "key_press": -1, "type": "PRES_AUD", "word": "yarn", "wordID": 1630, "conditions": [24, 1600, "a", 12000], "trial": 4, "serialpos": 13, "trial_type": "single-audio", "trial_index": 158, "time_elapsed": 782586, "internal_node_id": "0.0-113.0"}}, {"uniqueid": "MTK1224:3L0KT67Y8FN1E819Q8TXYTK89ANSYX", "current_trial": 159, "dateTime": 1513463159828, "trialdata": {"rt": -1000, "stimulus": "/static/audio/wordpool/THIEF.wav", "key_press": -1, "type": "PRES_AUD", "word": "thief", "wordID": 1455, "conditions": [24, 1600, "a", 12000], "trial": 4, "serialpos": 14, "trial_type": "single-audio", "trial_index": 159, "time_elapsed": 785073, "internal_node_id": "0.0-114.0"}}, {"uniqueid": "MTK1224:3L0KT67Y8FN1E819Q8TXYTK89ANSYX", "current_trial": 160, "dateTime": 1513463162240, "trialdata": {"rt": -1000, "stimulus": "/static/audio/wordpool/CANYON.wav", "key_press": -1, "type": "PRES_AUD", "word": "canyon", "wordID": 234, "conditions": [24, 1600, "a", 12000], "trial": 4, "serialpos": 15, "trial_type": "single-audio", "trial_index": 160, "time_elapsed": 787486, "internal_node_id": "0.0-115.0"}}, {"uniqueid": "MTK1224:3L0KT67Y8FN1E819Q8TXYTK89ANSYX", "current_trial": 161, "dateTime": 1513463164691, "trialdata": {"rt": -1000, "stimulus": "/static/audio/wordpool/LAKE.wav", "key_press": -1, "type": "PRES_AUD", "word": "lake", "wordID": 795, "conditions": [24, 1600, "a", 12000], "trial": 4, "serialpos": 16, "trial_type": "single-audio", "trial_index": 161, "time_elapsed": 789937, "internal_node_id": "0.0-116.0"}}, {"uniqueid": "MTK1224:3L0KT67Y8FN1E819Q8TXYTK89ANSYX", "current_trial": 162, "dateTime": 1513463167299, "trialdata": {"rt": -1000, "stimulus": "/static/audio/wordpool/CAMEL.wav", "key_press": -1, "type": "PRES_AUD", "word": "camel", "wordID": 222, "conditions": [24, 1600, "a", 12000], "trial": 4, "serialpos": 17, "trial_type": "single-audio", "trial_index": 162, "time_elapsed": 792544, "internal_node_id": "0.0-117.0"}}, {"uniqueid": "MTK1224:3L0KT67Y8FN1E819Q8TXYTK89ANSYX", "current_trial": 163, "dateTime": 1513463169786, "trialdata": {"rt": -1000, "stimulus": "/static/audio/wordpool/DONKEY.wav", "key_press": -1, "type": "PRES_AUD", "word": "donkey", "wordID": 483, "conditions": [24, 1600, "a", 12000], "trial": 4, "serialpos": 18, "trial_type": "single-audio", "trial_index": 163, "time_elapsed": 795031, "internal_node_id": "0.0-118.0"}}, {"uniqueid": "MTK1224:3L0KT67Y8FN1E819Q8TXYTK89ANSYX", "current_trial": 164, "dateTime": 1513463172335, "trialdata": {"rt": -1000, "stimulus": "/static/audio/wordpool/CELLAR.wav", "key_press": -1, "type": "PRES_AUD", "word": "cellar", "wordID": 266, "conditions": [24, 1600, "a", 12000], "trial": 4, "serialpos": 19, "trial_type": "single-audio", "trial_index": 164, "time_elapsed": 797580, "internal_node_id": "0.0-119.0"}}, {"uniqueid": "MTK1224:3L0KT67Y8FN1E819Q8TXYTK89ANSYX", "current_trial": 165, "dateTime": 1513463174744, "trialdata": {"rt": -1000, "stimulus": "/static/audio/wordpool/BRANDY.wav", "key_press": -1, "type": "PRES_AUD", "word": "brandy", "wordID": 168, "conditions": [24, 1600, "a", 12000], "trial": 4, "serialpos": 20, "trial_type": "single-audio", "trial_index": 165, "time_elapsed": 799990, "internal_node_id": "0.0-120.0"}}, {"uniqueid": "MTK1224:3L0KT67Y8FN1E819Q8TXYTK89ANSYX", "current_trial": 166, "dateTime": 1513463177262, "trialdata": {"rt": -1000, "stimulus": "/static/audio/wordpool/TWISTER.wav", "key_press": -1, "type": "PRES_AUD", "word": "twister", "wordID": 1529, "conditions": [24, 1600, "a", 12000], "trial": 4, "serialpos": 21, "trial_type": "single-audio", "trial_index": 166, "time_elapsed": 802508, "internal_node_id": "0.0-121.0"}}, {"uniqueid": "MTK1224:3L0KT67Y8FN1E819Q8TXYTK89ANSYX", "current_trial": 167, "dateTime": 1513463179856, "trialdata": {"rt": -1000, "stimulus": "/static/audio/wordpool/BASEMENT.wav", "key_press": -1, "type": "PRES_AUD", "word": "basement", "wordID": 93, "conditions": [24, 1600, "a", 12000], "trial": 4, "serialpos": 22, "trial_type": "single-audio", "trial_index": 167, "time_elapsed": 805102, "internal_node_id": "0.0-122.0"}}, {"uniqueid": "MTK1224:3L0KT67Y8FN1E819Q8TXYTK89ANSYX", "current_trial": 168, "dateTime": 1513463182416, "trialdata": {"rt": -1000, "stimulus": "/static/audio/wordpool/FLASK.wav", "key_press": -1, "type": "PRES_AUD", "word": "flask", "wordID": 575, "conditions": [24, 1600, "a", 12000], "trial": 4, "serialpos": 23, "trial_type": "single-audio", "trial_index": 168, "time_elapsed": 807662, "internal_node_id": "0.0-123.0"}}, {"uniqueid": "MTK1224:3L0KT67Y8FN1E819Q8TXYTK89ANSYX", "current_trial": 169, "dateTime": 1513463183821, "trialdata": {"rt": -1, "stimulus": "", "key_press": -1, "type": "PRE_RECALL_DELAY", "trial_type": "single-stim", "trial_index": 169, "time_elapsed": 809067, "internal_node_id": "0.0-124.0-0.0"}}, {"uniqueid": "MTK1224:3L0KT67Y8FN1E819Q8TXYTK89ANSYX", "current_trial": 170, "dateTime": 1513463184329, "trialdata": {"rt": -1000, "stimulus": "/static/audio/400Hz.wav", "key_press": -1, "type": "PRE_RECALL_ALERT", "trial_type": "single-audio", "trial_index": 170, "time_elapsed": 809574, "internal_node_id": "0.0-125.0"}}, {"uniqueid": "MTK1224:3L0KT67Y8FN1E819Q8TXYTK89ANSYX", "current_trial": 171, "dateTime": 1513463244346, "trialdata": {"rt": [1602, 3718, 5163, 6552, 8518, 12153, 18160, 26751, 28006, 30102], "recwords": ["brandy", "twister", "basement", "flask", "daisy", "flower", "france", "motor", "truck", "tractor"], "type": "FREE_RECALL", "conditions": [24, 1600, "a", 12000], "trial": 4, "trial_type": "free-recall", "trial_index": 171, "time_elapsed": 869586, "internal_node_id": "0.0-126.0-0.0"}}, {"uniqueid": "MTK1224:3L0KT67Y8FN1E819Q8TXYTK89ANSYX", "current_trial": 172, "dateTime": 1513463254889, "trialdata": {"rt": 8539, "key_press": 32, "type": "INSTRUCTIONS", "trial_type": "text", "trial_index": 172, "time_elapsed": 880135, "internal_node_id": "0.0-127.0"}}, {"uniqueid": "MTK1224:3L0KT67Y8FN1E819Q8TXYTK89ANSYX", "current_trial": 173, "dateTime": 1513463280906, "trialdata": {"rt": [3187, 5277, 7339, 9122, 10797, 12943, 14735, 16850, 18223, 20286, 21798], "responses": ["20", "16", "17", "19", "10", "18", "17", "21", "12", "20", "10"], "num1": [4, 7, 6, 1, 1, 5, 3, 7, 4, 6, 1, 8], "num2": [9, 3, 3, 9, 3, 6, 6, 6, 6, 8, 5, 6], "num3": [7, 6, 8, 9, 6, 7, 8, 8, 2, 6, 4, 6], "type": "DISTRACTOR", "conditions": [12, 1600, "v", 24000], "trial": 5, "trial_type": "math-distractor", "trial_index": 173, "time_elapsed": 906152, "internal_node_id": "0.0-128.0"}}, {"uniqueid": "MTK1224:3L0KT67Y8FN1E819Q8TXYTK89ANSYX", "current_trial": 174, "dateTime": 1513463283926, "trialdata": {"rt": -1, "stimulus": "<p id=\"stim\">10</p>", "key_press": -1, "trial_type": "single-stim", "trial_index": 174, "time_elapsed": 909172, "internal_node_id": "0.0-129.0-0.0"}}, {"uniqueid": "MTK1224:3L0KT67Y8FN1E819Q8TXYTK89ANSYX", "current_trial": 175, "dateTime": 1513463284929, "trialdata": {"rt": -1, "stimulus": "<p id=\"stim\">9</p>", "key_press": -1, "trial_type": "single-stim", "trial_index": 175, "time_elapsed": 910175, "internal_node_id": "0.0-129.0-1.0"}}, {"uniqueid": "MTK1224:3L0KT67Y8FN1E819Q8TXYTK89ANSYX", "current_trial": 176, "dateTime": 1513463285945, "trialdata": {"rt": -1, "stimulus": "<p id=\"stim\">8</p>", "key_press": -1, "trial_type": "single-stim", "trial_index": 176, "time_elapsed": 911191, "internal_node_id": "0.0-129.0-2.0"}}, {"uniqueid": "MTK1224:3L0KT67Y8FN1E819Q8TXYTK89ANSYX", "current_trial": 177, "dateTime": 1513463286947, "trialdata": {"rt": -1, "stimulus": "<p id=\"stim\">7</p>", "key_press": -1, "trial_type": "single-stim", "trial_index": 177, "time_elapsed": 912192, "internal_node_id": "0.0-129.0-3.0"}}, {"uniqueid": "MTK1224:3L0KT67Y8FN1E819Q8TXYTK89ANSYX", "current_trial": 178, "dateTime": 1513463287953, "trialdata": {"rt": -1, "stimulus": "<p id=\"stim\">6</p>", "key_press": -1, "trial_type": "single-stim", "trial_index": 178, "time_elapsed": 913199, "internal_node_id": "0.0-129.0-4.0"}}, {"uniqueid": "MTK1224:3L0KT67Y8FN1E819Q8TXYTK89ANSYX", "current_trial": 179, "dateTime": 1513463288969, "trialdata": {"rt": -1, "stimulus": "<p id=\"stim\">5</p>", "key_press": -1, "trial_type": "single-stim", "trial_index": 179, "time_elapsed": 914214, "internal_node_id": "0.0-129.0-5.0"}}, {"uniqueid": "MTK1224:3L0KT67Y8FN1E819Q8TXYTK89ANSYX", "current_trial": 180, "dateTime": 1513463289982, "trialdata": {"rt": -1, "stimulus": "<p id=\"stim\">4</p>", "key_press": -1, "trial_type": "single-stim", "trial_index": 180, "time_elapsed": 915228, "internal_node_id": "0.0-129.0-6.0"}}, {"uniqueid": "MTK1224:3L0KT67Y8FN1E819Q8TXYTK89ANSYX", "current_trial": 181, "dateTime": 1513463290985, "trialdata": {"rt": -1, "stimulus": "<p id=\"stim\">3</p>", "key_press": -1, "trial_type": "single-stim", "trial_index": 181, "time_elapsed": 916231, "internal_node_id": "0.0-129.0-7.0"}}, {"uniqueid": "MTK1224:3L0KT67Y8FN1E819Q8TXYTK89ANSYX", "current_trial": 182, "dateTime": 1513463291988, "trialdata": {"rt": -1, "stimulus": "<p id=\"stim\">2</p>", "key_press": -1, "trial_type": "single-stim", "trial_index": 182, "time_elapsed": 917234, "internal_node_id": "0.0-129.0-8.0"}}, {"uniqueid": "MTK1224:3L0KT67Y8FN1E819Q8TXYTK89ANSYX", "current_trial": 183, "dateTime": 1513463293005, "trialdata": {"rt": -1, "stimulus": "<p id=\"stim\">1</p>", "key_press": -1, "trial_type": "single-stim", "trial_index": 183, "time_elapsed": 918250, "internal_node_id": "0.0-129.0-9.0"}}, {"uniqueid": "MTK1224:3L0KT67Y8FN1E819Q8TXYTK89ANSYX", "current_trial": 184, "dateTime": 1513463294507, "trialdata": {"rt": -1, "stimulus": "<p id=\"stim\">+</p>", "key_press": -1, "type": "FIXATION", "trial_type": "single-stim", "trial_index": 184, "time_elapsed": 919753, "internal_node_id": "0.0-130.0-0.0"}}, {"uniqueid": "MTK1224:3L0KT67Y8FN1E819Q8TXYTK89ANSYX", "current_trial": 185, "dateTime": 1513463296111, "trialdata": {"rt": -1, "stimulus": "<p id=\"stim\">VELVET</p>", "key_press": -1, "type": "PRES_VIS", "word": "velvet", "wordID": 1554, "conditions": [12, 1600, "v", 24000], "trial": 5, "serialpos": 0, "trial_type": "single-stim", "trial_index": 185, "time_elapsed": 921357, "internal_node_id": "0.0-131.0"}}, {"uniqueid": "MTK1224:3L0KT67Y8FN1E819Q8TXYTK89ANSYX", "current_trial": 186, "dateTime": 1513463298579, "trialdata": {"rt": -1, "stimulus": "<p id=\"stim\">SUITCASE</p>", "key_press": -1, "type": "PRES_VIS", "word": "suitcase", "wordID": 1402, "conditions": [12, 1600, "v", 24000], "trial": 5, "serialpos": 1, "trial_type": "single-stim", "trial_index": 186, "time_elapsed": 923824, "internal_node_id": "0.0-132.0"}}, {"uniqueid": "MTK1224:3L0KT67Y8FN1E819Q8TXYTK89ANSYX", "current_trial": 187, "dateTime": 1513463301003, "trialdata": {"rt": -1, "stimulus": "<p id=\"stim\">SALMON</p>", "key_press": -1, "type": "PRES_VIS", "word": "salmon", "wordID": 1226, "conditions": [12, 1600, "v", 24000], "trial": 5, "serialpos": 2, "trial_type": "single-stim", "trial_index": 187, "time_elapsed": 926248, "internal_node_id": "0.0-133.0"}}, {"uniqueid": "MTK1224:3L0KT67Y8FN1E819Q8TXYTK89ANSYX", "current_trial": 188, "dateTime": 1513463303550, "trialdata": {"rt": -1, "stimulus": "<p id=\"stim\">SILK</p>", "key_press": -1, "type": "PRES_VIS", "word": "silk", "wordID": 1306, "conditions": [12, 1600, "v", 24000], "trial": 5, "serialpos": 3, "trial_type": "single-stim", "trial_index": 188, "time_elapsed": 928796, "internal_node_id": "0.0-134.0"}}, {"uniqueid": "MTK1224:3L0KT67Y8FN1E819Q8TXYTK89ANSYX", "current_trial": 189, "dateTime": 1513463306267, "trialdata": {"rt": -1, "stimulus": "<p id=\"stim\">CASHIER</p>", "key_press": -1, "type": "PRES_VIS", "word": "cashier", "wordID": 253, "conditions": [12, 1600, "v", 24000], "trial": 5, "serialpos": 4, "trial_type": "single-stim", "trial_index": 189, "time_elapsed": 931512, "internal_node_id": "0.0-135.0"}}, {"uniqueid": "MTK1224:3L0KT67Y8FN1E819Q8TXYTK89ANSYX", "current_trial": 190, "dateTime": 1513463308802, "trialdata": {"rt": -1, "stimulus": "<p id=\"stim\">ROCKET</p>", "key_press": -1, "type": "PRES_VIS", "word": "rocket", "wordID": 1201, "conditions": [12, 1600, "v", 24000], "trial": 5, "serialpos": 5, "trial_type": "single-stim", "trial_index": 190, "time_elapsed": 934048, "internal_node_id": "0.0-136.0"}}, {"uniqueid": "MTK1224:3L0KT67Y8FN1E819Q8TXYTK89ANSYX", "current_trial": 191, "dateTime": 1513463311293, "trialdata": {"rt": -1, "stimulus": "<p id=\"stim\">BISON</p>", "key_press": -1, "type": "PRES_VIS", "word": "bison", "wordID": 130, "conditions": [12, 1600, "v", 24000], "trial": 5, "serialpos": 6, "trial_type": "single-stim", "trial_index": 191, "time_elapsed": 936538, "internal_node_id": "0.0-137.0"}}, {"uniqueid": "MTK1224:3L0KT67Y8FN1E819Q8TXYTK89ANSYX", "current_trial": 192, "dateTime": 1513463313807, "trialdata": {"rt": -1, "stimulus": "<p id=\"stim\">AIRPORT</p>", "key_press": -1, "type": "PRES_VIS", "word": "airport", "wordID": 12, "conditions": [12, 1600, "v", 24000], "trial": 5, "serialpos": 7, "trial_type": "single-stim", "trial_index": 192, "time_elapsed": 939052, "internal_node_id": "0.0-138.0"}}, {"uniqueid": "MTK1224:3L0KT67Y8FN1E819Q8TXYTK89ANSYX", "current_trial": 193, "dateTime": 1513463316374, "trialdata": {"rt": -1, "stimulus": "<p id=\"stim\">FOREST</p>", "key_press": -1, "type": "PRES_VIS", "word": "forest", "wordID": 592, "conditions": [12, 1600, "v", 24000], "trial": 5, "serialpos": 8, "trial_type": "single-stim", "trial_index": 193, "time_elapsed": 941619, "internal_node_id": "0.0-139.0"}}, {"uniqueid": "MTK1224:3L0KT67Y8FN1E819Q8TXYTK89ANSYX", "current_trial": 194, "dateTime": 1513463319038, "trialdata": {"rt": -1, "stimulus": "<p id=\"stim\">TART</p>", "key_press": -1, "type": "PRES_VIS", "word": "tart", "wordID": 1435, "conditions": [12, 1600, "v", 24000], "trial": 5, "serialpos": 9, "trial_type": "single-stim", "trial_index": 194, "time_elapsed": 944284, "internal_node_id": "0.0-140.0"}}, {"uniqueid": "MTK1224:3L0KT67Y8FN1E819Q8TXYTK89ANSYX", "current_trial": 195, "dateTime": 1513463321565, "trialdata": {"rt": -1, "stimulus": "<p id=\"stim\">HORNET</p>", "key_press": -1, "type": "PRES_VIS", "word": "hornet", "wordID": 717, "conditions": [12, 1600, "v", 24000], "trial": 5, "serialpos": 10, "trial_type": "single-stim", "trial_index": 195, "time_elapsed": 946811, "internal_node_id": "0.0-141.0"}}, {"uniqueid": "MTK1224:3L0KT67Y8FN1E819Q8TXYTK89ANSYX", "current_trial": 196, "dateTime": 1513463324051, "trialdata": {"rt": -1, "stimulus": "<p id=\"stim\">WASP</p>", "key_press": -1, "type": "PRES_VIS", "word": "wasp", "wordID": 1592, "conditions": [12, 1600, "v", 24000], "trial": 5, "serialpos": 11, "trial_type": "single-stim", "trial_index": 196, "time_elapsed": 949297, "internal_node_id": "0.0-142.0"}}, {"uniqueid": "MTK1224:3L0KT67Y8FN1E819Q8TXYTK89ANSYX", "current_trial": 197, "dateTime": 1513463326291, "trialdata": {"rt": -1, "stimulus": "", "key_press": -1, "type": "PRE_RECALL_DELAY", "trial_type": "single-stim", "trial_index": 197, "time_elapsed": 951536, "internal_node_id": "0.0-143.0-0.0"}}, {"uniqueid": "MTK1224:3L0KT67Y8FN1E819Q8TXYTK89ANSYX", "current_trial": 198, "dateTime": 1513463326797, "trialdata": {"rt": -1000, "stimulus": "/static/audio/400Hz.wav", "key_press": -1, "type": "PRE_RECALL_ALERT", "trial_type": "single-audio", "trial_index": 198, "time_elapsed": 952043, "internal_node_id": "0.0-144.0"}}, {"uniqueid": "MTK1224:3L0KT67Y8FN1E819Q8TXYTK89ANSYX", "current_trial": 199, "dateTime": 1513463386816, "trialdata": {"rt": [2199, 4035, 5919, 9106, 22376, 25156], "recwords": ["velvet", "wasp", "cashier", "forest", "cashier", "airport"], "type": "FREE_RECALL", "conditions": [12, 1600, "v", 24000], "trial": 5, "trial_type": "free-recall", "trial_index": 199, "time_elapsed": 1012055, "internal_node_id": "0.0-145.0-0.0"}}, {"uniqueid": "MTK1224:3L0KT67Y8FN1E819Q8TXYTK89ANSYX", "current_trial": 200, "dateTime": 1513463389760, "trialdata": {"rt": 942, "key_press": 32, "type": "INSTRUCTIONS", "trial_type": "text", "trial_index": 200, "time_elapsed": 1015005, "internal_node_id": "0.0-146.0"}}, {"uniqueid": "MTK1224:3L0KT67Y8FN1E819Q8TXYTK89ANSYX", "current_trial": 201, "dateTime": 1513463403786, "trialdata": {"rt": [2481, 4649, 6664, 8427, 10379], "responses": ["13", "19", "15", "9", "18"], "num1": [4, 7, 3, 3, 3, 3], "num2": [6, 3, 5, 1, 8, 1], "num3": [3, 9, 7, 5, 7, 2], "type": "DISTRACTOR", "conditions": [12, 800, "v", 12000], "trial": 6, "trial_type": "math-distractor", "trial_index": 201, "time_elapsed": 1029032, "internal_node_id": "0.0-147.0"}}, {"uniqueid": "MTK1224:3L0KT67Y8FN1E819Q8TXYTK89ANSYX", "current_trial": 202, "dateTime": 1513463406806, "trialdata": {"rt": -1, "stimulus": "<p id=\"stim\">10</p>", "key_press": -1, "trial_type": "single-stim", "trial_index": 202, "time_elapsed": 1032051, "internal_node_id": "0.0-148.0-0.0"}}, {"uniqueid": "MTK1224:3L0KT67Y8FN1E819Q8TXYTK89ANSYX", "current_trial": 203, "dateTime": 1513463407810, "trialdata": {"rt": -1, "stimulus": "<p id=\"stim\">9</p>", "key_press": -1, "trial_type": "single-stim", "trial_index": 203, "time_elapsed": 1033055, "internal_node_id": "0.0-148.0-1.0"}}, {"uniqueid": "MTK1224:3L0KT67Y8FN1E819Q8TXYTK89ANSYX", "current_trial": 204, "dateTime": 1513463408812, "trialdata": {"rt": -1, "stimulus": "<p id=\"stim\">8</p>", "key_press": -1, "trial_type": "single-stim", "trial_index": 204, "time_elapsed": 1034058, "internal_node_id": "0.0-148.0-2.0"}}, {"uniqueid": "MTK1224:3L0KT67Y8FN1E819Q8TXYTK89ANSYX", "current_trial": 205, "dateTime": 1513463409830, "trialdata": {"rt": -1, "stimulus": "<p id=\"stim\">7</p>", "key_press": -1, "trial_type": "single-stim", "trial_index": 205, "time_elapsed": 1035075, "internal_node_id": "0.0-148.0-3.0"}}, {"uniqueid": "MTK1224:3L0KT67Y8FN1E819Q8TXYTK89ANSYX", "current_trial": 206, "dateTime": 1513463410834, "trialdata": {"rt": -1, "stimulus": "<p id=\"stim\">6</p>", "key_press": -1, "trial_type": "single-stim", "trial_index": 206, "time_elapsed": 1036080, "internal_node_id": "0.0-148.0-4.0"}}, {"uniqueid": "MTK1224:3L0KT67Y8FN1E819Q8TXYTK89ANSYX", "current_trial": 207, "dateTime": 1513463411842, "trialdata": {"rt": -1, "stimulus": "<p id=\"stim\">5</p>", "key_press": -1, "trial_type": "single-stim", "trial_index": 207, "time_elapsed": 1037088, "internal_node_id": "0.0-148.0-5.0"}}, {"uniqueid": "MTK1224:3L0KT67Y8FN1E819Q8TXYTK89ANSYX", "current_trial": 208, "dateTime": 1513463412848, "trialdata": {"rt": -1, "stimulus": "<p id=\"stim\">4</p>", "key_press": -1, "trial_type": "single-stim", "trial_index": 208, "time_elapsed": 1038093, "internal_node_id": "0.0-148.0-6.0"}}, {"uniqueid": "MTK1224:3L0KT67Y8FN1E819Q8TXYTK89ANSYX", "current_trial": 209, "dateTime": 1513463413850, "trialdata": {"rt": -1, "stimulus": "<p id=\"stim\">3</p>", "key_press": -1, "trial_type": "single-stim", "trial_index": 209, "time_elapsed": 1039095, "internal_node_id": "0.0-148.0-7.0"}}, {"uniqueid": "MTK1224:3L0KT67Y8FN1E819Q8TXYTK89ANSYX", "current_trial": 210, "dateTime": 1513463414856, "trialdata": {"rt": -1, "stimulus": "<p id=\"stim\">2</p>", "key_press": -1, "trial_type": "single-stim", "trial_index": 210, "time_elapsed": 1040101, "internal_node_id": "0.0-148.0-8.0"}}, {"uniqueid": "MTK1224:3L0KT67Y8FN1E819Q8TXYTK89ANSYX", "current_trial": 211, "dateTime": 1513463415859, "trialdata": {"rt": -1, "stimulus": "<p id=\"stim\">1</p>", "key_press": -1, "trial_type": "single-stim", "trial_index": 211, "time_elapsed": 1041104, "internal_node_id": "0.0-148.0-9.0"}}, {"uniqueid": "MTK1224:3L0KT67Y8FN1E819Q8TXYTK89ANSYX", "current_trial": 212, "dateTime": 1513463417369, "trialdata": {"rt": -1, "stimulus": "<p id=\"stim\">+</p>", "key_press": -1, "type": "FIXATION", "trial_type": "single-stim", "trial_index": 212, "time_elapsed": 1042614, "internal_node_id": "0.0-149.0-0.0"}}, {"uniqueid": "MTK1224:3L0KT67Y8FN1E819Q8TXYTK89ANSYX", "current_trial": 213, "dateTime": 1513463418179, "trialdata": {"rt": -1, "stimulus": "<p id=\"stim\">OFFICE</p>", "key_press": -1, "type": "PRES_VIS", "word": "office", "wordID": 971, "conditions": [12, 800, "v", 12000], "trial": 6, "serialpos": 0, "trial_type": "single-stim", "trial_index": 213, "time_elapsed": 1043424, "internal_node_id": "0.0-150.0"}}, {"uniqueid": "MTK1224:3L0KT67Y8FN1E819Q8TXYTK89ANSYX", "current_trial": 214, "dateTime": 1513463420025, "trialdata": {"rt": -1, "stimulus": "<p id=\"stim\">COUNTY</p>", "key_press": -1, "type": "PRES_VIS", "word": "county", "wordID": 388, "conditions": [12, 800, "v", 12000], "trial": 6, "serialpos": 1, "trial_type": "single-stim", "trial_index": 214, "time_elapsed": 1045271, "internal_node_id": "0.0-151.0"}}, {"uniqueid": "MTK1224:3L0KT67Y8FN1E819Q8TXYTK89ANSYX", "current_trial": 215, "dateTime": 1513463421805, "trialdata": {"rt": -1, "stimulus": "<p id=\"stim\">EUROPE</p>", "key_press": -1, "type": "PRES_VIS", "word": "europe", "wordID": 540, "conditions": [12, 800, "v", 12000], "trial": 6, "serialpos": 2, "trial_type": "single-stim", "trial_index": 215, "time_elapsed": 1047050, "internal_node_id": "0.0-152.0"}}, {"uniqueid": "MTK1224:3L0KT67Y8FN1E819Q8TXYTK89ANSYX", "current_trial": 216, "dateTime": 1513463423571, "trialdata": {"rt": -1, "stimulus": "<p id=\"stim\">SEAGULL</p>", "key_press": -1, "type": "PRES_VIS", "word": "seagull", "wordID": 1260, "conditions": [12, 800, "v", 12000], "trial": 6, "serialpos": 3, "trial_type": "single-stim", "trial_index": 216, "time_elapsed": 1048816, "internal_node_id": "0.0-153.0"}}, {"uniqueid": "MTK1224:3L0KT67Y8FN1E819Q8TXYTK89ANSYX", "current_trial": 217, "dateTime": 1513463425325, "trialdata": {"rt": -1, "stimulus": "<p id=\"stim\">WARDROBE</p>", "key_press": -1, "type": "PRES_VIS", "word": "wardrobe", "wordID": 1586, "conditions": [12, 800, "v", 12000], "trial": 6, "serialpos": 4, "trial_type": "single-stim", "trial_index": 217, "time_elapsed": 1050570, "internal_node_id": "0.0-154.0"}}, {"uniqueid": "MTK1224:3L0KT67Y8FN1E819Q8TXYTK89ANSYX", "current_trial": 218, "dateTime": 1513463426993, "trialdata": {"rt": -1, "stimulus": "<p id=\"stim\">BLOUSE</p>", "key_press": -1, "type": "PRES_VIS", "word": "blouse", "wordID": 138, "conditions": [12, 800, "v", 12000], "trial": 6, "serialpos": 5, "trial_type": "single-stim", "trial_index": 218, "time_elapsed": 1052239, "internal_node_id": "0.0-155.0"}}, {"uniqueid": "MTK1224:3L0KT67Y8FN1E819Q8TXYTK89ANSYX", "current_trial": 219, "dateTime": 1513463428616, "trialdata": {"rt": -1, "stimulus": "<p id=\"stim\">GAZELLE</p>", "key_press": -1, "type": "PRES_VIS", "word": "gazelle", "wordID": 627, "conditions": [12, 800, "v", 12000], "trial": 6, "serialpos": 6, "trial_type": "single-stim", "trial_index": 219, "time_elapsed": 1053862, "internal_node_id": "0.0-156.0"}}, {"uniqueid": "MTK1224:3L0KT67Y8FN1E819Q8TXYTK89ANSYX", "current_trial": 220, "dateTime": 1513463430296, "trialdata": {"rt": -1, "stimulus": "<p id=\"stim\">CROSS</p>", "key_press": -1, "type": "PRES_VIS", "word": "cross", "wordID": 412, "conditions": [12, 800, "v", 12000], "trial": 6, "serialpos": 7, "trial_type": "single-stim", "trial_index": 220, "time_elapsed": 1055541, "internal_node_id": "0.0-157.0"}}, {"uniqueid": "MTK1224:3L0KT67Y8FN1E819Q8TXYTK89ANSYX", "current_trial": 221, "dateTime": 1513463432109, "trialdata": {"rt": -1, "stimulus": "<p id=\"stim\">SADDLE</p>", "key_press": -1, "type": "PRES_VIS", "word": "saddle", "wordID": 1220, "conditions": [12, 800, "v", 12000], "trial": 6, "serialpos": 8, "trial_type": "single-stim", "trial_index": 221, "time_elapsed": 1057355, "internal_node_id": "0.0-158.0"}}, {"uniqueid": "MTK1224:3L0KT67Y8FN1E819Q8TXYTK89ANSYX", "current_trial": 222, "dateTime": 1513463433854, "trialdata": {"rt": -1, "stimulus": "<p id=\"stim\">TRIBE</p>", "key_press": -1, "type": "PRES_VIS", "word": "tribe", "wordID": 1504, "conditions": [12, 800, "v", 12000], "trial": 6, "serialpos": 9, "trial_type": "single-stim", "trial_index": 222, "time_elapsed": 1059099, "internal_node_id": "0.0-159.0"}}, {"uniqueid": "MTK1224:3L0KT67Y8FN1E819Q8TXYTK89ANSYX", "current_trial": 223, "dateTime": 1513463435559, "trialdata": {"rt": -1, "stimulus": "<p id=\"stim\">OMELET</p>", "key_press": -1, "type": "PRES_VIS", "word": "omelet", "wordID": 975, "conditions": [12, 800, "v", 12000], "trial": 6, "serialpos": 10, "trial_type": "single-stim", "trial_index": 223, "time_elapsed": 1060805, "internal_node_id": "0.0-160.0"}}, {"uniqueid": "MTK1224:3L0KT67Y8FN1E819Q8TXYTK89ANSYX", "current_trial": 224, "dateTime": 1513463437485, "trialdata": {"rt": -1, "stimulus": "<p id=\"stim\">EGYPT</p>", "key_press": -1, "type": "PRES_VIS", "word": "egypt", "wordID": 518, "conditions": [12, 800, "v", 12000], "trial": 6, "serialpos": 11, "trial_type": "single-stim", "trial_index": 224, "time_elapsed": 1062730, "internal_node_id": "0.0-161.0"}}, {"uniqueid": "MTK1224:3L0KT67Y8FN1E819Q8TXYTK89ANSYX", "current_trial": 225, "dateTime": 1513463439717, "trialdata": {"rt": -1, "stimulus": "", "key_press": -1, "type": "PRE_RECALL_DELAY", "trial_type": "single-stim", "trial_index": 225, "time_elapsed": 1064962, "internal_node_id": "0.0-162.0-0.0"}}, {"uniqueid": "MTK1224:3L0KT67Y8FN1E819Q8TXYTK89ANSYX", "current_trial": 226, "dateTime": 1513463440226, "trialdata": {"rt": -1000, "stimulus": "/static/audio/400Hz.wav", "key_press": -1, "type": "PRE_RECALL_ALERT", "trial_type": "single-audio", "trial_index": 226, "time_elapsed": 1065472, "internal_node_id": "0.0-163.0"}}, {"uniqueid": "MTK1224:3L0KT67Y8FN1E819Q8TXYTK89ANSYX", "current_trial": 227, "dateTime": 1513463500253, "trialdata": {"rt": [2631, 4086, 5623, 7052, 8344], "recwords": ["europe", "egypt", "tribe", "office", "saddle"], "type": "FREE_RECALL", "conditions": [12, 800, "v", 12000], "trial": 6, "trial_type": "free-recall", "trial_index": 227, "time_elapsed": 1125490, "internal_node_id": "0.0-164.0-0.0"}}, {"uniqueid": "MTK1224:3L0KT67Y8FN1E819Q8TXYTK89ANSYX", "current_trial": 228, "dateTime": 1513463522396, "trialdata": {"rt": 20140, "key_press": 74, "type": "INSTRUCTIONS", "trial_type": "text", "trial_index": 228, "time_elapsed": 1147641, "internal_node_id": "0.0-165.0"}}, {"uniqueid": "MTK1224:3L0KT67Y8FN1E819Q8TXYTK89ANSYX", "current_trial": 229, "dateTime": 1513463548417, "trialdata": {"rt": [2949, 4938, 7061, 9321, 11170, 13004, 15259, 17043, 18996, 20841, 22176, 23380], "responses": ["12", "18", "15", "12", "15", "14", "21", "15", "12", "14", "5", "4"], "num1": [8, 9, 5, 6, 5, 7, 9, 6, 7, 1, 3, 2, 7], "num2": [1, 8, 1, 5, 2, 1, 7, 8, 3, 4, 1, 1, 3], "num3": [3, 1, 9, 1, 8, 6, 5, 1, 2, 9, 1, 1, 9], "type": "DISTRACTOR", "conditions": [24, 800, "a", 24000], "trial": 7, "trial_type": "math-distractor", "trial_index": 229, "time_elapsed": 1173662, "internal_node_id": "0.0-166.0"}}, {"uniqueid": "MTK1224:3L0KT67Y8FN1E819Q8TXYTK89ANSYX", "current_trial": 230, "dateTime": 1513463551431, "trialdata": {"rt": -1, "stimulus": "<p id=\"stim\">10</p>", "key_press": -1, "trial_type": "single-stim", "trial_index": 230, "time_elapsed": 1176676, "internal_node_id": "0.0-167.0-0.0"}}, {"uniqueid": "MTK1224:3L0KT67Y8FN1E819Q8TXYTK89ANSYX", "current_trial": 231, "dateTime": 1513463552438, "trialdata": {"rt": -1, "stimulus": "<p id=\"stim\">9</p>", "key_press": -1, "trial_type": "single-stim", "trial_index": 231, "time_elapsed": 1177683, "internal_node_id": "0.0-167.0-1.0"}}, {"uniqueid": "MTK1224:3L0KT67Y8FN1E819Q8TXYTK89ANSYX", "current_trial": 232, "dateTime": 1513463553445, "trialdata": {"rt": -1, "stimulus": "<p id=\"stim\">8</p>", "key_press": -1, "trial_type": "single-stim", "trial_index": 232, "time_elapsed": 1178691, "internal_node_id": "0.0-167.0-2.0"}}, {"uniqueid": "MTK1224:3L0KT67Y8FN1E819Q8TXYTK89ANSYX", "current_trial": 233, "dateTime": 1513463554447, "trialdata": {"rt": -1, "stimulus": "<p id=\"stim\">7</p>", "key_press": -1, "trial_type": "single-stim", "trial_index": 233, "time_elapsed": 1179693, "internal_node_id": "0.0-167.0-3.0"}}, {"uniqueid": "MTK1224:3L0KT67Y8FN1E819Q8TXYTK89ANSYX", "current_trial": 234, "dateTime": 1513463555452, "trialdata": {"rt": -1, "stimulus": "<p id=\"stim\">6</p>", "key_press": -1, "trial_type": "single-stim", "trial_index": 234, "time_elapsed": 1180697, "internal_node_id": "0.0-167.0-4.0"}}, {"uniqueid": "MTK1224:3L0KT67Y8FN1E819Q8TXYTK89ANSYX", "current_trial": 235, "dateTime": 1513463556455, "trialdata": {"rt": -1, "stimulus": "<p id=\"stim\">5</p>", "key_press": -1, "trial_type": "single-stim", "trial_index": 235, "time_elapsed": 1181700, "internal_node_id": "0.0-167.0-5.0"}}, {"uniqueid": "MTK1224:3L0KT67Y8FN1E819Q8TXYTK89ANSYX", "current_trial": 236, "dateTime": 1513463557471, "trialdata": {"rt": -1, "stimulus": "<p id=\"stim\">4</p>", "key_press": -1, "trial_type": "single-stim", "trial_index": 236, "time_elapsed": 1182716, "internal_node_id": "0.0-167.0-6.0"}}, {"uniqueid": "MTK1224:3L0KT67Y8FN1E819Q8TXYTK89ANSYX", "current_trial": 237, "dateTime": 1513463558476, "trialdata": {"rt": -1, "stimulus": "<p id=\"stim\">3</p>", "key_press": -1, "trial_type": "single-stim", "trial_index": 237, "time_elapsed": 1183721, "internal_node_id": "0.0-167.0-7.0"}}, {"uniqueid": "MTK1224:3L0KT67Y8FN1E819Q8TXYTK89ANSYX", "current_trial": 238, "dateTime": 1513463559482, "trialdata": {"rt": -1, "stimulus": "<p id=\"stim\">2</p>", "key_press": -1, "trial_type": "single-stim", "trial_index": 238, "time_elapsed": 1184727, "internal_node_id": "0.0-167.0-8.0"}}, {"uniqueid": "MTK1224:3L0KT67Y8FN1E819Q8TXYTK89ANSYX", "current_trial": 239, "dateTime": 1513463560486, "trialdata": {"rt": -1, "stimulus": "<p id=\"stim\">1</p>", "key_press": -1, "trial_type": "single-stim", "trial_index": 239, "time_elapsed": 1185731, "internal_node_id": "0.0-167.0-9.0"}}, {"uniqueid": "MTK1224:3L0KT67Y8FN1E819Q8TXYTK89ANSYX", "current_trial": 240, "dateTime": 1513463561992, "trialdata": {"rt": -1, "stimulus": "<p id=\"stim\">+</p>", "key_press": -1, "type": "FIXATION", "trial_type": "single-stim", "trial_index": 240, "time_elapsed": 1187238, "internal_node_id": "0.0-168.0-0.0"}}, {"uniqueid": "MTK1224:3L0KT67Y8FN1E819Q8TXYTK89ANSYX", "current_trial": 241, "dateTime": 1513463563791, "trialdata": {"rt": -1000, "stimulus": "/static/audio/wordpool/BLADE.wav", "key_press": -1, "type": "PRES_AUD", "word": "blade", "wordID": 133, "conditions": [24, 800, "a", 24000], "trial": 7, "serialpos": 0, "trial_type": "single-audio", "trial_index": 241, "time_elapsed": 1189037, "internal_node_id": "0.0-169.0"}}, {"uniqueid": "MTK1224:3L0KT67Y8FN1E819Q8TXYTK89ANSYX", "current_trial": 242, "dateTime": 1513463565553, "trialdata": {"rt": -1000, "stimulus": "/static/audio/wordpool/MAILBOX.wav", "key_press": -1, "type": "PRES_AUD", "word": "mailbox", "wordID": 856, "conditions": [24, 800, "a", 24000], "trial": 7, "serialpos": 1, "trial_type": "single-audio", "trial_index": 242, "time_elapsed": 1190798, "internal_node_id": "0.0-170.0"}}, {"uniqueid": "MTK1224:3L0KT67Y8FN1E819Q8TXYTK89ANSYX", "current_trial": 243, "dateTime": 1513463567568, "trialdata": {"rt": -1000, "stimulus": "/static/audio/wordpool/GLASS.wav", "key_press": -1, "type": "PRES_AUD", "word": "glass", "wordID": 638, "conditions": [24, 800, "a", 24000], "trial": 7, "serialpos": 2, "trial_type": "single-audio", "trial_index": 243, "time_elapsed": 1192814, "internal_node_id": "0.0-171.0"}}, {"uniqueid": "MTK1224:3L0KT67Y8FN1E819Q8TXYTK89ANSYX", "current_trial": 244, "dateTime": 1513463569499, "trialdata": {"rt": -1000, "stimulus": "/static/audio/wordpool/BARLEY.wav", "key_press": -1, "type": "PRES_AUD", "word": "barley", "wordID": 87, "conditions": [24, 800, "a", 24000], "trial": 7, "serialpos": 3, "trial_type": "single-audio", "trial_index": 244, "time_elapsed": 1194745, "internal_node_id": "0.0-172.0"}}, {"uniqueid": "MTK1224:3L0KT67Y8FN1E819Q8TXYTK89ANSYX", "current_trial": 245, "dateTime": 1513463571420, "trialdata": {"rt": -1000, "stimulus": "/static/audio/wordpool/MACHINE.wav", "key_press": -1, "type": "PRES_AUD", "word": "machine", "wordID": 851, "conditions": [24, 800, "a", 24000], "trial": 7, "serialpos": 4, "trial_type": "single-audio", "trial_index": 245, "time_elapsed": 1196665, "internal_node_id": "0.0-173.0"}}, {"uniqueid": "MTK1224:3L0KT67Y8FN1E819Q8TXYTK89ANSYX", "current_trial": 246, "dateTime": 1513463573270, "trialdata": {"rt": -1000, "stimulus": "/static/audio/wordpool/FRECKLE.wav", "key_press": -1, "type": "PRES_AUD", "word": "freckle", "wordID": 601, "conditions": [24, 800, "a", 24000], "trial": 7, "serialpos": 5, "trial_type": "single-audio", "trial_index": 246, "time_elapsed": 1198515, "internal_node_id": "0.0-174.0"}}, {"uniqueid": "MTK1224:3L0KT67Y8FN1E819Q8TXYTK89ANSYX", "current_trial": 247, "dateTime": 1513463575225, "trialdata": {"rt": -1000, "stimulus": "/static/audio/wordpool/PIMPLE.wav", "key_press": -1, "type": "PRES_AUD", "word": "pimple", "wordID": 1070, "conditions": [24, 800, "a", 24000], "trial": 7, "serialpos": 6, "trial_type": "single-audio", "trial_index": 247, "time_elapsed": 1200471, "internal_node_id": "0.0-175.0"}}, {"uniqueid": "MTK1224:3L0KT67Y8FN1E819Q8TXYTK89ANSYX", "current_trial": 248, "dateTime": 1513463577058, "trialdata": {"rt": -1000, "stimulus": "/static/audio/wordpool/MONSTER.wav", "key_press": -1, "type": "PRES_AUD", "word": "monster", "wordID": 911, "conditions": [24, 800, "a", 24000], "trial": 7, "serialpos": 7, "trial_type": "single-audio", "trial_index": 248, "time_elapsed": 1202303, "internal_node_id": "0.0-176.0"}}, {"uniqueid": "MTK1224:3L0KT67Y8FN1E819Q8TXYTK89ANSYX", "current_trial": 249, "dateTime": 1513463579019, "trialdata": {"rt": -1000, "stimulus": "/static/audio/wordpool/OUTLAW.wav", "key_press": -1, "type": "PRES_AUD", "word": "outlaw", "wordID": 988, "conditions": [24, 800, "a", 24000], "trial": 7, "serialpos": 8, "trial_type": "single-audio", "trial_index": 249, "time_elapsed": 1204264, "internal_node_id": "0.0-177.0"}}, {"uniqueid": "MTK1224:3L0KT67Y8FN1E819Q8TXYTK89ANSYX", "current_trial": 250, "dateTime": 1513463580871, "trialdata": {"rt": -1000, "stimulus": "/static/audio/wordpool/DRESS.wav", "key_press": -1, "type": "PRES_AUD", "word": "dress", "wordID": 494, "conditions": [24, 800, "a", 24000], "trial": 7, "serialpos": 9, "trial_type": "single-audio", "trial_index": 250, "time_elapsed": 1206117, "internal_node_id": "0.0-178.0"}}, {"uniqueid": "MTK1224:3L0KT67Y8FN1E819Q8TXYTK89ANSYX", "current_trial": 251, "dateTime": 1513463582780, "trialdata": {"rt": -1000, "stimulus": "/static/audio/wordpool/CLOCK.wav", "key_press": -1, "type": "PRES_AUD", "word": "clock", "wordID": 324, "conditions": [24, 800, "a", 24000], "trial": 7, "serialpos": 10, "trial_type": "single-audio", "trial_index": 251, "time_elapsed": 1208026, "internal_node_id": "0.0-179.0"}}, {"uniqueid": "MTK1224:3L0KT67Y8FN1E819Q8TXYTK89ANSYX", "current_trial": 252, "dateTime": 1513463584521, "trialdata": {"rt": -1000, "stimulus": "/static/audio/wordpool/RAZOR.wav", "key_press": -1, "type": "PRES_AUD", "word": "razor", "wordID": 1170, "conditions": [24, 800, "a", 24000], "trial": 7, "serialpos": 11, "trial_type": "single-audio", "trial_index": 252, "time_elapsed": 1209766, "internal_node_id": "0.0-180.0"}}, {"uniqueid": "MTK1224:3L0KT67Y8FN1E819Q8TXYTK89ANSYX", "current_trial": 253, "dateTime": 1513463586412, "trialdata": {"rt": -1000, "stimulus": "/static/audio/wordpool/PARTNER.wav", "key_press": -1, "type": "PRES_AUD", "word": "partner", "wordID": 1016, "conditions": [24, 800, "a", 24000], "trial": 7, "serialpos": 12, "trial_type": "single-audio", "trial_index": 253, "time_elapsed": 1211657, "internal_node_id": "0.0-181.0"}}, {"uniqueid": "MTK1224:3L0KT67Y8FN1E819Q8TXYTK89ANSYX", "current_trial": 254, "dateTime": 1513463588234, "trialdata": {"rt": -1000, "stimulus": "/static/audio/wordpool/PIGMENT.wav", "key_press": -1, "type": "PRES_AUD", "word": "pigment", "wordID": 1065, "conditions": [24, 800, "a", 24000], "trial": 7, "serialpos": 13, "trial_type": "single-audio", "trial_index": 254, "time_elapsed": 1213480, "internal_node_id": "0.0-182.0"}}, {"uniqueid": "MTK1224:3L0KT67Y8FN1E819Q8TXYTK89ANSYX", "current_trial": 255, "dateTime": 1513463589922, "trialdata": {"rt": -1000, "stimulus": "/static/audio/wordpool/HONEY.wav", "key_press": -1, "type": "PRES_AUD", "word": "honey", "wordID": 712, "conditions": [24, 800, "a", 24000], "trial": 7, "serialpos": 14, "trial_type": "single-audio", "trial_index": 255, "time_elapsed": 1215167, "internal_node_id": "0.0-183.0"}}, {"uniqueid": "MTK1224:3L0KT67Y8FN1E819Q8TXYTK89ANSYX", "current_trial": 256, "dateTime": 1513463591589, "trialdata": {"rt": -1000, "stimulus": "/static/audio/wordpool/LEADER.wav", "key_press": -1, "type": "PRES_AUD", "word": "leader", "wordID": 806, "conditions": [24, 800, "a", 24000], "trial": 7, "serialpos": 15, "trial_type": "single-audio", "trial_index": 256, "time_elapsed": 1216835, "internal_node_id": "0.0-184.0"}}, {"uniqueid": "MTK1224:3L0KT67Y8FN1E819Q8TXYTK89ANSYX", "current_trial": 257, "dateTime": 1513463593459, "trialdata": {"rt": -1000, "stimulus": "/static/audio/wordpool/SPIDER.wav", "key_press": -1, "type": "PRES_AUD", "word": "spider", "wordID": 1350, "conditions": [24, 800, "a", 24000], "trial": 7, "serialpos": 16, "trial_type": "single-audio", "trial_index": 257, "time_elapsed": 1218704, "internal_node_id": "0.0-185.0"}}, {"uniqueid": "MTK1224:3L0KT67Y8FN1E819Q8TXYTK89ANSYX", "current_trial": 258, "dateTime": 1513463595264, "trialdata": {"rt": -1000, "stimulus": "/static/audio/wordpool/SNAKE.wav", "key_press": -1, "type": "PRES_AUD", "word": "snake", "wordID": 1332, "conditions": [24, 800, "a", 24000], "trial": 7, "serialpos": 17, "trial_type": "single-audio", "trial_index": 258, "time_elapsed": 1220510, "internal_node_id": "0.0-186.0"}}, {"uniqueid": "MTK1224:3L0KT67Y8FN1E819Q8TXYTK89ANSYX", "current_trial": 259, "dateTime": 1513463597011, "trialdata": {"rt": -1000, "stimulus": "/static/audio/wordpool/CATTLE.wav", "key_press": -1, "type": "PRES_AUD", "word": "cattle", "wordID": 260, "conditions": [24, 800, "a", 24000], "trial": 7, "serialpos": 18, "trial_type": "single-audio", "trial_index": 259, "time_elapsed": 1222256, "internal_node_id": "0.0-187.0"}}, {"uniqueid": "MTK1224:3L0KT67Y8FN1E819Q8TXYTK89ANSYX", "current_trial": 260, "dateTime": 1513463598792, "trialdata": {"rt": -1000, "stimulus": "/static/audio/wordpool/DRAGON.wav", "key_press": -1, "type": "PRES_AUD", "word": "dragon", "wordID": 491, "conditions": [24, 800, "a", 24000], "trial": 7, "serialpos": 19, "trial_type": "single-audio", "trial_index": 260, "time_elapsed": 1224037, "internal_node_id": "0.0-188.0"}}, {"uniqueid": "MTK1224:3L0KT67Y8FN1E819Q8TXYTK89ANSYX", "current_trial": 261, "dateTime": 1513463600715, "trialdata": {"rt": -1000, "stimulus": "/static/audio/wordpool/GARLIC.wav", "key_press": -1, "type": "PRES_AUD", "word": "garlic", "wordID": 623, "conditions": [24, 800, "a", 24000], "trial": 7, "serialpos": 20, "trial_type": "single-audio", "trial_index": 261, "time_elapsed": 1225960, "internal_node_id": "0.0-189.0"}}, {"uniqueid": "MTK1224:3L0KT67Y8FN1E819Q8TXYTK89ANSYX", "current_trial": 262, "dateTime": 1513463602660, "trialdata": {"rt": -1000, "stimulus": "/static/audio/wordpool/DRUG.wav", "key_press": -1, "type": "PRES_AUD", "word": "drug", "wordID": 500, "conditions": [24, 800, "a", 24000], "trial": 7, "serialpos": 21, "trial_type": "single-audio", "trial_index": 262, "time_elapsed": 1227905, "internal_node_id": "0.0-190.0"}}, {"uniqueid": "MTK1224:3L0KT67Y8FN1E819Q8TXYTK89ANSYX", "current_trial": 263, "dateTime": 1513463604437, "trialdata": {"rt": -1000, "stimulus": "/static/audio/wordpool/GIRL.wav", "key_press": -1, "type": "PRES_AUD", "word": "girl", "wordID": 636, "conditions": [24, 800, "a", 24000], "trial": 7, "serialpos": 22, "trial_type": "single-audio", "trial_index": 263, "time_elapsed": 1229683, "internal_node_id": "0.0-191.0"}}, {"uniqueid": "MTK1224:3L0KT67Y8FN1E819Q8TXYTK89ANSYX", "current_trial": 264, "dateTime": 1513463606328, "trialdata": {"rt": -1000, "stimulus": "/static/audio/wordpool/BEEF.wav", "key_press": -1, "type": "PRES_AUD", "word": "beef", "wordID": 112, "conditions": [24, 800, "a", 24000], "trial": 7, "serialpos": 23, "trial_type": "single-audio", "trial_index": 264, "time_elapsed": 1231573, "internal_node_id": "0.0-192.0"}}, {"uniqueid": "MTK1224:3L0KT67Y8FN1E819Q8TXYTK89ANSYX", "current_trial": 265, "dateTime": 1513463607607, "trialdata": {"rt": -1, "stimulus": "", "key_press": -1, "type": "PRE_RECALL_DELAY", "trial_type": "single-stim", "trial_index": 265, "time_elapsed": 1232853, "internal_node_id": "0.0-193.0-0.0"}}, {"uniqueid": "MTK1224:3L0KT67Y8FN1E819Q8TXYTK89ANSYX", "current_trial": 266, "dateTime": 1513463608120, "trialdata": {"rt": -1000, "stimulus": "/static/audio/400Hz.wav", "key_press": -1, "type": "PRE_RECALL_ALERT", "trial_type": "single-audio", "trial_index": 266, "time_elapsed": 1233365, "internal_node_id": "0.0-194.0"}}, {"uniqueid": "MTK1224:3L0KT67Y8FN1E819Q8TXYTK89ANSYX", "current_trial": 267, "dateTime": 1513463668142, "trialdata": {"rt": [1603, 2811, 3711, 4781, 5795, 7063, 8759, 11910], "recwords": ["honey", "spider", "drug", "girl", "beef", "dragon", "monster", "glass"], "type": "FREE_RECALL", "conditions": [24, 800, "a", 24000], "trial": 7, "trial_type": "free-recall", "trial_index": 267, "time_elapsed": 1293378, "internal_node_id": "0.0-195.0-0.0"}}, {"uniqueid": "MTK1224:3L0KT67Y8FN1E819Q8TXYTK89ANSYX", "current_trial": 268, "dateTime": 1513463682937, "trialdata": {"rt": 12792, "key_press": 32, "type": "INSTRUCTIONS", "trial_type": "text", "trial_index": 268, "time_elapsed": 1308183, "internal_node_id": "0.0-196.0"}}, {"uniqueid": "MTK1224:3L0KT67Y8FN1E819Q8TXYTK89ANSYX", "current_trial": 269, "dateTime": 1513463708957, "trialdata": {"rt": [2533, 4733, 6654, 8593, 10245, 12048, 14386, 16047, 18195, 20224, 22250], "responses": ["16", "23", "6", "18", "11", "13", "20", "9", "17", "19", "23"], "num1": [5, 9, 3, 3, 1, 5, 4, 1, 7, 7, 6, 5], "num2": [8, 7, 1, 9, 8, 2, 9, 4, 7, 3, 8, 4], "num3": [3, 7, 2, 6, 2, 6, 7, 4, 5, 9, 9, 5], "type": "DISTRACTOR", "conditions": [12, 800, "v", 24000], "trial": 8, "trial_type": "math-distractor", "trial_index": 269, "time_elapsed": 1334202, "internal_node_id": "0.0-197.0"}}, {"uniqueid": "MTK1224:3L0KT67Y8FN1E819Q8TXYTK89ANSYX", "current_trial": 270, "dateTime": 1513463711968, "trialdata": {"rt": -1, "stimulus": "<p id=\"stim\">10</p>", "key_press": -1, "trial_type": "single-stim", "trial_index": 270, "time_elapsed": 1337213, "internal_node_id": "0.0-198.0-0.0"}}, {"uniqueid": "MTK1224:3L0KT67Y8FN1E