{"assignmentId": "3AQF3RZ559PQRJMHE5Y683H0PZQF69", "workerId": "MTK1901", "questiondata": {"avail_screen_height": 860, "color_depth": 24, "screen_width": 1600, "pixel_depth": 24, "avail_screen_width": 1600, "screen_height": 900}, "bonus": 0, "hitId": "3EHVO81VN5SDB9EWDN5NR86CFWNH14", "counterbalance": 264, "useragent": "Mozilla/5.0 (Windows NT 10.0; WOW64) AppleWebKit/537.36 (KHTML, like Gecko) Chrome/63.0.3239.132 Safari/537.36", "eventdata": [{"eventtype": "initialized", "interval": 0, "value": null, "timestamp": 1516557203451}, {"eventtype": "window_resize", "interval": 0, "value": [1600, 853], "timestamp": 1516557203451}, {"eventtype": "focus", "interval": 120225, "value": "off", "timestamp": 1516557323676}, {"eventtype": "focus", "interval": 4277, "value": "on", "timestamp": 1516557327953}], "data": [{"current_trial": 0, "trialdata": {"rt": 2728, "trial_type": "text", "internal_node_id": "0.0-0.0", "time_elapsed": 2735, "key_press": 74, "type": "INSTRUCTIONS", "trial_index": 0}, "uniqueid": "MTK1901:3AQF3RZ559PQRJMHE5Y683H0PZQF69", "dateTime": 1516557242026}, {"current_trial": 1, "trialdata": {"rt": 14345, "trial_type": "text", "internal_node_id": "0.0-1.0", "time_elapsed": 17084, "key_press": 74, "type": "INSTRUCTIONS", "trial_index": 1}, "uniqueid": "MTK1901:3AQF3RZ559PQRJMHE5Y683H0PZQF69", "dateTime": 1516557256374}, {"current_trial": 2, "trialdata": {"rt": [12036], "trial_type": "audio-test", "responses": ["ocean"], "internal_node_id": "0.0-2.0", "time_elapsed": 29184, "type": "AUDIO_TEST", "trial_index": 2}, "uniqueid": "MTK1901:3AQF3RZ559PQRJMHE5Y683H0PZQF69", "dateTime": 1516557268474}, {"current_trial": 3, "trialdata": {"rt": [12800], "trial_type": "audio-test", "responses": ["crystal"], "internal_node_id": "0.0-3.0", "time_elapsed": 42006, "type": "AUDIO_TEST", "trial_index": 3}, "uniqueid": "MTK1901:3AQF3RZ559PQRJMHE5Y683H0PZQF69", "dateTime": 1516557281296}, {"current_trial": 4, "trialdata": {"rt": [9334], "trial_type": "audio-test", "responses": ["spice"], "internal_node_id": "0.0-4.0", "time_elapsed": 51356, "type": "AUDIO_TEST", "trial_index": 4}, "uniqueid": "MTK1901:3AQF3RZ559PQRJMHE5Y683H0PZQF69", "dateTime": 1516557290646}, {"current_trial": 5, "trialdata": {"rt": 21306, "trial_type": "survey-text", "responses": "{\"Q0\":\"11:30\",\"Q1\":\"8:15\",\"Q2\":\"4\"}", "internal_node_id": "0.0-5.0", "time_elapsed": 73422, "type": "SLEEP_SURVEY", "trial_index": 5}, "uniqueid": "MTK1901:3AQF3RZ559PQRJMHE5Y683H0PZQF69", "dateTime": 1516557312712}, {"current_trial": 6, "trialdata": {"rt": 21699, "trial_type": "text", "internal_node_id": "0.0-6.0", "time_elapsed": 96149, "key_press": 70, "type": "INSTRUCTIONS", "trial_index": 6}, "uniqueid": "MTK1901:3AQF3RZ559PQRJMHE5Y683H0PZQF69", "dateTime": 1516557335439}, {"current_trial": 7, "trialdata": {"rt": 1366, "trial_type": "text", "internal_node_id": "0.0-7.0", "time_elapsed": 98019, "key_press": 175, "type": "INSTRUCTIONS", "trial_index": 7}, "uniqueid": "MTK1901:3AQF3RZ559PQRJMHE5Y683H0PZQF69", "dateTime": 1516557337309}, {"current_trial": 8, "trialdata": {"rt": 7834, "trial_type": "text", "internal_node_id": "0.0-8.0", "time_elapsed": 106356, "key_press": 74, "type": "INSTRUCTIONS", "trial_index": 8}, "uniqueid": "MTK1901:3AQF3RZ559PQRJMHE5Y683H0PZQF69", "dateTime": 1516557345646}, {"current_trial": 9, "trialdata": {"rt": [3653, 8253, 11270, 13892], "trial_type": "math-distractor", "key_times": [2421, 3653, 7400, 8253, 10566, 10668, 11270, 13397, 13548, 13892, 17381, 17509], "responses": ["6", "8", "10", "17"], "num2": [1, 2, 3, 4, 7], "num3": [4, 4, 3, 4, 7], "conditions": [18, 1200, "a", 18000], "internal_node_id": "0.0-9.0", "key_presses": [102, 13, 104, 13, 97, 96, 13, 97, 103, 13, 98, 97], "trial": 0, "time_elapsed": 125400, "type": "DISTRACTOR", "trial_index": 9, "num1": [1, 2, 4, 9, 7]}, "uniqueid": "MTK1901:3AQF3RZ559PQRJMHE5Y683H0PZQF69", "dateTime": 1516557364691}, {"current_trial": 10, "trialdata": {"rt": -1, "trial_type": "single-stim", "stimulus": "<p id=\"stim\">10</p>", "internal_node_id": "0.0-10.0-0.0", "time_elapsed": 128405, "key_press": -1, "trial_index": 10}, "uniqueid": "MTK1901:3AQF3RZ559PQRJMHE5Y683H0PZQF69", "dateTime": 1516557367695}, {"current_trial": 11, "trialdata": {"rt": -1, "trial_type": "single-stim", "stimulus": "<p id=\"stim\">9</p>", "internal_node_id": "0.0-10.0-1.0", "time_elapsed": 129407, "key_press": -1, "trial_index": 11}, "uniqueid": "MTK1901:3AQF3RZ559PQRJMHE5Y683H0PZQF69", "dateTime": 1516557368698}, {"current_trial": 12, "trialdata": {"rt": 495, "trial_type": "single-stim", "stimulus": "<p id=\"stim\">8</p>", "internal_node_id": "0.0-10.0-2.0", "time_elapsed": 130410, "key_press": 175, "trial_index": 12}, "uniqueid": "MTK1901:3AQF3RZ559PQRJMHE5Y683H0PZQF69", "dateTime": 1516557369700}, {"current_trial": 13, "trialdata": {"rt": -1, "trial_type": "single-stim", "stimulus": "<p id=\"stim\">7</p>", "internal_node_id": "0.0-10.0-3.0", "time_elapsed": 131415, "key_press": -1, "trial_index": 13}, "uniqueid": "MTK1901:3AQF3RZ559PQRJMHE5Y683H0PZQF69", "dateTime": 1516557370705}, {"current_trial": 14, "trialdata": {"rt": -1, "trial_type": "single-stim", "stimulus": "<p id=\"stim\">6</p>", "internal_node_id": "0.0-10.0-4.0", "time_elapsed": 132416, "key_press": -1, "trial_index": 14}, "uniqueid": "MTK1901:3AQF3RZ559PQRJMHE5Y683H0PZQF69", "dateTime": 1516557371707}, {"current_trial": 15, "trialdata": {"rt": 36, "trial_type": "single-stim", "stimulus": "<p id=\"stim\">5</p>", "internal_node_id": "0.0-10.0-5.0", "time_elapsed": 133431, "key_press": 174, "trial_index": 15}, "uniqueid": "MTK1901:3AQF3RZ559PQRJMHE5Y683H0PZQF69", "dateTime": 1516557372721}, {"current_trial": 16, "trialdata": {"rt": -1, "trial_type": "single-stim", "stimulus": "<p id=\"stim\">4</p>", "internal_node_id": "0.0-10.0-6.0", "time_elapsed": 134433, "key_press": -1, "trial_index": 16}, "uniqueid": "MTK1901:3AQF3RZ559PQRJMHE5Y683H0PZQF69", "dateTime": 1516557373723}, {"current_trial": 17, "trialdata": {"rt": -1, "trial_type": "single-stim", "stimulus": "<p id=\"stim\">3</p>", "internal_node_id": "0.0-10.0-7.0", "time_elapsed": 135437, "key_press": -1, "trial_index": 17}, "uniqueid": "MTK1901:3AQF3RZ559PQRJMHE5Y683H0PZQF69", "dateTime": 1516557374727}, {"current_trial": 18, "trialdata": {"rt": -1, "trial_type": "single-stim", "stimulus": "<p id=\"stim\">2</p>", "internal_node_id": "0.0-10.0-8.0", "time_elapsed": 136440, "key_press": -1, "trial_index": 18}, "uniqueid": "MTK1901:3AQF3RZ559PQRJMHE5Y683H0PZQF69", "dateTime": 1516557375730}, {"current_trial": 19, "trialdata": {"rt": 197, "trial_type": "single-stim", "stimulus": "<p id=\"stim\">1</p>", "internal_node_id": "0.0-10.0-9.0", "time_elapsed": 137444, "key_press": 175, "trial_index": 19}, "uniqueid": "MTK1901:3AQF3RZ559PQRJMHE5Y683H0PZQF69", "dateTime": 1516557376734}, {"current_trial": 20, "trialdata": {"rt": -1, "trial_type": "single-stim", "stimulus": "<p id=\"stim\">+</p>", "internal_node_id": "0.0-11.0-0.0", "time_elapsed": 138983, "key_press": -1, "type": "FIXATION", "trial_index": 20}, "uniqueid": "MTK1901:3AQF3RZ559PQRJMHE5Y683H0PZQF69", "dateTime": 1516557378273}, {"current_trial": 21, "trialdata": {"rt": -1000, "trial_type": "single-audio", "word": "driver", "stimulus": "/static/audio/wordpool/DRIVER.wav", "conditions": [18, 1200, "a", 18000], "internal_node_id": "0.0-12.0", "trial": 0, "time_elapsed": 141390, "serialpos": 0, "key_press": -1, "wordID": 498, "type": "PRES_AUD", "trial_index": 21}, "uniqueid": "MTK1901:3AQF3RZ559PQRJMHE5Y683H0PZQF69", "dateTime": 1516557380680}, {"current_trial": 22, "trialdata": {"rt": -1000, "trial_type": "single-audio", "word": "airplane", "stimulus": "/static/audio/wordpool/AIRPLANE.wav", "conditions": [18, 1200, "a", 18000], "internal_node_id": "0.0-13.0", "trial": 0, "time_elapsed": 143524, "serialpos": 1, "key_press": -1, "wordID": 11, "type": "PRES_AUD", "trial_index": 22}, "uniqueid": "MTK1901:3AQF3RZ559PQRJMHE5Y683H0PZQF69", "dateTime": 1516557382814}, {"current_trial": 23, "trialdata": {"rt": -1000, "trial_type": "single-audio", "word": "shirt", "stimulus": "/static/audio/wordpool/SHIRT.wav", "conditions": [18, 1200, "a", 18000], "internal_node_id": "0.0-14.0", "trial": 0, "time_elapsed": 145690, "serialpos": 2, "key_press": -1, "wordID": 1286, "type": "PRES_AUD", "trial_index": 23}, "uniqueid": "MTK1901:3AQF3RZ559PQRJMHE5Y683H0PZQF69", "dateTime": 1516557384980}, {"current_trial": 24, "trialdata": {"rt": -1000, "trial_type": "single-audio", "word": "beaver", "stimulus": "/static/audio/wordpool/BEAVER.wav", "conditions": [18, 1200, "a", 18000], "internal_node_id": "0.0-15.0", "trial": 0, "time_elapsed": 147989, "serialpos": 3, "key_press": -1, "wordID": 108, "type": "PRES_AUD", "trial_index": 24}, "uniqueid": "MTK1901:3AQF3RZ559PQRJMHE5Y683H0PZQF69", "dateTime": 1516557387279}, {"current_trial": 25, "trialdata": {"rt": -1000, "trial_type": "single-audio", "word": "lover", "stimulus": "/static/audio/wordpool/LOVER.wav", "conditions": [18, 1200, "a", 18000], "internal_node_id": "0.0-16.0", "trial": 0, "time_elapsed": 151569, "serialpos": 4, "key_press": -1, "wordID": 845, "type": "PRES_AUD", "trial_index": 25}, "uniqueid": "MTK1901:3AQF3RZ559PQRJMHE5Y683H0PZQF69", "dateTime": 1516557390860}, {"current_trial": 26, "trialdata": {"rt": -1000, "trial_type": "single-audio", "word": "staple", "stimulus": "/static/audio/wordpool/STAPLE.wav", "conditions": [18, 1200, "a", 18000], "internal_node_id": "0.0-17.0", "trial": 0, "time_elapsed": 153910, "serialpos": 5, "key_press": -1, "wordID": 1370, "type": "PRES_AUD", "trial_index": 26}, "uniqueid": "MTK1901:3AQF3RZ559PQRJMHE5Y683H0PZQF69", "dateTime": 1516557393200}, {"current_trial": 27, "trialdata": {"rt": -1000, "trial_type": "single-audio", "word": "apple", "stimulus": "/static/audio/wordpool/APPLE.wav", "conditions": [18, 1200, "a", 18000], "internal_node_id": "0.0-18.0", "trial": 0, "time_elapsed": 156249, "serialpos": 6, "key_press": -1, "wordID": 32, "type": "PRES_AUD", "trial_index": 27}, "uniqueid": "MTK1901:3AQF3RZ559PQRJMHE5Y683H0PZQF69", "dateTime": 1516557395540}, {"current_trial": 28, "trialdata": {"rt": -1000, "trial_type": "single-audio", "word": "peach", "stimulus": "/static/audio/wordpool/PEACH.wav", "conditions": [18, 1200, "a", 18000], "internal_node_id": "0.0-19.0", "trial": 0, "time_elapsed": 158482, "serialpos": 7, "key_press": -1, "wordID": 1030, "type": "PRES_AUD", "trial_index": 28}, "uniqueid": "MTK1901:3AQF3RZ559PQRJMHE5Y683H0PZQF69", "dateTime": 1516557397772}, {"current_trial": 29, "trialdata": {"rt": -1000, "trial_type": "single-audio", "word": "slope", "stimulus": "/static/audio/wordpool/SLOPE.wav", "conditions": [18, 1200, "a", 18000], "internal_node_id": "0.0-20.0", "trial": 0, "time_elapsed": 160606, "serialpos": 8, "key_press": -1, "wordID": 1327, "type": "PRES_AUD", "trial_index": 29}, "uniqueid": "MTK1901:3AQF3RZ559PQRJMHE5Y683H0PZQF69", "dateTime": 1516557399896}, {"current_trial": 30, "trialdata": {"rt": -1000, "trial_type": "single-audio", "word": "spider", "stimulus": "/static/audio/wordpool/SPIDER.wav", "conditions": [18, 1200, "a", 18000], "internal_node_id": "0.0-21.0", "trial": 0, "time_elapsed": 164369, "serialpos": 9, "key_press": -1, "wordID": 1350, "type": "PRES_AUD", "trial_index": 30}, "uniqueid": "MTK1901:3AQF3RZ559PQRJMHE5Y683H0PZQF69", "dateTime": 1516557403659}, {"current_trial": 31, "trialdata": {"rt": -1000, "trial_type": "single-audio", "word": "plaid", "stimulus": "/static/audio/wordpool/PLAID.wav", "conditions": [18, 1200, "a", 18000], "internal_node_id": "0.0-22.0", "trial": 0, "time_elapsed": 166548, "serialpos": 10, "key_press": -1, "wordID": 1079, "type": "PRES_AUD", "trial_index": 31}, "uniqueid": "MTK1901:3AQF3RZ559PQRJMHE5Y683H0PZQF69", "dateTime": 1516557405839}, {"current_trial": 32, "trialdata": {"rt": -1000, "trial_type": "single-audio", "word": "tourist", "stimulus": "/static/audio/wordpool/TOURIST.wav", "conditions": [18, 1200, "a", 18000], "internal_node_id": "0.0-23.0", "trial": 0, "time_elapsed": 168860, "serialpos": 11, "key_press": -1, "wordID": 1487, "type": "PRES_AUD", "trial_index": 32}, "uniqueid": "MTK1901:3AQF3RZ559PQRJMHE5Y683H0PZQF69", "dateTime": 1516557408151}, {"current_trial": 33, "trialdata": {"rt": -1000, "trial_type": "single-audio", "word": "leader", "stimulus": "/static/audio/wordpool/LEADER.wav", "conditions": [18, 1200, "a", 18000], "internal_node_id": "0.0-24.0", "trial": 0, "time_elapsed": 171109, "serialpos": 12, "key_press": -1, "wordID": 806, "type": "PRES_AUD", "trial_index": 33}, "uniqueid": "MTK1901:3AQF3RZ559PQRJMHE5Y683H0PZQF69", "dateTime": 1516557410399}, {"current_trial": 34, "trialdata": {"rt": -1000, "trial_type": "single-audio", "word": "bike", "stimulus": "/static/audio/wordpool/BIKE.wav", "conditions": [18, 1200, "a", 18000], "internal_node_id": "0.0-25.0", "trial": 0, "time_elapsed": 173233, "serialpos": 13, "key_press": -1, "wordID": 124, "type": "PRES_AUD", "trial_index": 34}, "uniqueid": "MTK1901:3AQF3RZ559PQRJMHE5Y683H0PZQF69", "dateTime": 1516557412523}, {"current_trial": 35, "trialdata": {"rt": -1000, "trial_type": "single-audio", "word": "asia", "stimulus": "/static/audio/wordpool/ASIA.wav", "conditions": [18, 1200, "a", 18000], "internal_node_id": "0.0-26.0", "trial": 0, "time_elapsed": 175511, "serialpos": 14, "key_press": -1, "wordID": 45, "type": "PRES_AUD", "trial_index": 35}, "uniqueid": "MTK1901:3AQF3RZ559PQRJMHE5Y683H0PZQF69", "dateTime": 1516557414802}, {"current_trial": 36, "trialdata": {"rt": -1000, "trial_type": "single-audio", "word": "nurse", "stimulus": "/static/audio/wordpool/NURSE.wav", "conditions": [18, 1200, "a", 18000], "internal_node_id": "0.0-27.0", "trial": 0, "time_elapsed": 177685, "serialpos": 15, "key_press": -1, "wordID": 962, "type": "PRES_AUD", "trial_index": 36}, "uniqueid": "MTK1901:3AQF3RZ559PQRJMHE5Y683H0PZQF69", "dateTime": 1516557416975}, {"current_trial": 37, "trialdata": {"rt": -1000, "trial_type": "single-audio", "word": "hostess", "stimulus": "/static/audio/wordpool/HOSTESS.wav", "conditions": [18, 1200, "a", 18000], "internal_node_id": "0.0-28.0", "trial": 0, "time_elapsed": 179914, "serialpos": 16, "key_press": -1, "wordID": 722, "type": "PRES_AUD", "trial_index": 37}, "uniqueid": "MTK1901:3AQF3RZ559PQRJMHE5Y683H0PZQF69", "dateTime": 1516557419204}, {"current_trial": 38, "trialdata": {"rt": -1000, "trial_type": "single-audio", "word": "lake", "stimulus": "/static/audio/wordpool/LAKE.wav", "conditions": [18, 1200, "a", 18000], "internal_node_id": "0.0-29.0", "trial": 0, "time_elapsed": 182128, "serialpos": 17, "key_press": -1, "wordID": 795, "type": "PRES_AUD", "trial_index": 38}, "uniqueid": "MTK1901:3AQF3RZ559PQRJMHE5Y683H0PZQF69", "dateTime": 1516557421419}, {"current_trial": 39, "trialdata": {"rt": -1, "trial_type": "single-stim", "stimulus": "", "internal_node_id": "0.0-30.0-0.0", "time_elapsed": 183497, "key_press": -1, "type": "PRE_RECALL_DELAY", "trial_index": 39}, "uniqueid": "MTK1901:3AQF3RZ559PQRJMHE5Y683H0PZQF69", "dateTime": 1516557422787}, {"current_trial": 40, "trialdata": {"rt": -1000, "trial_type": "single-audio", "stimulus": "/static/audio/400Hz.wav", "internal_node_id": "0.0-31.0", "time_elapsed": 184004, "key_press": -1, "type": "PRE_RECALL_ALERT", "trial_index": 40}, "uniqueid": "MTK1901:3AQF3RZ559PQRJMHE5Y683H0PZQF69", "dateTime": 1516557423295}, {"current_trial": 41, "trialdata": {"rt": [2928, 5513, 7776, 10065, 11628, 13402, 15792, 17456, 19928, 31425, 39177, 47050, 51089], "recwords": ["driver", "airplane", "apple", "staple", "nurse", "beaver", "peach", "asia", "shirt", "lake", "apple", "car", "driver"], "key_times": [1585, 1793, 1960, 2120, 2265, 2445, 2928, 3496, 3760, 4000, 4449, 4674, 4849, 5088, 5273, 5513, 6920, 7156, 7320, 7513, 7617, 7776, 8673, 8888, 9128, 9321, 9496, 9674, 10065, 10688, 10873, 11041, 11274, 11441, 11628, 12153, 12336, 12593, 12824, 12953, 13396, 13402, 14520, 14664, 14896, 15048, 15400, 15792, 16194, 16456, 16656, 16808, 17456, 18256, 18408, 18568, 18689, 18865, 19928, 30772, 30913, 31097, 31225, 31425, 38315, 38521, 38706, 38889, 38977, 39177, 46378, 46496, 46697, 47050, 50113, 50305, 50537, 50641, 50795, 50977, 51089], "trial_type": "free-recall", "conditions": [18, 1200, "a", 18000], "internal_node_id": "0.0-32.0-0.0", "key_presses": [68, 82, 73, 86, 69, 82, 13, 65, 73, 82, 80, 76, 65, 78, 69, 13, 65, 80, 80, 76, 69, 13, 83, 84, 65, 80, 76, 69, 13, 78, 85, 82, 83, 69, 13, 66, 69, 65, 86, 69, 82, 13, 80, 69, 65, 67, 72, 13, 65, 83, 73, 65, 13, 83, 72, 73, 82, 84, 13, 76, 65, 75, 69, 13, 65, 80, 80, 76, 69, 13, 67, 65, 82, 13, 68, 82, 73, 86, 69, 82, 13], "trial": 0, "time_elapsed": 244013, "type": "FREE_RECALL", "trial_index": 41}, "uniqueid": "MTK1901:3AQF3RZ559PQRJMHE5Y683H0PZQF69", "dateTime": 1516557483317}, {"current_trial": 42, "trialdata": {"rt": 1623, "trial_type": "text", "internal_node_id": "0.0-33.0", "time_elapsed": 247651, "key_press": 74, "type": "INSTRUCTIONS", "trial_index": 42}, "uniqueid": "MTK1901:3AQF3RZ559PQRJMHE5Y683H0PZQF69", "dateTime": 1516557486942}, {"current_trial": 43, "trialdata": {"rt": [3738, 8268, 11090, 14018, 17337], "trial_type": "math-distractor", "key_times": [2802, 2958, 3738, 7482, 7666, 8268, 10482, 10594, 11090, 13219, 13346, 14018, 16641, 16753, 17337], "responses": ["17", "22", "14", "15", "20"], "num2": [7, 6, 3, 1, 8, 9], "num3": [7, 7, 6, 9, 8, 4], "conditions": [18, 1200, "a", 18000], "internal_node_id": "0.0-34.0", "key_presses": [97, 103, 13, 98, 98, 13, 97, 100, 13, 97, 101, 13, 98, 96, 13], "trial": 1, "time_elapsed": 267658, "type": "DISTRACTOR", "trial_index": 43, "num1": [3, 9, 5, 5, 4, 5]}, "uniqueid": "MTK1901:3AQF3RZ559PQRJMHE5Y683H0PZQF69", "dateTime": 1516557506948}, {"current_trial": 44, "trialdata": {"rt": -1, "trial_type": "single-stim", "stimulus": "<p id=\"stim\">10</p>", "internal_node_id": "0.0-35.0-0.0", "time_elapsed": 270663, "key_press": -1, "trial_index": 44}, "uniqueid": "MTK1901:3AQF3RZ559PQRJMHE5Y683H0PZQF69", "dateTime": 1516557509954}, {"current_trial": 45, "trialdata": {"rt": -1, "trial_type": "single-stim", "stimulus": "<p id=\"stim\">9</p>", "internal_node_id": "0.0-35.0-1.0", "time_elapsed": 271666, "key_press": -1, "trial_index": 45}, "uniqueid": "MTK1901:3AQF3RZ559PQRJMHE5Y683H0PZQF69", "dateTime": 1516557510956}, {"current_trial": 46, "trialdata": {"rt": -1, "trial_type": "single-stim", "stimulus": "<p id=\"stim\">8</p>", "internal_node_id": "0.0-35.0-2.0", "time_elapsed": 272668, "key_press": -1, "trial_index": 46}, "uniqueid": "MTK1901:3AQF3RZ559PQRJMHE5Y683H0PZQF69", "dateTime": 1516557511958}, {"current_trial": 47, "trialdata": {"rt": -1, "trial_type": "single-stim", "stimulus": "<p id=\"stim\">7</p>", "internal_node_id": "0.0-35.0-3.0", "time_elapsed": 273672, "key_press": -1, "trial_index": 47}, "uniqueid": "MTK1901:3AQF3RZ559PQRJMHE5Y683H0PZQF69", "dateTime": 1516557512964}, {"current_trial": 48, "trialdata": {"rt": -1, "trial_type": "single-stim", "stimulus": "<p id=\"stim\">6</p>", "internal_node_id": "0.0-35.0-4.0", "time_elapsed": 274676, "key_press": -1, "trial_index": 48}, "uniqueid": "MTK1901:3AQF3RZ559PQRJMHE5Y683H0PZQF69", "dateTime": 1516557513966}, {"current_trial": 49, "trialdata": {"rt": -1, "trial_type": "single-stim", "stimulus": "<p id=\"stim\">5</p>", "internal_node_id": "0.0-35.0-5.0", "time_elapsed": 275678, "key_press": -1, "trial_index": 49}, "uniqueid": "MTK1901:3AQF3RZ559PQRJMHE5Y683H0PZQF69", "dateTime": 1516557514971}, {"current_trial": 50, "trialdata": {"rt": -1, "trial_type": "single-stim", "stimulus": "<p id=\"stim\">4</p>", "internal_node_id": "0.0-35.0-6.0", "time_elapsed": 276682, "key_press": -1, "trial_index": 50}, "uniqueid": "MTK1901:3AQF3RZ559PQRJMHE5Y683H0PZQF69", "dateTime": 1516557515973}, {"current_trial": 51, "trialdata": {"rt": -1, "trial_type": "single-stim", "stimulus": "<p id=\"stim\">3</p>", "internal_node_id": "0.0-35.0-7.0", "time_elapsed": 277688, "key_press": -1, "trial_index": 51}, "uniqueid": "MTK1901:3AQF3RZ559PQRJMHE5Y683H0PZQF69", "dateTime": 1516557516979}, {"current_trial": 52, "trialdata": {"rt": -1, "trial_type": "single-stim", "stimulus": "<p id=\"stim\">2</p>", "internal_node_id": "0.0-35.0-8.0", "time_elapsed": 278690, "key_press": -1, "trial_index": 52}, "uniqueid": "MTK1901:3AQF3RZ559PQRJMHE5Y683H0PZQF69", "dateTime": 1516557517981}, {"current_trial": 53, "trialdata": {"rt": -1, "trial_type": "single-stim", "stimulus": "<p id=\"stim\">1</p>", "internal_node_id": "0.0-35.0-9.0", "time_elapsed": 279692, "key_press": -1, "trial_index": 53}, "uniqueid": "MTK1901:3AQF3RZ559PQRJMHE5Y683H0PZQF69", "dateTime": 1516557518982}, {"current_trial": 54, "trialdata": {"rt": -1, "trial_type": "single-stim", "stimulus": "<p id=\"stim\">+</p>", "internal_node_id": "0.0-36.0-0.0", "time_elapsed": 281195, "key_press": -1, "type": "FIXATION", "trial_index": 54}, "uniqueid": "MTK1901:3AQF3RZ559PQRJMHE5Y683H0PZQF69", "dateTime": 1516557520485}, {"current_trial": 55, "trialdata": {"rt": -1000, "trial_type": "single-audio", "word": "fireman", "stimulus": "/static/audio/wordpool/FIREMAN.wav", "conditions": [18, 1200, "a", 18000], "internal_node_id": "0.0-37.0", "trial": 1, "time_elapsed": 283248, "serialpos": 0, "key_press": -1, "wordID": 568, "type": "PRES_AUD", "trial_index": 55}, "uniqueid": "MTK1901:3AQF3RZ559PQRJMHE5Y683H0PZQF69", "dateTime": 1516557522539}, {"current_trial": 56, "trialdata": {"rt": -1000, "trial_type": "single-audio", "word": "parsley", "stimulus": "/static/audio/wordpool/PARSLEY.wav", "conditions": [18, 1200, "a", 18000], "internal_node_id": "0.0-38.0", "trial": 1, "time_elapsed": 285299, "serialpos": 1, "key_press": -1, "wordID": 1015, "type": "PRES_AUD", "trial_index": 56}, "uniqueid": "MTK1901:3AQF3RZ559PQRJMHE5Y683H0PZQF69", "dateTime": 1516557524590}, {"current_trial": 57, "trialdata": {"rt": -1000, "trial_type": "single-audio", "word": "marine", "stimulus": "/static/audio/wordpool/MARINE.wav", "conditions": [18, 1200, "a", 18000], "internal_node_id": "0.0-39.0", "trial": 1, "time_elapsed": 287310, "serialpos": 2, "key_press": -1, "wordID": 868, "type": "PRES_AUD", "trial_index": 57}, "uniqueid": "MTK1901:3AQF3RZ559PQRJMHE5Y683H0PZQF69", "dateTime": 1516557526600}, {"current_trial": 58, "trialdata": {"rt": -1000, "trial_type": "single-audio", "word": "snail", "stimulus": "/static/audio/wordpool/SNAIL.wav", "conditions": [18, 1200, "a", 18000], "internal_node_id": "0.0-40.0", "trial": 1, "time_elapsed": 289656, "serialpos": 3, "key_press": -1, "wordID": 1331, "type": "PRES_AUD", "trial_index": 58}, "uniqueid": "MTK1901:3AQF3RZ559PQRJMHE5Y683H0PZQF69", "dateTime": 1516557528946}, {"current_trial": 59, "trialdata": {"rt": -1000, "trial_type": "single-audio", "word": "globe", "stimulus": "/static/audio/wordpool/GLOBE.wav", "conditions": [18, 1200, "a", 18000], "internal_node_id": "0.0-41.0", "trial": 1, "time_elapsed": 291900, "serialpos": 4, "key_press": -1, "wordID": 640, "type": "PRES_AUD", "trial_index": 59}, "uniqueid": "MTK1901:3AQF3RZ559PQRJMHE5Y683H0PZQF69", "dateTime": 1516557531190}, {"current_trial": 60, "trialdata": {"rt": -1000, "trial_type": "single-audio", "word": "toaster", "stimulus": "/static/audio/wordpool/TOASTER.wav", "conditions": [18, 1200, "a", 18000], "internal_node_id": "0.0-42.0", "trial": 1, "time_elapsed": 293978, "serialpos": 5, "key_press": -1, "wordID": 1471, "type": "PRES_AUD", "trial_index": 60}, "uniqueid": "MTK1901:3AQF3RZ559PQRJMHE5Y683H0PZQF69", "dateTime": 1516557533268}, {"current_trial": 61, "trialdata": {"rt": -1000, "trial_type": "single-audio", "word": "necklace", "stimulus": "/static/audio/wordpool/NECKLACE.wav", "conditions": [18, 1200, "a", 18000], "internal_node_id": "0.0-43.0", "trial": 1, "time_elapsed": 296352, "serialpos": 6, "key_press": -1, "wordID": 939, "type": "PRES_AUD", "trial_index": 61}, "uniqueid": "MTK1901:3AQF3RZ559PQRJMHE5Y683H0PZQF69", "dateTime": 1516557535643}, {"current_trial": 62, "trialdata": {"rt": -1000, "trial_type": "single-audio", "word": "infant", "stimulus": "/static/audio/wordpool/INFANT.wav", "conditions": [18, 1200, "a", 18000], "internal_node_id": "0.0-44.0", "trial": 1, "time_elapsed": 298614, "serialpos": 7, "key_press": -1, "wordID": 736, "type": "PRES_AUD", "trial_index": 62}, "uniqueid": "MTK1901:3AQF3RZ559PQRJMHE5Y683H0PZQF69", "dateTime": 1516557537905}, {"current_trial": 63, "trialdata": {"rt": -1000, "trial_type": "single-audio", "word": "bank", "stimulus": "/static/audio/wordpool/BANK.wav", "conditions": [18, 1200, "a", 18000], "internal_node_id": "0.0-45.0", "trial": 1, "time_elapsed": 300656, "serialpos": 8, "key_press": -1, "wordID": 82, "type": "PRES_AUD", "trial_index": 63}, "uniqueid": "MTK1901:3AQF3RZ559PQRJMHE5Y683H0PZQF69", "dateTime": 1516557539946}, {"current_trial": 64, "trialdata": {"rt": -1000, "trial_type": "single-audio", "word": "gift", "stimulus": "/static/audio/wordpool/GIFT.wav", "conditions": [18, 1200, "a", 18000], "internal_node_id": "0.0-46.0", "trial": 1, "time_elapsed": 302841, "serialpos": 9, "key_press": -1, "wordID": 634, "type": "PRES_AUD", "trial_index": 64}, "uniqueid": "MTK1901:3AQF3RZ559PQRJMHE5Y683H0PZQF69", "dateTime": 1516557542131}, {"current_trial": 65, "trialdata": {"rt": -1000, "trial_type": "single-audio", "word": "sparrow", "stimulus": "/static/audio/wordpool/SPARROW.wav", "conditions": [18, 1200, "a", 18000], "internal_node_id": "0.0-47.0", "trial": 1, "time_elapsed": 304865, "serialpos": 10, "key_press": -1, "wordID": 1346, "type": "PRES_AUD", "trial_index": 65}, "uniqueid": "MTK1901:3AQF3RZ559PQRJMHE5Y683H0PZQF69", "dateTime": 1516557544155}, {"current_trial": 66, "trialdata": {"rt": -1000, "trial_type": "single-audio", "word": "termite", "stimulus": "/static/audio/wordpool/TERMITE.wav", "conditions": [18, 1200, "a", 18000], "internal_node_id": "0.0-48.0", "trial": 1, "time_elapsed": 307214, "serialpos": 11, "key_press": -1, "wordID": 1450, "type": "PRES_AUD", "trial_index": 66}, "uniqueid": "MTK1901:3AQF3RZ559PQRJMHE5Y683H0PZQF69", "dateTime": 1516557546505}, {"current_trial": 67, "trialdata": {"rt": -1000, "trial_type": "single-audio", "word": "scarecrow", "stimulus": "/static/audio/wordpool/SCARECROW.wav", "conditions": [18, 1200, "a", 18000], "internal_node_id": "0.0-49.0", "trial": 1, "time_elapsed": 309381, "serialpos": 12, "key_press": -1, "wordID": 1244, "type": "PRES_AUD", "trial_index": 67}, "uniqueid": "MTK1901:3AQF3RZ559PQRJMHE5Y683H0PZQF69", "dateTime": 1516557548671}, {"current_trial": 68, "trialdata": {"rt": -1000, "trial_type": "single-audio", "word": "keeper", "stimulus": "/static/audio/wordpool/KEEPER.wav", "conditions": [18, 1200, "a", 18000], "internal_node_id": "0.0-50.0", "trial": 1, "time_elapsed": 311664, "serialpos": 13, "key_press": -1, "wordID": 768, "type": "PRES_AUD", "trial_index": 68}, "uniqueid": "MTK1901:3AQF3RZ559PQRJMHE5Y683H0PZQF69", "dateTime": 1516557551002}, {"current_trial": 69, "trialdata": {"rt": -1000, "trial_type": "single-audio", "word": "rocket", "stimulus": "/static/audio/wordpool/ROCKET.wav", "conditions": [18, 1200, "a", 18000], "internal_node_id": "0.0-51.0", "trial": 1, "time_elapsed": 313919, "serialpos": 14, "key_press": -1, "wordID": 1201, "type": "PRES_AUD", "trial_index": 69}, "uniqueid": "MTK1901:3AQF3RZ559PQRJMHE5Y683H0PZQF69", "dateTime": 1516557553209}, {"current_trial": 70, "trialdata": {"rt": -1000, "trial_type": "single-audio", "word": "onion", "stimulus": "/static/audio/wordpool/ONION.wav", "conditions": [18, 1200, "a", 18000], "internal_node_id": "0.0-52.0", "trial": 1, "time_elapsed": 316105, "serialpos": 15, "key_press": -1, "wordID": 976, "type": "PRES_AUD", "trial_index": 70}, "uniqueid": "MTK1901:3AQF3RZ559PQRJMHE5Y683H0PZQF69", "dateTime": 1516557555396}, {"current_trial": 71, "trialdata": {"rt": -1000, "trial_type": "single-audio", "word": "contract", "stimulus": "/static/audio/wordpool/CONTRACT.wav", "conditions": [18, 1200, "a", 18000], "internal_node_id": "0.0-53.0", "trial": 1, "time_elapsed": 318367, "serialpos": 16, "key_press": -1, "wordID": 367, "type": "PRES_AUD", "trial_index": 71}, "uniqueid": "MTK1901:3AQF3RZ559PQRJMHE5Y683H0PZQF69", "dateTime": 1516557557657}, {"current_trial": 72, "trialdata": {"rt": -1000, "trial_type": "single-audio", "word": "basement", "stimulus": "/static/audio/wordpool/BASEMENT.wav", "conditions": [18, 1200, "a", 18000], "internal_node_id": "0.0-54.0", "trial": 1, "time_elapsed": 320565, "serialpos": 17, "key_press": -1, "wordID": 93, "type": "PRES_AUD", "trial_index": 72}, "uniqueid": "MTK1901:3AQF3RZ559PQRJMHE5Y683H0PZQF69", "dateTime": 1516557559855}, {"current_trial": 73, "trialdata": {"rt": -1, "trial_type": "single-stim", "stimulus": "", "internal_node_id": "0.0-55.0-0.0", "time_elapsed": 321949, "key_press": -1, "type": "PRE_RECALL_DELAY", "trial_index": 73}, "uniqueid": "MTK1901:3AQF3RZ559PQRJMHE5Y683H0PZQF69", "dateTime": 1516557561239}, {"current_trial": 74, "trialdata": {"rt": -1000, "trial_type": "single-audio", "stimulus": "/static/audio/400Hz.wav", "internal_node_id": "0.0-56.0", "time_elapsed": 322452, "key_press": -1, "type": "PRE_RECALL_ALERT", "trial_index": 74}, "uniqueid": "MTK1901:3AQF3RZ559PQRJMHE5Y683H0PZQF69", "dateTime": 1516557561742}, {"current_trial": 75, "trialdata": {"rt": [2510, 4871, 6510, 8229, 10670, 13350, 21016, 35134, 44342], "recwords": ["fireman", "parsley", "marine", "snail", "rocket", "onion", "infant", "scarecrow", "termite"], "key_times": [1218, 1422, 1616, 1710, 1942, 2102, 2265, 2510, 3118, 3247, 3479, 3702, 3887, 3990, 4216, 4871, 5265, 5367, 5576, 5790, 5942, 6087, 6510, 7062, 7418, 7450, 7540, 7798, 8229, 9438, 9606, 9758, 9982, 10110, 10302, 10670, 11496, 11862, 12062, 12302, 12502, 13350, 19318, 19519, 19766, 20135, 20247, 20359, 20528, 20687, 21016, 32607, 32743, 32911, 33134, 33230, 34056, 34302, 34598, 34750, 35134, 42278, 42671, 42829, 42982, 43230, 43686, 43847, 43967, 44079, 44342], "trial_type": "free-recall", "conditions": [18, 1200, "a", 18000], "internal_node_id": "0.0-57.0-0.0", "key_presses": [70, 73, 82, 69, 77, 65, 78, 13, 80, 65, 82, 83, 76, 69, 89, 13, 77, 65, 82, 73, 78, 69, 13, 83, 78, 65, 73, 76, 13, 82, 79, 67, 75, 69, 84, 13, 79, 78, 73, 79, 78, 13, 73, 78, 71, 8, 70, 65, 78, 84, 13, 83, 67, 65, 82, 69, 67, 82, 79, 87, 13, 69, 8, 84, 69, 82, 77, 73, 84, 69, 13], "trial": 1, "time_elapsed": 382462, "type": "FREE_RECALL", "trial_index": 75}, "uniqueid": "MTK1901:3AQF3RZ559PQRJMHE5Y683H0PZQF69", "dateTime": 1516557621767}, {"current_trial": 76, "trialdata": {"rt": 6059, "trial_type": "text", "internal_node_id": "0.0-58.0", "time_elapsed": 390539, "key_press": 70, "type": "INSTRUCTIONS", "trial_index": 76}, "uniqueid": "MTK1901:3AQF3RZ559PQRJMHE5Y683H0PZQF69", "dateTime": 1516557629829}, {"current_trial": 77, "trialdata": {"rt": [2513, 5577, 8289, 10913, 13897, 16553, 18793, 21017], "trial_type": "math-distractor", "key_times": [2050, 2153, 2513, 4881, 5087, 5577, 7785, 7921, 8289, 10395, 10490, 10913, 13169, 13361, 13897, 16001, 16145, 16553, 18305, 18434, 18793, 20427, 21017, 23833], "responses": ["12", "11", "18", "20", "11", "18", "18", "5"], "num2": [5, 2, 2, 8, 2, 6, 7, 1, 8], "num3": [3, 3, 7, 4, 8, 7, 2, 2, 4], "conditions": [12, 800, "a", 24000], "internal_node_id": "0.0-59.0", "key_presses": [97, 98, 13, 97, 97, 13, 97, 104, 13, 98, 96, 13, 97, 97, 13, 97, 104, 13, 97, 104, 13, 101, 13, 98], "trial": 2, "time_elapsed": 415554, "type": "DISTRACTOR", "trial_index": 77, "num1": [4, 6, 9, 8, 1, 5, 9, 2, 9]}, "uniqueid": "MTK1901:3AQF3RZ559PQRJMHE5Y683H0PZQF69", "dateTime": 1516557654844}, {"current_trial": 78, "trialdata": {"rt": -1, "trial_type": "single-stim", "stimulus": "<p id=\"stim\">10</p>", "internal_node_id": "0.0-60.0-0.0", "time_elapsed": 418556, "key_press": -1, "trial_index": 78}, "uniqueid": "MTK1901:3AQF3RZ559PQRJMHE5Y683H0PZQF69", "dateTime": 1516557657847}, {"current_trial": 79, "trialdata": {"rt": 636, "trial_type": "single-stim", "stimulus": "<p id=\"stim\">9</p>", "internal_node_id": "0.0-60.0-1.0", "time_elapsed": 419558, "key_press": 175, "trial_index": 79}, "uniqueid": "MTK1901:3AQF3RZ559PQRJMHE5Y683H0PZQF69", "dateTime": 1516557658848}, {"current_trial": 80, "trialdata": {"rt": -1, "trial_type": "single-stim", "stimulus": "<p id=\"stim\">8</p>", "internal_node_id": "0.0-60.0-2.0", "time_elapsed": 420560, "key_press": -1, "trial_index": 80}, "uniqueid": "MTK1901:3AQF3RZ559PQRJMHE5Y683H0PZQF69", "dateTime": 1516557659850}, {"current_trial": 81, "trialdata": {"rt": -1, "trial_type": "single-stim", "stimulus": "<p id=\"stim\">7</p>", "internal_node_id": "0.0-60.0-3.0", "time_elapsed": 421562, "key_press": -1, "trial_index": 81}, "uniqueid": "MTK1901:3AQF3RZ559PQRJMHE5Y683H0PZQF69", "dateTime": 1516557660853}, {"current_trial": 82, "trialdata": {"rt": 38, "trial_type": "single-stim", "stimulus": "<p id=\"stim\">6</p>", "internal_node_id": "0.0-60.0-4.0", "time_elapsed": 422565, "key_press": 175, "trial_index": 82}, "uniqueid": "MTK1901:3AQF3RZ559PQRJMHE5Y683H0PZQF69", "dateTime": 1516557661855}, {"current_trial": 83, "trialdata": {"rt": -1, "trial_type": "single-stim", "stimulus": "<p id=\"stim\">5</p>", "internal_node_id": "0.0-60.0-5.0", "time_elapsed": 423566, "key_press": -1, "trial_index": 83}, "uniqueid": "MTK1901:3AQF3RZ559PQRJMHE5Y683H0PZQF69", "dateTime": 1516557662856}, {"current_trial": 84, "trialdata": {"rt": -1, "trial_type": "single-stim", "stimulus": "<p id=\"stim\">4</p>", "internal_node_id": "0.0-60.0-6.0", "time_elapsed": 424569, "key_press": -1, "trial_index": 84}, "uniqueid": "MTK1901:3AQF3RZ559PQRJMHE5Y683H0PZQF69", "dateTime": 1516557663859}, {"current_trial": 85, "trialdata": {"rt": 302, "trial_type": "single-stim", "stimulus": "<p id=\"stim\">3</p>", "internal_node_id": "0.0-60.0-7.0", "time_elapsed": 425572, "key_press": 175, "trial_index": 85}, "uniqueid": "MTK1901:3AQF3RZ559PQRJMHE5Y683H0PZQF69", "dateTime": 1516557664862}, {"current_trial": 86, "trialdata": {"rt": 682, "trial_type": "single-stim", "stimulus": "<p id=\"stim\">2</p>", "internal_node_id": "0.0-60.0-8.0", "time_elapsed": 426574, "key_press": 175, "trial_index": 86}, "uniqueid": "MTK1901:3AQF3RZ559PQRJMHE5Y683H0PZQF69", "dateTime": 1516557665864}, {"current_trial": 87, "trialdata": {"rt": -1, "trial_type": "single-stim", "stimulus": "<p id=\"stim\">1</p>", "internal_node_id": "0.0-60.0-9.0", "time_elapsed": 427576, "key_press": -1, "trial_index": 87}, "uniqueid": "MTK1901:3AQF3RZ559PQRJMHE5Y683H0PZQF69", "dateTime": 1516557666866}, {"current_trial": 88, "trialdata": {"rt": -1, "trial_type": "single-stim", "stimulus": "<p id=\"stim\">+</p>", "internal_node_id": "0.0-61.0-0.0", "time_elapsed": 429078, "key_press": -1, "type": "FIXATION", "trial_index": 88}, "uniqueid": "MTK1901:3AQF3RZ559PQRJMHE5Y683H0PZQF69", "dateTime": 1516557668368}, {"current_trial": 89, "trialdata": {"rt": -1000, "trial_type": "single-audio", "word": "machine", "stimulus": "/static/audio/wordpool/MACHINE.wav", "conditions": [12, 800, "a", 24000], "internal_node_id": "0.0-62.0", "trial": 2, "time_elapsed": 430868, "serialpos": 0, "key_press": -1, "wordID": 851, "type": "PRES_AUD", "trial_index": 89}, "uniqueid": "MTK1901:3AQF3RZ559PQRJMHE5Y683H0PZQF69", "dateTime": 1516557670158}, {"current_trial": 90, "trialdata": {"rt": -1000, "trial_type": "single-audio", "word": "river", "stimulus": "/static/audio/wordpool/RIVER.wav", "conditions": [12, 800, "a", 24000], "internal_node_id": "0.0-63.0", "trial": 2, "time_elapsed": 432643, "serialpos": 1, "key_press": -1, "wordID": 1193, "type": "PRES_AUD", "trial_index": 90}, "uniqueid": "MTK1901:3AQF3RZ559PQRJMHE5Y683H0PZQF69", "dateTime": 1516557671933}, {"current_trial": 91, "trialdata": {"rt": -1000, "trial_type": "single-audio", "word": "quail", "stimulus": "/static/audio/wordpool/QUAIL.wav", "conditions": [12, 800, "a", 24000], "internal_node_id": "0.0-64.0", "trial": 2, "time_elapsed": 434473, "serialpos": 2, "key_press": -1, "wordID": 1146, "type": "PRES_AUD", "trial_index": 91}, "uniqueid": "MTK1901:3AQF3RZ559PQRJMHE5Y683H0PZQF69", "dateTime": 1516557673764}, {"current_trial": 92, "trialdata": {"rt": -1000, "trial_type": "single-audio", "word": "hound", "stimulus": "/static/audio/wordpool/HOUND.wav", "conditions": [12, 800, "a", 24000], "internal_node_id": "0.0-65.0", "trial": 2, "time_elapsed": 436407, "serialpos": 3, "key_press": -1, "wordID": 723, "type": "PRES_AUD", "trial_index": 92}, "uniqueid": "MTK1901:3AQF3RZ559PQRJMHE5Y683H0PZQF69", "dateTime": 1516557675698}, {"current_trial": 93, "trialdata": {"rt": -1000, "trial_type": "single-audio", "word": "cloud", "stimulus": "/static/audio/wordpool/CLOUD.wav", "conditions": [12, 800, "a", 24000], "internal_node_id": "0.0-66.0", "trial": 2, "time_elapsed": 438084, "serialpos": 4, "key_press": -1, "wordID": 327, "type": "PRES_AUD", "trial_index": 93}, "uniqueid": "MTK1901:3AQF3RZ559PQRJMHE5Y683H0PZQF69", "dateTime": 1516557677375}, {"current_trial": 94, "trialdata": {"rt": -1000, "trial_type": "single-audio", "word": "foot", "stimulus": "/static/audio/wordpool/FOOT.wav", "conditions": [12, 800, "a", 24000], "internal_node_id": "0.0-67.0", "trial": 2, "time_elapsed": 440070, "serialpos": 5, "key_press": -1, "wordID": 589, "type": "PRES_AUD", "trial_index": 94}, "uniqueid": "MTK1901:3AQF3RZ559PQRJMHE5Y683H0PZQF69", "dateTime": 1516557679360}, {"current_trial": 95, "trialdata": {"rt": -1000, "trial_type": "single-audio", "word": "convict", "stimulus": "/static/audio/wordpool/CONVICT.wav", "conditions": [12, 800, "a", 24000], "internal_node_id": "0.0-68.0", "trial": 2, "time_elapsed": 442003, "serialpos": 6, "key_press": -1, "wordID": 370, "type": "PRES_AUD", "trial_index": 95}, "uniqueid": "MTK1901:3AQF3RZ559PQRJMHE5Y683H0PZQF69", "dateTime": 1516557681293}, {"current_trial": 96, "trialdata": {"rt": -1000, "trial_type": "single-audio", "word": "crab", "stimulus": "/static/audio/wordpool/CRAB.wav", "conditions": [12, 800, "a", 24000], "internal_node_id": "0.0-69.0", "trial": 2, "time_elapsed": 443837, "serialpos": 7, "key_press": -1, "wordID": 396, "type": "PRES_AUD", "trial_index": 96}, "uniqueid": "MTK1901:3AQF3RZ559PQRJMHE5Y683H0PZQF69", "dateTime": 1516557683127}, {"current_trial": 97, "trialdata": {"rt": -1000, "trial_type": "single-audio", "word": "brook", "stimulus": "/static/audio/wordpool/BROOK.wav", "conditions": [12, 800, "a", 24000], "internal_node_id": "0.0-70.0", "trial": 2, "time_elapsed": 445773, "serialpos": 8, "key_press": -1, "wordID": 176, "type": "PRES_AUD", "trial_index": 97}, "uniqueid": "MTK1901:3AQF3RZ559PQRJMHE5Y683H0PZQF69", "dateTime": 1516557685063}, {"current_trial": 98, "trialdata": {"rt": -1000, "trial_type": "single-audio", "word": "cook", "stimulus": "/static/audio/wordpool/COOK.wav", "conditions": [12, 800, "a", 24000], "internal_node_id": "0.0-71.0", "trial": 2, "time_elapsed": 447547, "serialpos": 9, "key_press": -1, "wordID": 371, "type": "PRES_AUD", "trial_index": 98}, "uniqueid": "MTK1901:3AQF3RZ559PQRJMHE5Y683H0PZQF69", "dateTime": 1516557686837}, {"current_trial": 99, "trialdata": {"rt": -1000, "trial_type": "single-audio", "word": "kitchen", "stimulus": "/static/audio/wordpool/KITCHEN.wav", "conditions": [12, 800, "a", 24000], "internal_node_id": "0.0-72.0", "trial": 2, "time_elapsed": 449454, "serialpos": 10, "key_press": -1, "wordID": 777, "type": "PRES_AUD", "trial_index": 99}, "uniqueid": "MTK1901:3AQF3RZ559PQRJMHE5Y683H0PZQF69", "dateTime": 1516557688745}, {"current_trial": 100, "trialdata": {"rt": -1000, "trial_type": "single-audio", "word": "curtain", "stimulus": "/static/audio/wordpool/CURTAIN.wav", "conditions": [12, 800, "a", 24000], "internal_node_id": "0.0-73.0", "trial": 2, "time_elapsed": 451085, "serialpos": 11, "key_press": -1, "wordID": 426, "type": "PRES_AUD", "trial_index": 100}, "uniqueid": "MTK1901:3AQF3RZ559PQRJMHE5Y683H0PZQF69", "dateTime": 1516557690375}, {"current_trial": 101, "trialdata": {"rt": -1, "trial_type": "single-stim", "stimulus": "", "internal_node_id": "0.0-74.0-0.0", "time_elapsed": 452401, "key_press": -1, "type": "PRE_RECALL_DELAY", "trial_index": 101}, "uniqueid": "MTK1901:3AQF3RZ559PQRJMHE5Y683H0PZQF69", "dateTime": 1516557691691}, {"current_trial": 102, "trialdata": {"rt": -1000, "trial_type": "single-audio", "stimulus": "/static/audio/400Hz.wav", "internal_node_id": "0.0-75.0", "time_elapsed": 452904, "key_press": -1, "type": "PRE_RECALL_ALERT", "trial_index": 102}, "uniqueid": "MTK1901:3AQF3RZ559PQRJMHE5Y683H0PZQF69", "dateTime": 1516557692194}, {"current_trial": 103, "trialdata": {"rt": [2713, 4280, 7138, 14508, 16285, 18058, 21009, 46496, 48832], "recwords": ["curtain", "brook", "convict", "cloud", "machine", "river", "foot", "foot", "cloud"], "key_times": [1209, 1401, 1593, 1801, 2032, 2178, 2424, 2713, 3109, 3122, 3329, 3497, 3971, 4280, 4841, 4992, 5248, 5433, 5609, 5716, 5992, 7138, 8839, 8930, 9234, 9354, 14504, 14508, 14509, 14512, 14514, 14515, 14519, 14521, 14523, 16285, 17114, 17338, 17682, 17690, 17849, 18058, 19113, 19224, 19424, 19570, 21009, 45057, 45304, 45480, 45640, 46496, 47928, 48034, 48152, 48392, 48577, 48832], "trial_type": "free-recall", "conditions": [12, 800, "a", 24000], "internal_node_id": "0.0-76.0-0.0", "key_presses": [67, 85, 82, 84, 65, 73, 78, 13, 66, 82, 79, 79, 75, 13, 67, 79, 78, 86, 73, 67, 84, 13, 67, 76, 79, 85, 68, 13, 77, 65, 67, 72, 73, 78, 69, 13, 82, 73, 86, 69, 82, 13, 70, 79, 79, 84, 13, 70, 79, 79, 84, 13, 67, 76, 79, 85, 68, 13], "trial": 2, "time_elapsed": 512908, "type": "FREE_RECALL", "trial_index": 103}, "uniqueid": "MTK1901:3AQF3RZ559PQRJMHE5Y683H0PZQF69", "dateTime": 1516557752211}, {"current_trial": 104, "trialdata": {"rt": 1846, "trial_type": "text", "internal_node_id": "0.0-77.0", "time_elapsed": 516770, "key_press": 74, "type": "INSTRUCTIONS", "trial_index": 104}, "uniqueid": "MTK1901:3AQF3RZ559PQRJMHE5Y683H0PZQF69", "dateTime": 1516557756060}, {"current_trial": 105, "trialdata": {"rt": [3241, 6160, 9520, 11713, 14080, 17352, 20481, 23104], "trial_type": "math-distractor", "key_times": [2417, 2545, 3241, 5185, 5329, 6160, 9086, 9192, 9520, 11216, 11321, 11713, 13576, 13704, 14080, 16888, 17032, 17352, 20025, 20129, 20481, 22513, 22657, 23104], "responses": ["16", "16", "14", "12", "10", "18", "14", "16"], "num2": [2, 7, 2, 1, 1, 8, 2, 3, 8], "num3": [5, 1, 6, 4, 6, 6, 8, 7, 6], "conditions": [24, 800, "a", 24000], "internal_node_id": "0.0-78.0", "key_presses": [97, 102, 13, 97, 102, 13, 97, 100, 13, 97, 98, 13, 97, 96, 13, 97, 104, 13, 97, 100, 13, 97, 102, 13], "trial": 3, "time_elapsed": 542788, "type": "DISTRACTOR", "trial_index": 105, "num1": [9, 8, 6, 7, 3, 4, 4, 6, 4]}, "uniqueid": "MTK1901:3AQF3RZ559PQRJMHE5Y683H0PZQF69", "dateTime": 1516557782078}, {"current_trial": 106, "trialdata": {"rt": -1, "trial_type": "single-stim", "stimulus": "<p id=\"stim\">10</p>", "internal_node_id": "0.0-79.0-0.0", "time_elapsed": 545790, "key_press": -1, "trial_index": 106}, "uniqueid": "MTK1901:3AQF3RZ559PQRJMHE5Y683H0PZQF69", "dateTime": 1516557785081}, {"current_trial": 107, "trialdata": {"rt": -1, "trial_type": "single-stim", "stimulus": "<p id=\"stim\">9</p>", "internal_node_id": "0.0-79.0-1.0", "time_elapsed": 546793, "key_press": -1, "trial_index": 107}, "uniqueid": "MTK1901:3AQF3RZ559PQRJMHE5Y683H0PZQF69", "dateTime": 1516557786083}, {"current_trial": 108, "trialdata": {"rt": -1, "trial_type": "single-stim", "stimulus": "<p id=\"stim\">8</p>", "internal_node_id": "0.0-79.0-2.0", "time_elapsed": 547796, "key_press": -1, "trial_index": 108}, "uniqueid": "MTK1901:3AQF3RZ559PQRJMHE5Y683H0PZQF69", "dateTime": 1516557787086}, {"current_trial": 109, "trialdata": {"rt": -1, "trial_type": "single-stim", "stimulus": "<p id=\"stim\">7</p>", "internal_node_id": "0.0-79.0-3.0", "time_elapsed": 548799, "key_press": -1, "trial_index": 109}, "uniqueid": "MTK1901:3AQF3RZ559PQRJMHE5Y683H0PZQF69", "dateTime": 1516557788089}, {"current_trial": 110, "trialdata": {"rt": -1, "trial_type": "single-stim", "stimulus": "<p id=\"stim\">6</p>", "internal_node_id": "0.0-79.0-4.0", "time_elapsed": 549801, "key_press": -1, "trial_index": 110}, "uniqueid": "MTK1901:3AQF3RZ559PQRJMHE5Y683H0PZQF69", "dateTime": 1516557789091}, {"current_trial": 111, "trialdata": {"rt": -1, "trial_type": "single-stim", "stimulus": "<p id=\"stim\">5</p>", "internal_node_id": "0.0-79.0-5.0", "time_elapsed": 550803, "key_press": -1, "trial_index": 111}, "uniqueid": "MTK1901:3AQF3RZ559PQRJMHE5Y683H0PZQF69", "dateTime": 1516557790093}, {"current_trial": 112, "trialdata": {"rt": -1, "trial_type": "single-stim", "stimulus": "<p id=\"stim\">4</p>", "internal_node_id": "0.0-79.0-6.0", "time_elapsed": 551804, "key_press": -1, "trial_index": 112}, "uniqueid": "MTK1901:3AQF3RZ559PQRJMHE5Y683H0PZQF69", "dateTime": 1516557791095}, {"current_trial": 113, "trialdata": {"rt": -1, "trial_type": "single-stim", "stimulus": "<p id=\"stim\">3</p>", "internal_node_id": "0.0-79.0-7.0", "time_elapsed": 552806, "key_press": -1, "trial_index": 113}, "uniqueid": "MTK1901:3AQF3RZ559PQRJMHE5Y683H0PZQF69", "dateTime": 1516557792096}, {"current_trial": 114, "trialdata": {"rt": -1, "trial_type": "single-stim", "stimulus": "<p id=\"stim\">2</p>", "internal_node_id": "0.0-79.0-8.0", "time_elapsed": 553809, "key_press": -1, "trial_index": 114}, "uniqueid": "MTK1901:3AQF3RZ559PQRJMHE5Y683H0PZQF69", "dateTime": 1516557793100}, {"current_trial": 115, "trialdata": {"rt": -1, "trial_type": "single-stim", "stimulus": "<p id=\"stim\">1</p>", "internal_node_id": "0.0-79.0-9.0", "time_elapsed": 554811, "key_press": -1, "trial_index": 115}, "uniqueid": "MTK1901:3AQF3RZ559PQRJMHE5Y683H0PZQF69", "dateTime": 1516557794101}, {"current_trial": 116, "trialdata": {"rt": -1, "trial_type": "single-stim", "stimulus": "<p id=\"stim\">+</p>", "internal_node_id": "0.0-80.0-0.0", "time_elapsed": 556314, "key_press": -1, "type": "FIXATION", "trial_index": 116}, "uniqueid": "MTK1901:3AQF3RZ559PQRJMHE5Y683H0PZQF69", "dateTime": 1516557795604}, {"current_trial": 117, "trialdata": {"rt": -1000, "trial_type": "single-audio", "word": "milk", "stimulus": "/static/audio/wordpool/MILK.wav", "conditions": [24, 800, "a", 24000], "internal_node_id": "0.0-81.0", "trial": 3, "time_elapsed": 558110, "serialpos": 0, "key_press": -1, "wordID": 894, "type": "PRES_AUD", "trial_index": 117}, "uniqueid": "MTK1901:3AQF3RZ559PQRJMHE5Y683H0PZQF69", "dateTime": 1516557797400}, {"current_trial": 118, "trialdata": {"rt": -1000, "trial_type": "single-audio", "word": "clock", "stimulus": "/static/audio/wordpool/CLOCK.wav", "conditions": [24, 800, "a", 24000], "internal_node_id": "0.0-82.0", "trial": 3, "time_elapsed": 560049, "serialpos": 1, "key_press": -1, "wordID": 324, "type": "PRES_AUD", "trial_index": 118}, "uniqueid": "MTK1901:3AQF3RZ559PQRJMHE5Y683H0PZQF69", "dateTime": 1516557799339}, {"current_trial": 119, "trialdata": {"rt": -1000, "trial_type": "single-audio", "word": "victim", "stimulus": "/static/audio/wordpool/VICTIM.wav", "conditions": [24, 800, "a", 24000], "internal_node_id": "0.0-83.0", "trial": 3, "time_elapsed": 561800, "serialpos": 2, "key_press": -1, "wordID": 1561, "type": "PRES_AUD", "trial_index": 119}, "uniqueid": "MTK1901:3AQF3RZ559PQRJMHE5Y683H0PZQF69", "dateTime": 1516557801091}, {"current_trial": 120, "trialdata": {"rt": -1000, "trial_type": "single-audio", "word": "woman", "stimulus": "/static/audio/wordpool/WOMAN.wav", "conditions": [24, 800, "a", 24000], "internal_node_id": "0.0-84.0", "trial": 3, "time_elapsed": 566230, "serialpos": 3, "key_press": -1, "wordID": 1619, "type": "PRES_AUD", "trial_index": 120}, "uniqueid": "MTK1901:3AQF3RZ559PQRJMHE5Y683H0PZQF69", "dateTime": 1516557805521}, {"current_trial": 121, "trialdata": {"rt": -1000, "trial_type": "single-audio", "word": "freckle", "stimulus": "/static/audio/wordpool/FRECKLE.wav", "conditions": [24, 800, "a", 24000], "internal_node_id": "0.0-85.0", "trial": 3, "time_elapsed": 568653, "serialpos": 4, "key_press": -1, "wordID": 601, "type": "PRES_AUD", "trial_index": 121}, "uniqueid": "MTK1901:3AQF3RZ559PQRJMHE5Y683H0PZQF69", "dateTime": 1516557807943}, {"current_trial": 122, "trialdata": {"rt": -1000, "trial_type": "single-audio", "word": "braces", "stimulus": "/static/audio/wordpool/BRACES.wav", "conditions": [24, 800, "a", 24000], "internal_node_id": "0.0-86.0", "trial": 3, "time_elapsed": 570528, "serialpos": 5, "key_press": -1, "wordID": 163, "type": "PRES_AUD", "trial_index": 122}, "uniqueid": "MTK1901:3AQF3RZ559PQRJMHE5Y683H0PZQF69", "dateTime": 1516557809818}, {"current_trial": 123, "trialdata": {"rt": -1000, "trial_type": "single-audio", "word": "human", "stimulus": "/static/audio/wordpool/HUMAN.wav", "conditions": [24, 800, "a", 24000], "internal_node_id": "0.0-87.0", "trial": 3, "time_elapsed": 572176, "serialpos": 6, "key_press": -1, "wordID": 725, "type": "PRES_AUD", "trial_index": 123}, "uniqueid": "MTK1901:3AQF3RZ559PQRJMHE5Y683H0PZQF69", "dateTime": 1516557811466}, {"current_trial": 124, "trialdata": {"rt": -1000, "trial_type": "single-audio", "word": "church", "stimulus": "/static/audio/wordpool/CHURCH.wav", "conditions": [24, 800, "a", 24000], "internal_node_id": "0.0-88.0", "trial": 3, "time_elapsed": 574058, "serialpos": 7, "key_press": -1, "wordID": 306, "type": "PRES_AUD", "trial_index": 124}, "uniqueid": "MTK1901:3AQF3RZ559PQRJMHE5Y683H0PZQF69", "dateTime": 1516557813348}, {"current_trial": 125, "trialdata": {"rt": -1000, "trial_type": "single-audio", "word": "cod", "stimulus": "/static/audio/wordpool/COD.wav", "conditions": [24, 800, "a", 24000], "internal_node_id": "0.0-89.0", "trial": 3, "time_elapsed": 575807, "serialpos": 8, "key_press": -1, "wordID": 339, "type": "PRES_AUD", "trial_index": 125}, "uniqueid": "MTK1901:3AQF3RZ559PQRJMHE5Y683H0PZQF69", "dateTime": 1516557815097}, {"current_trial": 126, "trialdata": {"rt": -1000, "trial_type": "single-audio", "word": "daisy", "stimulus": "/static/audio/wordpool/DAISY.wav", "conditions": [24, 800, "a", 24000], "internal_node_id": "0.0-90.0", "trial": 3, "time_elapsed": 577422, "serialpos": 9, "key_press": -1, "wordID": 434, "type": "PRES_AUD", "trial_index": 126}, "uniqueid": "MTK1901:3AQF3RZ559PQRJMHE5Y683H0PZQF69", "dateTime": 1516557816712}, {"current_trial": 127, "trialdata": {"rt": -1000, "trial_type": "single-audio", "word": "chapel", "stimulus": "/static/audio/wordpool/CHAPEL.wav", "conditions": [24, 800, "a", 24000], "internal_node_id": "0.0-91.0", "trial": 3, "time_elapsed": 579097, "serialpos": 10, "key_press": -1, "wordID": 279, "type": "PRES_AUD", "trial_index": 127}, "uniqueid": "MTK1901:3AQF3RZ559PQRJMHE5Y683H0PZQF69", "dateTime": 1516557818388}, {"current_trial": 128, "trialdata": {"rt": -1000, "trial_type": "single-audio", "word": "pork", "stimulus": "/static/audio/wordpool/PORK.wav", "conditions": [24, 800, "a", 24000], "internal_node_id": "0.0-92.0", "trial": 3, "time_elapsed": 580724, "serialpos": 11, "key_press": -1, "wordID": 1107, "type": "PRES_AUD", "trial_index": 128}, "uniqueid": "MTK1901:3AQF3RZ559PQRJMHE5Y683H0PZQF69", "dateTime": 1516557820014}, {"current_trial": 129, "trialdata": {"rt": -1000, "trial_type": "single-audio", "word": "butcher", "stimulus": "/static/audio/wordpool/BUTCHER.wav", "conditions": [24, 800, "a", 24000], "internal_node_id": "0.0-93.0", "trial": 3, "time_elapsed": 582558, "serialpos": 12, "key_press": -1, "wordID": 202, "type": "PRES_AUD", "trial_index": 129}, "uniqueid": "MTK1901:3AQF3RZ559PQRJMHE5Y683H0PZQF69", "dateTime": 1516557821849}, {"current_trial": 130, "trialdata": {"rt": -1000, "trial_type": "single-audio", "word": "parrot", "stimulus": "/static/audio/wordpool/PARROT.wav", "conditions": [24, 800, "a", 24000], "internal_node_id": "0.0-94.0", "trial": 3, "time_elapsed": 584377, "serialpos": 13, "key_press": -1, "wordID": 1014, "type": "PRES_AUD", "trial_index": 130}, "uniqueid": "MTK1901:3AQF3RZ559PQRJMHE5Y683H0PZQF69", "dateTime": 1516557823667}, {"current_trial": 131, "trialdata": {"rt": -1000, "trial_type": "single-audio", "word": "sheriff", "stimulus": "/static/audio/wordpool/SHERIFF.wav", "conditions": [24, 800, "a", 24000], "internal_node_id": "0.0-95.0", "trial": 3, "time_elapsed": 586483, "serialpos": 14, "key_press": -1, "wordID": 1283, "type": "PRES_AUD", "trial_index": 131}, "uniqueid": "MTK1901:3AQF3RZ559PQRJMHE5Y683H0PZQF69", "dateTime": 1516557825773}, {"current_trial": 132, "trialdata": {"rt": -1000, "trial_type": "single-audio", "word": "ankle", "stimulus": "/static/audio/wordpool/ANKLE.wav", "conditions": [24, 800, "a", 24000], "internal_node_id": "0.0-96.0", "trial": 3, "time_elapsed": 588184, "serialpos": 15, "key_press": -1, "wordID": 23, "type": "PRES_AUD", "trial_index": 132}, "uniqueid": "MTK1901:3AQF3RZ559PQRJMHE5Y683H0PZQF69", "dateTime": 1516557827474}, {"current_trial": 133, "trialdata": {"rt": -1000, "trial_type": "single-audio", "word": "guard", "stimulus": "/static/audio/wordpool/GUARD.wav", "conditions": [24, 800, "a", 24000], "internal_node_id": "0.0-97.0", "trial": 3, "time_elapsed": 589831, "serialpos": 16, "key_press": -1, "wordID": 666, "type": "PRES_AUD", "trial_index": 133}, "uniqueid": "MTK1901:3AQF3RZ559PQRJMHE5Y683H0PZQF69", "dateTime": 1516557829121}, {"current_trial": 134, "trialdata": {"rt": -1000, "trial_type": "single-audio", "word": "stream", "stimulus": "/static/audio/wordpool/STREAM.wav", "conditions": [24, 800, "a", 24000], "internal_node_id": "0.0-98.0", "trial": 3, "time_elapsed": 591769, "serialpos": 17, "key_press": -1, "wordID": 1391, "type": "PRES_AUD", "trial_index": 134}, "uniqueid": "MTK1901:3AQF3RZ559PQRJMHE5Y683H0PZQF69", "dateTime": 1516557831059}, {"current_trial": 135, "trialdata": {"rt": -1000, "trial_type": "single-audio", "word": "parent", "stimulus": "/static/audio/wordpool/PARENT.wav", "conditions": [24, 800, "a", 24000], "internal_node_id": "0.0-99.0", "trial": 3, "time_elapsed": 593479, "serialpos": 18, "key_press": -1, "wordID": 1012, "type": "PRES_AUD", "trial_index": 135}, "uniqueid": "MTK1901:3AQF3RZ559PQRJMHE5Y683H0PZQF69", "dateTime": 1516557832770}, {"current_trial": 136, "trialdata": {"rt": -1000, "trial_type": "single-audio", "word": "flask", "stimulus": "/static/audio/wordpool/FLASK.wav", "conditions": [24, 800, "a", 24000], "internal_node_id": "0.0-100.0", "trial": 3, "time_elapsed": 595174, "serialpos": 19, "key_press": -1, "wordID": 575, "type": "PRES_AUD", "trial_index": 136}, "uniqueid": "MTK1901:3AQF3RZ559PQRJMHE5Y683H0PZQF69", "dateTime": 1516557834464}, {"current_trial": 137, "trialdata": {"rt": -1000, "trial_type": "single-audio", "word": "denim", "stimulus": "/static/audio/wordpool/DENIM.wav", "conditions": [24, 800, "a", 24000], "internal_node_id": "0.0-101.0", "trial": 3, "time_elapsed": 596939, "serialpos": 20, "key_press": -1, "wordID": 445, "type": "PRES_AUD", "trial_index": 137}, "uniqueid": "MTK1901:3AQF3RZ559PQRJMHE5Y683H0PZQF69", "dateTime": 1516557836229}, {"current_trial": 138, "trialdata": {"rt": -1000, "trial_type": "single-audio", "word": "clothes", "stimulus": "/static/audio/wordpool/CLOTHES.wav", "conditions": [24, 800, "a", 24000], "internal_node_id": "0.0-102.0", "trial": 3, "time_elapsed": 598922, "serialpos": 21, "key_press": -1, "wordID": 326, "type": "PRES_AUD", "trial_index": 138}, "uniqueid": "MTK1901:3AQF3RZ559PQRJMHE5Y683H0PZQF69", "dateTime": 1516557838212}, {"current_trial": 139, "trialdata": {"rt": -1000, "trial_type": "single-audio", "word": "gymnast", "stimulus": "/static/audio/wordpool/GYMNAST.wav", "conditions": [24, 800, "a", 24000], "internal_node_id": "0.0-103.0", "trial": 3, "time_elapsed": 600693, "serialpos": 22, "key_press": -1, "wordID": 674, "type": "PRES_AUD", "trial_index": 139}, "uniqueid": "MTK1901:3AQF3RZ559PQRJMHE5Y683H0PZQF69", "dateTime": 1516557839984}, {"current_trial": 140, "trialdata": {"rt": -1000, "trial_type": "single-audio", "word": "leg", "stimulus": "/static/audio/wordpool/LEG.wav", "conditions": [24, 800, "a", 24000], "internal_node_id": "0.0-104.0", "trial": 3, "time_elapsed": 602575, "serialpos": 23, "key_press": -1, "wordID": 808, "type": "PRES_AUD", "trial_index": 140}, "uniqueid": "MTK1901:3AQF3RZ559PQRJMHE5Y683H0PZQF69", "dateTime": 1516557841865}, {"current_trial": 141, "trialdata": {"rt": -1, "trial_type": "single-stim", "stimulus": "", "internal_node_id": "0.0-105.0-0.0", "time_elapsed": 603883, "key_press": -1, "type": "PRE_RECALL_DELAY", "trial_index": 141}, "uniqueid": "MTK1901:3AQF3RZ559PQRJMHE5Y683H0PZQF69", "dateTime": 1516557843173}, {"current_trial": 142, "trialdata": {"rt": -1000, "trial_type": "single-audio", "stimulus": "/static/audio/400Hz.wav", "internal_node_id": "0.0-106.0", "time_elapsed": 604387, "key_press": -1, "type": "PRE_RECALL_ALERT", "trial_index": 142}, "uniqueid": "MTK1901:3AQF3RZ559PQRJMHE5Y683H0PZQF69", "dateTime": 1516557843677}, {"current_trial": 143, "trialdata": {"rt": [1668, 3780, 6289, 8005, 9638, 11988, 14588, 17509, 20332, 22759, 25446, 27251, 28942, 42644, 49508, 54453], "recwords": ["leg", "victom", "woman", "church", "chapel", "ankle", "sheriff", "guard", "braces", "gymnast", "clock", "kitchen", "milk", "stream", "woman", "cod"], "key_times": [1099, 1294, 1421, 1668, 2773, 2942, 3038, 3271, 3359, 3527, 3780, 5412, 5517, 5669, 5813, 5973, 6289, 6805, 7051, 7125, 7309, 7549, 7677, 8005, 8380, 8548, 8709, 9024, 9141, 9284, 9638, 10487, 10661, 11045, 11263, 11483, 11988, 12800, 12885, 13012, 13436, 13822, 13826, 13954, 14588, 16141, 16571, 16578, 16612, 16821, 17509, 18532, 18727, 18998, 19236, 19357, 19590, 20332, 21045, 21258, 21543, 21821, 21973, 22180, 22349, 22759, 24518, 24678, 24861, 25013, 25128, 25446, 25949, 26080, 26213, 26480, 26599, 26726, 26869, 27251, 27901, 28054, 28320, 28533, 28942, 40110, 40493, 40621, 41517, 41695, 41788, 42044, 42164, 42644, 48652, 48789, 48948, 49092, 49236, 49508, 53582, 53759, 54109, 54453], "trial_type": "free-recall", "conditions": [24, 800, "a", 24000], "internal_node_id": "0.0-107.0-0.0", "key_presses": [76, 69, 71, 13, 86, 73, 67, 84, 79, 77, 13, 87, 79, 77, 65, 78, 13, 67, 72, 85, 82, 67, 72, 13, 67, 72, 65, 80, 69, 76, 13, 65, 78, 75, 76, 69, 13, 83, 72, 69, 82, 73, 70, 70, 13, 71, 85, 65, 82, 68, 13, 66, 82, 65, 67, 69, 83, 13, 71, 89, 77, 78, 65, 83, 84, 13, 67, 76, 79, 67, 75, 13, 75, 73, 84, 67, 72, 69, 78, 13, 77, 73, 76, 75, 13, 83, 84, 84, 8, 82, 69, 65, 77, 13, 87, 79, 77, 65, 78, 13, 67, 79, 68, 13], "trial": 3, "time_elapsed": 664393, "type": "FREE_RECALL", "trial_index": 143}, "uniqueid": "MTK1901:3AQF3RZ559PQRJMHE5Y683H0PZQF69", "dateTime": 1516557903703}, {"current_trial": 144, "trialdata": {"rt": 1800, "trial_type": "text", "internal_node_id": "0.0-108.0", "time_elapsed": 668215, "key_press": 72, "type": "INSTRUCTIONS", "trial_index": 144}, "uniqueid": "MTK1901:3AQF3RZ559PQRJMHE5Y683H0PZQF69", "dateTime": 1516557907505}, {"current_trial": 145, "trialdata": {"rt": [2441, 5571, 9618], "trial_type": "math-distractor", "key_times": [1754, 1857, 2441, 4359, 4498, 5571, 8723, 8841, 9618], "responses": ["12", "19", "12"], "num2": [5, 4, 5, 7], "num3": [2, 6, 6, 9], "conditions": [12, 800, "a", 12000], "internal_node_id": "0.0-109.0", "key_presses": [97, 98, 13, 97, 105, 13, 97, 98, 13], "trial": 4, "time_elapsed": 682229, "type": "DISTRACTOR", "trial_index": 145, "num1": [5, 9, 1, 2]}, "uniqueid": "MTK1901:3AQF3RZ559PQRJMHE5Y683H0PZQF69", "dateTime": 1516557921519}, {"current_trial": 146, "trialdata": {"rt": -1, "trial_type": "single-stim", "stimulus": "<p id=\"stim\">10</p>", "internal_node_id": "0.0-110.0-0.0", "time_elapsed": 685231, "key_press": -1, "trial_index": 146}, "uniqueid": "MTK1901:3AQF3RZ559PQRJMHE5Y683H0PZQF69", "dateTime": 1516557924522}, {"current_trial": 147, "trialdata": {"rt": -1, "trial_type": "single-stim", "stimulus": "<p id=\"stim\">9</p>", "internal_node_id": "0.0-110.0-1.0", "time_elapsed": 686233, "key_press": -1, "trial_index": 147}, "uniqueid": "MTK1901:3AQF3RZ559PQRJMHE5Y683H0PZQF69", "dateTime": 1516557925523}, {"current_trial": 148, "trialdata": {"rt": -1, "trial_type": "single-stim", "stimulus": "<p id=\"stim\">8</p>", "internal_node_id": "0.0-110.0-2.0", "time_elapsed": 687236, "key_press": -1, "trial_index": 148}, "uniqueid": "MTK1901:3AQF3RZ559PQRJMHE5Y683H0PZQF69", "dateTime": 1516557926527}, {"current_trial": 149, "trialdata": {"rt": -1, "trial_type": "single-stim", "stimulus": "<p id=\"stim\">7</p>", "internal_node_id": "0.0-110.0-3.0", "time_elapsed": 688238, "key_press": -1, "trial_index": 149}, "uniqueid": "MTK1901:3AQF3RZ559PQRJMHE5Y683H0PZQF69", "dateTime": 1516557927528}, {"current_trial": 150, "trialdata": {"rt": -1, "trial_type": "single-stim", "stimulus": "<p id=\"stim\">6</p>", "internal_node_id": "0.0-110.0-4.0", "time_elapsed": 689240, "key_press": -1, "trial_index": 150}, "uniqueid": "MTK1901:3AQF3RZ559PQRJMHE5Y683H0PZQF69", "dateTime": 1516557928531}, {"current_trial": 151, "trialdata": {"rt": -1, "trial_type": "single-stim", "stimulus": "<p id=\"stim\">5</p>", "internal_node_id": "0.0-110.0-5.0", "time_elapsed": 690242, "key_press": -1, "trial_index": 151}, "uniqueid": "MTK1901:3AQF3RZ559PQRJMHE5Y683H0PZQF69", "dateTime": 1516557929532}, {"current_trial": 152, "trialdata": {"rt": -1, "trial_type": "single-stim", "stimulus": "<p id=\"stim\">4</p>", "internal_node_id": "0.0-110.0-6.0", "time_elapsed": 691244, "key_press": -1, "trial_index": 152}, "uniqueid": "MTK1901:3AQF3RZ559PQRJMHE5Y683H0PZQF69", "dateTime": 1516557930534}, {"current_trial": 153, "trialdata": {"rt": -1, "trial_type": "single-stim", "stimulus": "<p id=\"stim\">3</p>", "internal_node_id": "0.0-110.0-7.0", "time_elapsed": 692245, "key_press": -1, "trial_index": 153}, "uniqueid": "MTK1901:3AQF3RZ559PQRJMHE5Y683H0PZQF69", "dateTime": 1516557931535}, {"current_trial": 154, "trialdata": {"rt": -1, "trial_type": "single-stim", "stimulus": "<p id=\"stim\">2</p>", "internal_node_id": "0.0-110.0-8.0", "time_elapsed": 693247, "key_press": -1, "trial_index": 154}, "uniqueid": "MTK1901:3AQF3RZ559PQRJMHE5Y683H0PZQF69", "dateTime": 1516557932537}, {"current_trial": 155, "trialdata": {"rt": -1, "trial_type": "single-stim", "stimulus": "<p id=\"stim\">1</p>", "internal_node_id": "0.0-110.0-9.0", "time_elapsed": 694250, "key_press": -1, "trial_index": 155}, "uniqueid": "MTK1901:3AQF3RZ559PQRJMHE5Y683H0PZQF69", "dateTime": 1516557933540}, {"current_trial": 156, "trialdata": {"rt": -1, "trial_type": "single-stim", "stimulus": "<p id=\"stim\">+</p>", "internal_node_id": "0.0-111.0-0.0", "time_elapsed": 695753, "key_press": -1, "type": "FIXATION", "trial_index": 156}, "uniqueid": "MTK1901:3AQF3RZ559PQRJMHE5Y683H0PZQF69", "dateTime": 1516557935044}, {"current_trial": 157, "trialdata": {"rt": -1000, "trial_type": "single-audio", "word": "salt", "stimulus": "/static/audio/wordpool/SALT.wav", "conditions": [12, 800, "a", 12000], "internal_node_id": "0.0-112.0", "trial": 4, "time_elapsed": 697407, "serialpos": 0, "key_press": -1, "wordID": 1228, "type": "PRES_AUD", "trial_index": 157}, "uniqueid": "MTK1901:3AQF3RZ559PQRJMHE5Y683H0PZQF69", "dateTime": 1516557936697}, {"current_trial": 158, "trialdata": {"rt": -1000, "trial_type": "single-audio", "word": "blender", "stimulus": "/static/audio/wordpool/BLENDER.wav", "conditions": [12, 800, "a", 12000], "internal_node_id": "0.0-113.0", "trial": 4, "time_elapsed": 699345, "serialpos": 1, "key_press": -1, "wordID": 135, "type": "PRES_AUD", "trial_index": 158}, "uniqueid": "MTK1901:3AQF3RZ559PQRJMHE5Y683H0PZQF69", "dateTime": 1516557938635}, {"current_trial": 159, "trialdata": {"rt": -1000, "trial_type": "single-audio", "word": "climber", "stimulus": "/static/audio/wordpool/CLIMBER.wav", "conditions": [12, 800, "a", 12000], "internal_node_id": "0.0-114.0", "trial": 4, "time_elapsed": 701306, "serialpos": 2, "key_press": -1, "wordID": 322, "type": "PRES_AUD", "trial_index": 159}, "uniqueid": "MTK1901:3AQF3RZ559PQRJMHE5Y683H0PZQF69", "dateTime": 1516557940596}, {"current_trial": 160, "trialdata": {"rt": -1000, "trial_type": "single-audio", "word": "tweezers", "stimulus": "/static/audio/wordpool/TWEEZERS.wav", "conditions": [12, 800, "a", 12000], "internal_node_id": "0.0-115.0", "trial": 4, "time_elapsed": 702965, "serialpos": 3, "key_press": -1, "wordID": 1525, "type": "PRES_AUD", "trial_index": 160}, "uniqueid": "MTK1901:3AQF3RZ559PQRJMHE5Y683H0PZQF69", "dateTime": 1516557942256}, {"current_trial": 161, "trialdata": {"rt": -1000, "trial_type": "single-audio", "word": "pliers", "stimulus": "/static/audio/wordpool/PLIERS.wav", "conditions": [12, 800, "a", 12000], "internal_node_id": "0.0-116.0", "trial": 4, "time_elapsed": 704826, "serialpos": 4, "key_press": -1, "wordID": 1088, "type": "PRES_AUD", "trial_index": 161}, "uniqueid": "MTK1901:3AQF3RZ559PQRJMHE5Y683H0PZQF69", "dateTime": 1516557944117}, {"current_trial": 162, "trialdata": {"rt": -1000, "trial_type": "single-audio", "word": "twister", "stimulus": "/static/audio/wordpool/TWISTER.wav", "conditions": [12, 800, "a", 12000], "internal_node_id": "0.0-117.0", "trial": 4, "time_elapsed": 706701, "serialpos": 5, "key_press": -1, "wordID": 1529, "type": "PRES_AUD", "trial_index": 162}, "uniqueid": "MTK1901:3AQF3RZ559PQRJMHE5Y683H0PZQF69", "dateTime": 1516557945992}, {"current_trial": 163, "trialdata": {"rt": -1000, "trial_type": "single-audio", "word": "tutu", "stimulus": "/static/audio/wordpool/TUTU.wav", "conditions": [12, 800, "a", 12000], "internal_node_id": "0.0-118.0", "trial": 4, "time_elapsed": 708571, "serialpos": 6, "key_press": -1, "wordID": 1523, "type": "PRES_AUD", "trial_index": 163}, "uniqueid": "MTK1901:3AQF3RZ559PQRJMHE5Y683H0PZQF69", "dateTime": 1516557947861}, {"current_trial": 164, "trialdata": {"rt": -1000, "trial_type": "single-audio", "word": "icing", "stimulus": "/static/audio/wordpool/ICING.wav", "conditions": [12, 800, "a", 12000], "internal_node_id": "0.0-119.0", "trial": 4, "time_elapsed": 710625, "serialpos": 7, "key_press": -1, "wordID": 731, "type": "PRES_AUD", "trial_index": 164}, "uniqueid": "MTK1901:3AQF3RZ559PQRJMHE5Y683H0PZQF69", "dateTime": 1516557949915}, {"current_trial": 165, "trialdata": {"rt": -1000, "trial_type": "single-audio", "word": "ulcer", "stimulus": "/static/audio/wordpool/ULCER.wav", "conditions": [12, 800, "a", 12000], "internal_node_id": "0.0-120.0", "trial": 4, "time_elapsed": 712287, "serialpos": 8, "key_press": -1, "wordID": 1532, "type": "PRES_AUD", "trial_index": 165}, "uniqueid": "MTK1901:3AQF3RZ559PQRJMHE5Y683H0PZQF69", "dateTime": 1516557951578}, {"current_trial": 166, "trialdata": {"rt": -1000, "trial_type": "single-audio", "word": "kidney", "stimulus": "/static/audio/wordpool/KIDNEY.wav", "conditions": [12, 800, "a", 12000], "internal_node_id": "0.0-121.0", "trial": 4, "time_elapsed": 714900, "serialpos": 9, "key_press": -1, "wordID": 775, "type": "PRES_AUD", "trial_index": 166}, "uniqueid": "MTK1901:3AQF3RZ559PQRJMHE5Y683H0PZQF69", "dateTime": 1516557954190}, {"current_trial": 167, "trialdata": {"rt": -1000, "trial_type": "single-audio", "word": "costume", "stimulus": "/static/audio/wordpool/COSTUME.wav", "conditions": [12, 800, "a", 12000], "internal_node_id": "0.0-122.0", "trial": 4, "time_elapsed": 716665, "serialpos": 10, "key_press": -1, "wordID": 382, "type": "PRES_AUD", "trial_index": 167}, "uniqueid": "MTK1901:3AQF3RZ559PQRJMHE5Y683H0PZQF69", "dateTime": 1516557955955}, {"current_trial": 168, "trialdata": {"rt": -1000, "trial_type": "single-audio", "word": "mildew", "stimulus": "/static/audio/wordpool/MILDEW.wav", "conditions": [12, 800, "a", 12000], "internal_node_id": "0.0-123.0", "trial": 4, "time_elapsed": 718306, "serialpos": 11, "key_press": -1, "wordID": 892, "type": "PRES_AUD", "trial_index": 168}, "uniqueid": "MTK1901:3AQF3RZ559PQRJMHE5Y683H0PZQF69", "dateTime": 1516557957596}, {"current_trial": 169, "trialdata": {"rt": -1, "trial_type": "single-stim", "stimulus": "", "internal_node_id": "0.0-124.0-0.0", "time_elapsed": 719701, "key_press": -1, "type": "PRE_RECALL_DELAY", "trial_index": 169}, "uniqueid": "MTK1901:3AQF3RZ559PQRJMHE5Y683H0PZQF69", "dateTime": 1516557958992}, {"current_trial": 170, "trialdata": {"rt": -1000, "trial_type": "single-audio", "stimulus": "/static/audio/400Hz.wav", "internal_node_id": "0.0-125.0", "time_elapsed": 720205, "key_press": -1, "type": "PRE_RECALL_ALERT", "trial_index": 170}, "uniqueid": "MTK1901:3AQF3RZ559PQRJMHE5Y683H0PZQF69", "dateTime": 1516557959495}, {"current_trial": 171, "trialdata": {"rt": [2683, 5044, 9923, 14735, 19825, 22562, 24635, 28130, 33428, 38826, 45971], "recwords": ["mildew", "costume", "tutu", "kidney", "climber", "pliers", "twister", "mildew", "pork", "twister", "climber"], "key_times": [1342, 1506, 1757, 1906, 2163, 2378, 2683, 4227, 4234, 4243, 4248, 4255, 4260, 4266, 5044, 8058, 8274, 8483, 9394, 9923, 10546, 10723, 10978, 11107, 11235, 11455, 14735, 18954, 18962, 18969, 18977, 18989, 19020, 19190, 19825, 21026, 21170, 21410, 21568, 21746, 22066, 22562, 23322, 23545, 23786, 23914, 24164, 24234, 24443, 24635, 26394, 26546, 26923, 26946, 27517, 27527, 28130, 32237, 32483, 32658, 32786, 33428, 37066, 37621, 37826, 37954, 38187, 38282, 38459, 38826, 44636, 44795, 44995, 45179, 45428, 45587, 45763, 45971], "trial_type": "free-recall", "conditions": [12, 800, "a", 12000], "internal_node_id": "0.0-126.0-0.0", "key_presses": [77, 73, 76, 68, 69, 87, 13, 67, 79, 83, 84, 85, 77, 69, 13, 84, 85, 84, 85, 13, 75, 73, 68, 78, 69, 89, 13, 67, 76, 73, 77, 66, 69, 82, 13, 80, 76, 73, 69, 82, 83, 13, 84, 87, 73, 83, 84, 69, 82, 13, 77, 73, 76, 68, 69, 87, 13, 80, 79, 82, 75, 13, 84, 87, 73, 83, 84, 69, 82, 13, 67, 76, 73, 77, 66, 69, 82, 13], "trial": 4, "time_elapsed": 780211, "type": "FREE_RECALL", "trial_index": 171}, "uniqueid": "MTK1901:3AQF3RZ559PQRJMHE5Y683H0PZQF69", "dateTime": 1516558019519}, {"current_trial": 172, "trialdata": {"rt": 1401, "trial_type": "text", "internal_node_id": "0.0-127.0", "time_elapsed": 783632, "key_press": 74, "type": "INSTRUCTIONS", "trial_index": 172}, "uniqueid": "MTK1901:3AQF3RZ559PQRJMHE5Y683H0PZQF69", "dateTime": 1516558022922}, {"current_trial": 173, "trialdata": {"rt": [5513, 7888, 11304], "trial_type": "math-distractor", "key_times": [4353, 4489, 5513, 7393, 7536, 7888, 10795, 10920, 11304], "responses": ["20", "18", "16"], "num2": [6, 4, 3, 7], "num3": [5, 8, 5, 1], "conditions": [24, 1600, "a", 12000], "internal_node_id": "0.0-128.0", "key_presses": [98, 96, 13, 97, 104, 13, 97, 102, 13], "trial": 5, "time_elapsed": 797645, "type": "DISTRACTOR", "trial_index": 173, "num1": [9, 6, 8, 7]}, "uniqueid": "MTK1901:3AQF3RZ559PQRJMHE5Y683H0PZQF69", "dateTime": 1516558036936}, {"current_trial": 174, "trialdata": {"rt": -1, "trial_type": "single-stim", "stimulus": "<p id=\"stim\">10</p>", "internal_node_id": "0.0-129.0-0.0", "time_elapsed": 800677, "key_press": -1, "trial_index": 174}, "uniqueid": "MTK1901:3AQF3RZ559PQRJMHE5Y683H0PZQF69", "dateTime": 1516558039967}, {"current_trial": 175, "trialdata": {"rt": -1, "trial_type": "single-stim", "stimulus": "<p id=\"stim\">9</p>", "internal_node_id": "0.0-129.0-1.0", "time_elapsed": 801678, "key_press": -1, "trial_index": 175}, "uniqueid": "MTK1901:3AQF3RZ559PQRJMHE5Y683H0PZQF69", "dateTime": 1516558040968}, {"current_trial": 176, "trialdata": {"rt": -1, "trial_type": "single-stim", "stimulus": "<p id=\"stim\">8</p>", "internal_node_id": "0.0-129.0-2.0", "time_elapsed": 802682, "key_press": -1, "trial_index": 176}, "uniqueid": "MTK1901:3AQF3RZ559PQRJMHE5Y683H0PZQF69", "dateTime": 1516558041972}, {"current_trial": 177, "trialdata": {"rt": -1, "trial_type": "single-stim", "stimulus": "<p id=\"stim\">7</p>", "internal_node_id": "0.0-129.0-3.0", "time_elapsed": 803686, "key_press": -1, "trial_index": 177}, "uniqueid": "MTK1901:3AQF3RZ559PQRJMHE5Y683H0PZQF69", "dateTime": 1516558042976}, {"current_trial": 178, "trialdata": {"rt": -1, "trial_type": "single-stim", "stimulus": "<p id=\"stim\">6</p>", "internal_node_id": "0.0-129.0-4.0", "time_elapsed": 804688, "key_press": -1, "trial_index": 178}, "uniqueid": "MTK1901:3AQF3RZ559PQRJMHE5Y683H0PZQF69", "dateTime": 1516558043978}, {"current_trial": 179, "trialdata": {"rt": -1, "trial_type": "single-stim", "stimulus": "<p id=\"stim\">5</p>", "internal_node_id": "0.0-129.0-5.0", "time_elapsed": 805692, "key_press": -1, "trial_index": 179}, "uniqueid": "MTK1901:3AQF3RZ559PQRJMHE5Y683H0PZQF69", "dateTime": 1516558044983}, {"current_trial": 180, "trialdata": {"rt": -1, "trial_type": "single-stim", "stimulus": "<p id=\"stim\">4</p>", "internal_node_id": "0.0-129.0-6.0", "time_elapsed": 806694, "key_press": -1, "trial_index": 180}, "uniqueid": "MTK1901:3AQF3RZ559PQRJMHE5Y683H0PZQF69", "dateTime": 1516558045985}, {"current_trial": 181, "trialdata": {"rt": -1, "trial_type": "single-stim", "stimulus": "<p id=\"stim\">3</p>", "internal_node_id": "0.0-129.0-7.0", "time_elapsed": 807700, "key_press": -1, "trial_index": 181}, "uniqueid": "MTK1901:3AQF3RZ559PQRJMHE5Y683H0PZQF69", "dateTime": 1516558046990}, {"current_trial": 182, "trialdata": {"rt": -1, "trial_type": "single-stim", "stimulus": "<p id=\"stim\">2</p>", "internal_node_id": "0.0-129.0-8.0", "time_elapsed": 808701, "key_press": -1, "trial_index": 182}, "uniqueid": "MTK1901:3AQF3RZ559PQRJMHE5Y683H0PZQF69", "dateTime": 1516558047992}, {"current_trial": 183, "trialdata": {"rt": -1, "trial_type": "single-stim", "stimulus": "<p id=\"stim\">1</p>", "internal_node_id": "0.0-129.0-9.0", "time_elapsed": 809703, "key_press": -1, "trial_index": 183}, "uniqueid": "MTK1901:3AQF3RZ559PQRJMHE5Y683H0PZQF69", "dateTime": 1516558048993}, {"current_trial": 184, "trialdata": {"rt": -1, "trial_type": "single-stim", "stimulus": "<p id=\"stim\">+</p>", "internal_node_id": "0.0-130.0-0.0", "time_elapsed": 811206, "key_press": -1, "type": "FIXATION", "trial_index": 184}, "uniqueid": "MTK1901:3AQF3RZ559PQRJMHE5Y683H0PZQF69", "dateTime": 1516558050497}, {"current_trial": 185, "trialdata": {"rt": -1000, "trial_type": "single-audio", "word": "japan", "stimulus": "/static/audio/wordpool/JAPAN.wav", "conditions": [24, 1600, "a", 12000], "internal_node_id": "0.0-131.0", "trial": 5, "time_elapsed": 813792, "serialpos": 0, "key_press": -1, "wordID": 748, "type": "PRES_AUD", "trial_index": 185}, "uniqueid": "MTK1901:3AQF3RZ559PQRJMHE5Y683H0PZQF69", "dateTime": 1516558053082}, {"current_trial": 186, "trialdata": {"rt": -1000, "trial_type": "single-audio", "word": "cabin", "stimulus": "/static/audio/wordpool/CABIN.wav", "conditions": [24, 1600, "a", 12000], "internal_node_id": "0.0-132.0", "trial": 5, "time_elapsed": 816350, "serialpos": 1, "key_press": -1, "wordID": 210, "type": "PRES_AUD", "trial_index": 186}, "uniqueid": "MTK1901:3AQF3RZ559PQRJMHE5Y683H0PZQF69", "dateTime": 1516558055640}, {"current_trial": 187, "trialdata": {"rt": -1000, "trial_type": "single-audio", "word": "space", "stimulus": "/static/audio/wordpool/SPACE.wav", "conditions": [24, 1600, "a", 12000], "internal_node_id": "0.0-133.0", "trial": 5, "time_elapsed": 819668, "serialpos": 2, "key_press": -1, "wordID": 1344, "type": "PRES_AUD", "trial_index": 187}, "uniqueid": "MTK1901:3AQF3RZ559PQRJMHE5Y683H0PZQF69", "dateTime": 1516558058958}, {"current_trial": 188, "trialdata": {"rt": -1000, "trial_type": "single-audio", "word": "critic", "stimulus": "/static/audio/wordpool/CRITIC.wav", "conditions": [24, 1600, "a", 12000], "internal_node_id": "0.0-134.0", "trial": 5, "time_elapsed": 822084, "serialpos": 3, "key_press": -1, "wordID": 409, "type": "PRES_AUD", "trial_index": 188}, "uniqueid": "MTK1901:3AQF3RZ559PQRJMHE5Y683H0PZQF69", "dateTime": 1516558061374}, {"current_trial": 189, "trialdata": {"rt": -1000, "trial_type": "single-audio", "word": "dancer", "stimulus": "/static/audio/wordpool/DANCER.wav", "conditions": [24, 1600, "a", 12000], "internal_node_id": "0.0-135.0", "trial": 5, "time_elapsed": 824582, "serialpos": 4, "key_press": -1, "wordID": 436, "type": "PRES_AUD", "trial_index": 189}, "uniqueid": "MTK1901:3AQF3RZ559PQRJMHE5Y683H0PZQF69", "dateTime": 1516558063873}, {"current_trial": 190, "trialdata": {"rt": -1000, "trial_type": "single-audio", "word": "europe", "stimulus": "/static/audio/wordpool/EUROPE.wav", "conditions": [24, 1600, "a", 12000], "internal_node_id": "0.0-136.0", "trial": 5, "time_elapsed": 827007, "serialpos": 5, "key_press": -1, "wordID": 540, "type": "PRES_AUD", "trial_index": 190}, "uniqueid": "MTK1901:3AQF3RZ559PQRJMHE5Y683H0PZQF69", "dateTime": 1516558066297}, {"current_trial": 191, "trialdata": {"rt": -1000, "trial_type": "single-audio", "word": "silk", "stimulus": "/static/audio/wordpool/SILK.wav", "conditions": [24, 1600, "a", 12000], "internal_node_id": "0.0-137.0", "trial": 5, "time_elapsed": 829648, "serialpos": 6, "key_press": -1, "wordID": 1306, "type": "PRES_AUD", "trial_index": 191}, "uniqueid": "MTK1901:3AQF3RZ559PQRJMHE5Y683H0PZQF69", "dateTime": 1516558068938}, {"current_trial": 192, "trialdata": {"rt": -1000, "trial_type": "single-audio", "word": "lace", "stimulus": "/static/audio/wordpool/LACE.wav", "conditions": [24, 1600, "a", 12000], "internal_node_id": "0.0-138.0", "trial": 5, "time_elapsed": 832342, "serialpos": 7, "key_press": -1, "wordID": 791, "type": "PRES_AUD", "trial_index": 192}, "uniqueid": "MTK1901:3AQF3RZ559PQRJMHE5Y683H0PZQF69", "dateTime": 1516558071632}, {"current_trial": 193, "trialdata": {"rt": -1000, "trial_type": "single-audio", "word": "statue", "stimulus": "/static/audio/wordpool/STATUE.wav", "conditions": [24, 1600, "a", 12000], "internal_node_id": "0.0-139.0", "trial": 5, "time_elapsed": 834785, "serialpos": 8, "key_press": -1, "wordID": 1373, "type": "PRES_AUD", "trial_index": 193}, "uniqueid": "MTK1901:3AQF3RZ559PQRJMHE5Y683H0PZQF69", "dateTime": 1516558074076}, {"current_trial": 194, "trialdata": {"rt": -1000, "trial_type": "single-audio", "word": "sketch", "stimulus": "/static/audio/wordpool/SKETCH.wav", "conditions": [24, 1600, "a", 12000], "internal_node_id": "0.0-140.0", "trial": 5, "time_elapsed": 837249, "serialpos": 9, "key_press": -1, "wordID": 1314, "type": "PRES_AUD", "trial_index": 194}, "uniqueid": "MTK1901:3AQF3RZ559PQRJMHE5Y683H0PZQF69", "dateTime": 1516558076539}, {"current_trial": 195, "trialdata": {"rt": -1000, "trial_type": "single-audio", "word": "valve", "stimulus": "/static/audio/wordpool/VALVE.wav", "conditions": [24, 1600, "a", 12000], "internal_node_id": "0.0-141.0", "trial": 5, "time_elapsed": 839976, "serialpos": 10, "key_press": -1, "wordID": 1545, "type": "PRES_AUD", "trial_index": 195}, "uniqueid": "MTK1901:3AQF3RZ559PQRJMHE5Y683H0PZQF69", "dateTime": 1516558079266}, {"current_trial": 196, "trialdata": {"rt": -1000, "trial_type": "single-audio", "word": "dresser", "stimulus": "/static/audio/wordpool/DRESSER.wav", "conditions": [24, 1600, "a", 12000], "internal_node_id": "0.0-142.0", "trial": 5, "time_elapsed": 842550, "serialpos": 11, "key_press": -1, "wordID": 495, "type": "PRES_AUD", "trial_index": 196}, "uniqueid": "MTK1901:3AQF3RZ559PQRJMHE5Y683H0PZQF69", "dateTime": 1516558081841}, {"current_trial": 197, "trialdata": {"rt": -1000, "trial_type": "single-audio", "word": "treat", "stimulus": "/static/audio/wordpool/TREAT.wav", "conditions": [24, 1600, "a", 12000], "internal_node_id": "0.0-143.0", "trial": 5, "time_elapsed": 845270, "serialpos": 12, "key_press": -1, "wordID": 1500, "type": "PRES_AUD", "trial_index": 197}, "uniqueid": "MTK1901:3AQF3RZ559PQRJMHE5Y683H0PZQF69", "dateTime": 1516558084561}, {"current_trial": 198, "trialdata": {"rt": -1000, "trial_type": "single-audio", "word": "wrench", "stimulus": "/static/audio/wordpool/WRENCH.wav", "conditions": [24, 1600, "a", 12000], "internal_node_id": "0.0-144.0", "trial": 5, "time_elapsed": 848039, "serialpos": 13, "key_press": -1, "wordID": 1624, "type": "PRES_AUD", "trial_index": 198}, "uniqueid": "MTK1901:3AQF3RZ559PQRJMHE5Y683H0PZQF69", "dateTime": 1516558087329}, {"current_trial": 199, "trialdata": {"rt": -1000, "trial_type": "single-audio", "word": "poet", "stimulus": "/static/audio/wordpool/POET.wav", "conditions": [24, 1600, "a", 12000], "internal_node_id": "0.0-145.0", "trial": 5, "time_elapsed": 850722, "serialpos": 14, "key_press": -1, "wordID": 1094, "type": "PRES_AUD", "trial_index": 199}, "uniqueid": "MTK1901:3AQF3RZ559PQRJMHE5Y683H0PZQF69", "dateTime": 1516558090012}, {"current_trial": 200, "trialdata": {"rt": -1000, "trial_type": "single-audio", "word": "diver", "stimulus": "/static/audio/wordpool/DIVER.wav", "conditions": [24, 1600, "a", 12000], "internal_node_id": "0.0-146.0", "trial": 5, "time_elapsed": 853211, "serialpos": 15, "key_press": -1, "wordID": 475, "type": "PRES_AUD", "trial_index": 200}, "uniqueid": "MTK1901:3AQF3RZ559PQRJMHE5Y683H0PZQF69", "dateTime": 1516558092501}, {"current_trial": 201, "trialdata": {"rt": -1000, "trial_type": "single-audio", "word": "swimmer", "stimulus": "/static/audio/wordpool/SWIMMER.wav", "conditions": [24, 1600, "a", 12000], "internal_node_id": "0.0-147.0", "trial": 5, "time_elapsed": 855797, "serialpos": 16, "key_press": -1, "wordID": 1419, "type": "PRES_AUD", "trial_index": 201}, "uniqueid": "MTK1901:3AQF3RZ559PQRJMHE5Y683H0PZQF69", "dateTime": 1516558095087}, {"current_trial": 202, "trialdata": {"rt": -1000, "trial_type": "single-audio", "word": "blackboard", "stimulus": "/static/audio/wordpool/BLACKBOARD.wav", "conditions": [24, 1600, "a", 12000], "internal_node_id": "0.0-148.0", "trial": 5, "time_elapsed": 858550, "serialpos": 17, "key_press": -1, "wordID": 132, "type": "PRES_AUD", "trial_index": 202}, "uniqueid": "MTK1901:3AQF3RZ559PQRJMHE5Y683H0PZQF69", "dateTime": 1516558097840}, {"current_trial": 203, "trialdata": {"rt": -1000, "trial_type": "single-audio", "word": "robber", "stimulus": "/static/audio/wordpool/ROBBER.wav", "conditions": [24, 1600, "a", 12000], "internal_node_id": "0.0-149.0", "trial": 5, "time_elapsed": 861317, "serialpos": 18, "key_press": -1, "wordID": 1196, "type": "PRES_AUD", "trial_index": 203}, "uniqueid": "MTK1901:3AQF3RZ559PQRJMHE5Y683H0PZQF69", "dateTime": 1516558100608}, {"current_trial": 204, "trialdata": {"rt": -1000, "trial_type": "single-audio", "word": "pigeon", "stimulus": "/static/audio/wordpool/PIGEON.wav", "conditions": [24, 1600, "a", 12000], "internal_node_id": "0.0-150.0", "trial": 5, "time_elapsed": 864123, "serialpos": 19, "key_press": -1, "wordID": 1064, "type": "PRES_AUD", "trial_index": 204}, "uniqueid": "MTK1901:3AQF3RZ559PQRJMHE5Y683H0PZQF69", "dateTime": 1516558103415}, {"current_trial": 205, "trialdata": {"rt": -1000, "trial_type": "single-audio", "word": "antler", "stimulus": "/static/audio/wordpool/ANTLER.wav", "conditions": [24, 1600, "a", 12000], "internal_node_id": "0.0-151.0", "trial": 5, "time_elapsed": 866757, "serialpos": 20, "key_press": -1, "wordID": 28, "type": "PRES_AUD", "trial_index": 205}, "uniqueid": "MTK1901:3AQF3RZ559PQRJMHE5Y683H0PZQF69", "dateTime": 1516558106047}, {"current_trial": 206, "trialdata": {"rt": -1000, "trial_type": "single-audio", "word": "guitar", "stimulus": "/static/audio/wordpool/GUITAR.wav", "conditions": [24, 1600, "a", 12000], "internal_node_id": "0.0-152.0", "trial": 5, "time_elapsed": 869557, "serialpos": 21, "key_press": -1, "wordID": 669, "type": "PRES_AUD", "trial_index": 206}, "uniqueid": "MTK1901:3AQF3RZ559PQRJMHE5Y683H0PZQF69", "dateTime": 1516558108848}, {"current_trial": 207, "trialdata": {"rt": -1000, "trial_type": "single-audio", "word": "cashier", "stimulus": "/static/audio/wordpool/CASHIER.wav", "conditions": [24, 1600, "a", 12000], "internal_node_id": "0.0-153.0", "trial": 5, "time_elapsed": 872106, "serialpos": 22, "key_press": -1, "wordID": 253, "type": "PRES_AUD", "trial_index": 207}, "uniqueid": "MTK1901:3AQF3RZ559PQRJMHE5Y683H0PZQF69", "dateTime": 1516558111397}, {"current_trial": 208, "trialdata": {"rt": -1000, "trial_type": "single-audio", "word": "office", "stimulus": "/static/audio/wordpool/OFFICE.wav", "conditions": [24, 1600, "a", 12000], "internal_node_id": "0.0-154.0", "trial": 5, "time_elapsed": 876481, "serialpos": 23, "key_press": -1, "wordID": 971, "type": "PRES_AUD", "trial_index": 208}, "uniqueid": "MTK1901:3AQF3RZ559PQRJMHE5Y683H0PZQF69", "dateTime": 1516558115771}, {"current_trial": 209, "trialdata": {"rt": -1, "trial_type": "single-stim", "stimulus": "", "internal_node_id": "0.0-155.0-0.0", "time_elapsed": 877808, "key_press": -1, "type": "PRE_RECALL_DELAY", "trial_index": 209}, "uniqueid": "MTK1901:3AQF3RZ559PQRJMHE5Y683H0PZQF69", "dateTime": 1516558117098}, {"current_trial": 210, "trialdata": {"rt": -1000, "trial_type": "single-audio", "stimulus": "/static/audio/400Hz.wav", "internal_node_id": "0.0-156.0", "time_elapsed": 878320, "key_press": -1, "type": "PRE_RECALL_ALERT", "trial_index": 210}, "uniqueid": "MTK1901:3AQF3RZ559PQRJMHE5Y683H0PZQF69", "dateTime": 1516558117611}, {"current_trial": 211, "trialdata": {"rt": [1950, 3182, 9602, 10861, 12350, 14125, 15821, 17221, 20589, 23981, 34997, 39253, 49837, 53196], "recwords": ["office", "diver", "diver", "swimmer", "cabin", "japan", "lace", "silk", "europe", "blackboard", "statue", "poet", "pliers", "teacher"], "key_times": [987, 1232, 1405, 1486, 1606, 1750, 1950, 2391, 2582, 2741, 2893, 3077, 3182, 9569, 9576, 9583, 9586, 9593, 9602, 9605, 9666, 9757, 10005, 10199, 10351, 10543, 10861, 11392, 11520, 11765, 11902, 12022, 12350, 12805, 12942, 13157, 13359, 13773, 14125, 14973, 15133, 15432, 15557, 15821, 16312, 16461, 16693, 16901, 17221, 17719, 17933, 18432, 18661, 18774, 18933, 20589, 20592, 20595, 20693, 20846, 21021, 21753, 22278, 22510, 22670, 22861, 23085, 23310, 23981, 32020, 32277, 32487, 32693, 32869, 33030, 33157, 33622, 33837, 34341, 34997, 38045, 38312, 38525, 38692, 39253, 47926, 48077, 48429, 48853, 49069, 49341, 49837, 51861, 51989, 52237, 52309, 52469, 52581, 52748, 53196], "trial_type": "free-recall", "conditions": [24, 1600, "a", 12000], "internal_node_id": "0.0-157.0-0.0", "key_presses": [79, 70, 70, 73, 67, 69, 13, 68, 73, 86, 69, 82, 32, 68, 73, 86, 69, 82, 13, 83, 87, 73, 77, 77, 69, 82, 13, 67, 65, 66, 73, 78, 13, 74, 65, 80, 65, 78, 13, 76, 65, 67, 69, 13, 83, 73, 76, 75, 13, 69, 85, 82, 79, 80, 69, 13, 66, 76, 65, 67, 75, 79, 8, 66, 79, 65, 82, 68, 13, 83, 84, 65, 84, 85, 82, 69, 8, 8, 69, 13, 80, 79, 69, 84, 13, 80, 76, 73, 69, 82, 83, 13, 84, 69, 65, 67, 72, 69, 82, 13], "trial": 5, "time_elapsed": 938329, "type": "FREE_RECALL", "trial_index": 211}, "uniqueid": "MTK1901:3AQF3RZ559PQRJMHE5Y683H0PZQF69", "dateTime": 1516558177637}, {"current_trial": 212, "trialdata": {"rt": 1752, "trial_type": "text", "internal_node_id": "0.0-158.0", "time_elapsed": 942102, "key_press": 74, "type": "INSTRUCTIONS", "trial_index": 212}, "uniqueid": "MTK1901:3AQF3RZ559PQRJMHE5Y683H0PZQF69", "dateTime": 1516558181392}, {"current_trial": 213, "trialdata": {"rt": [4179, 6356, 8341, 11644], "trial_type": "math-distractor", "key_times": [3212, 3419, 4179, 5835, 5972, 6356, 7868, 8003, 8341, 11100, 11189, 11644], "responses": ["21", "17", "18", "23"], "num2": [5, 5, 8, 5, 6], "num3": [8, 8, 2, 9, 7], "conditions": [12, 800, "a", 12000], "internal_node_id": "0.0-159.0", "key_presses": [98, 97, 13, 97, 103, 13, 97, 104, 13, 98, 99, 13], "trial": 6, "time_elapsed": 956114, "type": "DISTRACTOR", "trial_index": 213, "num1": [8, 4, 8, 9, 7]}, "uniqueid": "MTK1901:3AQF3RZ559PQRJMHE5Y683H0PZQF69", "dateTime": 1516558195404}, {"current_trial": 214, "trialdata": {"rt": -1, "trial_type": "single-stim", "stimulus": "<p id=\"stim\">10</p>", "internal_node_id": "0.0-160.0-0.0", "time_elapsed": 959117, "key_press": -1, "trial_index": 214}, "uniqueid": "MTK1901:3AQF3RZ559PQRJMHE5Y683H0PZQF69", "dateTime": 1516558198407}, {"current_trial": 215, "trialdata": {"rt": -1, "trial_type": "single-stim", "stimulus": "<p id=\"stim\">9</p>", "internal_node_id": "0.0-160.0-1.0", "time_elapsed": 960120, "key_press": -1, "trial_index": 215}, "uniqueid": "MTK1901:3AQF3RZ559PQRJMHE5Y683H0PZQF69", "dateTime": 1516558199411}, {"current_trial": 216, "trialdata": {"rt": -1, "trial_type": "single-stim", "stimulus": "<p id=\"stim\">8</p>", "internal_node_id": "0.0-160.0-2.0", "time_elapsed": 961123, "key_press": -1, "trial_index": 216}, "uniqueid": "MTK1901:3AQF3RZ559PQRJMHE5Y683H0PZQF69", "dateTime": 1516558200413}, {"current_trial": 217, "trialdata": {"rt": -1, "trial_type": "single-stim", "stimulus": "<p id=\"stim\">7</p>", "internal_node_id": "0.0-160.0-3.0", "time_elapsed": 962124, "key_press": -1, "trial_index": 217}, "uniqueid": "MTK1901:3AQF3RZ559PQRJMHE5Y683H0PZQF69", "dateTime": 1516558201415}, {"current_trial": 218, "trialdata": {"rt": -1, "trial_type": "single-stim", "stimulus": "<p id=\"stim\">6</p>", "internal_node_id": "0.0-160.0-4.0", "time_elapsed": 963127, "key_press": -1, "trial_index": 218}, "uniqueid": "MTK1901:3AQF3RZ559PQRJMHE5Y683H0PZQF69", "dateTime": 1516558202417}, {"current_trial": 219, "trialdata": {"rt": -1, "trial_type": "single-stim", "stimulus": "<p id=\"stim\">5</p>", "internal_node_id": "0.0-160.0-5.0", "time_elapsed": 964130, "key_press": -1, "trial_index": 219}, "uniqueid": "MTK1901:3AQF3RZ559PQRJMHE5Y683H0PZQF69", "dateTime": 1516558203420}, {"current_trial": 220, "trialdata": {"rt": -1, "trial_type": "single-stim", "stimulus": "<p id=\"stim\">4</p>", "internal_node_id": "0.0-160.0-6.0", "time_elapsed": 965132, "key_press": -1, "trial_index": 220}, "uniqueid": "MTK1901:3AQF3RZ559PQRJMHE5Y683H0PZQF69", "dateTime": 1516558204422}, {"current_trial": 221, "trialdata": {"rt": -1, "trial_type": "single-stim", "stimulus": "<p id=\"stim\">3</p>", "internal_node_id": "0.0-160.0-7.0", "time_elapsed": 966137, "key_press": -1, "trial_index": 221}, "uniqueid": "MTK1901:3AQF3RZ559PQRJMHE5Y683H0PZQF69", "dateTime": 1516558205427}, {"current_trial": 222, "trialdata": {"rt": -1, "trial_type": "single-stim", "stimulus": "<p id=\"stim\">2</p>", "internal_node_id": "0.0-160.0-8.0", "time_elapsed": 967138, "key_press": -1, "trial_index": 222}, "uniqueid": "MTK1901:3AQF3RZ559PQRJMHE5Y683H0PZQF69", "dateTime": 1516558206428}, {"current_trial": 223, "trialdata": {"rt": -1, "trial_type": "single-stim", "stimulus": "<p id=\"stim\">1</p>", "internal_node_id": "0.0-160.0-9.0", "time_elapsed": 968140, "key_press": -1, "trial_index": 223}, "uniqueid": "MTK1901:3AQF3RZ559PQRJMHE5Y683H0PZQF69", "dateTime": 1516558207430}, {"current_trial": 224, "trialdata": {"rt": -1, "trial_type": "single-stim", "stimulus": "<p id=\"stim\">+</p>", "internal_node_id": "0.0-161.0-0.0", "time_elapsed": 969641, "key_press": -1, "type": "FIXATION", "trial_index": 224}, "uniqueid": "MTK1901:3AQF3RZ559PQRJMHE5Y683H0PZQF69", "dateTime": 1516558208932}, {"current_trial": 225, "trialdata": {"rt": -1000, "trial_type": "single-audio", "word": "lady", "stimulus": "/static/audio/wordpool/LADY.wav", "conditions": [12, 800, "a", 12000], "internal_node_id": "0.0-162.0", "trial": 6, "time_elapsed": 972746, "serialpos": 0, "key_press": -1, "wordID": 793, "type": "PRES_AUD", "trial_index": 225}, "uniqueid": "MTK1901:3AQF3RZ559PQRJMHE5Y683H0PZQF69", "dateTime": 1516558212037}, {"current_trial": 226, "trialdata": {"rt": -1000, "trial_type": "single-audio", "word": "pigment", "stimulus": "/static/audio/wordpool/PIGMENT.wav", "conditions": [12, 800, "a", 12000], "internal_node_id": "0.0-163.0", "trial": 6, "time_elapsed": 974590, "serialpos": 1, "key_press": -1, "wordID": 1065, "type": "PRES_AUD", "trial_index": 226}, "uniqueid": "MTK1901:3AQF3RZ559PQRJMHE5Y683H0PZQF69", "dateTime": 1516558213881}, {"current_trial": 227, "trialdata": {"rt": -1000, "trial_type": "single-audio", "word": "pilot", "stimulus": "/static/audio/wordpool/PILOT.wav", "conditions": [12, 800, "a", 12000], "internal_node_id": "0.0-164.0", "trial": 6, "time_elapsed": 976577, "serialpos": 2, "key_press": -1, "wordID": 1069, "type": "PRES_AUD", "trial_index": 227}, "uniqueid": "MTK1901:3AQF3RZ559PQRJMHE5Y683H0PZQF69", "dateTime": 1516558215867}, {"current_trial": 228, "trialdata": {"rt": -1000, "trial_type": "single-audio", "word": "robin", "stimulus": "/static/audio/wordpool/ROBIN.wav", "conditions": [12, 800, "a", 12000], "internal_node_id": "0.0-165.0", "trial": 6, "time_elapsed": 978184, "serialpos": 3, "key_press": -1, "wordID": 1198, "type": "PRES_AUD", "trial_index": 228}, "uniqueid": "MTK1901:3AQF3RZ559PQRJMHE5Y683H0PZQF69", "dateTime": 1516558217475}, {"current_trial": 229, "trialdata": {"rt": -1000, "trial_type": "single-audio", "word": "lettuce", "stimulus": "/static/audio/wordpool/LETTUCE.wav", "conditions": [12, 800, "a", 12000], "internal_node_id": "0.0-166.0", "trial": 6, "time_elapsed": 980071, "serialpos": 4, "key_press": -1, "wordID": 813, "type": "PRES_AUD", "trial_index": 229}, "uniqueid": "MTK1901:3AQF3RZ559PQRJMHE5Y683H0PZQF69", "dateTime": 1516558219361}, {"current_trial": 230, "trialdata": {"rt": -1000, "trial_type": "single-audio", "word": "carrot", "stimulus": "/static/audio/wordpool/CARROT.wav", "conditions": [12, 800, "a", 12000], "internal_node_id": "0.0-167.0", "trial": 6, "time_elapsed": 981741, "serialpos": 5, "key_press": -1, "wordID": 248, "type": "PRES_AUD", "trial_index": 230}, "uniqueid": "MTK1901:3AQF3RZ559PQRJMHE5Y683H0PZQF69", "dateTime": 1516558221031}, {"current_trial": 231, "trialdata": {"rt": -1000, "trial_type": "single-audio", "word": "bug", "stimulus": "/static/audio/wordpool/BUG.wav", "conditions": [12, 800, "a", 12000], "internal_node_id": "0.0-168.0", "trial": 6, "time_elapsed": 983415, "serialpos": 6, "key_press": -1, "wordID": 186, "type": "PRES_AUD", "trial_index": 231}, "uniqueid": "MTK1901:3AQF3RZ559PQRJMHE5Y683H0PZQF69", "dateTime": 1516558222705}, {"current_trial": 232, "trialdata": {"rt": -1000, "trial_type": "single-audio", "word": "female", "stimulus": "/static/audio/wordpool/FEMALE.wav", "conditions": [12, 800, "a", 12000], "internal_node_id": "0.0-169.0", "trial": 6, "time_elapsed": 985085, "serialpos": 7, "key_press": -1, "wordID": 558, "type": "PRES_AUD", "trial_index": 232}, "uniqueid": "MTK1901:3AQF3RZ559PQRJMHE5Y683H0PZQF69", "dateTime": 1516558224381}, {"current_trial": 233, "trialdata": {"rt": -1000, "trial_type": "single-audio", "word": "fox", "stimulus": "/static/audio/wordpool/FOX.wav", "conditions": [12, 800, "a", 12000], "internal_node_id": "0.0-170.0", "trial": 6, "time_elapsed": 987016, "serialpos": 8, "key_press": -1, "wordID": 597, "type": "PRES_AUD", "trial_index": 233}, "uniqueid": "MTK1901:3AQF3RZ559PQRJMHE5Y683H0PZQF69", "dateTime": 1516558226307}, {"current_trial": 234, "trialdata": {"rt": -1000, "trial_type": "single-audio", "word": "plaza", "stimulus": "/static/audio/wordpool/PLAZA.wav", "conditions": [12, 800, "a", 12000], "internal_node_id": "0.0-171.0", "trial": 6, "time_elapsed": 988709, "serialpos": 9, "key_press": -1, "wordID": 1087, "type": "PRES_AUD", "trial_index": 234}, "uniqueid": "MTK1901:3AQF3RZ559PQRJMHE5Y683H0PZQF69", "dateTime": 1516558228000}, {"current_trial": 235, "trialdata": {"rt": -1000, "trial_type": "single-audio", "word": "sidewalk", "stimulus": "/static/audio/wordpool/SIDEWALK.wav", "conditions": [12, 800, "a", 12000], "internal_node_id": "0.0-172.0", "trial": 6, "time_elapsed": 990390, "serialpos": 10, "key_press": -1, "wordID": 1302, "type": "PRES_AUD", "trial_index": 235}, "uniqueid": "MTK1901:3AQF3RZ559PQRJMHE5Y683H0PZQF69", "dateTime": 1516558229680}, {"current_trial": 236, "trialdata": {"rt": -1000, "trial_type": "single-audio", "word": "island", "stimulus": "/static/audio/wordpool/ISLAND.wav", "conditions": [12, 800, "a", 12000], "internal_node_id": "0.0-173.0", "trial": 6, "time_elapsed": 992001, "serialpos": 11, "key_press": -1, "wordID": 744, "type": "PRES_AUD", "trial_index": 236}, "uniqueid": "MTK1901:3AQF3RZ559PQRJMHE5Y683H0PZQF69", "dateTime": 1516558231291}, {"current_trial": 237, "trialdata": {"rt": -1, "trial_type": "single-stim", "stimulus": "", "internal_node_id": "0.0-174.0-0.0", "time_elapsed": 993255, "key_press": -1, "type": "PRE_RECALL_DELAY", "trial_index": 237}, "uniqueid": "MTK1901:3AQF3RZ559PQRJMHE5Y683H0PZQF69", "dateTime": 1516558232545}, {"current_trial": 238, "trialdata": {"rt": -1000, "trial_type": "single-audio", "stimulus": "/static/audio/400Hz.wav", "internal_node_id": "0.0-175.0", "time_elapsed": 993759, "key_press": -1, "type": "PRE_RECALL_ALERT", "trial_index": 238}, "uniqueid": "MTK1901:3AQF3RZ559PQRJMHE5Y683H0PZQF69", "dateTime": 1516558233049}, {"current_trial": 239, "trialdata": {"rt": [2424, 5273, 7928, 10692, 12584, 24167, 26400, 52224], "recwords": ["island", "sidewalk", "lettuce", "female", "woman", "carrot", "female", "lady"], "key_times": [1130, 1410, 1625, 1760, 1992, 2250, 2424, 2890, 3093, 3272, 3400, 3618, 3927, 3978, 4232, 5273, 5977, 6200, 6472, 6632, 6800, 6952, 7098, 7928, 8560, 8674, 8809, 9009, 9321, 9720, 9952, 10120, 10692, 11449, 11609, 11927, 11930, 12080, 12584, 22787, 22938, 23177, 23344, 23504, 23625, 24167, 25424, 25552, 25690, 25860, 26009, 26121, 26400, 51162, 51352, 51536, 51760, 52224], "trial_type": "free-recall", "conditions": [12, 800, "a", 12000], "internal_node_id": "0.0-176.0-0.0", "key_presses": [73, 83, 76, 65, 78, 68, 13, 83, 73, 68, 69, 87, 65, 76, 75, 13, 76, 69, 84, 84, 85, 67, 69, 13, 70, 69, 77, 65, 69, 8, 76, 69, 13, 87, 79, 77, 65, 78, 13, 67, 65, 82, 82, 79, 84, 13, 70, 69, 77, 65, 76, 69, 13, 76, 65, 68, 89, 13], "trial": 6, "time_elapsed": 1053769, "type": "FREE_RECALL", "trial_index": 239}, "uniqueid": "MTK1901:3AQF3RZ559PQRJMHE5Y683H0PZQF69", "dateTime": 1516558293077}, {"current_trial": 240, "trialdata": {"rt": 1703, "trial_type": "text", "internal_node_id": "0.0-177.0", "time_elapsed": 1057492, "key_press": 74, "type": "INSTRUCTIONS", "trial_index": 240}, "uniqueid": "MTK1901:3AQF3RZ559PQRJMHE5Y683H0PZQF69", "dateTime": 1516558296782}, {"current_trial": 241, "trialdata": {"rt": [2073, 5064, 7969, 10016, 12736, 15296, 17264, 19240, 21521], "trial_type": "math-distractor", "key_times": [1528, 2073, 4377, 4496, 5064, 7465, 7609, 7969, 9592, 10016, 12224, 12377, 12736, 14520, 14632, 15296, 16761, 17264, 18656, 18841, 19240, 20689, 20904, 21521, 23585, 23745], "responses": ["9", "15", "18", "5", "17", "13", "7", "17", "11"], "num2": [3, 4, 3, 2, 3, 1, 2, 9, 1, 6], "num3": [3, 4, 9, 2, 7, 9, 1, 1, 6, 7], "conditions": [12, 800, "a", 24000], "internal_node_id": "0.0-178.0", "key_presses": [105, 13, 97, 101, 13, 97, 104, 13, 101, 13, 97, 103, 13, 97, 99, 13, 103, 13, 97, 103, 13, 97, 97, 13, 97, 100], "trial": 7, "time_elapsed": 1083509, "type": "DISTRACTOR", "trial_index": 241, "num1": [3, 7, 6, 1, 7, 3, 4, 7, 4, 1]}, "uniqueid": "MTK1901:3AQF3RZ559PQRJMHE5Y683H0PZQF69", "dateTime": 1516558322799}, {"current_trial": 242, "trialdata": {"rt": -1, "trial_type": "single-stim", "stimulus": "<p id=\"stim\">10</p>", "internal_node_id": "0.0-179.0-0.0", "time_elapsed": 1086511, "key_press": -1, "trial_index": 242}, "uniqueid": "MTK1901:3AQF3RZ559PQRJMHE5Y683H0PZQF69", "dateTime": 1516558325801}, {"current_trial": 243, "trialdata": {"rt": -1, "trial_type": "single-stim", "stimulus": "<p id=\"stim\">9</p>", "internal_node_id": "0.0-179.0-1.0", "time_elapsed": 1087512, "key_press": -1, "trial_index": 243}, "uniqueid": "MTK1901:3AQF3RZ559PQRJMHE5Y683H0PZQF69", "dateTime": 1516558326802}, {"current_trial": 244, "trialdata": {"rt": -1, "trial_type": "single-stim", "stimulus": "<p id=\"stim\">8</p>", "internal_node_id": "0.0-179.0-2.0", "time_elapsed": 1088521, "key_press": -1, "trial_index": 244}, "uniqueid": "MTK1901:3AQF3RZ559PQRJMHE5Y683H0PZQF69", "dateTime": 1516558327812}, {"current_trial": 245, "trialdata": {"rt": -1, "trial_type": "single-stim", "stimulus": "<p id=\"stim\">7</p>", "internal_node_id": "0.0-179.0-3.0", "time_elapsed": 1089523, "key_press": -1, "trial_index": 245}, "uniqueid": "MTK1901:3AQF3RZ559PQRJMHE5Y683H0PZQF69", "dateTime": 1516558328813}, {"current_trial": 246, "trialdata": {"rt": -1, "trial_type": "single-stim", "stimulus": "<p id=\"stim\">6</p>", "internal_node_id": "0.0-179.0-4.0", "time_elapsed": 1090525, "key_press": -1, "trial_index": 246}, "uniqueid": "MTK1901:3AQF3RZ559PQRJMHE5Y683H0PZQF69", "dateTime": 1516558329815}, {"current_trial": 247, "trialdata": {"rt": -1, "trial_type": "single-stim", "stimulus": "<p id=\"stim\">5</p>", "internal_node_id": "0.0-179.0-5.0", "time_elapsed": 1091527, "key_press": -1, "trial_index": 247}, "uniqueid": "MTK1901:3AQF3RZ559PQRJMHE5Y683H0PZQF69", "dateTime": 1516558330817}, {"current_trial": 248, "trialdata": {"rt": -1, "trial_type": "single-stim", "stimulus": "<p id=\"stim\">4</p>",