{"assignmentId": "3IFS6Q0HJJQFO8M4MQ7UC5QKL3YSIQ", "workerId": "MTK1554", "questiondata": {"avail_screen_height": 1520, "color_depth": 24, "screen_width": 2560, "pixel_depth": 24, "avail_screen_width": 2560, "screen_height": 1600}, "bonus": 0, "hitId": "39HYCOOPKOSTVIVJKD5VKFFHK4XMDT", "counterbalance": 1855, "useragent": "Mozilla/5.0 (Windows NT 6.1; Win64; x64; rv:57.0) Gecko/20100101 Firefox/57.0", "eventdata": [{"eventtype": "initialized", "interval": 0, "value": null, "timestamp": 1515964342417}, {"eventtype": "window_resize", "interval": 0, "value": [2524, 1366], "timestamp": 1515964342417}, {"eventtype": "focus", "interval": 800996, "value": "off", "timestamp": 1515965143413}, {"eventtype": "focus", "interval": 682708, "value": "on", "timestamp": 1515965826121}, {"eventtype": "window_resize", "interval": 61482, "value": [1893, 1025], "timestamp": 1515965887603}, {"eventtype": "window_resize", "interval": 554, "value": [1578, 854], "timestamp": 1515965888157}, {"eventtype": "window_resize", "interval": 407, "value": [1409, 763], "timestamp": 1515965888564}, {"eventtype": "focus", "interval": 2088462, "value": "off", "timestamp": 1515967977026}, {"eventtype": "focus", "interval": 6141, "value": "on", "timestamp": 1515967983167}, {"eventtype": "focus", "interval": 615461, "value": "off", "timestamp": 1515968598628}, {"eventtype": "focus", "interval": 8212, "value": "on", "timestamp": 1515968606840}], "data": [{"current_trial": 0, "trialdata": {"rt": 4686, "trial_type": "text", "internal_node_id": "0.0-0.0", "time_elapsed": 4695, "key_press": 17, "type": "INSTRUCTIONS", "trial_index": 0}, "uniqueid": "MTK1554:3IFS6Q0HJJQFO8M4MQ7UC5QKL3YSIQ", "dateTime": 1515964347938}, {"current_trial": 1, "trialdata": {"rt": 1487071, "trial_type": "text", "internal_node_id": "0.0-1.0", "time_elapsed": 1491773, "key_press": 32, "type": "INSTRUCTIONS", "trial_index": 1}, "uniqueid": "MTK1554:3IFS6Q0HJJQFO8M4MQ7UC5QKL3YSIQ", "dateTime": 1515965835016}, {"current_trial": 2, "trialdata": {"rt": [9758], "trial_type": "audio-test", "responses": ["ocean"], "internal_node_id": "0.0-2.0", "time_elapsed": 1501702, "type": "AUDIO_TEST", "trial_index": 2}, "uniqueid": "MTK1554:3IFS6Q0HJJQFO8M4MQ7UC5QKL3YSIQ", "dateTime": 1515965844945}, {"current_trial": 3, "trialdata": {"rt": [15381], "trial_type": "audio-test", "responses": ["crystal"], "internal_node_id": "0.0-3.0", "time_elapsed": 1517124, "type": "AUDIO_TEST", "trial_index": 3}, "uniqueid": "MTK1554:3IFS6Q0HJJQFO8M4MQ7UC5QKL3YSIQ", "dateTime": 1515965860365}, {"current_trial": 4, "trialdata": {"rt": [11127], "trial_type": "audio-test", "responses": ["spice"], "internal_node_id": "0.0-4.0", "time_elapsed": 1528291, "type": "AUDIO_TEST", "trial_index": 4}, "uniqueid": "MTK1554:3IFS6Q0HJJQFO8M4MQ7UC5QKL3YSIQ", "dateTime": 1515965871533}, {"current_trial": 5, "trialdata": {"rt": 60973, "trial_type": "survey-text", "responses": "{\"Q0\":\"11:30\",\"Q1\":\"7:30\",\"Q2\":\"5\"}", "internal_node_id": "0.0-5.0", "time_elapsed": 1590022, "type": "SLEEP_SURVEY", "trial_index": 5}, "uniqueid": "MTK1554:3IFS6Q0HJJQFO8M4MQ7UC5QKL3YSIQ", "dateTime": 1515965933263}, {"current_trial": 6, "trialdata": {"rt": 69161, "trial_type": "text", "internal_node_id": "0.0-6.0", "time_elapsed": 1660185, "key_press": 37, "type": "INSTRUCTIONS", "trial_index": 6}, "uniqueid": "MTK1554:3IFS6Q0HJJQFO8M4MQ7UC5QKL3YSIQ", "dateTime": 1515966003427}, {"current_trial": 7, "trialdata": {"rt": 15984, "trial_type": "text", "internal_node_id": "0.0-7.0", "time_elapsed": 1676673, "key_press": 32, "type": "INSTRUCTIONS", "trial_index": 7}, "uniqueid": "MTK1554:3IFS6Q0HJJQFO8M4MQ7UC5QKL3YSIQ", "dateTime": 1515966019914}, {"current_trial": 8, "trialdata": {"rt": 13693, "trial_type": "text", "internal_node_id": "0.0-8.0", "time_elapsed": 1690868, "key_press": 32, "type": "INSTRUCTIONS", "trial_index": 8}, "uniqueid": "MTK1554:3IFS6Q0HJJQFO8M4MQ7UC5QKL3YSIQ", "dateTime": 1515966034109}, {"current_trial": 9, "trialdata": {"rt": [6086, 9094, 12381, 16943], "trial_type": "math-distractor", "key_times": [4282, 4793, 6086, 7871, 9094, 11028, 11639, 12381, 14357, 14527, 16943], "responses": ["17", "9", "16", "12"], "num2": [9, 1, 9, 1, 7], "num3": [3, 4, 6, 8, 5], "conditions": [18, 1200, "v", 18000], "internal_node_id": "0.0-9.0", "key_presses": [49, 55, 13, 57, 13, 49, 54, 13, 49, 50, 13], "trial": 0, "time_elapsed": 1709880, "type": "DISTRACTOR", "trial_index": 9, "num1": [5, 4, 1, 3, 7]}, "uniqueid": "MTK1554:3IFS6Q0HJJQFO8M4MQ7UC5QKL3YSIQ", "dateTime": 1515966053121}, {"current_trial": 10, "trialdata": {"rt": -1, "trial_type": "single-stim", "stimulus": "<p id=\"stim\">10</p>", "internal_node_id": "0.0-10.0-0.0", "time_elapsed": 1712884, "key_press": -1, "trial_index": 10}, "uniqueid": "MTK1554:3IFS6Q0HJJQFO8M4MQ7UC5QKL3YSIQ", "dateTime": 1515966056126}, {"current_trial": 11, "trialdata": {"rt": -1, "trial_type": "single-stim", "stimulus": "<p id=\"stim\">9</p>", "internal_node_id": "0.0-10.0-1.0", "time_elapsed": 1713887, "key_press": -1, "trial_index": 11}, "uniqueid": "MTK1554:3IFS6Q0HJJQFO8M4MQ7UC5QKL3YSIQ", "dateTime": 1515966057130}, {"current_trial": 12, "trialdata": {"rt": -1, "trial_type": "single-stim", "stimulus": "<p id=\"stim\">8</p>", "internal_node_id": "0.0-10.0-2.0", "time_elapsed": 1714892, "key_press": -1, "trial_index": 12}, "uniqueid": "MTK1554:3IFS6Q0HJJQFO8M4MQ7UC5QKL3YSIQ", "dateTime": 1515966058133}, {"current_trial": 13, "trialdata": {"rt": -1, "trial_type": "single-stim", "stimulus": "<p id=\"stim\">7</p>", "internal_node_id": "0.0-10.0-3.0", "time_elapsed": 1715894, "key_press": -1, "trial_index": 13}, "uniqueid": "MTK1554:3IFS6Q0HJJQFO8M4MQ7UC5QKL3YSIQ", "dateTime": 1515966059135}, {"current_trial": 14, "trialdata": {"rt": -1, "trial_type": "single-stim", "stimulus": "<p id=\"stim\">6</p>", "internal_node_id": "0.0-10.0-4.0", "time_elapsed": 1716896, "key_press": -1, "trial_index": 14}, "uniqueid": "MTK1554:3IFS6Q0HJJQFO8M4MQ7UC5QKL3YSIQ", "dateTime": 1515966060137}, {"current_trial": 15, "trialdata": {"rt": -1, "trial_type": "single-stim", "stimulus": "<p id=\"stim\">5</p>", "internal_node_id": "0.0-10.0-5.0", "time_elapsed": 1717898, "key_press": -1, "trial_index": 15}, "uniqueid": "MTK1554:3IFS6Q0HJJQFO8M4MQ7UC5QKL3YSIQ", "dateTime": 1515966061139}, {"current_trial": 16, "trialdata": {"rt": -1, "trial_type": "single-stim", "stimulus": "<p id=\"stim\">4</p>", "internal_node_id": "0.0-10.0-6.0", "time_elapsed": 1718900, "key_press": -1, "trial_index": 16}, "uniqueid": "MTK1554:3IFS6Q0HJJQFO8M4MQ7UC5QKL3YSIQ", "dateTime": 1515966062141}, {"current_trial": 17, "trialdata": {"rt": -1, "trial_type": "single-stim", "stimulus": "<p id=\"stim\">3</p>", "internal_node_id": "0.0-10.0-7.0", "time_elapsed": 1719903, "key_press": -1, "trial_index": 17}, "uniqueid": "MTK1554:3IFS6Q0HJJQFO8M4MQ7UC5QKL3YSIQ", "dateTime": 1515966063144}, {"current_trial": 18, "trialdata": {"rt": -1, "trial_type": "single-stim", "stimulus": "<p id=\"stim\">2</p>", "internal_node_id": "0.0-10.0-8.0", "time_elapsed": 1720905, "key_press": -1, "trial_index": 18}, "uniqueid": "MTK1554:3IFS6Q0HJJQFO8M4MQ7UC5QKL3YSIQ", "dateTime": 1515966064146}, {"current_trial": 19, "trialdata": {"rt": -1, "trial_type": "single-stim", "stimulus": "<p id=\"stim\">1</p>", "internal_node_id": "0.0-10.0-9.0", "time_elapsed": 1721907, "key_press": -1, "trial_index": 19}, "uniqueid": "MTK1554:3IFS6Q0HJJQFO8M4MQ7UC5QKL3YSIQ", "dateTime": 1515966065148}, {"current_trial": 20, "trialdata": {"rt": -1, "trial_type": "single-stim", "stimulus": "<p id=\"stim\">+</p>", "internal_node_id": "0.0-11.0-0.0", "time_elapsed": 1723410, "key_press": -1, "type": "FIXATION", "trial_index": 20}, "uniqueid": "MTK1554:3IFS6Q0HJJQFO8M4MQ7UC5QKL3YSIQ", "dateTime": 1515966066653}, {"current_trial": 21, "trialdata": {"rt": -1, "trial_type": "single-stim", "word": "window", "stimulus": "<p id=\"stim\">WINDOW</p>", "conditions": [18, 1200, "v", 18000], "internal_node_id": "0.0-12.0", "trial": 0, "time_elapsed": 1724614, "serialpos": 0, "key_press": -1, "wordID": 1610, "type": "PRES_VIS", "trial_index": 21}, "uniqueid": "MTK1554:3IFS6Q0HJJQFO8M4MQ7UC5QKL3YSIQ", "dateTime": 1515966067857}, {"current_trial": 22, "trialdata": {"rt": -1, "trial_type": "single-stim", "word": "sword", "stimulus": "<p id=\"stim\">SWORD</p>", "conditions": [18, 1200, "v", 18000], "internal_node_id": "0.0-13.0", "trial": 0, "time_elapsed": 1726797, "serialpos": 1, "key_press": -1, "wordID": 1422, "type": "PRES_VIS", "trial_index": 22}, "uniqueid": "MTK1554:3IFS6Q0HJJQFO8M4MQ7UC5QKL3YSIQ", "dateTime": 1515966070038}, {"current_trial": 23, "trialdata": {"rt": -1, "trial_type": "single-stim", "word": "scotch", "stimulus": "<p id=\"stim\">SCOTCH</p>", "conditions": [18, 1200, "v", 18000], "internal_node_id": "0.0-14.0", "trial": 0, "time_elapsed": 1729130, "serialpos": 2, "key_press": -1, "wordID": 1250, "type": "PRES_VIS", "trial_index": 23}, "uniqueid": "MTK1554:3IFS6Q0HJJQFO8M4MQ7UC5QKL3YSIQ", "dateTime": 1515966072372}, {"current_trial": 24, "trialdata": {"rt": -1, "trial_type": "single-stim", "word": "rooster", "stimulus": "<p id=\"stim\">ROOSTER</p>", "conditions": [18, 1200, "v", 18000], "internal_node_id": "0.0-15.0", "trial": 0, "time_elapsed": 1731363, "serialpos": 3, "key_press": -1, "wordID": 1208, "type": "PRES_VIS", "trial_index": 24}, "uniqueid": "MTK1554:3IFS6Q0HJJQFO8M4MQ7UC5QKL3YSIQ", "dateTime": 1515966074605}, {"current_trial": 25, "trialdata": {"rt": -1, "trial_type": "single-stim", "word": "space", "stimulus": "<p id=\"stim\">SPACE</p>", "conditions": [18, 1200, "v", 18000], "internal_node_id": "0.0-16.0", "trial": 0, "time_elapsed": 1733669, "serialpos": 4, "key_press": -1, "wordID": 1344, "type": "PRES_VIS", "trial_index": 25}, "uniqueid": "MTK1554:3IFS6Q0HJJQFO8M4MQ7UC5QKL3YSIQ", "dateTime": 1515966076911}, {"current_trial": 26, "trialdata": {"rt": -1, "trial_type": "single-stim", "word": "banjo", "stimulus": "<p id=\"stim\">BANJO</p>", "conditions": [18, 1200, "v", 18000], "internal_node_id": "0.0-17.0", "trial": 0, "time_elapsed": 1735676, "serialpos": 5, "key_press": -1, "wordID": 81, "type": "PRES_VIS", "trial_index": 26}, "uniqueid": "MTK1554:3IFS6Q0HJJQFO8M4MQ7UC5QKL3YSIQ", "dateTime": 1515966078917}, {"current_trial": 27, "trialdata": {"rt": -1, "trial_type": "single-stim", "word": "guitar", "stimulus": "<p id=\"stim\">GUITAR</p>", "conditions": [18, 1200, "v", 18000], "internal_node_id": "0.0-18.0", "trial": 0, "time_elapsed": 1738032, "serialpos": 6, "key_press": -1, "wordID": 669, "type": "PRES_VIS", "trial_index": 27}, "uniqueid": "MTK1554:3IFS6Q0HJJQFO8M4MQ7UC5QKL3YSIQ", "dateTime": 1515966081273}, {"current_trial": 28, "trialdata": {"rt": -1, "trial_type": "single-stim", "word": "fox", "stimulus": "<p id=\"stim\">FOX</p>", "conditions": [18, 1200, "v", 18000], "internal_node_id": "0.0-19.0", "trial": 0, "time_elapsed": 1740327, "serialpos": 7, "key_press": -1, "wordID": 597, "type": "PRES_VIS", "trial_index": 28}, "uniqueid": "MTK1554:3IFS6Q0HJJQFO8M4MQ7UC5QKL3YSIQ", "dateTime": 1515966083568}, {"current_trial": 29, "trialdata": {"rt": -1, "trial_type": "single-stim", "word": "clothes", "stimulus": "<p id=\"stim\">CLOTHES</p>", "conditions": [18, 1200, "v", 18000], "internal_node_id": "0.0-20.0", "trial": 0, "time_elapsed": 1742700, "serialpos": 8, "key_press": -1, "wordID": 326, "type": "PRES_VIS", "trial_index": 29}, "uniqueid": "MTK1554:3IFS6Q0HJJQFO8M4MQ7UC5QKL3YSIQ", "dateTime": 1515966085941}, {"current_trial": 30, "trialdata": {"rt": -1, "trial_type": "single-stim", "word": "pigeon", "stimulus": "<p id=\"stim\">PIGEON</p>", "conditions": [18, 1200, "v", 18000], "internal_node_id": "0.0-21.0", "trial": 0, "time_elapsed": 1744794, "serialpos": 9, "key_press": -1, "wordID": 1064, "type": "PRES_VIS", "trial_index": 30}, "uniqueid": "MTK1554:3IFS6Q0HJJQFO8M4MQ7UC5QKL3YSIQ", "dateTime": 1515966088036}, {"current_trial": 31, "trialdata": {"rt": -1, "trial_type": "single-stim", "word": "church", "stimulus": "<p id=\"stim\">CHURCH</p>", "conditions": [18, 1200, "v", 18000], "internal_node_id": "0.0-22.0", "trial": 0, "time_elapsed": 1746877, "serialpos": 10, "key_press": -1, "wordID": 306, "type": "PRES_VIS", "trial_index": 31}, "uniqueid": "MTK1554:3IFS6Q0HJJQFO8M4MQ7UC5QKL3YSIQ", "dateTime": 1515966090118}, {"current_trial": 32, "trialdata": {"rt": -1, "trial_type": "single-stim", "word": "breast", "stimulus": "<p id=\"stim\">BREAST</p>", "conditions": [18, 1200, "v", 18000], "internal_node_id": "0.0-23.0", "trial": 0, "time_elapsed": 1749094, "serialpos": 11, "key_press": -1, "wordID": 170, "type": "PRES_VIS", "trial_index": 32}, "uniqueid": "MTK1554:3IFS6Q0HJJQFO8M4MQ7UC5QKL3YSIQ", "dateTime": 1515966092336}, {"current_trial": 33, "trialdata": {"rt": -1, "trial_type": "single-stim", "word": "blender", "stimulus": "<p id=\"stim\">BLENDER</p>", "conditions": [18, 1200, "v", 18000], "internal_node_id": "0.0-24.0", "trial": 0, "time_elapsed": 1751286, "serialpos": 12, "key_press": -1, "wordID": 135, "type": "PRES_VIS", "trial_index": 33}, "uniqueid": "MTK1554:3IFS6Q0HJJQFO8M4MQ7UC5QKL3YSIQ", "dateTime": 1515966094528}, {"current_trial": 34, "trialdata": {"rt": -1, "trial_type": "single-stim", "word": "wasp", "stimulus": "<p id=\"stim\">WASP</p>", "conditions": [18, 1200, "v", 18000], "internal_node_id": "0.0-25.0", "trial": 0, "time_elapsed": 1753636, "serialpos": 13, "key_press": -1, "wordID": 1592, "type": "PRES_VIS", "trial_index": 34}, "uniqueid": "MTK1554:3IFS6Q0HJJQFO8M4MQ7UC5QKL3YSIQ", "dateTime": 1515966096877}, {"current_trial": 35, "trialdata": {"rt": -1, "trial_type": "single-stim", "word": "scarecrow", "stimulus": "<p id=\"stim\">SCARECROW</p>", "conditions": [18, 1200, "v", 18000], "internal_node_id": "0.0-26.0", "trial": 0, "time_elapsed": 1755911, "serialpos": 14, "key_press": -1, "wordID": 1244, "type": "PRES_VIS", "trial_index": 35}, "uniqueid": "MTK1554:3IFS6Q0HJJQFO8M4MQ7UC5QKL3YSIQ", "dateTime": 1515966099152}, {"current_trial": 36, "trialdata": {"rt": -1, "trial_type": "single-stim", "word": "crater", "stimulus": "<p id=\"stim\">CRATER</p>", "conditions": [18, 1200, "v", 18000], "internal_node_id": "0.0-27.0", "trial": 0, "time_elapsed": 1758255, "serialpos": 15, "key_press": -1, "wordID": 399, "type": "PRES_VIS", "trial_index": 36}, "uniqueid": "MTK1554:3IFS6Q0HJJQFO8M4MQ7UC5QKL3YSIQ", "dateTime": 1515966101496}, {"current_trial": 37, "trialdata": {"rt": -1, "trial_type": "single-stim", "word": "grape", "stimulus": "<p id=\"stim\">GRAPE</p>", "conditions": [18, 1200, "v", 18000], "internal_node_id": "0.0-28.0", "trial": 0, "time_elapsed": 1760445, "serialpos": 16, "key_press": -1, "wordID": 653, "type": "PRES_VIS", "trial_index": 37}, "uniqueid": "MTK1554:3IFS6Q0HJJQFO8M4MQ7UC5QKL3YSIQ", "dateTime": 1515966103686}, {"current_trial": 38, "trialdata": {"rt": -1, "trial_type": "single-stim", "word": "subway", "stimulus": "<p id=\"stim\">SUBWAY</p>", "conditions": [18, 1200, "v", 18000], "internal_node_id": "0.0-29.0", "trial": 0, "time_elapsed": 1762555, "serialpos": 17, "key_press": -1, "wordID": 1399, "type": "PRES_VIS", "trial_index": 38}, "uniqueid": "MTK1554:3IFS6Q0HJJQFO8M4MQ7UC5QKL3YSIQ", "dateTime": 1515966105796}, {"current_trial": 39, "trialdata": {"rt": -1, "trial_type": "single-stim", "stimulus": "", "internal_node_id": "0.0-30.0-0.0", "time_elapsed": 1764674, "key_press": -1, "type": "PRE_RECALL_DELAY", "trial_index": 39}, "uniqueid": "MTK1554:3IFS6Q0HJJQFO8M4MQ7UC5QKL3YSIQ", "dateTime": 1515966107915}, {"current_trial": 40, "trialdata": {"rt": -1000, "trial_type": "single-audio", "stimulus": "/static/audio/400Hz.wav", "internal_node_id": "0.0-31.0", "time_elapsed": 1765179, "key_press": -1, "type": "PRE_RECALL_ALERT", "trial_index": 40}, "uniqueid": "MTK1554:3IFS6Q0HJJQFO8M4MQ7UC5QKL3YSIQ", "dateTime": 1515966108420}, {"current_trial": 41, "trialdata": {"rt": [8455, 13677, 18250, 24183, 30158, 35732, 40543, 49545], "recwords": ["subway", "space", "banjo", "pigeon", "blender", "wasp", "sword", "breast"], "key_times": [5548, 5918, 6319, 6812, 7011, 7532, 8455, 11562, 11964, 12124, 13136, 13407, 13677, 16033, 16234, 16404, 17096, 17237, 18250, 21647, 22489, 22979, 23150, 23451, 23785, 24183, 27291, 27822, 28092, 28353, 28905, 29235, 29436, 29626, 29807, 30158, 33967, 34469, 34759, 35190, 35732, 39210, 39410, 39821, 40102, 40314, 40543, 47831, 48101, 48282, 48583, 48863, 49014, 49545, 59961], "trial_type": "free-recall", "conditions": [18, 1200, "v", 18000], "internal_node_id": "0.0-32.0-0.0", "key_presses": [83, 85, 66, 87, 65, 89, 13, 83, 80, 65, 67, 69, 13, 66, 65, 78, 74, 79, 13, 80, 73, 71, 69, 79, 78, 13, 66, 76, 69, 77, 8, 78, 68, 69, 82, 13, 87, 65, 83, 80, 13, 83, 87, 79, 82, 68, 13, 66, 82, 69, 65, 83, 84, 13, 71], "trial": 0, "time_elapsed": 1825187, "type": "FREE_RECALL", "trial_index": 41}, "uniqueid": "MTK1554:3IFS6Q0HJJQFO8M4MQ7UC5QKL3YSIQ", "dateTime": 1515966168441}, {"current_trial": 42, "trialdata": {"rt": 37, "trial_type": "text", "internal_node_id": "0.0-33.0", "time_elapsed": 1827241, "key_press": 69, "type": "INSTRUCTIONS", "trial_index": 42}, "uniqueid": "MTK1554:3IFS6Q0HJJQFO8M4MQ7UC5QKL3YSIQ", "dateTime": 1515966170482}, {"current_trial": 43, "trialdata": {"rt": [3717, 6924, 8959, 10814, 13210, 15124], "trial_type": "math-distractor", "key_times": [2614, 3025, 3717, 6082, 6523, 6924, 8167, 8589, 8959, 10283, 10503, 10814, 12939, 13210, 14233, 14784, 15124, 17602, 17841], "responses": ["16", "19", "15", "10", "9", "15"], "num2": [2, 7, 5, 2, 5, 5, 8], "num3": [9, 3, 5, 4, 1, 5, 9], "conditions": [18, 1200, "v", 18000], "internal_node_id": "0.0-34.0", "key_presses": [49, 54, 13, 49, 57, 13, 49, 53, 13, 49, 48, 13, 57, 13, 49, 53, 13, 50, 48], "trial": 1, "time_elapsed": 1847251, "type": "DISTRACTOR", "trial_index": 43, "num1": [5, 9, 5, 4, 3, 5, 3]}, "uniqueid": "MTK1554:3IFS6Q0HJJQFO8M4MQ7UC5QKL3YSIQ", "dateTime": 1515966190492}, {"current_trial": 44, "trialdata": {"rt": -1, "trial_type": "single-stim", "stimulus": "<p id=\"stim\">10</p>", "internal_node_id": "0.0-35.0-0.0", "time_elapsed": 1850253, "key_press": -1, "trial_index": 44}, "uniqueid": "MTK1554:3IFS6Q0HJJQFO8M4MQ7UC5QKL3YSIQ", "dateTime": 1515966193494}, {"current_trial": 45, "trialdata": {"rt": -1, "trial_type": "single-stim", "stimulus": "<p id=\"stim\">9</p>", "internal_node_id": "0.0-35.0-1.0", "time_elapsed": 1851255, "key_press": -1, "trial_index": 45}, "uniqueid": "MTK1554:3IFS6Q0HJJQFO8M4MQ7UC5QKL3YSIQ", "dateTime": 1515966194496}, {"current_trial": 46, "trialdata": {"rt": -1, "trial_type": "single-stim", "stimulus": "<p id=\"stim\">8</p>", "internal_node_id": "0.0-35.0-2.0", "time_elapsed": 1852257, "key_press": -1, "trial_index": 46}, "uniqueid": "MTK1554:3IFS6Q0HJJQFO8M4MQ7UC5QKL3YSIQ", "dateTime": 1515966195498}, {"current_trial": 47, "trialdata": {"rt": -1, "trial_type": "single-stim", "stimulus": "<p id=\"stim\">7</p>", "internal_node_id": "0.0-35.0-3.0", "time_elapsed": 1853259, "key_press": -1, "trial_index": 47}, "uniqueid": "MTK1554:3IFS6Q0HJJQFO8M4MQ7UC5QKL3YSIQ", "dateTime": 1515966196501}, {"current_trial": 48, "trialdata": {"rt": -1, "trial_type": "single-stim", "stimulus": "<p id=\"stim\">6</p>", "internal_node_id": "0.0-35.0-4.0", "time_elapsed": 1854261, "key_press": -1, "trial_index": 48}, "uniqueid": "MTK1554:3IFS6Q0HJJQFO8M4MQ7UC5QKL3YSIQ", "dateTime": 1515966197503}, {"current_trial": 49, "trialdata": {"rt": -1, "trial_type": "single-stim", "stimulus": "<p id=\"stim\">5</p>", "internal_node_id": "0.0-35.0-5.0", "time_elapsed": 1855263, "key_press": -1, "trial_index": 49}, "uniqueid": "MTK1554:3IFS6Q0HJJQFO8M4MQ7UC5QKL3YSIQ", "dateTime": 1515966198505}, {"current_trial": 50, "trialdata": {"rt": -1, "trial_type": "single-stim", "stimulus": "<p id=\"stim\">4</p>", "internal_node_id": "0.0-35.0-6.0", "time_elapsed": 1856265, "key_press": -1, "trial_index": 50}, "uniqueid": "MTK1554:3IFS6Q0HJJQFO8M4MQ7UC5QKL3YSIQ", "dateTime": 1515966199507}, {"current_trial": 51, "trialdata": {"rt": -1, "trial_type": "single-stim", "stimulus": "<p id=\"stim\">3</p>", "internal_node_id": "0.0-35.0-7.0", "time_elapsed": 1857267, "key_press": -1, "trial_index": 51}, "uniqueid": "MTK1554:3IFS6Q0HJJQFO8M4MQ7UC5QKL3YSIQ", "dateTime": 1515966200509}, {"current_trial": 52, "trialdata": {"rt": -1, "trial_type": "single-stim", "stimulus": "<p id=\"stim\">2</p>", "internal_node_id": "0.0-35.0-8.0", "time_elapsed": 1858269, "key_press": -1, "trial_index": 52}, "uniqueid": "MTK1554:3IFS6Q0HJJQFO8M4MQ7UC5QKL3YSIQ", "dateTime": 1515966201511}, {"current_trial": 53, "trialdata": {"rt": -1, "trial_type": "single-stim", "stimulus": "<p id=\"stim\">1</p>", "internal_node_id": "0.0-35.0-9.0", "time_elapsed": 1859272, "key_press": -1, "trial_index": 53}, "uniqueid": "MTK1554:3IFS6Q0HJJQFO8M4MQ7UC5QKL3YSIQ", "dateTime": 1515966202513}, {"current_trial": 54, "trialdata": {"rt": -1, "trial_type": "single-stim", "stimulus": "<p id=\"stim\">+</p>", "internal_node_id": "0.0-36.0-0.0", "time_elapsed": 1860774, "key_press": -1, "type": "FIXATION", "trial_index": 54}, "uniqueid": "MTK1554:3IFS6Q0HJJQFO8M4MQ7UC5QKL3YSIQ", "dateTime": 1515966204015}, {"current_trial": 55, "trialdata": {"rt": -1, "trial_type": "single-stim", "word": "crab", "stimulus": "<p id=\"stim\">CRAB</p>", "conditions": [18, 1200, "v", 18000], "internal_node_id": "0.0-37.0", "trial": 1, "time_elapsed": 1861976, "serialpos": 0, "key_press": -1, "wordID": 396, "type": "PRES_VIS", "trial_index": 55}, "uniqueid": "MTK1554:3IFS6Q0HJJQFO8M4MQ7UC5QKL3YSIQ", "dateTime": 1515966205217}, {"current_trial": 56, "trialdata": {"rt": -1, "trial_type": "single-stim", "word": "custard", "stimulus": "<p id=\"stim\">CUSTARD</p>", "conditions": [18, 1200, "v", 18000], "internal_node_id": "0.0-38.0", "trial": 1, "time_elapsed": 1864308, "serialpos": 1, "key_press": -1, "wordID": 428, "type": "PRES_VIS", "trial_index": 56}, "uniqueid": "MTK1554:3IFS6Q0HJJQFO8M4MQ7UC5QKL3YSIQ", "dateTime": 1515966207549}, {"current_trial": 57, "trialdata": {"rt": -1, "trial_type": "single-stim", "word": "briefcase", "stimulus": "<p id=\"stim\">BRIEFCASE</p>", "conditions": [18, 1200, "v", 18000], "internal_node_id": "0.0-39.0", "trial": 1, "time_elapsed": 1866362, "serialpos": 2, "key_press": -1, "wordID": 174, "type": "PRES_VIS", "trial_index": 57}, "uniqueid": "MTK1554:3IFS6Q0HJJQFO8M4MQ7UC5QKL3YSIQ", "dateTime": 1515966209603}, {"current_trial": 58, "trialdata": {"rt": -1, "trial_type": "single-stim", "word": "captive", "stimulus": "<p id=\"stim\">CAPTIVE</p>", "conditions": [18, 1200, "v", 18000], "internal_node_id": "0.0-40.0", "trial": 1, "time_elapsed": 1868740, "serialpos": 3, "key_press": -1, "wordID": 239, "type": "PRES_VIS", "trial_index": 58}, "uniqueid": "MTK1554:3IFS6Q0HJJQFO8M4MQ7UC5QKL3YSIQ", "dateTime": 1515966211981}, {"current_trial": 59, "trialdata": {"rt": -1, "trial_type": "single-stim", "word": "chauffeur", "stimulus": "<p id=\"stim\">CHAUFFEUR</p>", "conditions": [18, 1200, "v", 18000], "internal_node_id": "0.0-41.0", "trial": 1, "time_elapsed": 1870833, "serialpos": 4, "key_press": -1, "wordID": 282, "type": "PRES_VIS", "trial_index": 59}, "uniqueid": "MTK1554:3IFS6Q0HJJQFO8M4MQ7UC5QKL3YSIQ", "dateTime": 1515966214075}, {"current_trial": 60, "trialdata": {"rt": -1, "trial_type": "single-stim", "word": "canal", "stimulus": "<p id=\"stim\">CANAL</p>", "conditions": [18, 1200, "v", 18000], "internal_node_id": "0.0-42.0", "trial": 1, "time_elapsed": 1872928, "serialpos": 5, "key_press": -1, "wordID": 225, "type": "PRES_VIS", "trial_index": 60}, "uniqueid": "MTK1554:3IFS6Q0HJJQFO8M4MQ7UC5QKL3YSIQ", "dateTime": 1515966216170}, {"current_trial": 61, "trialdata": {"rt": -1, "trial_type": "single-stim", "word": "piano", "stimulus": "<p id=\"stim\">PIANO</p>", "conditions": [18, 1200, "v", 18000], "internal_node_id": "0.0-43.0", "trial": 1, "time_elapsed": 1875165, "serialpos": 6, "key_press": -1, "wordID": 1056, "type": "PRES_VIS", "trial_index": 61}, "uniqueid": "MTK1554:3IFS6Q0HJJQFO8M4MQ7UC5QKL3YSIQ", "dateTime": 1515966218407}, {"current_trial": 62, "trialdata": {"rt": -1, "trial_type": "single-stim", "word": "treat", "stimulus": "<p id=\"stim\">TREAT</p>", "conditions": [18, 1200, "v", 18000], "internal_node_id": "0.0-44.0", "trial": 1, "time_elapsed": 1877311, "serialpos": 7, "key_press": -1, "wordID": 1500, "type": "PRES_VIS", "trial_index": 62}, "uniqueid": "MTK1554:3IFS6Q0HJJQFO8M4MQ7UC5QKL3YSIQ", "dateTime": 1515966220552}, {"current_trial": 63, "trialdata": {"rt": -1, "trial_type": "single-stim", "word": "virus", "stimulus": "<p id=\"stim\">VIRUS</p>", "conditions": [18, 1200, "v", 18000], "internal_node_id": "0.0-45.0", "trial": 1, "time_elapsed": 1879689, "serialpos": 8, "key_press": -1, "wordID": 1571, "type": "PRES_VIS", "trial_index": 63}, "uniqueid": "MTK1554:3IFS6Q0HJJQFO8M4MQ7UC5QKL3YSIQ", "dateTime": 1515966222930}, {"current_trial": 64, "trialdata": {"rt": -1, "trial_type": "single-stim", "word": "bullet", "stimulus": "<p id=\"stim\">BULLET</p>", "conditions": [18, 1200, "v", 18000], "internal_node_id": "0.0-46.0", "trial": 1, "time_elapsed": 1881993, "serialpos": 9, "key_press": -1, "wordID": 193, "type": "PRES_VIS", "trial_index": 64}, "uniqueid": "MTK1554:3IFS6Q0HJJQFO8M4MQ7UC5QKL3YSIQ", "dateTime": 1515966225234}, {"current_trial": 65, "trialdata": {"rt": -1, "trial_type": "single-stim", "word": "widow", "stimulus": "<p id=\"stim\">WIDOW</p>", "conditions": [18, 1200, "v", 18000], "internal_node_id": "0.0-47.0", "trial": 1, "time_elapsed": 1884257, "serialpos": 10, "key_press": -1, "wordID": 1607, "type": "PRES_VIS", "trial_index": 65}, "uniqueid": "MTK1554:3IFS6Q0HJJQFO8M4MQ7UC5QKL3YSIQ", "dateTime": 1515966227498}, {"current_trial": 66, "trialdata": {"rt": -1, "trial_type": "single-stim", "word": "freckle", "stimulus": "<p id=\"stim\">FRECKLE</p>", "conditions": [18, 1200, "v", 18000], "internal_node_id": "0.0-48.0", "trial": 1, "time_elapsed": 1886323, "serialpos": 11, "key_press": -1, "wordID": 601, "type": "PRES_VIS", "trial_index": 66}, "uniqueid": "MTK1554:3IFS6Q0HJJQFO8M4MQ7UC5QKL3YSIQ", "dateTime": 1515966229564}, {"current_trial": 67, "trialdata": {"rt": -1, "trial_type": "single-stim", "word": "cricket", "stimulus": "<p id=\"stim\">CRICKET</p>", "conditions": [18, 1200, "v", 18000], "internal_node_id": "0.0-49.0", "trial": 1, "time_elapsed": 1888509, "serialpos": 12, "key_press": -1, "wordID": 407, "type": "PRES_VIS", "trial_index": 67}, "uniqueid": "MTK1554:3IFS6Q0HJJQFO8M4MQ7UC5QKL3YSIQ", "dateTime": 1515966231751}, {"current_trial": 68, "trialdata": {"rt": -1, "trial_type": "single-stim", "word": "harp", "stimulus": "<p id=\"stim\">HARP</p>", "conditions": [18, 1200, "v", 18000], "internal_node_id": "0.0-50.0", "trial": 1, "time_elapsed": 1890814, "serialpos": 13, "key_press": -1, "wordID": 688, "type": "PRES_VIS", "trial_index": 68}, "uniqueid": "MTK1554:3IFS6Q0HJJQFO8M4MQ7UC5QKL3YSIQ", "dateTime": 1515966234056}, {"current_trial": 69, "trialdata": {"rt": -1, "trial_type": "single-stim", "word": "paper", "stimulus": "<p id=\"stim\">PAPER</p>", "conditions": [18, 1200, "v", 18000], "internal_node_id": "0.0-51.0", "trial": 1, "time_elapsed": 1893156, "serialpos": 14, "key_press": -1, "wordID": 1010, "type": "PRES_VIS", "trial_index": 69}, "uniqueid": "MTK1554:3IFS6Q0HJJQFO8M4MQ7UC5QKL3YSIQ", "dateTime": 1515966236397}, {"current_trial": 70, "trialdata": {"rt": -1, "trial_type": "single-stim", "word": "pepper", "stimulus": "<p id=\"stim\">PEPPER</p>", "conditions": [18, 1200, "v", 18000], "internal_node_id": "0.0-52.0", "trial": 1, "time_elapsed": 1895183, "serialpos": 15, "key_press": -1, "wordID": 1046, "type": "PRES_VIS", "trial_index": 70}, "uniqueid": "MTK1554:3IFS6Q0HJJQFO8M4MQ7UC5QKL3YSIQ", "dateTime": 1515966238425}, {"current_trial": 71, "trialdata": {"rt": -1, "trial_type": "single-stim", "word": "outlaw", "stimulus": "<p id=\"stim\">OUTLAW</p>", "conditions": [18, 1200, "v", 18000], "internal_node_id": "0.0-53.0", "trial": 1, "time_elapsed": 1897520, "serialpos": 16, "key_press": -1, "wordID": 988, "type": "PRES_VIS", "trial_index": 71}, "uniqueid": "MTK1554:3IFS6Q0HJJQFO8M4MQ7UC5QKL3YSIQ", "dateTime": 1515966240761}, {"current_trial": 72, "trialdata": {"rt": -1, "trial_type": "single-stim", "word": "eagle", "stimulus": "<p id=\"stim\">EAGLE</p>", "conditions": [18, 1200, "v", 18000], "internal_node_id": "0.0-54.0", "trial": 1, "time_elapsed": 1899765, "serialpos": 17, "key_press": -1, "wordID": 511, "type": "PRES_VIS", "trial_index": 72}, "uniqueid": "MTK1554:3IFS6Q0HJJQFO8M4MQ7UC5QKL3YSIQ", "dateTime": 1515966243006}, {"current_trial": 73, "trialdata": {"rt": -1, "trial_type": "single-stim", "stimulus": "", "internal_node_id": "0.0-55.0-0.0", "time_elapsed": 1901980, "key_press": -1, "type": "PRE_RECALL_DELAY", "trial_index": 73}, "uniqueid": "MTK1554:3IFS6Q0HJJQFO8M4MQ7UC5QKL3YSIQ", "dateTime": 1515966245221}, {"current_trial": 74, "trialdata": {"rt": -1000, "trial_type": "single-audio", "stimulus": "/static/audio/400Hz.wav", "internal_node_id": "0.0-56.0", "time_elapsed": 1902482, "key_press": -1, "type": "PRE_RECALL_ALERT", "trial_index": 74}, "uniqueid": "MTK1554:3IFS6Q0HJJQFO8M4MQ7UC5QKL3YSIQ", "dateTime": 1515966245723}, {"current_trial": 75, "trialdata": {"rt": [4458, 11446, 14413, 24918, 30281, 37870, 43684, 49981, 54754], "recwords": ["eagle", "pepper", "paper", "window", "crab", "canal", "driver", "freck;le", "virus"], "key_times": [2614, 2925, 3236, 3767, 3957, 4458, 7245, 7476, 8398, 8749, 9060, 9230, 9451, 9651, 11446, 12308, 12484, 12702, 13080, 13300, 14413, 22954, 23305, 23645, 23906, 24146, 24297, 24918, 28627, 28898, 29119, 29800, 30281, 36607, 36868, 37199, 37349, 37509, 37870, 41940, 42110, 42682, 43033, 43133, 43393, 43684, 47464, 47684, 48085, 48476, 49078, 49258, 49261, 49429, 49981, 52908, 53339, 53700, 53990, 54211, 54754], "trial_type": "free-recall", "conditions": [18, 1200, "v", 18000], "internal_node_id": "0.0-57.0-0.0", "key_presses": [69, 65, 71, 76, 69, 13, 80, 65, 8, 69, 80, 80, 69, 82, 13, 80, 65, 80, 69, 82, 13, 87, 73, 78, 68, 79, 87, 13, 67, 82, 65, 66, 13, 67, 65, 78, 65, 76, 13, 68, 82, 73, 86, 69, 82, 13, 70, 82, 69, 67, 75, 59, 76, 69, 13, 86, 73, 82, 85, 83, 13], "trial": 1, "time_elapsed": 1962489, "type": "FREE_RECALL", "trial_index": 75}, "uniqueid": "MTK1554:3IFS6Q0HJJQFO8M4MQ7UC5QKL3YSIQ", "dateTime": 1515966305738}, {"current_trial": 76, "trialdata": {"rt": 3317, "trial_type": "text", "internal_node_id": "0.0-58.0", "time_elapsed": 1967816, "key_press": 32, "type": "INSTRUCTIONS", "trial_index": 76}, "uniqueid": "MTK1554:3IFS6Q0HJJQFO8M4MQ7UC5QKL3YSIQ", "dateTime": 1515966311057}, {"current_trial": 77, "trialdata": {"rt": [2953, 4858, 7644, 10221], "trial_type": "math-distractor", "key_times": [2723, 2953, 4386, 4667, 4858, 7163, 7384, 7644, 9479, 9850, 10221, 11795], "responses": ["6", "14", "19", "14"], "num2": [1, 5, 6, 4, 2], "num3": [1, 4, 6, 7, 3], "conditions": [24, 1600, "v", 12000], "internal_node_id": "0.0-59.0", "key_presses": [54, 13, 49, 52, 13, 49, 57, 13, 49, 52, 13, 49], "trial": 2, "time_elapsed": 1980824, "type": "DISTRACTOR", "trial_index": 77, "num1": [4, 5, 7, 3, 5]}, "uniqueid": "MTK1554:3IFS6Q0HJJQFO8M4MQ7UC5QKL3YSIQ", "dateTime": 1515966324065}, {"current_trial": 78, "trialdata": {"rt": -1, "trial_type": "single-stim", "stimulus": "<p id=\"stim\">10</p>", "internal_node_id": "0.0-60.0-0.0", "time_elapsed": 1983827, "key_press": -1, "trial_index": 78}, "uniqueid": "MTK1554:3IFS6Q0HJJQFO8M4MQ7UC5QKL3YSIQ", "dateTime": 1515966327068}, {"current_trial": 79, "trialdata": {"rt": -1, "trial_type": "single-stim", "stimulus": "<p id=\"stim\">9</p>", "internal_node_id": "0.0-60.0-1.0", "time_elapsed": 1984829, "key_press": -1, "trial_index": 79}, "uniqueid": "MTK1554:3IFS6Q0HJJQFO8M4MQ7UC5QKL3YSIQ", "dateTime": 1515966328070}, {"current_trial": 80, "trialdata": {"rt": -1, "trial_type": "single-stim", "stimulus": "<p id=\"stim\">8</p>", "internal_node_id": "0.0-60.0-2.0", "time_elapsed": 1985831, "key_press": -1, "trial_index": 80}, "uniqueid": "MTK1554:3IFS6Q0HJJQFO8M4MQ7UC5QKL3YSIQ", "dateTime": 1515966329072}, {"current_trial": 81, "trialdata": {"rt": -1, "trial_type": "single-stim", "stimulus": "<p id=\"stim\">7</p>", "internal_node_id": "0.0-60.0-3.0", "time_elapsed": 1986833, "key_press": -1, "trial_index": 81}, "uniqueid": "MTK1554:3IFS6Q0HJJQFO8M4MQ7UC5QKL3YSIQ", "dateTime": 1515966330074}, {"current_trial": 82, "trialdata": {"rt": -1, "trial_type": "single-stim", "stimulus": "<p id=\"stim\">6</p>", "internal_node_id": "0.0-60.0-4.0", "time_elapsed": 1987835, "key_press": -1, "trial_index": 82}, "uniqueid": "MTK1554:3IFS6Q0HJJQFO8M4MQ7UC5QKL3YSIQ", "dateTime": 1515966331076}, {"current_trial": 83, "trialdata": {"rt": -1, "trial_type": "single-stim", "stimulus": "<p id=\"stim\">5</p>", "internal_node_id": "0.0-60.0-5.0", "time_elapsed": 1988837, "key_press": -1, "trial_index": 83}, "uniqueid": "MTK1554:3IFS6Q0HJJQFO8M4MQ7UC5QKL3YSIQ", "dateTime": 1515966332078}, {"current_trial": 84, "trialdata": {"rt": -1, "trial_type": "single-stim", "stimulus": "<p id=\"stim\">4</p>", "internal_node_id": "0.0-60.0-6.0", "time_elapsed": 1989843, "key_press": -1, "trial_index": 84}, "uniqueid": "MTK1554:3IFS6Q0HJJQFO8M4MQ7UC5QKL3YSIQ", "dateTime": 1515966333084}, {"current_trial": 85, "trialdata": {"rt": -1, "trial_type": "single-stim", "stimulus": "<p id=\"stim\">3</p>", "internal_node_id": "0.0-60.0-7.0", "time_elapsed": 1990847, "key_press": -1, "trial_index": 85}, "uniqueid": "MTK1554:3IFS6Q0HJJQFO8M4MQ7UC5QKL3YSIQ", "dateTime": 1515966334088}, {"current_trial": 86, "trialdata": {"rt": -1, "trial_type": "single-stim", "stimulus": "<p id=\"stim\">2</p>", "internal_node_id": "0.0-60.0-8.0", "time_elapsed": 1991849, "key_press": -1, "trial_index": 86}, "uniqueid": "MTK1554:3IFS6Q0HJJQFO8M4MQ7UC5QKL3YSIQ", "dateTime": 1515966335090}, {"current_trial": 87, "trialdata": {"rt": -1, "trial_type": "single-stim", "stimulus": "<p id=\"stim\">1</p>", "internal_node_id": "0.0-60.0-9.0", "time_elapsed": 1992850, "key_press": -1, "trial_index": 87}, "uniqueid": "MTK1554:3IFS6Q0HJJQFO8M4MQ7UC5QKL3YSIQ", "dateTime": 1515966336092}, {"current_trial": 88, "trialdata": {"rt": -1, "trial_type": "single-stim", "stimulus": "<p id=\"stim\">+</p>", "internal_node_id": "0.0-61.0-0.0", "time_elapsed": 1994352, "key_press": -1, "type": "FIXATION", "trial_index": 88}, "uniqueid": "MTK1554:3IFS6Q0HJJQFO8M4MQ7UC5QKL3YSIQ", "dateTime": 1515966337594}, {"current_trial": 89, "trialdata": {"rt": -1, "trial_type": "single-stim", "word": "muffin", "stimulus": "<p id=\"stim\">MUFFIN</p>", "conditions": [24, 1600, "v", 12000], "internal_node_id": "0.0-62.0", "trial": 2, "time_elapsed": 1995954, "serialpos": 0, "key_press": -1, "wordID": 928, "type": "PRES_VIS", "trial_index": 89}, "uniqueid": "MTK1554:3IFS6Q0HJJQFO8M4MQ7UC5QKL3YSIQ", "dateTime": 1515966339196}, {"current_trial": 90, "trialdata": {"rt": -1, "trial_type": "single-stim", "word": "flower", "stimulus": "<p id=\"stim\">FLOWER</p>", "conditions": [24, 1600, "v", 12000], "internal_node_id": "0.0-63.0", "trial": 2, "time_elapsed": 1998401, "serialpos": 1, "key_press": -1, "wordID": 583, "type": "PRES_VIS", "trial_index": 90}, "uniqueid": "MTK1554:3IFS6Q0HJJQFO8M4MQ7UC5QKL3YSIQ", "dateTime": 1515966341643}, {"current_trial": 91, "trialdata": {"rt": -1, "trial_type": "single-stim", "word": "couch", "stimulus": "<p id=\"stim\">COUCH</p>", "conditions": [24, 1600, "v", 12000], "internal_node_id": "0.0-64.0", "trial": 2, "time_elapsed": 2000883, "serialpos": 2, "key_press": -1, "wordID": 385, "type": "PRES_VIS", "trial_index": 91}, "uniqueid": "MTK1554:3IFS6Q0HJJQFO8M4MQ7UC5QKL3YSIQ", "dateTime": 1515966344124}, {"current_trial": 92, "trialdata": {"rt": -1, "trial_type": "single-stim", "word": "mattress", "stimulus": "<p id=\"stim\">MATTRESS</p>", "conditions": [24, 1600, "v", 12000], "internal_node_id": "0.0-65.0", "trial": 2, "time_elapsed": 2003493, "serialpos": 3, "key_press": -1, "wordID": 878, "type": "PRES_VIS", "trial_index": 92}, "uniqueid": "MTK1554:3IFS6Q0HJJQFO8M4MQ7UC5QKL3YSIQ", "dateTime": 1515966346734}, {"current_trial": 93, "trialdata": {"rt": -1, "trial_type": "single-stim", "word": "stream", "stimulus": "<p id=\"stim\">STREAM</p>", "conditions": [24, 1600, "v", 12000], "internal_node_id": "0.0-66.0", "trial": 2, "time_elapsed": 2005941, "serialpos": 4, "key_press": -1, "wordID": 1391, "type": "PRES_VIS", "trial_index": 93}, "uniqueid": "MTK1554:3IFS6Q0HJJQFO8M4MQ7UC5QKL3YSIQ", "dateTime": 1515966349182}, {"current_trial": 94, "trialdata": {"rt": -1, "trial_type": "single-stim", "word": "cafe", "stimulus": "<p id=\"stim\">CAFE</p>", "conditions": [24, 1600, "v", 12000], "internal_node_id": "0.0-67.0", "trial": 2, "time_elapsed": 2008670, "serialpos": 5, "key_press": -1, "wordID": 215, "type": "PRES_VIS", "trial_index": 94}, "uniqueid": "MTK1554:3IFS6Q0HJJQFO8M4MQ7UC5QKL3YSIQ", "dateTime": 1515966351911}, {"current_trial": 95, "trialdata": {"rt": -1, "trial_type": "single-stim", "word": "turkey", "stimulus": "<p id=\"stim\">TURKEY</p>", "conditions": [24, 1600, "v", 12000], "internal_node_id": "0.0-68.0", "trial": 2, "time_elapsed": 2011235, "serialpos": 6, "key_press": -1, "wordID": 1519, "type": "PRES_VIS", "trial_index": 95}, "uniqueid": "MTK1554:3IFS6Q0HJJQFO8M4MQ7UC5QKL3YSIQ", "dateTime": 1515966354477}, {"current_trial": 96, "trialdata": {"rt": -1, "trial_type": "single-stim", "word": "bison", "stimulus": "<p id=\"stim\">BISON</p>", "conditions": [24, 1600, "v", 12000], "internal_node_id": "0.0-69.0", "trial": 2, "time_elapsed": 2013967, "serialpos": 7, "key_press": -1, "wordID": 130, "type": "PRES_VIS", "trial_index": 96}, "uniqueid": "MTK1554:3IFS6Q0HJJQFO8M4MQ7UC5QKL3YSIQ", "dateTime": 1515966357209}, {"current_trial": 97, "trialdata": {"rt": -1, "trial_type": "single-stim", "word": "napkin", "stimulus": "<p id=\"stim\">NAPKIN</p>", "conditions": [24, 1600, "v", 12000], "internal_node_id": "0.0-70.0", "trial": 2, "time_elapsed": 2016557, "serialpos": 8, "key_press": -1, "wordID": 936, "type": "PRES_VIS", "trial_index": 97}, "uniqueid": "MTK1554:3IFS6Q0HJJQFO8M4MQ7UC5QKL3YSIQ", "dateTime": 1515966359798}, {"current_trial": 98, "trialdata": {"rt": -1, "trial_type": "single-stim", "word": "lily", "stimulus": "<p id=\"stim\">LILY</p>", "conditions": [24, 1600, "v", 12000], "internal_node_id": "0.0-71.0", "trial": 2, "time_elapsed": 2019349, "serialpos": 9, "key_press": -1, "wordID": 820, "type": "PRES_VIS", "trial_index": 98}, "uniqueid": "MTK1554:3IFS6Q0HJJQFO8M4MQ7UC5QKL3YSIQ", "dateTime": 1515966362590}, {"current_trial": 99, "trialdata": {"rt": -1, "trial_type": "single-stim", "word": "leader", "stimulus": "<p id=\"stim\">LEADER</p>", "conditions": [24, 1600, "v", 12000], "internal_node_id": "0.0-72.0", "trial": 2, "time_elapsed": 2022139, "serialpos": 10, "key_press": -1, "wordID": 806, "type": "PRES_VIS", "trial_index": 99}, "uniqueid": "MTK1554:3IFS6Q0HJJQFO8M4MQ7UC5QKL3YSIQ", "dateTime": 1515966365380}, {"current_trial": 100, "trialdata": {"rt": -1, "trial_type": "single-stim", "word": "japan", "stimulus": "<p id=\"stim\">JAPAN</p>", "conditions": [24, 1600, "v", 12000], "internal_node_id": "0.0-73.0", "trial": 2, "time_elapsed": 2024549, "serialpos": 11, "key_press": -1, "wordID": 748, "type": "PRES_VIS", "trial_index": 100}, "uniqueid": "MTK1554:3IFS6Q0HJJQFO8M4MQ7UC5QKL3YSIQ", "dateTime": 1515966367790}, {"current_trial": 101, "trialdata": {"rt": -1, "trial_type": "single-stim", "word": "racket", "stimulus": "<p id=\"stim\">RACKET</p>", "conditions": [24, 1600, "v", 12000], "internal_node_id": "0.0-74.0", "trial": 2, "time_elapsed": 2027211, "serialpos": 12, "key_press": -1, "wordID": 1154, "type": "PRES_VIS", "trial_index": 101}, "uniqueid": "MTK1554:3IFS6Q0HJJQFO8M4MQ7UC5QKL3YSIQ", "dateTime": 1515966370453}, {"current_trial": 102, "trialdata": {"rt": -1, "trial_type": "single-stim", "word": "citrus", "stimulus": "<p id=\"stim\">CITRUS</p>", "conditions": [24, 1600, "v", 12000], "internal_node_id": "0.0-75.0", "trial": 2, "time_elapsed": 2029982, "serialpos": 13, "key_press": -1, "wordID": 312, "type": "PRES_VIS", "trial_index": 102}, "uniqueid": "MTK1554:3IFS6Q0HJJQFO8M4MQ7UC5QKL3YSIQ", "dateTime": 1515966373224}, {"current_trial": 103, "trialdata": {"rt": -1, "trial_type": "single-stim", "word": "onion", "stimulus": "<p id=\"stim\">ONION</p>", "conditions": [24, 1600, "v", 12000], "internal_node_id": "0.0-76.0", "trial": 2, "time_elapsed": 2032625, "serialpos": 14, "key_press": -1, "wordID": 976, "type": "PRES_VIS", "trial_index": 103}, "uniqueid": "MTK1554:3IFS6Q0HJJQFO8M4MQ7UC5QKL3YSIQ", "dateTime": 1515966375867}, {"current_trial": 104, "trialdata": {"rt": -1, "trial_type": "single-stim", "word": "salad", "stimulus": "<p id=\"stim\">SALAD</p>", "conditions": [24, 1600, "v", 12000], "internal_node_id": "0.0-77.0", "trial": 2, "time_elapsed": 2035111, "serialpos": 15, "key_press": -1, "wordID": 1223, "type": "PRES_VIS", "trial_index": 104}, "uniqueid": "MTK1554:3IFS6Q0HJJQFO8M4MQ7UC5QKL3YSIQ", "dateTime": 1515966378352}, {"current_trial": 105, "trialdata": {"rt": -1, "trial_type": "single-stim", "word": "lettuce", "stimulus": "<p id=\"stim\">LETTUCE</p>", "conditions": [24, 1600, "v", 12000], "internal_node_id": "0.0-78.0", "trial": 2, "time_elapsed": 2037809, "serialpos": 16, "key_press": -1, "wordID": 813, "type": "PRES_VIS", "trial_index": 105}, "uniqueid": "MTK1554:3IFS6Q0HJJQFO8M4MQ7UC5QKL3YSIQ", "dateTime": 1515966381050}, {"current_trial": 106, "trialdata": {"rt": -1, "trial_type": "single-stim", "word": "crutch", "stimulus": "<p id=\"stim\">CRUTCH</p>", "conditions": [24, 1600, "v", 12000], "internal_node_id": "0.0-79.0", "trial": 2, "time_elapsed": 2040235, "serialpos": 17, "key_press": -1, "wordID": 416, "type": "PRES_VIS", "trial_index": 106}, "uniqueid": "MTK1554:3IFS6Q0HJJQFO8M4MQ7UC5QKL3YSIQ", "dateTime": 1515966383476}, {"current_trial": 107, "trialdata": {"rt": -1, "trial_type": "single-stim", "word": "airport", "stimulus": "<p id=\"stim\">AIRPORT</p>", "conditions": [24, 1600, "v", 12000], "internal_node_id": "0.0-80.0", "trial": 2, "time_elapsed": 2042889, "serialpos": 18, "key_press": -1, "wordID": 12, "type": "PRES_VIS", "trial_index": 107}, "uniqueid": "MTK1554:3IFS6Q0HJJQFO8M4MQ7UC5QKL3YSIQ", "dateTime": 1515966386131}, {"current_trial": 108, "trialdata": {"rt": -1, "trial_type": "single-stim", "word": "baby", "stimulus": "<p id=\"stim\">BABY</p>", "conditions": [24, 1600, "v", 12000], "internal_node_id": "0.0-81.0", "trial": 2, "time_elapsed": 2045580, "serialpos": 19, "key_press": -1, "wordID": 63, "type": "PRES_VIS", "trial_index": 108}, "uniqueid": "MTK1554:3IFS6Q0HJJQFO8M4MQ7UC5QKL3YSIQ", "dateTime": 1515966388822}, {"current_trial": 109, "trialdata": {"rt": -1, "trial_type": "single-stim", "word": "coffee", "stimulus": "<p id=\"stim\">COFFEE</p>", "conditions": [24, 1600, "v", 12000], "internal_node_id": "0.0-82.0", "trial": 2, "time_elapsed": 2048014, "serialpos": 20, "key_press": -1, "wordID": 340, "type": "PRES_VIS", "trial_index": 109}, "uniqueid": "MTK1554:3IFS6Q0HJJQFO8M4MQ7UC5QKL3YSIQ", "dateTime": 1515966391256}, {"current_trial": 110, "trialdata": {"rt": -1, "trial_type": "single-stim", "word": "robin", "stimulus": "<p id=\"stim\">ROBIN</p>", "conditions": [24, 1600, "v", 12000], "internal_node_id": "0.0-83.0", "trial": 2, "time_elapsed": 2050763, "serialpos": 21, "key_press": -1, "wordID": 1198, "type": "PRES_VIS", "trial_index": 110}, "uniqueid": "MTK1554:3IFS6Q0HJJQFO8M4MQ7UC5QKL3YSIQ", "dateTime": 1515966394004}, {"current_trial": 111, "trialdata": {"rt": -1, "trial_type": "single-stim", "word": "infant", "stimulus": "<p id=\"stim\">INFANT</p>", "conditions": [24, 1600, "v", 12000], "internal_node_id": "0.0-84.0", "trial": 2, "time_elapsed": 2053265, "serialpos": 22, "key_press": -1, "wordID": 736, "type": "PRES_VIS", "trial_index": 111}, "uniqueid": "MTK1554:3IFS6Q0HJJQFO8M4MQ7UC5QKL3YSIQ", "dateTime": 1515966396506}, {"current_trial": 112, "trialdata": {"rt": -1, "trial_type": "single-stim", "word": "shoulder", "stimulus": "<p id=\"stim\">SHOULDER</p>", "conditions": [24, 1600, "v", 12000], "internal_node_id": "0.0-85.0", "trial": 2, "time_elapsed": 2055852, "serialpos": 23, "key_press": -1, "wordID": 1293, "type": "PRES_VIS", "trial_index": 112}, "uniqueid": "MTK1554:3IFS6Q0HJJQFO8M4MQ7UC5QKL3YSIQ", "dateTime": 1515966399093}, {"current_trial": 113, "trialdata": {"rt": -1, "trial_type": "single-stim", "stimulus": "", "internal_node_id": "0.0-86.0-0.0", "time_elapsed": 2058049, "key_press": -1, "type": "PRE_RECALL_DELAY", "trial_index": 113}, "uniqueid": "MTK1554:3IFS6Q0HJJQFO8M4MQ7UC5QKL3YSIQ", "dateTime": 1515966401290}, {"current_trial": 114, "trialdata": {"rt": -1000, "trial_type": "single-audio", "stimulus": "/static/audio/400Hz.wav", "internal_node_id": "0.0-87.0", "time_elapsed": 2058550, "key_press": -1, "type": "PRE_RECALL_ALERT", "trial_index": 114}, "uniqueid": "MTK1554:3IFS6Q0HJJQFO8M4MQ7UC5QKL3YSIQ", "dateTime": 1515966401791}, {"current_trial": 115, "trialdata": {"rt": [4552, 7690, 11960, 16171, 23638, 26717, 31368, 35237, 42295, 51638, 55847], "recwords": ["coffee", "salad", "lettuce", "onion", "baby", "cafe", "turkey", "napkin", "leader", "bison", "couch"], "key_times": [2488, 2928, 3400, 3560, 3991, 4171, 4552, 6397, 6607, 6768, 6958, 7229, 7690, 8743, 9023, 9434, 9565, 9797, 11029, 11269, 11960, 15018, 15369, 15519, 15709, 15890, 16171, 21964, 22165, 22379, 22747, 23638, 25915, 26156, 26306, 26496, 26717, 29653, 29874, 30125, 30646, 30809, 31027, 31368, 33753, 33964, 34215, 34475, 34676, 34907, 35237, 41001, 41142, 41462, 41735, 41935, 42114, 42295, 50325, 50615, 50846, 50996, 51296, 51638, 54334, 54474, 54665, 55046, 55437, 55847, 59647, 59787, 59938], "trial_type": "free-recall", "conditions": [24, 1600, "v", 12000], "internal_node_id": "0.0-88.0-0.0", "key_presses": [67, 79, 70, 70, 69, 69, 13, 83, 65, 76, 65, 68, 13, 76, 69, 84, 84, 85, 67, 69, 13, 79, 78, 73, 79, 78, 13, 66, 65, 66, 89, 13, 67, 65, 70, 69, 13, 84, 85, 82, 75, 69, 89, 13, 78, 65, 80, 75, 73, 78, 13, 76, 69, 65, 68, 69, 82, 13, 66, 73, 83, 79, 78, 13, 67, 79, 85, 67, 72, 13, 70, 76, 79], "trial": 2, "time_elapsed": 2118558, "type": "FREE_RECALL", "trial_index": 115}, "uniqueid": "MTK1554:3IFS6Q0HJJQFO8M4MQ7UC5QKL3YSIQ", "dateTime": 1515966461806}, {"current_trial": 116, "trialdata": {"rt": 2378, "trial_type": "text", "internal_node_id": "0.0-89.0", "time_elapsed": 2122945, "key_press": 32, "type": "INSTRUCTIONS", "trial_index": 116}, "uniqueid": "MTK1554:3IFS6Q0HJJQFO8M4MQ7UC5QKL3YSIQ", "dateTime": 1515966466186}, {"current_trial": 117, "trialdata": {"rt": [2655, 6544, 9903], "trial_type": "math-distractor", "key_times": [1843, 2104, 2655, 4730, 5743, 6544, 9502, 9682, 9903, 11216, 11667], "responses": ["19", "16", "11"], "num2": [7, 6, 4, 7], "num3": [3, 2, 2, 3], "conditions": [12, 1600, "v", 12000], "internal_node_id": "0.0-90.0", "key_presses": [49, 57, 13, 49, 54, 13, 49, 49, 13, 49, 52], "trial": 3, "time_elapsed": 2136953, "type": "DISTRACTOR", "trial_index": 117, "num1": [9, 8, 5, 4]}, "uniqueid": "MTK1554:3IFS6Q0HJJQFO8M4MQ7UC5QKL3YSIQ", "dateTime": 1515966480195}, {"current_trial": 118, "trialdata": {"rt": -1, "trial_type": "single-stim", "stimulus": "<p id=\"stim\">10</p>", "internal_node_id": "0.0-91.0-0.0", "time_elapsed": 2139956, "key_press": -1, "trial_index": 118}, "uniqueid": "MTK1554:3IFS6Q0HJJQFO8M4MQ7UC5QKL3YSIQ", "dateTime": 1515966483197}, {"current_trial": 119, "trialdata": {"rt": -1, "trial_type": "single-stim", "stimulus": "<p id=\"stim\">9</p>", "internal_node_id": "0.0-91.0-1.0", "time_elapsed": 2140958, "key_press": -1, "trial_index": 119}, "uniqueid": "MTK1554:3IFS6Q0HJJQFO8M4MQ7UC5QKL3YSIQ", "dateTime": 1515966484199}, {"current_trial": 120, "trialdata": {"rt": -1, "trial_type": "single-stim", "stimulus": "<p id=\"stim\">8</p>", "internal_node_id": "0.0-91.0-2.0", "time_elapsed": 2141960, "key_press": -1, "trial_index": 120}, "uniqueid": "MTK1554:3IFS6Q0HJJQFO8M4MQ7UC5QKL3YSIQ", "dateTime": 1515966485201}, {"current_trial": 121, "trialdata": {"rt": -1, "trial_type": "single-stim", "stimulus": "<p id=\"stim\">7</p>", "internal_node_id": "0.0-91.0-3.0", "time_elapsed": 2142962, "key_press": -1, "trial_index": 121}, "uniqueid": "MTK1554:3IFS6Q0HJJQFO8M4MQ7UC5QKL3YSIQ", "dateTime": 1515966486203}, {"current_trial": 122, "trialdata": {"rt": -1, "trial_type": "single-stim", "stimulus": "<p id=\"stim\">6</p>", "internal_node_id": "0.0-91.0-4.0", "time_elapsed": 2143964, "key_press": -1, "trial_index": 122}, "uniqueid": "MTK1554:3IFS6Q0HJJQFO8M4MQ7UC5QKL3YSIQ", "dateTime": 1515966487205}, {"current_trial": 123, "trialdata": {"rt": -1, "trial_type": "single-stim", "stimulus": "<p id=\"stim\">5</p>", "internal_node_id": "0.0-91.0-5.0", "time_elapsed": 2144966, "key_press": -1, "trial_index": 123}, "uniqueid": "MTK1554:3IFS6Q0HJJQFO8M4MQ7UC5QKL3YSIQ", "dateTime": 1515966488207}, {"current_trial": 124, "trialdata": {"rt": -1, "trial_type": "single-stim", "stimulus": "<p id=\"stim\">4</p>", "internal_node_id": "0.0-91.0-6.0", "time_elapsed": 2145968, "key_press": -1, "trial_index": 124}, "uniqueid": "MTK1554:3IFS6Q0HJJQFO8M4MQ7UC5QKL3YSIQ", "dateTime": 1515966489209}, {"current_trial": 125, "trialdata": {"rt": -1, "trial_type": "single-stim", "stimulus": "<p id=\"stim\">3</p>", "internal_node_id": "0.0-91.0-7.0", "time_elapsed": 2146970, "key_press": -1, "trial_index": 125}, "uniqueid": "MTK1554:3IFS6Q0HJJQFO8M4MQ7UC5QKL3YSIQ", "dateTime": 1515966490211}, {"current_trial": 126, "trialdata": {"rt": -1, "trial_type": "single-stim", "stimulus": "<p id=\"stim\">2</p>", "internal_node_id": "0.0-91.0-8.0", "time_elapsed": 2147972, "key_press": -1, "trial_index": 126}, "uniqueid": "MTK1554:3IFS6Q0HJJQFO8M4MQ7UC5QKL3YSIQ", "dateTime": 1515966491214}, {"current_trial": 127, "trialdata": {"rt": -1, "trial_type": "single-stim", "stimulus": "<p id=\"stim\">1</p>", "internal_node_id": "0.0-91.0-9.0", "time_elapsed": 2148974, "key_press": -1, "trial_index": 127}, "uniqueid": "MTK1554:3IFS6Q0HJJQFO8M4MQ7UC5QKL3YSIQ", "dateTime": 1515966492216}, {"current_trial": 128, "trialdata": {"rt": -1, "trial_type": "single-stim", "stimulus": "<p id=\"stim\">+</p>", "internal_node_id": "0.0-92.0-0.0", "time_elapsed": 2150476, "key_press": -1, "type": "FIXATION", "trial_index": 128}, "uniqueid": "MTK1554:3IFS6Q0HJJQFO8M4MQ7UC5QKL3YSIQ", "dateTime": 1515966493718}, {"current_trial": 129, "trialdata": {"rt": -1, "trial_type": "single-stim", "word": "husband", "stimulus": "<p id=\"stim\">HUSBAND</p>", "conditions": [12, 1600, "v", 12000], "internal_node_id": "0.0-93.0", "trial": 3, "time_elapsed": 2152078, "serialpos": 0, "key_press": -1, "wordID": 727, "type": "PRES_VIS", "trial_index": 129}, "uniqueid": "MTK1554:3IFS6Q0HJJQFO8M4MQ7UC5QKL3YSIQ", "dateTime": 1515966495320}, {"current_trial": 130, "trialdata": {"rt": -1, "trial_type": "single-stim", "word": "trench", "stimulus": "<p id=\"stim\">TRENCH</p>", "conditions": [12, 1600, "v", 12000], "internal_node_id": "0.0-94.0", "trial": 3, "time_elapsed": 2154849, "serialpos": 1, "key_press": -1, "wordID": 1502, "type": "PRES_VIS", "trial_index": 130}, "uniqueid": "MTK1554:3IFS6Q0HJJQFO8M4MQ7UC5QKL3YSIQ", "dateTime": 1515966498090}, {"current_trial": 131, "trialdata": {"rt": -1, "trial_type": "single-stim", "word": "binder", "stimulus": "<p id=\"stim\">BINDER</p>", "conditions": [12, 1600, "v", 12000], "internal_node_id": "0.0-95.0", "trial": 3, "time_elapsed": 2157370, "serialpos": 2, "key_press": -1, "wordID": 126, "type": "PRES_VIS", "trial_index": 131}, "uniqueid": "MTK1554:3IFS6Q0HJJQFO8M4MQ7UC5QKL3YSIQ", "dateTime": 1515966500611}, {"current_trial": 132, "trialdata": {"rt": -1, "trial_type": "single-stim", "word": "blueprint", "stimulus": "<p id=\"stim\">BLUEPRINT</p>", "conditions": [12, 1600, "v", 12000], "internal_node_id": "0.0-96.0", "trial": 3, "time_elapsed": 2160152, "serialpos": 3, "key_press": -1, "wordID": 141, "type": "PRES_VIS", "trial_index": 132}, "uniqueid": "MTK1554:3IFS6Q0HJJQFO8M4MQ7UC5QKL3YSIQ", "dateTime": 1515966503393}, {"current_trial": 133, "trialdata": {"rt": -1, "trial_type": "single-stim", "word": "pliers", "stimulus": "<p id=\"stim\">PLIERS</p>", "conditions": [12, 1600, "v", 12000], "internal_node_id": "0.0-97.0", "trial": 3, "time_elapsed": 2162685, "serialpos": 4, "key_press": -1, "wordID": 1088, "type": "PRES_VIS", "trial_index": 133}, "uniqueid": "MTK1554:3IFS6Q0HJJQFO8M4MQ7UC5QKL3YSIQ", "dateTime": 1515966505926}, {"current_trial": 134, "trialdata": {"rt": -1, "trial_type": "single-stim", "word": "bunny", "stimulus": "<p id=\"stim\">BUNNY</p>", "conditions": [12, 1600, "v", 12000], "internal_node_id": "0.0-98.0", "trial": 3, "time_elapsed": 2165371, "serialpos": 5, "key_press": -1, "wordID": 197, "type": "PRES_VIS", "trial_index": 134}, "uniqueid": "MTK1554:3IFS6Q0HJJQFO8M4MQ7UC5QKL3YSIQ", "dateTime": 1515966508613}, {"current_trial": 135, "trialdata": {"rt": -1, "trial_type": "single-stim", "word": "boyfriend", "stimulus": "<p id=\"stim\">BOYFRIEND</p>", "conditions": [12, 1600, "v", 12000], "internal_node_id": "0.0-99.0", "trial": 3, "time_elapsed": 2168115, "serialpos": 6, "key_press": -1, "wordID": 161, "type": "PRES_VIS", "trial_index": 135}, "uniqueid": "MTK1554:3IFS6Q0HJJQFO8M4MQ7UC5QKL3YSIQ", "dateTime": 1515966511357}, {"current_trial": 136, "trialdata": {"rt": -1, "trial_type": "single-stim", "word": "asia", "stimulus": "<p id=\"stim\">ASIA</p>", "conditions": [12, 1600, "v", 12000], "internal_node_id": "0.0-100.0", "trial": 3, "time_elapsed": 2170686, "serialpos": 7, "key_press": -1, "wordID": 45, "type": "PRES_VIS", "trial_index": 136}, "uniqueid": "MTK1554:3IFS6Q0HJJQFO8M4MQ7UC5QKL3YSIQ", "dateTime": 1515966513927}, {"current_trial": 137, "trialdata": {"rt": -1, "trial_type": "single-stim", "word": "robot", "stimulus": "<p id=\"stim\">ROBOT</p>", "conditions": [12, 1600, "v", 12000], "internal_node_id": "0.0-101.0", "trial": 3, "time_elapsed": 2173135, "serialpos": 8, "key_press": -1, "wordID": 1199, "type": "PRES_VIS", "trial_index": 137}, "uniqueid": "MTK1554:3IFS6Q0HJJQFO8M4MQ7UC5QKL3YSIQ", "dateTime": 1515966516376}, {"current_trial": 138, "trialdata": {"rt": -1, "trial_type": "single-stim", "word": "stove", "stimulus": "<p id=\"stim\">STOVE</p>", "conditions": [12, 1600, "v", 12000], "internal_node_id": "0.0-102.0", "trial": 3, "time_elapsed": 2175873, "serialpos": 9, "key_press": -1, "wordID": 1387, "type": "PRES_VIS", "trial_index": 138}, "uniqueid": "MTK1554:3IFS6Q0HJJQFO8M4MQ7UC5QKL3YSIQ", "dateTime": 1515966519114}, {"current_trial": 139, "trialdata": {"rt": -1, "trial_type": "single-stim", "word": "fireplace", "stimulus": "<p id=\"stim\">FIREPLACE</p>", "conditions": [12, 1600, "v", 12000], "internal_node_id": "0.0-103.0", "trial": 3, "time_elapsed": 2178629, "serialpos": 10, "key_press": -1, "wordID": 569, "type": "PRES_VIS", "trial_index": 139}, "uniqueid": "MTK1554:3IFS6Q0HJJQFO8M4MQ7UC5QKL3YSIQ", "dateTime": 1515966521870}, {"current_trial": 140, "trialdata": {"rt": -1, "trial_type": "single-stim", "word": "valve", "stimulus": "<p id=\"stim\">VALVE</p>", "conditions": [12, 1600, "v", 12000], "internal_node_id": "0.0-104.0", "trial": 3, "time_elapsed": 2181426, "serialpos": 11, "key_press": -1, "wordID": 1545, "type": "PRES_VIS", "trial_index": 140}, "uniqueid": "MTK1554:3IFS6Q0HJJQFO8M4MQ7UC5QKL3YSIQ", "dateTime": 1515966524667}, {"current_trial": 141, "trialdata": {"rt": -1, "trial_type": "single-stim", "stimulus": "", "internal_node_id": "0.0-105.0-0.0", "time_elapsed": 2183813, "key_press": -1, "type": "PRE_RECALL_DELAY", "trial_index": 141}, "uniqueid": "MTK1554:3IFS6Q0HJJQFO8M4MQ7UC5QKL3YSIQ", "dateTime": 1515966527055}, {"current_trial": 142, "trialdata": {"rt": -1000, "trial_type": "single-audio", "stimulus": "/static/audio/400Hz.wav", "internal_node_id": "0.0-106.0", "time_elapsed": 2184316, "key_press": -1, "type": "PRE_RECALL_ALERT", "trial_index": 142}, "uniqueid": "MTK1554:3IFS6Q0HJJQFO8M4MQ7UC5QKL3YSIQ", "dateTime": 1515966527558}, {"current_trial": 143, "trialdata": {"rt": [3822, 7621, 10228, 13516, 19941, 27370, 31410, 43649, 53754], "recwords": ["valve", "robot", "asia", "pliers", "binder", "trench", "stove", "fireplace", "husband"], "key_times": [2339, 2560, 2829, 3321, 3501, 3822, 6178, 6329, 6769, 6950, 7290, 7621, 9386, 9597, 9827, 10027, 10228, 12143, 12333, 12523, 12804, 13065, 13335, 13516, 18227, 18528, 19069, 19270, 19480, 19751, 19941, 25756, 25896, 26087, 26347, 26638, 26979, 27370, 29745, 30016, 30568, 30978, 31199, 31410, 41134, 41414, 41594, 41815, 42527, 42757, 42958, 43238, 43399, 43649, 51529, 51649, 51920, 52923, 53062, 53193, 53393, 53754, 57924, 58255, 58516, 59127, 59358, 59608, 59718, 59969], "trial_type": "free-recall", "conditions": [12, 1600, "v", 12000], "internal_node_id": "0.0-107.0-0.0", "key_presses": [86, 65, 76, 86, 69, 13, 82, 79, 66, 79, 84, 13, 65, 83, 73, 65, 13, 80, 76, 73, 69, 82, 83, 13, 66, 73, 78, 68, 69, 82, 13, 84, 82, 69, 78, 67, 72, 13, 83, 84, 79, 86, 69, 13, 70, 73, 82, 69, 80, 76, 65, 67, 69, 13, 72, 85, 83, 66, 65, 78, 68, 13, 66, 79, 89, 70, 82, 73, 69, 78], "trial": 3, "time_elapsed": 2244324, "type": "FREE_RECALL", "trial_index": 143}, "uniqueid": "MTK1554:3IFS6Q0HJJQFO8M4MQ7UC5QKL3YSIQ", "dateTime": 1515966587570}, {"current_trial": 144, "trialdata": {"rt": 1920, "trial_type": "text", "internal_node_id": "0.0-108.0", "time_elapsed": 2248251, "key_press": 32, "type": "INSTRUCTIONS", "trial_index": 144}, "uniqueid": "MTK1554:3IFS6Q0HJJQFO8M4MQ7UC5QKL3YSIQ", "dateTime": 1515966591493}, {"current_trial": 145, "trialdata": {"rt": [3016, 5583, 8550, 10875, 16188, 18725, 21130, 23236], "trial_type": "math-distractor", "key_times": [2585, 2806, 3016, 4771, 5001, 5583, 7748, 7918, 8550, 10343, 10534, 10875, 15607, 15848, 16188, 18284, 18474, 18725, 20649, 20850, 21130, 22765, 22975, 23236], "responses": ["21", "23", "22", "18", "20", "19", "17", "19"], "num2": [5, 8, 9, 9, 9, 6, 9, 6, 6], "num3": [9, 7, 9, 8, 7, 6, 5, 6, 7], "conditions": [24, 800, "v", 24000], "internal_node_id": "0.0-109.0", "key_presses": [50, 49, 13, 50, 51, 13, 50, 50, 13, 49, 56, 13, 50, 48, 13, 49, 57, 13, 49, 55, 13, 49, 57, 13], "trial": 4, "time_elapsed": 2274259, "type": "DISTRACTOR", "trial_index": 145, "num1": [7, 8, 4, 1, 4, 7, 3, 7, 5]}, "uniqueid": "MTK1554:3IFS6Q0HJJQFO8M4MQ7UC5QKL3YSIQ", "dateTime": 1515966617500}, {"current_trial": 146, "trialdata": {"rt": -1, "trial_type": "single-stim", "stimulus": "<p id=\"stim\">10</p>", "internal_node_id": "0.0-110.0-0.0", "time_elapsed": 2277262, "key_press": -1, "trial_index": 146}, "uniqueid": "MTK1554:3IFS6Q0HJJQFO8M4MQ7UC5QKL3YSIQ", "dateTime": 1515966620503}, {"current_trial": 147, "trialdata": {"rt": -1, "trial_type": "single-stim", "stimulus": "<p id=\"stim\">9</p>", "internal_node_id": "0.0-110.0-1.0", "time_elapsed": 2278264, "key_press": -1, "trial_index": 147}, "uniqueid": "MTK1554:3IFS6Q0HJJQFO8M4MQ7UC5QKL3YSIQ", "dateTime": 1515966621505}, {"current_trial": 148, "trialdata": {"rt": -1, "trial_type": "single-stim", "stimulus": "<p id=\"stim\">8</p>", "internal_node_id": "0.0-110.0-2.0", "time_elapsed": 2279266, "key_press": -1, "trial_index": 148}, "uniqueid": "MTK1554:3IFS6Q0HJJQFO8M4MQ7UC5QKL3YSIQ", "dateTime": 1515966622507}, {"current_trial": 149, "trialdata": {"rt": -1, "trial_type": "single-stim", "stimulus": "<p id=\"stim\">7</p>", "internal_node_id": "0.0-110.0-3.0", "time_elapsed": 2280268, "key_press": -1, "trial_index": 149}, "uniqueid": "MTK1554:3IFS6Q0HJJQFO8M4MQ7UC5QKL3YSIQ", "dateTime": 1515966623509}, {"current_trial": 150, "trialdata": {"rt": -1, "trial_type": "single-stim", "stimulus": "<p id=\"stim\">6</p>", "internal_node_id": "0.0-110.0-4.0", "time_elapsed": 2281270, "key_press": -1, "trial_index": 150}, "uniqueid": "MTK1554:3IFS6Q0HJJQFO8M4MQ7UC5QKL3YSIQ", "dateTime": 1515966624511}, {"current_trial": 151, "trialdata": {"rt": -1, "trial_type": "single-stim", "stimulus": "<p id=\"stim\">5</p>", "internal_node_id": "0.0-110.0-5.0", "time_elapsed": 2282272, "key_press": -1, "trial_index": 151}, "uniqueid": "MTK1554:3IFS6Q0HJJQFO8M4MQ7UC5QKL3YSIQ", "dateTime": 1515966625513}, {"current_trial": 152, "trialdata": {"rt": -1, "trial_type": "single-stim", "stimulus": "<p id=\"stim\">4</p>", "internal_node_id": "0.0-110.0-6.0", "time_elapsed": 2283274, "key_press": -1, "trial_index": 152}, "uniqueid": "MTK1554:3IFS6Q0HJJQFO8M4MQ7UC5QKL3YSIQ", "dateTime": 1515966626515}, {"current_trial": 153, "trialdata": {"rt": -1, "trial_type": "single-stim", "stimulus": "<p id=\"stim\">3</p>", "internal_node_id": "0.0-110.0-7.0", "time_elapsed": 2284276, "key_press": -1, "trial_index": 153}, "uniqueid": "MTK1554:3IFS6Q0HJJQFO8M4MQ7UC5QKL3YSIQ", "dateTime": 1515966627517}, {"current_trial": 154, "trialdata": {"rt": -1, "trial_type": "single-stim", "stimulus": "<p id=\"stim\">2</p>", "internal_node_id": "0.0-110.0-8.0", "time_elapsed": 2285278, "key_press": -1, "trial_index": 154}, "uniqueid": "MTK1554:3IFS6Q0HJJQFO8M4MQ7UC5QKL3YSIQ", "dateTime": 1515966628519}, {"current_trial": 155, "trialdata": {"rt": -1, "trial_type": "single-stim", "stimulus": "<p id=\"stim\">1</p>", "internal_node_id": "0.0-110.0-9.0", "time_elapsed": 2286280, "key_press": -1, "trial_index": 155}, "uniqueid": "MTK1554:3IFS6Q0HJJQFO8M4MQ7UC5QKL3YSIQ", "dateTime": 1515966629521}, {"current_trial": 156, "trialdata": {"rt": -1, "trial_type": "single-stim", "stimulus": "<p id=\"stim\">+</p>", "internal_node_id": "0.0-111.0-0.0", "time_elapsed": 2287782, "key_press": -1, "type": "FIXATION", "trial_index": 156}, "uniqueid": "MTK1554:3IFS6Q0HJJQFO8M4MQ7UC5QKL3YSIQ", "dateTime": 1515966631024}, {"current_trial": 157, "trialdata": {"rt": -1, "trial_type": "single-stim", "word": "liver", "stimulus": "<p id=\"stim\">LIVER</p>", "conditions": [24, 800, "v", 24000], "internal_node_id": "0.0-112.0", "trial": 4, "time_elapsed": 2288584, "serialpos": 0, "key_press": -1, "wordID": 832, "type": "PRES_VIS", "trial_index": 157}, "uniqueid": "MTK1554:3IFS6Q0HJJQFO8M4MQ7UC5QKL3YSIQ", "dateTime": 1515966631826}, {"current_trial": 158, "trialdata": {"rt": -1, "trial_type": "single-stim", "word": "marrow", "stimulus": "<p id=\"stim\">MARROW</p>", "conditions": [24, 800, "v", 24000], "internal_node_id": "0.0-113.0", "trial": 4, "time_elapsed": 2290360, "serialpos": 1, "key_press": -1, "wordID": 871, "type": "PRES_VIS", "trial_index": 158}, "uniqueid": "MTK1554:3IFS6Q0HJJQFO8M4MQ7UC5QKL3YSIQ", "dateTime": 1515966633602}, {"current_trial": 159, "trialdata": {"rt": -1, "trial_type": "single-stim", "word": "peach", "stimulus": "<p id=\"stim\">PEACH</p>", "conditions": [24, 800, "v", 24000], "internal_node_id": "0.0-114.0", "trial": 4, "time_elapsed": 2292316, "serialpos": 2, "key_press": -1, "wordID": 1030, "type": "PRES_VIS", "trial_index": 159}, "uniqueid": "MTK1554:3IFS6Q0HJJQFO8M4MQ7UC5QKL3YSIQ", "dateTime": 1515966635558}, {"current_trial": 160, "trialdata": {"rt": -1, "trial_type": "single-stim", "word": "dresser", "stimulus": "<p id=\"stim\">DRESSER</p>", "conditions": [24, 800, "v", 24000], "internal_node_id": "0.0-115.0", "trial": 4, "time_elapsed": 2294204, "serialpos": 3, "key_press": -1, "wordID": 495, "type": "PRES_VIS", "trial_index": 160}, "uniqueid": "MTK1554:3IFS6Q0HJJQFO8M4MQ7UC5QKL3YSIQ", "dateTime": 1515966637446}, {"current_trial": 161, "trialdata": {"rt": -1, "trial_type": "single-stim", "word": "blade", "stimulus": "<p id=\"stim\">BLADE</p>", "conditions": [24, 800, "v", 24000], "internal_node_id": "0.0-116.0", "trial": 4, "time_elapsed": 2295998, "serialpos": 4, "key_press": -1, "wordID": 133, "type": "PRES_VIS", "trial_index": 161}, "uniqueid": "MTK1554:3IFS6Q0HJJQFO8M4MQ7UC5QKL3YSIQ", "dateTime": 1515966639239}, {"current_trial": 162, "trialdata": {"rt": -1, "trial_type": "single-stim", "word": "pocket", "stimulus": "<p id=\"stim\">POCKET</p>", "conditions": [24, 800, "v", 24000], "internal_node_id": "0.0-117.0", "trial": 4, "time_elapsed": 2297679, "serialpos": 5, "key_press": -1, "wordID": 1092, "type": "PRES_VIS", "trial_index": 162}, "uniqueid": "MTK1554:3IFS6Q0HJJQFO8M4MQ7UC5QKL3YSIQ", "dateTime": 1515966640921}, {"current_trial": 163, "trialdata": {"rt": -1, "trial_type": "single-stim", "word": "shelter", "stimulus": "<p id=\"stim\">SHELTER</p>", "conditions": [24, 800, "v", 24000], "internal_node_id": "0.0-118.0", "trial": 4, "time_elapsed": 2299291, "serialpos": 6, "key_press": -1, "wordID": 1281, "type": "PRES_VIS", "trial_index": 163}, "uniqueid": "MTK1554:3IFS6Q0HJJQFO8M4MQ7UC5QKL3YSIQ", "dateTime": 1515966642532}, {"current_trial": 164, "trialdata": {"rt": -1, "trial_type": "single-stim", "word": "peanut", "stimulus": "<p id=\"stim\">PEANUT</p>", "conditions": [24, 800, "v", 24000], "internal_node_id": "0.0-119.0", "trial": 4, "time_elapsed": 2301113, "serialpos": 7, "key_press": -1, "wordID": 1031, "type": "PRES_VIS", "trial_index": 164}, "uniqueid": "MTK1554:3IFS6Q0HJJQFO8M4MQ7UC5QKL3YSIQ", "dateTime": 1515966644354}, {"current_trial": 165, "trialdata": {"rt": -1, "trial_type": "single-stim", "word": "report", "stimulus": "<p id=\"stim\">REPORT</p>", "conditions": [24, 800, "v", 24000], "internal_node_id": "0.0-120.0", "trial": 4, "time_elapsed": 2302976, "serialpos": 8, "key_press": -1, "wordID": 1183, "type": "PRES_VIS", "trial_index": 165}, "uniqueid": "MTK1554:3IFS6Q0HJJQFO8M4MQ7UC5QKL3YSIQ", "dateTime": 1515966646217}, {"current_trial": 166, "trialdata": {"rt": -1, "trial_type": "single-stim", "word": "buggy", "stimulus": "<p id=\"stim\">BUGGY</p>", "conditions": [24, 800, "v", 24000], "internal_node_id": "0.0-121.0", "trial": 4, "time_elapsed": 2304957, "serialpos": 9, "key_press": -1, "wordID": 187, "type": "PRES_VIS", "trial_index": 166}, "uniqueid": "MTK1554:3IFS6Q0HJJQFO8M4MQ7UC5QKL3YSIQ", "dateTime": 1515966648199}, {"current_trial": 167, "trialdata": {"rt": -1, "trial_type": "single-stim", "word": "bucket", "stimulus": "<p id=\"stim\">BUCKET</p>", "conditions": [24, 800, "v", 24000], "internal_node_id": "0.0-122.0", "trial": 4, "time_elapsed": 2306929, "serialpos": 10, "key_press": -1, "wordID": 183, "type": "PRES_VIS", "trial_index": 167}, "uniqueid": "MTK1554:3IFS6Q0HJJQFO8M4MQ7UC5QKL3YSIQ", "dateTime": 1515966650171}, {"current_trial": 168, "trialdata": {"rt": -1, "trial_type": "single-stim", "word": "apple", "stimulus": "<p id=\"stim\">APPLE</p>", "conditions": [24, 800, "v", 24000], "internal_node_id": "0.0-123.0", "trial": 4, "time_elapsed": 2308611, "serialpos": 11, "key_press": -1, "wordID": 32, "type": "PRES_VIS", "trial_index": 168}, "uniqueid": "MTK1554:3IFS6Q0HJJQFO8M4MQ7UC5QKL3YSIQ", "dateTime": 1515966651853}, {"current_trial": 169, "trialdata": {"rt": -1, "trial_type": "single-stim", "word": "frame", "stimulus": "<p id=\"stim\">FRAME</p>", "conditions": [24, 800, "v", 24000], "internal_node_id": "0.0-124.0", "trial": 4, "time_elapsed": 2310604, "serialpos": 12, "key_press": -1, "wordID": 599, "type": "PRES_VIS", "trial_index": 169}, "uniqueid": "MTK1554:3IFS6Q0HJJQFO8M4MQ7UC5QKL3YSIQ", "dateTime": 1515966653846}, {"current_trial": 170, "trialdata": {"rt": -1, "trial_type": "single-stim", "word": "picture", "stimulus": "<p id=\"stim\">PICTURE</p>", "conditions": [24, 800, "v", 24000], "internal_node_id": "0.0-125.0", "trial": 4, "time_elapsed": 2312418, "serialpos": 13, "key_press": -1, "wordID": 1060, "type": "PRES_VIS", "trial_index": 170}, "uniqueid": "MTK1554:3IFS6Q0HJJQFO8M4MQ7UC5QKL3YSIQ", "dateTime": 1515966655659}, {"current_trial": 171, "trialdata": {"rt": -1, "trial_type": "single-stim", "word": "glove", "stimulus": "<p id=\"stim\">GLOVE</p>", "conditions": [24, 800, "v", 24000], "internal_node_id": "0.0-126.0", "trial": 4, "time_elapsed": 2314108, "serialpos": 14, "key_press": -1, "wordID": 641, "type": "PRES_VIS", "trial_index": 171}, "uniqueid": "MTK1554:3IFS6Q0HJJQFO8M4MQ7UC5QKL3YSIQ", "dateTime": 1515966657349}, {"current_trial": 172, "trialdata": {"rt": -1, "trial_type": "single-stim", "word": "seagull", "stimulus": "<p id=\"stim\">SEAGULL</p>", "conditions": [24, 800, "v", 24000], "internal_node_id": "0.0-127.0", "trial": 4, "time_elapsed": 2316077, "serialpos": 15, "key_press": -1, "wordID": 1260, "type": "PRES_VIS", "trial_index": 172}, "uniqueid": "MTK1554:3IFS6Q0HJJQFO8M4MQ7UC5QKL3YSIQ", "dateTime": 1515966659318}, {"current_trial": 173, "trialdata": {"rt": -1, "trial_type": "single-stim", "word": "daughter", "stimulus": "<p id=\"stim\">DAUGHTER</p>", "conditions": [24, 800, "v", 24000], "internal_node_id": "0.0-128.0", "trial": 4, "time_elapsed": 2317696, "serialpos": 16, "key_press": -1, "wordID": 441, "type": "PRES_VIS", "trial_index": 173}, "uniqueid": "MTK1554:3IFS6Q0HJJQFO8M4MQ7UC5QKL3YSIQ", "dateTime": 1515966660938}, {"current_trial": 174, "trialdata": {"rt": -1, "trial_type": "single-stim", "word": "trombone", "stimulus": "<p id=\"stim\">TROMBONE</p>", "conditions": [24, 800, "v", 24000], "internal_node_id": "0.0-129.0", "trial": 4, "time_elapsed": 2319578, "serialpos": 17, "key_press": -1, "wordID": 1507, "type": "PRES_VIS", "trial_index": 174}, "uniqueid": "MTK1554:3IFS6Q0HJJQFO8M4MQ7UC5QKL3YSIQ", "dateTime": 1515966662820}, {"current_trial": 175, "trialdata": {"rt": -1, "trial_type": "single-stim", "word": "flute", "stimulus": "<p id=\"stim\">FLUTE</p>", "conditions": [24, 800, "v", 24000], "internal_node_id": "0.0-130.0", "trial": 4, "time_elapsed": 2321190, "serialpos": 18, "key_press": -1, "wordID": 584, "type": "PRES_VIS", "trial_index": 175}, "uniqueid": "MTK1554:3IFS6Q0HJJQFO8M4MQ7UC5QKL3YSIQ", "dateTime": 1515966664432}, {"current_trial": 176, "trialdata": {"rt": -1, "trial_type": "single-stim", "word": "sunset", "stimulus": "<p id=\"stim\">SUNSET</p>", "conditions": [24, 800, "v", 24000], "internal_node_id": "0.0-131.0", "trial": 4, "time_elapsed": 2322916, "serialpos": 19, "key_press": -1, "wordID": 1407, "type": "PRES_VIS", "trial_index": 176}, "uniqueid": "MTK1554:3IFS6Q0HJJQFO8M4MQ7UC5QKL3YSIQ", "dateTime": 1515966666158}, {"current_trial": 177, "trialdata": {"rt": -1, "trial_type": "single-stim", "word": "rifle", "stimulus": "<p id=\"stim\">RIFLE</p>", "conditions": [24, 800, "v", 24000], "internal_node_id": "0.0-132.0", "trial": 4, "time_elapsed": 2324585, "serialpos": 20, "key_press": -1, "wordID": 1191, "type": "PRES_VIS", "trial_index": 177}, "uniqueid": "MTK1554:3IFS6Q0HJJQFO8M4MQ7UC5QKL3YSIQ", "dateTime": 1515966667827}, {"current_trial": 178, "trialdata": {"rt": -1, "trial_type": "single-stim", "word": "taxi", "stimulus": "<p id=\"stim\">TAXI</p>", "conditions": [24, 800, "v", 24000], "internal_node_id": "0.0-133.0", "trial": 4, "time_elapsed": 2326293, "serialpos": 21, "key_press": -1, "wordID": 1437, "type": "PRES_VIS", "trial_index": 178}, "uniqueid": "MTK1554:3IFS6Q0HJJQFO8M4MQ7UC5QKL3YSIQ", "dateTime": 1515966669535}, {"current_trial": 179, "trialdata": {"rt": -1, "trial_type": "single-stim", "word": "hamper", "stimulus": "<p id=\"stim\">HAMPER</p>", "conditions": [24, 800, "v", 24000], "internal_node_id": "0.0-134.0", "trial": 4, "time_elapsed": 2327935, "serialpos": 22, "key_press": -1, "wordID": 681, "type": "PRES_VIS", "trial_index": 179}, "uniqueid": "MTK1554:3IFS6Q0HJJQFO8M4MQ7UC5QKL3YSIQ", "dateTime": 1515966671177}, {"current_trial": 180, "trialdata": {"rt": -1, "trial_type": "single-stim", "word": "cousin", "stimulus": "<p id=\"stim\">COUSIN</p>", "conditions": [24, 800, "v", 24000], "internal_node_id": "0.0-135.0", "trial": 4, "time_elapsed": 2329834, "serialpos": 23, "key_press": -1, "wordID": 391, "type": "PRES_VIS", "trial_index": 180}, "uniqueid": "MTK1554:3IFS6Q0HJJQFO8M4MQ7UC5QKL3YSIQ", "dateTime": 1515966673075}, {"current_trial": 181, "trialdata": {"rt": -1, "trial_type": "single-stim", "stimulus": "", "internal_node_id": "0.0-136.0-0.0", "time_elapsed": 2332090, "key_press": -1, "type": "PRE_RECALL_DELAY", "trial_index": 181}, "uniqueid": "MTK1554:3IFS6Q0HJJQFO8M4MQ7UC5QKL3YSIQ", "dateTime": 1515966675331}, {"current_trial": 182, "trialdata": {"rt": -1000, "trial_type": "single-audio", "stimulus": "/static/audio/400Hz.wav", "internal_node_id": "0.0-137.0", "time_elapsed": 2332592, "key_press": -1, "type": "PRE_RECALL_ALERT", "trial_index": 182}, "uniqueid": "MTK1554:3IFS6Q0HJJQFO8M4MQ7UC5QKL3YSIQ", "dateTime": 1515966675833}, {"current_trial": 183, "trialdata": {"rt": [4261, 7599, 10035, 17273, 22144, 32961, 40650, 49251, 55426], "recwords": ["rifle", "cousin", "taxi", "buggy", "dress", "pouch", "apple", "bucket", "daughter"], "key_times": [2216, 2406, 3228, 3810, 3960, 4261, 5264, 5454, 5684, 6386, 6576, 6817, 7599, 8501, 8692, 9323, 9654, 10035, 15629, 15910, 16360, 16480, 16841, 17273, 17274, 21162, 21332, 21502, 21773, 21964, 22144, 31517, 31708, 31979, 32450, 32680, 32961, 39559, 39828, 39968, 40166, 40430, 40650, 46013, 46484, 47656, 47887, 48679, 48930, 49251, 53501, 53731, 53952, 54353, 54493, 54714, 54904, 55165, 55426, 59015, 59165, 59736], "trial_type": "free-recall", "conditions": [24, 800, "v", 24000], "internal_node_id": "0.0-138.0-0.0", "key_presses": [82, 73, 70, 76, 69, 13, 67, 79, 85, 83, 73, 78, 13, 84, 65, 88, 73, 13, 66, 85, 71, 71, 89, 13, 16, 68, 82, 69, 83, 83, 13, 80, 79, 85, 67, 72, 13, 65, 80, 80, 76, 69, 13, 66, 85, 67, 75, 69, 84, 13, 68, 65, 85, 71, 72, 84, 69, 82, 13, 84, 82, 79], "trial": 4, "time_elapsed": 2392599, "type": "FREE_RECALL", "trial_index": 183}, "uniqueid": "MTK1554:3IFS6Q0HJJQFO8M4MQ7UC5QKL3YSIQ", "dateTime": 1515966735848}, {"current_trial": 184, "trialdata": {"rt": 983, "trial_type": "text", "internal_node_id": "0.0-139.0", "time_elapsed": 2395592, "key_press": 32, "type": "INSTRUCTIONS", "trial_index": 184}, "uniqueid": "MTK1554:3IFS6Q0HJJQFO8M4MQ7UC5QKL3YSIQ", "dateTime": 1515966738833}, {"current_trial": 185, "trialdata": {"rt": [2544, 5802, 7516, 9572, 12108, 14846, 17902, 19947, 22603], "trial_type": "math-distractor", "key_times": [2324, 2544, 5401, 5642, 5802, 7376, 7516, 8930, 9361, 9572, 11405, 11897, 12108, 14474, 14674, 14846, 16970, 17531, 17902, 19656, 19947, 21772, 22343, 22603], "responses": ["6", "24", "7", "15", "16", "21", "19", "8", "19"], "num2": [1, 7, 1, 3, 3, 5, 6, 1, 7, 7], "num3": [3, 9, 5, 5, 9, 7, 5, 1, 6, 3], "conditions": [24, 800, "v", 24000], "internal_node_id": "0.0-140.0", "key_presses": [54, 13, 50, 52, 13, 55, 13, 49, 53, 13, 49, 54, 13, 50, 49, 13, 49, 57, 13, 56, 13, 49, 57, 13], "trial": 5, "time_elapsed": 2421599, "type": "DISTRACTOR", "trial_index": 185, "num1": [2, 8, 1, 7, 4, 9, 8, 6, 6, 4]}, "uniqueid": "MTK1554:3IFS6Q0HJJQFO8M4MQ7UC5QKL3YSIQ", "dateTime": 1515966764841}, {"current_trial": 186, "trialdata": {"rt": -1, "trial_type": "single-stim", "stimulus": "<p id=\"stim\">10</p>", "internal_node_id": "0.0-141.0-0.0", "time_elapsed": 2424602, "key_press": -1, "trial_index": 186}, "uniqueid": "MTK1554:3IFS6Q0HJJQFO8M4MQ7UC5QKL3YSIQ", "dateTime": 1515966767843}, {"current_trial": 187, "trialdata": {"rt": -1, "trial_type": "single-stim", "stimulus": "<p id=\"stim\">9</p>", "internal_node_id": "0.0-141.0-1.0", "time_elapsed": 2425604, "key_press": -1, "trial_index": 187}, "uniqueid": "MTK1554:3IFS6Q0HJJQFO8M4MQ7UC5QKL3YSIQ", "dateTime": 1515966768845}, {"current_trial": 188, "trialdata": {"rt": -1, "trial_type": "single-stim", "stimulus": "<p id=\"stim\">8</p>", "internal_node_id": "0.0-141.0-2.0", "time_elapsed": 2426606, "key_press": -1, "trial_index": 188}, "uniqueid": "MTK1554:3IFS6Q0HJJQFO8M4MQ7UC5QKL3YSIQ", "dateTime": 1515966769848}, {"current_trial": 189, "trialdata": {"rt": -1, "trial_type": "single-stim", "stimulus": "<p id=\"stim\">7</p>", "internal_node_id": "0.0-141.0-3.0", "time_elapsed": 2427608, "key_press": -1, "trial_index": 189}, "uniqueid": "MTK1554:3IFS6Q0HJJQFO8M4MQ7UC5QKL3YSIQ", "dateTime": 1515966770850}, {"current_trial": 190, "trialdata": {"rt": -1, "trial_type": "single-stim", "stimulus": "<p id=\"stim\">6</p>", "internal_node_id": "0.0-141.0-4.0", "time_elapsed": 2428610, "key_press": -1, "trial_index": 190}, "uniqueid": "MTK1554:3IFS6Q0HJJQFO8M4MQ7UC5QKL3YSIQ", "dateTime": 1515966771851}, {"current_trial": 191, "trialdata": {"rt": -1, "trial_type": "single-stim", "stimulus": "<p id=\"stim\">5</p>", "internal_node_id": "0.0-141.0-5.0", "time_elapsed": 2429611, "key_press": -1, "trial_index": 191}, "uniqueid": "MTK1554:3IFS6Q0HJJQFO8M4MQ7UC5QKL3YSIQ", "dateTime": 1515966772853}, {"current_trial": 192, "trialdata": {"rt": -1, "trial_type": "single-stim", "stimulus": "<p id=\"stim\">4</p>", "internal_node_id": "0.0-141.0-6.0", "time_elapsed": 2430613, "key_press": -1, "trial_index": 192}, "uniqueid": "MTK1554:3IFS6Q0HJJQFO8M4MQ7UC5QKL3YSIQ", "dateTime": 1515966773854}, {"current_trial": 193, "trialdata": {"rt": -1, "trial_type": "single-stim", "stimulus": "<p id=\"stim\">3</p>", "internal_node_id": "0.0-141.0-7.0", "time_elapsed": 2431614, "key_press": -1, "trial_index": 193}, "uniqueid": "MTK1554:3IFS6Q0HJJQFO8M4MQ7UC5QKL3YSIQ", "dateTime": 1515966774856}, {"current_trial": 194, "trialdata": {"rt": -1, "trial_type": "single-stim", "stimulus": "<p id=\"stim\">2</p>", "internal_node_id": "0.0-141.0-8.0", "time_elapsed": 2432616, "key_press": -1, "trial_index": 194}, "uniqueid": "MTK1554:3IFS6Q0HJJQFO8M4MQ7UC5QKL3YSIQ", "dateTime": 1515966775857}, {"current_trial": 195, "trialdata": {"rt": -1, "trial_type": "single-stim", "stimulus": "<p id=\"stim\">1</p>", "internal_node_id": "0.0-141.0-9.0", "time_elapsed": 2433617, "key_press": -1, "trial_index": 195}, "uniqueid": "MTK1554:3IFS6Q0HJJQFO8M4MQ7UC5QKL3YSIQ", "dateTime": 1515966776859}, {"current_trial": 196, "trialdata": {"rt": -1, "trial_type": "single-stim", "stimulus": "<p id=\"stim\">+</p>", "internal_node_id": "0.0-142.0-0.0", "time_elapsed": 2435120, "key_press": -1, "type": "FIXATION", "trial_index": 196}, "uniqueid": "MTK1554:3IFS6Q0HJJQFO8M4MQ7UC5QKL3YSIQ", "dateTime": 1515966778361}, {"current_trial": 197, "trialdata": {"rt": -1, "trial_type": "single-stim", "word": "parrot", "stimulus": "<p id=\"stim\">PARROT</p>", "conditions": [24, 800, "v", 24000], "internal_node_id": "0.0-143.0", "trial": 5, "time_elapsed": 2435922, "serialpos": 0, "key_press": -1, "wordID": 1014, "type": "PRES_VIS", "trial_index": 197}, "uniqueid": "MTK1554:3IFS6Q0HJJQFO8M4MQ7UC5QKL3YSIQ", "dateTime": 1515966779163}, {"current_trial": 198, "trialdata": {"rt": -1, "trial_type": "single-stim", "word": "loft", "stimulus": "<p id=\"stim\">LOFT</p>", "conditions": [24, 800, "v", 24000], "internal_node_id": "0.0-144.0", "trial": 5, "time_elapsed": 2437764, "serialpos": 1, "key_press": -1, "wordID": 839, "type": "PRES_VIS", "trial_index": 198}, "uniqueid": "MTK1554:3IFS6Q0HJJQFO8M4MQ7UC5QKL3YSIQ", "dateTime": 1515966781005}, {"current_trial": 199, "trialdata": {"rt": -1, "trial_type": "single-stim", "word": "dorm", "stimulus": "<p id=\"stim\">DORM</p>", "conditions": [24, 800, "v", 24000], "internal_node_id": "0.0-145.0", "trial": 5, "time_elapsed": 2439563, "serialpos": 2, "key_press": -1, "wordID": 487, "type": "PRES_VIS", "trial_index": 199}, "uniqueid": "MTK1554:3IFS6Q0HJJQFO8M4MQ7UC5QKL3YSIQ", "dateTime": 1515966782804}, {"current_trial": 200, "trialdata": {"rt": -1, "trial_type": "single-stim", "word": "woman", "stimulus": "<p id=\"stim\">WOMAN</p>", "conditions": [24, 800, "v", 24000], "internal_node_id": "0.0-146.0", "trial": 5, "time_elapsed": 2441382, "serialpos": 3, "key_press": -1, "wordID": 1619, "type": "PRES_VIS", "trial_index": 200}, "uniqueid": "MTK1554:3IFS6Q0HJJQFO8M4MQ7UC5QKL3YSIQ", "dateTime": 1515966784623}, {"current_trial": 201, "trialdata": {"rt": -1, "trial_type": "single-stim", "word": "arm", "stimulus": "<p id=\"stim\">ARM</p>", "conditions": [24, 800, "v", 24000], "internal_node_id": "0.0-147.0", "trial": 5, "time_elapsed": 2443197, "serialpos": 4, "key_press": -1, "wordID": 37, "type": "PRES_VIS", "trial_index": 201}, "uniqueid": "MTK1554:3IFS6Q0HJJQFO8M4MQ7UC5QKL3YSIQ", "dateTime": 1515966786439}, {"current_trial": 202, "trialdata": {"rt": -1, "trial_type": "single-stim", "word": "lizard", "stimulus": "<p id=\"stim\">LIZARD</p>", "conditions": [24, 800, "v", 24000], "internal_node_id": "0.0-148.0", "trial": 5, "time_elapsed": 2444916, "serialpos": 5, "key_press": -1, "wordID": 833, "type": "PRES_VIS", "trial_index": 202}, "uniqueid": "MTK1554:3IFS6Q0HJJQFO8M4MQ7UC5QKL3YSIQ", "dateTime": 1515966788158}, {"current_trial": 203, "trialdata": {"rt": -1, "trial_type": "single-stim", "word": "london", "stimulus": "<p id=\"stim\">LONDON</p>", "conditions": [24, 800, "v", 24000], "internal_node_id": "0.0-149.0", "trial": 5, "time_elapsed": 2446692, "serialpos": 6, "key_press": -1, "wordID": 842, "type": "PRES_VIS", "trial_index": 203}, "uniqueid": "MTK1554:3IFS6Q0HJJQFO8M4MQ7UC5QKL3YSIQ", "dateTime": 1515966789934}, {"current_trial": 204, "trialdata": {"rt": -1, "trial_type": "single-stim", "word": "driver", "stimulus": "<p id=\"stim\">DRIVER</p>", "conditions": [24, 800, "v", 24000], "internal_node_id": "0.0-150.0", "trial": 5, "time_elapsed": 2448313, "serialpos": 7, "key_press": -1, "wordID": 498, "type": "PRES_VIS", "trial_index": 204}, "uniqueid": "MTK1554:3IFS6Q0HJJQFO8M4MQ7UC5QKL3YSIQ", "dateTime": 1515966791555}, {"current_trial": 205, "trialdata": {"rt": -1, "trial_type": "single-stim", "word": "truck", "stimulus": "<p id=\"stim\">TRUCK</p>", "conditions": [24, 800, "v", 24000], "internal_node_id": "0.0-151.0", "trial": 5, "time_elapsed": 2449978, "serialpos": 8, "key_press": -1, "wordID": 1511, "type": "PRES_VIS", "trial_index": 205}, "uniqueid": "MTK1554:3IFS6Q0HJJQFO8M4MQ7UC5QKL3YSIQ", "dateTime": 1515966793220}, {"current_trial": 206, "trialdata": {"rt": -1, "trial_type": "single-stim", "word": "poison", "stimulus": "<p id=\"stim\">POISON</p>", "conditions": [24, 800, "v", 24000], "internal_node_id": "0.0-152.0", "trial": 5, "time_elapsed": 2451874, "serialpos": 9, "key_press": -1, "wordID": 1095, "type": "PRES_VIS", "trial_index": 206}, "uniqueid": "MTK1554:3IFS6Q0HJJQFO8M4MQ7UC5QKL3YSIQ", "dateTime": 1515966795116}, {"current_trial": 207, "trialdata": {"rt": -1, "trial_type": "single-stim", "word": "slime", "stimulus": "<p id=\"stim\">SLIME</p>", "conditions": [24, 800, "v", 24000], "internal_node_id": "0.0-153.0", "trial": 5, "time_elapsed": 2453556, "serialpos": 10, "key_press": -1, "wordID": 1326, "type": "PRES_VIS", "trial_index": 207}, "uniqueid": "MTK1554:3IFS6Q0HJJQFO8M4MQ7UC5QKL3YSIQ", "dateTime": 1515966796797}, {"current_trial": 208, "trialdata": {"rt": -1, "trial_type": "single-stim", "word": "ketchup", "stimulus": "<p id=\"stim\">KETCHUP</p>", "conditions": [24, 800, "v", 24000], "internal_node_id": "0.0-154.0", "trial": 5, "time_elapsed": 2455485, "serialpos": 11, "key_press": -1, "wordID": 770, "type": "PRES_VIS", "trial_index": 208}, "uniqueid": "MTK1554:3IFS6Q0HJJQFO8M4MQ7UC5QKL3YSIQ", "dateTime": 1515966798726}, {"current_trial": 209, "trialdata": {"rt": -1, "trial_type": "single-stim", "word": "sibling", "stimulus": "<p id=\"stim\">SIBLING</p>", "conditions": [24, 800, "v", 24000], "internal_node_id": "0.0-155.0", "trial": 5, "time_elapsed": 2457180, "serialpos": 12, "key_press": -1, "wordID": 1300, "type": "PRES_VIS", "trial_index": 209}, "uniqueid": "MTK1554:3IFS6Q0HJJQFO8M4MQ7UC5QKL3YSIQ", "dateTime": 1515966800421}, {"current_trial": 210, "trialdata": {"rt": -1, "trial_type": "single-stim", "word": "knapsack", "stimulus": "<p id=\"stim\">KNAPSACK</p>", "conditions": [24, 800, "v", 24000], "internal_node_id": "0.0-156.0", "trial": 5, "time_elapsed": 2458799, "serialpos": 13, "key_press": -1, "wordID": 782, "type": "PRES_VIS", "trial_index": 210}, "uniqueid": "MTK1554:3IFS6Q0HJJQFO8M4MQ7UC5QKL3YSIQ", "dateTime": 1515966802041}, {"current_trial": 211, "trialdata": {"rt": -1, "trial_type": "single-stim", "word": "spool", "stimulus": "<p id=\"stim\">SPOOL</p>", "conditions": [24, 800, "v", 24000], "internal_node_id": "0.0-157.0", "trial": 5, "time_elapsed": 2460622, "serialpos": 14, "key_press": -1, "wordID": 1355, "type": "PRES_VIS", "trial_index": 211}, "uniqueid": "MTK1554:3IFS6Q0HJJQFO8M4MQ7UC5QKL3YSIQ", "dateTime": 1515966803864}, {"current_trial": 212, "trialdata": {"rt": -1, "trial_type": "single-stim", "word": "guard", "stimulus": "<p id=\"stim\">GUARD</p>", "conditions": [24, 800, "v", 24000], "internal_node_id": "0.0-158.0", "trial": 5, "time_elapsed": 2462365, "serialpos": 15, "key_press": -1, "wordID": 666, "type": "PRES_VIS", "trial_index": 212}, "uniqueid": "MTK1554:3IFS6Q0HJJQFO8M4MQ7UC5QKL3YSIQ", "dateTime": 1515966805607}, {"current_trial": 213, "trialdata": {"rt": -1, "trial_type": "single-stim", "word": "judge", "stimulus": "<p id=\"stim\">JUDGE</p>", "conditions": [24, 800, "v", 24000], "internal_node_id": "0.0-159.0", "trial": 5, "time_elapsed": 2464032, "serialpos": 16, "key_press": -1, "wordID": 760, "type": "PRES_VIS", "trial_index": 213}, "uniqueid": "MTK1554:3IFS6Q0HJJQFO8M4MQ7UC5QKL3YSIQ", "dateTime": 1515966807274}, {"current_trial": 214, "trialdata": {"rt": -1, "trial_type": "single-stim", "word": "toaster", "stimulus": "<p id=\"stim\">TOASTER</p>", "conditions": [24, 800, "v", 24000], "internal_node_id": "0.0-160.0", "trial": 5, "time_elapsed": 2465668, "serialpos": 17, "key_press": -1, "wordID": 1471, "type": "PRES_VIS", "trial_index": 214}, "uniqueid": "MTK1554:3IFS6Q0HJJQFO8M4MQ7UC5QKL3YSIQ", "dateTime": 1515966808910}, {"current_trial": 215, "trialdata": {"rt": -1, "trial_type": "single-stim", "word": "lake", "stimulus": "<p id=\"stim\">LAKE</p>", "conditions": [24, 800, "v", 24000], "internal_node_id": "0.0-161.0", "trial": 5, "time_elapsed": 2467499, "serialpos": 18, "key_press": -1, "wordID": 795, "type": "PRES_VIS", "trial_index": 215}, "uniqueid": "MTK1554:3IFS6Q0HJJQFO8M4MQ7UC5QKL3YSIQ", "dateTime": 1515966810741}, {"current_trial": 216, "trialdata": {"rt": -1, "trial_type": "single-stim", "word": "marsh", "stimulus": "<p id=\"stim\">MARSH</p>", "conditions": [24, 800, "v", 24000], "internal_node_id": "0.0-162.0", "trial": 5, "time_elapsed": 2469433, "serialpos": 19, "key_press": -1, "wordID": 873, "type": "PRES_VIS", "trial_index": 216}, "uniqueid": "MTK1554:3IFS6Q0HJJQFO8M4MQ7UC5QKL3YSIQ", "dateTime": 1515966812674}, {"current_trial": 217, "trialdata": {"rt": -1, "trial_type": "single-stim", "word": "salt", "stimulus": "<p id=\"stim\">SALT</p>", "conditions": [24, 800, "v", 24000], "internal_node_id": "0.0-163.0", "trial": 5, "time_elapsed": 2471219, "serialpos": 20, "key_press": -1, "wordID": 1228, "type": "PRES_VIS", "trial_index": 217}, "uniqueid": "MTK1554:3IFS6Q0HJJQFO8M4MQ7UC5QKL3YSIQ", "dateTime": 1515966814460}, {"current_trial": 218, "trialdata": {"rt": -1, "trial_type": "single-stim", "word": "snack", "stimulus": "<p id=\"stim\">SNACK</p>", "conditions": [24, 800, "v", 24000], "internal_node_id": "0.0-164.0", "trial": 5, "time_elapsed": 2472905, "serialpos": 21, "key_press": -1, "wordID": 1330, "type": "PRES_VIS", "trial_index": 218}, "uniqueid": "MTK1554:3IFS6Q0HJJQFO8M4MQ7UC5QKL3YSIQ", "dateTime": 1515966816147}, {"current_trial": 219, "trialdata": {"rt": -1, "trial_type": "single-stim", "word": "jury", "stimulus": "<p id=\"stim\">JURY</p>", "conditions": [24, 800, "v", 24000], "internal_node_id": "0.0-165.0", "trial": 5, "time_elapsed": 2474728, "serialpos": 22, "key_press": -1, "wordID": 765, "type": "PRES_VIS", "trial_index": 219}, "uniqueid": "MTK1554:3IFS6Q0HJJQFO8M4MQ7UC5QKL3YSIQ", "dateTime": 1515966817970}, {"current_trial": 220, "trialdata": {"rt": -1, "trial_type": "single-stim", "word": "scalpel", "stimulus": "<p id=\"stim\">SCALPEL</p>", "conditions": [24, 800, "v", 24000], "internal_node_id": "0.0-166.0", "trial": 5, "time_elapsed": 2476390, "serialpos": 23, "key_press": -1, "wordID": 1242, "type": "PRES_VIS", "trial_index": 220}, "uniqueid": "MTK1554:3IFS6Q0HJJQFO8M4MQ7UC5QKL3YSIQ", "dateTime": 1515966819631}, {"current_trial": 221, "trialdata": {"rt": -1, "trial_type": "single-stim", "stimulus": "", "internal_node_id": "0.0-167.0-0.0", "time_elapsed": 2478815, "key_press": -1, "type": "PRE_RECALL_DELAY", "trial_index": 221}, "uniqueid": "MTK1554:3IFS6Q0HJJQFO8M4MQ7UC5QKL3YSIQ", "dateTime": 1515966822057}, {"current_trial": 222, "trialdata": {"rt": -1000, "trial_type": "single-audio", "stimulus": "/static/audio/400Hz.wav", "internal_node_id": "0.0-168.0", "time_elapsed": 2479317, "key_press": -1, "type": "PRE_RECALL_ALERT", "trial_index": 222}, "uniqueid": "MTK1554:3IFS6Q0HJJQFO8M4MQ7UC5QKL3YSIQ", "dateTime": 1515966822559}, {"current_trial": 223, "trialdata": {"rt": [9417, 11973, 16845, 18820, 25779, 33586, 36063, 48102, 59870], "recwords": ["scalpela", "arm", "dorm", "woman", "sibling", "march", "judge", "loft", "seagull"], "key_times": [1729, 2049, 2410, 2610, 2771, 3242, 3383, 7723, 7994, 9106, 9417, 10810, 11131, 11664, 11973, 15582, 15762, 16304, 16504, 16845, 17828, 17978, 18209, 18389, 18519, 18820, 23291, 23582, 24013, 24564, 24765, 25165, 25386, 25779, 30930, 31090, 31440, 31843, 32002, 33586, 34758, 34939, 35471, 35661, 35851, 36063, 47059, 47229, 47523, 47660, 48102, 56242, 56442, 56673, 57725, 57936, 59102, 59563, 59870], "trial_type": "free-recall", "conditions": [24, 800, "v", 24000], "internal_node_id": "0.0-169.0-0.0", "key_presses": [83, 67, 65, 76, 80, 69, 76, 65, 82, 8, 13, 65, 82, 77, 13, 68, 79, 82, 77, 13, 87, 79, 77, 65, 78, 13, 83, 73, 66, 76, 73, 78, 71, 13, 77, 65, 82, 67, 72, 13, 74, 85, 68, 71, 69, 13, 76, 79, 70, 84, 13, 83, 69, 65, 71, 85, 76, 76, 13], "trial": 5, "time_elapsed": 2539330, "type": "FREE_RECALL", "trial_index": 223}, "uniqueid": "MTK1554:3IFS6Q0HJJQFO8M4MQ7UC5QKL3YSIQ", "dateTime": 1515966882577}, {"current_trial": 224, "trialdata": {"rt": 1334, "trial_type": "text", "internal_node_id": "0.0-170.0", "time_elapsed": 2542671, "key_press": 32, "type": "INSTRUCTIONS", "trial_index": 224}, "uniqueid": "MTK1554:3IFS6Q0HJJQFO8M4MQ7UC5QKL3YSIQ", "dateTime": 1515966885913}, {"current_trial": 225, "trialdata": {"rt": [2535, 5311, 8540, 10695, 14174, 16489, 18504, 20940, 23987], "trial_type": "math-distractor", "key_times": [1984, 2295, 2535, 4672, 5011, 5311, 6916, 7197, 8540, 10224, 10444, 10695, 12860, 13522, 14174, 16108, 16269, 16489, 18314, 18504, 20268, 20729, 20940, 23085, 23737, 23987], "responses": ["20", "14", "13", "23", "16", "11", "7", "14", "19"], "num2": [5, 7, 3, 5, 2, 4, 1, 3, 8, 6], "num3": [7, 2, 6, 9, 7, 5, 3, 7, 5, 4], "conditions": [12, 800, "v", 24000], "internal_node_id": "0.0-171.0", "key_presses": [50, 48, 13, 49, 52, 13, 49, 51, 13, 50, 51, 13, 49, 54, 13, 49, 49, 13, 55, 13, 49, 52, 13, 49, 57, 13], "trial": 6, "time_elapsed": 2568679, "type": "DISTRACTOR", "trial_index": 225, "num1": [8, 5, 4, 8, 7, 2, 3, 4, 6, 3]}, "uniqueid": "MTK1554:3IFS6Q0HJJQFO8M4MQ7UC5QKL3YSIQ", "dateTime": 1515966911921}, {"current_trial": 226, "trialdata": {"rt": -1, "trial_type": "single-stim", "stimulus": "<p id=\"stim\">10</p>", "internal_node_id": "0.0-172.0-0.0", "time_elapsed": 2571682, "key_press": -1, "trial_index": 226}, "uniqueid": "MTK1554:3IFS6Q0HJJQFO8M4MQ7UC5QKL3YSIQ", "dateTime": 1515966914924}, {"current_trial": 227, "trialdata": {"rt": -1, "trial_type": "single-stim", "stimulus": "<p id=\"stim\">9</p>", "internal_node_id": "0.0-172.0-1.0", "time_elapsed": 2572684, "key_press": -1, "trial_index": 227}, "uniqueid": "MTK1554:3IFS6Q0HJJQFO8M4MQ7UC5QKL3YSIQ", "dateTime": 1515966915926}, {"current_trial": 228, "trialdata": {"rt": -1, "trial_type": "single-stim", "stimulus": "<p id=\"stim\">8</p>", "internal_node_id": "0.0-172.0-2.0", "time_elapsed": 2573687, "key_press": -1, "trial_index": 228}, "uniqueid": "MTK1554:3IFS6Q0HJJQFO8M4MQ7UC5QKL3YSIQ", "dateTime": 1515966916928}, {"current_trial": 229, "trialdata": {"rt": -1, "trial_type": "single-stim", "stimulus": "<p id=\"stim\">7</p>", "internal_node_id": "0.0-172.0-3.0", "time_elapsed": 2574695, "key_press": -1, "trial_index": 229}, "uniqueid": "MTK1554:3IFS6Q0HJJQFO8M4MQ7UC5QKL3YSIQ", "dateTime": 1515966917936}, {"current_trial": 230, "trialdata": {"rt": -1, "trial_type": "single-stim", "stimulus": "<p id=\"stim\">6</p>", "internal_node_id": "0.0-172.0-4.0", "time_elapsed": 2575697, "key_press": -1, "trial_index": 230}, "uniqueid": "MTK1554:3IFS6Q0HJJQFO8M4MQ7UC5QKL3YSIQ", "dateTime": 1515966918938}, {"current_trial": 231, "trialdata": {"rt": -1, "trial_type": "single-stim", "stimulus": "<p id=\"stim\">5</p>", "internal_node_id": "0.0-172.0-5.0", "time_elapsed": 2576699, "key_press": -1, "trial_index": 231}, "uniqueid": "MTK1554:3IFS6Q0HJJQFO8M4MQ7UC5QKL3YSIQ", "dateTime": 1515966919940}, {"current_trial": 232, "trialdata": {"rt": -1, "trial_type": "single-stim", "stimulus": "<p id=\"stim\">4</p>", "internal_node_id": "0.0-172.0-6.0", "time_elapsed": 2577701, "key_press": -1, "trial_index": 232}, "uniqueid": "MTK1554:3IFS6Q0HJJQFO8M4MQ7UC5QKL3YSIQ", "dateTime": 1515966920942}, {"current_trial": 233, "trialdata": {"rt": -1, "trial_type": "single-stim", "stimulus": "<p id=\"stim\">3</p>", "internal_node_id": "0.0-172.0-7.0", "time_elapsed": 2578703, "key_press": -1, "trial_index": 233}, "uniqueid": "MTK1554:3IFS6Q0HJJQFO8M4MQ7UC5QKL3YSIQ", "dateTime": 1515966921944}, {"current_trial": 234, "trialdata": {"rt": -1, "trial_type": "single-stim", "stimulus": "<p id=\"stim\">2</p>", "internal_node_id": "0.0-172.0-8.0", "time_elapsed": 2579705, "key_press": -1, "trial_index": 234}, "uniqueid": "MTK1554:3IFS6Q0HJJQFO8M4MQ7UC5QKL3YSIQ", "dateTime": 1515966922947}, {"current_trial": 235, "trialdata": {"rt": -1, "trial_type": "single-stim", "stimulus": "<p id=\"stim\">1</p>", "internal_node_id": "0.0-172.0-9.0", "time_elapsed": 2580707, "key_press": -1, "trial_index": 235}, "uniqueid": "MTK1554:3IFS6Q0HJJQFO8M4MQ7UC5QKL3YSIQ", "dateTime": 1515966923948}, {"current_trial": 236, "trialdata": {"rt": -1, "trial_type": "single-stim", "stimulus": "<p id=\"stim\">+</p>", "internal_node_id": "0.0-173.0-0.0", "time_elapsed": 2582209, "key_press": -1, "type": "FIXATION", "trial_index": 236}, "uniqueid": "MTK1554:3IFS6Q0HJJQFO8M4MQ7UC5QKL3YSIQ", "dateTime": 1515966925451}, {"current_trial": 237, "trialdata": {"rt": -1, "trial_type": "single-stim", "word": "crevice", "stimulus": "<p id=\"stim\">CREVICE</p>", "conditions": [12, 800, "v", 24000], "internal_node_id": "0.0-174.0", "trial": 6, "time_elapsed": 2583011, "serialpos": 0, "key_press": -1, "wordID": 404, "type": "PRES_VIS", "trial_index": 237}, "uniqueid": "MTK1554:3IFS6Q0HJJQFO8M4MQ7UC5QKL3YSIQ", "dateTime": 1515966926253}, {"current_trial": 238, "trialdata": {"rt": -1, "trial_type": "single-stim", "word": "college", "stimulus": "<p id=\"stim\">COLLEGE</p>", "conditions": [12, 800, "v", 24000], "internal_node_id": "0.0-175.0", "trial": 6, "time_elapsed": 2584684, "serialpos": 1, "key_press": -1, "wordID": 345, "type": "PRES_VIS", "trial_index": 238}, "uniqueid": "MTK1554:3IFS6Q0HJJQFO8M4MQ7UC5QKL3YSIQ", "dateTime": 1515966927926}, {"current_trial": 239, "trialdata": {"rt": -1, "trial_type": "single-stim", "word": "dragon", "stimulus": "<p id=\"stim\">DRAGON</p>", "conditions": [12, 800, "v", 24000], "internal_node_id": "0.0-176.0", "trial": 6, "time_elapsed": 2586538, "serialpos": 2, "key_press": -1, "wordID": 491, "type": "PRES_VIS", "trial_index": 239}, "uniqueid": "MTK1554:3IFS6Q0HJJQFO8M4MQ7UC5QKL3YSIQ", "dateTime": 1515966929780}, {"current_trial": 240, "trialdata": {"rt": -1, "trial_type": "single-stim", "word": "badge", "stimulus": "<p id=\"stim\">BADGE</p>", "conditions": [12, 800, "v", 24000], "internal_node_id": "0.0-177.0", "trial": 6, "time_elapsed": 2588311, "serialpos": 3, "key_press": -1, "wordID": 67, "type": "PRES_VIS", "trial_index": 240}, "uniqueid": "MTK1554:3IFS6Q0HJJQFO8M4MQ7UC5QKL3YSIQ", "dateTime": 1515966931553}, {"current_trial": 241, "trialdata": {"rt": -1, "trial_type": "single-stim", "word": "climber", "stimulus": "<p id=\"stim\">CLIMBER</p>", "conditions": [12, 800, "v", 24000], "internal_node_id": "0.0-178.0", "trial": 6, "time_elapsed": 2589997, "serialpos": 4, "key_press": -1, "wordID": 322, "type": "PRES_VIS", "trial_index": 241}, "uniqueid": "MTK1554:3IFS6Q0HJJQFO8M4MQ7UC5QKL3YSIQ", "dateTime": 1515966933238}, {"current_trial": 242, "trialdata": {"rt": -1, "trial_type": "single-stim", "word": "hiker", "stimulus": "<p id=\"stim\">HIKER</p>", "conditions": [12, 800, "v", 24000], "internal_node_id": "0.0-179.0", "trial": 6, "time_elapsed": 2591904, "serialpos": 5, "key_press": -1, "wordID": 707, "type": "PRES_VIS", "trial_index": 242}, "uniqueid": "MTK1554:3IFS6Q0HJJQFO8M4MQ7UC5QKL3YSIQ", "dateTime": 1515966935146}, {"current_trial": 243, "trialdata": {"rt": -1, "trial_type": "single-stim", "word": "sticker", "stimulus": "<p id=\"stim\">STICKER</p>", "conditions": [12, 800, "v", 24000], "internal_node_id": "0.0-180.0", "trial": 6, "time_elapsed": 2593778, "serialpos": 6, "key_press": -1, "wordID": 1381, "type": "PRES_VIS", "trial_index": 243}, "uniqueid": "MTK1554:3IFS6Q0HJJQFO8M4MQ7UC5QKL3YSIQ", "dateTime": 1515966937020}, {"current_trial": 244, "trialdata": {"rt": -1, "trial_type": "single-stim", "word": "spouse", "stimulus": "<p id=\"stim\">SPOUSE</p>", "conditions": [12, 800, "v", 24000], "internal_node_id": "0.0-181.0", "trial": 6, "time_elapsed": 2595700, "serialpos": 7, "key_press": -1, "wordID": 1357, "type": "PRES_VIS", "trial_index": 244}, "uniqueid": "MTK1554:3IFS6Q0HJJQFO8M4MQ7UC5QKL3YSIQ", "dateTime": 1515966938942}, {"current_trial": 245, "trialdata": {"rt": -1, "trial_type": "single-stim", "word": "journal", "stimulus": "<p id=\"stim\">JOURNAL</p>", "conditions": [12, 800, "v", 24000], "internal_node_id": "0.0-182.0", "trial": 6, "time_elapsed": 2597609, "serialpos": 8, "key_press": -1, "wordID": 759, "type": "PRES_VIS", "trial_index": 245}, "uniqueid": "MTK1554:3IFS6Q0HJJQFO8M4MQ7UC5QKL3YSIQ", "dateTime": 1515966940850}, {"current_trial": 246, "trialdata": {"rt": -1, "trial_type": "single-stim", "word": "doughnut", "stimulus": "<p id=\"stim\">DOUGHNUT</p>", "conditions": [12, 800, "v", 24000], "internal_node_id": "0.0-183.0", "trial": 6, "time_elapsed": 2599230, "serialpos": 9, "key_press": -1, "wordID": 489, "type": "PRES_VIS", "trial_index": 246}, "uniqueid": "MTK1554:3IFS6Q0HJJQFO8M4MQ7UC5QKL3YSIQ", "dateTime": 1515966942472}, {"current_trial": 247, "trialdata": {"rt": -1, "trial_type": "single-stim", "word": "necklace", "stimulus": "<p id=\"stim\">NECKLACE</p>", "conditions": [12, 800, "v", 24000], "internal_node_id": "0.0-184.0", "trial": 6, "time_elapsed": 2601082, "serialpos": 10, "key_press": -1, "wordID": 939, "type": "PRES_VIS", "trial_index": 247}, "uniqueid": "MTK1554:3IFS6Q0HJJQFO8M4MQ7UC5QKL3YSIQ", "dateTime": 1515966944324}, {"current_trial": 248, "trialdata": {"rt": -1, "trial_type": "single-stim", "word": "survey", "stimulus": "<p id=\"stim\">SURVEY</p>", "conditions": [12, 800, "v", 24000], "internal_node_id": "0.0-185.0", "trial": 6, "time_elapsed": 2603045, "serialpos": 11, "key_press": -1, "wordID": 1413, "type": "PRES_VIS", "trial_index": 248}, "uniqueid": "MTK1554:3IFS6Q0HJJQFO8M4MQ7UC5QKL3YSIQ", "dateTime": 1515966946287}, {"current_trial": 249, "trialdata": {"rt": -1, "trial_type": "single-stim", "stimulus": "", "internal_node_id": "0.0-186.0-0.0", "time_elapsed": 2605279, "key_press": -1, "type": "PRE_RECALL_DELAY", "trial_index": 249}, "uniqueid": "MTK1554:3IFS6Q0HJJQFO8M4MQ7UC5QKL3YSIQ", "dateTime": 1515966948521}, {"current_trial": 250, "trialdata": {"rt": -1000, "trial_type": "single-audio", "stimulus": "/static/audio/400Hz.wav", "internal_node_id": "0.0-187.0", "time_elapsed": 2605782, "key_press": -1, "type": "PRE_RECALL_ALERT", "trial_index": 250}, "uniqueid": "MTK1554:3IFS6Q0HJJQFO8M4MQ7UC5QKL3YSIQ", "dateTime": 1515966949024}, {"current_trial": 251, "trialdata": {"rt": [4519, 9140, 14315, 20558, 39324, 58781], "recwords": ["survey", "necklace", "badge", "crevice", "spouse", "college"], "key_times": [2564, 2844, 3195, 3566, 3767, 3977, 4519, 5902, 6112, 6864, 6994, 7155, 7275, 7556, 8047, 8328, 8578, 9140, 12588, 12909, 13189, 13651, 13811, 14315, 18123, 18543, 18763, 19284, 19746, 19946, 20197, 20558, 37743, 37981, 38142, 38482, 38822, 39073, 39324, 57158, 57448, 57629, 57761, 57970, 58330, 58461, 58781], "trial_type": "free-recall", "conditions": [12, 800, "v", 24000], "internal_node_id": "0.0-188.0-0.0", "key_presses": [83, 85, 82, 86, 69, 89, 13, 78, 69, 67, 75, 76, 65, 83, 8, 67, 69, 13, 66, 65, 68, 71, 69, 13, 67, 82, 69, 86, 73, 67, 69, 13