{"condition": 0, "counterbalance": 2468, "assignmentId": "33IZTU6J828CE3BZLC7VFFDZ7ZPXSI", "workerId": "MTK1187", "hitId": "3UL5XDRDNCQJ6GEMB6DTHLQUNSM85F", "currenttrial": 626, "bonus": 0, "data": [{"uniqueid": "MTK1187:33IZTU6J828CE3BZLC7VFFDZ7ZPXSI", "current_trial": 0, "dateTime": 1513282142092, "trialdata": {"rt": 2304, "key_press": 32, "type": "INSTRUCTIONS", "trial_type": "text", "trial_index": 0, "time_elapsed": 2306, "internal_node_id": "0.0-0.0"}}, {"uniqueid": "MTK1187:33IZTU6J828CE3BZLC7VFFDZ7ZPXSI", "current_trial": 1, "dateTime": 1513282148608, "trialdata": {"rt": 6515, "key_press": 175, "type": "INSTRUCTIONS", "trial_type": "text", "trial_index": 1, "time_elapsed": 8822, "internal_node_id": "0.0-1.0"}}, {"uniqueid": "MTK1187:33IZTU6J828CE3BZLC7VFFDZ7ZPXSI", "current_trial": 2, "dateTime": 1513282163525, "trialdata": {"rt": [14910], "responses": ["ocean"], "type": "AUDIO_TEST", "trial_type": "audio-test", "trial_index": 2, "time_elapsed": 23739, "internal_node_id": "0.0-2.0"}}, {"uniqueid": "MTK1187:33IZTU6J828CE3BZLC7VFFDZ7ZPXSI", "current_trial": 3, "dateTime": 1513282172347, "trialdata": {"rt": [8819], "responses": ["crystal"], "type": "AUDIO_TEST", "trial_type": "audio-test", "trial_index": 3, "time_elapsed": 32561, "internal_node_id": "0.0-3.0"}}, {"uniqueid": "MTK1187:33IZTU6J828CE3BZLC7VFFDZ7ZPXSI", "current_trial": 4, "dateTime": 1513282177379, "trialdata": {"rt": [5028], "responses": ["spice"], "type": "AUDIO_TEST", "trial_type": "audio-test", "trial_index": 4, "time_elapsed": 37593, "internal_node_id": "0.0-4.0"}}, {"uniqueid": "MTK1187:33IZTU6J828CE3BZLC7VFFDZ7ZPXSI", "current_trial": 5, "dateTime": 1513282236829, "trialdata": {"rt": 58698, "responses": "{\"Q0\":\"11:00 pm\",\"Q1\":\"8:00 am\",\"Q2\":\"4\"}", "type": "SLEEP_SURVEY", "trial_type": "survey-text", "trial_index": 5, "time_elapsed": 97043, "internal_node_id": "0.0-5.0"}}, {"uniqueid": "MTK1187:33IZTU6J828CE3BZLC7VFFDZ7ZPXSI", "current_trial": 6, "dateTime": 1513282269250, "trialdata": {"rt": 31419, "key_press": 32, "type": "INSTRUCTIONS", "trial_type": "text", "trial_index": 6, "time_elapsed": 129464, "internal_node_id": "0.0-6.0"}}, {"uniqueid": "MTK1187:33IZTU6J828CE3BZLC7VFFDZ7ZPXSI", "current_trial": 7, "dateTime": 1513282290418, "trialdata": {"rt": 20666, "key_press": 32, "type": "INSTRUCTIONS", "trial_type": "text", "trial_index": 7, "time_elapsed": 150632, "internal_node_id": "0.0-7.0"}}, {"uniqueid": "MTK1187:33IZTU6J828CE3BZLC7VFFDZ7ZPXSI", "current_trial": 8, "dateTime": 1513282295073, "trialdata": {"rt": 4154, "key_press": 122, "type": "INSTRUCTIONS", "trial_type": "text", "trial_index": 8, "time_elapsed": 155287, "internal_node_id": "0.0-8.0"}}, {"uniqueid": "MTK1187:33IZTU6J828CE3BZLC7VFFDZ7ZPXSI", "current_trial": 9, "dateTime": 1513282314076, "trialdata": {"rt": [5012, 7932, 10715, 13547, 16131], "responses": ["15", "16", "16", "6", "22"], "num1": [7, 7, 5, 3, 8, 9], "num2": [9, 1, 9, 1, 6, 1], "num3": [3, 8, 2, 2, 8, 6], "type": "DISTRACTOR", "conditions": [18, 1200, "v", 18000], "trial": 0, "trial_type": "math-distractor", "trial_index": 9, "time_elapsed": 174290, "internal_node_id": "0.0-9.0"}}, {"uniqueid": "MTK1187:33IZTU6J828CE3BZLC7VFFDZ7ZPXSI", "current_trial": 10, "dateTime": 1513282317078, "trialdata": {"rt": -1, "stimulus": "<p id=\"stim\">10</p>", "key_press": -1, "trial_type": "single-stim", "trial_index": 10, "time_elapsed": 177292, "internal_node_id": "0.0-10.0-0.0"}}, {"uniqueid": "MTK1187:33IZTU6J828CE3BZLC7VFFDZ7ZPXSI", "current_trial": 11, "dateTime": 1513282318080, "trialdata": {"rt": -1, "stimulus": "<p id=\"stim\">9</p>", "key_press": -1, "trial_type": "single-stim", "trial_index": 11, "time_elapsed": 178294, "internal_node_id": "0.0-10.0-1.0"}}, {"uniqueid": "MTK1187:33IZTU6J828CE3BZLC7VFFDZ7ZPXSI", "current_trial": 12, "dateTime": 1513282319082, "trialdata": {"rt": -1, "stimulus": "<p id=\"stim\">8</p>", "key_press": -1, "trial_type": "single-stim", "trial_index": 12, "time_elapsed": 179296, "internal_node_id": "0.0-10.0-2.0"}}, {"uniqueid": "MTK1187:33IZTU6J828CE3BZLC7VFFDZ7ZPXSI", "current_trial": 13, "dateTime": 1513282320083, "trialdata": {"rt": -1, "stimulus": "<p id=\"stim\">7</p>", "key_press": -1, "trial_type": "single-stim", "trial_index": 13, "time_elapsed": 180297, "internal_node_id": "0.0-10.0-3.0"}}, {"uniqueid": "MTK1187:33IZTU6J828CE3BZLC7VFFDZ7ZPXSI", "current_trial": 14, "dateTime": 1513282321085, "trialdata": {"rt": -1, "stimulus": "<p id=\"stim\">6</p>", "key_press": -1, "trial_type": "single-stim", "trial_index": 14, "time_elapsed": 181299, "internal_node_id": "0.0-10.0-4.0"}}, {"uniqueid": "MTK1187:33IZTU6J828CE3BZLC7VFFDZ7ZPXSI", "current_trial": 15, "dateTime": 1513282322086, "trialdata": {"rt": -1, "stimulus": "<p id=\"stim\">5</p>", "key_press": -1, "trial_type": "single-stim", "trial_index": 15, "time_elapsed": 182300, "internal_node_id": "0.0-10.0-5.0"}}, {"uniqueid": "MTK1187:33IZTU6J828CE3BZLC7VFFDZ7ZPXSI", "current_trial": 16, "dateTime": 1513282323087, "trialdata": {"rt": -1, "stimulus": "<p id=\"stim\">4</p>", "key_press": -1, "trial_type": "single-stim", "trial_index": 16, "time_elapsed": 183301, "internal_node_id": "0.0-10.0-6.0"}}, {"uniqueid": "MTK1187:33IZTU6J828CE3BZLC7VFFDZ7ZPXSI", "current_trial": 17, "dateTime": 1513282324089, "trialdata": {"rt": -1, "stimulus": "<p id=\"stim\">3</p>", "key_press": -1, "trial_type": "single-stim", "trial_index": 17, "time_elapsed": 184303, "internal_node_id": "0.0-10.0-7.0"}}, {"uniqueid": "MTK1187:33IZTU6J828CE3BZLC7VFFDZ7ZPXSI", "current_trial": 18, "dateTime": 1513282325090, "trialdata": {"rt": -1, "stimulus": "<p id=\"stim\">2</p>", "key_press": -1, "trial_type": "single-stim", "trial_index": 18, "time_elapsed": 185304, "internal_node_id": "0.0-10.0-8.0"}}, {"uniqueid": "MTK1187:33IZTU6J828CE3BZLC7VFFDZ7ZPXSI", "current_trial": 19, "dateTime": 1513282326092, "trialdata": {"rt": -1, "stimulus": "<p id=\"stim\">1</p>", "key_press": -1, "trial_type": "single-stim", "trial_index": 19, "time_elapsed": 186306, "internal_node_id": "0.0-10.0-9.0"}}, {"uniqueid": "MTK1187:33IZTU6J828CE3BZLC7VFFDZ7ZPXSI", "current_trial": 20, "dateTime": 1513282327593, "trialdata": {"rt": -1, "stimulus": "<p id=\"stim\">+</p>", "key_press": -1, "type": "FIXATION", "trial_type": "single-stim", "trial_index": 20, "time_elapsed": 187807, "internal_node_id": "0.0-11.0-0.0"}}, {"uniqueid": "MTK1187:33IZTU6J828CE3BZLC7VFFDZ7ZPXSI", "current_trial": 21, "dateTime": 1513282328794, "trialdata": {"rt": -1, "stimulus": "<p id=\"stim\">BISON</p>", "key_press": -1, "type": "PRES_VIS", "word": "bison", "wordID": 130, "conditions": [18, 1200, "v", 18000], "trial": 0, "serialpos": 0, "trial_type": "single-stim", "trial_index": 21, "time_elapsed": 189008, "internal_node_id": "0.0-12.0"}}, {"uniqueid": "MTK1187:33IZTU6J828CE3BZLC7VFFDZ7ZPXSI", "current_trial": 22, "dateTime": 1513282331193, "trialdata": {"rt": -1, "stimulus": "<p id=\"stim\">STICKER</p>", "key_press": -1, "type": "PRES_VIS", "word": "sticker", "wordID": 1381, "conditions": [18, 1200, "v", 18000], "trial": 0, "serialpos": 1, "trial_type": "single-stim", "trial_index": 22, "time_elapsed": 191407, "internal_node_id": "0.0-13.0"}}, {"uniqueid": "MTK1187:33IZTU6J828CE3BZLC7VFFDZ7ZPXSI", "current_trial": 23, "dateTime": 1513282333220, "trialdata": {"rt": -1, "stimulus": "<p id=\"stim\">BODY</p>", "key_press": -1, "type": "PRES_VIS", "word": "body", "wordID": 144, "conditions": [18, 1200, "v", 18000], "trial": 0, "serialpos": 2, "trial_type": "single-stim", "trial_index": 23, "time_elapsed": 193434, "internal_node_id": "0.0-14.0"}}, {"uniqueid": "MTK1187:33IZTU6J828CE3BZLC7VFFDZ7ZPXSI", "current_trial": 24, "dateTime": 1513282335256, "trialdata": {"rt": -1, "stimulus": "<p id=\"stim\">VALLEY</p>", "key_press": -1, "type": "PRES_VIS", "word": "valley", "wordID": 1544, "conditions": [18, 1200, "v", 18000], "trial": 0, "serialpos": 3, "trial_type": "single-stim", "trial_index": 24, "time_elapsed": 195470, "internal_node_id": "0.0-15.0"}}, {"uniqueid": "MTK1187:33IZTU6J828CE3BZLC7VFFDZ7ZPXSI", "current_trial": 25, "dateTime": 1513282337272, "trialdata": {"rt": -1, "stimulus": "<p id=\"stim\">CARRIAGE</p>", "key_press": -1, "type": "PRES_VIS", "word": "carriage", "wordID": 247, "conditions": [18, 1200, "v", 18000], "trial": 0, "serialpos": 4, "trial_type": "single-stim", "trial_index": 25, "time_elapsed": 197486, "internal_node_id": "0.0-16.0"}}, {"uniqueid": "MTK1187:33IZTU6J828CE3BZLC7VFFDZ7ZPXSI", "current_trial": 26, "dateTime": 1513282339645, "trialdata": {"rt": -1, "stimulus": "<p id=\"stim\">WITNESS</p>", "key_press": -1, "type": "PRES_VIS", "word": "witness", "wordID": 1617, "conditions": [18, 1200, "v", 18000], "trial": 0, "serialpos": 5, "trial_type": "single-stim", "trial_index": 26, "time_elapsed": 199859, "internal_node_id": "0.0-17.0"}}, {"uniqueid": "MTK1187:33IZTU6J828CE3BZLC7VFFDZ7ZPXSI", "current_trial": 27, "dateTime": 1513282341867, "trialdata": {"rt": -1, "stimulus": "<p id=\"stim\">SPOON</p>", "key_press": -1, "type": "PRES_VIS", "word": "spoon", "wordID": 1356, "conditions": [18, 1200, "v", 18000], "trial": 0, "serialpos": 6, "trial_type": "single-stim", "trial_index": 27, "time_elapsed": 202081, "internal_node_id": "0.0-18.0"}}, {"uniqueid": "MTK1187:33IZTU6J828CE3BZLC7VFFDZ7ZPXSI", "current_trial": 28, "dateTime": 1513282343872, "trialdata": {"rt": -1, "stimulus": "<p id=\"stim\">FINGER</p>", "key_press": -1, "type": "PRES_VIS", "word": "finger", "wordID": 566, "conditions": [18, 1200, "v", 18000], "trial": 0, "serialpos": 7, "trial_type": "single-stim", "trial_index": 28, "time_elapsed": 204086, "internal_node_id": "0.0-19.0"}}, {"uniqueid": "MTK1187:33IZTU6J828CE3BZLC7VFFDZ7ZPXSI", "current_trial": 29, "dateTime": 1513282346105, "trialdata": {"rt": -1, "stimulus": "<p id=\"stim\">FOREST</p>", "key_press": -1, "type": "PRES_VIS", "word": "forest", "wordID": 592, "conditions": [18, 1200, "v", 18000], "trial": 0, "serialpos": 8, "trial_type": "single-stim", "trial_index": 29, "time_elapsed": 206319, "internal_node_id": "0.0-20.0"}}, {"uniqueid": "MTK1187:33IZTU6J828CE3BZLC7VFFDZ7ZPXSI", "current_trial": 30, "dateTime": 1513282348362, "trialdata": {"rt": -1, "stimulus": "<p id=\"stim\">CURTAIN</p>", "key_press": -1, "type": "PRES_VIS", "word": "curtain", "wordID": 426, "conditions": [18, 1200, "v", 18000], "trial": 0, "serialpos": 9, "trial_type": "single-stim", "trial_index": 30, "time_elapsed": 208576, "internal_node_id": "0.0-21.0"}}, {"uniqueid": "MTK1187:33IZTU6J828CE3BZLC7VFFDZ7ZPXSI", "current_trial": 31, "dateTime": 1513282350571, "trialdata": {"rt": -1, "stimulus": "<p id=\"stim\">COCOON</p>", "key_press": -1, "type": "PRES_VIS", "word": "cocoon", "wordID": 338, "conditions": [18, 1200, "v", 18000], "trial": 0, "serialpos": 10, "trial_type": "single-stim", "trial_index": 31, "time_elapsed": 210785, "internal_node_id": "0.0-22.0"}}, {"uniqueid": "MTK1187:33IZTU6J828CE3BZLC7VFFDZ7ZPXSI", "current_trial": 32, "dateTime": 1513282352580, "trialdata": {"rt": -1, "stimulus": "<p id=\"stim\">TRANSPLANT</p>", "key_press": -1, "type": "PRES_VIS", "word": "transplant", "wordID": 1495, "conditions": [18, 1200, "v", 18000], "trial": 0, "serialpos": 11, "trial_type": "single-stim", "trial_index": 32, "time_elapsed": 212794, "internal_node_id": "0.0-23.0"}}, {"uniqueid": "MTK1187:33IZTU6J828CE3BZLC7VFFDZ7ZPXSI", "current_trial": 33, "dateTime": 1513282354961, "trialdata": {"rt": -1, "stimulus": "<p id=\"stim\">PEBBLE</p>", "key_press": -1, "type": "PRES_VIS", "word": "pebble", "wordID": 1034, "conditions": [18, 1200, "v", 18000], "trial": 0, "serialpos": 12, "trial_type": "single-stim", "trial_index": 33, "time_elapsed": 215175, "internal_node_id": "0.0-24.0"}}, {"uniqueid": "MTK1187:33IZTU6J828CE3BZLC7VFFDZ7ZPXSI", "current_trial": 34, "dateTime": 1513282357228, "trialdata": {"rt": -1, "stimulus": "<p id=\"stim\">TURTLE</p>", "key_press": -1, "type": "PRES_VIS", "word": "turtle", "wordID": 1521, "conditions": [18, 1200, "v", 18000], "trial": 0, "serialpos": 13, "trial_type": "single-stim", "trial_index": 34, "time_elapsed": 217442, "internal_node_id": "0.0-25.0"}}, {"uniqueid": "MTK1187:33IZTU6J828CE3BZLC7VFFDZ7ZPXSI", "current_trial": 35, "dateTime": 1513282359461, "trialdata": {"rt": -1, "stimulus": "<p id=\"stim\">POISON</p>", "key_press": -1, "type": "PRES_VIS", "word": "poison", "wordID": 1095, "conditions": [18, 1200, "v", 18000], "trial": 0, "serialpos": 14, "trial_type": "single-stim", "trial_index": 35, "time_elapsed": 219675, "internal_node_id": "0.0-26.0"}}, {"uniqueid": "MTK1187:33IZTU6J828CE3BZLC7VFFDZ7ZPXSI", "current_trial": 36, "dateTime": 1513282361488, "trialdata": {"rt": -1, "stimulus": "<p id=\"stim\">VALVE</p>", "key_press": -1, "type": "PRES_VIS", "word": "valve", "wordID": 1545, "conditions": [18, 1200, "v", 18000], "trial": 0, "serialpos": 15, "trial_type": "single-stim", "trial_index": 36, "time_elapsed": 221702, "internal_node_id": "0.0-27.0"}}, {"uniqueid": "MTK1187:33IZTU6J828CE3BZLC7VFFDZ7ZPXSI", "current_trial": 37, "dateTime": 1513282363725, "trialdata": {"rt": -1, "stimulus": "<p id=\"stim\">SHRUB</p>", "key_press": -1, "type": "PRES_VIS", "word": "shrub", "wordID": 1298, "conditions": [18, 1200, "v", 18000], "trial": 0, "serialpos": 16, "trial_type": "single-stim", "trial_index": 37, "time_elapsed": 223939, "internal_node_id": "0.0-28.0"}}, {"uniqueid": "MTK1187:33IZTU6J828CE3BZLC7VFFDZ7ZPXSI", "current_trial": 38, "dateTime": 1513282365918, "trialdata": {"rt": -1, "stimulus": "<p id=\"stim\">GRILL</p>", "key_press": -1, "type": "PRES_VIS", "word": "grill", "wordID": 660, "conditions": [18, 1200, "v", 18000], "trial": 0, "serialpos": 17, "trial_type": "single-stim", "trial_index": 38, "time_elapsed": 226132, "internal_node_id": "0.0-29.0"}}, {"uniqueid": "MTK1187:33IZTU6J828CE3BZLC7VFFDZ7ZPXSI", "current_trial": 39, "dateTime": 1513282368390, "trialdata": {"rt": -1, "stimulus": "", "key_press": -1, "type": "PRE_RECALL_DELAY", "trial_type": "single-stim", "trial_index": 39, "time_elapsed": 228604, "internal_node_id": "0.0-30.0-0.0"}}, {"uniqueid": "MTK1187:33IZTU6J828CE3BZLC7VFFDZ7ZPXSI", "current_trial": 40, "dateTime": 1513282368892, "trialdata": {"rt": -1000, "stimulus": "/static/audio/400Hz.wav", "key_press": -1, "type": "PRE_RECALL_ALERT", "trial_type": "single-audio", "trial_index": 40, "time_elapsed": 229106, "internal_node_id": "0.0-31.0"}}, {"uniqueid": "MTK1187:33IZTU6J828CE3BZLC7VFFDZ7ZPXSI", "current_trial": 41, "dateTime": 1513282428897, "trialdata": {"rt": [4075, 6179, 8531, 28827, 34338], "recwords": ["bison", "grill", "carriage", "bulb", "tube"], "type": "FREE_RECALL", "conditions": [18, 1200, "v", 18000], "trial": 0, "trial_type": "free-recall", "trial_index": 41, "time_elapsed": 289109, "internal_node_id": "0.0-32.0-0.0"}}, {"uniqueid": "MTK1187:33IZTU6J828CE3BZLC7VFFDZ7ZPXSI", "current_trial": 42, "dateTime": 1513282433761, "trialdata": {"rt": 2862, "key_press": 32, "type": "INSTRUCTIONS", "trial_type": "text", "trial_index": 42, "time_elapsed": 293974, "internal_node_id": "0.0-33.0"}}, {"uniqueid": "MTK1187:33IZTU6J828CE3BZLC7VFFDZ7ZPXSI", "current_trial": 43, "dateTime": 1513282453764, "trialdata": {"rt": [2830, 5717, 9957, 12389, 14525], "responses": ["5", "21", "23", "14", "6"], "num1": [1, 9, 6, 5, 1, 4], "num2": [1, 8, 9, 3, 4, 5], "num3": [2, 4, 8, 6, 1, 4], "type": "DISTRACTOR", "conditions": [18, 1200, "a", 18000], "trial": 1, "trial_type": "math-distractor", "trial_index": 43, "time_elapsed": 313978, "internal_node_id": "0.0-34.0"}}, {"uniqueid": "MTK1187:33IZTU6J828CE3BZLC7VFFDZ7ZPXSI", "current_trial": 44, "dateTime": 1513282456766, "trialdata": {"rt": -1, "stimulus": "<p id=\"stim\">10</p>", "key_press": -1, "trial_type": "single-stim", "trial_index": 44, "time_elapsed": 316980, "internal_node_id": "0.0-35.0-0.0"}}, {"uniqueid": "MTK1187:33IZTU6J828CE3BZLC7VFFDZ7ZPXSI", "current_trial": 45, "dateTime": 1513282457767, "trialdata": {"rt": -1, "stimulus": "<p id=\"stim\">9</p>", "key_press": -1, "trial_type": "single-stim", "trial_index": 45, "time_elapsed": 317981, "internal_node_id": "0.0-35.0-1.0"}}, {"uniqueid": "MTK1187:33IZTU6J828CE3BZLC7VFFDZ7ZPXSI", "current_trial": 46, "dateTime": 1513282458769, "trialdata": {"rt": -1, "stimulus": "<p id=\"stim\">8</p>", "key_press": -1, "trial_type": "single-stim", "trial_index": 46, "time_elapsed": 318983, "internal_node_id": "0.0-35.0-2.0"}}, {"uniqueid": "MTK1187:33IZTU6J828CE3BZLC7VFFDZ7ZPXSI", "current_trial": 47, "dateTime": 1513282459771, "trialdata": {"rt": -1, "stimulus": "<p id=\"stim\">7</p>", "key_press": -1, "trial_type": "single-stim", "trial_index": 47, "time_elapsed": 319985, "internal_node_id": "0.0-35.0-3.0"}}, {"uniqueid": "MTK1187:33IZTU6J828CE3BZLC7VFFDZ7ZPXSI", "current_trial": 48, "dateTime": 1513282460772, "trialdata": {"rt": -1, "stimulus": "<p id=\"stim\">6</p>", "key_press": -1, "trial_type": "single-stim", "trial_index": 48, "time_elapsed": 320986, "internal_node_id": "0.0-35.0-4.0"}}, {"uniqueid": "MTK1187:33IZTU6J828CE3BZLC7VFFDZ7ZPXSI", "current_trial": 49, "dateTime": 1513282461774, "trialdata": {"rt": -1, "stimulus": "<p id=\"stim\">5</p>", "key_press": -1, "trial_type": "single-stim", "trial_index": 49, "time_elapsed": 321988, "internal_node_id": "0.0-35.0-5.0"}}, {"uniqueid": "MTK1187:33IZTU6J828CE3BZLC7VFFDZ7ZPXSI", "current_trial": 50, "dateTime": 1513282462775, "trialdata": {"rt": -1, "stimulus": "<p id=\"stim\">4</p>", "key_press": -1, "trial_type": "single-stim", "trial_index": 50, "time_elapsed": 322989, "internal_node_id": "0.0-35.0-6.0"}}, {"uniqueid": "MTK1187:33IZTU6J828CE3BZLC7VFFDZ7ZPXSI", "current_trial": 51, "dateTime": 1513282463776, "trialdata": {"rt": -1, "stimulus": "<p id=\"stim\">3</p>", "key_press": -1, "trial_type": "single-stim", "trial_index": 51, "time_elapsed": 323990, "internal_node_id": "0.0-35.0-7.0"}}, {"uniqueid": "MTK1187:33IZTU6J828CE3BZLC7VFFDZ7ZPXSI", "current_trial": 52, "dateTime": 1513282464777, "trialdata": {"rt": -1, "stimulus": "<p id=\"stim\">2</p>", "key_press": -1, "trial_type": "single-stim", "trial_index": 52, "time_elapsed": 324991, "internal_node_id": "0.0-35.0-8.0"}}, {"uniqueid": "MTK1187:33IZTU6J828CE3BZLC7VFFDZ7ZPXSI", "current_trial": 53, "dateTime": 1513282465779, "trialdata": {"rt": -1, "stimulus": "<p id=\"stim\">1</p>", "key_press": -1, "trial_type": "single-stim", "trial_index": 53, "time_elapsed": 325993, "internal_node_id": "0.0-35.0-9.0"}}, {"uniqueid": "MTK1187:33IZTU6J828CE3BZLC7VFFDZ7ZPXSI", "current_trial": 54, "dateTime": 1513282467279, "trialdata": {"rt": -1, "stimulus": "<p id=\"stim\">+</p>", "key_press": -1, "type": "FIXATION", "trial_type": "single-stim", "trial_index": 54, "time_elapsed": 327493, "internal_node_id": "0.0-36.0-0.0"}}, {"uniqueid": "MTK1187:33IZTU6J828CE3BZLC7VFFDZ7ZPXSI", "current_trial": 55, "dateTime": 1513282469526, "trialdata": {"rt": -1000, "stimulus": "/static/audio/wordpool/ATLAS.wav", "key_press": -1, "type": "PRES_AUD", "word": "atlas", "wordID": 52, "conditions": [18, 1200, "a", 18000], "trial": 1, "serialpos": 0, "trial_type": "single-audio", "trial_index": 55, "time_elapsed": 329740, "internal_node_id": "0.0-37.0"}}, {"uniqueid": "MTK1187:33IZTU6J828CE3BZLC7VFFDZ7ZPXSI", "current_trial": 56, "dateTime": 1513282471535, "trialdata": {"rt": -1000, "stimulus": "/static/audio/wordpool/BLENDER.wav", "key_press": -1, "type": "PRES_AUD", "word": "blender", "wordID": 135, "conditions": [18, 1200, "a", 18000], "trial": 1, "serialpos": 1, "trial_type": "single-audio", "trial_index": 56, "time_elapsed": 331749, "internal_node_id": "0.0-38.0"}}, {"uniqueid": "MTK1187:33IZTU6J828CE3BZLC7VFFDZ7ZPXSI", "current_trial": 57, "dateTime": 1513282473539, "trialdata": {"rt": -1000, "stimulus": "/static/audio/wordpool/SWITCH.wav", "key_press": -1, "type": "PRES_AUD", "word": "switch", "wordID": 1421, "conditions": [18, 1200, "a", 18000], "trial": 1, "serialpos": 2, "trial_type": "single-audio", "trial_index": 57, "time_elapsed": 333753, "internal_node_id": "0.0-39.0"}}, {"uniqueid": "MTK1187:33IZTU6J828CE3BZLC7VFFDZ7ZPXSI", "current_trial": 58, "dateTime": 1513282475926, "trialdata": {"rt": -1000, "stimulus": "/static/audio/wordpool/ROOSTER.wav", "key_press": -1, "type": "PRES_AUD", "word": "rooster", "wordID": 1208, "conditions": [18, 1200, "a", 18000], "trial": 1, "serialpos": 3, "trial_type": "single-audio", "trial_index": 58, "time_elapsed": 336140, "internal_node_id": "0.0-40.0"}}, {"uniqueid": "MTK1187:33IZTU6J828CE3BZLC7VFFDZ7ZPXSI", "current_trial": 59, "dateTime": 1513282478308, "trialdata": {"rt": -1000, "stimulus": "/static/audio/wordpool/RIVER.wav", "key_press": -1, "type": "PRES_AUD", "word": "river", "wordID": 1193, "conditions": [18, 1200, "a", 18000], "trial": 1, "serialpos": 4, "trial_type": "single-audio", "trial_index": 59, "time_elapsed": 338522, "internal_node_id": "0.0-41.0"}}, {"uniqueid": "MTK1187:33IZTU6J828CE3BZLC7VFFDZ7ZPXSI", "current_trial": 60, "dateTime": 1513282480399, "trialdata": {"rt": -1000, "stimulus": "/static/audio/wordpool/TEACHER.wav", "key_press": -1, "type": "PRES_AUD", "word": "teacher", "wordID": 1439, "conditions": [18, 1200, "a", 18000], "trial": 1, "serialpos": 5, "trial_type": "single-audio", "trial_index": 60, "time_elapsed": 340613, "internal_node_id": "0.0-42.0"}}, {"uniqueid": "MTK1187:33IZTU6J828CE3BZLC7VFFDZ7ZPXSI", "current_trial": 61, "dateTime": 1513282482495, "trialdata": {"rt": -1000, "stimulus": "/static/audio/wordpool/COIN.wav", "key_press": -1, "type": "PRES_AUD", "word": "coin", "wordID": 342, "conditions": [18, 1200, "a", 18000], "trial": 1, "serialpos": 6, "trial_type": "single-audio", "trial_index": 61, "time_elapsed": 342709, "internal_node_id": "0.0-43.0"}}, {"uniqueid": "MTK1187:33IZTU6J828CE3BZLC7VFFDZ7ZPXSI", "current_trial": 62, "dateTime": 1513282484621, "trialdata": {"rt": -1000, "stimulus": "/static/audio/wordpool/OUTDOORS.wav", "key_press": -1, "type": "PRES_AUD", "word": "outdoors", "wordID": 986, "conditions": [18, 1200, "a", 18000], "trial": 1, "serialpos": 7, "trial_type": "single-audio", "trial_index": 62, "time_elapsed": 344835, "internal_node_id": "0.0-44.0"}}, {"uniqueid": "MTK1187:33IZTU6J828CE3BZLC7VFFDZ7ZPXSI", "current_trial": 63, "dateTime": 1513282486850, "trialdata": {"rt": -1000, "stimulus": "/static/audio/wordpool/LASER.wav", "key_press": -1, "type": "PRES_AUD", "word": "laser", "wordID": 800, "conditions": [18, 1200, "a", 18000], "trial": 1, "serialpos": 8, "trial_type": "single-audio", "trial_index": 63, "time_elapsed": 347064, "internal_node_id": "0.0-45.0"}}, {"uniqueid": "MTK1187:33IZTU6J828CE3BZLC7VFFDZ7ZPXSI", "current_trial": 64, "dateTime": 1513282489122, "trialdata": {"rt": -1000, "stimulus": "/static/audio/wordpool/DENTIST.wav", "key_press": -1, "type": "PRES_AUD", "word": "dentist", "wordID": 446, "conditions": [18, 1200, "a", 18000], "trial": 1, "serialpos": 9, "trial_type": "single-audio", "trial_index": 64, "time_elapsed": 349336, "internal_node_id": "0.0-46.0"}}, {"uniqueid": "MTK1187:33IZTU6J828CE3BZLC7VFFDZ7ZPXSI", "current_trial": 65, "dateTime": 1513282491219, "trialdata": {"rt": -1000, "stimulus": "/static/audio/wordpool/COUSIN.wav", "key_press": -1, "type": "PRES_AUD", "word": "cousin", "wordID": 391, "conditions": [18, 1200, "a", 18000], "trial": 1, "serialpos": 10, "trial_type": "single-audio", "trial_index": 65, "time_elapsed": 351433, "internal_node_id": "0.0-47.0"}}, {"uniqueid": "MTK1187:33IZTU6J828CE3BZLC7VFFDZ7ZPXSI", "current_trial": 66, "dateTime": 1513282493344, "trialdata": {"rt": -1000, "stimulus": "/static/audio/wordpool/COWBOY.wav", "key_press": -1, "type": "PRES_AUD", "word": "cowboy", "wordID": 394, "conditions": [18, 1200, "a", 18000], "trial": 1, "serialpos": 11, "trial_type": "single-audio", "trial_index": 66, "time_elapsed": 353558, "internal_node_id": "0.0-48.0"}}, {"uniqueid": "MTK1187:33IZTU6J828CE3BZLC7VFFDZ7ZPXSI", "current_trial": 67, "dateTime": 1513282495484, "trialdata": {"rt": -1000, "stimulus": "/static/audio/wordpool/TYPIST.wav", "key_press": -1, "type": "PRES_AUD", "word": "typist", "wordID": 1531, "conditions": [18, 1200, "a", 18000], "trial": 1, "serialpos": 12, "trial_type": "single-audio", "trial_index": 67, "time_elapsed": 355698, "internal_node_id": "0.0-49.0"}}, {"uniqueid": "MTK1187:33IZTU6J828CE3BZLC7VFFDZ7ZPXSI", "current_trial": 68, "dateTime": 1513282497551, "trialdata": {"rt": -1000, "stimulus": "/static/audio/wordpool/MAILMAN.wav", "key_press": -1, "type": "PRES_AUD", "word": "mailman", "wordID": 857, "conditions": [18, 1200, "a", 18000], "trial": 1, "serialpos": 13, "trial_type": "single-audio", "trial_index": 68, "time_elapsed": 357765, "internal_node_id": "0.0-50.0"}}, {"uniqueid": "MTK1187:33IZTU6J828CE3BZLC7VFFDZ7ZPXSI", "current_trial": 69, "dateTime": 1513282499868, "trialdata": {"rt": -1000, "stimulus": "/static/audio/wordpool/HUMAN.wav", "key_press": -1, "type": "PRES_AUD", "word": "human", "wordID": 725, "conditions": [18, 1200, "a", 18000], "trial": 1, "serialpos": 14, "trial_type": "single-audio", "trial_index": 69, "time_elapsed": 360082, "internal_node_id": "0.0-51.0"}}, {"uniqueid": "MTK1187:33IZTU6J828CE3BZLC7VFFDZ7ZPXSI", "current_trial": 70, "dateTime": 1513282502080, "trialdata": {"rt": -1000, "stimulus": "/static/audio/wordpool/EAGLE.wav", "key_press": -1, "type": "PRES_AUD", "word": "eagle", "wordID": 511, "conditions": [18, 1200, "a", 18000], "trial": 1, "serialpos": 15, "trial_type": "single-audio", "trial_index": 70, "time_elapsed": 362294, "internal_node_id": "0.0-52.0"}}, {"uniqueid": "MTK1187:33IZTU6J828CE3BZLC7VFFDZ7ZPXSI", "current_trial": 71, "dateTime": 1513282504301, "trialdata": {"rt": -1000, "stimulus": "/static/audio/wordpool/OFFICE.wav", "key_press": -1, "type": "PRES_AUD", "word": "office", "wordID": 971, "conditions": [18, 1200, "a", 18000], "trial": 1, "serialpos": 16, "trial_type": "single-audio", "trial_index": 71, "time_elapsed": 364515, "internal_node_id": "0.0-53.0"}}, {"uniqueid": "MTK1187:33IZTU6J828CE3BZLC7VFFDZ7ZPXSI", "current_trial": 72, "dateTime": 1513282506559, "trialdata": {"rt": -1000, "stimulus": "/static/audio/wordpool/FOOT.wav", "key_press": -1, "type": "PRES_AUD", "word": "foot", "wordID": 589, "conditions": [18, 1200, "a", 18000], "trial": 1, "serialpos": 17, "trial_type": "single-audio", "trial_index": 72, "time_elapsed": 366773, "internal_node_id": "0.0-54.0"}}, {"uniqueid": "MTK1187:33IZTU6J828CE3BZLC7VFFDZ7ZPXSI", "current_trial": 73, "dateTime": 1513282507773, "trialdata": {"rt": -1, "stimulus": "", "key_press": -1, "type": "PRE_RECALL_DELAY", "trial_type": "single-stim", "trial_index": 73, "time_elapsed": 367987, "internal_node_id": "0.0-55.0-0.0"}}, {"uniqueid": "MTK1187:33IZTU6J828CE3BZLC7VFFDZ7ZPXSI", "current_trial": 74, "dateTime": 1513282508274, "trialdata": {"rt": -1000, "stimulus": "/static/audio/400Hz.wav", "key_press": -1, "type": "PRE_RECALL_ALERT", "trial_type": "single-audio", "trial_index": 74, "time_elapsed": 368488, "internal_node_id": "0.0-56.0"}}, {"uniqueid": "MTK1187:33IZTU6J828CE3BZLC7VFFDZ7ZPXSI", "current_trial": 75, "dateTime": 1513282568278, "trialdata": {"rt": [3797, 5965, 7717, 8997, 10749, 14029, 18933, 35261], "recwords": ["atlas", "blender", "teacher", "ruler", "river", "cousin", "human", "foot"], "type": "FREE_RECALL", "conditions": [18, 1200, "a", 18000], "trial": 1, "trial_type": "free-recall", "trial_index": 75, "time_elapsed": 428490, "internal_node_id": "0.0-57.0-0.0"}}, {"uniqueid": "MTK1187:33IZTU6J828CE3BZLC7VFFDZ7ZPXSI", "current_trial": 76, "dateTime": 1513282573147, "trialdata": {"rt": 2865, "key_press": 32, "type": "INSTRUCTIONS", "trial_type": "text", "trial_index": 76, "time_elapsed": 433358, "internal_node_id": "0.0-58.0"}}, {"uniqueid": "MTK1187:33IZTU6J828CE3BZLC7VFFDZ7ZPXSI", "current_trial": 77, "dateTime": 1513282586149, "trialdata": {"rt": [4204, 7011, 9364], "responses": ["5", "16", "9"], "num1": [1, 6, 1, 6], "num2": [2, 4, 6, 2], "num3": [2, 6, 2, 6], "type": "DISTRACTOR", "conditions": [12, 1600, "v", 12000], "trial": 2, "trial_type": "math-distractor", "trial_index": 77, "time_elapsed": 446363, "internal_node_id": "0.0-59.0"}}, {"uniqueid": "MTK1187:33IZTU6J828CE3BZLC7VFFDZ7ZPXSI", "current_trial": 78, "dateTime": 1513282589152, "trialdata": {"rt": -1, "stimulus": "<p id=\"stim\">10</p>", "key_press": -1, "trial_type": "single-stim", "trial_index": 78, "time_elapsed": 449365, "internal_node_id": "0.0-60.0-0.0"}}, {"uniqueid": "MTK1187:33IZTU6J828CE3BZLC7VFFDZ7ZPXSI", "current_trial": 79, "dateTime": 1513282590154, "trialdata": {"rt": -1, "stimulus": "<p id=\"stim\">9</p>", "key_press": -1, "trial_type": "single-stim", "trial_index": 79, "time_elapsed": 450368, "internal_node_id": "0.0-60.0-1.0"}}, {"uniqueid": "MTK1187:33IZTU6J828CE3BZLC7VFFDZ7ZPXSI", "current_trial": 80, "dateTime": 1513282591154, "trialdata": {"rt": -1, "stimulus": "<p id=\"stim\">8</p>", "key_press": -1, "trial_type": "single-stim", "trial_index": 80, "time_elapsed": 451368, "internal_node_id": "0.0-60.0-2.0"}}, {"uniqueid": "MTK1187:33IZTU6J828CE3BZLC7VFFDZ7ZPXSI", "current_trial": 81, "dateTime": 1513282592156, "trialdata": {"rt": -1, "stimulus": "<p id=\"stim\">7</p>", "key_press": -1, "trial_type": "single-stim", "trial_index": 81, "time_elapsed": 452369, "internal_node_id": "0.0-60.0-3.0"}}, {"uniqueid": "MTK1187:33IZTU6J828CE3BZLC7VFFDZ7ZPXSI", "current_trial": 82, "dateTime": 1513282593157, "trialdata": {"rt": -1, "stimulus": "<p id=\"stim\">6</p>", "key_press": -1, "trial_type": "single-stim", "trial_index": 82, "time_elapsed": 453371, "internal_node_id": "0.0-60.0-4.0"}}, {"uniqueid": "MTK1187:33IZTU6J828CE3BZLC7VFFDZ7ZPXSI", "current_trial": 83, "dateTime": 1513282594159, "trialdata": {"rt": -1, "stimulus": "<p id=\"stim\">5</p>", "key_press": -1, "trial_type": "single-stim", "trial_index": 83, "time_elapsed": 454373, "internal_node_id": "0.0-60.0-5.0"}}, {"uniqueid": "MTK1187:33IZTU6J828CE3BZLC7VFFDZ7ZPXSI", "current_trial": 84, "dateTime": 1513282595160, "trialdata": {"rt": -1, "stimulus": "<p id=\"stim\">4</p>", "key_press": -1, "trial_type": "single-stim", "trial_index": 84, "time_elapsed": 455373, "internal_node_id": "0.0-60.0-6.0"}}, {"uniqueid": "MTK1187:33IZTU6J828CE3BZLC7VFFDZ7ZPXSI", "current_trial": 85, "dateTime": 1513282596162, "trialdata": {"rt": -1, "stimulus": "<p id=\"stim\">3</p>", "key_press": -1, "trial_type": "single-stim", "trial_index": 85, "time_elapsed": 456375, "internal_node_id": "0.0-60.0-7.0"}}, {"uniqueid": "MTK1187:33IZTU6J828CE3BZLC7VFFDZ7ZPXSI", "current_trial": 86, "dateTime": 1513282597162, "trialdata": {"rt": -1, "stimulus": "<p id=\"stim\">2</p>", "key_press": -1, "trial_type": "single-stim", "trial_index": 86, "time_elapsed": 457376, "internal_node_id": "0.0-60.0-8.0"}}, {"uniqueid": "MTK1187:33IZTU6J828CE3BZLC7VFFDZ7ZPXSI", "current_trial": 87, "dateTime": 1513282598163, "trialdata": {"rt": -1, "stimulus": "<p id=\"stim\">1</p>", "key_press": -1, "trial_type": "single-stim", "trial_index": 87, "time_elapsed": 458377, "internal_node_id": "0.0-60.0-9.0"}}, {"uniqueid": "MTK1187:33IZTU6J828CE3BZLC7VFFDZ7ZPXSI", "current_trial": 88, "dateTime": 1513282599665, "trialdata": {"rt": -1, "stimulus": "<p id=\"stim\">+</p>", "key_press": -1, "type": "FIXATION", "trial_type": "single-stim", "trial_index": 88, "time_elapsed": 459878, "internal_node_id": "0.0-61.0-0.0"}}, {"uniqueid": "MTK1187:33IZTU6J828CE3BZLC7VFFDZ7ZPXSI", "current_trial": 89, "dateTime": 1513282601265, "trialdata": {"rt": -1, "stimulus": "<p id=\"stim\">TOURIST</p>", "key_press": -1, "type": "PRES_VIS", "word": "tourist", "wordID": 1487, "conditions": [12, 1600, "v", 12000], "trial": 2, "serialpos": 0, "trial_type": "single-stim", "trial_index": 89, "time_elapsed": 461479, "internal_node_id": "0.0-62.0"}}, {"uniqueid": "MTK1187:33IZTU6J828CE3BZLC7VFFDZ7ZPXSI", "current_trial": 90, "dateTime": 1513282603962, "trialdata": {"rt": -1, "stimulus": "<p id=\"stim\">PIMPLE</p>", "key_press": -1, "type": "PRES_VIS", "word": "pimple", "wordID": 1070, "conditions": [12, 1600, "v", 12000], "trial": 2, "serialpos": 1, "trial_type": "single-stim", "trial_index": 90, "time_elapsed": 464176, "internal_node_id": "0.0-63.0"}}, {"uniqueid": "MTK1187:33IZTU6J828CE3BZLC7VFFDZ7ZPXSI", "current_trial": 91, "dateTime": 1513282606556, "trialdata": {"rt": 589, "stimulus": "<p id=\"stim\">MASK</p>", "key_press": 20, "type": "PRES_VIS", "word": "mask", "wordID": 875, "conditions": [12, 1600, "v", 12000], "trial": 2, "serialpos": 2, "trial_type": "single-stim", "trial_index": 91, "time_elapsed": 466770, "internal_node_id": "0.0-64.0"}}, {"uniqueid": "MTK1187:33IZTU6J828CE3BZLC7VFFDZ7ZPXSI", "current_trial": 92, "dateTime": 1513282609112, "trialdata": {"rt": -1, "stimulus": "<p id=\"stim\">GYMNAST</p>", "key_press": -1, "type": "PRES_VIS", "word": "gymnast", "wordID": 674, "conditions": [12, 1600, "v", 12000], "trial": 2, "serialpos": 3, "trial_type": "single-stim", "trial_index": 92, "time_elapsed": 469326, "internal_node_id": "0.0-65.0"}}, {"uniqueid": "MTK1187:33IZTU6J828CE3BZLC7VFFDZ7ZPXSI", "current_trial": 93, "dateTime": 1513282611907, "trialdata": {"rt": -1, "stimulus": "<p id=\"stim\">RAZOR</p>", "key_press": -1, "type": "PRES_VIS", "word": "razor", "wordID": 1170, "conditions": [12, 1600, "v", 12000], "trial": 2, "serialpos": 4, "trial_type": "single-stim", "trial_index": 93, "time_elapsed": 472120, "internal_node_id": "0.0-66.0"}}, {"uniqueid": "MTK1187:33IZTU6J828CE3BZLC7VFFDZ7ZPXSI", "current_trial": 94, "dateTime": 1513282614538, "trialdata": {"rt": -1, "stimulus": "<p id=\"stim\">SCALPEL</p>", "key_press": -1, "type": "PRES_VIS", "word": "scalpel", "wordID": 1242, "conditions": [12, 1600, "v", 12000], "trial": 2, "serialpos": 5, "trial_type": "single-stim", "trial_index": 94, "time_elapsed": 474752, "internal_node_id": "0.0-67.0"}}, {"uniqueid": "MTK1187:33IZTU6J828CE3BZLC7VFFDZ7ZPXSI", "current_trial": 95, "dateTime": 1513282617042, "trialdata": {"rt": -1, "stimulus": "<p id=\"stim\">GUARD</p>", "key_press": -1, "type": "PRES_VIS", "word": "guard", "wordID": 666, "conditions": [12, 1600, "v", 12000], "trial": 2, "serialpos": 6, "trial_type": "single-stim", "trial_index": 95, "time_elapsed": 477256, "internal_node_id": "0.0-68.0"}}, {"uniqueid": "MTK1187:33IZTU6J828CE3BZLC7VFFDZ7ZPXSI", "current_trial": 96, "dateTime": 1513282619734, "trialdata": {"rt": -1, "stimulus": "<p id=\"stim\">DRINK</p>", "key_press": -1, "type": "PRES_VIS", "word": "drink", "wordID": 497, "conditions": [12, 1600, "v", 12000], "trial": 2, "serialpos": 7, "trial_type": "single-stim", "trial_index": 96, "time_elapsed": 479948, "internal_node_id": "0.0-69.0"}}, {"uniqueid": "MTK1187:33IZTU6J828CE3BZLC7VFFDZ7ZPXSI", "current_trial": 97, "dateTime": 1513282622418, "trialdata": {"rt": -1, "stimulus": "<p id=\"stim\">BABY</p>", "key_press": -1, "type": "PRES_VIS", "word": "baby", "wordID": 63, "conditions": [12, 1600, "v", 12000], "trial": 2, "serialpos": 8, "trial_type": "single-stim", "trial_index": 97, "time_elapsed": 482632, "internal_node_id": "0.0-70.0"}}, {"uniqueid": "MTK1187:33IZTU6J828CE3BZLC7VFFDZ7ZPXSI", "current_trial": 98, "dateTime": 1513282624996, "trialdata": {"rt": -1, "stimulus": "<p id=\"stim\">BADGE</p>", "key_press": -1, "type": "PRES_VIS", "word": "badge", "wordID": 67, "conditions": [12, 1600, "v", 12000], "trial": 2, "serialpos": 9, "trial_type": "single-stim", "trial_index": 98, "time_elapsed": 485210, "internal_node_id": "0.0-71.0"}}, {"uniqueid": "MTK1187:33IZTU6J828CE3BZLC7VFFDZ7ZPXSI", "current_trial": 99, "dateTime": 1513282627470, "trialdata": {"rt": -1, "stimulus": "<p id=\"stim\">LAPEL</p>", "key_press": -1, "type": "PRES_VIS", "word": "lapel", "wordID": 799, "conditions": [12, 1600, "v", 12000], "trial": 2, "serialpos": 10, "trial_type": "single-stim", "trial_index": 99, "time_elapsed": 487684, "internal_node_id": "0.0-72.0"}}, {"uniqueid": "MTK1187:33IZTU6J828CE3BZLC7VFFDZ7ZPXSI", "current_trial": 100, "dateTime": 1513282629921, "trialdata": {"rt": -1, "stimulus": "<p id=\"stim\">CHILD</p>", "key_press": -1, "type": "PRES_VIS", "word": "child", "wordID": 298, "conditions": [12, 1600, "v", 12000], "trial": 2, "serialpos": 11, "trial_type": "single-stim", "trial_index": 100, "time_elapsed": 490135, "internal_node_id": "0.0-73.0"}}, {"uniqueid": "MTK1187:33IZTU6J828CE3BZLC7VFFDZ7ZPXSI", "current_trial": 101, "dateTime": 1513282632162, "trialdata": {"rt": -1, "stimulus": "", "key_press": -1, "type": "PRE_RECALL_DELAY", "trial_type": "single-stim", "trial_index": 101, "time_elapsed": 492376, "internal_node_id": "0.0-74.0-0.0"}}, {"uniqueid": "MTK1187:33IZTU6J828CE3BZLC7VFFDZ7ZPXSI", "current_trial": 102, "dateTime": 1513282632663, "trialdata": {"rt": -1000, "stimulus": "/static/audio/400Hz.wav", "key_press": -1, "type": "PRE_RECALL_ALERT", "trial_type": "single-audio", "trial_index": 102, "time_elapsed": 492877, "internal_node_id": "0.0-75.0"}}, {"uniqueid": "MTK1187:33IZTU6J828CE3BZLC7VFFDZ7ZPXSI", "current_trial": 103, "dateTime": 1513282692668, "trialdata": {"rt": [3262, 5591, 8039, 13559, 35639], "recwords": ["child", "pimple", "razor", "scapel", "tourist"], "type": "FREE_RECALL", "conditions": [12, 1600, "v", 12000], "trial": 2, "trial_type": "free-recall", "trial_index": 103, "time_elapsed": 552880, "internal_node_id": "0.0-76.0-0.0"}}, {"uniqueid": "MTK1187:33IZTU6J828CE3BZLC7VFFDZ7ZPXSI", "current_trial": 104, "dateTime": 1513282695920, "trialdata": {"rt": 1250, "key_press": 32, "type": "INSTRUCTIONS", "trial_type": "text", "trial_index": 104, "time_elapsed": 556134, "internal_node_id": "0.0-77.0"}}, {"uniqueid": "MTK1187:33IZTU6J828CE3BZLC7VFFDZ7ZPXSI", "current_trial": 105, "dateTime": 1513282709922, "trialdata": {"rt": [5534, 9046], "responses": ["17", "6"], "num1": [7, 4, 7], "num2": [8, 1, 6], "num3": [2, 1, 5], "type": "DISTRACTOR", "conditions": [24, 1600, "a", 12000], "trial": 3, "trial_type": "math-distractor", "trial_index": 105, "time_elapsed": 570136, "internal_node_id": "0.0-78.0"}}, {"uniqueid": "MTK1187:33IZTU6J828CE3BZLC7VFFDZ7ZPXSI", "current_trial": 106, "dateTime": 1513282712925, "trialdata": {"rt": -1, "stimulus": "<p id=\"stim\">10</p>", "key_press": -1, "trial_type": "single-stim", "trial_index": 106, "time_elapsed": 573139, "internal_node_id": "0.0-79.0-0.0"}}, {"uniqueid": "MTK1187:33IZTU6J828CE3BZLC7VFFDZ7ZPXSI", "current_trial": 107, "dateTime": 1513282713926, "trialdata": {"rt": -1, "stimulus": "<p id=\"stim\">9</p>", "key_press": -1, "trial_type": "single-stim", "trial_index": 107, "time_elapsed": 574140, "internal_node_id": "0.0-79.0-1.0"}}, {"uniqueid": "MTK1187:33IZTU6J828CE3BZLC7VFFDZ7ZPXSI", "current_trial": 108, "dateTime": 1513282714927, "trialdata": {"rt": -1, "stimulus": "<p id=\"stim\">8</p>", "key_press": -1, "trial_type": "single-stim", "trial_index": 108, "time_elapsed": 575141, "internal_node_id": "0.0-79.0-2.0"}}, {"uniqueid": "MTK1187:33IZTU6J828CE3BZLC7VFFDZ7ZPXSI", "current_trial": 109, "dateTime": 1513282715928, "trialdata": {"rt": -1, "stimulus": "<p id=\"stim\">7</p>", "key_press": -1, "trial_type": "single-stim", "trial_index": 109, "time_elapsed": 576142, "internal_node_id": "0.0-79.0-3.0"}}, {"uniqueid": "MTK1187:33IZTU6J828CE3BZLC7VFFDZ7ZPXSI", "current_trial": 110, "dateTime": 1513282716929, "trialdata": {"rt": -1, "stimulus": "<p id=\"stim\">6</p>", "key_press": -1, "trial_type": "single-stim", "trial_index": 110, "time_elapsed": 577143, "internal_node_id": "0.0-79.0-4.0"}}, {"uniqueid": "MTK1187:33IZTU6J828CE3BZLC7VFFDZ7ZPXSI", "current_trial": 111, "dateTime": 1513282717930, "trialdata": {"rt": -1, "stimulus": "<p id=\"stim\">5</p>", "key_press": -1, "trial_type": "single-stim", "trial_index": 111, "time_elapsed": 578144, "internal_node_id": "0.0-79.0-5.0"}}, {"uniqueid": "MTK1187:33IZTU6J828CE3BZLC7VFFDZ7ZPXSI", "current_trial": 112, "dateTime": 1513282718931, "trialdata": {"rt": -1, "stimulus": "<p id=\"stim\">4</p>", "key_press": -1, "trial_type": "single-stim", "trial_index": 112, "time_elapsed": 579145, "internal_node_id": "0.0-79.0-6.0"}}, {"uniqueid": "MTK1187:33IZTU6J828CE3BZLC7VFFDZ7ZPXSI", "current_trial": 113, "dateTime": 1513282719932, "trialdata": {"rt": -1, "stimulus": "<p id=\"stim\">3</p>", "key_press": -1, "trial_type": "single-stim", "trial_index": 113, "time_elapsed": 580146, "internal_node_id": "0.0-79.0-7.0"}}, {"uniqueid": "MTK1187:33IZTU6J828CE3BZLC7VFFDZ7ZPXSI", "current_trial": 114, "dateTime": 1513282720933, "trialdata": {"rt": -1, "stimulus": "<p id=\"stim\">2</p>", "key_press": -1, "trial_type": "single-stim", "trial_index": 114, "time_elapsed": 581147, "internal_node_id": "0.0-79.0-8.0"}}, {"uniqueid": "MTK1187:33IZTU6J828CE3BZLC7VFFDZ7ZPXSI", "current_trial": 115, "dateTime": 1513282721935, "trialdata": {"rt": -1, "stimulus": "<p id=\"stim\">1</p>", "key_press": -1, "trial_type": "single-stim", "trial_index": 115, "time_elapsed": 582149, "internal_node_id": "0.0-79.0-9.0"}}, {"uniqueid": "MTK1187:33IZTU6J828CE3BZLC7VFFDZ7ZPXSI", "current_trial": 116, "dateTime": 1513282723436, "trialdata": {"rt": -1, "stimulus": "<p id=\"stim\">+</p>", "key_press": -1, "type": "FIXATION", "trial_type": "single-stim", "trial_index": 116, "time_elapsed": 583650, "internal_node_id": "0.0-80.0-0.0"}}, {"uniqueid": "MTK1187:33IZTU6J828CE3BZLC7VFFDZ7ZPXSI", "current_trial": 117, "dateTime": 1513282726075, "trialdata": {"rt": -1000, "stimulus": "/static/audio/wordpool/POPCORN.wav", "key_press": -1, "type": "PRES_AUD", "word": "popcorn", "wordID": 1103, "conditions": [24, 1600, "a", 12000], "trial": 3, "serialpos": 0, "trial_type": "single-audio", "trial_index": 117, "time_elapsed": 586289, "internal_node_id": "0.0-81.0"}}, {"uniqueid": "MTK1187:33IZTU6J828CE3BZLC7VFFDZ7ZPXSI", "current_trial": 118, "dateTime": 1513282728696, "trialdata": {"rt": -1000, "stimulus": "/static/audio/wordpool/MOTOR.wav", "key_press": -1, "type": "PRES_AUD", "word": "motor", "wordID": 921, "conditions": [24, 1600, "a", 12000], "trial": 3, "serialpos": 1, "trial_type": "single-audio", "trial_index": 118, "time_elapsed": 588910, "internal_node_id": "0.0-82.0"}}, {"uniqueid": "MTK1187:33IZTU6J828CE3BZLC7VFFDZ7ZPXSI", "current_trial": 119, "dateTime": 1513282731154, "trialdata": {"rt": -1000, "stimulus": "/static/audio/wordpool/LEG.wav", "key_press": -1, "type": "PRES_AUD", "word": "leg", "wordID": 808, "conditions": [24, 1600, "a", 12000], "trial": 3, "serialpos": 2, "trial_type": "single-audio", "trial_index": 119, "time_elapsed": 591368, "internal_node_id": "0.0-83.0"}}, {"uniqueid": "MTK1187:33IZTU6J828CE3BZLC7VFFDZ7ZPXSI", "current_trial": 120, "dateTime": 1513282733628, "trialdata": {"rt": -1000, "stimulus": "/static/audio/wordpool/RECORD.wav", "key_press": -1, "type": "PRES_AUD", "word": "record", "wordID": 1175, "conditions": [24, 1600, "a", 12000], "trial": 3, "serialpos": 3, "trial_type": "single-audio", "trial_index": 120, "time_elapsed": 593842, "internal_node_id": "0.0-84.0"}}, {"uniqueid": "MTK1187:33IZTU6J828CE3BZLC7VFFDZ7ZPXSI", "current_trial": 121, "dateTime": 1513282736041, "trialdata": {"rt": -1000, "stimulus": "/static/audio/wordpool/COOK.wav", "key_press": -1, "type": "PRES_AUD", "word": "cook", "wordID": 371, "conditions": [24, 1600, "a", 12000], "trial": 3, "serialpos": 4, "trial_type": "single-audio", "trial_index": 121, "time_elapsed": 596255, "internal_node_id": "0.0-85.0"}}, {"uniqueid": "MTK1187:33IZTU6J828CE3BZLC7VFFDZ7ZPXSI", "current_trial": 122, "dateTime": 1513282738712, "trialdata": {"rt": -1000, "stimulus": "/static/audio/wordpool/HAND.wav", "key_press": -1, "type": "PRES_AUD", "word": "hand", "wordID": 682, "conditions": [24, 1600, "a", 12000], "trial": 3, "serialpos": 5, "trial_type": "single-audio", "trial_index": 122, "time_elapsed": 598926, "internal_node_id": "0.0-86.0"}}, {"uniqueid": "MTK1187:33IZTU6J828CE3BZLC7VFFDZ7ZPXSI", "current_trial": 123, "dateTime": 1513282741504, "trialdata": {"rt": -1000, "stimulus": "/static/audio/wordpool/SNACK.wav", "key_press": -1, "type": "PRES_AUD", "word": "snack", "wordID": 1330, "conditions": [24, 1600, "a", 12000], "trial": 3, "serialpos": 6, "trial_type": "single-audio", "trial_index": 123, "time_elapsed": 601718, "internal_node_id": "0.0-87.0"}}, {"uniqueid": "MTK1187:33IZTU6J828CE3BZLC7VFFDZ7ZPXSI", "current_trial": 124, "dateTime": 1513282744152, "trialdata": {"rt": -1000, "stimulus": "/static/audio/wordpool/SALAD.wav", "key_press": -1, "type": "PRES_AUD", "word": "salad", "wordID": 1223, "conditions": [24, 1600, "a", 12000], "trial": 3, "serialpos": 7, "trial_type": "single-audio", "trial_index": 124, "time_elapsed": 604366, "internal_node_id": "0.0-88.0"}}, {"uniqueid": "MTK1187:33IZTU6J828CE3BZLC7VFFDZ7ZPXSI", "current_trial": 125, "dateTime": 1513282746694, "trialdata": {"rt": -1000, "stimulus": "/static/audio/wordpool/CLAM.wav", "key_press": -1, "type": "PRES_AUD", "word": "clam", "wordID": 314, "conditions": [24, 1600, "a", 12000], "trial": 3, "serialpos": 8, "trial_type": "single-audio", "trial_index": 125, "time_elapsed": 606908, "internal_node_id": "0.0-89.0"}}, {"uniqueid": "MTK1187:33IZTU6J828CE3BZLC7VFFDZ7ZPXSI", "current_trial": 126, "dateTime": 1513282749181, "trialdata": {"rt": -1000, "stimulus": "/static/audio/wordpool/BACON.wav", "key_press": -1, "type": "PRES_AUD", "word": "bacon", "wordID": 66, "conditions": [24, 1600, "a", 12000], "trial": 3, "serialpos": 9, "trial_type": "single-audio", "trial_index": 126, "time_elapsed": 609395, "internal_node_id": "0.0-90.0"}}, {"uniqueid": "MTK1187:33IZTU6J828CE3BZLC7VFFDZ7ZPXSI", "current_trial": 127, "dateTime": 1513282751789, "trialdata": {"rt": -1000, "stimulus": "/static/audio/wordpool/SANDWICH.wav", "key_press": -1, "type": "PRES_AUD", "word": "sandwich", "wordID": 1231, "conditions": [24, 1600, "a", 12000], "trial": 3, "serialpos": 10, "trial_type": "single-audio", "trial_index": 127, "time_elapsed": 612003, "internal_node_id": "0.0-91.0"}}, {"uniqueid": "MTK1187:33IZTU6J828CE3BZLC7VFFDZ7ZPXSI", "current_trial": 128, "dateTime": 1513282754546, "trialdata": {"rt": -1000, "stimulus": "/static/audio/wordpool/BRIEFCASE.wav", "key_press": -1, "type": "PRES_AUD", "word": "briefcase", "wordID": 174, "conditions": [24, 1600, "a", 12000], "trial": 3, "serialpos": 11, "trial_type": "single-audio", "trial_index": 128, "time_elapsed": 614760, "internal_node_id": "0.0-92.0"}}, {"uniqueid": "MTK1187:33IZTU6J828CE3BZLC7VFFDZ7ZPXSI", "current_trial": 129, "dateTime": 1513282756960, "trialdata": {"rt": -1000, "stimulus": "/static/audio/wordpool/WASP.wav", "key_press": -1, "type": "PRES_AUD", "word": "wasp", "wordID": 1592, "conditions": [24, 1600, "a", 12000], "trial": 3, "serialpos": 12, "trial_type": "single-audio", "trial_index": 129, "time_elapsed": 617174, "internal_node_id": "0.0-93.0"}}, {"uniqueid": "MTK1187:33IZTU6J828CE3BZLC7VFFDZ7ZPXSI", "current_trial": 130, "dateTime": 1513282759577, "trialdata": {"rt": -1000, "stimulus": "/static/audio/wordpool/FIDDLE.wav", "key_press": -1, "type": "PRES_AUD", "word": "fiddle", "wordID": 560, "conditions": [24, 1600, "a", 12000], "trial": 3, "serialpos": 13, "trial_type": "single-audio", "trial_index": 130, "time_elapsed": 619791, "internal_node_id": "0.0-94.0"}}, {"uniqueid": "MTK1187:33IZTU6J828CE3BZLC7VFFDZ7ZPXSI", "current_trial": 131, "dateTime": 1513282762022, "trialdata": {"rt": -1000, "stimulus": "/static/audio/wordpool/HARP.wav", "key_press": -1, "type": "PRES_AUD", "word": "harp", "wordID": 688, "conditions": [24, 1600, "a", 12000], "trial": 3, "serialpos": 14, "trial_type": "single-audio", "trial_index": 131, "time_elapsed": 622236, "internal_node_id": "0.0-95.0"}}, {"uniqueid": "MTK1187:33IZTU6J828CE3BZLC7VFFDZ7ZPXSI", "current_trial": 132, "dateTime": 1513282764697, "trialdata": {"rt": -1000, "stimulus": "/static/audio/wordpool/PATIENT.wav", "key_press": -1, "type": "PRES_AUD", "word": "patient", "wordID": 1023, "conditions": [24, 1600, "a", 12000], "trial": 3, "serialpos": 15, "trial_type": "single-audio", "trial_index": 132, "time_elapsed": 624911, "internal_node_id": "0.0-96.0"}}, {"uniqueid": "MTK1187:33IZTU6J828CE3BZLC7VFFDZ7ZPXSI", "current_trial": 133, "dateTime": 1513282767473, "trialdata": {"rt": -1000, "stimulus": "/static/audio/wordpool/HORNET.wav", "key_press": -1, "type": "PRES_AUD", "word": "hornet", "wordID": 717, "conditions": [24, 1600, "a", 12000], "trial": 3, "serialpos": 16, "trial_type": "single-audio", "trial_index": 133, "time_elapsed": 627687, "internal_node_id": "0.0-97.0"}}, {"uniqueid": "MTK1187:33IZTU6J828CE3BZLC7VFFDZ7ZPXSI", "current_trial": 134, "dateTime": 1513282769933, "trialdata": {"rt": -1000, "stimulus": "/static/audio/wordpool/CANDY.wav", "key_press": -1, "type": "PRES_AUD", "word": "candy", "wordID": 229, "conditions": [24, 1600, "a", 12000], "trial": 3, "serialpos": 17, "trial_type": "single-audio", "trial_index": 134, "time_elapsed": 630147, "internal_node_id": "0.0-98.0"}}, {"uniqueid": "MTK1187:33IZTU6J828CE3BZLC7VFFDZ7ZPXSI", "current_trial": 135, "dateTime": 1513282772727, "trialdata": {"rt": -1000, "stimulus": "/static/audio/wordpool/XEROX.wav", "key_press": -1, "type": "PRES_AUD", "word": "xerox", "wordID": 1627, "conditions": [24, 1600, "a", 12000], "trial": 3, "serialpos": 18, "trial_type": "single-audio", "trial_index": 135, "time_elapsed": 632941, "internal_node_id": "0.0-99.0"}}, {"uniqueid": "MTK1187:33IZTU6J828CE3BZLC7VFFDZ7ZPXSI", "current_trial": 136, "dateTime": 1513282775159, "trialdata": {"rt": -1000, "stimulus": "/static/audio/wordpool/STUDENT.wav", "key_press": -1, "type": "PRES_AUD", "word": "student", "wordID": 1394, "conditions": [24, 1600, "a", 12000], "trial": 3, "serialpos": 19, "trial_type": "single-audio", "trial_index": 136, "time_elapsed": 635373, "internal_node_id": "0.0-100.0"}}, {"uniqueid": "MTK1187:33IZTU6J828CE3BZLC7VFFDZ7ZPXSI", "current_trial": 137, "dateTime": 1513282777616, "trialdata": {"rt": -1000, "stimulus": "/static/audio/wordpool/FIREMAN.wav", "key_press": -1, "type": "PRES_AUD", "word": "fireman", "wordID": 568, "conditions": [24, 1600, "a", 12000], "trial": 3, "serialpos": 20, "trial_type": "single-audio", "trial_index": 137, "time_elapsed": 637830, "internal_node_id": "0.0-101.0"}}, {"uniqueid": "MTK1187:33IZTU6J828CE3BZLC7VFFDZ7ZPXSI", "current_trial": 138, "dateTime": 1513282780062, "trialdata": {"rt": -1000, "stimulus": "/static/audio/wordpool/GRAPE.wav", "key_press": -1, "type": "PRES_AUD", "word": "grape", "wordID": 653, "conditions": [24, 1600, "a", 12000], "trial": 3, "serialpos": 21, "trial_type": "single-audio", "trial_index": 138, "time_elapsed": 640276, "internal_node_id": "0.0-102.0"}}, {"uniqueid": "MTK1187:33IZTU6J828CE3BZLC7VFFDZ7ZPXSI", "current_trial": 139, "dateTime": 1513282782556, "trialdata": {"rt": -1000, "stimulus": "/static/audio/wordpool/BOUQUET.wav", "key_press": -1, "type": "PRES_AUD", "word": "bouquet", "wordID": 156, "conditions": [24, 1600, "a", 12000], "trial": 3, "serialpos": 22, "trial_type": "single-audio", "trial_index": 139, "time_elapsed": 642770, "internal_node_id": "0.0-103.0"}}, {"uniqueid": "MTK1187:33IZTU6J828CE3BZLC7VFFDZ7ZPXSI", "current_trial": 140, "dateTime": 1513282785005, "trialdata": {"rt": -1000, "stimulus": "/static/audio/wordpool/AIRPLANE.wav", "key_press": -1, "type": "PRES_AUD", "word": "airplane", "wordID": 11, "conditions": [24, 1600, "a", 12000], "trial": 3, "serialpos": 23, "trial_type": "single-audio", "trial_index": 140, "time_elapsed": 645219, "internal_node_id": "0.0-104.0"}}, {"uniqueid": "MTK1187:33IZTU6J828CE3BZLC7VFFDZ7ZPXSI", "current_trial": 141, "dateTime": 1513282786350, "trialdata": {"rt": -1, "stimulus": "", "key_press": -1, "type": "PRE_RECALL_DELAY", "trial_type": "single-stim", "trial_index": 141, "time_elapsed": 646564, "internal_node_id": "0.0-105.0-0.0"}}, {"uniqueid": "MTK1187:33IZTU6J828CE3BZLC7VFFDZ7ZPXSI", "current_trial": 142, "dateTime": 1513282786851, "trialdata": {"rt": -1000, "stimulus": "/static/audio/400Hz.wav", "key_press": -1, "type": "PRE_RECALL_ALERT", "trial_type": "single-audio", "trial_index": 142, "time_elapsed": 647064, "internal_node_id": "0.0-106.0"}}, {"uniqueid": "MTK1187:33IZTU6J828CE3BZLC7VFFDZ7ZPXSI", "current_trial": 143, "dateTime": 1513282846854, "trialdata": {"rt": [5556, 7756, 9412, 11132, 13468, 16820, 28204, 32219, 35884], "recwords": ["popcorn", "motor", "leg", "cook", "hand", "candy", "bacon", "fireman", "airplane"], "type": "FREE_RECALL", "conditions": [24, 1600, "a", 12000], "trial": 3, "trial_type": "free-recall", "trial_index": 143, "time_elapsed": 707067, "internal_node_id": "0.0-107.0-0.0"}}, {"uniqueid": "MTK1187:33IZTU6J828CE3BZLC7VFFDZ7ZPXSI", "current_trial": 144, "dateTime": 1513282849951, "trialdata": {"rt": 1095, "key_press": 32, "type": "INSTRUCTIONS", "trial_type": "text", "trial_index": 144, "time_elapsed": 710165, "internal_node_id": "0.0-108.0"}}, {"uniqueid": "MTK1187:33IZTU6J828CE3BZLC7VFFDZ7ZPXSI", "current_trial": 145, "dateTime": 1513282863954, "trialdata": {"rt": [6029, 8773], "responses": ["21", "9"], "num1": [8, 6, 5], "num2": [9, 2, 9], "num3": [4, 1, 8], "type": "DISTRACTOR", "conditions": [24, 800, "v", 12000], "trial": 4, "trial_type": "math-distractor", "trial_index": 145, "time_elapsed": 724168, "internal_node_id": "0.0-109.0"}}, {"uniqueid": "MTK1187:33IZTU6J828CE3BZLC7VFFDZ7ZPXSI", "current_trial": 146, "dateTime": 1513282866957, "trialdata": {"rt": -1, "stimulus": "<p id=\"stim\">10</p>", "key_press": -1, "trial_type": "single-stim", "trial_index": 146, "time_elapsed": 727171, "internal_node_id": "0.0-110.0-0.0"}}, {"uniqueid": "MTK1187:33IZTU6J828CE3BZLC7VFFDZ7ZPXSI", "current_trial": 147, "dateTime": 1513282867958, "trialdata": {"rt": -1, "stimulus": "<p id=\"stim\">9</p>", "key_press": -1, "trial_type": "single-stim", "trial_index": 147, "time_elapsed": 728172, "internal_node_id": "0.0-110.0-1.0"}}, {"uniqueid": "MTK1187:33IZTU6J828CE3BZLC7VFFDZ7ZPXSI", "current_trial": 148, "dateTime": 1513282868960, "trialdata": {"rt": -1, "stimulus": "<p id=\"stim\">8</p>", "key_press": -1, "trial_type": "single-stim", "trial_index": 148, "time_elapsed": 729174, "internal_node_id": "0.0-110.0-2.0"}}, {"uniqueid": "MTK1187:33IZTU6J828CE3BZLC7VFFDZ7ZPXSI", "current_trial": 149, "dateTime": 1513282869961, "trialdata": {"rt": -1, "stimulus": "<p id=\"stim\">7</p>", "key_press": -1, "trial_type": "single-stim", "trial_index": 149, "time_elapsed": 730175, "internal_node_id": "0.0-110.0-3.0"}}, {"uniqueid": "MTK1187:33IZTU6J828CE3BZLC7VFFDZ7ZPXSI", "current_trial": 150, "dateTime": 1513282870963, "trialdata": {"rt": -1, "stimulus": "<p id=\"stim\">6</p>", "key_press": -1, "trial_type": "single-stim", "trial_index": 150, "time_elapsed": 731177, "internal_node_id": "0.0-110.0-4.0"}}, {"uniqueid": "MTK1187:33IZTU6J828CE3BZLC7VFFDZ7ZPXSI", "current_trial": 151, "dateTime": 1513282871964, "trialdata": {"rt": -1, "stimulus": "<p id=\"stim\">5</p>", "key_press": -1, "trial_type": "single-stim", "trial_index": 151, "time_elapsed": 732178, "internal_node_id": "0.0-110.0-5.0"}}, {"uniqueid": "MTK1187:33IZTU6J828CE3BZLC7VFFDZ7ZPXSI", "current_trial": 152, "dateTime": 1513282872965, "trialdata": {"rt": -1, "stimulus": "<p id=\"stim\">4</p>", "key_press": -1, "trial_type": "single-stim", "trial_index": 152, "time_elapsed": 733179, "internal_node_id": "0.0-110.0-6.0"}}, {"uniqueid": "MTK1187:33IZTU6J828CE3BZLC7VFFDZ7ZPXSI", "current_trial": 153, "dateTime": 1513282873966, "trialdata": {"rt": -1, "stimulus": "<p id=\"stim\">3</p>", "key_press": -1, "trial_type": "single-stim", "trial_index": 153, "time_elapsed": 734180, "internal_node_id": "0.0-110.0-7.0"}}, {"uniqueid": "MTK1187:33IZTU6J828CE3BZLC7VFFDZ7ZPXSI", "current_trial": 154, "dateTime": 1513282874967, "trialdata": {"rt": -1, "stimulus": "<p id=\"stim\">2</p>", "key_press": -1, "trial_type": "single-stim", "trial_index": 154, "time_elapsed": 735181, "internal_node_id": "0.0-110.0-8.0"}}, {"uniqueid": "MTK1187:33IZTU6J828CE3BZLC7VFFDZ7ZPXSI", "current_trial": 155, "dateTime": 1513282875969, "trialdata": {"rt": -1, "stimulus": "<p id=\"stim\">1</p>", "key_press": -1, "trial_type": "single-stim", "trial_index": 155, "time_elapsed": 736183, "internal_node_id": "0.0-110.0-9.0"}}, {"uniqueid": "MTK1187:33IZTU6J828CE3BZLC7VFFDZ7ZPXSI", "current_trial": 156, "dateTime": 1513282877470, "trialdata": {"rt": -1, "stimulus": "<p id=\"stim\">+</p>", "key_press": -1, "type": "FIXATION", "trial_type": "single-stim", "trial_index": 156, "time_elapsed": 737684, "internal_node_id": "0.0-111.0-0.0"}}, {"uniqueid": "MTK1187:33IZTU6J828CE3BZLC7VFFDZ7ZPXSI", "current_trial": 157, "dateTime": 1513282878272, "trialdata": {"rt": -1, "stimulus": "<p id=\"stim\">MATTRESS</p>", "key_press": -1, "type": "PRES_VIS", "word": "mattress", "wordID": 878, "conditions": [24, 800, "v", 12000], "trial": 4, "serialpos": 0, "trial_type": "single-stim", "trial_index": 157, "time_elapsed": 738486, "internal_node_id": "0.0-112.0"}}, {"uniqueid": "MTK1187:33IZTU6J828CE3BZLC7VFFDZ7ZPXSI", "current_trial": 158, "dateTime": 1513282879952, "trialdata": {"rt": -1, "stimulus": "<p id=\"stim\">ORCHID</p>", "key_press": -1, "type": "PRES_VIS", "word": "orchid", "wordID": 981, "conditions": [24, 800, "v", 12000], "trial": 4, "serialpos": 1, "trial_type": "single-stim", "trial_index": 158, "time_elapsed": 740166, "internal_node_id": "0.0-113.0"}}, {"uniqueid": "MTK1187:33IZTU6J828CE3BZLC7VFFDZ7ZPXSI", "current_trial": 159, "dateTime": 1513282881706, "trialdata": {"rt": -1, "stimulus": "<p id=\"stim\">LILY</p>", "key_press": -1, "type": "PRES_VIS", "word": "lily", "wordID": 820, "conditions": [24, 800, "v", 12000], "trial": 4, "serialpos": 2, "trial_type": "single-stim", "trial_index": 159, "time_elapsed": 741920, "internal_node_id": "0.0-114.0"}}, {"uniqueid": "MTK1187:33IZTU6J828CE3BZLC7VFFDZ7ZPXSI", "current_trial": 160, "dateTime": 1513282883314, "trialdata": {"rt": -1, "stimulus": "<p id=\"stim\">SKILLET</p>", "key_press": -1, "type": "PRES_VIS", "word": "skillet", "wordID": 1316, "conditions": [24, 800, "v", 12000], "trial": 4, "serialpos": 3, "trial_type": "single-stim", "trial_index": 160, "time_elapsed": 743528, "internal_node_id": "0.0-115.0"}}, {"uniqueid": "MTK1187:33IZTU6J828CE3BZLC7VFFDZ7ZPXSI", "current_trial": 161, "dateTime": 1513282884986, "trialdata": {"rt": -1, "stimulus": "<p id=\"stim\">TUNNEL</p>", "key_press": -1, "type": "PRES_VIS", "word": "tunnel", "wordID": 1518, "conditions": [24, 800, "v", 12000], "trial": 4, "serialpos": 4, "trial_type": "single-stim", "trial_index": 161, "time_elapsed": 745200, "internal_node_id": "0.0-116.0"}}, {"uniqueid": "MTK1187:33IZTU6J828CE3BZLC7VFFDZ7ZPXSI", "current_trial": 162, "dateTime": 1513282886976, "trialdata": {"rt": -1, "stimulus": "<p id=\"stim\">HUSBAND</p>", "key_press": -1, "type": "PRES_VIS", "word": "husband", "wordID": 727, "conditions": [24, 800, "v", 12000], "trial": 4, "serialpos": 5, "trial_type": "single-stim", "trial_index": 162, "time_elapsed": 747190, "internal_node_id": "0.0-117.0"}}, {"uniqueid": "MTK1187:33IZTU6J828CE3BZLC7VFFDZ7ZPXSI", "current_trial": 163, "dateTime": 1513282888828, "trialdata": {"rt": -1, "stimulus": "<p id=\"stim\">TABLE</p>", "key_press": -1, "type": "PRES_VIS", "word": "table", "wordID": 1425, "conditions": [24, 800, "v", 12000], "trial": 4, "serialpos": 6, "trial_type": "single-stim", "trial_index": 163, "time_elapsed": 749042, "internal_node_id": "0.0-118.0"}}, {"uniqueid": "MTK1187:33IZTU6J828CE3BZLC7VFFDZ7ZPXSI", "current_trial": 164, "dateTime": 1513282890737, "trialdata": {"rt": -1, "stimulus": "<p id=\"stim\">GAZELLE</p>", "key_press": -1, "type": "PRES_VIS", "word": "gazelle", "wordID": 627, "conditions": [24, 800, "v", 12000], "trial": 4, "serialpos": 7, "trial_type": "single-stim", "trial_index": 164, "time_elapsed": 750951, "internal_node_id": "0.0-119.0"}}, {"uniqueid": "MTK1187:33IZTU6J828CE3BZLC7VFFDZ7ZPXSI", "current_trial": 165, "dateTime": 1513282892399, "trialdata": {"rt": -1, "stimulus": "<p id=\"stim\">JUNGLE</p>", "key_press": -1, "type": "PRES_VIS", "word": "jungle", "wordID": 763, "conditions": [24, 800, "v", 12000], "trial": 4, "serialpos": 8, "trial_type": "single-stim", "trial_index": 165, "time_elapsed": 752613, "internal_node_id": "0.0-120.0"}}, {"uniqueid": "MTK1187:33IZTU6J828CE3BZLC7VFFDZ7ZPXSI", "current_trial": 166, "dateTime": 1513282894079, "trialdata": {"rt": -1, "stimulus": "<p id=\"stim\">CRIB</p>", "key_press": -1, "type": "PRES_VIS", "word": "crib", "wordID": 406, "conditions": [24, 800, "v", 12000], "trial": 4, "serialpos": 9, "trial_type": "single-stim", "trial_index": 166, "time_elapsed": 754293, "internal_node_id": "0.0-121.0"}}, {"uniqueid": "MTK1187:33IZTU6J828CE3BZLC7VFFDZ7ZPXSI", "current_trial": 167, "dateTime": 1513282895770, "trialdata": {"rt": -1, "stimulus": "<p id=\"stim\">GLOBE</p>", "key_press": -1, "type": "PRES_VIS", "word": "globe", "wordID": 640, "conditions": [24, 800, "v", 12000], "trial": 4, "serialpos": 10, "trial_type": "single-stim", "trial_index": 167, "time_elapsed": 755984, "internal_node_id": "0.0-122.0"}}, {"uniqueid": "MTK1187:33IZTU6J828CE3BZLC7VFFDZ7ZPXSI", "current_trial": 168, "dateTime": 1513282897585, "trialdata": {"rt": -1, "stimulus": "<p id=\"stim\">BATHTUB</p>", "key_press": -1, "type": "PRES_VIS", "word": "bathtub", "wordID": 99, "conditions": [24, 800, "v", 12000], "trial": 4, "serialpos": 11, "trial_type": "single-stim", "trial_index": 168, "time_elapsed": 757799, "internal_node_id": "0.0-123.0"}}, {"uniqueid": "MTK1187:33IZTU6J828CE3BZLC7VFFDZ7ZPXSI", "current_trial": 169, "dateTime": 1513282899408, "trialdata": {"rt": -1, "stimulus": "<p id=\"stim\">PASSAGE</p>", "key_press": -1, "type": "PRES_VIS", "word": "passage", "wordID": 1018, "conditions": [24, 800, "v", 12000], "trial": 4, "serialpos": 12, "trial_type": "single-stim", "trial_index": 169, "time_elapsed": 759622, "internal_node_id": "0.0-124.0"}}, {"uniqueid": "MTK1187:33IZTU6J828CE3BZLC7VFFDZ7ZPXSI", "current_trial": 170, "dateTime": 1513282901262, "trialdata": {"rt": -1, "stimulus": "<p id=\"stim\">BLACKBOARD</p>", "key_press": -1, "type": "PRES_VIS", "word": "blackboard", "wordID": 132, "conditions": [24, 800, "v", 12000], "trial": 4, "serialpos": 13, "trial_type": "single-stim", "trial_index": 170, "time_elapsed": 761476, "internal_node_id": "0.0-125.0"}}, {"uniqueid": "MTK1187:33IZTU6J828CE3BZLC7VFFDZ7ZPXSI", "current_trial": 171, "dateTime": 1513282902998, "trialdata": {"rt": -1, "stimulus": "<p id=\"stim\">PASTRY</p>", "key_press": -1, "type": "PRES_VIS", "word": "pastry", "wordID": 1021, "conditions": [24, 800, "v", 12000], "trial": 4, "serialpos": 14, "trial_type": "single-stim", "trial_index": 171, "time_elapsed": 763212, "internal_node_id": "0.0-126.0"}}, {"uniqueid": "MTK1187:33IZTU6J828CE3BZLC7VFFDZ7ZPXSI", "current_trial": 172, "dateTime": 1513282904884, "trialdata": {"rt": -1, "stimulus": "<p id=\"stim\">LOVER</p>", "key_press": -1, "type": "PRES_VIS", "word": "lover", "wordID": 845, "conditions": [24, 800, "v", 12000], "trial": 4, "serialpos": 15, "trial_type": "single-stim", "trial_index": 172, "time_elapsed": 765097, "internal_node_id": "0.0-127.0"}}, {"uniqueid": "MTK1187:33IZTU6J828CE3BZLC7VFFDZ7ZPXSI", "current_trial": 173, "dateTime": 1513282906835, "trialdata": {"rt": -1, "stimulus": "<p id=\"stim\">AUTHOR</p>", "key_press": -1, "type": "PRES_VIS", "word": "author", "wordID": 60, "conditions": [24, 800, "v", 12000], "trial": 4, "serialpos": 16, "trial_type": "single-stim", "trial_index": 173, "time_elapsed": 767049, "internal_node_id": "0.0-128.0"}}, {"uniqueid": "MTK1187:33IZTU6J828CE3BZLC7VFFDZ7ZPXSI", "current_trial": 174, "dateTime": 1513282908467, "trialdata": {"rt": -1, "stimulus": "<p id=\"stim\">MATCH</p>", "key_press": -1, "type": "PRES_VIS", "word": "match", "wordID": 877, "conditions": [24, 800, "v", 12000], "trial": 4, "serialpos": 17, "trial_type": "single-stim", "trial_index": 174, "time_elapsed": 768681, "internal_node_id": "0.0-129.0"}}, {"uniqueid": "MTK1187:33IZTU6J828CE3BZLC7VFFDZ7ZPXSI", "current_trial": 175, "dateTime": 1513282910085, "trialdata": {"rt": -1, "stimulus": "<p id=\"stim\">LUNCH</p>", "key_press": -1, "type": "PRES_VIS", "word": "lunch", "wordID": 848, "conditions": [24, 800, "v", 12000], "trial": 4, "serialpos": 18, "trial_type": "single-stim", "trial_index": 175, "time_elapsed": 770299, "internal_node_id": "0.0-130.0"}}, {"uniqueid": "MTK1187:33IZTU6J828CE3BZLC7VFFDZ7ZPXSI", "current_trial": 176, "dateTime": 1513282912053, "trialdata": {"rt": -1, "stimulus": "<p id=\"stim\">MUFFIN</p>", "key_press": -1, "type": "PRES_VIS", "word": "muffin", "wordID": 928, "conditions": [24, 800, "v", 12000], "trial": 4, "serialpos": 19, "trial_type": "single-stim", "trial_index": 176, "time_elapsed": 772267, "internal_node_id": "0.0-131.0"}}, {"uniqueid": "MTK1187:33IZTU6J828CE3BZLC7VFFDZ7ZPXSI", "current_trial": 177, "dateTime": 1513282913995, "trialdata": {"rt": -1, "stimulus": "<p id=\"stim\">TRUCK</p>", "key_press": -1, "type": "PRES_VIS", "word": "truck", "wordID": 1511, "conditions": [24, 800, "v", 12000], "trial": 4, "serialpos": 20, "trial_type": "single-stim", "trial_index": 177, "time_elapsed": 774209, "internal_node_id": "0.0-132.0"}}, {"uniqueid": "MTK1187:33IZTU6J828CE3BZLC7VFFDZ7ZPXSI", "current_trial": 178, "dateTime": 1513282915714, "trialdata": {"rt": -1, "stimulus": "<p id=\"stim\">TRACTOR</p>", "key_press": -1, "type": "PRES_VIS", "word": "tractor", "wordID": 1492, "conditions": [24, 800, "v", 12000], "trial": 4, "serialpos": 21, "trial_type": "single-stim", "trial_index": 178, "time_elapsed": 775928, "internal_node_id": "0.0-133.0"}}, {"uniqueid": "MTK1187:33IZTU6J828CE3BZLC7VFFDZ7ZPXSI", "current_trial": 179, "dateTime": 1513282917476, "trialdata": {"rt": -1, "stimulus": "<p id=\"stim\">NURSE</p>", "key_press": -1, "type": "PRES_VIS", "word": "nurse", "wordID": 962, "conditions": [24, 800, "v", 12000], "trial": 4, "serialpos": 22, "trial_type": "single-stim", "trial_index": 179, "time_elapsed": 777690, "internal_node_id": "0.0-134.0"}}, {"uniqueid": "MTK1187:33IZTU6J828CE3BZLC7VFFDZ7ZPXSI", "current_trial": 180, "dateTime": 1513282919261, "trialdata": {"rt": -1, "stimulus": "<p id=\"stim\">KLEENEX</p>", "key_press": -1, "type": "PRES_VIS", "word": "kleenex", "wordID": 781, "conditions": [24, 800, "v", 12000], "trial": 4, "serialpos": 23, "trial_type": "single-stim", "trial_index": 180, "time_elapsed": 779475, "internal_node_id": "0.0-135.0"}}, {"uniqueid": "MTK1187:33IZTU6J828CE3BZLC7VFFDZ7ZPXSI", "current_trial": 181, "dateTime": 1513282921522, "trialdata": {"rt": -1, "stimulus": "", "key_press": -1, "type": "PRE_RECALL_DELAY", "trial_type": "single-stim", "trial_index": 181, "time_elapsed": 781736, "internal_node_id": "0.0-136.0-0.0"}}, {"uniqueid": "MTK1187:33IZTU6J828CE3BZLC7VFFDZ7ZPXSI", "current_trial": 182, "dateTime": 1513282922024, "trialdata": {"rt": -1000, "stimulus": "/static/audio/400Hz.wav", "key_press": -1, "type": "PRE_RECALL_ALERT", "trial_type": "single-audio", "trial_index": 182, "time_elapsed": 782237, "internal_node_id": "0.0-137.0"}}, {"uniqueid": "MTK1187:33IZTU6J828CE3BZLC7VFFDZ7ZPXSI", "current_trial": 183, "dateTime": 1513282982028, "trialdata": {"rt": [3598, 5398, 6462, 8822, 17006, 20782, 31742], "recwords": ["mattress", "husband", "lover", "crib", "table", "match", "jungle"], "type": "FREE_RECALL", "conditions": [24, 800, "v", 12000], "trial": 4, "trial_type": "free-recall", "trial_index": 183, "time_elapsed": 842240, "internal_node_id": "0.0-138.0-0.0"}}, {"uniqueid": "MTK1187:33IZTU6J828CE3BZLC7VFFDZ7ZPXSI", "current_trial": 184, "dateTime": 1513282987935, "trialdata": {"rt": 3905, "key_press": 32, "type": "INSTRUCTIONS", "trial_type": "text", "trial_index": 184, "time_elapsed": 848149, "internal_node_id": "0.0-139.0"}}, {"uniqueid": "MTK1187:33IZTU6J828CE3BZLC7VFFDZ7ZPXSI", "current_trial": 185, "dateTime": 1513283001939, "trialdata": {"rt": [3444, 5636, 8204, 10692], "responses": ["17", "8", "21", "15"], "num1": [8, 1, 8, 5, 6], "num2": [2, 5, 7, 8, 5], "num3": [7, 2, 6, 2, 6], "type": "DISTRACTOR", "conditions": [12, 1600, "a", 12000], "trial": 5, "trial_type": "math-distractor", "trial_index": 185, "time_elapsed": 862153, "internal_node_id": "0.0-140.0"}}, {"uniqueid": "MTK1187:33IZTU6J828CE3BZLC7VFFDZ7ZPXSI", "current_trial": 186, "dateTime": 1513283004941, "trialdata": {"rt": -1, "stimulus": "<p id=\"stim\">10</p>", "key_press": -1, "trial_type": "single-stim", "trial_index": 186, "time_elapsed": 865155, "internal_node_id": "0.0-141.0-0.0"}}, {"uniqueid": "MTK1187:33IZTU6J828CE3BZLC7VFFDZ7ZPXSI", "current_trial": 187, "dateTime": 1513283005943, "trialdata": {"rt": -1, "stimulus": "<p id=\"stim\">9</p>", "key_press": -1, "trial_type": "single-stim", "trial_index": 187, "time_elapsed": 866157, "internal_node_id": "0.0-141.0-1.0"}}, {"uniqueid": "MTK1187:33IZTU6J828CE3BZLC7VFFDZ7ZPXSI", "current_trial": 188, "dateTime": 1513283006944, "trialdata": {"rt": -1, "stimulus": "<p id=\"stim\">8</p>", "key_press": -1, "trial_type": "single-stim", "trial_index": 188, "time_elapsed": 867158, "internal_node_id": "0.0-141.0-2.0"}}, {"uniqueid": "MTK1187:33IZTU6J828CE3BZLC7VFFDZ7ZPXSI", "current_trial": 189, "dateTime": 1513283007945, "trialdata": {"rt": -1, "stimulus": "<p id=\"stim\">7</p>", "key_press": -1, "trial_type": "single-stim", "trial_index": 189, "time_elapsed": 868159, "internal_node_id": "0.0-141.0-3.0"}}, {"uniqueid": "MTK1187:33IZTU6J828CE3BZLC7VFFDZ7ZPXSI", "current_trial": 190, "dateTime": 1513283008946, "trialdata": {"rt": -1, "stimulus": "<p id=\"stim\">6</p>", "key_press": -1, "trial_type": "single-stim", "trial_index": 190, "time_elapsed": 869160, "internal_node_id": "0.0-141.0-4.0"}}, {"uniqueid": "MTK1187:33IZTU6J828CE3BZLC7VFFDZ7ZPXSI", "current_trial": 191, "dateTime": 1513283009947, "trialdata": {"rt": -1, "stimulus": "<p id=\"stim\">5</p>", "key_press": -1, "trial_type": "single-stim", "trial_index": 191, "time_elapsed": 870161, "internal_node_id": "0.0-141.0-5.0"}}, {"uniqueid": "MTK1187:33IZTU6J828CE3BZLC7VFFDZ7ZPXSI", "current_trial": 192, "dateTime": 1513283010948, "trialdata": {"rt": -1, "stimulus": "<p id=\"stim\">4</p>", "key_press": -1, "trial_type": "single-stim", "trial_index": 192, "time_elapsed": 871162, "internal_node_id": "0.0-141.0-6.0"}}, {"uniqueid": "MTK1187:33IZTU6J828CE3BZLC7VFFDZ7ZPXSI", "current_trial": 193, "dateTime": 1513283011950, "trialdata": {"rt": -1, "stimulus": "<p id=\"stim\">3</p>", "key_press": -1, "trial_type": "single-stim", "trial_index": 193, "time_elapsed": 872164, "internal_node_id": "0.0-141.0-7.0"}}, {"uniqueid": "MTK1187:33IZTU6J828CE3BZLC7VFFDZ7ZPXSI", "current_trial": 194, "dateTime": 1513283012952, "trialdata": {"rt": -1, "stimulus": "<p id=\"stim\">2</p>", "key_press": -1, "trial_type": "single-stim", "trial_index": 194, "time_elapsed": 873165, "internal_node_id": "0.0-141.0-8.0"}}, {"uniqueid": "MTK1187:33IZTU6J828CE3BZLC7VFFDZ7ZPXSI", "current_trial": 195, "dateTime": 1513283013953, "trialdata": {"rt": -1, "stimulus": "<p id=\"stim\">1</p>", "key_press": -1, "trial_type": "single-stim", "trial_index": 195, "time_elapsed": 874167, "internal_node_id": "0.0-141.0-9.0"}}, {"uniqueid": "MTK1187:33IZTU6J828CE3BZLC7VFFDZ7ZPXSI", "current_trial": 196, "dateTime": 1513283015454, "trialdata": {"rt": -1, "stimulus": "<p id=\"stim\">+</p>", "key_press": -1, "type": "FIXATION", "trial_type": "single-stim", "trial_index": 196, "time_elapsed": 875668, "internal_node_id": "0.0-142.0-0.0"}}, {"uniqueid": "MTK1187:33IZTU6J828CE3BZLC7VFFDZ7ZPXSI", "current_trial": 197, "dateTime": 1513283018183, "trialdata": {"rt": -1000, "stimulus": "/static/audio/wordpool/BACKBONE.wav", "key_press": -1, "type": "PRES_AUD", "word": "backbone", "wordID": 65, "conditions": [12, 1600, "a", 12000], "trial": 5, "serialpos": 0, "trial_type": "single-audio", "trial_index": 197, "time_elapsed": 878396, "internal_node_id": "0.0-143.0"}}, {"uniqueid": "MTK1187:33IZTU6J828CE3BZLC7VFFDZ7ZPXSI", "current_trial": 198, "dateTime": 1513283020668, "trialdata": {"rt": -1000, "stimulus": "/static/audio/wordpool/COSTUME.wav", "key_press": -1, "type": "PRES_AUD", "word": "costume", "wordID": 382, "conditions": [12, 1600, "a", 12000], "trial": 5, "serialpos": 1, "trial_type": "single-audio", "trial_index": 198, "time_elapsed": 880882, "internal_node_id": "0.0-144.0"}}, {"uniqueid": "MTK1187:33IZTU6J828CE3BZLC7VFFDZ7ZPXSI", "current_trial": 199, "dateTime": 1513283023325, "trialdata": {"rt": -1000, "stimulus": "/static/audio/wordpool/FOX.wav", "key_press": -1, "type": "PRES_AUD", "word": "fox", "wordID": 597, "conditions": [12, 1600, "a", 12000], "trial": 5, "serialpos": 2, "trial_type": "single-audio", "trial_index": 199, "time_elapsed": 883539, "internal_node_id": "0.0-145.0"}}, {"uniqueid": "MTK1187:33IZTU6J828CE3BZLC7VFFDZ7ZPXSI", "current_trial": 200, "dateTime": 1513283026096, "trialdata": {"rt": -1000, "stimulus": "/static/audio/wordpool/BELLY.wav", "key_press": -1, "type": "PRES_AUD", "word": "belly", "wordID": 118, "conditions": [12, 1600, "a", 12000], "trial": 5, "serialpos": 3, "trial_type": "single-audio", "trial_index": 200, "time_elapsed": 886310, "internal_node_id": "0.0-146.0"}}, {"uniqueid": "MTK1187:33IZTU6J828CE3BZLC7VFFDZ7ZPXSI", "current_trial": 201, "dateTime": 1513283028745, "trialdata": {"rt": -1000, "stimulus": "/static/audio/wordpool/PIANO.wav", "key_press": -1, "type": "PRES_AUD", "word": "piano", "wordID": 1056, "conditions": [12, 1600, "a", 12000], "trial": 5, "serialpos": 4, "trial_type": "single-audio", "trial_index": 201, "time_elapsed": 888959, "internal_node_id": "0.0-147.0"}}, {"uniqueid": "MTK1187:33IZTU6J828CE3BZLC7VFFDZ7ZPXSI", "current_trial": 202, "dateTime": 1513283031466, "trialdata": {"rt": -1000, "stimulus": "/static/audio/wordpool/STOVE.wav", "key_press": -1, "type": "PRES_AUD", "word": "stove", "wordID": 1387, "conditions": [12, 1600, "a", 12000], "trial": 5, "serialpos": 5, "trial_type": "single-audio", "trial_index": 202, "time_elapsed": 891680, "internal_node_id": "0.0-148.0"}}, {"uniqueid": "MTK1187:33IZTU6J828CE3BZLC7VFFDZ7ZPXSI", "current_trial": 203, "dateTime": 1513283034210, "trialdata": {"rt": -1000, "stimulus": "/static/audio/wordpool/FIREPLACE.wav", "key_press": -1, "type": "PRES_AUD", "word": "fireplace", "wordID": 569, "conditions": [12, 1600, "a", 12000], "trial": 5, "serialpos": 6, "trial_type": "single-audio", "trial_index": 203, "time_elapsed": 894424, "internal_node_id": "0.0-149.0"}}, {"uniqueid": "MTK1187:33IZTU6J828CE3BZLC7VFFDZ7ZPXSI", "current_trial": 204, "dateTime": 1513283036874, "trialdata": {"rt": -1000, "stimulus": "/static/audio/wordpool/TWEEZERS.wav", "key_press": -1, "type": "PRES_AUD", "word": "tweezers", "wordID": 1525, "conditions": [12, 1600, "a", 12000], "trial": 5, "serialpos": 7, "trial_type": "single-audio", "trial_index": 204, "time_elapsed": 897088, "internal_node_id": "0.0-150.0"}}, {"uniqueid": "MTK1187:33IZTU6J828CE3BZLC7VFFDZ7ZPXSI", "current_trial": 205, "dateTime": 1513283039376, "trialdata": {"rt": -1000, "stimulus": "/static/audio/wordpool/LAMP.wav", "key_press": -1, "type": "PRES_AUD", "word": "lamp", "wordID": 797, "conditions": [12, 1600, "a", 12000], "trial": 5, "serialpos": 8, "trial_type": "single-audio", "trial_index": 205, "time_elapsed": 899590, "internal_node_id": "0.0-151.0"}}, {"uniqueid": "MTK1187:33IZTU6J828CE3BZLC7VFFDZ7ZPXSI", "current_trial": 206, "dateTime": 1513283042154, "trialdata": {"rt": -1000, "stimulus": "/static/audio/wordpool/CHAPEL.wav", "key_press": -1, "type": "PRES_AUD", "word": "chapel", "wordID": 279, "conditions": [12, 1600, "a", 12000], "trial": 5, "serialpos": 9, "trial_type": "single-audio", "trial_index": 206, "time_elapsed": 902368, "internal_node_id": "0.0-152.0"}}, {"uniqueid": "MTK1187:33IZTU6J828CE3BZLC7VFFDZ7ZPXSI", "current_trial": 207, "dateTime": 1513283044743, "trialdata": {"rt": -1000, "stimulus": "/static/audio/wordpool/ARM.wav", "key_press": -1, "type": "PRES_AUD", "word": "arm", "wordID": 37, "conditions": [12, 1600, "a", 12000], "trial": 5, "serialpos": 10, "trial_type": "single-audio", "trial_index": 207, "time_elapsed": 904957, "internal_node_id": "0.0-153.0"}}, {"uniqueid": "MTK1187:33IZTU6J828CE3BZLC7VFFDZ7ZPXSI", "current_trial": 208, "dateTime": 1513283047489, "trialdata": {"rt": -1000, "stimulus": "/static/audio/wordpool/BANJO.wav", "key_press": -1, "type": "PRES_AUD", "word": "banjo", "wordID": 81, "conditions": [12, 1600, "a", 12000], "trial": 5, "serialpos": 11, "trial_type": "single-audio", "trial_index": 208, "time_elapsed": 907703, "internal_node_id": "0.0-154.0"}}, {"uniqueid": "MTK1187:33IZTU6J828CE3BZLC7VFFDZ7ZPXSI", "current_trial": 209, "dateTime": 1513283048817, "trialdata": {"rt": -1, "stimulus": "", "key_press": -1, "type": "PRE_RECALL_DELAY", "trial_type": "single-stim", "trial_index": 209, "time_elapsed": 909030, "internal_node_id": "0.0-155.0-0.0"}}, {"uniqueid": "MTK1187:33IZTU6J828CE3BZLC7VFFDZ7ZPXSI", "current_trial": 210, "dateTime": 1513283049318, "trialdata": {"rt": -1000, "stimulus": "/static/audio/400Hz.wav", "key_press": -1, "type": "PRE_RECALL_ALERT", "trial_type": "single-audio", "trial_index": 210, "time_elapsed": 909532, "internal_node_id": "0.0-156.0"}}, {"uniqueid": "MTK1187:33IZTU6J828CE3BZLC7VFFDZ7ZPXSI", "current_trial": 211, "dateTime": 1513283109324, "trialdata": {"rt": [3367, 5663, 7231, 8815, 17103], "recwords": ["backbone", "belly", "arm", "banjo", "fox"], "type": "FREE_RECALL", "conditions": [12, 1600, "a", 12000], "trial": 5, "trial_type": "free-recall", "trial_index": 211, "time_elapsed": 969535, "internal_node_id": "0.0-157.0-0.0"}}, {"uniqueid": "MTK1187:33IZTU6J828CE3BZLC7VFFDZ7ZPXSI", "current_trial": 212, "dateTime": 1513283114030, "trialdata": {"rt": 2706, "key_press": 32, "type": "INSTRUCTIONS", "trial_type": "text", "trial_index": 212, "time_elapsed": 974244, "internal_node_id": "0.0-158.0"}}, {"uniqueid": "MTK1187:33IZTU6J828CE3BZLC7VFFDZ7ZPXSI", "current_trial": 213, "dateTime": 1513283140032, "trialdata": {"rt": [2838, 6550, 9926, 12749, 15845, 17781, 20886, 22997], "responses": ["13", "10", "20", "14", "16", "18", "19", "16"], "num1": [3, 4, 3, 8, 7, 2, 7, 5, 2], "num2": [1, 4, 8, 3, 3, 8, 7, 4, 9], "num3": [9, 2, 9, 3, 6, 8, 5, 7, 3], "type": "DISTRACTOR", "conditions": [24, 800, "a", 24000], "trial": 6, "trial_type": "math-distractor", "trial_index": 213, "time_elapsed": 1000246, "internal_node_id": "0.0-159.0"}}, {"uniqueid": "MTK1187:33IZTU6J828CE3BZLC7VFFDZ7ZPXSI", "current_trial": 214, "dateTime": 1513283143035, "trialdata": {"rt": -1, "stimulus": "<p id=\"stim\">10</p>", "key_press": -1, "trial_type": "single-stim", "trial_index": 214, "time_elapsed": 1003249, "internal_node_id": "0.0-160.0-0.0"}}, {"uniqueid": "MTK1187:33IZTU6J828CE3BZLC7VFFDZ7ZPXSI", "current_trial": 215, "dateTime": 1513283144036, "trialdata": {"rt": -1, "stimulus": "<p id=\"stim\">9</p>", "key_press": -1, "trial_type": "single-stim", "trial_index": 215, "time_elapsed": 1004250, "internal_node_id": "0.0-160.0-1.0"}}, {"uniqueid": "MTK1187:33IZTU6J828CE3BZLC7VFFDZ7ZPXSI", "current_trial": 216, "dateTime": 1513283145038, "trialdata": {"rt": -1, "stimulus": "<p id=\"stim\">8</p>", "key_press": -1, "trial_type": "single-stim", "trial_index": 216, "time_elapsed": 1005252, "internal_node_id": "0.0-160.0-2.0"}}, {"uniqueid": "MTK1187:33IZTU6J828CE3BZLC7VFFDZ7ZPXSI", "current_trial": 217, "dateTime": 1513283146038, "trialdata": {"rt": -1, "stimulus": "<p id=\"stim\">7</p>", "key_press": -1, "trial_type": "single-stim", "trial_index": 217, "time_elapsed": 1006252, "internal_node_id": "0.0-160.0-3.0"}}, {"uniqueid": "MTK1187:33IZTU6J828CE3BZLC7VFFDZ7ZPXSI", "current_trial": 218, "dateTime": 1513283147040, "trialdata": {"rt": -1, "stimulus": "<p id=\"stim\">6</p>", "key_press": -1, "trial_type": "single-stim", "trial_index": 218, "time_elapsed": 1007254, "internal_node_id": "0.0-160.0-4.0"}}, {"uniqueid": "MTK1187:33IZTU6J828CE3BZLC7VFFDZ7ZPXSI", "current_trial": 219, "dateTime": 1513283148041, "trialdata": {"rt": -1, "stimulus": "<p id=\"stim\">5</p>", "key_press": -1, "trial_type": "single-stim", "trial_index": 219, "time_elapsed": 1008255, "internal_node_id": "0.0-160.0-5.0"}}, {"uniqueid": "MTK1187:33IZTU6J828CE3BZLC7VFFDZ7ZPXSI", "current_trial": 220, "dateTime": 1513283149042, "trialdata": {"rt": -1, "stimulus": "<p id=\"stim\">4</p>", "key_press": -1, "trial_type": "single-stim", "trial_index": 220, "time_elapsed": 1009256, "internal_node_id": "0.0-160.0-6.0"}}, {"uniqueid": "MTK1187:33IZTU6J828CE3BZLC7VFFDZ7ZPXSI", "current_trial": 221, "dateTime": 1513283150043, "trialdata": {"rt": -1, "stimulus": "<p id=\"stim\">3</p>", "key_press": -1, "trial_type": "single-stim", "trial_index": 221, "time_elapsed": 1010257, "internal_node_id": "0.0-160.0-7.0"}}, {"uniqueid": "MTK1187:33IZTU6J828CE3BZLC7VFFDZ7ZPXSI", "current_trial": 222, "dateTime": 1513283151045, "trialdata": {"rt": -1, "stimulus": "<p id=\"stim\">2</p>", "key_press": -1, "trial_type": "single-stim", "trial_index": 222, "time_elapsed": 1011259, "internal_node_id": "0.0-160.0-8.0"}}, {"uniqueid": "MTK1187:33IZTU6J828CE3BZLC7VFFDZ7ZPXSI", "current_trial": 223, "dateTime": 1513283152045, "trialdata": {"rt": -1, "stimulus": "<p id=\"stim\">1</p>", "key_press": -1, "trial_type": "single-stim", "trial_index": 223, "time_elapsed": 1012259, "internal_node_id": "0.0-160.0-9.0"}}, {"uniqueid": "MTK1187:33IZTU6J828CE3BZLC7VFFDZ7ZPXSI", "current_trial": 224, "dateTime": 1513283153546, "trialdata": {"rt": -1, "stimulus": "<p id=\"stim\">+</p>", "key_press": -1, "type": "FIXATION", "trial_type": "single-stim", "trial_index": 224, "time_elapsed": 1013760, "internal_node_id": "0.0-161.0-0.0"}}, {"uniqueid": "MTK1187:33IZTU6J828CE3BZLC7VFFDZ7ZPXSI", "current_trial": 225, "dateTime": 1513283155153, "trialdata": {"rt": -1000, "stimulus": "/static/audio/wordpool/PUDDLE.wav", "key_press": -1, "type": "PRES_AUD", "word": "puddle", "wordID": 1139, "conditions": [24, 800, "a", 24000], "trial": 6, "serialpos": 0, "trial_type": "single-audio", "trial_index": 225, "time_elapsed": 1015367, "internal_node_id": "0.0-162.0"}}, {"uniqueid": "MTK1187:33IZTU6J828CE3BZLC7VFFDZ7ZPXSI", "current_trial": 226, "dateTime": 1513283157012, "trialdata": {"rt": -1000, "stimulus": "/static/audio/wordpool/DOUGHNUT.wav", "key_press": -1, "type": "PRES_AUD", "word": "doughnut", "wordID": 489, "conditions": [24, 800, "a", 24000], "trial": 6, "serialpos": 1, "trial_type": "single-audio", "trial_index": 226, "time_elapsed": 1017226, "internal_node_id": "0.0-163.0"}}, {"uniqueid": "MTK1187:33IZTU6J828CE3BZLC7VFFDZ7ZPXSI", "current_trial": 227, "dateTime": 1513283158702, "trialdata": {"rt": -1000, "stimulus": "/static/audio/wordpool/TRENCH.wav", "key_press": -1, "type": "PRES_AUD", "word": "trench", "wordID": 1502, "conditions": [24, 800, "a", 24000], "trial": 6, "serialpos": 2, "trial_type": "single-audio", "trial_index": 227, "time_elapsed": 1018916, "internal_node_id": "0.0-164.0"}}, {"uniqueid": "MTK1187:33IZTU6J828CE3BZLC7VFFDZ7ZPXSI", "current_trial": 228, "dateTime": 1513283160395, "trialdata": {"rt": -1000, "stimulus": "/static/audio/wordpool/CAMEL.wav", "key_press": -1, "type": "PRES_AUD", "word": "camel", "wordID": 222, "conditions": [24, 800, "a", 24000], "trial": 6, "serialpos": 3, "trial_type": "single-audio", "trial_index": 228, "time_elapsed": 1020609, "internal_node_id": "0.0-165.0"}}, {"uniqueid": "MTK1187:33IZTU6J828CE3BZLC7VFFDZ7ZPXSI", "current_trial": 229, "dateTime": 1513283162392, "trialdata": {"rt": -1000, "stimulus": "/static/audio/wordpool/VELVET.wav", "key_press": -1, "type": "PRES_AUD", "word": "velvet", "wordID": 1554, "conditions": [24, 800, "a", 24000], "trial": 6, "serialpos": 4, "trial_type": "single-audio", "trial_index": 229, "time_elapsed": 1022606, "internal_node_id": "0.0-166.0"}}, {"uniqueid": "MTK1187:33IZTU6J828CE3BZLC7VFFDZ7ZPXSI", "current_trial": 230, "dateTime": 1513283164302, "trialdata": {"rt": -1000, "stimulus": "/static/audio/wordpool/PECAN.wav", "key_press": -1, "type": "PRES_AUD", "word": "pecan", "wordID": 1035, "conditions": [24, 800, "a", 24000], "trial": 6, "serialpos": 5, "trial_type": "single-audio", "trial_index": 230, "time_elapsed": 1024516, "internal_node_id": "0.0-167.0"}}, {"uniqueid": "MTK1187:33IZTU6J828CE3BZLC7VFFDZ7ZPXSI", "current_trial": 231, "dateTime": 1513283166136, "trialdata": {"rt": -1000, "stimulus": "/static/audio/wordpool/SHOVEL.wav", "key_press": -1, "type": "PRES_AUD", "word": "shovel", "wordID": 1294, "conditions": [24, 800, "a", 24000], "trial": 6, "serialpos": 6, "trial_type": "single-audio", "trial_index": 231, "time_elapsed": 1026350, "internal_node_id": "0.0-168.0"}}, {"uniqueid": "MTK1187:33IZTU6J828CE3BZLC7VFFDZ7ZPXSI", "current_trial": 232, "dateTime": 1513283168112, "trialdata": {"rt": -1000, "stimulus": "/static/audio/wordpool/JELLO.wav", "key_press": -1, "type": "PRES_AUD", "word": "jello", "wordID": 753, "conditions": [24, 800, "a", 24000], "trial": 6, "serialpos": 7, "trial_type": "single-audio", "trial_index": 232, "time_elapsed": 1028326, "internal_node_id": "0.0-169.0"}}, {"uniqueid": "MTK1187:33IZTU6J828CE3BZLC7VFFDZ7ZPXSI", "current_trial": 233, "dateTime": 1513283169770, "trialdata": {"rt": -1000, "stimulus": "/static/audio/wordpool/JELLY.wav", "key_press": -1, "type": "PRES_AUD", "word": "jelly", "wordID": 754, "conditions": [24, 800, "a", 24000], "trial": 6, "serialpos": 8, "trial_type": "single-audio", "trial_index": 233, "time_elapsed": 1029984, "internal_node_id": "0.0-170.0"}}, {"uniqueid": "MTK1187:33IZTU6J828CE3BZLC7VFFDZ7ZPXSI", "current_trial": 234, "dateTime": 1513283171584, "trialdata": {"rt": -1000, "stimulus": "/static/audio/wordpool/BEAKER.wav", "key_press": -1, "type": "PRES_AUD", "word": "beaker", "wordID": 103, "conditions": [24, 800, "a", 24000], "trial": 6, "serialpos": 9, "trial_type": "single-audio", "trial_index": 234, "time_elapsed": 1031798, "internal_node_id": "0.0-171.0"}}, {"uniqueid": "MTK1187:33IZTU6J828CE3BZLC7VFFDZ7ZPXSI", "current_trial": 235, "dateTime": 1513283173552, "trialdata": {"rt": -1000, "stimulus": "/static/audio/wordpool/SILK.wav", "key_press": -1, "type": "PRES_AUD", "word": "silk", "wordID": 1306, "conditions": [24, 800, "a", 24000], "trial": 6, "serialpos": 10, "trial_type": "single-audio", "trial_index": 235, "time_elapsed": 1033766, "internal_node_id": "0.0-172.0"}}, {"uniqueid": "MTK1187:33IZTU6J828CE3BZLC7VFFDZ7ZPXSI", "current_trial": 236, "dateTime": 1513283175159, "trialdata": {"rt": -1000, "stimulus": "/static/audio/wordpool/CRUTCH.wav", "key_press": -1, "type": "PRES_AUD", "word": "crutch", "wordID": 416, "conditions": [24, 800, "a", 24000], "trial": 6, "serialpos": 11, "trial_type": "single-audio", "trial_index": 236, "time_elapsed": 1035373, "internal_node_id": "0.0-173.0"}}, {"uniqueid": "MTK1187:33IZTU6J828CE3BZLC7VFFDZ7ZPXSI", "current_trial": 237, "dateTime": 1513283177155, "trialdata": {"rt": -1000, "stimulus": "/static/audio/wordpool/DUST.wav", "key_press": -1, "type": "PRES_AUD", "word": "dust", "wordID": 507, "conditions": [24, 800, "a", 24000], "trial": 6, "serialpos": 12, "trial_type": "single-audio", "trial_index": 237, "time_elapsed": 1037369, "internal_node_id": "0.0-174.0"}}, {"uniqueid": "MTK1187:33IZTU6J828CE3BZLC7VFFDZ7ZPXSI", "current_trial": 238, "dateTime": 1513283178883, "trialdata": {"rt": -1000, "stimulus": "/static/audio/wordpool/JURY.wav", "key_press": -1, "type": "PRES_AUD", "word": "jury", "wordID": 765, "conditions": [24, 800, "a", 24000], "trial": 6, "serialpos": 13, "trial_type": "single-audio", "trial_index": 238, "time_elapsed": 1039097, "internal_node_id": "0.0-175.0"}}, {"uniqueid": "MTK1187:33IZTU6J828CE3BZLC7VFFDZ7ZPXSI", "current_trial": 239, "dateTime": 1513283180838, "trialdata": {"rt": -1000, "stimulus": "/static/audio/wordpool/JUDGE.wav", "key_press": -1, "type": "PRES_AUD", "word": "judge", "wordID": 760, "conditions": [24, 800, "a", 24000], "trial": 6, "serialpos": 14, "trial_type": "single-audio", "trial_index": 239, "time_elapsed": 1041052, "internal_node_id": "0.0-176.0"}}, {"uniqueid": "MTK1187:33IZTU6J828CE3BZLC7VFFDZ7ZPXSI", "current_trial": 240, "dateTime": 1513283182720, "trialdata": {"rt": -1000, "stimulus": "/static/audio/wordpool/TRIBE.wav", "key_press": -1, "type": "PRES_AUD", "word": "tribe", "wordID": 1504, "conditions": [24, 800, "a", 24000], "trial": 6, "serialpos": 15, "trial_type": "single-audio", "trial_index": 240, "time_elapsed": 1042934, "internal_node_id": "0.0-177.0"}}, {"uniqueid": "MTK1187:33IZTU6J828CE3BZLC7VFFDZ7ZPXSI", "current_trial": 241, "dateTime": 1513283184633, "trialdata": {"rt": -1000, "stimulus": "/static/audio/wordpool/TOMBSTONE.wav", "key_press": -1, "type": "PRES_AUD", "word": "tombstone", "wordID": 1477, "conditions": [24, 800, "a", 24000], "trial": 6, "serialpos": 16, "trial_type": "single-audio", "trial_index": 241, "time_elapsed": 1044847, "internal_node_id": "0.0-178.0"}}, {"uniqueid": "MTK1187:33IZTU6J828CE3BZLC7VFFDZ7ZPXSI", "current_trial": 242, "dateTime": 1513283186375, "trialdata": {"rt": -1000, "stimulus": "/static/audio/wordpool/PASTA.wav", "key_press": -1, "type": "PRES_AUD", "word": "pasta", "wordID": 1020, "conditions": [24, 800, "a", 24000], "trial": 6, "serialpos": 17, "trial_type": "single-audio", "trial_index": 242, "time_elapsed": 1046589, "internal_node_id": "0.0-179.0"}}, {"uniqueid": "MTK1187:33IZTU6J828CE3BZLC7VFFDZ7ZPXSI", "current_trial": 243, "dateTime": 1513283188293, "trialdata": {"rt": -1000, "stimulus": "/static/audio/wordpool/MAILBOX.wav", "key_press": -1, "type": "PRES_AUD", "word": "mailbox", "wordID": 856, "conditions": [24, 800, "a", 24000], "trial": 6, "serialpos": 18, "trial_type": "single-audio", "trial_index": 243, "time_elapsed": 1048507, "internal_node_id": "0.0-180.0"}}, {"uniqueid": "MTK1187:33IZTU6J828CE3BZLC7VFFDZ7ZPXSI", "current_trial": 244, "dateTime": 1513283189951, "trialdata": {"rt": -1000, "stimulus": "/static/audio/wordpool/CREVICE.wav", "key_press": -1, "type": "PRES_AUD", "word": "crevice", "wordID": 404, "conditions": [24, 800, "a", 24000], "trial": 6, "serialpos": 19, "trial_type": "single-audio", "trial_index": 244, "time_elapsed": 1050165, "internal_node_id": "0.0-181.0"}}, {"uniqueid": "MTK1187:33IZTU6J828CE3BZLC7VFFDZ7ZPXSI", "current_trial": 245, "dateTime": 1513283191688, "trialdata": {"rt": -1000, "stimulus": "/static/audio/wordpool/CASKET.wav", "key_press": -1, "type": "PRES_AUD", "word": "casket", "wordID": 254, "conditions": [24, 800, "a", 24000], "trial": 6, "serialpos": 20, "trial_type": "single-audio", "trial_index": 245, "time_elapsed": 1051902, "internal_node_id": "0.0-182.0"}}, {"uniqueid": "MTK1187:33IZTU6J828CE3BZLC7VFFDZ7ZPXSI", "current_trial": 246, "dateTime": 1513283193361, "trialdata": {"rt": -1000, "stimulus": "/static/audio/wordpool/RIFLE.wav", "key_press": -1, "type": "PRES_AUD", "word": "rifle", "wordID": 1191, "conditions": [24, 800, "a", 24000], "trial": 6, "serialpos": 21, "trial_type": "single-audio", "trial_index": 246, "time_elapsed": 1053575, "internal_node_id": "0.0-183.0"}}, {"uniqueid": "MTK1187:33IZTU6J828CE3BZLC7VFFDZ7ZPXSI", "current_trial": 247, "dateTime": 1513283195069, "trialdata": {"rt": -1000, "stimulus": "/static/audio/wordpool/SALT.wav", "key_press": -1, "type": "PRES_AUD", "word": "salt", "wordID": 1228, "conditions": [24, 800, "a", 24000], "trial": 6, "serialpos": 22, "trial_type": "single-audio", "trial_index": 247, "time_elapsed": 1055283, "internal_node_id": "0.0-184.0"}}, {"uniqueid": "MTK1187:33IZTU6J828CE3BZLC7VFFDZ7ZPXSI", "current_trial": 248, "dateTime": 1513283196915, "trialdata": {"rt": -1000, "stimulus": "/static/audio/wordpool/PORK.wav", "key_press": -1, "type": "PRES_AUD", "word": "pork", "wordID": 1107, "conditions": [24, 800, "a", 24000], "trial": 6, "serialpos": 23, "trial_type": "single-audio", "trial_index": 248, "time_elapsed": 1057129, "internal_node_id": "0.0-185.0"}}, {"uniqueid": "MTK1187:33IZTU6J828CE3BZLC7VFFDZ7ZPXSI", "current_trial": 249, "dateTime": 1513283198232, "trialdata": {"rt": -1, "stimulus": "", "key_press": -1, "type": "PRE_RECALL_DELAY", "trial_type": "single-stim", "trial_index": 249, "time_elapsed": 1058446, "internal_node_id": "0.0-186.0-0.0"}}, {"uniqueid": "MTK1187:33IZTU6J828CE3BZLC7VFFDZ7ZPXSI", "current_trial": 250, "dateTime": 1513283198734, "trialdata": {"rt": -1000, "stimulus": "/static/audio/400Hz.wav", "key_press": -1, "type": "PRE_RECALL_ALERT", "trial_type": "single-audio", "trial_index": 250, "time_elapsed": 1058947, "internal_node_id": "0.0-187.0"}}, {"uniqueid": "MTK1187:33IZTU6J828CE3BZLC7VFFDZ7ZPXSI", "current_trial": 251, "dateTime": 1513283258738, "trialdata": {"rt": [2374, 4262, 5950, 7446, 14294, 17022, 19006, 30134], "recwords": ["judge", "jury", "salt", "pork", "donut", "jelly", "jello", "pasta"], "type": "FREE_RECALL", "conditions": [24, 800, "a", 24000], "trial": 6, "trial_type": "free-recall", "trial_index": 251, "time_elapsed": 1118949, "internal_node_id": "0.0-188.0-0.0"}}, {"uniqueid": "MTK1187:33IZTU6J828CE3BZLC7VFFDZ7ZPXSI", "current_trial": 252, "dateTime": 1513283261830, "trialdata": {"rt": 1090, "key_press": 32, "type": "INSTRUCTIONS", "trial_type": "text", "trial_index": 252, "time_elapsed": 1122044, "internal_node_id": "0.0-189.0"}}, {"uniqueid": "MTK1187:33IZTU6J828CE3BZLC7VFFDZ7ZPXSI", "current_trial": 253, "dateTime": 1513283287832, "trialdata": {"rt": [2390, 4790, 7054, 9078, 11982, 14102, 16406, 21910], "responses": ["18", "5", "16", "15", "12", "11", "21", "15"], "num1": [6, 1, 8, 2, 2, 6, 7, 7, 2], "num2": [4, 1, 3, 7, 6, 2, 7, 3, 3], "num3": [8, 3, 5, 6, 4, 3, 9, 5, 4], "type": "DISTRACTOR", "conditions": [24, 800, "v", 24000], "trial": 7, "trial_type": "math-distractor", "trial_index": 253, "time_elapsed": 1148046, "internal_node_id": "0.0-190.0"}}, {"uniqueid": "MTK1187:33IZTU6J828CE3BZLC7VFFDZ7ZPXSI", "current_trial": 254, "dateTime": 1513283290833, "trialdata": {"rt": -1, "stimulus": "<p id=\"stim\">10</p>", "key_press": -1, "trial_type": "single-stim", "trial_index": 254, "time_elapsed": 1151047, "internal_node_id": "0.0-191.0-0.0"}}, {"uniqueid": "MTK1187:33IZTU6J828CE3BZLC7VFFDZ7ZPXSI", "current_trial": 255, "dateTime": 1513283291834, "trialdata": {"rt": -1, "stimulus": "<p id=\"stim\">9</p>", "key_press": -1, "trial_type": "single-stim", "trial_index": 255, "time_elapsed": 1152048, "internal_node_id": "0.0-191.0-1.0"}}, {"uniqueid": "MTK1187:33IZTU6J828CE3BZLC7VFFDZ7ZPXSI", "current_trial": 256, "dateTime": 1513283292835, "trialdata": {"rt": -1, "stimulus": "<p id=\"stim\">8</p>", "key_press": -1, "trial_type": "single-stim", "trial_index": 256, "time_elapsed": 1153049, "internal_node_id": "0.0-191.0-2.0"}}, {"uniqueid": "MTK1187:33IZTU6J828CE3BZLC7VFFDZ7ZPXSI", "current_trial": 257, "dateTime": 1513283293836, "trialdata": {"rt": -1, "stimulus": "<p id=\"stim\">7</p>", "key_press": -1, "trial_type": "single-stim", "trial_index": 257, "time_elapsed": 1154050, "internal_node_id": "0.0-191.0-3.0"}}, {"uniqueid": "MTK1187:33IZTU6J828CE3BZLC7VFFDZ7ZPXSI", "current_trial": 258, "dateTime": 1513283294837, "trialdata": {"rt": -1, "stimulus": "<p id=\"stim\">6</p>", "key_press": -1, "trial_type": "single-stim", "trial_index": 258, "time_elapsed": 1155051, "internal_node_id": "0.0-191.0-4.0"}}, {"uniqueid": "MTK1187:33IZTU6J828CE3BZLC7VFFDZ7ZPXSI", "current_trial": 259, "dateTime": 1513283295840, "trialdata": {"rt": -1, "stimulus": "<p id=\"stim\">5</p>", "key_press": -1, "trial_type": "single-stim", "trial_index": 259, "time_elapsed": 1156054, "internal_node_id": "0.0-191.0-5.0"}}, {"uniqueid": "MTK1187:33IZTU6J828CE3BZLC7VFFDZ7ZPXSI", "current_trial": 260, "dateTime": 1513283296840, "trialdata": {"rt": -1, "stimulus": "<p id=\"stim\">4</p>", "key_press": -1, "trial_type": "single-stim", "trial_index": 260, "time_elapsed": 1157054, "internal_node_id": "0.0-191.0-6.0"}}, {"uniqueid": "MTK1187:33IZTU6J828CE3BZLC7VFFDZ7ZPXSI", "current_trial": 261, "dateTime": 1513283297842, "trialdata": {"rt": -1, "stimulus": "<p id=\"stim\">3</p>", "key_press": -1, "trial_type": "single-stim", "trial_index": 261, "time_elapsed": 1158056, "internal_node_id": "0.0-191.0-7.0"}}, {"uniqueid": "MTK1187:33IZTU6J828CE3BZLC7VFFDZ7ZPXSI", "current_trial": 262, "dateTime": 1513283298843, "trialdata": {"rt": -1, "stimulus": "<p id=\"stim\">2</p>", "key_press": -1, "trial_type": "single-stim", "trial_index": 262, "time_elapsed": 1159057, "internal_node_id": "0.0-191.0-8.0"}}, {"uniqueid": "MTK1187:33IZTU6J828CE3BZLC7VFFDZ7ZPXSI", "current_trial": 263, "dateTime": 1513283299844, "trialdata": {"rt": -1, "stimulus": "<p id=\"stim\">1</p>", "key_press": -1, "trial_type": "single-stim", "trial_index": 263, "time_elapsed": 1160058, "internal_node_id": "0.0-191.0-9.0"}}, {"uniqueid": "MTK1187:33IZTU6J828CE3BZLC7VFFDZ7ZPXSI", "current_trial": 264, "dateTime": 1513283301344, "trialdata": {"rt": -1, "stimulus": "<p id=\"stim\">+</p>", "key_press": -1, "type": "FIXATION", "trial_type": "single-stim", "trial_index": 264, "time_elapsed": 1161558, "internal_node_id": "0.0-192.0-0.0"}}, {"uniqueid": "MTK1187:33IZTU6J828CE3BZLC7VFFDZ7ZPXSI", "current_trial": 265, "dateTime": 1513283302145, "trialdata": {"rt": -1, "stimulus": "<p id=\"stim\">ELBOW</p>", "key_press": -1, "type": "PRES_VIS", "word": "elbow", "wordID": 519, "conditions": [24, 800, "v", 24000], "trial": 7, "serialpos": 0, "trial_type": "single-stim", "trial_index": 265, "time_elapsed": 1162359, "internal_node_id": "0.0-193.0"}}, {"uniqueid": "MTK1187:33IZTU6J828CE3BZLC7VFFDZ7ZPXSI", "current_trial": 266, "dateTime": 1513283304094, "trialdata": {"rt": -1, "stimulus": "<p id=\"stim\">CONTRACT</p>", "key_press": -1, "type": "PRES_VIS", "word": "contract", "wordID": 367, "conditions": [24, 800, "v", 24000], "trial": 7, "serialpos": 1, "trial_type": "single-stim", "trial_index": 266, "time_elapsed": 1164308, "internal_node_id": "0.0-194.0"}}, {"uniqueid": "MTK1187:33IZTU6J828CE3BZLC7VFFDZ7ZPXSI", "current_trial": 267, "dateTime": 1513283306062, "trialdata": {"rt": -1, "stimulus": "<p id=\"stim\">FEMALE</p>", "key_press": -1, "type": "PRES_VIS", "word": "female", "wordID": 558, "conditions": [24, 800, "v", 24000], "trial": 7, "serialpos": 2, "trial_type": "single-stim", "trial_index": 267, "time_elapsed": 1166276, "internal_node_id": "0.0-195.0"}}, {"uniqueid": "MTK1187:33IZTU6J828CE3BZLC7VFFDZ7ZPXSI", "current_trial": 268, "dateTime": 1513283308018, "trialdata": {"rt": -1, "stimulus": "<p id=\"stim\">JAPAN</p>", "key_press": -1, "type": "PRES_VIS", "word": "japan", "wordID": 748, "conditions": [24, 800, "v", 24000], "trial": 7, "serialpos": 3, "trial_type": "single-stim", "trial_index": 268, "time_elapsed": 1168232, "internal_node_id": "0.0-196.0"}}, {"uniqueid": "MTK1187:33IZTU6J828CE3BZLC7VFFDZ7ZPXSI", "current_trial": 269, "dateTime": 1513283310018, "trialdata": {"rt": -1, "stimulus": "<p id=\"stim\">SWIMMER</p>", "key_press": -1, "type": "PRES_VIS", "word": "swimmer", "wordID": 1419, "conditions": [24, 800, "v", 24000], "trial": 7, "serialpos": 4, "trial_type": "single-stim", "trial_index": 269, "time_elapsed": 1170232, "internal_node_id": "0.0-197.0"}}, {"uniqueid": "MTK1187:33IZTU6J828CE3BZLC7VFFDZ7ZPXSI", "current_trial": 270, "dateTime": 1513283311639, "trialdata": {"rt": -1, "stimulus": "<p id=\"stim\">WASHER</p>", "key_press": -1, "type": "PRES_VIS", "word": "washer", "wordID": 1591, "conditions": [24, 800, "v", 24000], "trial": 7, "serialpos": 5, "trial_type": "single-stim", "trial_index": 270, "time_elapsed": 1171853, "internal_node_id": "0.0-198.0"}}, {"uniqueid": "MTK1187:33IZTU6J828CE3BZLC7VFFDZ7ZPXSI", "current_trial": 271, "dateTime": 1513283313533, "trialdata": {"rt": -1, "stimulus": "<p id=\"stim\">GARBAGE</p>", "key_press": -1, "type": "PRES_VIS", "word": "garbage", "wordID": 621, "conditions": [24, 800, "v", 24000], "trial": 7, "serialpos": 6, "trial_type": "single-stim", "trial_index": 271, "time_elapsed": 1173747, "internal_node_id": "0.0-199.0"}}, {"uniqueid": "MTK1187:33IZTU6J828CE3BZLC7VFFDZ7ZPXSI", "current_trial": 272, "dateTime": 1513283315319, "trialdata": {"rt": -1, "stimulus": "<p id=\"stim\">MILK</p>", "key_press": -1, "type": "PRES_VIS", "word": "milk", "wordID": 894, "conditions": [24, 800, "v", 24000], "trial": 7, 