{"condition": 0, "counterbalance": 2585, "assignmentId": "3UJ1CZ6IZIW3CKRPF6O0NWMFE5QS5O", "workerId": "MTK1255", "hitId": "3CIS7GGG65QH0WESPA71H7EWXEWEUP", "currenttrial": 626, "bonus": 0, "data": [{"uniqueid": "MTK1255:3UJ1CZ6IZIW3CKRPF6O0NWMFE5QS5O", "current_trial": 0, "dateTime": 1513474688502, "trialdata": {"rt": 1827, "key_press": 32, "type": "INSTRUCTIONS", "trial_type": "text", "trial_index": 0, "time_elapsed": 1829, "internal_node_id": "0.0-0.0"}}, {"uniqueid": "MTK1255:3UJ1CZ6IZIW3CKRPF6O0NWMFE5QS5O", "current_trial": 1, "dateTime": 1513474698671, "trialdata": {"rt": 10168, "key_press": 32, "type": "INSTRUCTIONS", "trial_type": "text", "trial_index": 1, "time_elapsed": 11999, "internal_node_id": "0.0-1.0"}}, {"uniqueid": "MTK1255:3UJ1CZ6IZIW3CKRPF6O0NWMFE5QS5O", "current_trial": 2, "dateTime": 1513474709889, "trialdata": {"rt": [11211], "responses": ["ocean"], "type": "AUDIO_TEST", "trial_type": "audio-test", "trial_index": 2, "time_elapsed": 23217, "internal_node_id": "0.0-2.0"}}, {"uniqueid": "MTK1255:3UJ1CZ6IZIW3CKRPF6O0NWMFE5QS5O", "current_trial": 3, "dateTime": 1513474716480, "trialdata": {"rt": [6588], "responses": ["crystal"], "type": "AUDIO_TEST", "trial_type": "audio-test", "trial_index": 3, "time_elapsed": 29808, "internal_node_id": "0.0-3.0"}}, {"uniqueid": "MTK1255:3UJ1CZ6IZIW3CKRPF6O0NWMFE5QS5O", "current_trial": 4, "dateTime": 1513474721892, "trialdata": {"rt": [5409], "responses": ["spice"], "type": "AUDIO_TEST", "trial_type": "audio-test", "trial_index": 4, "time_elapsed": 35220, "internal_node_id": "0.0-4.0"}}, {"uniqueid": "MTK1255:3UJ1CZ6IZIW3CKRPF6O0NWMFE5QS5O", "current_trial": 5, "dateTime": 1513474742375, "trialdata": {"rt": 19728, "responses": "{\"Q0\":\"12:00 a.m.\",\"Q1\":\"4:00 a.m.\",\"Q2\":\"4\"}", "type": "SLEEP_SURVEY", "trial_type": "survey-text", "trial_index": 5, "time_elapsed": 55703, "internal_node_id": "0.0-5.0"}}, {"uniqueid": "MTK1255:3UJ1CZ6IZIW3CKRPF6O0NWMFE5QS5O", "current_trial": 6, "dateTime": 1513474763314, "trialdata": {"rt": 19938, "key_press": 32, "type": "INSTRUCTIONS", "trial_type": "text", "trial_index": 6, "time_elapsed": 76642, "internal_node_id": "0.0-6.0"}}, {"uniqueid": "MTK1255:3UJ1CZ6IZIW3CKRPF6O0NWMFE5QS5O", "current_trial": 7, "dateTime": 1513474775723, "trialdata": {"rt": 11903, "key_press": 32, "type": "INSTRUCTIONS", "trial_type": "text", "trial_index": 7, "time_elapsed": 89051, "internal_node_id": "0.0-7.0"}}, {"uniqueid": "MTK1255:3UJ1CZ6IZIW3CKRPF6O0NWMFE5QS5O", "current_trial": 8, "dateTime": 1513474784329, "trialdata": {"rt": 8100, "key_press": 32, "type": "INSTRUCTIONS", "trial_type": "text", "trial_index": 8, "time_elapsed": 97657, "internal_node_id": "0.0-8.0"}}, {"uniqueid": "MTK1255:3UJ1CZ6IZIW3CKRPF6O0NWMFE5QS5O", "current_trial": 9, "dateTime": 1513474803337, "trialdata": {"rt": [4105, 6401, 9269, 11913, 14872, 17133], "responses": ["18", "13", "15", "19", "9", "20"], "num1": [4, 3, 2, 5, 2, 2, 5], "num2": [6, 5, 6, 6, 3, 9, 2], "num3": [8, 5, 7, 8, 4, 9, 5], "type": "DISTRACTOR", "conditions": [18, 1200, "v", 18000], "trial": 0, "trial_type": "math-distractor", "trial_index": 9, "time_elapsed": 116665, "internal_node_id": "0.0-9.0"}}, {"uniqueid": "MTK1255:3UJ1CZ6IZIW3CKRPF6O0NWMFE5QS5O", "current_trial": 10, "dateTime": 1513474806347, "trialdata": {"rt": -1, "stimulus": "<p id=\"stim\">10</p>", "key_press": -1, "trial_type": "single-stim", "trial_index": 10, "time_elapsed": 119675, "internal_node_id": "0.0-10.0-0.0"}}, {"uniqueid": "MTK1255:3UJ1CZ6IZIW3CKRPF6O0NWMFE5QS5O", "current_trial": 11, "dateTime": 1513474807351, "trialdata": {"rt": -1, "stimulus": "<p id=\"stim\">9</p>", "key_press": -1, "trial_type": "single-stim", "trial_index": 11, "time_elapsed": 120679, "internal_node_id": "0.0-10.0-1.0"}}, {"uniqueid": "MTK1255:3UJ1CZ6IZIW3CKRPF6O0NWMFE5QS5O", "current_trial": 12, "dateTime": 1513474808355, "trialdata": {"rt": -1, "stimulus": "<p id=\"stim\">8</p>", "key_press": -1, "trial_type": "single-stim", "trial_index": 12, "time_elapsed": 121683, "internal_node_id": "0.0-10.0-2.0"}}, {"uniqueid": "MTK1255:3UJ1CZ6IZIW3CKRPF6O0NWMFE5QS5O", "current_trial": 13, "dateTime": 1513474809359, "trialdata": {"rt": -1, "stimulus": "<p id=\"stim\">7</p>", "key_press": -1, "trial_type": "single-stim", "trial_index": 13, "time_elapsed": 122687, "internal_node_id": "0.0-10.0-3.0"}}, {"uniqueid": "MTK1255:3UJ1CZ6IZIW3CKRPF6O0NWMFE5QS5O", "current_trial": 14, "dateTime": 1513474810363, "trialdata": {"rt": -1, "stimulus": "<p id=\"stim\">6</p>", "key_press": -1, "trial_type": "single-stim", "trial_index": 14, "time_elapsed": 123691, "internal_node_id": "0.0-10.0-4.0"}}, {"uniqueid": "MTK1255:3UJ1CZ6IZIW3CKRPF6O0NWMFE5QS5O", "current_trial": 15, "dateTime": 1513474811369, "trialdata": {"rt": -1, "stimulus": "<p id=\"stim\">5</p>", "key_press": -1, "trial_type": "single-stim", "trial_index": 15, "time_elapsed": 124697, "internal_node_id": "0.0-10.0-5.0"}}, {"uniqueid": "MTK1255:3UJ1CZ6IZIW3CKRPF6O0NWMFE5QS5O", "current_trial": 16, "dateTime": 1513474812373, "trialdata": {"rt": -1, "stimulus": "<p id=\"stim\">4</p>", "key_press": -1, "trial_type": "single-stim", "trial_index": 16, "time_elapsed": 125701, "internal_node_id": "0.0-10.0-6.0"}}, {"uniqueid": "MTK1255:3UJ1CZ6IZIW3CKRPF6O0NWMFE5QS5O", "current_trial": 17, "dateTime": 1513474813378, "trialdata": {"rt": -1, "stimulus": "<p id=\"stim\">3</p>", "key_press": -1, "trial_type": "single-stim", "trial_index": 17, "time_elapsed": 126706, "internal_node_id": "0.0-10.0-7.0"}}, {"uniqueid": "MTK1255:3UJ1CZ6IZIW3CKRPF6O0NWMFE5QS5O", "current_trial": 18, "dateTime": 1513474814382, "trialdata": {"rt": -1, "stimulus": "<p id=\"stim\">2</p>", "key_press": -1, "trial_type": "single-stim", "trial_index": 18, "time_elapsed": 127710, "internal_node_id": "0.0-10.0-8.0"}}, {"uniqueid": "MTK1255:3UJ1CZ6IZIW3CKRPF6O0NWMFE5QS5O", "current_trial": 19, "dateTime": 1513474815385, "trialdata": {"rt": -1, "stimulus": "<p id=\"stim\">1</p>", "key_press": -1, "trial_type": "single-stim", "trial_index": 19, "time_elapsed": 128713, "internal_node_id": "0.0-10.0-9.0"}}, {"uniqueid": "MTK1255:3UJ1CZ6IZIW3CKRPF6O0NWMFE5QS5O", "current_trial": 20, "dateTime": 1513474816889, "trialdata": {"rt": -1, "stimulus": "<p id=\"stim\">+</p>", "key_press": -1, "type": "FIXATION", "trial_type": "single-stim", "trial_index": 20, "time_elapsed": 130217, "internal_node_id": "0.0-11.0-0.0"}}, {"uniqueid": "MTK1255:3UJ1CZ6IZIW3CKRPF6O0NWMFE5QS5O", "current_trial": 21, "dateTime": 1513474818091, "trialdata": {"rt": -1, "stimulus": "<p id=\"stim\">BADGE</p>", "key_press": -1, "type": "PRES_VIS", "word": "badge", "wordID": 67, "conditions": [18, 1200, "v", 18000], "trial": 0, "serialpos": 0, "trial_type": "single-stim", "trial_index": 21, "time_elapsed": 131419, "internal_node_id": "0.0-12.0"}}, {"uniqueid": "MTK1255:3UJ1CZ6IZIW3CKRPF6O0NWMFE5QS5O", "current_trial": 22, "dateTime": 1513474820392, "trialdata": {"rt": -1, "stimulus": "<p id=\"stim\">PERMIT</p>", "key_press": -1, "type": "PRES_VIS", "word": "permit", "wordID": 1050, "conditions": [18, 1200, "v", 18000], "trial": 0, "serialpos": 1, "trial_type": "single-stim", "trial_index": 22, "time_elapsed": 133720, "internal_node_id": "0.0-13.0"}}, {"uniqueid": "MTK1255:3UJ1CZ6IZIW3CKRPF6O0NWMFE5QS5O", "current_trial": 23, "dateTime": 1513474822665, "trialdata": {"rt": -1, "stimulus": "<p id=\"stim\">FOOTBALL</p>", "key_press": -1, "type": "PRES_VIS", "word": "football", "wordID": 590, "conditions": [18, 1200, "v", 18000], "trial": 0, "serialpos": 2, "trial_type": "single-stim", "trial_index": 23, "time_elapsed": 135992, "internal_node_id": "0.0-14.0"}}, {"uniqueid": "MTK1255:3UJ1CZ6IZIW3CKRPF6O0NWMFE5QS5O", "current_trial": 24, "dateTime": 1513474824969, "trialdata": {"rt": -1, "stimulus": "<p id=\"stim\">ZIPPER</p>", "key_press": -1, "type": "PRES_VIS", "word": "zipper", "wordID": 1635, "conditions": [18, 1200, "v", 18000], "trial": 0, "serialpos": 3, "trial_type": "single-stim", "trial_index": 24, "time_elapsed": 138297, "internal_node_id": "0.0-15.0"}}, {"uniqueid": "MTK1255:3UJ1CZ6IZIW3CKRPF6O0NWMFE5QS5O", "current_trial": 25, "dateTime": 1513474827024, "trialdata": {"rt": -1, "stimulus": "<p id=\"stim\">WRIST</p>", "key_press": -1, "type": "PRES_VIS", "word": "wrist", "wordID": 1625, "conditions": [18, 1200, "v", 18000], "trial": 0, "serialpos": 4, "trial_type": "single-stim", "trial_index": 25, "time_elapsed": 140351, "internal_node_id": "0.0-16.0"}}, {"uniqueid": "MTK1255:3UJ1CZ6IZIW3CKRPF6O0NWMFE5QS5O", "current_trial": 26, "dateTime": 1513474829223, "trialdata": {"rt": -1, "stimulus": "<p id=\"stim\">FOX</p>", "key_press": -1, "type": "PRES_VIS", "word": "fox", "wordID": 597, "conditions": [18, 1200, "v", 18000], "trial": 0, "serialpos": 5, "trial_type": "single-stim", "trial_index": 26, "time_elapsed": 142551, "internal_node_id": "0.0-17.0"}}, {"uniqueid": "MTK1255:3UJ1CZ6IZIW3CKRPF6O0NWMFE5QS5O", "current_trial": 27, "dateTime": 1513474831479, "trialdata": {"rt": -1, "stimulus": "<p id=\"stim\">TWIG</p>", "key_press": -1, "type": "PRES_VIS", "word": "twig", "wordID": 1526, "conditions": [18, 1200, "v", 18000], "trial": 0, "serialpos": 6, "trial_type": "single-stim", "trial_index": 27, "time_elapsed": 144807, "internal_node_id": "0.0-18.0"}}, {"uniqueid": "MTK1255:3UJ1CZ6IZIW3CKRPF6O0NWMFE5QS5O", "current_trial": 28, "dateTime": 1513474833780, "trialdata": {"rt": -1, "stimulus": "<p id=\"stim\">SPHINX</p>", "key_press": -1, "type": "PRES_VIS", "word": "sphinx", "wordID": 1348, "conditions": [18, 1200, "v", 18000], "trial": 0, "serialpos": 7, "trial_type": "single-stim", "trial_index": 28, "time_elapsed": 147108, "internal_node_id": "0.0-19.0"}}, {"uniqueid": "MTK1255:3UJ1CZ6IZIW3CKRPF6O0NWMFE5QS5O", "current_trial": 29, "dateTime": 1513474836003, "trialdata": {"rt": -1, "stimulus": "<p id=\"stim\">VELVET</p>", "key_press": -1, "type": "PRES_VIS", "word": "velvet", "wordID": 1554, "conditions": [18, 1200, "v", 18000], "trial": 0, "serialpos": 8, "trial_type": "single-stim", "trial_index": 29, "time_elapsed": 149331, "internal_node_id": "0.0-20.0"}}, {"uniqueid": "MTK1255:3UJ1CZ6IZIW3CKRPF6O0NWMFE5QS5O", "current_trial": 30, "dateTime": 1513474838079, "trialdata": {"rt": -1, "stimulus": "<p id=\"stim\">MAPLE</p>", "key_press": -1, "type": "PRES_VIS", "word": "maple", "wordID": 865, "conditions": [18, 1200, "v", 18000], "trial": 0, "serialpos": 9, "trial_type": "single-stim", "trial_index": 30, "time_elapsed": 151406, "internal_node_id": "0.0-21.0"}}, {"uniqueid": "MTK1255:3UJ1CZ6IZIW3CKRPF6O0NWMFE5QS5O", "current_trial": 31, "dateTime": 1513474840280, "trialdata": {"rt": -1, "stimulus": "<p id=\"stim\">WAGON</p>", "key_press": -1, "type": "PRES_VIS", "word": "wagon", "wordID": 1577, "conditions": [18, 1200, "v", 18000], "trial": 0, "serialpos": 10, "trial_type": "single-stim", "trial_index": 31, "time_elapsed": 153608, "internal_node_id": "0.0-22.0"}}, {"uniqueid": "MTK1255:3UJ1CZ6IZIW3CKRPF6O0NWMFE5QS5O", "current_trial": 32, "dateTime": 1513474842344, "trialdata": {"rt": -1, "stimulus": "<p id=\"stim\">WORKER</p>", "key_press": -1, "type": "PRES_VIS", "word": "worker", "wordID": 1620, "conditions": [18, 1200, "v", 18000], "trial": 0, "serialpos": 11, "trial_type": "single-stim", "trial_index": 32, "time_elapsed": 155672, "internal_node_id": "0.0-23.0"}}, {"uniqueid": "MTK1255:3UJ1CZ6IZIW3CKRPF6O0NWMFE5QS5O", "current_trial": 33, "dateTime": 1513474844721, "trialdata": {"rt": -1, "stimulus": "<p id=\"stim\">OZONE</p>", "key_press": -1, "type": "PRES_VIS", "word": "ozone", "wordID": 995, "conditions": [18, 1200, "v", 18000], "trial": 0, "serialpos": 12, "trial_type": "single-stim", "trial_index": 33, "time_elapsed": 158049, "internal_node_id": "0.0-24.0"}}, {"uniqueid": "MTK1255:3UJ1CZ6IZIW3CKRPF6O0NWMFE5QS5O", "current_trial": 34, "dateTime": 1513474846769, "trialdata": {"rt": -1, "stimulus": "<p id=\"stim\">PICTURE</p>", "key_press": -1, "type": "PRES_VIS", "word": "picture", "wordID": 1060, "conditions": [18, 1200, "v", 18000], "trial": 0, "serialpos": 13, "trial_type": "single-stim", "trial_index": 34, "time_elapsed": 160097, "internal_node_id": "0.0-25.0"}}, {"uniqueid": "MTK1255:3UJ1CZ6IZIW3CKRPF6O0NWMFE5QS5O", "current_trial": 35, "dateTime": 1513474848805, "trialdata": {"rt": -1, "stimulus": "<p id=\"stim\">PLIERS</p>", "key_press": -1, "type": "PRES_VIS", "word": "pliers", "wordID": 1088, "conditions": [18, 1200, "v", 18000], "trial": 0, "serialpos": 14, "trial_type": "single-stim", "trial_index": 35, "time_elapsed": 162133, "internal_node_id": "0.0-26.0"}}, {"uniqueid": "MTK1255:3UJ1CZ6IZIW3CKRPF6O0NWMFE5QS5O", "current_trial": 36, "dateTime": 1513474851208, "trialdata": {"rt": -1, "stimulus": "<p id=\"stim\">LIGHTNING</p>", "key_press": -1, "type": "PRES_VIS", "word": "lightning", "wordID": 819, "conditions": [18, 1200, "v", 18000], "trial": 0, "serialpos": 15, "trial_type": "single-stim", "trial_index": 36, "time_elapsed": 164536, "internal_node_id": "0.0-27.0"}}, {"uniqueid": "MTK1255:3UJ1CZ6IZIW3CKRPF6O0NWMFE5QS5O", "current_trial": 37, "dateTime": 1513474853508, "trialdata": {"rt": -1, "stimulus": "<p id=\"stim\">BRACES</p>", "key_press": -1, "type": "PRES_VIS", "word": "braces", "wordID": 163, "conditions": [18, 1200, "v", 18000], "trial": 0, "serialpos": 16, "trial_type": "single-stim", "trial_index": 37, "time_elapsed": 166836, "internal_node_id": "0.0-28.0"}}, {"uniqueid": "MTK1255:3UJ1CZ6IZIW3CKRPF6O0NWMFE5QS5O", "current_trial": 38, "dateTime": 1513474855807, "trialdata": {"rt": -1, "stimulus": "<p id=\"stim\">NEUTRON</p>", "key_press": -1, "type": "PRES_VIS", "word": "neutron", "wordID": 946, "conditions": [18, 1200, "v", 18000], "trial": 0, "serialpos": 17, "trial_type": "single-stim", "trial_index": 38, "time_elapsed": 169135, "internal_node_id": "0.0-29.0"}}, {"uniqueid": "MTK1255:3UJ1CZ6IZIW3CKRPF6O0NWMFE5QS5O", "current_trial": 39, "dateTime": 1513474858204, "trialdata": {"rt": -1, "stimulus": "", "key_press": -1, "type": "PRE_RECALL_DELAY", "trial_type": "single-stim", "trial_index": 39, "time_elapsed": 171532, "internal_node_id": "0.0-30.0-0.0"}}, {"uniqueid": "MTK1255:3UJ1CZ6IZIW3CKRPF6O0NWMFE5QS5O", "current_trial": 40, "dateTime": 1513474858705, "trialdata": {"rt": -1000, "stimulus": "/static/audio/400Hz.wav", "key_press": -1, "type": "PRE_RECALL_ALERT", "trial_type": "single-audio", "trial_index": 40, "time_elapsed": 172033, "internal_node_id": "0.0-31.0"}}, {"uniqueid": "MTK1255:3UJ1CZ6IZIW3CKRPF6O0NWMFE5QS5O", "current_trial": 41, "dateTime": 1513474918715, "trialdata": {"rt": [3485, 6050, 8660, 12924, 14949, 26176, 30474, 39946, 56788], "recwords": ["badge", "permit", "fox", "silver", "braces", "fox", "maple", "badges", ""], "type": "FREE_RECALL", "conditions": [18, 1200, "v", 18000], "trial": 0, "trial_type": "free-recall", "trial_index": 41, "time_elapsed": 232042, "internal_node_id": "0.0-32.0-0.0"}}, {"uniqueid": "MTK1255:3UJ1CZ6IZIW3CKRPF6O0NWMFE5QS5O", "current_trial": 42, "dateTime": 1513474922323, "trialdata": {"rt": 1601, "key_press": 32, "type": "INSTRUCTIONS", "trial_type": "text", "trial_index": 42, "time_elapsed": 235651, "internal_node_id": "0.0-33.0"}}, {"uniqueid": "MTK1255:3UJ1CZ6IZIW3CKRPF6O0NWMFE5QS5O", "current_trial": 43, "dateTime": 1513474942332, "trialdata": {"rt": [3057, 5735, 7602, 10122, 12215, 15038, 16749], "responses": ["17", "17", "17", "18", "15", "11", "8"], "num1": [2, 5, 5, 7, 8, 2, 5, 5], "num2": [9, 4, 5, 7, 3, 5, 2, 6], "num3": [6, 8, 7, 4, 4, 4, 1, 9], "type": "DISTRACTOR", "conditions": [18, 1200, "a", 18000], "trial": 1, "trial_type": "math-distractor", "trial_index": 43, "time_elapsed": 255660, "internal_node_id": "0.0-34.0"}}, {"uniqueid": "MTK1255:3UJ1CZ6IZIW3CKRPF6O0NWMFE5QS5O", "current_trial": 44, "dateTime": 1513474945339, "trialdata": {"rt": -1, "stimulus": "<p id=\"stim\">10</p>", "key_press": -1, "trial_type": "single-stim", "trial_index": 44, "time_elapsed": 258667, "internal_node_id": "0.0-35.0-0.0"}}, {"uniqueid": "MTK1255:3UJ1CZ6IZIW3CKRPF6O0NWMFE5QS5O", "current_trial": 45, "dateTime": 1513474946343, "trialdata": {"rt": -1, "stimulus": "<p id=\"stim\">9</p>", "key_press": -1, "trial_type": "single-stim", "trial_index": 45, "time_elapsed": 259671, "internal_node_id": "0.0-35.0-1.0"}}, {"uniqueid": "MTK1255:3UJ1CZ6IZIW3CKRPF6O0NWMFE5QS5O", "current_trial": 46, "dateTime": 1513474947347, "trialdata": {"rt": -1, "stimulus": "<p id=\"stim\">8</p>", "key_press": -1, "trial_type": "single-stim", "trial_index": 46, "time_elapsed": 260675, "internal_node_id": "0.0-35.0-2.0"}}, {"uniqueid": "MTK1255:3UJ1CZ6IZIW3CKRPF6O0NWMFE5QS5O", "current_trial": 47, "dateTime": 1513474948351, "trialdata": {"rt": -1, "stimulus": "<p id=\"stim\">7</p>", "key_press": -1, "trial_type": "single-stim", "trial_index": 47, "time_elapsed": 261679, "internal_node_id": "0.0-35.0-3.0"}}, {"uniqueid": "MTK1255:3UJ1CZ6IZIW3CKRPF6O0NWMFE5QS5O", "current_trial": 48, "dateTime": 1513474949355, "trialdata": {"rt": -1, "stimulus": "<p id=\"stim\">6</p>", "key_press": -1, "trial_type": "single-stim", "trial_index": 48, "time_elapsed": 262683, "internal_node_id": "0.0-35.0-4.0"}}, {"uniqueid": "MTK1255:3UJ1CZ6IZIW3CKRPF6O0NWMFE5QS5O", "current_trial": 49, "dateTime": 1513474950359, "trialdata": {"rt": -1, "stimulus": "<p id=\"stim\">5</p>", "key_press": -1, "trial_type": "single-stim", "trial_index": 49, "time_elapsed": 263687, "internal_node_id": "0.0-35.0-5.0"}}, {"uniqueid": "MTK1255:3UJ1CZ6IZIW3CKRPF6O0NWMFE5QS5O", "current_trial": 50, "dateTime": 1513474951363, "trialdata": {"rt": -1, "stimulus": "<p id=\"stim\">4</p>", "key_press": -1, "trial_type": "single-stim", "trial_index": 50, "time_elapsed": 264691, "internal_node_id": "0.0-35.0-6.0"}}, {"uniqueid": "MTK1255:3UJ1CZ6IZIW3CKRPF6O0NWMFE5QS5O", "current_trial": 51, "dateTime": 1513474952368, "trialdata": {"rt": -1, "stimulus": "<p id=\"stim\">3</p>", "key_press": -1, "trial_type": "single-stim", "trial_index": 51, "time_elapsed": 265696, "internal_node_id": "0.0-35.0-7.0"}}, {"uniqueid": "MTK1255:3UJ1CZ6IZIW3CKRPF6O0NWMFE5QS5O", "current_trial": 52, "dateTime": 1513474953372, "trialdata": {"rt": -1, "stimulus": "<p id=\"stim\">2</p>", "key_press": -1, "trial_type": "single-stim", "trial_index": 52, "time_elapsed": 266700, "internal_node_id": "0.0-35.0-8.0"}}, {"uniqueid": "MTK1255:3UJ1CZ6IZIW3CKRPF6O0NWMFE5QS5O", "current_trial": 53, "dateTime": 1513474954376, "trialdata": {"rt": -1, "stimulus": "<p id=\"stim\">1</p>", "key_press": -1, "trial_type": "single-stim", "trial_index": 53, "time_elapsed": 267704, "internal_node_id": "0.0-35.0-9.0"}}, {"uniqueid": "MTK1255:3UJ1CZ6IZIW3CKRPF6O0NWMFE5QS5O", "current_trial": 54, "dateTime": 1513474955879, "trialdata": {"rt": -1, "stimulus": "<p id=\"stim\">+</p>", "key_press": -1, "type": "FIXATION", "trial_type": "single-stim", "trial_index": 54, "time_elapsed": 269207, "internal_node_id": "0.0-36.0-0.0"}}, {"uniqueid": "MTK1255:3UJ1CZ6IZIW3CKRPF6O0NWMFE5QS5O", "current_trial": 55, "dateTime": 1513474958258, "trialdata": {"rt": -1000, "stimulus": "/static/audio/wordpool/COIN.wav", "key_press": -1, "type": "PRES_AUD", "word": "coin", "wordID": 342, "conditions": [18, 1200, "a", 18000], "trial": 1, "serialpos": 0, "trial_type": "single-audio", "trial_index": 55, "time_elapsed": 271585, "internal_node_id": "0.0-37.0"}}, {"uniqueid": "MTK1255:3UJ1CZ6IZIW3CKRPF6O0NWMFE5QS5O", "current_trial": 56, "dateTime": 1513474960608, "trialdata": {"rt": -1000, "stimulus": "/static/audio/wordpool/HUMAN.wav", "key_press": -1, "type": "PRES_AUD", "word": "human", "wordID": 725, "conditions": [18, 1200, "a", 18000], "trial": 1, "serialpos": 1, "trial_type": "single-audio", "trial_index": 56, "time_elapsed": 273936, "internal_node_id": "0.0-38.0"}}, {"uniqueid": "MTK1255:3UJ1CZ6IZIW3CKRPF6O0NWMFE5QS5O", "current_trial": 57, "dateTime": 1513474962974, "trialdata": {"rt": -1000, "stimulus": "/static/audio/wordpool/BANK.wav", "key_press": -1, "type": "PRES_AUD", "word": "bank", "wordID": 82, "conditions": [18, 1200, "a", 18000], "trial": 1, "serialpos": 2, "trial_type": "single-audio", "trial_index": 57, "time_elapsed": 276302, "internal_node_id": "0.0-39.0"}}, {"uniqueid": "MTK1255:3UJ1CZ6IZIW3CKRPF6O0NWMFE5QS5O", "current_trial": 58, "dateTime": 1513474964979, "trialdata": {"rt": -1000, "stimulus": "/static/audio/wordpool/BEAVER.wav", "key_press": -1, "type": "PRES_AUD", "word": "beaver", "wordID": 108, "conditions": [18, 1200, "a", 18000], "trial": 1, "serialpos": 3, "trial_type": "single-audio", "trial_index": 58, "time_elapsed": 278307, "internal_node_id": "0.0-40.0"}}, {"uniqueid": "MTK1255:3UJ1CZ6IZIW3CKRPF6O0NWMFE5QS5O", "current_trial": 59, "dateTime": 1513474967184, "trialdata": {"rt": -1000, "stimulus": "/static/audio/wordpool/PREACHER.wav", "key_press": -1, "type": "PRES_AUD", "word": "preacher", "wordID": 1118, "conditions": [18, 1200, "a", 18000], "trial": 1, "serialpos": 4, "trial_type": "single-audio", "trial_index": 59, "time_elapsed": 280512, "internal_node_id": "0.0-41.0"}}, {"uniqueid": "MTK1255:3UJ1CZ6IZIW3CKRPF6O0NWMFE5QS5O", "current_trial": 60, "dateTime": 1513474969436, "trialdata": {"rt": -1000, "stimulus": "/static/audio/wordpool/HUSBAND.wav", "key_press": -1, "type": "PRES_AUD", "word": "husband", "wordID": 727, "conditions": [18, 1200, "a", 18000], "trial": 1, "serialpos": 5, "trial_type": "single-audio", "trial_index": 60, "time_elapsed": 282764, "internal_node_id": "0.0-42.0"}}, {"uniqueid": "MTK1255:3UJ1CZ6IZIW3CKRPF6O0NWMFE5QS5O", "current_trial": 61, "dateTime": 1513474971468, "trialdata": {"rt": -1000, "stimulus": "/static/audio/wordpool/SEAL.wav", "key_press": -1, "type": "PRES_AUD", "word": "seal", "wordID": 1261, "conditions": [18, 1200, "a", 18000], "trial": 1, "serialpos": 6, "trial_type": "single-audio", "trial_index": 61, "time_elapsed": 284796, "internal_node_id": "0.0-43.0"}}, {"uniqueid": "MTK1255:3UJ1CZ6IZIW3CKRPF6O0NWMFE5QS5O", "current_trial": 62, "dateTime": 1513474973540, "trialdata": {"rt": -1000, "stimulus": "/static/audio/wordpool/TRACTOR.wav", "key_press": -1, "type": "PRES_AUD", "word": "tractor", "wordID": 1492, "conditions": [18, 1200, "a", 18000], "trial": 1, "serialpos": 7, "trial_type": "single-audio", "trial_index": 62, "time_elapsed": 286868, "internal_node_id": "0.0-44.0"}}, {"uniqueid": "MTK1255:3UJ1CZ6IZIW3CKRPF6O0NWMFE5QS5O", "current_trial": 63, "dateTime": 1513474975706, "trialdata": {"rt": -1000, "stimulus": "/static/audio/wordpool/PATIENT.wav", "key_press": -1, "type": "PRES_AUD", "word": "patient", "wordID": 1023, "conditions": [18, 1200, "a", 18000], "trial": 1, "serialpos": 8, "trial_type": "single-audio", "trial_index": 63, "time_elapsed": 289034, "internal_node_id": "0.0-45.0"}}, {"uniqueid": "MTK1255:3UJ1CZ6IZIW3CKRPF6O0NWMFE5QS5O", "current_trial": 64, "dateTime": 1513474977970, "trialdata": {"rt": -1000, "stimulus": "/static/audio/wordpool/MAILBOX.wav", "key_press": -1, "type": "PRES_AUD", "word": "mailbox", "wordID": 856, "conditions": [18, 1200, "a", 18000], "trial": 1, "serialpos": 9, "trial_type": "single-audio", "trial_index": 64, "time_elapsed": 291298, "internal_node_id": "0.0-46.0"}}, {"uniqueid": "MTK1255:3UJ1CZ6IZIW3CKRPF6O0NWMFE5QS5O", "current_trial": 65, "dateTime": 1513474980061, "trialdata": {"rt": -1000, "stimulus": "/static/audio/wordpool/ACTRESS.wav", "key_press": -1, "type": "PRES_AUD", "word": "actress", "wordID": 5, "conditions": [18, 1200, "a", 18000], "trial": 1, "serialpos": 10, "trial_type": "single-audio", "trial_index": 65, "time_elapsed": 293389, "internal_node_id": "0.0-47.0"}}, {"uniqueid": "MTK1255:3UJ1CZ6IZIW3CKRPF6O0NWMFE5QS5O", "current_trial": 66, "dateTime": 1513474982241, "trialdata": {"rt": -1000, "stimulus": "/static/audio/wordpool/STICKER.wav", "key_press": -1, "type": "PRES_AUD", "word": "sticker", "wordID": 1381, "conditions": [18, 1200, "a", 18000], "trial": 1, "serialpos": 11, "trial_type": "single-audio", "trial_index": 66, "time_elapsed": 295569, "internal_node_id": "0.0-48.0"}}, {"uniqueid": "MTK1255:3UJ1CZ6IZIW3CKRPF6O0NWMFE5QS5O", "current_trial": 67, "dateTime": 1513474984280, "trialdata": {"rt": -1000, "stimulus": "/static/audio/wordpool/WRENCH.wav", "key_press": -1, "type": "PRES_AUD", "word": "wrench", "wordID": 1624, "conditions": [18, 1200, "a", 18000], "trial": 1, "serialpos": 12, "trial_type": "single-audio", "trial_index": 67, "time_elapsed": 297608, "internal_node_id": "0.0-49.0"}}, {"uniqueid": "MTK1255:3UJ1CZ6IZIW3CKRPF6O0NWMFE5QS5O", "current_trial": 68, "dateTime": 1513474986554, "trialdata": {"rt": -1000, "stimulus": "/static/audio/wordpool/OUTLAW.wav", "key_press": -1, "type": "PRES_AUD", "word": "outlaw", "wordID": 988, "conditions": [18, 1200, "a", 18000], "trial": 1, "serialpos": 13, "trial_type": "single-audio", "trial_index": 68, "time_elapsed": 299881, "internal_node_id": "0.0-50.0"}}, {"uniqueid": "MTK1255:3UJ1CZ6IZIW3CKRPF6O0NWMFE5QS5O", "current_trial": 69, "dateTime": 1513474988614, "trialdata": {"rt": -1000, "stimulus": "/static/audio/wordpool/SNAKE.wav", "key_press": -1, "type": "PRES_AUD", "word": "snake", "wordID": 1332, "conditions": [18, 1200, "a", 18000], "trial": 1, "serialpos": 14, "trial_type": "single-audio", "trial_index": 69, "time_elapsed": 301942, "internal_node_id": "0.0-51.0"}}, {"uniqueid": "MTK1255:3UJ1CZ6IZIW3CKRPF6O0NWMFE5QS5O", "current_trial": 70, "dateTime": 1513474990709, "trialdata": {"rt": -1000, "stimulus": "/static/audio/wordpool/INMATE.wav", "key_press": -1, "type": "PRES_AUD", "word": "inmate", "wordID": 737, "conditions": [18, 1200, "a", 18000], "trial": 1, "serialpos": 15, "trial_type": "single-audio", "trial_index": 70, "time_elapsed": 304037, "internal_node_id": "0.0-52.0"}}, {"uniqueid": "MTK1255:3UJ1CZ6IZIW3CKRPF6O0NWMFE5QS5O", "current_trial": 71, "dateTime": 1513474993030, "trialdata": {"rt": -1000, "stimulus": "/static/audio/wordpool/FOOT.wav", "key_press": -1, "type": "PRES_AUD", "word": "foot", "wordID": 589, "conditions": [18, 1200, "a", 18000], "trial": 1, "serialpos": 16, "trial_type": "single-audio", "trial_index": 71, "time_elapsed": 306358, "internal_node_id": "0.0-53.0"}}, {"uniqueid": "MTK1255:3UJ1CZ6IZIW3CKRPF6O0NWMFE5QS5O", "current_trial": 72, "dateTime": 1513474995333, "trialdata": {"rt": -1000, "stimulus": "/static/audio/wordpool/TREAT.wav", "key_press": -1, "type": "PRES_AUD", "word": "treat", "wordID": 1500, "conditions": [18, 1200, "a", 18000], "trial": 1, "serialpos": 17, "trial_type": "single-audio", "trial_index": 72, "time_elapsed": 308661, "internal_node_id": "0.0-54.0"}}, {"uniqueid": "MTK1255:3UJ1CZ6IZIW3CKRPF6O0NWMFE5QS5O", "current_trial": 73, "dateTime": 1513474996542, "trialdata": {"rt": -1, "stimulus": "", "key_press": -1, "type": "PRE_RECALL_DELAY", "trial_type": "single-stim", "trial_index": 73, "time_elapsed": 309870, "internal_node_id": "0.0-55.0-0.0"}}, {"uniqueid": "MTK1255:3UJ1CZ6IZIW3CKRPF6O0NWMFE5QS5O", "current_trial": 74, "dateTime": 1513474997043, "trialdata": {"rt": -1000, "stimulus": "/static/audio/400Hz.wav", "key_press": -1, "type": "PRE_RECALL_ALERT", "trial_type": "single-audio", "trial_index": 74, "time_elapsed": 310371, "internal_node_id": "0.0-56.0"}}, {"uniqueid": "MTK1255:3UJ1CZ6IZIW3CKRPF6O0NWMFE5QS5O", "current_trial": 75, "dateTime": 1513475057050, "trialdata": {"rt": [2646, 4975, 6089, 8935, 10959, 12895, 17924, 20781, 24089, 24145, 25979, 48490], "recwords": ["treat", "actress", "snake", "pastor", "husband", "snake", "truck", "windmill", "beaver", "", "seal", "wagon"], "type": "FREE_RECALL", "conditions": [18, 1200, "a", 18000], "trial": 1, "trial_type": "free-recall", "trial_index": 75, "time_elapsed": 370377, "internal_node_id": "0.0-57.0-0.0"}}, {"uniqueid": "MTK1255:3UJ1CZ6IZIW3CKRPF6O0NWMFE5QS5O", "current_trial": 76, "dateTime": 1513475062175, "trialdata": {"rt": 3119, "key_press": 32, "type": "INSTRUCTIONS", "trial_type": "text", "trial_index": 76, "time_elapsed": 375501, "internal_node_id": "0.0-58.0"}}, {"uniqueid": "MTK1255:3UJ1CZ6IZIW3CKRPF6O0NWMFE5QS5O", "current_trial": 77, "dateTime": 1513475087187, "trialdata": {"rt": [3043, 5225, 7048, 9254, 11210, 13180, 15024, 18861, 21516], "responses": ["18", "12", "18", "20", "13", "10", "13", "25", "22"], "num1": [8, 9, 6, 3, 1, 8, 7, 8, 9, 7], "num2": [4, 2, 4, 9, 8, 1, 3, 8, 4, 5], "num3": [6, 1, 8, 8, 4, 1, 3, 9, 9, 3], "type": "DISTRACTOR", "conditions": [12, 800, "a", 24000], "trial": 2, "trial_type": "math-distractor", "trial_index": 77, "time_elapsed": 400514, "internal_node_id": "0.0-59.0"}}, {"uniqueid": "MTK1255:3UJ1CZ6IZIW3CKRPF6O0NWMFE5QS5O", "current_trial": 78, "dateTime": 1513475090194, "trialdata": {"rt": -1, "stimulus": "<p id=\"stim\">10</p>", "key_press": -1, "trial_type": "single-stim", "trial_index": 78, "time_elapsed": 403522, "internal_node_id": "0.0-60.0-0.0"}}, {"uniqueid": "MTK1255:3UJ1CZ6IZIW3CKRPF6O0NWMFE5QS5O", "current_trial": 79, "dateTime": 1513475091198, "trialdata": {"rt": -1, "stimulus": "<p id=\"stim\">9</p>", "key_press": -1, "trial_type": "single-stim", "trial_index": 79, "time_elapsed": 404526, "internal_node_id": "0.0-60.0-1.0"}}, {"uniqueid": "MTK1255:3UJ1CZ6IZIW3CKRPF6O0NWMFE5QS5O", "current_trial": 80, "dateTime": 1513475092202, "trialdata": {"rt": -1, "stimulus": "<p id=\"stim\">8</p>", "key_press": -1, "trial_type": "single-stim", "trial_index": 80, "time_elapsed": 405530, "internal_node_id": "0.0-60.0-2.0"}}, {"uniqueid": "MTK1255:3UJ1CZ6IZIW3CKRPF6O0NWMFE5QS5O", "current_trial": 81, "dateTime": 1513475093206, "trialdata": {"rt": -1, "stimulus": "<p id=\"stim\">7</p>", "key_press": -1, "trial_type": "single-stim", "trial_index": 81, "time_elapsed": 406534, "internal_node_id": "0.0-60.0-3.0"}}, {"uniqueid": "MTK1255:3UJ1CZ6IZIW3CKRPF6O0NWMFE5QS5O", "current_trial": 82, "dateTime": 1513475094211, "trialdata": {"rt": -1, "stimulus": "<p id=\"stim\">6</p>", "key_press": -1, "trial_type": "single-stim", "trial_index": 82, "time_elapsed": 407539, "internal_node_id": "0.0-60.0-4.0"}}, {"uniqueid": "MTK1255:3UJ1CZ6IZIW3CKRPF6O0NWMFE5QS5O", "current_trial": 83, "dateTime": 1513475095215, "trialdata": {"rt": -1, "stimulus": "<p id=\"stim\">5</p>", "key_press": -1, "trial_type": "single-stim", "trial_index": 83, "time_elapsed": 408543, "internal_node_id": "0.0-60.0-5.0"}}, {"uniqueid": "MTK1255:3UJ1CZ6IZIW3CKRPF6O0NWMFE5QS5O", "current_trial": 84, "dateTime": 1513475096218, "trialdata": {"rt": -1, "stimulus": "<p id=\"stim\">4</p>", "key_press": -1, "trial_type": "single-stim", "trial_index": 84, "time_elapsed": 409546, "internal_node_id": "0.0-60.0-6.0"}}, {"uniqueid": "MTK1255:3UJ1CZ6IZIW3CKRPF6O0NWMFE5QS5O", "current_trial": 85, "dateTime": 1513475097223, "trialdata": {"rt": -1, "stimulus": "<p id=\"stim\">3</p>", "key_press": -1, "trial_type": "single-stim", "trial_index": 85, "time_elapsed": 410551, "internal_node_id": "0.0-60.0-7.0"}}, {"uniqueid": "MTK1255:3UJ1CZ6IZIW3CKRPF6O0NWMFE5QS5O", "current_trial": 86, "dateTime": 1513475098227, "trialdata": {"rt": -1, "stimulus": "<p id=\"stim\">2</p>", "key_press": -1, "trial_type": "single-stim", "trial_index": 86, "time_elapsed": 411555, "internal_node_id": "0.0-60.0-8.0"}}, {"uniqueid": "MTK1255:3UJ1CZ6IZIW3CKRPF6O0NWMFE5QS5O", "current_trial": 87, "dateTime": 1513475099231, "trialdata": {"rt": -1, "stimulus": "<p id=\"stim\">1</p>", "key_press": -1, "trial_type": "single-stim", "trial_index": 87, "time_elapsed": 412559, "internal_node_id": "0.0-60.0-9.0"}}, {"uniqueid": "MTK1255:3UJ1CZ6IZIW3CKRPF6O0NWMFE5QS5O", "current_trial": 88, "dateTime": 1513475100735, "trialdata": {"rt": -1, "stimulus": "<p id=\"stim\">+</p>", "key_press": -1, "type": "FIXATION", "trial_type": "single-stim", "trial_index": 88, "time_elapsed": 414063, "internal_node_id": "0.0-61.0-0.0"}}, {"uniqueid": "MTK1255:3UJ1CZ6IZIW3CKRPF6O0NWMFE5QS5O", "current_trial": 89, "dateTime": 1513475102412, "trialdata": {"rt": -1000, "stimulus": "/static/audio/wordpool/CONCERT.wav", "key_press": -1, "type": "PRES_AUD", "word": "concert", "wordID": 359, "conditions": [12, 800, "a", 24000], "trial": 2, "serialpos": 0, "trial_type": "single-audio", "trial_index": 89, "time_elapsed": 415740, "internal_node_id": "0.0-62.0"}}, {"uniqueid": "MTK1255:3UJ1CZ6IZIW3CKRPF6O0NWMFE5QS5O", "current_trial": 90, "dateTime": 1513475104124, "trialdata": {"rt": -1000, "stimulus": "/static/audio/wordpool/COCKTAIL.wav", "key_press": -1, "type": "PRES_AUD", "word": "cocktail", "wordID": 337, "conditions": [12, 800, "a", 24000], "trial": 2, "serialpos": 1, "trial_type": "single-audio", "trial_index": 90, "time_elapsed": 417452, "internal_node_id": "0.0-63.0"}}, {"uniqueid": "MTK1255:3UJ1CZ6IZIW3CKRPF6O0NWMFE5QS5O", "current_trial": 91, "dateTime": 1513475106028, "trialdata": {"rt": -1000, "stimulus": "/static/audio/wordpool/FLAG.wav", "key_press": -1, "type": "PRES_AUD", "word": "flag", "wordID": 572, "conditions": [12, 800, "a", 24000], "trial": 2, "serialpos": 2, "trial_type": "single-audio", "trial_index": 91, "time_elapsed": 419356, "internal_node_id": "0.0-64.0"}}, {"uniqueid": "MTK1255:3UJ1CZ6IZIW3CKRPF6O0NWMFE5QS5O", "current_trial": 92, "dateTime": 1513475107700, "trialdata": {"rt": -1000, "stimulus": "/static/audio/wordpool/CASHIER.wav", "key_press": -1, "type": "PRES_AUD", "word": "cashier", "wordID": 253, "conditions": [12, 800, "a", 24000], "trial": 2, "serialpos": 3, "trial_type": "single-audio", "trial_index": 92, "time_elapsed": 421027, "internal_node_id": "0.0-65.0"}}, {"uniqueid": "MTK1255:3UJ1CZ6IZIW3CKRPF6O0NWMFE5QS5O", "current_trial": 93, "dateTime": 1513475109568, "trialdata": {"rt": -1000, "stimulus": "/static/audio/wordpool/RIVER.wav", "key_press": -1, "type": "PRES_AUD", "word": "river", "wordID": 1193, "conditions": [12, 800, "a", 24000], "trial": 2, "serialpos": 4, "trial_type": "single-audio", "trial_index": 93, "time_elapsed": 422896, "internal_node_id": "0.0-66.0"}}, {"uniqueid": "MTK1255:3UJ1CZ6IZIW3CKRPF6O0NWMFE5QS5O", "current_trial": 94, "dateTime": 1513475111217, "trialdata": {"rt": -1000, "stimulus": "/static/audio/wordpool/KNAPSACK.wav", "key_press": -1, "type": "PRES_AUD", "word": "knapsack", "wordID": 782, "conditions": [12, 800, "a", 24000], "trial": 2, "serialpos": 5, "trial_type": "single-audio", "trial_index": 94, "time_elapsed": 424545, "internal_node_id": "0.0-67.0"}}, {"uniqueid": "MTK1255:3UJ1CZ6IZIW3CKRPF6O0NWMFE5QS5O", "current_trial": 95, "dateTime": 1513475113121, "trialdata": {"rt": -1000, "stimulus": "/static/audio/wordpool/TEACHER.wav", "key_press": -1, "type": "PRES_AUD", "word": "teacher", "wordID": 1439, "conditions": [12, 800, "a", 24000], "trial": 2, "serialpos": 6, "trial_type": "single-audio", "trial_index": 95, "time_elapsed": 426449, "internal_node_id": "0.0-68.0"}}, {"uniqueid": "MTK1255:3UJ1CZ6IZIW3CKRPF6O0NWMFE5QS5O", "current_trial": 96, "dateTime": 1513475114804, "trialdata": {"rt": -1000, "stimulus": "/static/audio/wordpool/LAGOON.wav", "key_press": -1, "type": "PRES_AUD", "word": "lagoon", "wordID": 794, "conditions": [12, 800, "a", 24000], "trial": 2, "serialpos": 7, "trial_type": "single-audio", "trial_index": 96, "time_elapsed": 428131, "internal_node_id": "0.0-69.0"}}, {"uniqueid": "MTK1255:3UJ1CZ6IZIW3CKRPF6O0NWMFE5QS5O", "current_trial": 97, "dateTime": 1513475116410, "trialdata": {"rt": -1000, "stimulus": "/static/audio/wordpool/AUTHOR.wav", "key_press": -1, "type": "PRES_AUD", "word": "author", "wordID": 60, "conditions": [12, 800, "a", 24000], "trial": 2, "serialpos": 8, "trial_type": "single-audio", "trial_index": 97, "time_elapsed": 429738, "internal_node_id": "0.0-70.0"}}, {"uniqueid": "MTK1255:3UJ1CZ6IZIW3CKRPF6O0NWMFE5QS5O", "current_trial": 98, "dateTime": 1513475118379, "trialdata": {"rt": -1000, "stimulus": "/static/audio/wordpool/BASEMENT.wav", "key_press": -1, "type": "PRES_AUD", "word": "basement", "wordID": 93, "conditions": [12, 800, "a", 24000], "trial": 2, "serialpos": 9, "trial_type": "single-audio", "trial_index": 98, "time_elapsed": 431707, "internal_node_id": "0.0-71.0"}}, {"uniqueid": "MTK1255:3UJ1CZ6IZIW3CKRPF6O0NWMFE5QS5O", "current_trial": 99, "dateTime": 1513475120084, "trialdata": {"rt": -1000, "stimulus": "/static/audio/wordpool/KITCHEN.wav", "key_press": -1, "type": "PRES_AUD", "word": "kitchen", "wordID": 777, "conditions": [12, 800, "a", 24000], "trial": 2, "serialpos": 10, "trial_type": "single-audio", "trial_index": 99, "time_elapsed": 433412, "internal_node_id": "0.0-72.0"}}, {"uniqueid": "MTK1255:3UJ1CZ6IZIW3CKRPF6O0NWMFE5QS5O", "current_trial": 100, "dateTime": 1513475121925, "trialdata": {"rt": -1000, "stimulus": "/static/audio/wordpool/DAUGHTER.wav", "key_press": -1, "type": "PRES_AUD", "word": "daughter", "wordID": 441, "conditions": [12, 800, "a", 24000], "trial": 2, "serialpos": 11, "trial_type": "single-audio", "trial_index": 100, "time_elapsed": 435253, "internal_node_id": "0.0-73.0"}}, {"uniqueid": "MTK1255:3UJ1CZ6IZIW3CKRPF6O0NWMFE5QS5O", "current_trial": 101, "dateTime": 1513475123150, "trialdata": {"rt": -1, "stimulus": "", "key_press": -1, "type": "PRE_RECALL_DELAY", "trial_type": "single-stim", "trial_index": 101, "time_elapsed": 436478, "internal_node_id": "0.0-74.0-0.0"}}, {"uniqueid": "MTK1255:3UJ1CZ6IZIW3CKRPF6O0NWMFE5QS5O", "current_trial": 102, "dateTime": 1513475123651, "trialdata": {"rt": -1000, "stimulus": "/static/audio/400Hz.wav", "key_press": -1, "type": "PRE_RECALL_ALERT", "trial_type": "single-audio", "trial_index": 102, "time_elapsed": 436979, "internal_node_id": "0.0-75.0"}}, {"uniqueid": "MTK1255:3UJ1CZ6IZIW3CKRPF6O0NWMFE5QS5O", "current_trial": 103, "dateTime": 1513475183662, "trialdata": {"rt": [2636, 4784, 6134, 7484, 9881, 11602, 14291, 17193, 55511], "recwords": ["basement", "kitchen", "daughter", "teacher", "concert", "basement", "knapsack", "lagoon", ""], "type": "FREE_RECALL", "conditions": [12, 800, "a", 24000], "trial": 2, "trial_type": "free-recall", "trial_index": 103, "time_elapsed": 496988, "internal_node_id": "0.0-76.0-0.0"}}, {"uniqueid": "MTK1255:3UJ1CZ6IZIW3CKRPF6O0NWMFE5QS5O", "current_trial": 104, "dateTime": 1513475187038, "trialdata": {"rt": 1376, "key_press": 32, "type": "INSTRUCTIONS", "trial_type": "text", "trial_index": 104, "time_elapsed": 500366, "internal_node_id": "0.0-77.0"}}, {"uniqueid": "MTK1255:3UJ1CZ6IZIW3CKRPF6O0NWMFE5QS5O", "current_trial": 105, "dateTime": 1513475213047, "trialdata": {"rt": [2317, 4838, 6727, 9517, 11587, 15424, 18338, 20205, 21904, 23625], "responses": ["14", "16", "14", "17", "10", "20", "17", "11", "24", "16"], "num1": [1, 7, 3, 3, 2, 9, 5, 1, 8, 4, 8], "num2": [5, 5, 7, 9, 4, 7, 9, 8, 8, 7, 8], "num3": [8, 4, 4, 5, 4, 4, 3, 2, 8, 5, 9], "type": "DISTRACTOR", "conditions": [12, 1600, "v", 24000], "trial": 3, "trial_type": "math-distractor", "trial_index": 105, "time_elapsed": 526375, "internal_node_id": "0.0-78.0"}}, {"uniqueid": "MTK1255:3UJ1CZ6IZIW3CKRPF6O0NWMFE5QS5O", "current_trial": 106, "dateTime": 1513475216054, "trialdata": {"rt": -1, "stimulus": "<p id=\"stim\">10</p>", "key_press": -1, "trial_type": "single-stim", "trial_index": 106, "time_elapsed": 529381, "internal_node_id": "0.0-79.0-0.0"}}, {"uniqueid": "MTK1255:3UJ1CZ6IZIW3CKRPF6O0NWMFE5QS5O", "current_trial": 107, "dateTime": 1513475217057, "trialdata": {"rt": -1, "stimulus": "<p id=\"stim\">9</p>", "key_press": -1, "trial_type": "single-stim", "trial_index": 107, "time_elapsed": 530385, "internal_node_id": "0.0-79.0-1.0"}}, {"uniqueid": "MTK1255:3UJ1CZ6IZIW3CKRPF6O0NWMFE5QS5O", "current_trial": 108, "dateTime": 1513475218062, "trialdata": {"rt": -1, "stimulus": "<p id=\"stim\">8</p>", "key_press": -1, "trial_type": "single-stim", "trial_index": 108, "time_elapsed": 531390, "internal_node_id": "0.0-79.0-2.0"}}, {"uniqueid": "MTK1255:3UJ1CZ6IZIW3CKRPF6O0NWMFE5QS5O", "current_trial": 109, "dateTime": 1513475219065, "trialdata": {"rt": -1, "stimulus": "<p id=\"stim\">7</p>", "key_press": -1, "trial_type": "single-stim", "trial_index": 109, "time_elapsed": 532393, "internal_node_id": "0.0-79.0-3.0"}}, {"uniqueid": "MTK1255:3UJ1CZ6IZIW3CKRPF6O0NWMFE5QS5O", "current_trial": 110, "dateTime": 1513475220070, "trialdata": {"rt": -1, "stimulus": "<p id=\"stim\">6</p>", "key_press": -1, "trial_type": "single-stim", "trial_index": 110, "time_elapsed": 533398, "internal_node_id": "0.0-79.0-4.0"}}, {"uniqueid": "MTK1255:3UJ1CZ6IZIW3CKRPF6O0NWMFE5QS5O", "current_trial": 111, "dateTime": 1513475221074, "trialdata": {"rt": -1, "stimulus": "<p id=\"stim\">5</p>", "key_press": -1, "trial_type": "single-stim", "trial_index": 111, "time_elapsed": 534402, "internal_node_id": "0.0-79.0-5.0"}}, {"uniqueid": "MTK1255:3UJ1CZ6IZIW3CKRPF6O0NWMFE5QS5O", "current_trial": 112, "dateTime": 1513475222078, "trialdata": {"rt": -1, "stimulus": "<p id=\"stim\">4</p>", "key_press": -1, "trial_type": "single-stim", "trial_index": 112, "time_elapsed": 535406, "internal_node_id": "0.0-79.0-6.0"}}, {"uniqueid": "MTK1255:3UJ1CZ6IZIW3CKRPF6O0NWMFE5QS5O", "current_trial": 113, "dateTime": 1513475223082, "trialdata": {"rt": -1, "stimulus": "<p id=\"stim\">3</p>", "key_press": -1, "trial_type": "single-stim", "trial_index": 113, "time_elapsed": 536410, "internal_node_id": "0.0-79.0-7.0"}}, {"uniqueid": "MTK1255:3UJ1CZ6IZIW3CKRPF6O0NWMFE5QS5O", "current_trial": 114, "dateTime": 1513475224086, "trialdata": {"rt": -1, "stimulus": "<p id=\"stim\">2</p>", "key_press": -1, "trial_type": "single-stim", "trial_index": 114, "time_elapsed": 537414, "internal_node_id": "0.0-79.0-8.0"}}, {"uniqueid": "MTK1255:3UJ1CZ6IZIW3CKRPF6O0NWMFE5QS5O", "current_trial": 115, "dateTime": 1513475225087, "trialdata": {"rt": -1, "stimulus": "<p id=\"stim\">1</p>", "key_press": -1, "trial_type": "single-stim", "trial_index": 115, "time_elapsed": 538415, "internal_node_id": "0.0-79.0-9.0"}}, {"uniqueid": "MTK1255:3UJ1CZ6IZIW3CKRPF6O0NWMFE5QS5O", "current_trial": 116, "dateTime": 1513475226589, "trialdata": {"rt": -1, "stimulus": "<p id=\"stim\">+</p>", "key_press": -1, "type": "FIXATION", "trial_type": "single-stim", "trial_index": 116, "time_elapsed": 539917, "internal_node_id": "0.0-80.0-0.0"}}, {"uniqueid": "MTK1255:3UJ1CZ6IZIW3CKRPF6O0NWMFE5QS5O", "current_trial": 117, "dateTime": 1513475228190, "trialdata": {"rt": -1, "stimulus": "<p id=\"stim\">RABBIT</p>", "key_press": -1, "type": "PRES_VIS", "word": "rabbit", "wordID": 1151, "conditions": [12, 1600, "v", 24000], "trial": 3, "serialpos": 0, "trial_type": "single-stim", "trial_index": 117, "time_elapsed": 541518, "internal_node_id": "0.0-81.0"}}, {"uniqueid": "MTK1255:3UJ1CZ6IZIW3CKRPF6O0NWMFE5QS5O", "current_trial": 118, "dateTime": 1513475230904, "trialdata": {"rt": -1, "stimulus": "<p id=\"stim\">BLENDER</p>", "key_press": -1, "type": "PRES_VIS", "word": "blender", "wordID": 135, "conditions": [12, 1600, "v", 24000], "trial": 3, "serialpos": 1, "trial_type": "single-stim", "trial_index": 118, "time_elapsed": 544232, "internal_node_id": "0.0-82.0"}}, {"uniqueid": "MTK1255:3UJ1CZ6IZIW3CKRPF6O0NWMFE5QS5O", "current_trial": 119, "dateTime": 1513475233414, "trialdata": {"rt": -1, "stimulus": "<p id=\"stim\">FLIPPER</p>", "key_press": -1, "type": "PRES_VIS", "word": "flipper", "wordID": 579, "conditions": [12, 1600, "v", 24000], "trial": 3, "serialpos": 2, "trial_type": "single-stim", "trial_index": 119, "time_elapsed": 546741, "internal_node_id": "0.0-83.0"}}, {"uniqueid": "MTK1255:3UJ1CZ6IZIW3CKRPF6O0NWMFE5QS5O", "current_trial": 120, "dateTime": 1513475235829, "trialdata": {"rt": -1, "stimulus": "<p id=\"stim\">FRIEND</p>", "key_press": -1, "type": "PRES_VIS", "word": "friend", "wordID": 605, "conditions": [12, 1600, "v", 24000], "trial": 3, "serialpos": 3, "trial_type": "single-stim", "trial_index": 120, "time_elapsed": 549156, "internal_node_id": "0.0-84.0"}}, {"uniqueid": "MTK1255:3UJ1CZ6IZIW3CKRPF6O0NWMFE5QS5O", "current_trial": 121, "dateTime": 1513475238272, "trialdata": {"rt": -1, "stimulus": "<p id=\"stim\">CRITIC</p>", "key_press": -1, "type": "PRES_VIS", "word": "critic", "wordID": 409, "conditions": [12, 1600, "v", 24000], "trial": 3, "serialpos": 4, "trial_type": "single-stim", "trial_index": 121, "time_elapsed": 551600, "internal_node_id": "0.0-85.0"}}, {"uniqueid": "MTK1255:3UJ1CZ6IZIW3CKRPF6O0NWMFE5QS5O", "current_trial": 122, "dateTime": 1513475241064, "trialdata": {"rt": -1, "stimulus": "<p id=\"stim\">MARS</p>", "key_press": -1, "type": "PRES_VIS", "word": "mars", "wordID": 872, "conditions": [12, 1600, "v", 24000], "trial": 3, "serialpos": 5, "trial_type": "single-stim", "trial_index": 122, "time_elapsed": 554391, "internal_node_id": "0.0-86.0"}}, {"uniqueid": "MTK1255:3UJ1CZ6IZIW3CKRPF6O0NWMFE5QS5O", "current_trial": 123, "dateTime": 1513475243473, "trialdata": {"rt": -1, "stimulus": "<p id=\"stim\">RELISH</p>", "key_press": -1, "type": "PRES_VIS", "word": "relish", "wordID": 1182, "conditions": [12, 1600, "v", 24000], "trial": 3, "serialpos": 6, "trial_type": "single-stim", "trial_index": 123, "time_elapsed": 556801, "internal_node_id": "0.0-87.0"}}, {"uniqueid": "MTK1255:3UJ1CZ6IZIW3CKRPF6O0NWMFE5QS5O", "current_trial": 124, "dateTime": 1513475246228, "trialdata": {"rt": -1, "stimulus": "<p id=\"stim\">FOREHEAD</p>", "key_press": -1, "type": "PRES_VIS", "word": "forehead", "wordID": 591, "conditions": [12, 1600, "v", 24000], "trial": 3, "serialpos": 7, "trial_type": "single-stim", "trial_index": 124, "time_elapsed": 559556, "internal_node_id": "0.0-88.0"}}, {"uniqueid": "MTK1255:3UJ1CZ6IZIW3CKRPF6O0NWMFE5QS5O", "current_trial": 125, "dateTime": 1513475248720, "trialdata": {"rt": -1, "stimulus": "<p id=\"stim\">CHEST</p>", "key_press": -1, "type": "PRES_VIS", "word": "chest", "wordID": 294, "conditions": [12, 1600, "v", 24000], "trial": 3, "serialpos": 8, "trial_type": "single-stim", "trial_index": 125, "time_elapsed": 562048, "internal_node_id": "0.0-89.0"}}, {"uniqueid": "MTK1255:3UJ1CZ6IZIW3CKRPF6O0NWMFE5QS5O", "current_trial": 126, "dateTime": 1513475251384, "trialdata": {"rt": -1, "stimulus": "<p id=\"stim\">SKILLET</p>", "key_press": -1, "type": "PRES_VIS", "word": "skillet", "wordID": 1316, "conditions": [12, 1600, "v", 24000], "trial": 3, "serialpos": 9, "trial_type": "single-stim", "trial_index": 126, "time_elapsed": 564712, "internal_node_id": "0.0-90.0"}}, {"uniqueid": "MTK1255:3UJ1CZ6IZIW3CKRPF6O0NWMFE5QS5O", "current_trial": 127, "dateTime": 1513475253938, "trialdata": {"rt": -1, "stimulus": "<p id=\"stim\">STOMACH</p>", "key_press": -1, "type": "PRES_VIS", "word": "stomach", "wordID": 1383, "conditions": [12, 1600, "v", 24000], "trial": 3, "serialpos": 10, "trial_type": "single-stim", "trial_index": 127, "time_elapsed": 567266, "internal_node_id": "0.0-91.0"}}, {"uniqueid": "MTK1255:3UJ1CZ6IZIW3CKRPF6O0NWMFE5QS5O", "current_trial": 128, "dateTime": 1513475256370, "trialdata": {"rt": -1, "stimulus": "<p id=\"stim\">ZEBRA</p>", "key_press": -1, "type": "PRES_VIS", "word": "zebra", "wordID": 1634, "conditions": [12, 1600, "v", 24000], "trial": 3, "serialpos": 11, "trial_type": "single-stim", "trial_index": 128, "time_elapsed": 569698, "internal_node_id": "0.0-92.0"}}, {"uniqueid": "MTK1255:3UJ1CZ6IZIW3CKRPF6O0NWMFE5QS5O", "current_trial": 129, "dateTime": 1513475258610, "trialdata": {"rt": -1, "stimulus": "", "key_press": -1, "type": "PRE_RECALL_DELAY", "trial_type": "single-stim", "trial_index": 129, "time_elapsed": 571938, "internal_node_id": "0.0-93.0-0.0"}}, {"uniqueid": "MTK1255:3UJ1CZ6IZIW3CKRPF6O0NWMFE5QS5O", "current_trial": 130, "dateTime": 1513475259111, "trialdata": {"rt": -1000, "stimulus": "/static/audio/400Hz.wav", "key_press": -1, "type": "PRE_RECALL_ALERT", "trial_type": "single-audio", "trial_index": 130, "time_elapsed": 572439, "internal_node_id": "0.0-94.0"}}, {"uniqueid": "MTK1255:3UJ1CZ6IZIW3CKRPF6O0NWMFE5QS5O", "current_trial": 131, "dateTime": 1513475319117, "trialdata": {"rt": [2200, 3921, 6002, 7634, 10469, 14114, 17151, 20335, 23327], "recwords": ["rabbit", "blender", "flipper", "friend", "skillet", "forehead", "chest", "skillet", "blend"], "type": "FREE_RECALL", "conditions": [12, 1600, "v", 24000], "trial": 3, "trial_type": "free-recall", "trial_index": 131, "time_elapsed": 632443, "internal_node_id": "0.0-95.0-0.0"}}, {"uniqueid": "MTK1255:3UJ1CZ6IZIW3CKRPF6O0NWMFE5QS5O", "current_trial": 132, "dateTime": 1513475322400, "trialdata": {"rt": 1283, "key_press": 32, "type": "INSTRUCTIONS", "trial_type": "text", "trial_index": 132, "time_elapsed": 635728, "internal_node_id": "0.0-96.0"}}, {"uniqueid": "MTK1255:3UJ1CZ6IZIW3CKRPF6O0NWMFE5QS5O", "current_trial": 133, "dateTime": 1513475348412, "trialdata": {"rt": [2765, 4745, 7006, 10437, 12226, 14746, 16479, 18965, 22610], "responses": ["19", "15", "14", "20", "9", "17", "9", "17", "19"], "num1": [8, 7, 1, 7, 5, 6, 3, 5, 3, 6], "num2": [5, 1, 7, 6, 3, 8, 5, 4, 9, 6], "num3": [6, 7, 6, 7, 1, 3, 1, 8, 7, 4], "type": "DISTRACTOR", "conditions": [12, 800, "v", 24000], "trial": 4, "trial_type": "math-distractor", "trial_index": 133, "time_elapsed": 661740, "internal_node_id": "0.0-97.0"}}, {"uniqueid": "MTK1255:3UJ1CZ6IZIW3CKRPF6O0NWMFE5QS5O", "current_trial": 134, "dateTime": 1513475351420, "trialdata": {"rt": -1, "stimulus": "<p id=\"stim\">10</p>", "key_press": -1, "trial_type": "single-stim", "trial_index": 134, "time_elapsed": 664748, "internal_node_id": "0.0-98.0-0.0"}}, {"uniqueid": "MTK1255:3UJ1CZ6IZIW3CKRPF6O0NWMFE5QS5O", "current_trial": 135, "dateTime": 1513475352424, "trialdata": {"rt": -1, "stimulus": "<p id=\"stim\">9</p>", "key_press": -1, "trial_type": "single-stim", "trial_index": 135, "time_elapsed": 665752, "internal_node_id": "0.0-98.0-1.0"}}, {"uniqueid": "MTK1255:3UJ1CZ6IZIW3CKRPF6O0NWMFE5QS5O", "current_trial": 136, "dateTime": 1513475353430, "trialdata": {"rt": -1, "stimulus": "<p id=\"stim\">8</p>", "key_press": -1, "trial_type": "single-stim", "trial_index": 136, "time_elapsed": 666756, "internal_node_id": "0.0-98.0-2.0"}}, {"uniqueid": "MTK1255:3UJ1CZ6IZIW3CKRPF6O0NWMFE5QS5O", "current_trial": 137, "dateTime": 1513475354433, "trialdata": {"rt": -1, "stimulus": "<p id=\"stim\">7</p>", "key_press": -1, "trial_type": "single-stim", "trial_index": 137, "time_elapsed": 667760, "internal_node_id": "0.0-98.0-3.0"}}, {"uniqueid": "MTK1255:3UJ1CZ6IZIW3CKRPF6O0NWMFE5QS5O", "current_trial": 138, "dateTime": 1513475355437, "trialdata": {"rt": -1, "stimulus": "<p id=\"stim\">6</p>", "key_press": -1, "trial_type": "single-stim", "trial_index": 138, "time_elapsed": 668765, "internal_node_id": "0.0-98.0-4.0"}}, {"uniqueid": "MTK1255:3UJ1CZ6IZIW3CKRPF6O0NWMFE5QS5O", "current_trial": 139, "dateTime": 1513475356440, "trialdata": {"rt": -1, "stimulus": "<p id=\"stim\">5</p>", "key_press": -1, "trial_type": "single-stim", "trial_index": 139, "time_elapsed": 669768, "internal_node_id": "0.0-98.0-5.0"}}, {"uniqueid": "MTK1255:3UJ1CZ6IZIW3CKRPF6O0NWMFE5QS5O", "current_trial": 140, "dateTime": 1513475357445, "trialdata": {"rt": -1, "stimulus": "<p id=\"stim\">4</p>", "key_press": -1, "trial_type": "single-stim", "trial_index": 140, "time_elapsed": 670773, "internal_node_id": "0.0-98.0-6.0"}}, {"uniqueid": "MTK1255:3UJ1CZ6IZIW3CKRPF6O0NWMFE5QS5O", "current_trial": 141, "dateTime": 1513475358449, "trialdata": {"rt": -1, "stimulus": "<p id=\"stim\">3</p>", "key_press": -1, "trial_type": "single-stim", "trial_index": 141, "time_elapsed": 671777, "internal_node_id": "0.0-98.0-7.0"}}, {"uniqueid": "MTK1255:3UJ1CZ6IZIW3CKRPF6O0NWMFE5QS5O", "current_trial": 142, "dateTime": 1513475359453, "trialdata": {"rt": -1, "stimulus": "<p id=\"stim\">2</p>", "key_press": -1, "trial_type": "single-stim", "trial_index": 142, "time_elapsed": 672781, "internal_node_id": "0.0-98.0-8.0"}}, {"uniqueid": "MTK1255:3UJ1CZ6IZIW3CKRPF6O0NWMFE5QS5O", "current_trial": 143, "dateTime": 1513475360457, "trialdata": {"rt": -1, "stimulus": "<p id=\"stim\">1</p>", "key_press": -1, "trial_type": "single-stim", "trial_index": 143, "time_elapsed": 673785, "internal_node_id": "0.0-98.0-9.0"}}, {"uniqueid": "MTK1255:3UJ1CZ6IZIW3CKRPF6O0NWMFE5QS5O", "current_trial": 144, "dateTime": 1513475361961, "trialdata": {"rt": -1, "stimulus": "<p id=\"stim\">+</p>", "key_press": -1, "type": "FIXATION", "trial_type": "single-stim", "trial_index": 144, "time_elapsed": 675289, "internal_node_id": "0.0-99.0-0.0"}}, {"uniqueid": "MTK1255:3UJ1CZ6IZIW3CKRPF6O0NWMFE5QS5O", "current_trial": 145, "dateTime": 1513475362765, "trialdata": {"rt": -1, "stimulus": "<p id=\"stim\">COFFEE</p>", "key_press": -1, "type": "PRES_VIS", "word": "coffee", "wordID": 340, "conditions": [12, 800, "v", 24000], "trial": 4, "serialpos": 0, "trial_type": "single-stim", "trial_index": 145, "time_elapsed": 676093, "internal_node_id": "0.0-100.0"}}, {"uniqueid": "MTK1255:3UJ1CZ6IZIW3CKRPF6O0NWMFE5QS5O", "current_trial": 146, "dateTime": 1513475364501, "trialdata": {"rt": -1, "stimulus": "<p id=\"stim\">LEADER</p>", "key_press": -1, "type": "PRES_VIS", "word": "leader", "wordID": 806, "conditions": [12, 800, "v", 24000], "trial": 4, "serialpos": 1, "trial_type": "single-stim", "trial_index": 146, "time_elapsed": 677829, "internal_node_id": "0.0-101.0"}}, {"uniqueid": "MTK1255:3UJ1CZ6IZIW3CKRPF6O0NWMFE5QS5O", "current_trial": 147, "dateTime": 1513475366378, "trialdata": {"rt": -1, "stimulus": "<p id=\"stim\">THIEF</p>", "key_press": -1, "type": "PRES_VIS", "word": "thief", "wordID": 1455, "conditions": [12, 800, "v", 24000], "trial": 4, "serialpos": 2, "trial_type": "single-stim", "trial_index": 147, "time_elapsed": 679706, "internal_node_id": "0.0-102.0"}}, {"uniqueid": "MTK1255:3UJ1CZ6IZIW3CKRPF6O0NWMFE5QS5O", "current_trial": 148, "dateTime": 1513475368217, "trialdata": {"rt": -1, "stimulus": "<p id=\"stim\">UNCLE</p>", "key_press": -1, "type": "PRES_VIS", "word": "uncle", "wordID": 1535, "conditions": [12, 800, "v", 24000], "trial": 4, "serialpos": 3, "trial_type": "single-stim", "trial_index": 148, "time_elapsed": 681545, "internal_node_id": "0.0-103.0"}}, {"uniqueid": "MTK1255:3UJ1CZ6IZIW3CKRPF6O0NWMFE5QS5O", "current_trial": 149, "dateTime": 1513475370044, "trialdata": {"rt": -1, "stimulus": "<p id=\"stim\">SISTER</p>", "key_press": -1, "type": "PRES_VIS", "word": "sister", "wordID": 1311, "conditions": [12, 800, "v", 24000], "trial": 4, "serialpos": 4, "trial_type": "single-stim", "trial_index": 149, "time_elapsed": 683372, "internal_node_id": "0.0-104.0"}}, {"uniqueid": "MTK1255:3UJ1CZ6IZIW3CKRPF6O0NWMFE5QS5O", "current_trial": 150, "dateTime": 1513475371963, "trialdata": {"rt": -1, "stimulus": "<p id=\"stim\">SPARROW</p>", "key_press": -1, "type": "PRES_VIS", "word": "sparrow", "wordID": 1346, "conditions": [12, 800, "v", 24000], "trial": 4, "serialpos": 5, "trial_type": "single-stim", "trial_index": 150, "time_elapsed": 685291, "internal_node_id": "0.0-105.0"}}, {"uniqueid": "MTK1255:3UJ1CZ6IZIW3CKRPF6O0NWMFE5QS5O", "current_trial": 151, "dateTime": 1513475373869, "trialdata": {"rt": -1, "stimulus": "<p id=\"stim\">BOYFRIEND</p>", "key_press": -1, "type": "PRES_VIS", "word": "boyfriend", "wordID": 161, "conditions": [12, 800, "v", 24000], "trial": 4, "serialpos": 6, "trial_type": "single-stim", "trial_index": 151, "time_elapsed": 687197, "internal_node_id": "0.0-106.0"}}, {"uniqueid": "MTK1255:3UJ1CZ6IZIW3CKRPF6O0NWMFE5QS5O", "current_trial": 152, "dateTime": 1513475375482, "trialdata": {"rt": -1, "stimulus": "<p id=\"stim\">FRECKLE</p>", "key_press": -1, "type": "PRES_VIS", "word": "freckle", "wordID": 601, "conditions": [12, 800, "v", 24000], "trial": 4, "serialpos": 7, "trial_type": "single-stim", "trial_index": 152, "time_elapsed": 688810, "internal_node_id": "0.0-107.0"}}, {"uniqueid": "MTK1255:3UJ1CZ6IZIW3CKRPF6O0NWMFE5QS5O", "current_trial": 153, "dateTime": 1513475377149, "trialdata": {"rt": -1, "stimulus": "<p id=\"stim\">PIMPLE</p>", "key_press": -1, "type": "PRES_VIS", "word": "pimple", "wordID": 1070, "conditions": [12, 800, "v", 24000], "trial": 4, "serialpos": 8, "trial_type": "single-stim", "trial_index": 153, "time_elapsed": 690476, "internal_node_id": "0.0-108.0"}}, {"uniqueid": "MTK1255:3UJ1CZ6IZIW3CKRPF6O0NWMFE5QS5O", "current_trial": 154, "dateTime": 1513475378912, "trialdata": {"rt": -1, "stimulus": "<p id=\"stim\">MISSILE</p>", "key_press": -1, "type": "PRES_VIS", "word": "missile", "wordID": 899, "conditions": [12, 800, "v", 24000], "trial": 4, "serialpos": 9, "trial_type": "single-stim", "trial_index": 154, "time_elapsed": 692240, "internal_node_id": "0.0-109.0"}}, {"uniqueid": "MTK1255:3UJ1CZ6IZIW3CKRPF6O0NWMFE5QS5O", "current_trial": 155, "dateTime": 1513475380799, "trialdata": {"rt": -1, "stimulus": "<p id=\"stim\">CLIMBER</p>", "key_press": -1, "type": "PRES_VIS", "word": "climber", "wordID": 322, "conditions": [12, 800, "v", 24000], "trial": 4, "serialpos": 10, "trial_type": "single-stim", "trial_index": 155, "time_elapsed": 694127, "internal_node_id": "0.0-110.0"}}, {"uniqueid": "MTK1255:3UJ1CZ6IZIW3CKRPF6O0NWMFE5QS5O", "current_trial": 156, "dateTime": 1513475382438, "trialdata": {"rt": -1, "stimulus": "<p id=\"stim\">ROBBER</p>", "key_press": -1, "type": "PRES_VIS", "word": "robber", "wordID": 1196, "conditions": [12, 800, "v", 24000], "trial": 4, "serialpos": 11, "trial_type": "single-stim", "trial_index": 156, "time_elapsed": 695766, "internal_node_id": "0.0-111.0"}}, {"uniqueid": "MTK1255:3UJ1CZ6IZIW3CKRPF6O0NWMFE5QS5O", "current_trial": 157, "dateTime": 1513475384607, "trialdata": {"rt": -1, "stimulus": "", "key_press": -1, "type": "PRE_RECALL_DELAY", "trial_type": "single-stim", "trial_index": 157, "time_elapsed": 697935, "internal_node_id": "0.0-112.0-0.0"}}, {"uniqueid": "MTK1255:3UJ1CZ6IZIW3CKRPF6O0NWMFE5QS5O", "current_trial": 158, "dateTime": 1513475385108, "trialdata": {"rt": -1000, "stimulus": "/static/audio/400Hz.wav", "key_press": -1, "type": "PRE_RECALL_ALERT", "trial_type": "single-audio", "trial_index": 158, "time_elapsed": 698436, "internal_node_id": "0.0-113.0"}}, {"uniqueid": "MTK1255:3UJ1CZ6IZIW3CKRPF6O0NWMFE5QS5O", "current_trial": 159, "dateTime": 1513475445115, "trialdata": {"rt": [2419, 4061, 7425, 8685, 10429, 12971, 17764, 22692, 50705], "recwords": ["coffee", "leader", "uncle", "sister", "sparrow", "thief", "freckle", "pimple", ""], "type": "FREE_RECALL", "conditions": [12, 800, "v", 24000], "trial": 4, "trial_type": "free-recall", "trial_index": 159, "time_elapsed": 758442, "internal_node_id": "0.0-114.0-0.0"}}, {"uniqueid": "MTK1255:3UJ1CZ6IZIW3CKRPF6O0NWMFE5QS5O", "current_trial": 160, "dateTime": 1513475447749, "trialdata": {"rt": 633, "key_press": 32, "type": "INSTRUCTIONS", "trial_type": "text", "trial_index": 160, "time_elapsed": 761077, "internal_node_id": "0.0-115.0"}}, {"uniqueid": "MTK1255:3UJ1CZ6IZIW3CKRPF6O0NWMFE5QS5O", "current_trial": 161, "dateTime": 1513475461755, "trialdata": {"rt": [2520, 4578, 6153, 8122, 10484], "responses": ["16", "17", "13", "15", "16"], "num1": [9, 5, 5, 8, 6, 4], "num2": [1, 8, 5, 6, 9, 2], "num3": [6, 4, 3, 1, 1, 1], "type": "DISTRACTOR", "conditions": [24, 1600, "v", 12000], "trial": 5, "trial_type": "math-distractor", "trial_index": 161, "time_elapsed": 775083, "internal_node_id": "0.0-116.0"}}, {"uniqueid": "MTK1255:3UJ1CZ6IZIW3CKRPF6O0NWMFE5QS5O", "current_trial": 162, "dateTime": 1513475464761, "trialdata": {"rt": -1, "stimulus": "<p id=\"stim\">10</p>", "key_press": -1, "trial_type": "single-stim", "trial_index": 162, "time_elapsed": 778089, "internal_node_id": "0.0-117.0-0.0"}}, {"uniqueid": "MTK1255:3UJ1CZ6IZIW3CKRPF6O0NWMFE5QS5O", "current_trial": 163, "dateTime": 1513475465765, "trialdata": {"rt": -1, "stimulus": "<p id=\"stim\">9</p>", "key_press": -1, "trial_type": "single-stim", "trial_index": 163, "time_elapsed": 779093, "internal_node_id": "0.0-117.0-1.0"}}, {"uniqueid": "MTK1255:3UJ1CZ6IZIW3CKRPF6O0NWMFE5QS5O", "current_trial": 164, "dateTime": 1513475466769, "trialdata": {"rt": -1, "stimulus": "<p id=\"stim\">8</p>", "key_press": -1, "trial_type": "single-stim", "trial_index": 164, "time_elapsed": 780097, "internal_node_id": "0.0-117.0-2.0"}}, {"uniqueid": "MTK1255:3UJ1CZ6IZIW3CKRPF6O0NWMFE5QS5O", "current_trial": 165, "dateTime": 1513475467773, "trialdata": {"rt": -1, "stimulus": "<p id=\"stim\">7</p>", "key_press": -1, "trial_type": "single-stim", "trial_index": 165, "time_elapsed": 781101, "internal_node_id": "0.0-117.0-3.0"}}, {"uniqueid": "MTK1255:3UJ1CZ6IZIW3CKRPF6O0NWMFE5QS5O", "current_trial": 166, "dateTime": 1513475468778, "trialdata": {"rt": -1, "stimulus": "<p id=\"stim\">6</p>", "key_press": -1, "trial_type": "single-stim", "trial_index": 166, "time_elapsed": 782106, "internal_node_id": "0.0-117.0-4.0"}}, {"uniqueid": "MTK1255:3UJ1CZ6IZIW3CKRPF6O0NWMFE5QS5O", "current_trial": 167, "dateTime": 1513475469782, "trialdata": {"rt": -1, "stimulus": "<p id=\"stim\">5</p>", "key_press": -1, "trial_type": "single-stim", "trial_index": 167, "time_elapsed": 783110, "internal_node_id": "0.0-117.0-5.0"}}, {"uniqueid": "MTK1255:3UJ1CZ6IZIW3CKRPF6O0NWMFE5QS5O", "current_trial": 168, "dateTime": 1513475470786, "trialdata": {"rt": -1, "stimulus": "<p id=\"stim\">4</p>", "key_press": -1, "trial_type": "single-stim", "trial_index": 168, "time_elapsed": 784114, "internal_node_id": "0.0-117.0-6.0"}}, {"uniqueid": "MTK1255:3UJ1CZ6IZIW3CKRPF6O0NWMFE5QS5O", "current_trial": 169, "dateTime": 1513475471791, "trialdata": {"rt": -1, "stimulus": "<p id=\"stim\">3</p>", "key_press": -1, "trial_type": "single-stim", "trial_index": 169, "time_elapsed": 785119, "internal_node_id": "0.0-117.0-7.0"}}, {"uniqueid": "MTK1255:3UJ1CZ6IZIW3CKRPF6O0NWMFE5QS5O", "current_trial": 170, "dateTime": 1513475472794, "trialdata": {"rt": -1, "stimulus": "<p id=\"stim\">2</p>", "key_press": -1, "trial_type": "single-stim", "trial_index": 170, "time_elapsed": 786122, "internal_node_id": "0.0-117.0-8.0"}}, {"uniqueid": "MTK1255:3UJ1CZ6IZIW3CKRPF6O0NWMFE5QS5O", "current_trial": 171, "dateTime": 1513475473798, "trialdata": {"rt": -1, "stimulus": "<p id=\"stim\">1</p>", "key_press": -1, "trial_type": "single-stim", "trial_index": 171, "time_elapsed": 787126, "internal_node_id": "0.0-117.0-9.0"}}, {"uniqueid": "MTK1255:3UJ1CZ6IZIW3CKRPF6O0NWMFE5QS5O", "current_trial": 172, "dateTime": 1513475475303, "trialdata": {"rt": -1, "stimulus": "<p id=\"stim\">+</p>", "key_press": -1, "type": "FIXATION", "trial_type": "single-stim", "trial_index": 172, "time_elapsed": 788631, "internal_node_id": "0.0-118.0-0.0"}}, {"uniqueid": "MTK1255:3UJ1CZ6IZIW3CKRPF6O0NWMFE5QS5O", "current_trial": 173, "dateTime": 1513475476908, "trialdata": {"rt": -1, "stimulus": "<p id=\"stim\">COBRA</p>", "key_press": -1, "type": "PRES_VIS", "word": "cobra", "wordID": 335, "conditions": [24, 1600, "v", 12000], "trial": 5, "serialpos": 0, "trial_type": "single-stim", "trial_index": 173, "time_elapsed": 790236, "internal_node_id": "0.0-119.0"}}, {"uniqueid": "MTK1255:3UJ1CZ6IZIW3CKRPF6O0NWMFE5QS5O", "current_trial": 174, "dateTime": 1513475479405, "trialdata": {"rt": -1, "stimulus": "<p id=\"stim\">COUSIN</p>", "key_press": -1, "type": "PRES_VIS", "word": "cousin", "wordID": 391, "conditions": [24, 1600, "v", 12000], "trial": 5, "serialpos": 1, "trial_type": "single-stim", "trial_index": 174, "time_elapsed": 792733, "internal_node_id": "0.0-120.0"}}, {"uniqueid": "MTK1255:3UJ1CZ6IZIW3CKRPF6O0NWMFE5QS5O", "current_trial": 175, "dateTime": 1513475482006, "trialdata": {"rt": -1, "stimulus": "<p id=\"stim\">SEAFOOD</p>", "key_press": -1, "type": "PRES_VIS", "word": "seafood", "wordID": 1259, "conditions": [24, 1600, "v", 12000], "trial": 5, "serialpos": 2, "trial_type": "single-stim", "trial_index": 175, "time_elapsed": 795333, "internal_node_id": "0.0-121.0"}}, {"uniqueid": "MTK1255:3UJ1CZ6IZIW3CKRPF6O0NWMFE5QS5O", "current_trial": 176, "dateTime": 1513475484467, "trialdata": {"rt": -1, "stimulus": "<p id=\"stim\">CRAB</p>", "key_press": -1, "type": "PRES_VIS", "word": "crab", "wordID": 396, "conditions": [24, 1600, "v", 12000], "trial": 5, "serialpos": 3, "trial_type": "single-stim", "trial_index": 176, "time_elapsed": 797795, "internal_node_id": "0.0-122.0"}}, {"uniqueid": "MTK1255:3UJ1CZ6IZIW3CKRPF6O0NWMFE5QS5O", "current_trial": 177, "dateTime": 1513475486922, "trialdata": {"rt": -1, "stimulus": "<p id=\"stim\">PERCH</p>", "key_press": -1, "type": "PRES_VIS", "word": "perch", "wordID": 1047, "conditions": [24, 1600, "v", 12000], "trial": 5, "serialpos": 4, "trial_type": "single-stim", "trial_index": 177, "time_elapsed": 800250, "internal_node_id": "0.0-123.0"}}, {"uniqueid": "MTK1255:3UJ1CZ6IZIW3CKRPF6O0NWMFE5QS5O", "current_trial": 178, "dateTime": 1513475489534, "trialdata": {"rt": -1, "stimulus": "<p id=\"stim\">POSTAGE</p>", "key_press": -1, "type": "PRES_VIS", "word": "postage", "wordID": 1112, "conditions": [24, 1600, "v", 12000], "trial": 5, "serialpos": 5, "trial_type": "single-stim", "trial_index": 178, "time_elapsed": 802862, "internal_node_id": "0.0-124.0"}}, {"uniqueid": "MTK1255:3UJ1CZ6IZIW3CKRPF6O0NWMFE5QS5O", "current_trial": 179, "dateTime": 1513475492291, "trialdata": {"rt": -1, "stimulus": "<p id=\"stim\">HIKER</p>", "key_press": -1, "type": "PRES_VIS", "word": "hiker", "wordID": 707, "conditions": [24, 1600, "v", 12000], "trial": 5, "serialpos": 6, "trial_type": "single-stim", "trial_index": 179, "time_elapsed": 805619, "internal_node_id": "0.0-125.0"}}, {"uniqueid": "MTK1255:3UJ1CZ6IZIW3CKRPF6O0NWMFE5QS5O", "current_trial": 180, "dateTime": 1513475494733, "trialdata": {"rt": -1, "stimulus": "<p id=\"stim\">SIBLING</p>", "key_press": -1, "type": "PRES_VIS", "word": "sibling", "wordID": 1300, "conditions": [24, 1600, "v", 12000], "trial": 5, "serialpos": 7, "trial_type": "single-stim", "trial_index": 180, "time_elapsed": 808061, "internal_node_id": "0.0-126.0"}}, {"uniqueid": "MTK1255:3UJ1CZ6IZIW3CKRPF6O0NWMFE5QS5O", "current_trial": 181, "dateTime": 1513475497288, "trialdata": {"rt": -1, "stimulus": "<p id=\"stim\">AIRPORT</p>", "key_press": -1, "type": "PRES_VIS", "word": "airport", "wordID": 12, "conditions": [24, 1600, "v", 12000], "trial": 5, "serialpos": 8, "trial_type": "single-stim", "trial_index": 181, "time_elapsed": 810616, "internal_node_id": "0.0-127.0"}}, {"uniqueid": "MTK1255:3UJ1CZ6IZIW3CKRPF6O0NWMFE5QS5O", "current_trial": 182, "dateTime": 1513475500062, "trialdata": {"rt": -1, "stimulus": "<p id=\"stim\">BUG</p>", "key_press": -1, "type": "PRES_VIS", "word": "bug", "wordID": 186, "conditions": [24, 1600, "v", 12000], "trial": 5, "serialpos": 9, "trial_type": "single-stim", "trial_index": 182, "time_elapsed": 813390, "internal_node_id": "0.0-128.0"}}, {"uniqueid": "MTK1255:3UJ1CZ6IZIW3CKRPF6O0NWMFE5QS5O", "current_trial": 183, "dateTime": 1513475502767, "trialdata": {"rt": -1, "stimulus": "<p id=\"stim\">POISON</p>", "key_press": -1, "type": "PRES_VIS", "word": "poison", "wordID": 1095, "conditions": [24, 1600, "v", 12000], "trial": 5, "serialpos": 10, "trial_type": "single-stim", "trial_index": 183, "time_elapsed": 816095, "internal_node_id": "0.0-129.0"}}, {"uniqueid": "MTK1255:3UJ1CZ6IZIW3CKRPF6O0NWMFE5QS5O", "current_trial": 184, "dateTime": 1513475505472, "trialdata": {"rt": -1, "stimulus": "<p id=\"stim\">PISTON</p>", "key_press": -1, "type": "PRES_VIS", "word": "piston", "wordID": 1075, "conditions": [24, 1600, "v", 12000], "trial": 5, "serialpos": 11, "trial_type": "single-stim", "trial_index": 184, "time_elapsed": 818800, "internal_node_id": "0.0-130.0"}}, {"uniqueid": "MTK1255:3UJ1CZ6IZIW3CKRPF6O0NWMFE5QS5O", "current_trial": 185, "dateTime": 1513475507936, "trialdata": {"rt": -1, "stimulus": "<p id=\"stim\">INFANT</p>", "key_press": -1, "type": "PRES_VIS", "word": "infant", "wordID": 736, "conditions": [24, 1600, "v", 12000], "trial": 5, "serialpos": 12, "trial_type": "single-stim", "trial_index": 185, "time_elapsed": 821264, "internal_node_id": "0.0-131.0"}}, {"uniqueid": "MTK1255:3UJ1CZ6IZIW3CKRPF6O0NWMFE5QS5O", "current_trial": 186, "dateTime": 1513475510590, "trialdata": {"rt": -1, "stimulus": "<p id=\"stim\">DRIVER</p>", "key_press": -1, "type": "PRES_VIS", "word": "driver", "wordID": 498, "conditions": [24, 1600, "v", 12000], "trial": 5, "serialpos": 13, "trial_type": "single-stim", "trial_index": 186, "time_elapsed": 823918, "internal_node_id": "0.0-132.0"}}, {"uniqueid": "MTK1255:3UJ1CZ6IZIW3CKRPF6O0NWMFE5QS5O", "current_trial": 187, "dateTime": 1513475513068, "trialdata": {"rt": -1, "stimulus": "<p id=\"stim\">SCRIBBLE</p>", "key_press": -1, "type": "PRES_VIS", "word": "scribble", "wordID": 1255, "conditions": [24, 1600, "v", 12000], "trial": 5, "serialpos": 14, "trial_type": "single-stim", "trial_index": 187, "time_elapsed": 826396, "internal_node_id": "0.0-133.0"}}, {"uniqueid": "MTK1255:3UJ1CZ6IZIW3CKRPF6O0NWMFE5QS5O", "current_trial": 188, "dateTime": 1513475515821, "trialdata": {"rt": -1, "stimulus": "<p id=\"stim\">FIREPLACE</p>", "key_press": -1, "type": "PRES_VIS", "word": "fireplace", "wordID": 569, "conditions": [24, 1600, "v", 12000], "trial": 5, "serialpos": 15, "trial_type": "single-stim", "trial_index": 188, "time_elapsed": 829149, "internal_node_id": "0.0-134.0"}}, {"uniqueid": "MTK1255:3UJ1CZ6IZIW3CKRPF6O0NWMFE5QS5O", "current_trial": 189, "dateTime": 1513475518333, "trialdata": {"rt": -1, "stimulus": "<p id=\"stim\">STOVE</p>", "key_press": -1, "type": "PRES_VIS", "word": "stove", "wordID": 1387, "conditions": [24, 1600, "v", 12000], "trial": 5, "serialpos": 16, "trial_type": "single-stim", "trial_index": 189, "time_elapsed": 831661, "internal_node_id": "0.0-135.0"}}, {"uniqueid": "MTK1255:3UJ1CZ6IZIW3CKRPF6O0NWMFE5QS5O", "current_trial": 190, "dateTime": 1513475520923, "trialdata": {"rt": -1, "stimulus": "<p id=\"stim\">BRIEFCASE</p>", "key_press": -1, "type": "PRES_VIS", "word": "briefcase", "wordID": 174, "conditions": [24, 1600, "v", 12000], "trial": 5, "serialpos": 17, "trial_type": "single-stim", "trial_index": 190, "time_elapsed": 834250, "internal_node_id": "0.0-136.0"}}, {"uniqueid": "MTK1255:3UJ1CZ6IZIW3CKRPF6O0NWMFE5QS5O", "current_trial": 191, "dateTime": 1513475523697, "trialdata": {"rt": -1, "stimulus": "<p id=\"stim\">TUTU</p>", "key_press": -1, "type": "PRES_VIS", "word": "tutu", "wordID": 1523, "conditions": [24, 1600, "v", 12000], "trial": 5, "serialpos": 18, "trial_type": "single-stim", "trial_index": 191, "time_elapsed": 837025, "internal_node_id": "0.0-137.0"}}, {"uniqueid": "MTK1255:3UJ1CZ6IZIW3CKRPF6O0NWMFE5QS5O", "current_trial": 192, "dateTime": 1513475526170, "trialdata": {"rt": -1, "stimulus": "<p id=\"stim\">FLESH</p>", "key_press": -1, "type": "PRES_VIS", "word": "flesh", "wordID": 578, "conditions": [24, 1600, "v", 12000], "trial": 5, "serialpos": 19, "trial_type": "single-stim", "trial_index": 192, "time_elapsed": 839498, "internal_node_id": "0.0-138.0"}}, {"uniqueid": "MTK1255:3UJ1CZ6IZIW3CKRPF6O0NWMFE5QS5O", "current_trial": 193, "dateTime": 1513475528713, "trialdata": {"rt": -1, "stimulus": "<p id=\"stim\">HANDBAG</p>", "key_press": -1, "type": "PRES_VIS", "word": "handbag", "wordID": 683, "conditions": [24, 1600, "v", 12000], "trial": 5, "serialpos": 20, "trial_type": "single-stim", "trial_index": 193, "time_elapsed": 842041, "internal_node_id": "0.0-139.0"}}, {"uniqueid": "MTK1255:3UJ1CZ6IZIW3CKRPF6O0NWMFE5QS5O", "current_trial": 194, "dateTime": 1513475531469, "trialdata": {"rt": -1, "stimulus": "<p id=\"stim\">PIANO</p>", "key_press": -1, "type": "PRES_VIS", "word": "piano", "wordID": 1056, "conditions": [24, 1600, "v", 12000], "trial": 5, "serialpos": 21, "trial_type": "single-stim", "trial_index": 194, "time_elapsed": 844797, "internal_node_id": "0.0-140.0"}}, {"uniqueid": "MTK1255:3UJ1CZ6IZIW3CKRPF6O0NWMFE5QS5O", "current_trial": 195, "dateTime": 1513475533896, "trialdata": {"rt": -1, "stimulus": "<p id=\"stim\">PORTRAIT</p>", "key_press": -1, "type": "PRES_VIS", "word": "portrait", "wordID": 1110, "conditions": [24, 1600, "v", 12000], "trial": 5, "serialpos": 22, "trial_type": "single-stim", "trial_index": 195, "time_elapsed": 847223, "internal_node_id": "0.0-141.0"}}, {"uniqueid": "MTK1255:3UJ1CZ6IZIW3CKRPF6O0NWMFE5QS5O", "current_trial": 196, "dateTime": 1513475536606, "trialdata": {"rt": -1, "stimulus": "<p id=\"stim\">SEAGULL</p>", "key_press": -1, "type": "PRES_VIS", "word": "seagull", "wordID": 1260, "conditions": [24, 1600, "v", 12000], "trial": 5, "serialpos": 23, "trial_type": "single-stim", "trial_index": 196, "time_elapsed": 849934, "internal_node_id": "0.0-142.0"}}, {"uniqueid": "MTK1255:3UJ1CZ6IZIW3CKRPF6O0NWMFE5QS5O", "current_trial": 197, "dateTime": 1513475538845, "trialdata": {"rt": -1, "stimulus": "", "key_press": -1, "type": "PRE_RECALL_DELAY", "trial_type": "single-stim", "trial_index": 197, "time_elapsed": 852173, "internal_node_id": "0.0-143.0-0.0"}}, {"uniqueid": "MTK1255:3UJ1CZ6IZIW3CKRPF6O0NWMFE5QS5O", "current_trial": 198, "dateTime": 1513475539347, "trialdata": {"rt": -1000, "stimulus": "/static/audio/400Hz.wav", "key_press": -1, "type": "PRE_RECALL_ALERT", "trial_type": "single-audio", "trial_index": 198, "time_elapsed": 852675, "internal_node_id": "0.0-144.0"}}, {"uniqueid": "MTK1255:3UJ1CZ6IZIW3CKRPF6O0NWMFE5QS5O", "current_trial": 199, "dateTime": 1513475599356, "trialdata": {"rt": [2755, 4364, 6604, 8403, 10519, 14489, 17369, 20733, 24243, 27821, 32805, 52447, 58714], "recwords": ["cobra", "cousin", "piston", "poison", "airport", "tutu", "train", "sibling", "poison", "apple", "concert", "sister", ""], "type": "FREE_RECALL", "conditions": [24, 1600, "v", 12000], "trial": 5, "trial_type": "free-recall", "trial_index": 199, "time_elapsed": 912683, "internal_node_id": "0.0-145.0-0.0"}}, {"uniqueid": "MTK1255:3UJ1CZ6IZIW3CKRPF6O0NWMFE5QS5O", "current_trial": 200, "dateTime": 1513475602269, "trialdata": {"rt": 908, "key_press": 32, "type": "INSTRUCTIONS", "trial_type": "text", "trial_index": 200, "time_elapsed": 915597, "internal_node_id": "0.0-146.0"}}, {"uniqueid": "MTK1255:3UJ1CZ6IZIW3CKRPF6O0NWMFE5QS5O", "current_trial": 201, "dateTime": 1513475616274, "trialdata": {"rt": [2014, 4310, 6897, 9248, 10857], "responses": ["8", "20", "20", "23", "13"], "num1": [4, 9, 7, 7, 8, 6], "num2": [1, 6, 6, 9, 4, 7], "num3": [3, 5, 7, 7, 1, 8], "type": "DISTRACTOR", "conditions": [12, 1600, "a", 12000], "trial": 6, "trial_type": "math-distractor", "trial_index": 201, "time_elapsed": 929602, "internal_node_id": "0.0-147.0"}}, {"uniqueid": "MTK1255:3UJ1CZ6IZIW3CKRPF6O0NWMFE5QS5O", "current_trial": 202, "dateTime": 1513475619281, "trialdata": {"rt": -1, "stimulus": "<p id=\"stim\">10</p>", "key_press": -1, "trial_type": "single-stim", "trial_index": 202, "time_elapsed": 932609, "internal_node_id": "0.0-148.0-0.0"}}, {"uniqueid": "MTK1255:3UJ1CZ6IZIW3CKRPF6O0NWMFE5QS5O", "current_trial": 203, "dateTime": 1513475620285, "trialdata": {"rt": -1, "stimulus": "<p id=\"stim\">9</p>", "key_press": -1, "trial_type": "single-stim", "trial_index": 203, "time_elapsed": 933613, "internal_node_id": "0.0-148.0-1.0"}}, {"uniqueid": "MTK1255:3UJ1CZ6IZIW3CKRPF6O0NWMFE5QS5O", "current_trial": 204, "dateTime": 1513475621289, "trialdata": {"rt": -1, "stimulus": "<p id=\"stim\">8</p>", "key_press": -1, "trial_type": "single-stim", "trial_index": 204, "time_elapsed": 934617, "internal_node_id": "0.0-148.0-2.0"}}, {"uniqueid": "MTK1255:3UJ1CZ6IZIW3CKRPF6O0NWMFE5QS5O", "current_trial": 205, "dateTime": 1513475622293, "trialdata": {"rt": -1, "stimulus": "<p id=\"stim\">7</p>", "key_press": -1, "trial_type": "single-stim", "trial_index": 205, "time_elapsed": 935621, "internal_node_id": "0.0-148.0-3.0"}}, {"uniqueid": "MTK1255:3UJ1CZ6IZIW3CKRPF6O0NWMFE5QS5O", "current_trial": 206, "dateTime": 1513475623297, "trialdata": {"rt": -1, "stimulus": "<p id=\"stim\">6</p>", "key_press": -1, "trial_type": "single-stim", "trial_index": 206, "time_elapsed": 936625, "internal_node_id": "0.0-148.0-4.0"}}, {"uniqueid": "MTK1255:3UJ1CZ6IZIW3CKRPF6O0NWMFE5QS5O", "current_trial": 207, "dateTime": 1513475624301, "trialdata": {"rt": -1, "stimulus": "<p id=\"stim\">5</p>", "key_press": -1, "trial_type": "single-stim", "trial_index": 207, "time_elapsed": 937629, "internal_node_id": "0.0-148.0-5.0"}}, {"uniqueid": "MTK1255:3UJ1CZ6IZIW3CKRPF6O0NWMFE5QS5O", "current_trial": 208, "dateTime": 1513475625305, "trialdata": {"rt": -1, "stimulus": "<p id=\"stim\">4</p>", "key_press": -1, "trial_type": "single-stim", "trial_index": 208, "time_elapsed": 938633, "internal_node_id": "0.0-148.0-6.0"}}, {"uniqueid": "MTK1255:3UJ1CZ6IZIW3CKRPF6O0NWMFE5QS5O", "current_trial": 209, "dateTime": 1513475626310, "trialdata": {"rt": -1, "stimulus": "<p id=\"stim\">3</p>", "key_press": -1, "trial_type": "single-stim", "trial_index": 209, "time_elapsed": 939637, "internal_node_id": "0.0-148.0-7.0"}}, {"uniqueid": "MTK1255:3UJ1CZ6IZIW3CKRPF6O0NWMFE5QS5O", "current_trial": 210, "dateTime": 1513475627313, "trialdata": {"rt": -1, "stimulus": "<p id=\"stim\">2</p>", "key_press": -1, "trial_type": "single-stim", "trial_index": 210, "time_elapsed": 940641, "internal_node_id": "0.0-148.0-8.0"}}, {"uniqueid": "MTK1255:3UJ1CZ6IZIW3CKRPF6O0NWMFE5QS5O", "current_trial": 211, "dateTime": 1513475628318, "trialdata": {"rt": -1, "stimulus": "<p id=\"stim\">1</p>", "key_press": -1, "trial_type": "single-stim", "trial_index": 211, "time_elapsed": 941646, "internal_node_id": "0.0-148.0-9.0"}}, {"uniqueid": "MTK1255:3UJ1CZ6IZIW3CKRPF6O0NWMFE5QS5O", "current_trial": 212, "dateTime": 1513475629821, "trialdata": {"rt": -1, "stimulus": "<p id=\"stim\">+</p>", "key_press": -1, "type": "FIXATION", "trial_type": "single-stim", "trial_index": 212, "time_elapsed": 943149, "internal_node_id": "0.0-149.0-0.0"}}, {"uniqueid": "MTK1255:3UJ1CZ6IZIW3CKRPF6O0NWMFE5QS5O", "current_trial": 213, "dateTime": 1513475632378, "trialdata": {"rt": -1000, "stimulus": "/static/audio/wordpool/CHAMPAGNE.wav", "key_press": -1, "type": "PRES_AUD", "word": "champagne", "wordID": 277, "conditions": [12, 1600, "a", 12000], "trial": 6, "serialpos": 0, "trial_type": "single-audio", "trial_index": 213, "time_elapsed": 945706, "internal_node_id": "0.0-150.0"}}, {"uniqueid": "MTK1255:3UJ1CZ6IZIW3CKRPF6O0NWMFE5QS5O", "current_trial": 214, "dateTime": 1513475634993, "trialdata": {"rt": -1000, "stimulus": "/static/audio/wordpool/FLASK.wav", "key_press": -1, "type": "PRES_AUD", "word": "flask", "wordID": 575, "conditions": [12, 1600, "a", 12000], "trial": 6, "serialpos": 1, "trial_type": "single-audio", "trial_index": 214, "time_elapsed": 948321, "internal_node_id": "0.0-151.0"}}, {"uniqueid": "MTK1255:3UJ1CZ6IZIW3CKRPF6O0NWMFE5QS5O", "current_trial": 215, "dateTime": 1513475637628, "trialdata": {"rt": -1000, "stimulus": "/static/audio/wordpool/PEACH.wav", "key_press": -1, "type": "PRES_AUD", "word": "peach", "wordID": 1030, "conditions": [12, 1600, "a", 12000], "trial": 6, "serialpos": 2, "trial_type": "single-audio", "trial_index": 215, "time_elapsed": 950956, "internal_node_id": "0.0-152.0"}}, {"uniqueid": "MTK1255:3UJ1CZ6IZIW3CKRPF6O0NWMFE5QS5O", "current_trial": 216, "dateTime": 1513475640234, "trialdata": {"rt": -1000, "stimulus": "/static/audio/wordpool/MARINE.wav", "key_press": -1, "type": "PRES_AUD", "word": "marine", "wordID": 868, "conditions": [12, 1600, "a", 12000], "trial": 6, "serialpos": 3, "trial_type": "single-audio", "trial_index": 216, "time_elapsed": 953562, "internal_node_id": "0.0-153.0"}}, {"uniqueid": "MTK1255:3UJ1CZ6IZIW3CKRPF6O0NWMFE5QS5O", "current_trial": 217, "dateTime": 1513475642805, "trialdata": {"rt": -1000, "stimulus": "/static/audio/wordpool/GOBLIN.wav", "key_press": -1, "type": "PRES_AUD", "word": "goblin", "wordID": 644, "conditions": [12, 1600, "a", 12000], "trial": 6, "serialpos": 4, "trial_type": "single-audio", "trial_index": 217, "time_elapsed": 956133, "internal_node_id": "0.0-154.0"}}, {"uniqueid": "MTK1255:3UJ1CZ6IZIW3CKRPF6O0NWMFE5QS5O", "current_trial": 218, "dateTime": 1513475645446, "trialdata": {"rt": -1000, "stimulus": "/static/audio/wordpool/SUNSET.wav", "key_press": -1, "type": "PRES_AUD", "word": "sunset", "wordID": 1407, "conditions": [12, 1600, "a", 12000], "trial": 6, "serialpos": 5, "trial_type": "single-audio", "trial_index": 218, "time_elapsed": 958774, "internal_node_id": "0.0-155.0"}}, {"uniqueid": "MTK1255:3UJ1CZ6IZIW3CKRPF6O0NWMFE5QS5O", "current_trial": 219, "dateTime": 1513475647953, "trialdata": {"rt": -1000, "stimulus": "/static/audio/wordpool/SPIDER.wav", "key_press": -1, "type": "PRES_AUD", "word": "spider", "wordID": 1350, "conditions": [12, 1600, "a", 12000], "trial": 6, "serialpos": 6, "trial_type": "single-audio", "trial_index": 219, "time_elapsed": 961281, "internal_node_id": "0.0-156.0"}}, {"uniqueid": "MTK1255:3UJ1CZ6IZIW3CKRPF6O0NWMFE5QS5O", "current_trial": 220, "dateTime": 1513475650495, "trialdata": {"rt": -1000, "stimulus": "/static/audio/wordpool/LIZARD.wav", "key_press": -1, "type": "PRES_AUD", "word": "lizard", "wordID": 833, "conditions": [12, 1600, "a", 12000], "trial": 6, "serialpos": 7, "trial_type": "single-audio", "trial_index": 220, "time_elapsed": 963823, "internal_node_id": "0.0-157.0"}}, {"uniqueid": "MTK1255:3UJ1CZ6IZIW3CKRPF6O0NWMFE5QS5O", "current_trial": 221, "dateTime": 1513475652968, "trialdata": {"rt": -1000, "stimulus": "/static/audio/wordpool/BEAKER.wav", "key_press": -1, "type": "PRES_AUD", "word": "beaker", "wordID": 103, "conditions": [12, 1600, "a", 12000], "trial": 6, "serialpos": 8, "trial_type": "single-audio", "trial_index": 221, "time_elapsed": 966296, "internal_node_id": "0.0-158.0"}}, {"uniqueid": "MTK1255:3UJ1CZ6IZIW3CKRPF6O0NWMFE5QS5O", "current_trial": 222, "dateTime": 1513475655519, "trialdata": {"rt": -1000, "stimulus": "/static/audio/wordpool/WIFE.wav", "key_press": -1, "type": "PRES_AUD", "word": "wife", "wordID": 1608, "conditions": [12, 1600, "a", 12000], "trial": 6, "serialpos": 9, "trial_type": "single-audio", "trial_index": 222, "time_elapsed": 968847, "internal_node_id": "0.0-159.0"}}, {"uniqueid": "MTK1255:3UJ1CZ6IZIW3CKRPF6O0NWMFE5QS5O", "current_trial": 223, "dateTime": 1513475657926, "trialdata": {"rt": -1000, "stimulus": "/static/audio/wordpool/PARTNER.wav", "key_press": -1, "type": "PRES_AUD", "word": "partner", "wordID": 1016, "conditions": [12, 1600, "a", 12000], "trial": 6, "serialpos": 10, "trial_type": "single-audio", "trial_index": 223, "time_elapsed": 971254, "internal_node_id": "0.0-160.0"}}, {"uniqueid": "MTK1255:3UJ1CZ6IZIW3CKRPF6O0NWMFE5QS5O", "current_trial": 224, "dateTime": 1513475660450, "trialdata": {"rt": -1000, "stimulus": "/static/audio/wordpool/PADDING.wav", "key_press": -1, "type": "PRES_AUD", "word": "padding", "wordID": 998, "conditions": [12, 1600, "a", 12000], "trial": 6, "serialpos": 11, "trial_type": "single-audio", "trial_index": 224, "time_elapsed": 973778, "internal_node_id": "0.0-161.0"}}, {"uniqueid": "MTK1255:3UJ1CZ6IZIW3CKRPF6O0NWMFE5QS5O", "current_trial": 225, "dateTime": 1513475661814, "trialdata": {"rt": -1, "stimulus": "", "key_press": -1, "type": "PRE_RECALL_DELAY", "trial_type": "single-stim", "trial_index": 225, "time_elapsed": 975142, "internal_node_id": "0.0-162.0-0.0"}}, {"uniqueid": "MTK1255:3UJ1CZ6IZIW3CKRPF6O0NWMFE5QS5O", "current_trial": 226, "dateTime": 1513475662315, "trialdata": {"rt": -1000, "stimulus": "/static/audio/400Hz.wav", "key_press": -1, "type": "PRE_RECALL_ALERT", "trial_type": "single-audio", "trial_index": 226, "time_elapsed": 975643, "internal_node_id": "0.0-163.0"}}, {"uniqueid": "MTK1255:3UJ1CZ6IZIW3CKRPF6O0NWMFE5QS5O", "current_trial": 227, "dateTime": 1513475722325, "trialdata": {"rt": [4765, 6385, 8028, 9918, 11425, 13225, 15419, 16870, 24397, 26050, 29741], "recwords": ["partner", "wife", "padding", "champagne", "sunset", "flask", "peach", "beaker", "glass", "flask", ""], "type": "FREE_RECALL", "conditions": [12, 1600, "a", 12000], "trial": 6, "trial_type": "free-recall", "trial_index": 227, "time_elapsed": 1035652, "internal_node_id": "0.0-164.0-0.0"}}, {"uniqueid": "MTK1255:3UJ1CZ6IZIW3CKRPF6O0NWMFE5QS5O", "current_trial": 228, "dateTime": 1513475725244, "trialdata": {"rt": 916, "key_press": 32, "type": "INSTRUCTIONS", "trial_type": "text", "trial_index": 228, "time_elapsed": 1038572, "internal_node_id": "0.0-165.0"}}, {"uniqueid": "MTK1255:3UJ1CZ6IZIW3CKRPF6O0NWMFE5QS5O", "current_trial": 229, "dateTime": 1513475751254, "trialdata": {"rt": [2958, 5095, 6906, 9764, 11665, 14298, 16671, 19855], "responses": ["17", "16", "14", "13", "8", "23", "12", "10"], "num1": [7, 1, 8, 5, 3, 2, 3, 1, 8], "num2": [9, 7, 2, 6, 3, 7, 2, 6, 9], "num3": [1, 8, 4, 2, 2, 8, 7, 3, 6], "type": "DISTRACTOR", "conditions": [24, 1600, "v", 24000], "trial": 7, "trial_type": "math-distractor", "trial_index": 229, "time_elapsed": 1064582, "internal_node_id": "0.0-166.0"}}, {"uniqueid": "MTK1255:3UJ1CZ6IZIW3CKRPF6O0NWMFE5QS5O", "current_trial": 230, "dateTime": 1513475754261, "trialdata": {"rt": -1, "stimulus": "<p id=\"stim\">10</p>", "key_press": -1, "trial_type": "single-stim", "trial_index": 230, "time_elapsed": 1067589, "internal_node_id": "0.0-167.0-0.0"}}, {"uniqueid": "MTK1255:3UJ1CZ6IZIW3CKRPF6O0NWMFE5QS5O", "current_trial": 231, "dateTime": 1513475755265, "trialdata": {"rt": -1, "stimulus": "<p id=\"stim\">9</p>", "key_press": -1, "trial_type": "single-stim", "trial_index": 231, "time_elapsed": 1068593, "internal_node_id": "0.0-167.0-1.0"}}, {"uniqueid": "MTK1255:3UJ1CZ6IZIW3CKRPF6O0NWMFE5QS5O", "current_trial": 232, "dateTime": 1513475756269, "trialdata": {"rt": -1, "stimulus": "<p id=\"stim\">8</p>", "key_press": -1, "trial_type": "single-stim", "trial_index": 232, "time_elapsed": 1069597, "internal_node_id": "0.0-167.0-2.0"}}, {"uniqueid": "MTK1255:3UJ1CZ6IZIW3CKRPF6O0NWMFE5QS5O", "current_trial": 233, "dateTime": 1513475757274, "trialdata": {"rt": -1, "stimulus": "<p id=\"stim\">7</p>", "key_press": -1, "trial_type": "single-stim", "trial_index": 233, "time_elapsed": 1070601, "internal_node_id": "0.0-167.0-3.0"}}, {"uniqueid": "MTK1255:3UJ1CZ6IZIW3CKRPF6O0NWMFE5QS5O", "current_trial": 234, "dateTime": 1513475758277, "trialdata": {"rt": -1, "stimulus": "<p id=\"stim\">6</p>", "key_press": -1, "trial_type": "single-stim", "trial_index": 234, "time_elapsed": 1071605, "internal_node_id": "0.0-167.0-4.0"}}, {"uniqueid": "MTK1255:3UJ1CZ6IZIW3CKRPF6O0NWMFE5QS5O", "current_trial": 235, "dateTime": 1513475759281, "trialdata": {"rt": -1, "stimulus": "<p id=\"stim\">5</p>", "key_press": -1, "trial_type": "single-stim", "trial_index": 235, "time_elapsed": 1072609, "internal_node_id": "0.0-167.0-5.0"}}, {"uniqueid": "MTK1255:3UJ1CZ6IZIW3CKRPF6O0NWMFE5QS5O", "current_trial": 236, "dateTime": 1513475760286, "trialdata": {"rt": -1, "stimulus": "<p id=\"stim\">4</p>", "key_press": -1, "trial_type": "single-stim", "trial_index": 236, "time_elapsed": 1073614, "internal_node_id": "0.0-167.0-6.0"}}, {"uniqueid": "MTK1255:3UJ1CZ6IZIW3CKRPF6O0NWMFE5QS5O", "current_trial": 237, "dateTime": 1513475761290, "trialdata": {"rt": -1, "stimulus": "<p id=\"stim\">3</p>", "key_press": -1, "trial_type": "single-stim", "trial_index": 237, "time_elapsed": 1074618, "internal_node_id": "0.0-167.0-7.0"}}, {"uniqueid": "MTK1255:3UJ1CZ6IZIW3CKRPF6O0NWMFE5QS5O", "current_trial": 238, "dateTime": 1513475762293, "trialdata": {"rt": -1, "stimulus": "<p id=\"stim\">2</p>", "key_press": -1, "trial_type": "single-stim", "trial_index": 238, "time_elapsed": 1075621, "internal_node_id": "0.0-167.0-8.0"}}, {"uniqueid": "MTK1255:3UJ1CZ6IZIW3CKRPF6O0NWMFE5QS5O", "current_trial": 239, "dateTime": 1513475763298, "trialdata": {"rt": -1, "stimulus": "<p id=\"stim\">1</p>", "key_press": -1, "trial_type": "single-stim", "trial_index": 239, "time_elapsed": 1076626, "internal_node_id": "0.0-167.0-9.0"}}, {"uniqueid": "MTK1255:3UJ1CZ6IZIW3CKRPF6O0NWMFE5QS5O", "current_trial": 240, "dateTime": 1513475764801, "trialdata": {"rt": -1, "stimulus": "<p id=\"stim\">+</p>", "key_press": -1, "type": "FIXATION", "trial_type": "single-stim", "trial_index": 240, "time_elapsed": 1078129, "internal_node_id": "0.0-168.0-0.0"}}, {"uniqueid": "MTK1255:3UJ1CZ6IZIW3CKRPF6O0NWMFE5QS5O", "current_trial": 241, "dateTime": 1513475766407, "trialdata": {"rt": -1, "stimulus": "<p id=\"stim\">CARROT</p>", "key_press": -1, "type": "PRES_VIS", "word": "carrot", "wordID": 248, "conditions": [24, 1600, "v", 24000], "trial": 7, "serialpos": 0, "trial_type": "single-stim", "trial_index": 241, "time_elapsed": 1079735, "internal_node_id": "0.0-169.0"}}, {"uniqueid": "MTK1255:3UJ1CZ6IZIW3CKRPF6O0NWMFE5QS5O", "current_trial": 242, "dateTime": 1513475769048, "trialdata": {"rt": -1, "stimulus": "<p id=\"stim\">COMPASS</p>", "key_press": -1, "type": "PRES_VIS", "word": "compass", "wordID": 357, "conditions": [24, 1600, "v", 24000], "trial": 7, "serialpos": 1, "trial_type": "single-stim", "trial_index": 242, "time_elapsed": 1082376, "internal_node_id": "0.0-170.0"}}, {"uniqueid": "MTK1255:3UJ1CZ6IZIW3CKRPF6O0NWMFE5QS5O", "current_trial": 243, "dateTime": 1513475771668, "trialdata": {"rt": -1, "stimulus": "<p id=\"stim\">TWEEZERS</p>", "key_press": -1, "type": "PRES_VIS", "word": "tweezers", "wordID": 1525, "conditions": [24, 1600, "v", 24000], "trial": 7, "serialpos": 2, "trial_type": "single-stim", "trial_index": 243, "time_elapsed": 1084995, "internal_node_id": "0.0-171.0"}}, {"uniqueid": "MTK1255:3UJ1CZ6IZIW3CKRPF6O0NWMFE5QS5O", "current_trial": 244, "dateTime": 1513475774152, "trialdata": {"rt": -1, "stimulus": "<p id=\"stim\">PRIMATE</p>", "key_press": -1, "type": "PRES_VIS", "word": "primate", "wordID": 1122, "conditions": [24, 1600, "v", 24000], "trial": 7, "serialpos": 3, "trial_type": "single-stim", "trial_index": 244, "time_elapsed": 1087480, "internal_node_id": "0.0-172.0"}}, {"uniqueid": "MTK1255:3UJ1CZ6IZIW3CKRPF6O0NWMFE5QS5O", "current_trial": 245, "dateTime": 1513475776613, "trialdata": {"rt": -1, "stimulus": "<p id=\"stim\">MAMMAL</p>", "key_press": -1, "type": "PRES_VIS", "word": "mammal", "wordID": 860, "conditions": [24, 1600, "v", 24000], "trial": 7, "serialpos": 4, "trial_type": "single-stim", "trial_index": 245, "time_elapsed": 1089941, "internal_node_id": "0.0-173.0"}}, {"uniqueid": "MTK1255:3UJ1CZ6IZIW3CKRPF6O0NWMFE5QS5O", "current_trial": 246, "dateTime": 1513475779056, "trialdata": {"rt": -1, "stimulus": "<p id=\"stim\">BEAST</p>", "key_press": -1, "type": "PRES_VIS", "word": "beast", "wordID": 107, "conditions": [24, 1600, "v", 24000], "trial": 7, "serialpos": 5, "trial_type": "single-stim", "trial_index": 246, "time_elapsed": 1092384, "internal_node_id": "0.0-174.0"}}, {"uniqueid": "MTK1255:3UJ1CZ6IZIW3CKRPF6O0NWMFE5QS5O", "current_trial": 247, "dateTime": 1513475781778, "trialdata": {"rt": -1, "stimulus": "<p id=\"stim\">NECKLACE</p>", "key_press": -1, "type": "PRES_VIS", "word": "necklace", "wordID": 939, "conditions": [24, 1600, "v", 24000], "trial": 7, "serialpos": 6, "trial_type": "single-stim", "trial_index": 247, "time_elapsed": 1095106, "internal_node_id": "0.0-175.0"}}, {"uniqueid": "MTK1255:3UJ1CZ6IZIW3CKRPF6O0NWMFE5QS5O", "current_trial": 248, "dateTime": 1513475784356, "trialdata": {"rt": -1, "stimulus": "<p id=\"stim\">TWISTER</p>", "key_press": -1, "type": "PRES_VIS", "word": "twister", "wordID": 1529, "conditions": [24, 1600, "v", 24000], "trial": 7, "serialpos": 7, "trial_type": "single-stim", "trial_index": 248, "time_elapsed": 1097684, "internal_node_id": "0.0-176.0"}}, {"uniqueid": "MTK1255:3UJ1CZ6IZIW3CKRPF6O0NWMFE5QS5O", "current_trial": 249, "dateTime": 1513475787128, "trialdata": {"rt": -1, "stimulus": "<p id=\"stim\">CREATURE</p>", "key_press": -1, "type": "PRES_VIS", "word": "creature", "wordID": 402, "conditions": [24, 1600, "v", 24000], "trial": 7, "serialpos": 8, "trial_type": "single-stim", "trial_index": 249, "time_elapsed": 1100456, "internal_node_id": "0.0-177.0"}}, {"uniqueid": "MTK1255:3UJ1CZ6IZIW3CKRPF6O0NWMFE5QS5O", "current_trial": 250, "dateTime": 1513475789777, "trialdata": {"rt": -1, "stimulus": "<p id=\"stim\">COSTUME</p>", "key_press": -1, "type": "PRES_VIS", "word": "costume", "wordID": 382, "conditions": [24, 1600, "v", 24000], "trial": 7, "serialpos": 9, "trial_type": "single-stim", "trial_index": 250, "time_elapsed": 1103105, "internal_node_id": "0.0-178.0"}}, {"uniqueid": "MTK1255:3UJ1CZ6IZIW3CKRPF6O0NWMFE5QS5O", "current_trial": 251, "dateTime": 1513475792220, "trialdata": {"rt": -1, "stimulus": "<p id=\"stim\">FEMALE</p>", "key_press": -1, "type": "PRES_VIS", "word": "female", "wordID": 558, "conditions": [24, 1600, "v", 24000], "trial": 7, "serialpos": 10, "trial_type": "single-stim", "trial_index": 251, "time_elapsed": 1105548, "internal_node_id": "0.0-179.0"}}, {"uniqueid": "MTK1255:3UJ1CZ6IZIW3CKRPF6O0NWMFE5QS5O", "current_trial": 252, "dateTime": 1513475794757, "trialdata": {"rt": -1, "stimulus": "<p id=\"stim\">CHURCH</p>", "key_press": -1, "type": "PRES_VIS", "word": "church", "wordID": 306, "conditions": [24, 1600, "v", 24000], "trial": 7, "serialpos": 11, "trial_type": "single-stim", "trial_index": 252, "time_elapsed": 1108085, "internal_node_id": "0.0-180.0"}}, {"uniqueid": "MTK1255:3UJ1CZ6IZIW3CKRPF6O0NWMFE5QS5O", "current_trial": 253, "dateTime": 1513475797217, "trialdata": {"rt": -1, "stimulus": "<p id=\"stim\">SUSPECT</p>", "key_press": -1, "type": "PRES_VIS", "word": "suspect", "wordID": 1414, "conditions": [24, 1600, "v", 24000], "trial": 7, "serialpos": 12, "trial_type": "single-stim", "trial_index": 253, "time_elapsed": 1110545, "internal_node_id": "0.0-181.0"}}, {"uniqueid": "MTK1255:3UJ1CZ6IZIW3CKRPF6O0NWMFE5QS5O", "current_trial": 254, "dateTime": 1513475799679, "trialdata": {"rt": -1, "stimulus": "<p id=\"stim\">PLATE</p>", "key_press": -1, "type": "PRES_VIS", "word": "plate", "wordID": 1085, "conditions": [24, 1600, "v", 24000], "trial": 7, "serialpos": 13, "trial_type": "single-stim", "trial_index": 254, "time_elapsed": 1113006, "internal_node_id": "0.0-182.0"}}, {"uniqueid": "MTK1255:3UJ1CZ6IZIW3CKRPF6O0NWMFE5QS5O", "current_trial": 255, "dateTime": 1513475802320, "trialdata": {"rt": -1, "stimulus": "<p id=\"stim\">BLACKBOARD</p>", "key_press": -1, "type": "PRES_VIS", "word": "blackboard", "wordID": 132, "conditions": [24, 1600, "v", 24000], "trial": 7, "serialpos": 14, "trial_type": "single-stim", "trial_index": 255, "time_elapsed": 1115648, "internal_node_id": "0.0-183.0"}}, {"uniqueid": "MTK1255:3UJ1CZ6IZIW3CKRPF6O0NWMFE5QS5O", "current_trial": 256, "dateTime": 1513475804731, "trialdata": {"rt": -1, "stimulus": "<p id=\"stim\">DINER</p>", "key_press": -1, "type": "PRES_VIS", "word": "diner", "wordID": 466, "conditions": [24, 1600, "v", 24000], "trial": 7, "serialpos": 15, "trial_type": "single-stim", "trial_index": 256, "time_elapsed": 1118059, "internal_node_id": "0.0-184.0"}}, {"uniqueid": "MTK1255:3UJ1CZ6IZIW3CKRPF6O0NWMFE5QS5O", "current_trial": 257, "dateTime": 1513475807375, "trialdata": {"rt": -1, "stimulus": "<p id=\"stim\">VIRUS</p>", "key_press": -1, "type": "PRES_VIS", "word": "virus", "wordID": 1571, "conditions": [24, 1600, "v", 24000], "trial": 7, "serialpos": 16, "trial_type": "single-stim", "trial_index": 257, "time_elapsed": 1120703, "internal_node_id": "0.0-185.0"}}, {"uniqueid": "MTK1255:3UJ1CZ6IZIW3CKRPF6O0NWMFE5QS5O", "current_trial": 258, "dateTime": 1513475810165, "trialdata": {"rt": -1, "stimulus": "<p id=\"stim\">HAMPER</p>", "key_press": -1, "type": "PRES_VIS", "word": "hamper", "wordID": 681, "conditions": [24, 1600, "v", 24000], "trial": 7, "serialpos": 17, "trial_type": "single-stim", "trial_index": 258, "time_elapsed": 1123492, "internal_node_id": "0.0-186.0"}}, {"uniqueid": "MTK1255:3UJ1CZ6IZIW3CKRPF6O0NWMFE5QS5O", "current_trial": 259, "dateTime": 1513475812808, "trialdata": {"rt": -1, "stimulus": "<p id=\"stim\">CLAMP</p>", "key_press": -1, "type": "PRES_VIS", "word": "clamp", "wordID": 315, "conditions": [24, 1600, "v", 24000], "trial": 7, "serialpos": 18, "trial_type": "single-stim", "trial_index": 259, "time_elapsed": 1126136, "internal_node_id": "0.0-187.0"}}, {"uniqueid": "MTK1255:3UJ1CZ6IZIW3CKRPF6O0NWMFE5QS5O", "current_trial": 260, "dateTime": 1513475815577, "trialdata": {"rt": -1, "stimulus": "<p id=\"stim\">WAITRESS</p>", "key_press": -1, "type": "PRES_VIS", "word": "waitress", "wordID": 1580, "conditions": [24, 1600, "v", 24000], "trial": 7, "serialpos": 19, "trial_type": "single-stim", "trial_index": 260, "time_elapsed": 1128905, "internal_node_id": "0.0-188.0"}}, {"uniqueid": "MTK1255:3UJ1CZ6IZIW3CKRPF6O0NWMFE5QS5O", "current_trial": 261, "dateTime": 1513475818299, "trialdata": {"rt": -1, "stimulus": "<p id=\"stim\">VICTIM</p>", "key_press": -1, "type": "PRES_VIS", "word": "victim", "wordID": 1561, "conditions": [24, 1600, "v", 24000], "trial": 7, "serialpos": 20, "trial_type": "single-stim", "trial_index": 261, "time_elapsed": 1131627, "internal_node_id": "0.0-189.0"}}, {"uniqueid": "MTK1255:3UJ1CZ6IZIW3CKRPF6O0NWMFE5QS5O", "current_trial": 262, "dateTime": 1513475820714, "trialdata": {"rt": -1, "stimulus": "<p id=\"stim\">RECORD</p>", "key_press": -1, "type": "PRES_VIS", "word": "record", "wordID": 1175, "conditions": [24, 1600, "v", 24000], "trial": 7, "serialpos": 21, "trial_type": "single-stim", "trial_index": 262, "time_elapsed": 1134041, "internal_node_id": "0.0-190.0"}}, {"uniqueid": "MTK1255:3UJ1CZ6IZIW3CKRPF6O0NWMFE5QS5O", "current_trial": 263, "dateTime": 1513475823372, "trialdata": {"rt": -1, "stimulus": "<p id=\"stim\">PATROL</p>", "key_press": -1, "type": "PRES_VIS", "word": "patrol", "wordID": 1026, "conditions": [24, 1600, "v", 24000], "trial": 7, "serialpos": 22, "trial_type": "single-stim", "trial_index": 263, "time_elapsed": 1136700, "internal_node_id": "0.0-191.0"}}, {"uniqueid": "MTK1255:3UJ1CZ6IZIW3CKRPF6O0NWMFE5QS5O", "current_trial": 264, "dateTime": 1513475826100, "trialdata": {"rt": -1, "stimulus": "<p id=\"stim\">POLICE</p>", "key_press": -1, "type": "PRES_VIS", "word": "police", "wordID": 1097, "conditions": [24, 1600, "v", 24000], "trial": 7, "serialpos": 23, "trial_type": "single-stim", "trial_index": 264, "time_elapsed": 1139428, "internal_node_id": "0.0-192.0"}}, {"uniqueid": "MTK1255:3UJ1CZ6IZIW3CKRPF6O0NWMFE5QS5O", "current_trial": 265, "dateTime": 1513475828518, "trialdata": {"rt": -1, "stimulus": "", "key_press": -1, "type": "PRE_RECALL_DELAY", "trial_type": "single-stim", "trial_index": 265, "time_elapsed": 1141846, "internal_node_id": "0.0-193.0-0.0"}}, {"uniqueid": "MTK1255:3UJ1CZ6IZIW3CKRPF6O0NWMFE5QS5O", "current_trial": 266, "dateTime": 1513475829019, "trialdata": {"rt": -1000, "stimulus": "/static/audio/400Hz.wav", "key_press": -1, "type": "PRE_RECALL_ALERT", "trial_type": "single-audio", "trial_index": 266, "time_elapsed": 1142347, "internal_node_id": "0.0-194.0"}}, {"uniqueid": "MTK1255:3UJ1CZ6IZIW3CKRPF6O0NWMFE5QS5O", "current_trial": 267, "dateTime": 1513475889027, "trialdata": {"rt": [1739, 3472, 5351, 6914, 9007, 11865, 15262, 17579, 24993, 30517], "recwords": ["hamper", "clamp", "waitress", "police", "murder", "carrot", "tweezers", "compass", "record", ""], "type": "FREE_RECALL", "conditions": [24, 1600, "v", 24000], "trial": 7, "trial_type": "free-recall", "trial_index": 267, "time_elapsed": 1202353, "internal_node_id": "0.0-195.0-0.0"}}, {"uniqueid": "MTK1255:3UJ1CZ6IZIW3CKRPF6O0NWMFE5QS5O", "current_trial": 268, "dateTime": 1513475892534, "trialdata": {"rt": 1504, "key_press": 32, "type": "INSTRUCTIONS", "trial_type": "text", "trial_index": 268, "time_elapsed": 1205862, "internal_node_id": "0.0-196.0"}}, {"uniqueid": "MTK1255:3UJ1CZ6IZIW3CKRPF6O0NWMFE5QS5O", "current_trial": 269, "dateTime": 1513475906542, "trialdata": {"rt": [1688, 4050, 6559, 9158, 10935], "responses": ["12", "11", "9", "14", "9"], "num1": [2, 4, 4, 7, 1, 4], "num2": [5, 4, 2, 5, 7, 4], "num3": [5, 3, 3, 2, 1, 6], "type": "DISTRACTOR", "conditions": [24, 800, "v", 12000], "trial": 8, "trial_type": "math-distractor", "trial_index": 269, "time_elapsed": 1219870, "internal_node_id": "0.0-197.0"}}, {"uniqueid": "MTK1255:3UJ1CZ6IZIW3CKRPF6O0NWMFE5QS5O", "current_trial": 270, "dateTime": 1513475909551, "trialdata": {"rt": -1, "stimulus": "<p id=\"stim\">10</p>", "key_press": -1, "trial_type": "single-stim", "trial_index": 270, "time_elapsed": 1222879, "internal_node_id": "0.0-198.0-0.0"}}, {"uniqueid": "MTK1255:3UJ1CZ6IZIW3CKRPF6O0NWMFE5QS5O", "current_trial": 271, "dateTime": 1513475910556, "trialdata": {"rt": -1, "stimulus": "<p id=\"stim\">9</p>", "key_press": -1, "trial_type": "single-stim", "trial_index": 271, "time_elapsed": 1223884, "internal_node_id": "0.0-198.0-1.0"}}, {"uniqueid": "MTK1255:3UJ1CZ6IZIW3CKRPF6O0NWMFE5QS5O", "current_trial": 272, "dateTime": 1513475911560, "trialdata": {"rt": -1, "stimulus": "<p id=\"stim\">8