{"condition": 0, "counterbalance": 1076, "assignmentId": "3T3IWE1XG7UTK6N2OYHTVCDSCF0QTN", "workerId": "MTK1192", "hitId": "39N6W9XWRDUW1JUO56UEKV5L6G2YG0", "currenttrial": 626, "bonus": 0, "data": [{"uniqueid": "MTK1192:3T3IWE1XG7UTK6N2OYHTVCDSCF0QTN", "current_trial": 0, "dateTime": 1513291851076, "trialdata": {"rt": 2786, "key_press": 32, "type": "INSTRUCTIONS", "trial_type": "text", "trial_index": 0, "time_elapsed": 2789, "internal_node_id": "0.0-0.0"}}, {"uniqueid": "MTK1192:3T3IWE1XG7UTK6N2OYHTVCDSCF0QTN", "current_trial": 1, "dateTime": 1513291878365, "trialdata": {"rt": 27287, "key_press": 32, "type": "INSTRUCTIONS", "trial_type": "text", "trial_index": 1, "time_elapsed": 30079, "internal_node_id": "0.0-1.0"}}, {"uniqueid": "MTK1192:3T3IWE1XG7UTK6N2OYHTVCDSCF0QTN", "current_trial": 2, "dateTime": 1513291889036, "trialdata": {"rt": [10659], "responses": ["ocean"], "type": "AUDIO_TEST", "trial_type": "audio-test", "trial_index": 2, "time_elapsed": 40750, "internal_node_id": "0.0-2.0"}}, {"uniqueid": "MTK1192:3T3IWE1XG7UTK6N2OYHTVCDSCF0QTN", "current_trial": 3, "dateTime": 1513291896488, "trialdata": {"rt": [7445], "responses": ["crystal"], "type": "AUDIO_TEST", "trial_type": "audio-test", "trial_index": 3, "time_elapsed": 48202, "internal_node_id": "0.0-3.0"}}, {"uniqueid": "MTK1192:3T3IWE1XG7UTK6N2OYHTVCDSCF0QTN", "current_trial": 4, "dateTime": 1513291906210, "trialdata": {"rt": [9717], "responses": ["spice"], "type": "AUDIO_TEST", "trial_type": "audio-test", "trial_index": 4, "time_elapsed": 57924, "internal_node_id": "0.0-4.0"}}, {"uniqueid": "MTK1192:3T3IWE1XG7UTK6N2OYHTVCDSCF0QTN", "current_trial": 5, "dateTime": 1513291937488, "trialdata": {"rt": 30522, "responses": "{\"Q0\":\"3am\",\"Q1\":\"10am\",\"Q2\":\"5\"}", "type": "SLEEP_SURVEY", "trial_type": "survey-text", "trial_index": 5, "time_elapsed": 89202, "internal_node_id": "0.0-5.0"}}, {"uniqueid": "MTK1192:3T3IWE1XG7UTK6N2OYHTVCDSCF0QTN", "current_trial": 6, "dateTime": 1513291978495, "trialdata": {"rt": 40001, "key_press": 32, "type": "INSTRUCTIONS", "trial_type": "text", "trial_index": 6, "time_elapsed": 130209, "internal_node_id": "0.0-6.0"}}, {"uniqueid": "MTK1192:3T3IWE1XG7UTK6N2OYHTVCDSCF0QTN", "current_trial": 7, "dateTime": 1513292005211, "trialdata": {"rt": 26212, "key_press": 32, "type": "INSTRUCTIONS", "trial_type": "text", "trial_index": 7, "time_elapsed": 156925, "internal_node_id": "0.0-7.0"}}, {"uniqueid": "MTK1192:3T3IWE1XG7UTK6N2OYHTVCDSCF0QTN", "current_trial": 8, "dateTime": 1513292098672, "trialdata": {"rt": 92959, "key_press": 32, "type": "INSTRUCTIONS", "trial_type": "text", "trial_index": 8, "time_elapsed": 250386, "internal_node_id": "0.0-8.0"}}, {"uniqueid": "MTK1192:3T3IWE1XG7UTK6N2OYHTVCDSCF0QTN", "current_trial": 9, "dateTime": 1513292117681, "trialdata": {"rt": [6144, 9486, 13549, 16133], "responses": ["10", "11", "18", "14"], "num1": [1, 6, 4, 8, 6], "num2": [3, 3, 5, 2, 1], "num3": [6, 2, 9, 4, 3], "type": "DISTRACTOR", "conditions": [18, 1200, "v", 18000], "trial": 0, "trial_type": "math-distractor", "trial_index": 9, "time_elapsed": 269395, "internal_node_id": "0.0-9.0"}}, {"uniqueid": "MTK1192:3T3IWE1XG7UTK6N2OYHTVCDSCF0QTN", "current_trial": 10, "dateTime": 1513292120687, "trialdata": {"rt": -1, "stimulus": "<p id=\"stim\">10</p>", "key_press": -1, "trial_type": "single-stim", "trial_index": 10, "time_elapsed": 272401, "internal_node_id": "0.0-10.0-0.0"}}, {"uniqueid": "MTK1192:3T3IWE1XG7UTK6N2OYHTVCDSCF0QTN", "current_trial": 11, "dateTime": 1513292121691, "trialdata": {"rt": -1, "stimulus": "<p id=\"stim\">9</p>", "key_press": -1, "trial_type": "single-stim", "trial_index": 11, "time_elapsed": 273405, "internal_node_id": "0.0-10.0-1.0"}}, {"uniqueid": "MTK1192:3T3IWE1XG7UTK6N2OYHTVCDSCF0QTN", "current_trial": 12, "dateTime": 1513292122695, "trialdata": {"rt": -1, "stimulus": "<p id=\"stim\">8</p>", "key_press": -1, "trial_type": "single-stim", "trial_index": 12, "time_elapsed": 274409, "internal_node_id": "0.0-10.0-2.0"}}, {"uniqueid": "MTK1192:3T3IWE1XG7UTK6N2OYHTVCDSCF0QTN", "current_trial": 13, "dateTime": 1513292123699, "trialdata": {"rt": -1, "stimulus": "<p id=\"stim\">7</p>", "key_press": -1, "trial_type": "single-stim", "trial_index": 13, "time_elapsed": 275413, "internal_node_id": "0.0-10.0-3.0"}}, {"uniqueid": "MTK1192:3T3IWE1XG7UTK6N2OYHTVCDSCF0QTN", "current_trial": 14, "dateTime": 1513292124704, "trialdata": {"rt": -1, "stimulus": "<p id=\"stim\">6</p>", "key_press": -1, "trial_type": "single-stim", "trial_index": 14, "time_elapsed": 276418, "internal_node_id": "0.0-10.0-4.0"}}, {"uniqueid": "MTK1192:3T3IWE1XG7UTK6N2OYHTVCDSCF0QTN", "current_trial": 15, "dateTime": 1513292125706, "trialdata": {"rt": -1, "stimulus": "<p id=\"stim\">5</p>", "key_press": -1, "trial_type": "single-stim", "trial_index": 15, "time_elapsed": 277420, "internal_node_id": "0.0-10.0-5.0"}}, {"uniqueid": "MTK1192:3T3IWE1XG7UTK6N2OYHTVCDSCF0QTN", "current_trial": 16, "dateTime": 1513292126711, "trialdata": {"rt": -1, "stimulus": "<p id=\"stim\">4</p>", "key_press": -1, "trial_type": "single-stim", "trial_index": 16, "time_elapsed": 278425, "internal_node_id": "0.0-10.0-6.0"}}, {"uniqueid": "MTK1192:3T3IWE1XG7UTK6N2OYHTVCDSCF0QTN", "current_trial": 17, "dateTime": 1513292127716, "trialdata": {"rt": -1, "stimulus": "<p id=\"stim\">3</p>", "key_press": -1, "trial_type": "single-stim", "trial_index": 17, "time_elapsed": 279430, "internal_node_id": "0.0-10.0-7.0"}}, {"uniqueid": "MTK1192:3T3IWE1XG7UTK6N2OYHTVCDSCF0QTN", "current_trial": 18, "dateTime": 1513292128720, "trialdata": {"rt": -1, "stimulus": "<p id=\"stim\">2</p>", "key_press": -1, "trial_type": "single-stim", "trial_index": 18, "time_elapsed": 280434, "internal_node_id": "0.0-10.0-8.0"}}, {"uniqueid": "MTK1192:3T3IWE1XG7UTK6N2OYHTVCDSCF0QTN", "current_trial": 19, "dateTime": 1513292129724, "trialdata": {"rt": -1, "stimulus": "<p id=\"stim\">1</p>", "key_press": -1, "trial_type": "single-stim", "trial_index": 19, "time_elapsed": 281438, "internal_node_id": "0.0-10.0-9.0"}}, {"uniqueid": "MTK1192:3T3IWE1XG7UTK6N2OYHTVCDSCF0QTN", "current_trial": 20, "dateTime": 1513292131228, "trialdata": {"rt": -1, "stimulus": "<p id=\"stim\">+</p>", "key_press": -1, "type": "FIXATION", "trial_type": "single-stim", "trial_index": 20, "time_elapsed": 282941, "internal_node_id": "0.0-11.0-0.0"}}, {"uniqueid": "MTK1192:3T3IWE1XG7UTK6N2OYHTVCDSCF0QTN", "current_trial": 21, "dateTime": 1513292132429, "trialdata": {"rt": -1, "stimulus": "<p id=\"stim\">CRAB</p>", "key_press": -1, "type": "PRES_VIS", "word": "crab", "wordID": 396, "conditions": [18, 1200, "v", 18000], "trial": 0, "serialpos": 0, "trial_type": "single-stim", "trial_index": 21, "time_elapsed": 284143, "internal_node_id": "0.0-12.0"}}, {"uniqueid": "MTK1192:3T3IWE1XG7UTK6N2OYHTVCDSCF0QTN", "current_trial": 22, "dateTime": 1513292134547, "trialdata": {"rt": -1, "stimulus": "<p id=\"stim\">TRANSPLANT</p>", "key_press": -1, "type": "PRES_VIS", "word": "transplant", "wordID": 1495, "conditions": [18, 1200, "v", 18000], "trial": 0, "serialpos": 1, "trial_type": "single-stim", "trial_index": 22, "time_elapsed": 286261, "internal_node_id": "0.0-13.0"}}, {"uniqueid": "MTK1192:3T3IWE1XG7UTK6N2OYHTVCDSCF0QTN", "current_trial": 23, "dateTime": 1513292136701, "trialdata": {"rt": -1, "stimulus": "<p id=\"stim\">QUEEN</p>", "key_press": -1, "type": "PRES_VIS", "word": "queen", "wordID": 1148, "conditions": [18, 1200, "v", 18000], "trial": 0, "serialpos": 2, "trial_type": "single-stim", "trial_index": 23, "time_elapsed": 288415, "internal_node_id": "0.0-14.0"}}, {"uniqueid": "MTK1192:3T3IWE1XG7UTK6N2OYHTVCDSCF0QTN", "current_trial": 24, "dateTime": 1513292139022, "trialdata": {"rt": -1, "stimulus": "<p id=\"stim\">HOOD</p>", "key_press": -1, "type": "PRES_VIS", "word": "hood", "wordID": 713, "conditions": [18, 1200, "v", 18000], "trial": 0, "serialpos": 3, "trial_type": "single-stim", "trial_index": 24, "time_elapsed": 290736, "internal_node_id": "0.0-15.0"}}, {"uniqueid": "MTK1192:3T3IWE1XG7UTK6N2OYHTVCDSCF0QTN", "current_trial": 25, "dateTime": 1513292141083, "trialdata": {"rt": -1, "stimulus": "<p id=\"stim\">COIN</p>", "key_press": -1, "type": "PRES_VIS", "word": "coin", "wordID": 342, "conditions": [18, 1200, "v", 18000], "trial": 0, "serialpos": 4, "trial_type": "single-stim", "trial_index": 25, "time_elapsed": 292797, "internal_node_id": "0.0-16.0"}}, {"uniqueid": "MTK1192:3T3IWE1XG7UTK6N2OYHTVCDSCF0QTN", "current_trial": 26, "dateTime": 1513292143387, "trialdata": {"rt": -1, "stimulus": "<p id=\"stim\">VIRUS</p>", "key_press": -1, "type": "PRES_VIS", "word": "virus", "wordID": 1571, "conditions": [18, 1200, "v", 18000], "trial": 0, "serialpos": 5, "trial_type": "single-stim", "trial_index": 26, "time_elapsed": 295101, "internal_node_id": "0.0-17.0"}}, {"uniqueid": "MTK1192:3T3IWE1XG7UTK6N2OYHTVCDSCF0QTN", "current_trial": 27, "dateTime": 1513292145500, "trialdata": {"rt": -1, "stimulus": "<p id=\"stim\">TAXI</p>", "key_press": -1, "type": "PRES_VIS", "word": "taxi", "wordID": 1437, "conditions": [18, 1200, "v", 18000], "trial": 0, "serialpos": 6, "trial_type": "single-stim", "trial_index": 27, "time_elapsed": 297214, "internal_node_id": "0.0-18.0"}}, {"uniqueid": "MTK1192:3T3IWE1XG7UTK6N2OYHTVCDSCF0QTN", "current_trial": 28, "dateTime": 1513292147752, "trialdata": {"rt": -1, "stimulus": "<p id=\"stim\">TREAT</p>", "key_press": -1, "type": "PRES_VIS", "word": "treat", "wordID": 1500, "conditions": [18, 1200, "v", 18000], "trial": 0, "serialpos": 7, "trial_type": "single-stim", "trial_index": 28, "time_elapsed": 299466, "internal_node_id": "0.0-19.0"}}, {"uniqueid": "MTK1192:3T3IWE1XG7UTK6N2OYHTVCDSCF0QTN", "current_trial": 29, "dateTime": 1513292149830, "trialdata": {"rt": -1, "stimulus": "<p id=\"stim\">STATUE</p>", "key_press": -1, "type": "PRES_VIS", "word": "statue", "wordID": 1373, "conditions": [18, 1200, "v", 18000], "trial": 0, "serialpos": 8, "trial_type": "single-stim", "trial_index": 29, "time_elapsed": 301544, "internal_node_id": "0.0-20.0"}}, {"uniqueid": "MTK1192:3T3IWE1XG7UTK6N2OYHTVCDSCF0QTN", "current_trial": 30, "dateTime": 1513292152169, "trialdata": {"rt": -1, "stimulus": "<p id=\"stim\">KITCHEN</p>", "key_press": -1, "type": "PRES_VIS", "word": "kitchen", "wordID": 777, "conditions": [18, 1200, "v", 18000], "trial": 0, "serialpos": 9, "trial_type": "single-stim", "trial_index": 30, "time_elapsed": 303883, "internal_node_id": "0.0-21.0"}}, {"uniqueid": "MTK1192:3T3IWE1XG7UTK6N2OYHTVCDSCF0QTN", "current_trial": 31, "dateTime": 1513292154520, "trialdata": {"rt": -1, "stimulus": "<p id=\"stim\">QUARTER</p>", "key_press": -1, "type": "PRES_VIS", "word": "quarter", "wordID": 1147, "conditions": [18, 1200, "v", 18000], "trial": 0, "serialpos": 10, "trial_type": "single-stim", "trial_index": 31, "time_elapsed": 306233, "internal_node_id": "0.0-22.0"}}, {"uniqueid": "MTK1192:3T3IWE1XG7UTK6N2OYHTVCDSCF0QTN", "current_trial": 32, "dateTime": 1513292156754, "trialdata": {"rt": -1, "stimulus": "<p id=\"stim\">CLAM</p>", "key_press": -1, "type": "PRES_VIS", "word": "clam", "wordID": 314, "conditions": [18, 1200, "v", 18000], "trial": 0, "serialpos": 11, "trial_type": "single-stim", "trial_index": 32, "time_elapsed": 308468, "internal_node_id": "0.0-23.0"}}, {"uniqueid": "MTK1192:3T3IWE1XG7UTK6N2OYHTVCDSCF0QTN", "current_trial": 33, "dateTime": 1513292159082, "trialdata": {"rt": -1, "stimulus": "<p id=\"stim\">SWAMP</p>", "key_press": -1, "type": "PRES_VIS", "word": "swamp", "wordID": 1415, "conditions": [18, 1200, "v", 18000], "trial": 0, "serialpos": 12, "trial_type": "single-stim", "trial_index": 33, "time_elapsed": 310796, "internal_node_id": "0.0-24.0"}}, {"uniqueid": "MTK1192:3T3IWE1XG7UTK6N2OYHTVCDSCF0QTN", "current_trial": 34, "dateTime": 1513292161462, "trialdata": {"rt": -1, "stimulus": "<p id=\"stim\">BLENDER</p>", "key_press": -1, "type": "PRES_VIS", "word": "blender", "wordID": 135, "conditions": [18, 1200, "v", 18000], "trial": 0, "serialpos": 13, "trial_type": "single-stim", "trial_index": 34, "time_elapsed": 313175, "internal_node_id": "0.0-25.0"}}, {"uniqueid": "MTK1192:3T3IWE1XG7UTK6N2OYHTVCDSCF0QTN", "current_trial": 35, "dateTime": 1513292163475, "trialdata": {"rt": -1, "stimulus": "<p id=\"stim\">GLASS</p>", "key_press": -1, "type": "PRES_VIS", "word": "glass", "wordID": 638, "conditions": [18, 1200, "v", 18000], "trial": 0, "serialpos": 14, "trial_type": "single-stim", "trial_index": 35, "time_elapsed": 315189, "internal_node_id": "0.0-26.0"}}, {"uniqueid": "MTK1192:3T3IWE1XG7UTK6N2OYHTVCDSCF0QTN", "current_trial": 36, "dateTime": 1513292165484, "trialdata": {"rt": -1, "stimulus": "<p id=\"stim\">STALLION</p>", "key_press": -1, "type": "PRES_VIS", "word": "stallion", "wordID": 1368, "conditions": [18, 1200, "v", 18000], "trial": 0, "serialpos": 15, "trial_type": "single-stim", "trial_index": 36, "time_elapsed": 317198, "internal_node_id": "0.0-27.0"}}, {"uniqueid": "MTK1192:3T3IWE1XG7UTK6N2OYHTVCDSCF0QTN", "current_trial": 37, "dateTime": 1513292167521, "trialdata": {"rt": -1, "stimulus": "<p id=\"stim\">OMELET</p>", "key_press": -1, "type": "PRES_VIS", "word": "omelet", "wordID": 975, "conditions": [18, 1200, "v", 18000], "trial": 0, "serialpos": 16, "trial_type": "single-stim", "trial_index": 37, "time_elapsed": 319235, "internal_node_id": "0.0-28.0"}}, {"uniqueid": "MTK1192:3T3IWE1XG7UTK6N2OYHTVCDSCF0QTN", "current_trial": 38, "dateTime": 1513292169743, "trialdata": {"rt": -1, "stimulus": "<p id=\"stim\">SLIME</p>", "key_press": -1, "type": "PRES_VIS", "word": "slime", "wordID": 1326, "conditions": [18, 1200, "v", 18000], "trial": 0, "serialpos": 17, "trial_type": "single-stim", "trial_index": 38, "time_elapsed": 321457, "internal_node_id": "0.0-29.0"}}, {"uniqueid": "MTK1192:3T3IWE1XG7UTK6N2OYHTVCDSCF0QTN", "current_trial": 39, "dateTime": 1513292172083, "trialdata": {"rt": -1, "stimulus": "", "key_press": -1, "type": "PRE_RECALL_DELAY", "trial_type": "single-stim", "trial_index": 39, "time_elapsed": 323797, "internal_node_id": "0.0-30.0-0.0"}}, {"uniqueid": "MTK1192:3T3IWE1XG7UTK6N2OYHTVCDSCF0QTN", "current_trial": 40, "dateTime": 1513292172594, "trialdata": {"rt": -1000, "stimulus": "/static/audio/400Hz.wav", "key_press": -1, "type": "PRE_RECALL_ALERT", "trial_type": "single-audio", "trial_index": 40, "time_elapsed": 324308, "internal_node_id": "0.0-31.0"}}, {"uniqueid": "MTK1192:3T3IWE1XG7UTK6N2OYHTVCDSCF0QTN", "current_trial": 41, "dateTime": 1513292232602, "trialdata": {"rt": [5276, 8404, 13862, 17146, 26379], "recwords": ["crab", "queen", "quarter", "slime", "blender"], "type": "FREE_RECALL", "conditions": [18, 1200, "v", 18000], "trial": 0, "trial_type": "free-recall", "trial_index": 41, "time_elapsed": 384314, "internal_node_id": "0.0-32.0-0.0"}}, {"uniqueid": "MTK1192:3T3IWE1XG7UTK6N2OYHTVCDSCF0QTN", "current_trial": 42, "dateTime": 1513292236572, "trialdata": {"rt": 1964, "key_press": 32, "type": "INSTRUCTIONS", "trial_type": "text", "trial_index": 42, "time_elapsed": 388286, "internal_node_id": "0.0-33.0"}}, {"uniqueid": "MTK1192:3T3IWE1XG7UTK6N2OYHTVCDSCF0QTN", "current_trial": 43, "dateTime": 1513292256580, "trialdata": {"rt": [4489, 6506, 9825, 13571, 15488], "responses": ["18", "11", "11", "13", "11"], "num1": [4, 1, 2, 9, 7, 3], "num2": [5, 6, 5, 3, 1, 4], "num3": [9, 4, 4, 1, 3, 5], "type": "DISTRACTOR", "conditions": [18, 1200, "a", 18000], "trial": 1, "trial_type": "math-distractor", "trial_index": 43, "time_elapsed": 408294, "internal_node_id": "0.0-34.0"}}, {"uniqueid": "MTK1192:3T3IWE1XG7UTK6N2OYHTVCDSCF0QTN", "current_trial": 44, "dateTime": 1513292259589, "trialdata": {"rt": -1, "stimulus": "<p id=\"stim\">10</p>", "key_press": -1, "trial_type": "single-stim", "trial_index": 44, "time_elapsed": 411303, "internal_node_id": "0.0-35.0-0.0"}}, {"uniqueid": "MTK1192:3T3IWE1XG7UTK6N2OYHTVCDSCF0QTN", "current_trial": 45, "dateTime": 1513292260593, "trialdata": {"rt": -1, "stimulus": "<p id=\"stim\">9</p>", "key_press": -1, "trial_type": "single-stim", "trial_index": 45, "time_elapsed": 412307, "internal_node_id": "0.0-35.0-1.0"}}, {"uniqueid": "MTK1192:3T3IWE1XG7UTK6N2OYHTVCDSCF0QTN", "current_trial": 46, "dateTime": 1513292261597, "trialdata": {"rt": -1, "stimulus": "<p id=\"stim\">8</p>", "key_press": -1, "trial_type": "single-stim", "trial_index": 46, "time_elapsed": 413311, "internal_node_id": "0.0-35.0-2.0"}}, {"uniqueid": "MTK1192:3T3IWE1XG7UTK6N2OYHTVCDSCF0QTN", "current_trial": 47, "dateTime": 1513292262601, "trialdata": {"rt": -1, "stimulus": "<p id=\"stim\">7</p>", "key_press": -1, "trial_type": "single-stim", "trial_index": 47, "time_elapsed": 414315, "internal_node_id": "0.0-35.0-3.0"}}, {"uniqueid": "MTK1192:3T3IWE1XG7UTK6N2OYHTVCDSCF0QTN", "current_trial": 48, "dateTime": 1513292263605, "trialdata": {"rt": -1, "stimulus": "<p id=\"stim\">6</p>", "key_press": -1, "trial_type": "single-stim", "trial_index": 48, "time_elapsed": 415319, "internal_node_id": "0.0-35.0-4.0"}}, {"uniqueid": "MTK1192:3T3IWE1XG7UTK6N2OYHTVCDSCF0QTN", "current_trial": 49, "dateTime": 1513292264609, "trialdata": {"rt": -1, "stimulus": "<p id=\"stim\">5</p>", "key_press": -1, "trial_type": "single-stim", "trial_index": 49, "time_elapsed": 416323, "internal_node_id": "0.0-35.0-5.0"}}, {"uniqueid": "MTK1192:3T3IWE1XG7UTK6N2OYHTVCDSCF0QTN", "current_trial": 50, "dateTime": 1513292265613, "trialdata": {"rt": -1, "stimulus": "<p id=\"stim\">4</p>", "key_press": -1, "trial_type": "single-stim", "trial_index": 50, "time_elapsed": 417327, "internal_node_id": "0.0-35.0-6.0"}}, {"uniqueid": "MTK1192:3T3IWE1XG7UTK6N2OYHTVCDSCF0QTN", "current_trial": 51, "dateTime": 1513292266617, "trialdata": {"rt": -1, "stimulus": "<p id=\"stim\">3</p>", "key_press": -1, "trial_type": "single-stim", "trial_index": 51, "time_elapsed": 418331, "internal_node_id": "0.0-35.0-7.0"}}, {"uniqueid": "MTK1192:3T3IWE1XG7UTK6N2OYHTVCDSCF0QTN", "current_trial": 52, "dateTime": 1513292267622, "trialdata": {"rt": -1, "stimulus": "<p id=\"stim\">2</p>", "key_press": -1, "trial_type": "single-stim", "trial_index": 52, "time_elapsed": 419336, "internal_node_id": "0.0-35.0-8.0"}}, {"uniqueid": "MTK1192:3T3IWE1XG7UTK6N2OYHTVCDSCF0QTN", "current_trial": 53, "dateTime": 1513292268627, "trialdata": {"rt": -1, "stimulus": "<p id=\"stim\">1</p>", "key_press": -1, "trial_type": "single-stim", "trial_index": 53, "time_elapsed": 420341, "internal_node_id": "0.0-35.0-9.0"}}, {"uniqueid": "MTK1192:3T3IWE1XG7UTK6N2OYHTVCDSCF0QTN", "current_trial": 54, "dateTime": 1513292270129, "trialdata": {"rt": -1, "stimulus": "<p id=\"stim\">+</p>", "key_press": -1, "type": "FIXATION", "trial_type": "single-stim", "trial_index": 54, "time_elapsed": 421843, "internal_node_id": "0.0-36.0-0.0"}}, {"uniqueid": "MTK1192:3T3IWE1XG7UTK6N2OYHTVCDSCF0QTN", "current_trial": 55, "dateTime": 1513292272184, "trialdata": {"rt": -1000, "stimulus": "/static/audio/wordpool/FOOT.wav", "key_press": -1, "type": "PRES_AUD", "word": "foot", "wordID": 589, "conditions": [18, 1200, "a", 18000], "trial": 1, "serialpos": 0, "trial_type": "single-audio", "trial_index": 55, "time_elapsed": 423898, "internal_node_id": "0.0-37.0"}}, {"uniqueid": "MTK1192:3T3IWE1XG7UTK6N2OYHTVCDSCF0QTN", "current_trial": 56, "dateTime": 1513292274314, "trialdata": {"rt": -1000, "stimulus": "/static/audio/wordpool/CANAL.wav", "key_press": -1, "type": "PRES_AUD", "word": "canal", "wordID": 225, "conditions": [18, 1200, "a", 18000], "trial": 1, "serialpos": 1, "trial_type": "single-audio", "trial_index": 56, "time_elapsed": 426028, "internal_node_id": "0.0-38.0"}}, {"uniqueid": "MTK1192:3T3IWE1XG7UTK6N2OYHTVCDSCF0QTN", "current_trial": 57, "dateTime": 1513292276387, "trialdata": {"rt": -1000, "stimulus": "/static/audio/wordpool/TUTU.wav", "key_press": -1, "type": "PRES_AUD", "word": "tutu", "wordID": 1523, "conditions": [18, 1200, "a", 18000], "trial": 1, "serialpos": 2, "trial_type": "single-audio", "trial_index": 57, "time_elapsed": 428100, "internal_node_id": "0.0-39.0"}}, {"uniqueid": "MTK1192:3T3IWE1XG7UTK6N2OYHTVCDSCF0QTN", "current_trial": 58, "dateTime": 1513292278755, "trialdata": {"rt": -1000, "stimulus": "/static/audio/wordpool/WIFE.wav", "key_press": -1, "type": "PRES_AUD", "word": "wife", "wordID": 1608, "conditions": [18, 1200, "a", 18000], "trial": 1, "serialpos": 3, "trial_type": "single-audio", "trial_index": 58, "time_elapsed": 430469, "internal_node_id": "0.0-40.0"}}, {"uniqueid": "MTK1192:3T3IWE1XG7UTK6N2OYHTVCDSCF0QTN", "current_trial": 59, "dateTime": 1513292281024, "trialdata": {"rt": -1000, "stimulus": "/static/audio/wordpool/RECEIPT.wav", "key_press": -1, "type": "PRES_AUD", "word": "receipt", "wordID": 1172, "conditions": [18, 1200, "a", 18000], "trial": 1, "serialpos": 4, "trial_type": "single-audio", "trial_index": 59, "time_elapsed": 432738, "internal_node_id": "0.0-41.0"}}, {"uniqueid": "MTK1192:3T3IWE1XG7UTK6N2OYHTVCDSCF0QTN", "current_trial": 60, "dateTime": 1513292283364, "trialdata": {"rt": -1000, "stimulus": "/static/audio/wordpool/FLEET.wav", "key_press": -1, "type": "PRES_AUD", "word": "fleet", "wordID": 577, "conditions": [18, 1200, "a", 18000], "trial": 1, "serialpos": 5, "trial_type": "single-audio", "trial_index": 60, "time_elapsed": 435078, "internal_node_id": "0.0-42.0"}}, {"uniqueid": "MTK1192:3T3IWE1XG7UTK6N2OYHTVCDSCF0QTN", "current_trial": 61, "dateTime": 1513292285669, "trialdata": {"rt": -1000, "stimulus": "/static/audio/wordpool/POISON.wav", "key_press": -1, "type": "PRES_AUD", "word": "poison", "wordID": 1095, "conditions": [18, 1200, "a", 18000], "trial": 1, "serialpos": 6, "trial_type": "single-audio", "trial_index": 61, "time_elapsed": 437383, "internal_node_id": "0.0-43.0"}}, {"uniqueid": "MTK1192:3T3IWE1XG7UTK6N2OYHTVCDSCF0QTN", "current_trial": 62, "dateTime": 1513292287730, "trialdata": {"rt": -1000, "stimulus": "/static/audio/wordpool/JUGGLER.wav", "key_press": -1, "type": "PRES_AUD", "word": "juggler", "wordID": 762, "conditions": [18, 1200, "a", 18000], "trial": 1, "serialpos": 7, "trial_type": "single-audio", "trial_index": 62, "time_elapsed": 439444, "internal_node_id": "0.0-44.0"}}, {"uniqueid": "MTK1192:3T3IWE1XG7UTK6N2OYHTVCDSCF0QTN", "current_trial": 63, "dateTime": 1513292289936, "trialdata": {"rt": -1000, "stimulus": "/static/audio/wordpool/WIDOW.wav", "key_press": -1, "type": "PRES_AUD", "word": "widow", "wordID": 1607, "conditions": [18, 1200, "a", 18000], "trial": 1, "serialpos": 8, "trial_type": "single-audio", "trial_index": 63, "time_elapsed": 441650, "internal_node_id": "0.0-45.0"}}, {"uniqueid": "MTK1192:3T3IWE1XG7UTK6N2OYHTVCDSCF0QTN", "current_trial": 64, "dateTime": 1513292292189, "trialdata": {"rt": -1000, "stimulus": "/static/audio/wordpool/FLUTE.wav", "key_press": -1, "type": "PRES_AUD", "word": "flute", "wordID": 584, "conditions": [18, 1200, "a", 18000], "trial": 1, "serialpos": 9, "trial_type": "single-audio", "trial_index": 64, "time_elapsed": 443903, "internal_node_id": "0.0-46.0"}}, {"uniqueid": "MTK1192:3T3IWE1XG7UTK6N2OYHTVCDSCF0QTN", "current_trial": 65, "dateTime": 1513292294249, "trialdata": {"rt": -1000, "stimulus": "/static/audio/wordpool/PUPPY.wav", "key_press": -1, "type": "PRES_AUD", "word": "puppy", "wordID": 1143, "conditions": [18, 1200, "a", 18000], "trial": 1, "serialpos": 10, "trial_type": "single-audio", "trial_index": 65, "time_elapsed": 445963, "internal_node_id": "0.0-47.0"}}, {"uniqueid": "MTK1192:3T3IWE1XG7UTK6N2OYHTVCDSCF0QTN", "current_trial": 66, "dateTime": 1513292296478, "trialdata": {"rt": -1000, "stimulus": "/static/audio/wordpool/JOURNAL.wav", "key_press": -1, "type": "PRES_AUD", "word": "journal", "wordID": 759, "conditions": [18, 1200, "a", 18000], "trial": 1, "serialpos": 11, "trial_type": "single-audio", "trial_index": 66, "time_elapsed": 448192, "internal_node_id": "0.0-48.0"}}, {"uniqueid": "MTK1192:3T3IWE1XG7UTK6N2OYHTVCDSCF0QTN", "current_trial": 67, "dateTime": 1513292298644, "trialdata": {"rt": -1000, "stimulus": "/static/audio/wordpool/ICEBERG.wav", "key_press": -1, "type": "PRES_AUD", "word": "iceberg", "wordID": 730, "conditions": [18, 1200, "a", 18000], "trial": 1, "serialpos": 12, "trial_type": "single-audio", "trial_index": 67, "time_elapsed": 450358, "internal_node_id": "0.0-49.0"}}, {"uniqueid": "MTK1192:3T3IWE1XG7UTK6N2OYHTVCDSCF0QTN", "current_trial": 68, "dateTime": 1513292300945, "trialdata": {"rt": -1000, "stimulus": "/static/audio/wordpool/CLOTHES.wav", "key_press": -1, "type": "PRES_AUD", "word": "clothes", "wordID": 326, "conditions": [18, 1200, "a", 18000], "trial": 1, "serialpos": 13, "trial_type": "single-audio", "trial_index": 68, "time_elapsed": 452656, "internal_node_id": "0.0-50.0"}}, {"uniqueid": "MTK1192:3T3IWE1XG7UTK6N2OYHTVCDSCF0QTN", "current_trial": 69, "dateTime": 1513292303072, "trialdata": {"rt": -1000, "stimulus": "/static/audio/wordpool/SHOVEL.wav", "key_press": -1, "type": "PRES_AUD", "word": "shovel", "wordID": 1294, "conditions": [18, 1200, "a", 18000], "trial": 1, "serialpos": 14, "trial_type": "single-audio", "trial_index": 69, "time_elapsed": 454786, "internal_node_id": "0.0-51.0"}}, {"uniqueid": "MTK1192:3T3IWE1XG7UTK6N2OYHTVCDSCF0QTN", "current_trial": 70, "dateTime": 1513292305093, "trialdata": {"rt": -1000, "stimulus": "/static/audio/wordpool/HELMET.wav", "key_press": -1, "type": "PRES_AUD", "word": "helmet", "wordID": 701, "conditions": [18, 1200, "a", 18000], "trial": 1, "serialpos": 15, "trial_type": "single-audio", "trial_index": 70, "time_elapsed": 456807, "internal_node_id": "0.0-52.0"}}, {"uniqueid": "MTK1192:3T3IWE1XG7UTK6N2OYHTVCDSCF0QTN", "current_trial": 71, "dateTime": 1513292307410, "trialdata": {"rt": -1000, "stimulus": "/static/audio/wordpool/CREVICE.wav", "key_press": -1, "type": "PRES_AUD", "word": "crevice", "wordID": 404, "conditions": [18, 1200, "a", 18000], "trial": 1, "serialpos": 16, "trial_type": "single-audio", "trial_index": 71, "time_elapsed": 459123, "internal_node_id": "0.0-53.0"}}, {"uniqueid": "MTK1192:3T3IWE1XG7UTK6N2OYHTVCDSCF0QTN", "current_trial": 72, "dateTime": 1513292309563, "trialdata": {"rt": -1000, "stimulus": "/static/audio/wordpool/BROOK.wav", "key_press": -1, "type": "PRES_AUD", "word": "brook", "wordID": 176, "conditions": [18, 1200, "a", 18000], "trial": 1, "serialpos": 17, "trial_type": "single-audio", "trial_index": 72, "time_elapsed": 461277, "internal_node_id": "0.0-54.0"}}, {"uniqueid": "MTK1192:3T3IWE1XG7UTK6N2OYHTVCDSCF0QTN", "current_trial": 73, "dateTime": 1513292310957, "trialdata": {"rt": -1, "stimulus": "", "key_press": -1, "type": "PRE_RECALL_DELAY", "trial_type": "single-stim", "trial_index": 73, "time_elapsed": 462670, "internal_node_id": "0.0-55.0-0.0"}}, {"uniqueid": "MTK1192:3T3IWE1XG7UTK6N2OYHTVCDSCF0QTN", "current_trial": 74, "dateTime": 1513292311458, "trialdata": {"rt": -1000, "stimulus": "/static/audio/400Hz.wav", "key_press": -1, "type": "PRE_RECALL_ALERT", "trial_type": "single-audio", "trial_index": 74, "time_elapsed": 463172, "internal_node_id": "0.0-56.0"}}, {"uniqueid": "MTK1192:3T3IWE1XG7UTK6N2OYHTVCDSCF0QTN", "current_trial": 75, "dateTime": 1513292371467, "trialdata": {"rt": [11862, 13487, 15575, 22089, 25084, 29393, 33468, 40038, 50398], "recwords": ["foot", "canal", "tutu", "fleet", "poison", "widow", "puppy", "clothes", "brooke"], "type": "FREE_RECALL", "conditions": [18, 1200, "a", 18000], "trial": 1, "trial_type": "free-recall", "trial_index": 75, "time_elapsed": 523178, "internal_node_id": "0.0-57.0-0.0"}}, {"uniqueid": "MTK1192:3T3IWE1XG7UTK6N2OYHTVCDSCF0QTN", "current_trial": 76, "dateTime": 1513292380264, "trialdata": {"rt": 6793, "key_press": 32, "type": "INSTRUCTIONS", "trial_type": "text", "trial_index": 76, "time_elapsed": 531975, "internal_node_id": "0.0-58.0"}}, {"uniqueid": "MTK1192:3T3IWE1XG7UTK6N2OYHTVCDSCF0QTN", "current_trial": 77, "dateTime": 1513292393273, "trialdata": {"rt": [3600, 10055], "responses": ["19", "18"], "num1": [6, 3, 1], "num2": [5, 6, 5], "num3": [8, 9, 8], "type": "DISTRACTOR", "conditions": [24, 1600, "a", 12000], "trial": 2, "trial_type": "math-distractor", "trial_index": 77, "time_elapsed": 544986, "internal_node_id": "0.0-59.0"}}, {"uniqueid": "MTK1192:3T3IWE1XG7UTK6N2OYHTVCDSCF0QTN", "current_trial": 78, "dateTime": 1513292396279, "trialdata": {"rt": -1, "stimulus": "<p id=\"stim\">10</p>", "key_press": -1, "trial_type": "single-stim", "trial_index": 78, "time_elapsed": 547993, "internal_node_id": "0.0-60.0-0.0"}}, {"uniqueid": "MTK1192:3T3IWE1XG7UTK6N2OYHTVCDSCF0QTN", "current_trial": 79, "dateTime": 1513292397283, "trialdata": {"rt": -1, "stimulus": "<p id=\"stim\">9</p>", "key_press": -1, "trial_type": "single-stim", "trial_index": 79, "time_elapsed": 548997, "internal_node_id": "0.0-60.0-1.0"}}, {"uniqueid": "MTK1192:3T3IWE1XG7UTK6N2OYHTVCDSCF0QTN", "current_trial": 80, "dateTime": 1513292398287, "trialdata": {"rt": -1, "stimulus": "<p id=\"stim\">8</p>", "key_press": -1, "trial_type": "single-stim", "trial_index": 80, "time_elapsed": 550001, "internal_node_id": "0.0-60.0-2.0"}}, {"uniqueid": "MTK1192:3T3IWE1XG7UTK6N2OYHTVCDSCF0QTN", "current_trial": 81, "dateTime": 1513292399291, "trialdata": {"rt": -1, "stimulus": "<p id=\"stim\">7</p>", "key_press": -1, "trial_type": "single-stim", "trial_index": 81, "time_elapsed": 551005, "internal_node_id": "0.0-60.0-3.0"}}, {"uniqueid": "MTK1192:3T3IWE1XG7UTK6N2OYHTVCDSCF0QTN", "current_trial": 82, "dateTime": 1513292400295, "trialdata": {"rt": -1, "stimulus": "<p id=\"stim\">6</p>", "key_press": -1, "trial_type": "single-stim", "trial_index": 82, "time_elapsed": 552009, "internal_node_id": "0.0-60.0-4.0"}}, {"uniqueid": "MTK1192:3T3IWE1XG7UTK6N2OYHTVCDSCF0QTN", "current_trial": 83, "dateTime": 1513292401299, "trialdata": {"rt": -1, "stimulus": "<p id=\"stim\">5</p>", "key_press": -1, "trial_type": "single-stim", "trial_index": 83, "time_elapsed": 553013, "internal_node_id": "0.0-60.0-5.0"}}, {"uniqueid": "MTK1192:3T3IWE1XG7UTK6N2OYHTVCDSCF0QTN", "current_trial": 84, "dateTime": 1513292402303, "trialdata": {"rt": -1, "stimulus": "<p id=\"stim\">4</p>", "key_press": -1, "trial_type": "single-stim", "trial_index": 84, "time_elapsed": 554017, "internal_node_id": "0.0-60.0-6.0"}}, {"uniqueid": "MTK1192:3T3IWE1XG7UTK6N2OYHTVCDSCF0QTN", "current_trial": 85, "dateTime": 1513292403309, "trialdata": {"rt": -1, "stimulus": "<p id=\"stim\">3</p>", "key_press": -1, "trial_type": "single-stim", "trial_index": 85, "time_elapsed": 555023, "internal_node_id": "0.0-60.0-7.0"}}, {"uniqueid": "MTK1192:3T3IWE1XG7UTK6N2OYHTVCDSCF0QTN", "current_trial": 86, "dateTime": 1513292404312, "trialdata": {"rt": -1, "stimulus": "<p id=\"stim\">2</p>", "key_press": -1, "trial_type": "single-stim", "trial_index": 86, "time_elapsed": 556026, "internal_node_id": "0.0-60.0-8.0"}}, {"uniqueid": "MTK1192:3T3IWE1XG7UTK6N2OYHTVCDSCF0QTN", "current_trial": 87, "dateTime": 1513292405315, "trialdata": {"rt": -1, "stimulus": "<p id=\"stim\">1</p>", "key_press": -1, "trial_type": "single-stim", "trial_index": 87, "time_elapsed": 557029, "internal_node_id": "0.0-60.0-9.0"}}, {"uniqueid": "MTK1192:3T3IWE1XG7UTK6N2OYHTVCDSCF0QTN", "current_trial": 88, "dateTime": 1513292406819, "trialdata": {"rt": -1, "stimulus": "<p id=\"stim\">+</p>", "key_press": -1, "type": "FIXATION", "trial_type": "single-stim", "trial_index": 88, "time_elapsed": 558533, "internal_node_id": "0.0-61.0-0.0"}}, {"uniqueid": "MTK1192:3T3IWE1XG7UTK6N2OYHTVCDSCF0QTN", "current_trial": 89, "dateTime": 1513292409398, "trialdata": {"rt": -1000, "stimulus": "/static/audio/wordpool/FLAG.wav", "key_press": -1, "type": "PRES_AUD", "word": "flag", "wordID": 572, "conditions": [24, 1600, "a", 12000], "trial": 2, "serialpos": 0, "trial_type": "single-audio", "trial_index": 89, "time_elapsed": 561112, "internal_node_id": "0.0-62.0"}}, {"uniqueid": "MTK1192:3T3IWE1XG7UTK6N2OYHTVCDSCF0QTN", "current_trial": 90, "dateTime": 1513292411807, "trialdata": {"rt": -1000, "stimulus": "/static/audio/wordpool/DENTIST.wav", "key_press": -1, "type": "PRES_AUD", "word": "dentist", "wordID": 446, "conditions": [24, 1600, "a", 12000], "trial": 2, "serialpos": 1, "trial_type": "single-audio", "trial_index": 90, "time_elapsed": 563521, "internal_node_id": "0.0-63.0"}}, {"uniqueid": "MTK1192:3T3IWE1XG7UTK6N2OYHTVCDSCF0QTN", "current_trial": 91, "dateTime": 1513292414361, "trialdata": {"rt": -1000, "stimulus": "/static/audio/wordpool/SALT.wav", "key_press": -1, "type": "PRES_AUD", "word": "salt", "wordID": 1228, "conditions": [24, 1600, "a", 12000], "trial": 2, "serialpos": 2, "trial_type": "single-audio", "trial_index": 91, "time_elapsed": 566075, "internal_node_id": "0.0-64.0"}}, {"uniqueid": "MTK1192:3T3IWE1XG7UTK6N2OYHTVCDSCF0QTN", "current_trial": 92, "dateTime": 1513292416985, "trialdata": {"rt": -1000, "stimulus": "/static/audio/wordpool/BEEF.wav", "key_press": -1, "type": "PRES_AUD", "word": "beef", "wordID": 112, "conditions": [24, 1600, "a", 12000], "trial": 2, "serialpos": 3, "trial_type": "single-audio", "trial_index": 92, "time_elapsed": 568699, "internal_node_id": "0.0-65.0"}}, {"uniqueid": "MTK1192:3T3IWE1XG7UTK6N2OYHTVCDSCF0QTN", "current_trial": 93, "dateTime": 1513292419544, "trialdata": {"rt": -1000, "stimulus": "/static/audio/wordpool/MATCH.wav", "key_press": -1, "type": "PRES_AUD", "word": "match", "wordID": 877, "conditions": [24, 1600, "a", 12000], "trial": 2, "serialpos": 4, "trial_type": "single-audio", "trial_index": 93, "time_elapsed": 571258, "internal_node_id": "0.0-66.0"}}, {"uniqueid": "MTK1192:3T3IWE1XG7UTK6N2OYHTVCDSCF0QTN", "current_trial": 94, "dateTime": 1513292421966, "trialdata": {"rt": -1000, "stimulus": "/static/audio/wordpool/OX.wav", "key_press": -1, "type": "PRES_AUD", "word": "ox", "wordID": 993, "conditions": [24, 1600, "a", 12000], "trial": 2, "serialpos": 5, "trial_type": "single-audio", "trial_index": 94, "time_elapsed": 573680, "internal_node_id": "0.0-67.0"}}, {"uniqueid": "MTK1192:3T3IWE1XG7UTK6N2OYHTVCDSCF0QTN", "current_trial": 95, "dateTime": 1513292424398, "trialdata": {"rt": -1000, "stimulus": "/static/audio/wordpool/CATTLE.wav", "key_press": -1, "type": "PRES_AUD", "word": "cattle", "wordID": 260, "conditions": [24, 1600, "a", 12000], "trial": 2, "serialpos": 6, "trial_type": "single-audio", "trial_index": 95, "time_elapsed": 576112, "internal_node_id": "0.0-68.0"}}, {"uniqueid": "MTK1192:3T3IWE1XG7UTK6N2OYHTVCDSCF0QTN", "current_trial": 96, "dateTime": 1513292427121, "trialdata": {"rt": -1000, "stimulus": "/static/audio/wordpool/LUNCH.wav", "key_press": -1, "type": "PRES_AUD", "word": "lunch", "wordID": 848, "conditions": [24, 1600, "a", 12000], "trial": 2, "serialpos": 7, "trial_type": "single-audio", "trial_index": 96, "time_elapsed": 578835, "internal_node_id": "0.0-69.0"}}, {"uniqueid": "MTK1192:3T3IWE1XG7UTK6N2OYHTVCDSCF0QTN", "current_trial": 97, "dateTime": 1513292429652, "trialdata": {"rt": -1000, "stimulus": "/static/audio/wordpool/SUPPER.wav", "key_press": -1, "type": "PRES_AUD", "word": "supper", "wordID": 1410, "conditions": [24, 1600, "a", 12000], "trial": 2, "serialpos": 8, "trial_type": "single-audio", "trial_index": 97, "time_elapsed": 581366, "internal_node_id": "0.0-70.0"}}, {"uniqueid": "MTK1192:3T3IWE1XG7UTK6N2OYHTVCDSCF0QTN", "current_trial": 98, "dateTime": 1513292432322, "trialdata": {"rt": -1000, "stimulus": "/static/audio/wordpool/ELBOW.wav", "key_press": -1, "type": "PRES_AUD", "word": "elbow", "wordID": 519, "conditions": [24, 1600, "a", 12000], "trial": 2, "serialpos": 9, "trial_type": "single-audio", "trial_index": 98, "time_elapsed": 584036, "internal_node_id": "0.0-71.0"}}, {"uniqueid": "MTK1192:3T3IWE1XG7UTK6N2OYHTVCDSCF0QTN", "current_trial": 99, "dateTime": 1513292434737, "trialdata": {"rt": -1000, "stimulus": "/static/audio/wordpool/JURY.wav", "key_press": -1, "type": "PRES_AUD", "word": "jury", "wordID": 765, "conditions": [24, 1600, "a", 12000], "trial": 2, "serialpos": 10, "trial_type": "single-audio", "trial_index": 99, "time_elapsed": 586451, "internal_node_id": "0.0-72.0"}}, {"uniqueid": "MTK1192:3T3IWE1XG7UTK6N2OYHTVCDSCF0QTN", "current_trial": 100, "dateTime": 1513292437495, "trialdata": {"rt": -1000, "stimulus": "/static/audio/wordpool/ROBBER.wav", "key_press": -1, "type": "PRES_AUD", "word": "robber", "wordID": 1196, "conditions": [24, 1600, "a", 12000], "trial": 2, "serialpos": 11, "trial_type": "single-audio", "trial_index": 100, "time_elapsed": 589208, "internal_node_id": "0.0-73.0"}}, {"uniqueid": "MTK1192:3T3IWE1XG7UTK6N2OYHTVCDSCF0QTN", "current_trial": 101, "dateTime": 1513292439985, "trialdata": {"rt": -1000, "stimulus": "/static/audio/wordpool/CLOCK.wav", "key_press": -1, "type": "PRES_AUD", "word": "clock", "wordID": 324, "conditions": [24, 1600, "a", 12000], "trial": 2, "serialpos": 12, "trial_type": "single-audio", "trial_index": 101, "time_elapsed": 591699, "internal_node_id": "0.0-74.0"}}, {"uniqueid": "MTK1192:3T3IWE1XG7UTK6N2OYHTVCDSCF0QTN", "current_trial": 102, "dateTime": 1513292442430, "trialdata": {"rt": -1000, "stimulus": "/static/audio/wordpool/WHISTLE.wav", "key_press": -1, "type": "PRES_AUD", "word": "whistle", "wordID": 1605, "conditions": [24, 1600, "a", 12000], "trial": 2, "serialpos": 13, "trial_type": "single-audio", "trial_index": 102, "time_elapsed": 594144, "internal_node_id": "0.0-75.0"}}, {"uniqueid": "MTK1192:3T3IWE1XG7UTK6N2OYHTVCDSCF0QTN", "current_trial": 103, "dateTime": 1513292444856, "trialdata": {"rt": -1000, "stimulus": "/static/audio/wordpool/LOVER.wav", "key_press": -1, "type": "PRES_AUD", "word": "lover", "wordID": 845, "conditions": [24, 1600, "a", 12000], "trial": 2, "serialpos": 14, "trial_type": "single-audio", "trial_index": 103, "time_elapsed": 596570, "internal_node_id": "0.0-76.0"}}, {"uniqueid": "MTK1192:3T3IWE1XG7UTK6N2OYHTVCDSCF0QTN", "current_trial": 104, "dateTime": 1513292447284, "trialdata": {"rt": -1000, "stimulus": "/static/audio/wordpool/WOMAN.wav", "key_press": -1, "type": "PRES_AUD", "word": "woman", "wordID": 1619, "conditions": [24, 1600, "a", 12000], "trial": 2, "serialpos": 15, "trial_type": "single-audio", "trial_index": 104, "time_elapsed": 598998, "internal_node_id": "0.0-77.0"}}, {"uniqueid": "MTK1192:3T3IWE1XG7UTK6N2OYHTVCDSCF0QTN", "current_trial": 105, "dateTime": 1513292450022, "trialdata": {"rt": -1000, "stimulus": "/static/audio/wordpool/VICTIM.wav", "key_press": -1, "type": "PRES_AUD", "word": "victim", "wordID": 1561, "conditions": [24, 1600, "a", 12000], "trial": 2, "serialpos": 16, "trial_type": "single-audio", "trial_index": 105, "time_elapsed": 601736, "internal_node_id": "0.0-78.0"}}, {"uniqueid": "MTK1192:3T3IWE1XG7UTK6N2OYHTVCDSCF0QTN", "current_trial": 106, "dateTime": 1513292452512, "trialdata": {"rt": -1000, "stimulus": "/static/audio/wordpool/PORK.wav", "key_press": -1, "type": "PRES_AUD", "word": "pork", "wordID": 1107, "conditions": [24, 1600, "a", 12000], "trial": 2, "serialpos": 17, "trial_type": "single-audio", "trial_index": 106, "time_elapsed": 604226, "internal_node_id": "0.0-79.0"}}, {"uniqueid": "MTK1192:3T3IWE1XG7UTK6N2OYHTVCDSCF0QTN", "current_trial": 107, "dateTime": 1513292455020, "trialdata": {"rt": -1000, "stimulus": "/static/audio/wordpool/ARMY.wav", "key_press": -1, "type": "PRES_AUD", "word": "army", "wordID": 38, "conditions": [24, 1600, "a", 12000], "trial": 2, "serialpos": 18, "trial_type": "single-audio", "trial_index": 107, "time_elapsed": 606734, "internal_node_id": "0.0-80.0"}}, {"uniqueid": "MTK1192:3T3IWE1XG7UTK6N2OYHTVCDSCF0QTN", "current_trial": 108, "dateTime": 1513292457581, "trialdata": {"rt": -1000, "stimulus": "/static/audio/wordpool/WASHER.wav", "key_press": -1, "type": "PRES_AUD", "word": "washer", "wordID": 1591, "conditions": [24, 1600, "a", 12000], "trial": 2, "serialpos": 19, "trial_type": "single-audio", "trial_index": 108, "time_elapsed": 609294, "internal_node_id": "0.0-81.0"}}, {"uniqueid": "MTK1192:3T3IWE1XG7UTK6N2OYHTVCDSCF0QTN", "current_trial": 109, "dateTime": 1513292460065, "trialdata": {"rt": -1000, "stimulus": "/static/audio/wordpool/PARTNER.wav", "key_press": -1, "type": "PRES_AUD", "word": "partner", "wordID": 1016, "conditions": [24, 1600, "a", 12000], "trial": 2, "serialpos": 20, "trial_type": "single-audio", "trial_index": 109, "time_elapsed": 611779, "internal_node_id": "0.0-82.0"}}, {"uniqueid": "MTK1192:3T3IWE1XG7UTK6N2OYHTVCDSCF0QTN", "current_trial": 110, "dateTime": 1513292462700, "trialdata": {"rt": -1000, "stimulus": "/static/audio/wordpool/BACON.wav", "key_press": -1, "type": "PRES_AUD", "word": "bacon", "wordID": 66, "conditions": [24, 1600, "a", 12000], "trial": 2, "serialpos": 21, "trial_type": "single-audio", "trial_index": 110, "time_elapsed": 614414, "internal_node_id": "0.0-83.0"}}, {"uniqueid": "MTK1192:3T3IWE1XG7UTK6N2OYHTVCDSCF0QTN", "current_trial": 111, "dateTime": 1513292465110, "trialdata": {"rt": -1000, "stimulus": "/static/audio/wordpool/AUTHOR.wav", "key_press": -1, "type": "PRES_AUD", "word": "author", "wordID": 60, "conditions": [24, 1600, "a", 12000], "trial": 2, "serialpos": 22, "trial_type": "single-audio", "trial_index": 111, "time_elapsed": 616824, "internal_node_id": "0.0-84.0"}}, {"uniqueid": "MTK1192:3T3IWE1XG7UTK6N2OYHTVCDSCF0QTN", "current_trial": 112, "dateTime": 1513292467890, "trialdata": {"rt": -1000, "stimulus": "/static/audio/wordpool/SEAL.wav", "key_press": -1, "type": "PRES_AUD", "word": "seal", "wordID": 1261, "conditions": [24, 1600, "a", 12000], "trial": 2, "serialpos": 23, "trial_type": "single-audio", "trial_index": 112, "time_elapsed": 619604, "internal_node_id": "0.0-85.0"}}, {"uniqueid": "MTK1192:3T3IWE1XG7UTK6N2OYHTVCDSCF0QTN", "current_trial": 113, "dateTime": 1513292469197, "trialdata": {"rt": -1, "stimulus": "", "key_press": -1, "type": "PRE_RECALL_DELAY", "trial_type": "single-stim", "trial_index": 113, "time_elapsed": 620911, "internal_node_id": "0.0-86.0-0.0"}}, {"uniqueid": "MTK1192:3T3IWE1XG7UTK6N2OYHTVCDSCF0QTN", "current_trial": 114, "dateTime": 1513292469698, "trialdata": {"rt": -1000, "stimulus": "/static/audio/400Hz.wav", "key_press": -1, "type": "PRE_RECALL_ALERT", "trial_type": "single-audio", "trial_index": 114, "time_elapsed": 621412, "internal_node_id": "0.0-87.0"}}, {"uniqueid": "MTK1192:3T3IWE1XG7UTK6N2OYHTVCDSCF0QTN", "current_trial": 115, "dateTime": 1513292529708, "trialdata": {"rt": [11251, 13506, 15588, 28925, 31923, 41900, 49223, 56707], "recwords": ["flag", "dentist", "salt", "lunch", "supper", "clock", "woman", "pork"], "type": "FREE_RECALL", "conditions": [24, 1600, "a", 12000], "trial": 2, "trial_type": "free-recall", "trial_index": 115, "time_elapsed": 681420, "internal_node_id": "0.0-88.0-0.0"}}, {"uniqueid": "MTK1192:3T3IWE1XG7UTK6N2OYHTVCDSCF0QTN", "current_trial": 116, "dateTime": 1513292541146, "trialdata": {"rt": 9432, "key_press": 32, "type": "INSTRUCTIONS", "trial_type": "text", "trial_index": 116, "time_elapsed": 692860, "internal_node_id": "0.0-89.0"}}, {"uniqueid": "MTK1192:3T3IWE1XG7UTK6N2OYHTVCDSCF0QTN", "current_trial": 117, "dateTime": 1513292555152, "trialdata": {"rt": [3372, 5913, 8337, 11857], "responses": ["8", "9", "17", "20"], "num1": [4, 2, 6, 8, 7], "num2": [2, 3, 4, 4, 4], "num3": [2, 4, 7, 8, 6], "type": "DISTRACTOR", "conditions": [12, 1600, "v", 12000], "trial": 3, "trial_type": "math-distractor", "trial_index": 117, "time_elapsed": 706866, "internal_node_id": "0.0-90.0"}}, {"uniqueid": "MTK1192:3T3IWE1XG7UTK6N2OYHTVCDSCF0QTN", "current_trial": 118, "dateTime": 1513292558158, "trialdata": {"rt": -1, "stimulus": "<p id=\"stim\">10</p>", "key_press": -1, "trial_type": "single-stim", "trial_index": 118, "time_elapsed": 709872, "internal_node_id": "0.0-91.0-0.0"}}, {"uniqueid": "MTK1192:3T3IWE1XG7UTK6N2OYHTVCDSCF0QTN", "current_trial": 119, "dateTime": 1513292559162, "trialdata": {"rt": -1, "stimulus": "<p id=\"stim\">9</p>", "key_press": -1, "trial_type": "single-stim", "trial_index": 119, "time_elapsed": 710876, "internal_node_id": "0.0-91.0-1.0"}}, {"uniqueid": "MTK1192:3T3IWE1XG7UTK6N2OYHTVCDSCF0QTN", "current_trial": 120, "dateTime": 1513292560166, "trialdata": {"rt": -1, "stimulus": "<p id=\"stim\">8</p>", "key_press": -1, "trial_type": "single-stim", "trial_index": 120, "time_elapsed": 711880, "internal_node_id": "0.0-91.0-2.0"}}, {"uniqueid": "MTK1192:3T3IWE1XG7UTK6N2OYHTVCDSCF0QTN", "current_trial": 121, "dateTime": 1513292561170, "trialdata": {"rt": -1, "stimulus": "<p id=\"stim\">7</p>", "key_press": -1, "trial_type": "single-stim", "trial_index": 121, "time_elapsed": 712884, "internal_node_id": "0.0-91.0-3.0"}}, {"uniqueid": "MTK1192:3T3IWE1XG7UTK6N2OYHTVCDSCF0QTN", "current_trial": 122, "dateTime": 1513292562175, "trialdata": {"rt": -1, "stimulus": "<p id=\"stim\">6</p>", "key_press": -1, "trial_type": "single-stim", "trial_index": 122, "time_elapsed": 713889, "internal_node_id": "0.0-91.0-4.0"}}, {"uniqueid": "MTK1192:3T3IWE1XG7UTK6N2OYHTVCDSCF0QTN", "current_trial": 123, "dateTime": 1513292563179, "trialdata": {"rt": -1, "stimulus": "<p id=\"stim\">5</p>", "key_press": -1, "trial_type": "single-stim", "trial_index": 123, "time_elapsed": 714893, "internal_node_id": "0.0-91.0-5.0"}}, {"uniqueid": "MTK1192:3T3IWE1XG7UTK6N2OYHTVCDSCF0QTN", "current_trial": 124, "dateTime": 1513292564182, "trialdata": {"rt": -1, "stimulus": "<p id=\"stim\">4</p>", "key_press": -1, "trial_type": "single-stim", "trial_index": 124, "time_elapsed": 715896, "internal_node_id": "0.0-91.0-6.0"}}, {"uniqueid": "MTK1192:3T3IWE1XG7UTK6N2OYHTVCDSCF0QTN", "current_trial": 125, "dateTime": 1513292565188, "trialdata": {"rt": -1, "stimulus": "<p id=\"stim\">3</p>", "key_press": -1, "trial_type": "single-stim", "trial_index": 125, "time_elapsed": 716901, "internal_node_id": "0.0-91.0-7.0"}}, {"uniqueid": "MTK1192:3T3IWE1XG7UTK6N2OYHTVCDSCF0QTN", "current_trial": 126, "dateTime": 1513292566191, "trialdata": {"rt": -1, "stimulus": "<p id=\"stim\">2</p>", "key_press": -1, "trial_type": "single-stim", "trial_index": 126, "time_elapsed": 717904, "internal_node_id": "0.0-91.0-8.0"}}, {"uniqueid": "MTK1192:3T3IWE1XG7UTK6N2OYHTVCDSCF0QTN", "current_trial": 127, "dateTime": 1513292567195, "trialdata": {"rt": -1, "stimulus": "<p id=\"stim\">1</p>", "key_press": -1, "trial_type": "single-stim", "trial_index": 127, "time_elapsed": 718909, "internal_node_id": "0.0-91.0-9.0"}}, {"uniqueid": "MTK1192:3T3IWE1XG7UTK6N2OYHTVCDSCF0QTN", "current_trial": 128, "dateTime": 1513292568699, "trialdata": {"rt": -1, "stimulus": "<p id=\"stim\">+</p>", "key_press": -1, "type": "FIXATION", "trial_type": "single-stim", "trial_index": 128, "time_elapsed": 720412, "internal_node_id": "0.0-92.0-0.0"}}, {"uniqueid": "MTK1192:3T3IWE1XG7UTK6N2OYHTVCDSCF0QTN", "current_trial": 129, "dateTime": 1513292570300, "trialdata": {"rt": -1, "stimulus": "<p id=\"stim\">SKILLET</p>", "key_press": -1, "type": "PRES_VIS", "word": "skillet", "wordID": 1316, "conditions": [12, 1600, "v", 12000], "trial": 3, "serialpos": 0, "trial_type": "single-stim", "trial_index": 129, "time_elapsed": 722014, "internal_node_id": "0.0-93.0"}}, {"uniqueid": "MTK1192:3T3IWE1XG7UTK6N2OYHTVCDSCF0QTN", "current_trial": 130, "dateTime": 1513292572751, "trialdata": {"rt": -1, "stimulus": "<p id=\"stim\">TEACHER</p>", "key_press": -1, "type": "PRES_VIS", "word": "teacher", "wordID": 1439, "conditions": [12, 1600, "v", 12000], "trial": 3, "serialpos": 1, "trial_type": "single-stim", "trial_index": 130, "time_elapsed": 724464, "internal_node_id": "0.0-94.0"}}, {"uniqueid": "MTK1192:3T3IWE1XG7UTK6N2OYHTVCDSCF0QTN", "current_trial": 131, "dateTime": 1513292575159, "trialdata": {"rt": -1, "stimulus": "<p id=\"stim\">STUDENT</p>", "key_press": -1, "type": "PRES_VIS", "word": "student", "wordID": 1394, "conditions": [12, 1600, "v", 12000], "trial": 3, "serialpos": 2, "trial_type": "single-stim", "trial_index": 131, "time_elapsed": 726873, "internal_node_id": "0.0-95.0"}}, {"uniqueid": "MTK1192:3T3IWE1XG7UTK6N2OYHTVCDSCF0QTN", "current_trial": 132, "dateTime": 1513292577643, "trialdata": {"rt": -1, "stimulus": "<p id=\"stim\">SUBWAY</p>", "key_press": -1, "type": "PRES_VIS", "word": "subway", "wordID": 1399, "conditions": [12, 1600, "v", 12000], "trial": 3, "serialpos": 3, "trial_type": "single-stim", "trial_index": 132, "time_elapsed": 729357, "internal_node_id": "0.0-96.0"}}, {"uniqueid": "MTK1192:3T3IWE1XG7UTK6N2OYHTVCDSCF0QTN", "current_trial": 133, "dateTime": 1513292580237, "trialdata": {"rt": -1, "stimulus": "<p id=\"stim\">PIGEON</p>", "key_press": -1, "type": "PRES_VIS", "word": "pigeon", "wordID": 1064, "conditions": [12, 1600, "v", 12000], "trial": 3, "serialpos": 4, "trial_type": "single-stim", "trial_index": 133, "time_elapsed": 731951, "internal_node_id": "0.0-97.0"}}, {"uniqueid": "MTK1192:3T3IWE1XG7UTK6N2OYHTVCDSCF0QTN", "current_trial": 134, "dateTime": 1513292582965, "trialdata": {"rt": -1, "stimulus": "<p id=\"stim\">LASER</p>", "key_press": -1, "type": "PRES_VIS", "word": "laser", "wordID": 800, "conditions": [12, 1600, "v", 12000], "trial": 3, "serialpos": 5, "trial_type": "single-stim", "trial_index": 134, "time_elapsed": 734679, "internal_node_id": "0.0-98.0"}}, {"uniqueid": "MTK1192:3T3IWE1XG7UTK6N2OYHTVCDSCF0QTN", "current_trial": 135, "dateTime": 1513292585711, "trialdata": {"rt": -1, "stimulus": "<p id=\"stim\">ROBIN</p>", "key_press": -1, "type": "PRES_VIS", "word": "robin", "wordID": 1198, "conditions": [12, 1600, "v", 12000], "trial": 3, "serialpos": 6, "trial_type": "single-stim", "trial_index": 135, "time_elapsed": 737425, "internal_node_id": "0.0-99.0"}}, {"uniqueid": "MTK1192:3T3IWE1XG7UTK6N2OYHTVCDSCF0QTN", "current_trial": 136, "dateTime": 1513292588189, "trialdata": {"rt": -1, "stimulus": "<p id=\"stim\">LEOPARD</p>", "key_press": -1, "type": "PRES_VIS", "word": "leopard", "wordID": 811, "conditions": [12, 1600, "v", 12000], "trial": 3, "serialpos": 7, "trial_type": "single-stim", "trial_index": 136, "time_elapsed": 739903, "internal_node_id": "0.0-100.0"}}, {"uniqueid": "MTK1192:3T3IWE1XG7UTK6N2OYHTVCDSCF0QTN", "current_trial": 137, "dateTime": 1513292590813, "trialdata": {"rt": -1, "stimulus": "<p id=\"stim\">TYPIST</p>", "key_press": -1, "type": "PRES_VIS", "word": "typist", "wordID": 1531, "conditions": [12, 1600, "v", 12000], "trial": 3, "serialpos": 8, "trial_type": "single-stim", "trial_index": 137, "time_elapsed": 742526, "internal_node_id": "0.0-101.0"}}, {"uniqueid": "MTK1192:3T3IWE1XG7UTK6N2OYHTVCDSCF0QTN", "current_trial": 138, "dateTime": 1513292593372, "trialdata": {"rt": -1, "stimulus": "<p id=\"stim\">MAILMAN</p>", "key_press": -1, "type": "PRES_VIS", "word": "mailman", "wordID": 857, "conditions": [12, 1600, "v", 12000], "trial": 3, "serialpos": 9, "trial_type": "single-stim", "trial_index": 138, "time_elapsed": 745086, "internal_node_id": "0.0-102.0"}}, {"uniqueid": "MTK1192:3T3IWE1XG7UTK6N2OYHTVCDSCF0QTN", "current_trial": 139, "dateTime": 1513292596036, "trialdata": {"rt": -1, "stimulus": "<p id=\"stim\">CHIPMUNK</p>", "key_press": -1, "type": "PRES_VIS", "word": "chipmunk", "wordID": 303, "conditions": [12, 1600, "v", 12000], "trial": 3, "serialpos": 10, "trial_type": "single-stim", "trial_index": 139, "time_elapsed": 747749, "internal_node_id": "0.0-103.0"}}, {"uniqueid": "MTK1192:3T3IWE1XG7UTK6N2OYHTVCDSCF0QTN", "current_trial": 140, "dateTime": 1513292598782, "trialdata": {"rt": -1, "stimulus": "<p id=\"stim\">ZEBRA</p>", "key_press": -1, "type": "PRES_VIS", "word": "zebra", "wordID": 1634, "conditions": [12, 1600, "v", 12000], "trial": 3, "serialpos": 11, "trial_type": "single-stim", "trial_index": 140, "time_elapsed": 750496, "internal_node_id": "0.0-104.0"}}, {"uniqueid": "MTK1192:3T3IWE1XG7UTK6N2OYHTVCDSCF0QTN", "current_trial": 141, "dateTime": 1513292601074, "trialdata": {"rt": -1, "stimulus": "", "key_press": -1, "type": "PRE_RECALL_DELAY", "trial_type": "single-stim", "trial_index": 141, "time_elapsed": 752788, "internal_node_id": "0.0-105.0-0.0"}}, {"uniqueid": "MTK1192:3T3IWE1XG7UTK6N2OYHTVCDSCF0QTN", "current_trial": 142, "dateTime": 1513292601576, "trialdata": {"rt": -1000, "stimulus": "/static/audio/400Hz.wav", "key_press": -1, "type": "PRE_RECALL_ALERT", "trial_type": "single-audio", "trial_index": 142, "time_elapsed": 753290, "internal_node_id": "0.0-106.0"}}, {"uniqueid": "MTK1192:3T3IWE1XG7UTK6N2OYHTVCDSCF0QTN", "current_trial": 143, "dateTime": 1513292661586, "trialdata": {"rt": [10016, 12909, 15961, 23830, 31895, 37541], "recwords": ["teacher", "student", "subway", "robin", "mailman", "zebra"], "type": "FREE_RECALL", "conditions": [12, 1600, "v", 12000], "trial": 3, "trial_type": "free-recall", "trial_index": 143, "time_elapsed": 813298, "internal_node_id": "0.0-107.0-0.0"}}, {"uniqueid": "MTK1192:3T3IWE1XG7UTK6N2OYHTVCDSCF0QTN", "current_trial": 144, "dateTime": 1513292665793, "trialdata": {"rt": 2201, "key_press": 32, "type": "INSTRUCTIONS", "trial_type": "text", "trial_index": 144, "time_elapsed": 817507, "internal_node_id": "0.0-108.0"}}, {"uniqueid": "MTK1192:3T3IWE1XG7UTK6N2OYHTVCDSCF0QTN", "current_trial": 145, "dateTime": 1513292679798, "trialdata": {"rt": [3414, 6496, 9195, 11883], "responses": ["21", "14", "14", "9"], "num1": [5, 3, 3, 2, 8], "num2": [7, 4, 3, 4, 4], "num3": [9, 7, 8, 3, 8], "type": "DISTRACTOR", "conditions": [24, 800, "v", 12000], "trial": 4, "trial_type": "math-distractor", "trial_index": 145, "time_elapsed": 831512, "internal_node_id": "0.0-109.0"}}, {"uniqueid": "MTK1192:3T3IWE1XG7UTK6N2OYHTVCDSCF0QTN", "current_trial": 146, "dateTime": 1513292682804, "trialdata": {"rt": -1, "stimulus": "<p id=\"stim\">10</p>", "key_press": -1, "trial_type": "single-stim", "trial_index": 146, "time_elapsed": 834518, "internal_node_id": "0.0-110.0-0.0"}}, {"uniqueid": "MTK1192:3T3IWE1XG7UTK6N2OYHTVCDSCF0QTN", "current_trial": 147, "dateTime": 1513292683808, "trialdata": {"rt": -1, "stimulus": "<p id=\"stim\">9</p>", "key_press": -1, "trial_type": "single-stim", "trial_index": 147, "time_elapsed": 835522, "internal_node_id": "0.0-110.0-1.0"}}, {"uniqueid": "MTK1192:3T3IWE1XG7UTK6N2OYHTVCDSCF0QTN", "current_trial": 148, "dateTime": 1513292684812, "trialdata": {"rt": -1, "stimulus": "<p id=\"stim\">8</p>", "key_press": -1, "trial_type": "single-stim", "trial_index": 148, "time_elapsed": 836526, "internal_node_id": "0.0-110.0-2.0"}}, {"uniqueid": "MTK1192:3T3IWE1XG7UTK6N2OYHTVCDSCF0QTN", "current_trial": 149, "dateTime": 1513292685816, "trialdata": {"rt": -1, "stimulus": "<p id=\"stim\">7</p>", "key_press": -1, "trial_type": "single-stim", "trial_index": 149, "time_elapsed": 837530, "internal_node_id": "0.0-110.0-3.0"}}, {"uniqueid": "MTK1192:3T3IWE1XG7UTK6N2OYHTVCDSCF0QTN", "current_trial": 150, "dateTime": 1513292686820, "trialdata": {"rt": -1, "stimulus": "<p id=\"stim\">6</p>", "key_press": -1, "trial_type": "single-stim", "trial_index": 150, "time_elapsed": 838534, "internal_node_id": "0.0-110.0-4.0"}}, {"uniqueid": "MTK1192:3T3IWE1XG7UTK6N2OYHTVCDSCF0QTN", "current_trial": 151, "dateTime": 1513292687825, "trialdata": {"rt": -1, "stimulus": "<p id=\"stim\">5</p>", "key_press": -1, "trial_type": "single-stim", "trial_index": 151, "time_elapsed": 839539, "internal_node_id": "0.0-110.0-5.0"}}, {"uniqueid": "MTK1192:3T3IWE1XG7UTK6N2OYHTVCDSCF0QTN", "current_trial": 152, "dateTime": 1513292688828, "trialdata": {"rt": -1, "stimulus": "<p id=\"stim\">4</p>", "key_press": -1, "trial_type": "single-stim", "trial_index": 152, "time_elapsed": 840542, "internal_node_id": "0.0-110.0-6.0"}}, {"uniqueid": "MTK1192:3T3IWE1XG7UTK6N2OYHTVCDSCF0QTN", "current_trial": 153, "dateTime": 1513292689832, "trialdata": {"rt": -1, "stimulus": "<p id=\"stim\">3</p>", "key_press": -1, "trial_type": "single-stim", "trial_index": 153, "time_elapsed": 841546, "internal_node_id": "0.0-110.0-7.0"}}, {"uniqueid": "MTK1192:3T3IWE1XG7UTK6N2OYHTVCDSCF0QTN", "current_trial": 154, "dateTime": 1513292690837, "trialdata": {"rt": -1, "stimulus": "<p id=\"stim\">2</p>", "key_press": -1, "trial_type": "single-stim", "trial_index": 154, "time_elapsed": 842551, "internal_node_id": "0.0-110.0-8.0"}}, {"uniqueid": "MTK1192:3T3IWE1XG7UTK6N2OYHTVCDSCF0QTN", "current_trial": 155, "dateTime": 1513292691841, "trialdata": {"rt": -1, "stimulus": "<p id=\"stim\">1</p>", "key_press": -1, "trial_type": "single-stim", "trial_index": 155, "time_elapsed": 843555, "internal_node_id": "0.0-110.0-9.0"}}, {"uniqueid": "MTK1192:3T3IWE1XG7UTK6N2OYHTVCDSCF0QTN", "current_trial": 156, "dateTime": 1513292693344, "trialdata": {"rt": -1, "stimulus": "<p id=\"stim\">+</p>", "key_press": -1, "type": "FIXATION", "trial_type": "single-stim", "trial_index": 156, "time_elapsed": 845058, "internal_node_id": "0.0-111.0-0.0"}}, {"uniqueid": "MTK1192:3T3IWE1XG7UTK6N2OYHTVCDSCF0QTN", "current_trial": 157, "dateTime": 1513292694145, "trialdata": {"rt": -1, "stimulus": "<p id=\"stim\">PERFUME</p>", "key_press": -1, "type": "PRES_VIS", "word": "perfume", "wordID": 1048, "conditions": [24, 800, "v", 12000], "trial": 4, "serialpos": 0, "trial_type": "single-stim", "trial_index": 157, "time_elapsed": 845859, "internal_node_id": "0.0-112.0"}}, {"uniqueid": "MTK1192:3T3IWE1XG7UTK6N2OYHTVCDSCF0QTN", "current_trial": 158, "dateTime": 1513292695974, "trialdata": {"rt": -1, "stimulus": "<p id=\"stim\">FRAGRANCE</p>", "key_press": -1, "type": "PRES_VIS", "word": "fragrance", "wordID": 598, "conditions": [24, 800, "v", 12000], "trial": 4, "serialpos": 1, "trial_type": "single-stim", "trial_index": 158, "time_elapsed": 847688, "internal_node_id": "0.0-113.0"}}, {"uniqueid": "MTK1192:3T3IWE1XG7UTK6N2OYHTVCDSCF0QTN", "current_trial": 159, "dateTime": 1513292697657, "trialdata": {"rt": -1, "stimulus": "<p id=\"stim\">BRACES</p>", "key_press": -1, "type": "PRES_VIS", "word": "braces", "wordID": 163, "conditions": [24, 800, "v", 12000], "trial": 4, "serialpos": 2, "trial_type": "single-stim", "trial_index": 159, "time_elapsed": 849371, "internal_node_id": "0.0-114.0"}}, {"uniqueid": "MTK1192:3T3IWE1XG7UTK6N2OYHTVCDSCF0QTN", "current_trial": 160, "dateTime": 1513292699393, "trialdata": {"rt": -1, "stimulus": "<p id=\"stim\">BEAKER</p>", "key_press": -1, "type": "PRES_VIS", "word": "beaker", "wordID": 103, "conditions": [24, 800, "v", 12000], "trial": 4, "serialpos": 3, "trial_type": "single-stim", "trial_index": 160, "time_elapsed": 851106, "internal_node_id": "0.0-115.0"}}, {"uniqueid": "MTK1192:3T3IWE1XG7UTK6N2OYHTVCDSCF0QTN", "current_trial": 161, "dateTime": 1513292701163, "trialdata": {"rt": -1, "stimulus": "<p id=\"stim\">CLIMBER</p>", "key_press": -1, "type": "PRES_VIS", "word": "climber", "wordID": 322, "conditions": [24, 800, "v", 12000], "trial": 4, "serialpos": 4, "trial_type": "single-stim", "trial_index": 161, "time_elapsed": 852877, "internal_node_id": "0.0-116.0"}}, {"uniqueid": "MTK1192:3T3IWE1XG7UTK6N2OYHTVCDSCF0QTN", "current_trial": 162, "dateTime": 1513292703008, "trialdata": {"rt": -1, "stimulus": "<p id=\"stim\">CRATER</p>", "key_press": -1, "type": "PRES_VIS", "word": "crater", "wordID": 399, "conditions": [24, 800, "v", 12000], "trial": 4, "serialpos": 5, "trial_type": "single-stim", "trial_index": 162, "time_elapsed": 854722, "internal_node_id": "0.0-117.0"}}, {"uniqueid": "MTK1192:3T3IWE1XG7UTK6N2OYHTVCDSCF0QTN", "current_trial": 163, "dateTime": 1513292705006, "trialdata": {"rt": -1, "stimulus": "<p id=\"stim\">WORLD</p>", "key_press": -1, "type": "PRES_VIS", "word": "world", "wordID": 1621, "conditions": [24, 800, "v", 12000], "trial": 4, "serialpos": 6, "trial_type": "single-stim", "trial_index": 163, "time_elapsed": 856719, "internal_node_id": "0.0-118.0"}}, {"uniqueid": "MTK1192:3T3IWE1XG7UTK6N2OYHTVCDSCF0QTN", "current_trial": 164, "dateTime": 1513292706769, "trialdata": {"rt": -1, "stimulus": "<p id=\"stim\">BATHTUB</p>", "key_press": -1, "type": "PRES_VIS", "word": "bathtub", "wordID": 99, "conditions": [24, 800, "v", 12000], "trial": 4, "serialpos": 7, "trial_type": "single-stim", "trial_index": 164, "time_elapsed": 858483, "internal_node_id": "0.0-119.0"}}, {"uniqueid": "MTK1192:3T3IWE1XG7UTK6N2OYHTVCDSCF0QTN", "current_trial": 165, "dateTime": 1513292708470, "trialdata": {"rt": -1, "stimulus": "<p id=\"stim\">YARN</p>", "key_press": -1, "type": "PRES_VIS", "word": "yarn", "wordID": 1630, "conditions": [24, 800, "v", 12000], "trial": 4, "serialpos": 8, "trial_type": "single-stim", "trial_index": 165, "time_elapsed": 860184, "internal_node_id": "0.0-120.0"}}, {"uniqueid": "MTK1192:3T3IWE1XG7UTK6N2OYHTVCDSCF0QTN", "current_trial": 166, "dateTime": 1513292710235, "trialdata": {"rt": -1, "stimulus": "<p id=\"stim\">COD</p>", "key_press": -1, "type": "PRES_VIS", "word": "cod", "wordID": 339, "conditions": [24, 800, "v", 12000], "trial": 4, "serialpos": 9, "trial_type": "single-stim", "trial_index": 166, "time_elapsed": 861949, "internal_node_id": "0.0-121.0"}}, {"uniqueid": "MTK1192:3T3IWE1XG7UTK6N2OYHTVCDSCF0QTN", "current_trial": 167, "dateTime": 1513292712022, "trialdata": {"rt": -1, "stimulus": "<p id=\"stim\">GLOBE</p>", "key_press": -1, "type": "PRES_VIS", "word": "globe", "wordID": 640, "conditions": [24, 800, "v", 12000], "trial": 4, "serialpos": 10, "trial_type": "single-stim", "trial_index": 167, "time_elapsed": 863736, "internal_node_id": "0.0-122.0"}}, {"uniqueid": "MTK1192:3T3IWE1XG7UTK6N2OYHTVCDSCF0QTN", "current_trial": 168, "dateTime": 1513292713955, "trialdata": {"rt": -1, "stimulus": "<p id=\"stim\">LEG</p>", "key_press": -1, "type": "PRES_VIS", "word": "leg", "wordID": 808, "conditions": [24, 800, "v", 12000], "trial": 4, "serialpos": 11, "trial_type": "single-stim", "trial_index": 168, "time_elapsed": 865669, "internal_node_id": "0.0-123.0"}}, {"uniqueid": "MTK1192:3T3IWE1XG7UTK6N2OYHTVCDSCF0QTN", "current_trial": 169, "dateTime": 1513292715905, "trialdata": {"rt": -1, "stimulus": "<p id=\"stim\">SPOOL</p>", "key_press": -1, "type": "PRES_VIS", "word": "spool", "wordID": 1355, "conditions": [24, 800, "v", 12000], "trial": 4, "serialpos": 12, "trial_type": "single-stim", "trial_index": 169, "time_elapsed": 867619, "internal_node_id": "0.0-124.0"}}, {"uniqueid": "MTK1192:3T3IWE1XG7UTK6N2OYHTVCDSCF0QTN", "current_trial": 170, "dateTime": 1513292717769, "trialdata": {"rt": -1, "stimulus": "<p id=\"stim\">CRUTCH</p>", "key_press": -1, "type": "PRES_VIS", "word": "crutch", "wordID": 416, "conditions": [24, 800, "v", 12000], "trial": 4, "serialpos": 13, "trial_type": "single-stim", "trial_index": 170, "time_elapsed": 869482, "internal_node_id": "0.0-125.0"}}, {"uniqueid": "MTK1192:3T3IWE1XG7UTK6N2OYHTVCDSCF0QTN", "current_trial": 171, "dateTime": 1513292719713, "trialdata": {"rt": -1, "stimulus": "<p id=\"stim\">POPCORN</p>", "key_press": -1, "type": "PRES_VIS", "word": "popcorn", "wordID": 1103, "conditions": [24, 800, "v", 12000], "trial": 4, "serialpos": 14, "trial_type": "single-stim", "trial_index": 171, "time_elapsed": 871427, "internal_node_id": "0.0-126.0"}}, {"uniqueid": "MTK1192:3T3IWE1XG7UTK6N2OYHTVCDSCF0QTN", "current_trial": 172, "dateTime": 1513292721506, "trialdata": {"rt": -1, "stimulus": "<p id=\"stim\">TOASTER</p>", "key_press": -1, "type": "PRES_VIS", "word": "toaster", "wordID": 1471, "conditions": [24, 800, "v", 12000], "trial": 4, "serialpos": 15, "trial_type": "single-stim", "trial_index": 172, "time_elapsed": 873220, "internal_node_id": "0.0-127.0"}}, {"uniqueid": "MTK1192:3T3IWE1XG7UTK6N2OYHTVCDSCF0QTN", "current_trial": 173, "dateTime": 1513292723190, "trialdata": {"rt": -1, "stimulus": "<p id=\"stim\">CRICKET</p>", "key_press": -1, "type": "PRES_VIS", "word": "cricket", "wordID": 407, "conditions": [24, 800, "v", 12000], "trial": 4, "serialpos": 16, "trial_type": "single-stim", "trial_index": 173, "time_elapsed": 874903, "internal_node_id": "0.0-128.0"}}, {"uniqueid": "MTK1192:3T3IWE1XG7UTK6N2OYHTVCDSCF0QTN", "current_trial": 174, "dateTime": 1513292725128, "trialdata": {"rt": -1, "stimulus": "<p id=\"stim\">TOURIST</p>", "key_press": -1, "type": "PRES_VIS", "word": "tourist", "wordID": 1487, "conditions": [24, 800, "v", 12000], "trial": 4, "serialpos": 17, "trial_type": "single-stim", "trial_index": 174, "time_elapsed": 876842, "internal_node_id": "0.0-129.0"}}, {"uniqueid": "MTK1192:3T3IWE1XG7UTK6N2OYHTVCDSCF0QTN", "current_trial": 175, "dateTime": 1513292726922, "trialdata": {"rt": -1, "stimulus": "<p id=\"stim\">BANK</p>", "key_press": -1, "type": "PRES_VIS", "word": "bank", "wordID": 82, "conditions": [24, 800, "v", 12000], "trial": 4, "serialpos": 18, "trial_type": "single-stim", "trial_index": 175, "time_elapsed": 878636, "internal_node_id": "0.0-130.0"}}, {"uniqueid": "MTK1192:3T3IWE1XG7UTK6N2OYHTVCDSCF0QTN", "current_trial": 176, "dateTime": 1513292728628, "trialdata": {"rt": -1, "stimulus": "<p id=\"stim\">HUSBAND</p>", "key_press": -1, "type": "PRES_VIS", "word": "husband", "wordID": 727, "conditions": [24, 800, "v", 12000], "trial": 4, "serialpos": 19, "trial_type": "single-stim", "trial_index": 176, "time_elapsed": 880342, "internal_node_id": "0.0-131.0"}}, {"uniqueid": "MTK1192:3T3IWE1XG7UTK6N2OYHTVCDSCF0QTN", "current_trial": 177, "dateTime": 1513292730259, "trialdata": {"rt": -1, "stimulus": "<p id=\"stim\">SUNRISE</p>", "key_press": -1, "type": "PRES_VIS", "word": "sunrise", "wordID": 1406, "conditions": [24, 800, "v", 12000], "trial": 4, "serialpos": 20, "trial_type": "single-stim", "trial_index": 177, "time_elapsed": 881973, "internal_node_id": "0.0-132.0"}}, {"uniqueid": "MTK1192:3T3IWE1XG7UTK6N2OYHTVCDSCF0QTN", "current_trial": 178, "dateTime": 1513292731937, "trialdata": {"rt": -1, "stimulus": "<p id=\"stim\">SUNSET</p>", "key_press": -1, "type": "PRES_VIS", "word": "sunset", "wordID": 1407, "conditions": [24, 800, "v", 12000], "trial": 4, "serialpos": 21, "trial_type": "single-stim", "trial_index": 178, "time_elapsed": 883651, "internal_node_id": "0.0-133.0"}}, {"uniqueid": "MTK1192:3T3IWE1XG7UTK6N2OYHTVCDSCF0QTN", "current_trial": 179, "dateTime": 1513292733864, "trialdata": {"rt": -1, "stimulus": "<p id=\"stim\">GRAPE</p>", "key_press": -1, "type": "PRES_VIS", "word": "grape", "wordID": 653, "conditions": [24, 800, "v", 12000], "trial": 4, "serialpos": 22, "trial_type": "single-stim", "trial_index": 179, "time_elapsed": 885577, "internal_node_id": "0.0-134.0"}}, {"uniqueid": "MTK1192:3T3IWE1XG7UTK6N2OYHTVCDSCF0QTN", "current_trial": 180, "dateTime": 1513292735657, "trialdata": {"rt": -1, "stimulus": "<p id=\"stim\">SPOUSE</p>", "key_press": -1, "type": "PRES_VIS", "word": "spouse", "wordID": 1357, "conditions": [24, 800, "v", 12000], "trial": 4, "serialpos": 23, "trial_type": "single-stim", "trial_index": 180, "time_elapsed": 887371, "internal_node_id": "0.0-135.0"}}, {"uniqueid": "MTK1192:3T3IWE1XG7UTK6N2OYHTVCDSCF0QTN", "current_trial": 181, "dateTime": 1513292737851, "trialdata": {"rt": -1, "stimulus": "", "key_press": -1, "type": "PRE_RECALL_DELAY", "trial_type": "single-stim", "trial_index": 181, "time_elapsed": 889565, "internal_node_id": "0.0-136.0-0.0"}}, {"uniqueid": "MTK1192:3T3IWE1XG7UTK6N2OYHTVCDSCF0QTN", "current_trial": 182, "dateTime": 1513292738353, "trialdata": {"rt": -1000, "stimulus": "/static/audio/400Hz.wav", "key_press": -1, "type": "PRE_RECALL_ALERT", "trial_type": "single-audio", "trial_index": 182, "time_elapsed": 890067, "internal_node_id": "0.0-137.0"}}, {"uniqueid": "MTK1192:3T3IWE1XG7UTK6N2OYHTVCDSCF0QTN", "current_trial": 183, "dateTime": 1513292798362, "trialdata": {"rt": [11497, 14926, 17809, 24789, 36332, 40247, 43627, 46935, 49094], "recwords": ["braces", "climber", "worl", "bathtub", "popcorn", "tourist", "husband", "sunrise", "sunset"], "type": "FREE_RECALL", "conditions": [24, 800, "v", 12000], "trial": 4, "trial_type": "free-recall", "trial_index": 183, "time_elapsed": 950073, "internal_node_id": "0.0-138.0-0.0"}}, {"uniqueid": "MTK1192:3T3IWE1XG7UTK6N2OYHTVCDSCF0QTN", "current_trial": 184, "dateTime": 1513292815086, "trialdata": {"rt": 14718, "key_press": 32, "type": "INSTRUCTIONS", "trial_type": "text", "trial_index": 184, "time_elapsed": 966799, "internal_node_id": "0.0-139.0"}}, {"uniqueid": "MTK1192:3T3IWE1XG7UTK6N2OYHTVCDSCF0QTN", "current_trial": 185, "dateTime": 1513292841096, "trialdata": {"rt": [2896, 9776, 12918, 15602, 18772, 22901], "responses": ["18", "24", "10", "17", "10", "25"], "num1": [6, 9, 3, 5, 3, 7, 7], "num2": [8, 7, 6, 3, 6, 9, 1], "num3": [4, 7, 1, 9, 1, 9, 6], "type": "DISTRACTOR", "conditions": [12, 1600, "a", 24000], "trial": 5, "trial_type": "math-distractor", "trial_index": 185, "time_elapsed": 992810, "internal_node_id": "0.0-140.0"}}, {"uniqueid": "MTK1192:3T3IWE1XG7UTK6N2OYHTVCDSCF0QTN", "current_trial": 186, "dateTime": 1513292844104, "trialdata": {"rt": -1, "stimulus": "<p id=\"stim\">10</p>", "key_press": -1, "trial_type": "single-stim", "trial_index": 186, "time_elapsed": 995817, "internal_node_id": "0.0-141.0-0.0"}}, {"uniqueid": "MTK1192:3T3IWE1XG7UTK6N2OYHTVCDSCF0QTN", "current_trial": 187, "dateTime": 1513292845107, "trialdata": {"rt": -1, "stimulus": "<p id=\"stim\">9</p>", "key_press": -1, "trial_type": "single-stim", "trial_index": 187, "time_elapsed": 996821, "internal_node_id": "0.0-141.0-1.0"}}, {"uniqueid": "MTK1192:3T3IWE1XG7UTK6N2OYHTVCDSCF0QTN", "current_trial": 188, "dateTime": 1513292846111, "trialdata": {"rt": -1, "stimulus": "<p id=\"stim\">8</p>", "key_press": -1, "trial_type": "single-stim", "trial_index": 188, "time_elapsed": 997825, "internal_node_id": "0.0-141.0-2.0"}}, {"uniqueid": "MTK1192:3T3IWE1XG7UTK6N2OYHTVCDSCF0QTN", "current_trial": 189, "dateTime": 1513292847115, "trialdata": {"rt": -1, "stimulus": "<p id=\"stim\">7</p>", "key_press": -1, "trial_type": "single-stim", "trial_index": 189, "time_elapsed": 998829, "internal_node_id": "0.0-141.0-3.0"}}, {"uniqueid": "MTK1192:3T3IWE1XG7UTK6N2OYHTVCDSCF0QTN", "current_trial": 190, "dateTime": 1513292848119, "trialdata": {"rt": -1, "stimulus": "<p id=\"stim\">6</p>", "key_press": -1, "trial_type": "single-stim", "trial_index": 190, "time_elapsed": 999833, "internal_node_id": "0.0-141.0-4.0"}}, {"uniqueid": "MTK1192:3T3IWE1XG7UTK6N2OYHTVCDSCF0QTN", "current_trial": 191, "dateTime": 1513292849123, "trialdata": {"rt": -1, "stimulus": "<p id=\"stim\">5</p>", "key_press": -1, "trial_type": "single-stim", "trial_index": 191, "time_elapsed": 1000837, "internal_node_id": "0.0-141.0-5.0"}}, {"uniqueid": "MTK1192:3T3IWE1XG7UTK6N2OYHTVCDSCF0QTN", "current_trial": 192, "dateTime": 1513292850127, "trialdata": {"rt": -1, "stimulus": "<p id=\"stim\">4</p>", "key_press": -1, "trial_type": "single-stim", "trial_index": 192, "time_elapsed": 1001841, "internal_node_id": "0.0-141.0-6.0"}}, {"uniqueid": "MTK1192:3T3IWE1XG7UTK6N2OYHTVCDSCF0QTN", "current_trial": 193, "dateTime": 1513292851131, "trialdata": {"rt": -1, "stimulus": "<p id=\"stim\">3</p>", "key_press": -1, "trial_type": "single-stim", "trial_index": 193, "time_elapsed": 1002845, "internal_node_id": "0.0-141.0-7.0"}}, {"uniqueid": "MTK1192:3T3IWE1XG7UTK6N2OYHTVCDSCF0QTN", "current_trial": 194, "dateTime": 1513292852136, "trialdata": {"rt": -1, "stimulus": "<p id=\"stim\">2</p>", "key_press": -1, "trial_type": "single-stim", "trial_index": 194, "time_elapsed": 1003850, "internal_node_id": "0.0-141.0-8.0"}}, {"uniqueid": "MTK1192:3T3IWE1XG7UTK6N2OYHTVCDSCF0QTN", "current_trial": 195, "dateTime": 1513292853139, "trialdata": {"rt": -1, "stimulus": "<p id=\"stim\">1</p>", "key_press": -1, "trial_type": "single-stim", "trial_index": 195, "time_elapsed": 1004853, "internal_node_id": "0.0-141.0-9.0"}}, {"uniqueid": "MTK1192:3T3IWE1XG7UTK6N2OYHTVCDSCF0QTN", "current_trial": 196, "dateTime": 1513292854643, "trialdata": {"rt": -1, "stimulus": "<p id=\"stim\">+</p>", "key_press": -1, "type": "FIXATION", "trial_type": "single-stim", "trial_index": 196, "time_elapsed": 1006357, "internal_node_id": "0.0-142.0-0.0"}}, {"uniqueid": "MTK1192:3T3IWE1XG7UTK6N2OYHTVCDSCF0QTN", "current_trial": 197, "dateTime": 1513292857188, "trialdata": {"rt": -1000, "stimulus": "/static/audio/wordpool/OFFICE.wav", "key_press": -1, "type": "PRES_AUD", "word": "office", "wordID": 971, "conditions": [12, 1600, "a", 24000], "trial": 5, "serialpos": 0, "trial_type": "single-audio", "trial_index": 197, "time_elapsed": 1008902, "internal_node_id": "0.0-143.0"}}, {"uniqueid": "MTK1192:3T3IWE1XG7UTK6N2OYHTVCDSCF0QTN", "current_trial": 198, "dateTime": 1513292859812, "trialdata": {"rt": -1000, "stimulus": "/static/audio/wordpool/TRACTOR.wav", "key_press": -1, "type": "PRES_AUD", "word": "tractor", "wordID": 1492, "conditions": [12, 1600, "a", 24000], "trial": 5, "serialpos": 1, "trial_type": "single-audio", "trial_index": 198, "time_elapsed": 1011526, "internal_node_id": "0.0-144.0"}}, {"uniqueid": "MTK1192:3T3IWE1XG7UTK6N2OYHTVCDSCF0QTN", "current_trial": 199, "dateTime": 1513292862454, "trialdata": {"rt": -1000, "stimulus": "/static/audio/wordpool/BULLET.wav", "key_press": -1, "type": "PRES_AUD", "word": "bullet", "wordID": 193, "conditions": [12, 1600, "a", 24000], "trial": 5, "serialpos": 2, "trial_type": "single-audio", "trial_index": 199, "time_elapsed": 1014168, "internal_node_id": "0.0-145.0"}}, {"uniqueid": "MTK1192:3T3IWE1XG7UTK6N2OYHTVCDSCF0QTN", "current_trial": 200, "dateTime": 1513292865059, "trialdata": {"rt": -1000, "stimulus": "/static/audio/wordpool/PADDING.wav", "key_press": -1, "type": "PRES_AUD", "word": "padding", "wordID": 998, "conditions": [12, 1600, "a", 24000], "trial": 5, "serialpos": 3, "trial_type": "single-audio", "trial_index": 200, "time_elapsed": 1016773, "internal_node_id": "0.0-146.0"}}, {"uniqueid": "MTK1192:3T3IWE1XG7UTK6N2OYHTVCDSCF0QTN", "current_trial": 201, "dateTime": 1513292867752, "trialdata": {"rt": -1000, "stimulus": "/static/audio/wordpool/RATTLE.wav", "key_press": -1, "type": "PRES_AUD", "word": "rattle", "wordID": 1169, "conditions": [12, 1600, "a", 24000], "trial": 5, "serialpos": 4, "trial_type": "single-audio", "trial_index": 201, "time_elapsed": 1019466, "internal_node_id": "0.0-147.0"}}, {"uniqueid": "MTK1192:3T3IWE1XG7UTK6N2OYHTVCDSCF0QTN", "current_trial": 202, "dateTime": 1513292870337, "trialdata": {"rt": -1000, "stimulus": "/static/audio/wordpool/TRUCK.wav", "key_press": -1, "type": "PRES_AUD", "word": "truck", "wordID": 1511, "conditions": [12, 1600, "a", 24000], "trial": 5, "serialpos": 5, "trial_type": "single-audio", "trial_index": 202, "time_elapsed": 1022051, "internal_node_id": "0.0-148.0"}}, {"uniqueid": "MTK1192:3T3IWE1XG7UTK6N2OYHTVCDSCF0QTN", "current_trial": 203, "dateTime": 1513292872990, "trialdata": {"rt": -1000, "stimulus": "/static/audio/wordpool/DRESSER.wav", "key_press": -1, "type": "PRES_AUD", "word": "dresser", "wordID": 495, "conditions": [12, 1600, "a", 24000], "trial": 5, "serialpos": 6, "trial_type": "single-audio", "trial_index": 203, "time_elapsed": 1024704, "internal_node_id": "0.0-149.0"}}, {"uniqueid": "MTK1192:3T3IWE1XG7UTK6N2OYHTVCDSCF0QTN", "current_trial": 204, "dateTime": 1513292875701, "trialdata": {"rt": -1000, "stimulus": "/static/audio/wordpool/CUPBOARD.wav", "key_press": -1, "type": "PRES_AUD", "word": "cupboard", "wordID": 424, "conditions": [12, 1600, "a", 24000], "trial": 5, "serialpos": 7, "trial_type": "single-audio", "trial_index": 204, "time_elapsed": 1027415, "internal_node_id": "0.0-150.0"}}, {"uniqueid": "MTK1192:3T3IWE1XG7UTK6N2OYHTVCDSCF0QTN", "current_trial": 205, "dateTime": 1513292878482, "trialdata": {"rt": -1000, "stimulus": "/static/audio/wordpool/NURSE.wav", "key_press": -1, "type": "PRES_AUD", "word": "nurse", "wordID": 962, "conditions": [12, 1600, "a", 24000], "trial": 5, "serialpos": 8, "trial_type": "single-audio", "trial_index": 205, "time_elapsed": 1030196, "internal_node_id": "0.0-151.0"}}, {"uniqueid": "MTK1192:3T3IWE1XG7UTK6N2OYHTVCDSCF0QTN", "current_trial": 206, "dateTime": 1513292881100, "trialdata": {"rt": -1000, "stimulus": "/static/audio/wordpool/SUMMIT.wav", "key_press": -1, "type": "PRES_AUD", "word": "summit", "wordID": 1404, "conditions": [12, 1600, "a", 24000], "trial": 5, "serialpos": 9, "trial_type": "single-audio", "trial_index": 206, "time_elapsed": 1032814, "internal_node_id": "0.0-152.0"}}, {"uniqueid": "MTK1192:3T3IWE1XG7UTK6N2OYHTVCDSCF0QTN", "current_trial": 207, "dateTime": 1513292883739, "trialdata": {"rt": -1000, "stimulus": "/static/audio/wordpool/MILDEW.wav", "key_press": -1, "type": "PRES_AUD", "word": "mildew", "wordID": 892, "conditions": [12, 1600, "a", 24000], "trial": 5, "serialpos": 10, "trial_type": "single-audio", "trial_index": 207, "time_elapsed": 1035453, "internal_node_id": "0.0-153.0"}}, {"uniqueid": "MTK1192:3T3IWE1XG7UTK6N2OYHTVCDSCF0QTN", "current_trial": 208, "dateTime": 1513292886505, "trialdata": {"rt": -1000, "stimulus": "/static/audio/wordpool/PISTON.wav", "key_press": -1, "type": "PRES_AUD", "word": "piston", "wordID": 1075, "conditions": [12, 1600, "a", 24000], "trial": 5, "serialpos": 11, "trial_type": "single-audio", "trial_index": 208, "time_elapsed": 1038219, "internal_node_id": "0.0-154.0"}}, {"uniqueid": "MTK1192:3T3IWE1XG7UTK6N2OYHTVCDSCF0QTN", "current_trial": 209, "dateTime": 1513292887805, "trialdata": {"rt": -1, "stimulus": "", "key_press": -1, "type": "PRE_RECALL_DELAY", "trial_type": "single-stim", "trial_index": 209, "time_elapsed": 1039519, "internal_node_id": "0.0-155.0-0.0"}}, {"uniqueid": "MTK1192:3T3IWE1XG7UTK6N2OYHTVCDSCF0QTN", "current_trial": 210, "dateTime": 1513292888307, "trialdata": {"rt": -1000, "stimulus": "/static/audio/400Hz.wav", "key_press": -1, "type": "PRE_RECALL_ALERT", "trial_type": "single-audio", "trial_index": 210, "time_elapsed": 1040021, "internal_node_id": "0.0-156.0"}}, {"uniqueid": "MTK1192:3T3IWE1XG7UTK6N2OYHTVCDSCF0QTN", "current_trial": 211, "dateTime": 1513292948319, "trialdata": {"rt": [10200, 14837, 23224, 31483, 35985, 41006, 58559], "recwords": ["office", "bullet", "truck", "nurse", "summit", "piston", "tractor"], "type": "FREE_RECALL", "conditions": [12, 1600, "a", 24000], "trial": 5, "trial_type": "free-recall", "trial_index": 211, "time_elapsed": 1100030, "internal_node_id": "0.0-157.0-0.0"}}, {"uniqueid": "MTK1192:3T3IWE1XG7UTK6N2OYHTVCDSCF0QTN", "current_trial": 212, "dateTime": 1513292954073, "trialdata": {"rt": 3749, "key_press": 32, "type": "INSTRUCTIONS", "trial_type": "text", "trial_index": 212, "time_elapsed": 1105787, "internal_node_id": "0.0-158.0"}}, {"uniqueid": "MTK1192:3T3IWE1XG7UTK6N2OYHTVCDSCF0QTN", "current_trial": 213, "dateTime": 1513292968080, "trialdata": {"rt": [3491, 8676, 11364], "responses": ["16", "25", "21"], "num1": [8, 9, 8, 8], "num2": [1, 8, 7, 9], "num3": [7, 8, 6, 3], "type": "DISTRACTOR", "conditions": [24, 800, "a", 12000], "trial": 6, "trial_type": "math-distractor", "trial_index": 213, "time_elapsed": 1119793, "internal_node_id": "0.0-159.0"}}, {"uniqueid": "MTK1192:3T3IWE1XG7UTK6N2OYHTVCDSCF0QTN", "current_trial": 214, "dateTime": 1513292971086, "trialdata": {"rt": -1, "stimulus": "<p id=\"stim\">10</p>", "key_press": -1, "trial_type": "single-stim", "trial_index": 214, "time_elapsed": 1122800, "internal_node_id": "0.0-160.0-0.0"}}, {"uniqueid": "MTK1192:3T3IWE1XG7UTK6N2OYHTVCDSCF0QTN", "current_trial": 215, "dateTime": 1513292972090, "trialdata": {"rt": -1, "stimulus": "<p id=\"stim\">9</p>", "key_press": -1, "trial_type": "single-stim", "trial_index": 215, "time_elapsed": 1123803, "internal_node_id": "0.0-160.0-1.0"}}, {"uniqueid": "MTK1192:3T3IWE1XG7UTK6N2OYHTVCDSCF0QTN", "current_trial": 216, "dateTime": 1513292973094, "trialdata": {"rt": -1, "stimulus": "<p id=\"stim\">8</p>", "key_press": -1, "trial_type": "single-stim", "trial_index": 216, "time_elapsed": 1124808, "internal_node_id": "0.0-160.0-2.0"}}, {"uniqueid": "MTK1192:3T3IWE1XG7UTK6N2OYHTVCDSCF0QTN", "current_trial": 217, "dateTime": 1513292974098, "trialdata": {"rt": -1, "stimulus": "<p id=\"stim\">7</p>", "key_press": -1, "trial_type": "single-stim", "trial_index": 217, "time_elapsed": 1125812, "internal_node_id": "0.0-160.0-3.0"}}, {"uniqueid": "MTK1192:3T3IWE1XG7UTK6N2OYHTVCDSCF0QTN", "current_trial": 218, "dateTime": 1513292975103, "trialdata": {"rt": -1, "stimulus": "<p id=\"stim\">6</p>", "key_press": -1, "trial_type": "single-stim", "trial_index": 218, "time_elapsed": 1126816, "internal_node_id": "0.0-160.0-4.0"}}, {"uniqueid": "MTK1192:3T3IWE1XG7UTK6N2OYHTVCDSCF0QTN", "current_trial": 219, "dateTime": 1513292976107, "trialdata": {"rt": -1, "stimulus": "<p id=\"stim\">5</p>", "key_press": -1, "trial_type": "single-stim", "trial_index": 219, "time_elapsed": 1127820, "internal_node_id": "0.0-160.0-5.0"}}, {"uniqueid": "MTK1192:3T3IWE1XG7UTK6N2OYHTVCDSCF0QTN", "current_trial": 220, "dateTime": 1513292977111, "trialdata": {"rt": -1, "stimulus": "<p id=\"stim\">4</p>", "key_press": -1, "trial_type": "single-stim", "trial_index": 220, "time_elapsed": 1128825, "internal_node_id": "0.0-160.0-6.0"}}, {"uniqueid": "MTK1192:3T3IWE1XG7UTK6N2OYHTVCDSCF0QTN", "current_trial": 221, "dateTime": 1513292978115, "trialdata": {"rt": -1, "stimulus": "<p id=\"stim\">3</p>", "key_press": -1, "trial_type": "single-stim", "trial_index": 221, "time_elapsed": 1129829, "internal_node_id": "0.0-160.0-7.0"}}, {"uniqueid": "MTK1192:3T3IWE1XG7UTK6N2OYHTVCDSCF0QTN", "current_trial": 222, "dateTime": 1513292979119, "trialdata": {"rt": -1, "stimulus": "<p id=\"stim\">2</p>", "key_press": -1, "trial_type": "single-stim", "trial_index": 222, "time_elapsed": 1130833, "internal_node_id": "0.0-160.0-8.0"}}, {"uniqueid": "MTK1192:3T3IWE1XG7UTK6N2OYHTVCDSCF0QTN", "current_trial": 223, "dateTime": 1513292980123, "trialdata": {"rt": -1, "stimulus": "<p id=\"stim\">1</p>", "key_press": -1, "trial_type": "single-stim", "trial_index": 223, "time_elapsed": 1131837, "internal_node_id": "0.0-160.0-9.0"}}, {"uniqueid": "MTK1192:3T3IWE1XG7UTK6N2OYHTVCDSCF0QTN", "current_trial": 224, "dateTime": 1513292981627, "trialdata": {"rt": -1, "stimulus": "<p id=\"stim\">+</p>", "key_press": -1, "type": "FIXATION", "trial_type": "single-stim", "trial_index": 224, "time_elapsed": 1133340, "internal_node_id": "0.0-161.0-0.0"}}, {"uniqueid": "MTK1192:3T3IWE1XG7UTK6N2OYHTVCDSCF0QTN", "current_trial": 225, "dateTime": 1513292983268, "trialdata": {"rt": -1000, "stimulus": "/static/audio/wordpool/AIRPORT.wav", "key_press": -1, "type": "PRES_AUD", "word": "airport", "wordID": 12, "conditions": [24, 800, "a", 12000], "trial": 6, "serialpos": 0, "trial_type": "single-audio", "trial_index": 225, "time_elapsed": 1134982, "internal_node_id": "0.0-162.0"}}, {"uniqueid": "MTK1192:3T3IWE1XG7UTK6N2OYHTVCDSCF0QTN", "current_trial": 226, "dateTime": 1513292984922, "trialdata": {"rt": -1000, "stimulus": "/static/audio/wordpool/KNAPSACK.wav", "key_press": -1, "type": "PRES_AUD", "word": "knapsack", "wordID": 782, "conditions": [24, 800, "a", 12000], "trial": 6, "serialpos": 1, "trial_type": "single-audio", "trial_index": 226, "time_elapsed": 1136636, "internal_node_id": "0.0-163.0"}}, {"uniqueid": "MTK1192:3T3IWE1XG7UTK6N2OYHTVCDSCF0QTN", "current_trial": 227, "dateTime": 1513292986673, "trialdata": {"rt": -1000, "stimulus": "/static/audio/wordpool/MOTEL.wav", "key_press": -1, "type": "PRES_AUD", "word": "motel", "wordID": 918, "conditions": [24, 800, "a", 12000], "trial": 6, "serialpos": 2, "trial_type": "single-audio", "trial_index": 227, "time_elapsed": 1138387, "internal_node_id": "0.0-164.0"}}, {"uniqueid": "MTK1192:3T3IWE1XG7UTK6N2OYHTVCDSCF0QTN", "current_trial": 228, "dateTime": 1513292988621, "trialdata": {"rt": -1000, "stimulus": "/static/audio/wordpool/COWBOY.wav", "key_press": -1, "type": "PRES_AUD", "word": "cowboy", "wordID": 394, "conditions": [24, 800, "a", 12000], "trial": 6, "serialpos": 3, "trial_type": "single-audio", "trial_index": 228, "time_elapsed": 1140335, "internal_node_id": "0.0-165.0"}}, {"uniqueid": "MTK1192:3T3IWE1XG7UTK6N2OYHTVCDSCF0QTN", "current_trial": 229, "dateTime": 1513292990345, "trialdata": {"rt": -1000, "stimulus": "/static/audio/wordpool/FRIEND.wav", "key_press": -1, "type": "PRES_AUD", "word": "friend", "wordID": 605, "conditions": [24, 800, "a", 12000], "trial": 6, "serialpos": 4, "trial_type": "single-audio", "trial_index": 229, "time_elapsed": 1142059, "internal_node_id": "0.0-166.0"}}, {"uniqueid": "MTK1192:3T3IWE1XG7UTK6N2OYHTVCDSCF0QTN", "current_trial": 230, "dateTime": 1513292992208, "trialdata": {"rt": -1000, "stimulus": "/static/audio/wordpool/WASP.wav", "key_press": -1, "type": "PRES_AUD", "word": "wasp", "wordID": 1592, "conditions": [24, 800, "a", 12000], "trial": 6, "serialpos": 5, "trial_type": "single-audio", "trial_index": 230, "time_elapsed": 1143922, "internal_node_id": "0.0-167.0"}}, {"uniqueid": "MTK1192:3T3IWE1XG7UTK6N2OYHTVCDSCF0QTN", "current_trial": 231, "dateTime": 1513292994165, "trialdata": {"rt": -1000, "stimulus": "/static/audio/wordpool/HORNET.wav", "key_press": -1, "type": "PRES_AUD", "word": "hornet", "wordID": 717, "conditions": [24, 800, "a", 12000], "trial": 6, "serialpos": 6, "trial_type": "single-audio", "trial_index": 231, "time_elapsed": 1145878, "internal_node_id": "0.0-168.0"}}, {"uniqueid": "MTK1192:3T3IWE1XG7UTK6N2OYHTVCDSCF0QTN", "current_trial": 232, "dateTime": 1513292996023, "trialdata": {"rt": -1000, "stimulus": "/static/audio/wordpool/SWORD.wav", "key_press": -1, "type": "PRES_AUD", "word": "sword", "wordID": 1422, "conditions": [24, 800, "a", 12000], "trial": 6, "serialpos": 7, "trial_type": "single-audio", "trial_index": 232, "time_elapsed": 1147736, "internal_node_id": "0.0-169.0"}}, {"uniqueid": "MTK1192:3T3IWE1XG7UTK6N2OYHTVCDSCF0QTN", "current_trial": 233, "dateTime": 1513292997741, "trialdata": {"rt": -1000, "stimulus": "/static/audio/wordpool/SPONGE.wav", "key_press": -1, "type": "PRES_AUD", "word": "sponge", "wordID": 1354, "conditions": [24, 800, "a", 12000], "trial": 6, "serialpos": 8, "trial_type": "single-audio", "trial_index": 233, "time_elapsed": 1149455, "internal_node_id": "0.0-170.0"}}, {"uniqueid": "MTK1192:3T3IWE1XG7UTK6N2OYHTVCDSCF0QTN", "current_trial": 234, "dateTime": 1513292999698, "trialdata": {"rt": -1000, "stimulus": "/static/audio/wordpool/BOYFRIEND.wav", "key_press": -1, "type": "PRES_AUD", "word": "boyfriend", "wordID": 161, "conditions": [24, 800, "a", 12000], "trial": 6, "serialpos": 9, "trial_type": "single-audio", "trial_index": 234, "time_elapsed": 1151412, "internal_node_id": "0.0-171.0"}}, {"uniqueid": "MTK1192:3T3IWE1XG7UTK6N2OYHTVCDSCF0QTN", "current_trial": 235, "dateTime": 1513293001311, "trialdata": {"rt": -1000, "stimulus": "/static/audio/wordpool/COBRA.wav", "key_press": -1, "type": "PRES_AUD", "word": "cobra", "wordID": 335, "conditions": [24, 800, "a", 12000], "trial": 6, "serialpos": 10, "trial_type": "single-audio", "trial_index": 235, "time_elapsed": 1153025, "internal_node_id": "0.0-172.0"}}, {"uniqueid": "MTK1192:3T3IWE1XG7UTK6N2OYHTVCDSCF0QTN", "current_trial": 236, "dateTime": 1513293003076, "trialdata": {"rt": -1000, "stimulus": "/static/audio/wordpool/LUMBER.wav", "key_press": -1, "type": "PRES_AUD", "word": "lumber", "wordID": 847, "conditions": [24, 800, "a", 12000], "trial": 6, "serialpos": 11, "trial_type": "single-audio", "trial_index": 236, "time_elapsed": 1154790, "internal_node_id": "0.0-173.0"}}, {"uniqueid": "MTK1192:3T3IWE1XG7UTK6N2OYHTVCDSCF0QTN", "current_trial": 237, "dateTime": 1513293005056, "trialdata": {"rt": -1000, "stimulus": "/static/audio/wordpool/ACTRESS.wav", "key_press": -1, "type": "PRES_AUD", "word": "actress", "wordID": 5, "conditions": [24, 800, "a", 12000], "trial": 6, "serialpos": 12, "trial_type": "single-audio", "trial_index": 237, "time_elapsed": 1156769, "internal_node_id": "0.0-174.0"}}, {"uniqueid": "MTK1192:3T3IWE1XG7UTK6N2OYHTVCDSCF0QTN", "current_trial": 238, "dateTime": 1513293007018, "trialdata": {"rt": -1000, "stimulus": "/static/audio/wordpool/HERO.wav", "key_press": -1, "type": "PRES_AUD", "word": "hero", "wordID": 705, "conditions": [24, 800, "a", 12000], "trial": 6, "serialpos": 13, "trial_type": "single-audio", "trial_index": 238, "time_elapsed": 1158732, "internal_node_id": "0.0-175.0"}}, {"uniqueid": "MTK1192:3T3IWE1XG7UTK6N2OYHTVCDSCF0QTN", "current_trial": 239, "dateTime": 1513293008835, "trialdata": {"rt": -1000, "stimulus": "/static/audio/wordpool/SNAKE.wav", "key_press": -1, "type": "PRES_AUD", "word": "snake", "wordID": 1332, "conditions": [24, 800, "a", 12000], "trial": 6, "serialpos": 14, "trial_type": "single-audio", "trial_index": 239, "time_elapsed": 1160549, "internal_node_id": "0.0-176.0"}}, {"uniqueid": "MTK1192:3T3IWE1XG7UTK6N2OYHTVCDSCF0QTN", "current_trial": 240, "dateTime": 1513293010687, "trialdata": {"rt": -1000, "stimulus": "/static/audio/wordpool/HUMAN.wav", "key_press": -1, "type": "PRES_AUD", "word": "human", "wordID": 725, "conditions": [24, 800, "a", 12000], "trial": 6, "serialpos": 15, "trial_type": "single-audio", "trial_index": 240, "time_elapsed": 1162401, "internal_node_id": "0.0-177.0"}}, {"uniqueid": "MTK1192:3T3IWE1XG7UTK6N2OYHTVCDSCF0QTN", "current_trial": 241, "dateTime": 1513293012380, "trialdata": {"rt": -1000, "stimulus": "/static/audio/wordpool/DRILL.wav", "key_press": -1, "type": "PRES_AUD", "word": "drill", "wordID": 496, "conditions": [24, 800, "a", 12000], "trial": 6, "serialpos": 16, "trial_type": "single-audio", "trial_index": 241, "time_elapsed": 1164094, "internal_node_id": "0.0-178.0"}}, {"uniqueid": "MTK1192:3T3IWE1XG7UTK6N2OYHTVCDSCF0QTN", "current_trial": 242, "dateTime": 1513293014216, "trialdata": {"rt": -1000, "stimulus": "/static/audio/wordpool/CABBAGE.wav", "key_press": -1, "type": "PRES_AUD", "word": "cabbage", "wordID": 209, "conditions": [24, 800, "a", 12000], "trial": 6, "serialpos": 17, "trial_type": "single-audio", "trial_index": 242, "time_elapsed": 1165930, "internal_node_id": "0.0-179.0"}}, {"uniqueid": "MTK1192:3T3IWE1XG7UTK6N2OYHTVCDSCF0QTN", "current_trial": 243, "dateTime": 1513293016055, "trialdata": {"rt": -1000, "stimulus": "/static/audio/wordpool/PATROL.wav", "key_press": -1, "type": "PRES_AUD", "word": "patrol", "wordID": 1026, "conditions": [24, 800, "a", 12000], "trial": 6, "serialpos": 18, "trial_type": "single-audio", "trial_index": 243, "time_elapsed": 1167769, "internal_node_id": "0.0-180.0"}}, {"uniqueid": "MTK1192:3T3IWE1XG7UTK6N2OYHTVCDSCF0QTN", "current_trial": 244, "dateTime": 1513293017757, "trialdata": {"rt": -1000, "stimulus": "/static/audio/wordpool/POLICE.wav", "key_press": -1, "type": "PRES_AUD", "word": "police", "wordID": 1097, "conditions": [24, 800, "a", 12000], "trial": 6, "serialpos": 19, "trial_type": "single-audio", "trial_index": 244, "time_elapsed": 1169471, "internal_node_id": "0.0-181.0"}}, {"uniqueid": "MTK1192:3T3IWE1XG7UTK6N2OYHTVCDSCF0QTN", "current_trial": 245, "dateTime": 1513293019627, "trialdata": {"rt": -1000, "stimulus": "/static/audio/wordpool/COUSIN.wav", "key_press": -1, "type": "PRES_AUD", "word": "cousin", "wordID": 391, "conditions": [24, 800, "a", 12000], "trial": 6, "serialpos": 20, "trial_type": "single-audio", "trial_index": 245, "time_elapsed": 1171341, "internal_node_id": "0.0-182.0"}}, {"uniqueid": "MTK1192:3T3IWE1XG7UTK6N2OYHTVCDSCF0QTN", "current_trial": 246, "dateTime": 1513293021386, "trialdata": {"rt": -1000, "stimulus": "/static/audio/wordpool/LETTUCE.wav", "key_press": -1, "type": "PRES_AUD", "word": "lettuce", "wordID": 813, "conditions": [24, 800, "a", 12000], "trial": 6, "serialpos": 21, "trial_type": "single-audio", "trial_index": 246, "time_elapsed": 1173100, "internal_node_id": "0.0-183.0"}}, {"uniqueid": "MTK1192:3T3IWE1XG7UTK6N2OYHTVCDSCF0QTN", "current_trial": 247, "dateTime": 1513293023046, "trialdata": {"rt": -1000, "stimulus": "/static/audio/wordpool/SCALPEL.wav", "key_press": -1, "type": "PRES_AUD", "word": "scalpel", "wordID": 1242, "conditions": [24, 800, "a", 12000], "trial": 6, "serialpos": 22, "trial_type": "single-audio", "trial_index": 247, "time_elapsed": 1174760, "internal_node_id": "0.0-184.0"}}, {"uniqueid": "MTK1192:3T3IWE1XG7UTK6N2OYHTVCDSCF0QTN", "current_trial": 248, "dateTime": 1513293024956, "trialdata": {"rt": -1000, "stimulus": "/static/audio/wordpool/VAGRANT.wav", "key_press": -1, "type": "PRES_AUD", "word": "vagrant", "wordID": 1543, "conditions": [24, 800, "a", 12000], "trial": 6, "serialpos": 23, "trial_type": "single-audio", "trial_index": 248, "time_elapsed": 1176670, "internal_node_id": "0.0-185.0"}}, {"uniqueid": "MTK1192:3T3IWE1XG7UTK6N2OYHTVCDSCF0QTN", "current_trial": 249, "dateTime": 1513293026228, "trialdata": {"rt": -1, "stimulus": "", "key_press": -1, "type": "PRE_RECALL_DELAY", "trial_type": "single-stim", "trial_index": 249, "time_elapsed": 1177942, "internal_node_id": "0.0-186.0-0.0"}}, {"uniqueid": "MTK1192:3T3IWE1XG7UTK6N2OYHTVCDSCF0QTN", "current_trial": 250, "dateTime": 1513293026729, "trialdata": {"rt": -1000, "stimulus": "/static/audio/400Hz.wav", "key_press": -1, "type": "PRE_RECALL_ALERT", "trial_type": "single-audio", "trial_index": 250, "time_elapsed": 1178443, "internal_node_id": "0.0-187.0"}}, {"uniqueid": "MTK1192:3T3IWE1XG7UTK6N2OYHTVCDSCF0QTN", "current_trial": 251, "dateTime": 1513293086742, "trialdata": {"rt": [8158, 10864, 13065, 17651, 19046, 25529, 30309, 32808, 42375, 49515], "recwords": ["airport", "motel", "cowboy", "wasp", "hornet", "boyfriend", "actress", "hero", "police", "lettuce"], "type": "FREE_RECALL", "conditions": [24, 800, "a", 12000], "trial": 6, "trial_type": "free-recall", "trial_index": 251, "time_elapsed": 1238452, "internal_node_id": "0.0-188.0-0.0"}}, {"uniqueid": "MTK1192:3T3IWE1XG7UTK6N2OYHTVCDSCF0QTN", "current_trial": 252, "dateTime": 1513293096033, "trialdata": {"rt": 7286, "key_press": 32, "type": "INSTRUCTIONS", "trial_type": "text", "trial_index": 252, "time_elapsed": 1247747, "internal_node_id": "0.0-189.0"}}, {"uniqueid": "MTK1192:3T3IWE1XG7UTK6N2OYHTVCDSCF0QTN", "current_trial": 253, "dateTime": 1513293122040, "trialdata": {"rt": [2294, 9265, 14944, 19848, 22667], "responses": ["10", "21", "17", "15", "16"], "num1": [2, 7, 9, 3, 6, 6], "num2": [3, 5, 3, 7, 6, 4], "num3": [5, 9, 6, 5, 4, 9], "type": "DISTRACTOR", "conditions": [24, 1600, "a", 24000], "trial": 7, "trial_type": "math-distractor", "trial_index": 253, "time_elapsed": 1273754, "internal_node_id": "0.0-190.0"}}, {"uniqueid": "MTK1192:3T3IWE1XG7UTK6N2OYHTVCDSCF0QTN", "current_trial": 254, "dateTime": 1513293125046, "trialdata": {"rt": -1, "stimulus": "<p id=\"stim\">10</p>", "key_press": -1, "trial_type": "single-stim", "trial_index": 254, "time_elapsed": 1276760, "internal_node_id": "0.0-191.0-0.0"}}, {"uniqueid": "MTK1192:3T3IWE1XG7UTK6N2OYHTVCDSCF0QTN", "current_trial": 255, "dateTime": 1513293126051, "trialdata": {"rt": -1, "stimulus": "<p id=\"stim\">9</p>", "key_press": -1, "trial_type": "single-stim", "trial_index": 255, "time_elapsed": 1277765, "internal_node_id": "0.0-191.0-1.0"}}, {"uniqueid": "MTK1192:3T3IWE1XG7UTK6N2OYHTVCDSCF0QTN", "current_trial": 256, "dateTime": 1513293127055, "trialdata": {"rt": -1, "stimulus": "<p id=\"stim\">8</p>", "key_press": -1, "trial_type": "single-stim", "trial_index": 256, "time_elapsed": 1278768, "internal_node_id": "0.0-191.0-2.0"}}, {"uniqueid": "MTK1192:3T3IWE1XG7UTK6N2OYHTVCDSCF0QTN", "current_trial": 257, "dateTime": 1513293128059, "trialdata": {"rt": -1, "stimulus": "<p id=\"stim\">7</p>", "key_press": -1, "trial_type": "single-stim", "trial_index": 257, "time_elapsed": 1279773, "internal_node_id": "0.0-191.0-3.0"}}, {"uniqueid": "MTK1192:3T3IWE1XG7UTK6N2OYHTVCDSCF0QTN", "current_trial": 258, "dateTime": 1513293129063, "trialdata": {"rt": -1, "stimulus": "<p id=\"stim\">6</p>", "key_press": -1, "trial_type": "single-stim", "trial_index": 258, "time_elapsed": 1280777, "internal_node_id": "0.0-191.0-4.0"}}, {"uniqueid": "MTK1192:3T3IWE1XG7UTK6N2OYHTVCDSCF0QTN", "current_trial": 259, "dateTime": 1513293130067, "trialdata": {"rt": -1, "stimulus": "<p id=\"stim\">5</p>", "key_press": -1, "trial_type": "single-stim", "trial_index": 259, "time_elapsed": 1281781, "internal_node_id": "0.0-191.0-5.0"}}, {"uniqueid": "MTK1192:3T3IWE1XG7UTK6N2OYHTVCDSCF0QTN", "current_trial": 260, "dateTime": 1513293131071, "trialdata": {"rt": -1, "stimulus": "<p id=\"stim\">4</p>", "key_press": -1, "trial_type": "single-stim", "trial_index": 260, "time_elapsed": 1282785, "internal_node_id": "0.0-191.0-6.0"}}, {"uniqueid": "MTK1192:3T3IWE1XG7UTK6N2OYHTVCDSCF0QTN", "current_trial": 261, "dateTime": 1513293132075, "trialdata": {"rt": -1, "stimulus": "<p id=\"stim\">3</p>", "key_press": -1, "trial_type": "single-stim", "trial_index": 261, "time_elapsed": 1283788, "internal_node_id": "0.0-191.0-7.0"}}, {"uniqueid": "MTK1192:3T3IWE1XG7UTK6N2OYHTVCDSCF0QTN", "current_trial": 262, "dateTime": 1513293133080, "trialdata": {"rt": -1, "stimulus": "<p id=\"stim\">2</p>", "key_press": -1, "trial_type": "single-stim", "trial_index": 262, "time_elapsed": 1284793, "internal_node_id": "0.0-191.0-8.0"}}, {"uniqueid": "MTK1192:3T3IWE1XG7UTK6N2OYHTVCDSCF0QTN", "current_trial": 263, "dateTime": 1513293134084, "trialdata": {"rt": -1, "stimulus": "<p id=\"stim\">1</p>", "key_press": -1, "trial_type": "single-stim", "trial_index": 263, "time_elapsed": 1285798, "internal_node_id": "0.0-191.0-9.0"}}, {"uniqueid": "MTK1192:3T3IWE1XG7UTK6N2OYHTVCDSCF0QTN", "current_trial": 264, "dateTime": 1513293135587, "trialdata": {"rt": -1, "stimulus": "<p id=\"stim\">+</p>", "key_press": -1, "type": "FIXATION", "trial_type": "single-stim", "trial_index": 264, "time_elapsed": 1287301, "internal_node_id": "0.0-192.0-0.0"}}, {"uniqueid": "MTK1192:3T3IWE1XG7UTK6N2OYHTVCDSCF0QTN", "current_trial": 265, "dateTime": 1513293138228, "trialdata": {"rt": -1000, "stimulus": "/static/audio/wordpool/HEADBAND.wav", "key_press": -1, "type": "PRES_AUD", "word": "headband", "wordID": 695, "conditions": [24, 1600, "a", 24000], "trial": 7, "serialpos": 0, "trial_type": "single-audio", "trial_index": 265, "time_elapsed": 1289942, "internal_node_id": "0.0-193.0"}}, {"uniqueid": "MTK1192:3T3IWE1XG7UTK6N2OYHTVCDSCF0QTN", "current_trial": 266, "dateTime": 1513293140789, "trialdata": {"rt": -1000, "stimulus": "/static/audio/wordpool/COCKTAIL.wav", "key_press": -1, "type": "PRES_AUD", "word": "cocktail", "wordID": 337, "conditions": [24, 1600, "a", 24000], "trial": 7, "serialpos": 1, "trial_type": "single-audio", "trial_index": 266, "time_elapsed": 1292502, "internal_node_id": "0.0-194.0"}}, {"uniqueid": "MTK1192:3T3IWE1XG7UTK6N2OYHTVCDSCF0QTN", "current_trial": 267, "dateTime": 1513293143291, "trialdata": {"rt": -1000, "stimulus": "/static/audio/wordpool/TUBA.wav", "key_press": -1, "type": "PRES_AUD", "word": "tuba", "wordID": 1514, "conditions": [24, 1600, "a", 24000], "trial": 7, "serialpos": 2, "trial_type": "single-audio", "trial_index": 267, "time_elapsed": 1295004, "internal_node_id": "0.0-195.0"}}, {"uniqueid": "MTK1192:3T3IWE1XG7UTK6N2OYHTVCDSCF0QTN", "current_trial": 268, "dateTime": 1513293146002, "trialdata": {"rt": -1000, "stimulus": "/static/audio/wordpool/WAITER.wav", "key_press": -1, "type": "PRES_AUD", "word": "waiter", "wordID": 1579, "conditions": [24, 1600, "a", 24000], "trial": 7, "serialpos": 3, "trial_type": "single-audio", "trial_index": 268, "time_elapsed": 1297716, "internal_node_id": "0.0-196.0"}}, {"uniqueid": "MTK1192:3T3IWE1XG7UTK6N2OYHTVCDSCF0QTN", "current_trial": 269, "dateTime": 1513293148736, "trialdata": {"rt": -1000, "stimulus": "/static/audio/wordpool/FREEZER.wav", "key_press": -1, "type": "PRES_AUD", "word": "freezer", "wordID": 603, "conditions": [24, 1600, "a", 24000], "trial": 7, "serialpos": 4, "trial_type": "single-audio", "trial_index": 269, "time_elapsed": 1300450, "internal_node_id": "0.0-197.0"}}, {"uniqueid": "MTK1192:3T3IWE1XG7UTK6N2OYHTVCDSCF0QTN", "current_trial": 270, "dateTime": 1513293151354, "trialdata": {"rt": -1000, "stimulus": "/static/audio/wordpool/DRUG.wav", "key_press": -1, "type": "PRES_AUD", "word": "drug", "wordID": 500, "conditions": [24, 1600, "a", 24000], "trial": 7, "serialpos": 5, "trial_type": "single-audio", "trial_index": 270, "time_elapsed": 1303068, "internal_node_id": "0.0-198.0"}}, {"uniqueid": "MTK1192:3T3IWE1XG7UTK6N2OYHTVCDSCF0QTN", "current_trial": 271, "dateTime": 1513293153984, "trialdata": {"rt": -1000, "stimulus": "/static/audio/wordpool/GROUND.wav", "key_press": -1, "type": "PRES_AUD", "word": "ground", "wordID": 665, "conditions": [24, 1600, "a", 24000], "trial": 7, "serialpos": 6, "trial_type": "single-audio", "trial_index": 271, "time_elapsed": 1305698, "internal_node_id": "0.0-199.0"}}, {"uniqueid": "MTK1192:3T3IWE1XG7UTK6N2OYHTVCDSCF0QTN", "current_trial": 272, "dateTime