{"assignmentId": "3U4J9857OFIJI2O6SDH2VRQB3ZAB7M", "workerId": "MTK1520", "questiondata": {"origin": "United States", "strat-rehearsal": "2", "marital": "Married/Domestic Partnership", "education": "Some college", "ethnicity": "Not Hispanic", "color_depth": 24, "distracted": "No", "wrote-notes": "No", "strat-other": "I tried to remember words that had more meaning to me by grouping them into categories, such as food, animals, birds, flowers, places.", "screen_width": 1920, "avail_screen_width": 1920, "avail_screen_height": 1040, "strat-image": "66", "language": "English", "gender": "Female", "age": "59", "gender_other": "", "race": ["White"], "strat-categorize": "75", "pixel_depth": 24, "strat-spatial": "25", "strat-story": "6", "race_other": "", "screen_height": 1080}, "bonus": 0, "hitId": "3DA79LNS592ZQLJ60L0VTKOXNZ1T30", "counterbalance": 1999, "useragent": "Mozilla/5.0 (Windows NT 10.0; Win64; x64) AppleWebKit/537.36 (KHTML, like Gecko) Chrome/63.0.3239.132 Safari/537.36", "eventdata": [{"eventtype": "initialized", "interval": 0, "value": null, "timestamp": 1515949826967}, {"eventtype": "window_resize", "interval": 0, "value": [1920, 1033], "timestamp": 1515949826967}, {"eventtype": "focus", "interval": 22952, "value": "off", "timestamp": 1515949849919}, {"eventtype": "focus", "interval": 5748, "value": "on", "timestamp": 1515949855667}, {"eventtype": "focus", "interval": 41188, "value": "off", "timestamp": 1515949896855}, {"eventtype": "focus", "interval": 14530, "value": "on", "timestamp": 1515949911385}, {"eventtype": "focus", "interval": 2646, "value": "off", "timestamp": 1515949914031}, {"eventtype": "focus", "interval": 3006, "value": "on", "timestamp": 1515949917037}], "data": [{"current_trial": 0, "trialdata": {"rt": 2309, "trial_type": "text", "internal_node_id": "0.0-0.0", "time_elapsed": 2312, "key_press": 32, "type": "INSTRUCTIONS", "trial_index": 0}, "uniqueid": "MTK1520:3U4J9857OFIJI2O6SDH2VRQB3ZAB7M", "dateTime": 1515949863227}, {"current_trial": 1, "trialdata": {"rt": 27075, "trial_type": "text", "internal_node_id": "0.0-1.0", "time_elapsed": 29389, "key_press": 68, "type": "INSTRUCTIONS", "trial_index": 1}, "uniqueid": "MTK1520:3U4J9857OFIJI2O6SDH2VRQB3ZAB7M", "dateTime": 1515949890303}, {"current_trial": 2, "trialdata": {"rt": [35652], "trial_type": "audio-test", "responses": ["ocean"], "internal_node_id": "0.0-2.0", "time_elapsed": 65052, "type": "AUDIO_TEST", "trial_index": 2}, "uniqueid": "MTK1520:3U4J9857OFIJI2O6SDH2VRQB3ZAB7M", "dateTime": 1515949925966}, {"current_trial": 3, "trialdata": {"rt": [7163], "trial_type": "audio-test", "responses": ["crystal"], "internal_node_id": "0.0-3.0", "time_elapsed": 72219, "type": "AUDIO_TEST", "trial_index": 3}, "uniqueid": "MTK1520:3U4J9857OFIJI2O6SDH2VRQB3ZAB7M", "dateTime": 1515949933134}, {"current_trial": 4, "trialdata": {"rt": [7827], "trial_type": "audio-test", "responses": ["spice"], "internal_node_id": "0.0-4.0", "time_elapsed": 80051, "type": "AUDIO_TEST", "trial_index": 4}, "uniqueid": "MTK1520:3U4J9857OFIJI2O6SDH2VRQB3ZAB7M", "dateTime": 1515949940965}, {"current_trial": 5, "trialdata": {"rt": 17006, "trial_type": "survey-text", "responses": "{\"Q0\":\"11:30\",\"Q1\":\"7:30\",\"Q2\":\"4\"}", "internal_node_id": "0.0-5.0", "time_elapsed": 97811, "type": "SLEEP_SURVEY", "trial_index": 5}, "uniqueid": "MTK1520:3U4J9857OFIJI2O6SDH2VRQB3ZAB7M", "dateTime": 1515949958725}, {"current_trial": 6, "trialdata": {"rt": 71555, "trial_type": "text", "internal_node_id": "0.0-6.0", "time_elapsed": 170368, "key_press": 32, "type": "INSTRUCTIONS", "trial_index": 6}, "uniqueid": "MTK1520:3U4J9857OFIJI2O6SDH2VRQB3ZAB7M", "dateTime": 1515950031282}, {"current_trial": 7, "trialdata": {"rt": 12832, "trial_type": "text", "internal_node_id": "0.0-7.0", "time_elapsed": 183701, "key_press": 32, "type": "INSTRUCTIONS", "trial_index": 7}, "uniqueid": "MTK1520:3U4J9857OFIJI2O6SDH2VRQB3ZAB7M", "dateTime": 1515950044615}, {"current_trial": 8, "trialdata": {"rt": 9464, "trial_type": "text", "internal_node_id": "0.0-8.0", "time_elapsed": 193668, "key_press": 32, "type": "INSTRUCTIONS", "trial_index": 8}, "uniqueid": "MTK1520:3U4J9857OFIJI2O6SDH2VRQB3ZAB7M", "dateTime": 1515950054582}, {"current_trial": 9, "trialdata": {"rt": [4090, 7490, 9297, 11385, 13337, 15209], "trial_type": "math-distractor", "key_times": [2683, 4090, 6746, 7034, 7490, 8746, 9018, 9297, 10874, 11122, 11385, 12818, 13057, 13337, 14713, 15209], "responses": ["8", "18", "13", "12", "11", "6"], "num2": [3, 8, 3, 3, 3, 2, 7], "num3": [1, 5, 3, 1, 5, 3, 5], "conditions": [18, 1200, "a", 18000], "internal_node_id": "0.0-9.0", "key_presses": [104, 13, 97, 104, 13, 97, 99, 13, 97, 98, 13, 97, 97, 13, 102, 13], "trial": 0, "time_elapsed": 212676, "type": "DISTRACTOR", "trial_index": 9, "num1": [4, 5, 7, 8, 3, 1, 2]}, "uniqueid": "MTK1520:3U4J9857OFIJI2O6SDH2VRQB3ZAB7M", "dateTime": 1515950073591}, {"current_trial": 10, "trialdata": {"rt": -1, "trial_type": "single-stim", "stimulus": "<p id=\"stim\">10</p>", "internal_node_id": "0.0-10.0-0.0", "time_elapsed": 215679, "key_press": -1, "trial_index": 10}, "uniqueid": "MTK1520:3U4J9857OFIJI2O6SDH2VRQB3ZAB7M", "dateTime": 1515950076593}, {"current_trial": 11, "trialdata": {"rt": -1, "trial_type": "single-stim", "stimulus": "<p id=\"stim\">9</p>", "internal_node_id": "0.0-10.0-1.0", "time_elapsed": 216681, "key_press": -1, "trial_index": 11}, "uniqueid": "MTK1520:3U4J9857OFIJI2O6SDH2VRQB3ZAB7M", "dateTime": 1515950077595}, {"current_trial": 12, "trialdata": {"rt": -1, "trial_type": "single-stim", "stimulus": "<p id=\"stim\">8</p>", "internal_node_id": "0.0-10.0-2.0", "time_elapsed": 217681, "key_press": -1, "trial_index": 12}, "uniqueid": "MTK1520:3U4J9857OFIJI2O6SDH2VRQB3ZAB7M", "dateTime": 1515950078595}, {"current_trial": 13, "trialdata": {"rt": -1, "trial_type": "single-stim", "stimulus": "<p id=\"stim\">7</p>", "internal_node_id": "0.0-10.0-3.0", "time_elapsed": 218682, "key_press": -1, "trial_index": 13}, "uniqueid": "MTK1520:3U4J9857OFIJI2O6SDH2VRQB3ZAB7M", "dateTime": 1515950079597}, {"current_trial": 14, "trialdata": {"rt": -1, "trial_type": "single-stim", "stimulus": "<p id=\"stim\">6</p>", "internal_node_id": "0.0-10.0-4.0", "time_elapsed": 219684, "key_press": -1, "trial_index": 14}, "uniqueid": "MTK1520:3U4J9857OFIJI2O6SDH2VRQB3ZAB7M", "dateTime": 1515950080598}, {"current_trial": 15, "trialdata": {"rt": -1, "trial_type": "single-stim", "stimulus": "<p id=\"stim\">5</p>", "internal_node_id": "0.0-10.0-5.0", "time_elapsed": 220685, "key_press": -1, "trial_index": 15}, "uniqueid": "MTK1520:3U4J9857OFIJI2O6SDH2VRQB3ZAB7M", "dateTime": 1515950081599}, {"current_trial": 16, "trialdata": {"rt": -1, "trial_type": "single-stim", "stimulus": "<p id=\"stim\">4</p>", "internal_node_id": "0.0-10.0-6.0", "time_elapsed": 221687, "key_press": -1, "trial_index": 16}, "uniqueid": "MTK1520:3U4J9857OFIJI2O6SDH2VRQB3ZAB7M", "dateTime": 1515950082602}, {"current_trial": 17, "trialdata": {"rt": -1, "trial_type": "single-stim", "stimulus": "<p id=\"stim\">3</p>", "internal_node_id": "0.0-10.0-7.0", "time_elapsed": 222688, "key_press": -1, "trial_index": 17}, "uniqueid": "MTK1520:3U4J9857OFIJI2O6SDH2VRQB3ZAB7M", "dateTime": 1515950083602}, {"current_trial": 18, "trialdata": {"rt": -1, "trial_type": "single-stim", "stimulus": "<p id=\"stim\">2</p>", "internal_node_id": "0.0-10.0-8.0", "time_elapsed": 223690, "key_press": -1, "trial_index": 18}, "uniqueid": "MTK1520:3U4J9857OFIJI2O6SDH2VRQB3ZAB7M", "dateTime": 1515950084604}, {"current_trial": 19, "trialdata": {"rt": -1, "trial_type": "single-stim", "stimulus": "<p id=\"stim\">1</p>", "internal_node_id": "0.0-10.0-9.0", "time_elapsed": 224691, "key_press": -1, "trial_index": 19}, "uniqueid": "MTK1520:3U4J9857OFIJI2O6SDH2VRQB3ZAB7M", "dateTime": 1515950085605}, {"current_trial": 20, "trialdata": {"rt": -1, "trial_type": "single-stim", "stimulus": "<p id=\"stim\">+</p>", "internal_node_id": "0.0-11.0-0.0", "time_elapsed": 226192, "key_press": -1, "type": "FIXATION", "trial_index": 20}, "uniqueid": "MTK1520:3U4J9857OFIJI2O6SDH2VRQB3ZAB7M", "dateTime": 1515950087107}, {"current_trial": 21, "trialdata": {"rt": -1000, "trial_type": "single-audio", "word": "bouquet", "stimulus": "/static/audio/wordpool/BOUQUET.wav", "conditions": [18, 1200, "a", 18000], "internal_node_id": "0.0-12.0", "trial": 0, "time_elapsed": 228272, "serialpos": 0, "key_press": -1, "wordID": 156, "type": "PRES_AUD", "trial_index": 21}, "uniqueid": "MTK1520:3U4J9857OFIJI2O6SDH2VRQB3ZAB7M", "dateTime": 1515950089187}, {"current_trial": 22, "trialdata": {"rt": -1000, "trial_type": "single-audio", "word": "sausage", "stimulus": "/static/audio/wordpool/SAUSAGE.wav", "conditions": [18, 1200, "a", 18000], "internal_node_id": "0.0-13.0", "trial": 0, "time_elapsed": 230594, "serialpos": 1, "key_press": -1, "wordID": 1237, "type": "PRES_AUD", "trial_index": 22}, "uniqueid": "MTK1520:3U4J9857OFIJI2O6SDH2VRQB3ZAB7M", "dateTime": 1515950091508}, {"current_trial": 23, "trialdata": {"rt": -1000, "trial_type": "single-audio", "word": "coffee", "stimulus": "/static/audio/wordpool/COFFEE.wav", "conditions": [18, 1200, "a", 18000], "internal_node_id": "0.0-14.0", "trial": 0, "time_elapsed": 232970, "serialpos": 2, "key_press": -1, "wordID": 340, "type": "PRES_AUD", "trial_index": 23}, "uniqueid": "MTK1520:3U4J9857OFIJI2O6SDH2VRQB3ZAB7M", "dateTime": 1515950093885}, {"current_trial": 24, "trialdata": {"rt": -1000, "trial_type": "single-audio", "word": "heart", "stimulus": "/static/audio/wordpool/HEART.wav", "conditions": [18, 1200, "a", 18000], "internal_node_id": "0.0-15.0", "trial": 0, "time_elapsed": 235271, "serialpos": 3, "key_press": -1, "wordID": 696, "type": "PRES_AUD", "trial_index": 24}, "uniqueid": "MTK1520:3U4J9857OFIJI2O6SDH2VRQB3ZAB7M", "dateTime": 1515950096186}, {"current_trial": 25, "trialdata": {"rt": -1000, "trial_type": "single-audio", "word": "dust", "stimulus": "/static/audio/wordpool/DUST.wav", "conditions": [18, 1200, "a", 18000], "internal_node_id": "0.0-16.0", "trial": 0, "time_elapsed": 237337, "serialpos": 4, "key_press": -1, "wordID": 507, "type": "PRES_AUD", "trial_index": 25}, "uniqueid": "MTK1520:3U4J9857OFIJI2O6SDH2VRQB3ZAB7M", "dateTime": 1515950098251}, {"current_trial": 26, "trialdata": {"rt": -1000, "trial_type": "single-audio", "word": "bike", "stimulus": "/static/audio/wordpool/BIKE.wav", "conditions": [18, 1200, "a", 18000], "internal_node_id": "0.0-17.0", "trial": 0, "time_elapsed": 239618, "serialpos": 5, "key_press": -1, "wordID": 124, "type": "PRES_AUD", "trial_index": 26}, "uniqueid": "MTK1520:3U4J9857OFIJI2O6SDH2VRQB3ZAB7M", "dateTime": 1515950100532}, {"current_trial": 27, "trialdata": {"rt": -1000, "trial_type": "single-audio", "word": "banquet", "stimulus": "/static/audio/wordpool/BANQUET.wav", "conditions": [18, 1200, "a", 18000], "internal_node_id": "0.0-18.0", "trial": 0, "time_elapsed": 241993, "serialpos": 6, "key_press": -1, "wordID": 85, "type": "PRES_AUD", "trial_index": 27}, "uniqueid": "MTK1520:3U4J9857OFIJI2O6SDH2VRQB3ZAB7M", "dateTime": 1515950102908}, {"current_trial": 28, "trialdata": {"rt": -1000, "trial_type": "single-audio", "word": "mask", "stimulus": "/static/audio/wordpool/MASK.wav", "conditions": [18, 1200, "a", 18000], "internal_node_id": "0.0-19.0", "trial": 0, "time_elapsed": 244263, "serialpos": 7, "key_press": -1, "wordID": 875, "type": "PRES_AUD", "trial_index": 28}, "uniqueid": "MTK1520:3U4J9857OFIJI2O6SDH2VRQB3ZAB7M", "dateTime": 1515950105178}, {"current_trial": 29, "trialdata": {"rt": -1000, "trial_type": "single-audio", "word": "apron", "stimulus": "/static/audio/wordpool/APRON.wav", "conditions": [18, 1200, "a", 18000], "internal_node_id": "0.0-20.0", "trial": 0, "time_elapsed": 246397, "serialpos": 8, "key_press": -1, "wordID": 34, "type": "PRES_AUD", "trial_index": 29}, "uniqueid": "MTK1520:3U4J9857OFIJI2O6SDH2VRQB3ZAB7M", "dateTime": 1515950107311}, {"current_trial": 30, "trialdata": {"rt": -1000, "trial_type": "single-audio", "word": "proton", "stimulus": "/static/audio/wordpool/PROTON.wav", "conditions": [18, 1200, "a", 18000], "internal_node_id": "0.0-21.0", "trial": 0, "time_elapsed": 248437, "serialpos": 9, "key_press": -1, "wordID": 1131, "type": "PRES_AUD", "trial_index": 30}, "uniqueid": "MTK1520:3U4J9857OFIJI2O6SDH2VRQB3ZAB7M", "dateTime": 1515950109352}, {"current_trial": 31, "trialdata": {"rt": -1000, "trial_type": "single-audio", "word": "teacher", "stimulus": "/static/audio/wordpool/TEACHER.wav", "conditions": [18, 1200, "a", 18000], "internal_node_id": "0.0-22.0", "trial": 0, "time_elapsed": 250795, "serialpos": 10, "key_press": -1, "wordID": 1439, "type": "PRES_AUD", "trial_index": 31}, "uniqueid": "MTK1520:3U4J9857OFIJI2O6SDH2VRQB3ZAB7M", "dateTime": 1515950111710}, {"current_trial": 32, "trialdata": {"rt": -1000, "trial_type": "single-audio", "word": "subway", "stimulus": "/static/audio/wordpool/SUBWAY.wav", "conditions": [18, 1200, "a", 18000], "internal_node_id": "0.0-23.0", "trial": 0, "time_elapsed": 253178, "serialpos": 11, "key_press": -1, "wordID": 1399, "type": "PRES_AUD", "trial_index": 32}, "uniqueid": "MTK1520:3U4J9857OFIJI2O6SDH2VRQB3ZAB7M", "dateTime": 1515950114092}, {"current_trial": 33, "trialdata": {"rt": -1000, "trial_type": "single-audio", "word": "flesh", "stimulus": "/static/audio/wordpool/FLESH.wav", "conditions": [18, 1200, "a", 18000], "internal_node_id": "0.0-24.0", "trial": 0, "time_elapsed": 255216, "serialpos": 12, "key_press": -1, "wordID": 578, "type": "PRES_AUD", "trial_index": 33}, "uniqueid": "MTK1520:3U4J9857OFIJI2O6SDH2VRQB3ZAB7M", "dateTime": 1515950116131}, {"current_trial": 34, "trialdata": {"rt": -1000, "trial_type": "single-audio", "word": "scarf", "stimulus": "/static/audio/wordpool/SCARF.wav", "conditions": [18, 1200, "a", 18000], "internal_node_id": "0.0-25.0", "trial": 0, "time_elapsed": 257501, "serialpos": 13, "key_press": -1, "wordID": 1245, "type": "PRES_AUD", "trial_index": 34}, "uniqueid": "MTK1520:3U4J9857OFIJI2O6SDH2VRQB3ZAB7M", "dateTime": 1515950118415}, {"current_trial": 35, "trialdata": {"rt": -1000, "trial_type": "single-audio", "word": "cigar", "stimulus": "/static/audio/wordpool/CIGAR.wav", "conditions": [18, 1200, "a", 18000], "internal_node_id": "0.0-26.0", "trial": 0, "time_elapsed": 259830, "serialpos": 14, "key_press": -1, "wordID": 307, "type": "PRES_AUD", "trial_index": 35}, "uniqueid": "MTK1520:3U4J9857OFIJI2O6SDH2VRQB3ZAB7M", "dateTime": 1515950120745}, {"current_trial": 36, "trialdata": {"rt": -1000, "trial_type": "single-audio", "word": "possum", "stimulus": "/static/audio/wordpool/POSSUM.wav", "conditions": [18, 1200, "a", 18000], "internal_node_id": "0.0-27.0", "trial": 0, "time_elapsed": 262192, "serialpos": 15, "key_press": -1, "wordID": 1111, "type": "PRES_AUD", "trial_index": 36}, "uniqueid": "MTK1520:3U4J9857OFIJI2O6SDH2VRQB3ZAB7M", "dateTime": 1515950123106}, {"current_trial": 37, "trialdata": {"rt": -1000, "trial_type": "single-audio", "word": "asia", "stimulus": "/static/audio/wordpool/ASIA.wav", "conditions": [18, 1200, "a", 18000], "internal_node_id": "0.0-28.0", "trial": 0, "time_elapsed": 264506, "serialpos": 16, "key_press": -1, "wordID": 45, "type": "PRES_AUD", "trial_index": 37}, "uniqueid": "MTK1520:3U4J9857OFIJI2O6SDH2VRQB3ZAB7M", "dateTime": 1515950125420}, {"current_trial": 38, "trialdata": {"rt": -1000, "trial_type": "single-audio", "word": "branch", "stimulus": "/static/audio/wordpool/BRANCH.wav", "conditions": [18, 1200, "a", 18000], "internal_node_id": "0.0-29.0", "trial": 0, "time_elapsed": 266723, "serialpos": 17, "key_press": -1, "wordID": 167, "type": "PRES_AUD", "trial_index": 38}, "uniqueid": "MTK1520:3U4J9857OFIJI2O6SDH2VRQB3ZAB7M", "dateTime": 1515950127638}, {"current_trial": 39, "trialdata": {"rt": -1, "trial_type": "single-stim", "stimulus": "", "internal_node_id": "0.0-30.0-0.0", "time_elapsed": 267967, "key_press": -1, "type": "PRE_RECALL_DELAY", "trial_index": 39}, "uniqueid": "MTK1520:3U4J9857OFIJI2O6SDH2VRQB3ZAB7M", "dateTime": 1515950128882}, {"current_trial": 40, "trialdata": {"rt": -1000, "trial_type": "single-audio", "stimulus": "/static/audio/400Hz.wav", "internal_node_id": "0.0-31.0", "time_elapsed": 268469, "key_press": -1, "type": "PRE_RECALL_ALERT", "trial_index": 40}, "uniqueid": "MTK1520:3U4J9857OFIJI2O6SDH2VRQB3ZAB7M", "dateTime": 1515950129383}, {"current_trial": 41, "trialdata": {"rt": [2307, 3860, 5539, 8156, 10419, 13363, 14579, 19811, 22436, 25051, 27835, 33171, 41267, 45995, 59299], "recwords": ["asia", "branch", "possum", "teacher", "scarf", "dust", "bike", "sausage", "coffee", "heart", "apron", "cigar", "mask", "proton", "flash"], "key_times": [1477, 1756, 1932, 2068, 2307, 2716, 2956, 3076, 3204, 3420, 3556, 3860, 4292, 4516, 4636, 4820, 4964, 5228, 5539, 6980, 7140, 7268, 7484, 7588, 7772, 7884, 8156, 9132, 9340, 9540, 9709, 10076, 10419, 12780, 12940, 13044, 13172, 13363, 13812, 13980, 14196, 14355, 14579, 18212, 18412, 18780, 19012, 19190, 19364, 19548, 19811, 20140, 20308, 20452, 20652, 20820, 21012, 22436, 23757, 23916, 24052, 24212, 24412, 25051, 26676, 26988, 27156, 27300, 27500, 27835, 32076, 32220, 32540, 32755, 32876, 33171, 40404, 40596, 40764, 40908, 41267, 44883, 45059, 45187, 45371, 45483, 45691, 45995, 58052, 58268, 58556, 58732, 58908, 59299], "trial_type": "free-recall", "conditions": [18, 1200, "a", 18000], "internal_node_id": "0.0-32.0-0.0", "key_presses": [65, 83, 73, 65, 13, 66, 82, 65, 78, 67, 72, 13, 80, 79, 83, 83, 85, 77, 13, 84, 69, 65, 67, 72, 69, 82, 13, 83, 67, 65, 82, 70, 13, 68, 85, 83, 84, 13, 66, 73, 75, 69, 13, 83, 65, 85, 83, 65, 71, 69, 13, 67, 79, 70, 70, 69, 69, 13, 72, 69, 65, 82, 84, 13, 65, 80, 82, 79, 78, 13, 67, 73, 71, 65, 82, 13, 77, 65, 83, 75, 13, 80, 82, 79, 84, 79, 78, 13, 70, 76, 65, 83, 72, 13], "trial": 0, "time_elapsed": 328473, "type": "FREE_RECALL", "trial_index": 41}, "uniqueid": "MTK1520:3U4J9857OFIJI2O6SDH2VRQB3ZAB7M", "dateTime": 1515950189391}, {"current_trial": 42, "trialdata": {"rt": 2093, "trial_type": "text", "internal_node_id": "0.0-33.0", "time_elapsed": 332572, "key_press": 32, "type": "INSTRUCTIONS", "trial_index": 42}, "uniqueid": "MTK1520:3U4J9857OFIJI2O6SDH2VRQB3ZAB7M", "dateTime": 1515950193486}, {"current_trial": 43, "trialdata": {"rt": [2894, 5421, 8133, 12005, 14173, 16069, 17862], "trial_type": "math-distractor", "key_times": [2175, 2486, 2894, 5006, 5421, 7470, 7783, 8133, 9854, 11310, 12005, 13566, 13869, 14173, 15413, 15741, 16069, 17502, 17862], "responses": ["18", "9", "17", "11", "13", "17", "9"], "num2": [5, 2, 3, 4, 1, 3, 4, 5], "num3": [7, 4, 6, 5, 7, 7, 1, 7], "conditions": [18, 1200, "a", 18000], "internal_node_id": "0.0-34.0", "key_presses": [97, 104, 13, 105, 13, 97, 103, 13, 97, 97, 13, 97, 99, 13, 97, 103, 13, 105, 13], "trial": 1, "time_elapsed": 352580, "type": "DISTRACTOR", "trial_index": 43, "num1": [6, 3, 8, 2, 5, 7, 4, 4]}, "uniqueid": "MTK1520:3U4J9857OFIJI2O6SDH2VRQB3ZAB7M", "dateTime": 1515950213494}, {"current_trial": 44, "trialdata": {"rt": -1, "trial_type": "single-stim", "stimulus": "<p id=\"stim\">10</p>", "internal_node_id": "0.0-35.0-0.0", "time_elapsed": 355583, "key_press": -1, "trial_index": 44}, "uniqueid": "MTK1520:3U4J9857OFIJI2O6SDH2VRQB3ZAB7M", "dateTime": 1515950216498}, {"current_trial": 45, "trialdata": {"rt": -1, "trial_type": "single-stim", "stimulus": "<p id=\"stim\">9</p>", "internal_node_id": "0.0-35.0-1.0", "time_elapsed": 356587, "key_press": -1, "trial_index": 45}, "uniqueid": "MTK1520:3U4J9857OFIJI2O6SDH2VRQB3ZAB7M", "dateTime": 1515950217501}, {"current_trial": 46, "trialdata": {"rt": -1, "trial_type": "single-stim", "stimulus": "<p id=\"stim\">8</p>", "internal_node_id": "0.0-35.0-2.0", "time_elapsed": 357589, "key_press": -1, "trial_index": 46}, "uniqueid": "MTK1520:3U4J9857OFIJI2O6SDH2VRQB3ZAB7M", "dateTime": 1515950218503}, {"current_trial": 47, "trialdata": {"rt": -1, "trial_type": "single-stim", "stimulus": "<p id=\"stim\">7</p>", "internal_node_id": "0.0-35.0-3.0", "time_elapsed": 358590, "key_press": -1, "trial_index": 47}, "uniqueid": "MTK1520:3U4J9857OFIJI2O6SDH2VRQB3ZAB7M", "dateTime": 1515950219504}, {"current_trial": 48, "trialdata": {"rt": -1, "trial_type": "single-stim", "stimulus": "<p id=\"stim\">6</p>", "internal_node_id": "0.0-35.0-4.0", "time_elapsed": 359591, "key_press": -1, "trial_index": 48}, "uniqueid": "MTK1520:3U4J9857OFIJI2O6SDH2VRQB3ZAB7M", "dateTime": 1515950220505}, {"current_trial": 49, "trialdata": {"rt": -1, "trial_type": "single-stim", "stimulus": "<p id=\"stim\">5</p>", "internal_node_id": "0.0-35.0-5.0", "time_elapsed": 360592, "key_press": -1, "trial_index": 49}, "uniqueid": "MTK1520:3U4J9857OFIJI2O6SDH2VRQB3ZAB7M", "dateTime": 1515950221507}, {"current_trial": 50, "trialdata": {"rt": -1, "trial_type": "single-stim", "stimulus": "<p id=\"stim\">4</p>", "internal_node_id": "0.0-35.0-6.0", "time_elapsed": 361593, "key_press": -1, "trial_index": 50}, "uniqueid": "MTK1520:3U4J9857OFIJI2O6SDH2VRQB3ZAB7M", "dateTime": 1515950222508}, {"current_trial": 51, "trialdata": {"rt": -1, "trial_type": "single-stim", "stimulus": "<p id=\"stim\">3</p>", "internal_node_id": "0.0-35.0-7.0", "time_elapsed": 362594, "key_press": -1, "trial_index": 51}, "uniqueid": "MTK1520:3U4J9857OFIJI2O6SDH2VRQB3ZAB7M", "dateTime": 1515950223509}, {"current_trial": 52, "trialdata": {"rt": -1, "trial_type": "single-stim", "stimulus": "<p id=\"stim\">2</p>", "internal_node_id": "0.0-35.0-8.0", "time_elapsed": 363595, "key_press": -1, "trial_index": 52}, "uniqueid": "MTK1520:3U4J9857OFIJI2O6SDH2VRQB3ZAB7M", "dateTime": 1515950224510}, {"current_trial": 53, "trialdata": {"rt": -1, "trial_type": "single-stim", "stimulus": "<p id=\"stim\">1</p>", "internal_node_id": "0.0-35.0-9.0", "time_elapsed": 364596, "key_press": -1, "trial_index": 53}, "uniqueid": "MTK1520:3U4J9857OFIJI2O6SDH2VRQB3ZAB7M", "dateTime": 1515950225510}, {"current_trial": 54, "trialdata": {"rt": -1, "trial_type": "single-stim", "stimulus": "<p id=\"stim\">+</p>", "internal_node_id": "0.0-36.0-0.0", "time_elapsed": 366097, "key_press": -1, "type": "FIXATION", "trial_index": 54}, "uniqueid": "MTK1520:3U4J9857OFIJI2O6SDH2VRQB3ZAB7M", "dateTime": 1515950227011}, {"current_trial": 55, "trialdata": {"rt": -1000, "trial_type": "single-audio", "word": "lover", "stimulus": "/static/audio/wordpool/LOVER.wav", "conditions": [18, 1200, "a", 18000], "internal_node_id": "0.0-37.0", "trial": 1, "time_elapsed": 368224, "serialpos": 0, "key_press": -1, "wordID": 845, "type": "PRES_AUD", "trial_index": 55}, "uniqueid": "MTK1520:3U4J9857OFIJI2O6SDH2VRQB3ZAB7M", "dateTime": 1515950229139}, {"current_trial": 56, "trialdata": {"rt": -1000, "trial_type": "single-audio", "word": "candy", "stimulus": "/static/audio/wordpool/CANDY.wav", "conditions": [18, 1200, "a", 18000], "internal_node_id": "0.0-38.0", "trial": 1, "time_elapsed": 370322, "serialpos": 1, "key_press": -1, "wordID": 229, "type": "PRES_AUD", "trial_index": 56}, "uniqueid": "MTK1520:3U4J9857OFIJI2O6SDH2VRQB3ZAB7M", "dateTime": 1515950231236}, {"current_trial": 57, "trialdata": {"rt": -1000, "trial_type": "single-audio", "word": "handbag", "stimulus": "/static/audio/wordpool/HANDBAG.wav", "conditions": [18, 1200, "a", 18000], "internal_node_id": "0.0-39.0", "trial": 1, "time_elapsed": 372371, "serialpos": 2, "key_press": -1, "wordID": 683, "type": "PRES_AUD", "trial_index": 57}, "uniqueid": "MTK1520:3U4J9857OFIJI2O6SDH2VRQB3ZAB7M", "dateTime": 1515950233286}, {"current_trial": 58, "trialdata": {"rt": -1000, "trial_type": "single-audio", "word": "princess", "stimulus": "/static/audio/wordpool/PRINCESS.wav", "conditions": [18, 1200, "a", 18000], "internal_node_id": "0.0-40.0", "trial": 1, "time_elapsed": 374725, "serialpos": 3, "key_press": -1, "wordID": 1124, "type": "PRES_AUD", "trial_index": 58}, "uniqueid": "MTK1520:3U4J9857OFIJI2O6SDH2VRQB3ZAB7M", "dateTime": 1515950235639}, {"current_trial": 59, "trialdata": {"rt": -1000, "trial_type": "single-audio", "word": "star", "stimulus": "/static/audio/wordpool/STAR.wav", "conditions": [18, 1200, "a", 18000], "internal_node_id": "0.0-41.0", "trial": 1, "time_elapsed": 376990, "serialpos": 4, "key_press": -1, "wordID": 1372, "type": "PRES_AUD", "trial_index": 59}, "uniqueid": "MTK1520:3U4J9857OFIJI2O6SDH2VRQB3ZAB7M", "dateTime": 1515950237904}, {"current_trial": 60, "trialdata": {"rt": -1000, "trial_type": "single-audio", "word": "stream", "stimulus": "/static/audio/wordpool/STREAM.wav", "conditions": [18, 1200, "a", 18000], "internal_node_id": "0.0-42.0", "trial": 1, "time_elapsed": 379310, "serialpos": 5, "key_press": -1, "wordID": 1391, "type": "PRES_AUD", "trial_index": 60}, "uniqueid": "MTK1520:3U4J9857OFIJI2O6SDH2VRQB3ZAB7M", "dateTime": 1515950240224}, {"current_trial": 61, "trialdata": {"rt": -1000, "trial_type": "single-audio", "word": "trombone", "stimulus": "/static/audio/wordpool/TROMBONE.wav", "conditions": [18, 1200, "a", 18000], "internal_node_id": "0.0-43.0", "trial": 1, "time_elapsed": 381382, "serialpos": 6, "key_press": -1, "wordID": 1507, "type": "PRES_AUD", "trial_index": 61}, "uniqueid": "MTK1520:3U4J9857OFIJI2O6SDH2VRQB3ZAB7M", "dateTime": 1515950242297}, {"current_trial": 62, "trialdata": {"rt": -1000, "trial_type": "single-audio", "word": "swimmer", "stimulus": "/static/audio/wordpool/SWIMMER.wav", "conditions": [18, 1200, "a", 18000], "internal_node_id": "0.0-44.0", "trial": 1, "time_elapsed": 383493, "serialpos": 7, "key_press": -1, "wordID": 1419, "type": "PRES_AUD", "trial_index": 62}, "uniqueid": "MTK1520:3U4J9857OFIJI2O6SDH2VRQB3ZAB7M", "dateTime": 1515950244408}, {"current_trial": 63, "trialdata": {"rt": -1000, "trial_type": "single-audio", "word": "drink", "stimulus": "/static/audio/wordpool/DRINK.wav", "conditions": [18, 1200, "a", 18000], "internal_node_id": "0.0-45.0", "trial": 1, "time_elapsed": 385656, "serialpos": 8, "key_press": -1, "wordID": 497, "type": "PRES_AUD", "trial_index": 63}, "uniqueid": "MTK1520:3U4J9857OFIJI2O6SDH2VRQB3ZAB7M", "dateTime": 1515950246571}, {"current_trial": 64, "trialdata": {"rt": -1000, "trial_type": "single-audio", "word": "orchid", "stimulus": "/static/audio/wordpool/ORCHID.wav", "conditions": [18, 1200, "a", 18000], "internal_node_id": "0.0-46.0", "trial": 1, "time_elapsed": 387919, "serialpos": 9, "key_press": -1, "wordID": 981, "type": "PRES_AUD", "trial_index": 64}, "uniqueid": "MTK1520:3U4J9857OFIJI2O6SDH2VRQB3ZAB7M", "dateTime": 1515950248833}, {"current_trial": 65, "trialdata": {"rt": -1000, "trial_type": "single-audio", "word": "empire", "stimulus": "/static/audio/wordpool/EMPIRE.wav", "conditions": [18, 1200, "a", 18000], "internal_node_id": "0.0-47.0", "trial": 1, "time_elapsed": 390144, "serialpos": 10, "key_press": -1, "wordID": 529, "type": "PRES_AUD", "trial_index": 65}, "uniqueid": "MTK1520:3U4J9857OFIJI2O6SDH2VRQB3ZAB7M", "dateTime": 1515950251059}, {"current_trial": 66, "trialdata": {"rt": -1000, "trial_type": "single-audio", "word": "tile", "stimulus": "/static/audio/wordpool/TILE.wav", "conditions": [18, 1200, "a", 18000], "internal_node_id": "0.0-48.0", "trial": 1, "time_elapsed": 392158, "serialpos": 11, "key_press": -1, "wordID": 1467, "type": "PRES_AUD", "trial_index": 66}, "uniqueid": "MTK1520:3U4J9857OFIJI2O6SDH2VRQB3ZAB7M", "dateTime": 1515950253073}, {"current_trial": 67, "trialdata": {"rt": -1000, "trial_type": "single-audio", "word": "bucket", "stimulus": "/static/audio/wordpool/BUCKET.wav", "conditions": [18, 1200, "a", 18000], "internal_node_id": "0.0-49.0", "trial": 1, "time_elapsed": 394554, "serialpos": 12, "key_press": -1, "wordID": 183, "type": "PRES_AUD", "trial_index": 67}, "uniqueid": "MTK1520:3U4J9857OFIJI2O6SDH2VRQB3ZAB7M", "dateTime": 1515950255468}, {"current_trial": 68, "trialdata": {"rt": -1000, "trial_type": "single-audio", "word": "crab", "stimulus": "/static/audio/wordpool/CRAB.wav", "conditions": [18, 1200, "a", 18000], "internal_node_id": "0.0-50.0", "trial": 1, "time_elapsed": 396686, "serialpos": 13, "key_press": -1, "wordID": 396, "type": "PRES_AUD", "trial_index": 68}, "uniqueid": "MTK1520:3U4J9857OFIJI2O6SDH2VRQB3ZAB7M", "dateTime": 1515950257604}, {"current_trial": 69, "trialdata": {"rt": -1000, "trial_type": "single-audio", "word": "arm", "stimulus": "/static/audio/wordpool/ARM.wav", "conditions": [18, 1200, "a", 18000], "internal_node_id": "0.0-51.0", "trial": 1, "time_elapsed": 398885, "serialpos": 14, "key_press": -1, "wordID": 37, "type": "PRES_AUD", "trial_index": 69}, "uniqueid": "MTK1520:3U4J9857OFIJI2O6SDH2VRQB3ZAB7M", "dateTime": 1515950259800}, {"current_trial": 70, "trialdata": {"rt": -1000, "trial_type": "single-audio", "word": "rebel", "stimulus": "/static/audio/wordpool/REBEL.wav", "conditions": [18, 1200, "a", 18000], "internal_node_id": "0.0-52.0", "trial": 1, "time_elapsed": 401130, "serialpos": 15, "key_press": -1, "wordID": 1171, "type": "PRES_AUD", "trial_index": 70}, "uniqueid": "MTK1520:3U4J9857OFIJI2O6SDH2VRQB3ZAB7M", "dateTime": 1515950262044}, {"current_trial": 71, "trialdata": {"rt": -1000, "trial_type": "single-audio", "word": "girl", "stimulus": "/static/audio/wordpool/GIRL.wav", "conditions": [18, 1200, "a", 18000], "internal_node_id": "0.0-53.0", "trial": 1, "time_elapsed": 403341, "serialpos": 16, "key_press": -1, "wordID": 636, "type": "PRES_AUD", "trial_index": 71}, "uniqueid": "MTK1520:3U4J9857OFIJI2O6SDH2VRQB3ZAB7M", "dateTime": 1515950264255}, {"current_trial": 72, "trialdata": {"rt": -1000, "trial_type": "single-audio", "word": "lake", "stimulus": "/static/audio/wordpool/LAKE.wav", "conditions": [18, 1200, "a", 18000], "internal_node_id": "0.0-54.0", "trial": 1, "time_elapsed": 405699, "serialpos": 17, "key_press": -1, "wordID": 795, "type": "PRES_AUD", "trial_index": 72}, "uniqueid": "MTK1520:3U4J9857OFIJI2O6SDH2VRQB3ZAB7M", "dateTime": 1515950266614}, {"current_trial": 73, "trialdata": {"rt": -1, "trial_type": "single-stim", "stimulus": "", "internal_node_id": "0.0-55.0-0.0", "time_elapsed": 407001, "key_press": -1, "type": "PRE_RECALL_DELAY", "trial_index": 73}, "uniqueid": "MTK1520:3U4J9857OFIJI2O6SDH2VRQB3ZAB7M", "dateTime": 1515950267915}, {"current_trial": 74, "trialdata": {"rt": -1000, "trial_type": "single-audio", "stimulus": "/static/audio/400Hz.wav", "internal_node_id": "0.0-56.0", "time_elapsed": 407502, "key_press": -1, "type": "PRE_RECALL_ALERT", "trial_index": 74}, "uniqueid": "MTK1520:3U4J9857OFIJI2O6SDH2VRQB3ZAB7M", "dateTime": 1515950268416}, {"current_trial": 75, "trialdata": {"rt": [7747, 8780, 9931, 11787, 13676, 16836, 18388, 20027, 22380, 26595, 32395, 38124, 42196, 45723], "recwords": ["rebel", "girl", "lake", "lover", "stream", "bucket", "crab", "arm", "orchid", "drink", "trombone", "handbag", "candy", "handbag"], "key_times": [6653, 6740, 7092, 7324, 7420, 7747, 8052, 8212, 8356, 8484, 8780, 9276, 9444, 9588, 9748, 9931, 10876, 11076, 11244, 11452, 11596, 11787, 12548, 12772, 12996, 13116, 13212, 13372, 13676, 15836, 15980, 16164, 16332, 16468, 16620, 16836, 17172, 17516, 17748, 18028, 18388, 19316, 19484, 19644, 20027, 21404, 21492, 21780, 21884, 21980, 22172, 22380, 25332, 25604, 25740, 26028, 26276, 26595, 30845, 31084, 31220, 31492, 31716, 31828, 32028, 32180, 32395, 36251, 36387, 36524, 36627, 36988, 37268, 37588, 38124, 39852, 40044, 40212, 40877, 41052, 41268, 41444, 41628, 41852, 42196, 44308, 44452, 44612, 44700, 44964, 45204, 45460, 45723], "trial_type": "free-recall", "conditions": [18, 1200, "a", 18000], "internal_node_id": "0.0-57.0-0.0", "key_presses": [82, 69, 66, 69, 76, 13, 71, 73, 82, 76, 13, 76, 65, 75, 69, 13, 76, 79, 86, 69, 82, 13, 83, 84, 82, 69, 65, 77, 13, 66, 85, 67, 75, 69, 84, 13, 67, 82, 65, 66, 13, 65, 82, 77, 13, 79, 82, 67, 72, 73, 68, 13, 68, 82, 73, 78, 75, 13, 84, 82, 79, 77, 66, 79, 78, 69, 13, 72, 65, 78, 68, 66, 65, 71, 13, 67, 78, 65, 8, 8, 65, 78, 68, 89, 13, 72, 65, 78, 68, 66, 65, 71, 13], "trial": 1, "time_elapsed": 467506, "type": "FREE_RECALL", "trial_index": 75}, "uniqueid": "MTK1520:3U4J9857OFIJI2O6SDH2VRQB3ZAB7M", "dateTime": 1515950328423}, {"current_trial": 76, "trialdata": {"rt": 2007, "trial_type": "text", "internal_node_id": "0.0-58.0", "time_elapsed": 471517, "key_press": 32, "type": "INSTRUCTIONS", "trial_index": 76}, "uniqueid": "MTK1520:3U4J9857OFIJI2O6SDH2VRQB3ZAB7M", "dateTime": 1515950332431}, {"current_trial": 77, "trialdata": {"rt": [2973, 5741], "trial_type": "math-distractor", "key_times": [2222, 2566, 2973, 5014, 5381, 5741, 7542, 11839], "responses": ["19", "15"], "num2": [7, 5, 9], "num3": [8, 4, 5], "conditions": [12, 1600, "a", 12000], "internal_node_id": "0.0-59.0", "key_presses": [97, 105, 13, 97, 101, 13, 97, 103], "trial": 2, "time_elapsed": 484520, "type": "DISTRACTOR", "trial_index": 77, "num1": [4, 6, 3]}, "uniqueid": "MTK1520:3U4J9857OFIJI2O6SDH2VRQB3ZAB7M", "dateTime": 1515950345434}, {"current_trial": 78, "trialdata": {"rt": -1, "trial_type": "single-stim", "stimulus": "<p id=\"stim\">10</p>", "internal_node_id": "0.0-60.0-0.0", "time_elapsed": 487520, "key_press": -1, "trial_index": 78}, "uniqueid": "MTK1520:3U4J9857OFIJI2O6SDH2VRQB3ZAB7M", "dateTime": 1515950348434}, {"current_trial": 79, "trialdata": {"rt": -1, "trial_type": "single-stim", "stimulus": "<p id=\"stim\">9</p>", "internal_node_id": "0.0-60.0-1.0", "time_elapsed": 488521, "key_press": -1, "trial_index": 79}, "uniqueid": "MTK1520:3U4J9857OFIJI2O6SDH2VRQB3ZAB7M", "dateTime": 1515950349436}, {"current_trial": 80, "trialdata": {"rt": -1, "trial_type": "single-stim", "stimulus": "<p id=\"stim\">8</p>", "internal_node_id": "0.0-60.0-2.0", "time_elapsed": 489523, "key_press": -1, "trial_index": 80}, "uniqueid": "MTK1520:3U4J9857OFIJI2O6SDH2VRQB3ZAB7M", "dateTime": 1515950350437}, {"current_trial": 81, "trialdata": {"rt": -1, "trial_type": "single-stim", "stimulus": "<p id=\"stim\">7</p>", "internal_node_id": "0.0-60.0-3.0", "time_elapsed": 490525, "key_press": -1, "trial_index": 81}, "uniqueid": "MTK1520:3U4J9857OFIJI2O6SDH2VRQB3ZAB7M", "dateTime": 1515950351439}, {"current_trial": 82, "trialdata": {"rt": -1, "trial_type": "single-stim", "stimulus": "<p id=\"stim\">6</p>", "internal_node_id": "0.0-60.0-4.0", "time_elapsed": 491526, "key_press": -1, "trial_index": 82}, "uniqueid": "MTK1520:3U4J9857OFIJI2O6SDH2VRQB3ZAB7M", "dateTime": 1515950352440}, {"current_trial": 83, "trialdata": {"rt": -1, "trial_type": "single-stim", "stimulus": "<p id=\"stim\">5</p>", "internal_node_id": "0.0-60.0-5.0", "time_elapsed": 492527, "key_press": -1, "trial_index": 83}, "uniqueid": "MTK1520:3U4J9857OFIJI2O6SDH2VRQB3ZAB7M", "dateTime": 1515950353441}, {"current_trial": 84, "trialdata": {"rt": -1, "trial_type": "single-stim", "stimulus": "<p id=\"stim\">4</p>", "internal_node_id": "0.0-60.0-6.0", "time_elapsed": 493529, "key_press": -1, "trial_index": 84}, "uniqueid": "MTK1520:3U4J9857OFIJI2O6SDH2VRQB3ZAB7M", "dateTime": 1515950354443}, {"current_trial": 85, "trialdata": {"rt": -1, "trial_type": "single-stim", "stimulus": "<p id=\"stim\">3</p>", "internal_node_id": "0.0-60.0-7.0", "time_elapsed": 494530, "key_press": -1, "trial_index": 85}, "uniqueid": "MTK1520:3U4J9857OFIJI2O6SDH2VRQB3ZAB7M", "dateTime": 1515950355444}, {"current_trial": 86, "trialdata": {"rt": -1, "trial_type": "single-stim", "stimulus": "<p id=\"stim\">2</p>", "internal_node_id": "0.0-60.0-8.0", "time_elapsed": 495531, "key_press": -1, "trial_index": 86}, "uniqueid": "MTK1520:3U4J9857OFIJI2O6SDH2VRQB3ZAB7M", "dateTime": 1515950356445}, {"current_trial": 87, "trialdata": {"rt": -1, "trial_type": "single-stim", "stimulus": "<p id=\"stim\">1</p>", "internal_node_id": "0.0-60.0-9.0", "time_elapsed": 496533, "key_press": -1, "trial_index": 87}, "uniqueid": "MTK1520:3U4J9857OFIJI2O6SDH2VRQB3ZAB7M", "dateTime": 1515950357447}, {"current_trial": 88, "trialdata": {"rt": -1, "trial_type": "single-stim", "stimulus": "<p id=\"stim\">+</p>", "internal_node_id": "0.0-61.0-0.0", "time_elapsed": 498033, "key_press": -1, "type": "FIXATION", "trial_index": 88}, "uniqueid": "MTK1520:3U4J9857OFIJI2O6SDH2VRQB3ZAB7M", "dateTime": 1515950358947}, {"current_trial": 89, "trialdata": {"rt": -1000, "trial_type": "single-audio", "word": "cafe", "stimulus": "/static/audio/wordpool/CAFE.wav", "conditions": [12, 1600, "a", 12000], "internal_node_id": "0.0-62.0", "trial": 2, "time_elapsed": 500624, "serialpos": 0, "key_press": -1, "wordID": 215, "type": "PRES_AUD", "trial_index": 89}, "uniqueid": "MTK1520:3U4J9857OFIJI2O6SDH2VRQB3ZAB7M", "dateTime": 1515950361538}, {"current_trial": 90, "trialdata": {"rt": -1000, "trial_type": "single-audio", "word": "diner", "stimulus": "/static/audio/wordpool/DINER.wav", "conditions": [12, 1600, "a", 12000], "internal_node_id": "0.0-63.0", "trial": 2, "time_elapsed": 503028, "serialpos": 1, "key_press": -1, "wordID": 466, "type": "PRES_AUD", "trial_index": 90}, "uniqueid": "MTK1520:3U4J9857OFIJI2O6SDH2VRQB3ZAB7M", "dateTime": 1515950363942}, {"current_trial": 91, "trialdata": {"rt": -1000, "trial_type": "single-audio", "word": "crevice", "stimulus": "/static/audio/wordpool/CREVICE.wav", "conditions": [12, 1600, "a", 12000], "internal_node_id": "0.0-64.0", "trial": 2, "time_elapsed": 505434, "serialpos": 2, "key_press": -1, "wordID": 404, "type": "PRES_AUD", "trial_index": 91}, "uniqueid": "MTK1520:3U4J9857OFIJI2O6SDH2VRQB3ZAB7M", "dateTime": 1515950366349}, {"current_trial": 92, "trialdata": {"rt": -1000, "trial_type": "single-audio", "word": "message", "stimulus": "/static/audio/wordpool/MESSAGE.wav", "conditions": [12, 1600, "a", 12000], "internal_node_id": "0.0-65.0", "trial": 2, "time_elapsed": 508051, "serialpos": 3, "key_press": -1, "wordID": 887, "type": "PRES_AUD", "trial_index": 92}, "uniqueid": "MTK1520:3U4J9857OFIJI2O6SDH2VRQB3ZAB7M", "dateTime": 1515950368966}, {"current_trial": 93, "trialdata": {"rt": -1000, "trial_type": "single-audio", "word": "muffin", "stimulus": "/static/audio/wordpool/MUFFIN.wav", "conditions": [12, 1600, "a", 12000], "internal_node_id": "0.0-66.0", "trial": 2, "time_elapsed": 510638, "serialpos": 4, "key_press": -1, "wordID": 928, "type": "PRES_AUD", "trial_index": 93}, "uniqueid": "MTK1520:3U4J9857OFIJI2O6SDH2VRQB3ZAB7M", "dateTime": 1515950371553}, {"current_trial": 94, "trialdata": {"rt": -1000, "trial_type": "single-audio", "word": "airport", "stimulus": "/static/audio/wordpool/AIRPORT.wav", "conditions": [12, 1600, "a", 12000], "internal_node_id": "0.0-67.0", "trial": 2, "time_elapsed": 513191, "serialpos": 5, "key_press": -1, "wordID": 12, "type": "PRES_AUD", "trial_index": 94}, "uniqueid": "MTK1520:3U4J9857OFIJI2O6SDH2VRQB3ZAB7M", "dateTime": 1515950374106}, {"current_trial": 95, "trialdata": {"rt": -1000, "trial_type": "single-audio", "word": "sticker", "stimulus": "/static/audio/wordpool/STICKER.wav", "conditions": [12, 1600, "a", 12000], "internal_node_id": "0.0-68.0", "trial": 2, "time_elapsed": 515902, "serialpos": 6, "key_press": -1, "wordID": 1381, "type": "PRES_AUD", "trial_index": 95}, "uniqueid": "MTK1520:3U4J9857OFIJI2O6SDH2VRQB3ZAB7M", "dateTime": 1515950376817}, {"current_trial": 96, "trialdata": {"rt": -1000, "trial_type": "single-audio", "word": "doughnut", "stimulus": "/static/audio/wordpool/DOUGHNUT.wav", "conditions": [12, 1600, "a", 12000], "internal_node_id": "0.0-69.0", "trial": 2, "time_elapsed": 518604, "serialpos": 7, "key_press": -1, "wordID": 489, "type": "PRES_AUD", "trial_index": 96}, "uniqueid": "MTK1520:3U4J9857OFIJI2O6SDH2VRQB3ZAB7M", "dateTime": 1515950379518}, {"current_trial": 97, "trialdata": {"rt": -1000, "trial_type": "single-audio", "word": "report", "stimulus": "/static/audio/wordpool/REPORT.wav", "conditions": [12, 1600, "a", 12000], "internal_node_id": "0.0-70.0", "trial": 2, "time_elapsed": 521256, "serialpos": 8, "key_press": -1, "wordID": 1183, "type": "PRES_AUD", "trial_index": 97}, "uniqueid": "MTK1520:3U4J9857OFIJI2O6SDH2VRQB3ZAB7M", "dateTime": 1515950382170}, {"current_trial": 98, "trialdata": {"rt": -1000, "trial_type": "single-audio", "word": "journal", "stimulus": "/static/audio/wordpool/JOURNAL.wav", "conditions": [12, 1600, "a", 12000], "internal_node_id": "0.0-71.0", "trial": 2, "time_elapsed": 523843, "serialpos": 9, "key_press": -1, "wordID": 759, "type": "PRES_AUD", "trial_index": 98}, "uniqueid": "MTK1520:3U4J9857OFIJI2O6SDH2VRQB3ZAB7M", "dateTime": 1515950384758}, {"current_trial": 99, "trialdata": {"rt": -1000, "trial_type": "single-audio", "word": "office", "stimulus": "/static/audio/wordpool/OFFICE.wav", "conditions": [12, 1600, "a", 12000], "internal_node_id": "0.0-72.0", "trial": 2, "time_elapsed": 526543, "serialpos": 10, "key_press": -1, "wordID": 971, "type": "PRES_AUD", "trial_index": 99}, "uniqueid": "MTK1520:3U4J9857OFIJI2O6SDH2VRQB3ZAB7M", "dateTime": 1515950387457}, {"current_trial": 100, "trialdata": {"rt": -1000, "trial_type": "single-audio", "word": "penguin", "stimulus": "/static/audio/wordpool/PENGUIN.wav", "conditions": [12, 1600, "a", 12000], "internal_node_id": "0.0-73.0", "trial": 2, "time_elapsed": 529250, "serialpos": 11, "key_press": -1, "wordID": 1043, "type": "PRES_AUD", "trial_index": 100}, "uniqueid": "MTK1520:3U4J9857OFIJI2O6SDH2VRQB3ZAB7M", "dateTime": 1515950390164}, {"current_trial": 101, "trialdata": {"rt": -1, "trial_type": "single-stim", "stimulus": "", "internal_node_id": "0.0-74.0-0.0", "time_elapsed": 530480, "key_press": -1, "type": "PRE_RECALL_DELAY", "trial_index": 101}, "uniqueid": "MTK1520:3U4J9857OFIJI2O6SDH2VRQB3ZAB7M", "dateTime": 1515950391394}, {"current_trial": 102, "trialdata": {"rt": -1000, "trial_type": "single-audio", "stimulus": "/static/audio/400Hz.wav", "internal_node_id": "0.0-75.0", "time_elapsed": 530981, "key_press": -1, "type": "PRE_RECALL_ALERT", "trial_index": 102}, "uniqueid": "MTK1520:3U4J9857OFIJI2O6SDH2VRQB3ZAB7M", "dateTime": 1515950391895}, {"current_trial": 103, "trialdata": {"rt": [3549, 6565, 9956, 11301, 12812, 14164, 16988, 21324, 26677], "recwords": ["cafe", "diner", "message", "office", "journal", "report", "airport", "report", "penquin"], "key_times": [2822, 3086, 3261, 3373, 3549, 5389, 5797, 6037, 6125, 6293, 6565, 8549, 8981, 9205, 9389, 9589, 9701, 9805, 9956, 10341, 10445, 10629, 10717, 10901, 11125, 11301, 11637, 11821, 11925, 12061, 12229, 12405, 12517, 12812, 13214, 13317, 13461, 13631, 13741, 13965, 14164, 15861, 15997, 16149, 16333, 16477, 16605, 16821, 16988, 20045, 20157, 20421, 20549, 20653, 20853, 21324, 24286, 25301, 25445, 25741, 25925, 26061, 26325, 26677], "trial_type": "free-recall", "conditions": [12, 1600, "a", 12000], "internal_node_id": "0.0-76.0-0.0", "key_presses": [67, 65, 70, 69, 32, 68, 73, 78, 69, 82, 13, 77, 69, 83, 83, 65, 71, 69, 13, 79, 70, 70, 73, 67, 69, 13, 74, 79, 85, 82, 78, 65, 76, 13, 82, 69, 80, 79, 82, 84, 13, 65, 73, 82, 80, 79, 82, 84, 13, 82, 69, 80, 79, 82, 84, 13, 80, 69, 78, 81, 85, 73, 78, 13], "trial": 2, "time_elapsed": 590986, "type": "FREE_RECALL", "trial_index": 103}, "uniqueid": "MTK1520:3U4J9857OFIJI2O6SDH2VRQB3ZAB7M", "dateTime": 1515950451904}, {"current_trial": 104, "trialdata": {"rt": 1870, "trial_type": "text", "internal_node_id": "0.0-77.0", "time_elapsed": 594860, "key_press": 32, "type": "INSTRUCTIONS", "trial_index": 104}, "uniqueid": "MTK1520:3U4J9857OFIJI2O6SDH2VRQB3ZAB7M", "dateTime": 1515950455774}, {"current_trial": 105, "trialdata": {"rt": [3487, 6839, 9134, 11463, 13887, 16703, 18807, 21222], "trial_type": "math-distractor", "key_times": [2935, 3127, 3487, 6447, 6839, 8415, 8782, 9134, 10831, 11143, 11463, 13495, 13887, 16079, 16383, 16703, 18215, 18440, 18807, 20687, 20935, 21222], "responses": ["22", "9", "16", "18", "8", "19", "11", "15"], "num2": [5, 6, 7, 8, 2, 6, 4, 9, 7], "num3": [8, 1, 2, 4, 3, 4, 6, 3, 6], "conditions": [12, 800, "a", 24000], "internal_node_id": "0.0-78.0", "key_presses": [98, 98, 13, 105, 13, 97, 102, 13, 97, 104, 13, 104, 13, 97, 105, 13, 97, 97, 13, 97, 101, 13], "trial": 3, "time_elapsed": 620862, "type": "DISTRACTOR", "trial_index": 105, "num1": [9, 2, 7, 6, 3, 9, 1, 3, 8]}, "uniqueid": "MTK1520:3U4J9857OFIJI2O6SDH2VRQB3ZAB7M", "dateTime": 1515950481776}, {"current_trial": 106, "trialdata": {"rt": -1, "trial_type": "single-stim", "stimulus": "<p id=\"stim\">10</p>", "internal_node_id": "0.0-79.0-0.0", "time_elapsed": 623862, "key_press": -1, "trial_index": 106}, "uniqueid": "MTK1520:3U4J9857OFIJI2O6SDH2VRQB3ZAB7M", "dateTime": 1515950484776}, {"current_trial": 107, "trialdata": {"rt": -1, "trial_type": "single-stim", "stimulus": "<p id=\"stim\">9</p>", "internal_node_id": "0.0-79.0-1.0", "time_elapsed": 624863, "key_press": -1, "trial_index": 107}, "uniqueid": "MTK1520:3U4J9857OFIJI2O6SDH2VRQB3ZAB7M", "dateTime": 1515950485777}, {"current_trial": 108, "trialdata": {"rt": -1, "trial_type": "single-stim", "stimulus": "<p id=\"stim\">8</p>", "internal_node_id": "0.0-79.0-2.0", "time_elapsed": 625864, "key_press": -1, "trial_index": 108}, "uniqueid": "MTK1520:3U4J9857OFIJI2O6SDH2VRQB3ZAB7M", "dateTime": 1515950486778}, {"current_trial": 109, "trialdata": {"rt": -1, "trial_type": "single-stim", "stimulus": "<p id=\"stim\">7</p>", "internal_node_id": "0.0-79.0-3.0", "time_elapsed": 626865, "key_press": -1, "trial_index": 109}, "uniqueid": "MTK1520:3U4J9857OFIJI2O6SDH2VRQB3ZAB7M", "dateTime": 1515950487780}, {"current_trial": 110, "trialdata": {"rt": -1, "trial_type": "single-stim", "stimulus": "<p id=\"stim\">6</p>", "internal_node_id": "0.0-79.0-4.0", "time_elapsed": 627866, "key_press": -1, "trial_index": 110}, "uniqueid": "MTK1520:3U4J9857OFIJI2O6SDH2VRQB3ZAB7M", "dateTime": 1515950488781}, {"current_trial": 111, "trialdata": {"rt": -1, "trial_type": "single-stim", "stimulus": "<p id=\"stim\">5</p>", "internal_node_id": "0.0-79.0-5.0", "time_elapsed": 628867, "key_press": -1, "trial_index": 111}, "uniqueid": "MTK1520:3U4J9857OFIJI2O6SDH2VRQB3ZAB7M", "dateTime": 1515950489781}, {"current_trial": 112, "trialdata": {"rt": -1, "trial_type": "single-stim", "stimulus": "<p id=\"stim\">4</p>", "internal_node_id": "0.0-79.0-6.0", "time_elapsed": 629868, "key_press": -1, "trial_index": 112}, "uniqueid": "MTK1520:3U4J9857OFIJI2O6SDH2VRQB3ZAB7M", "dateTime": 1515950490782}, {"current_trial": 113, "trialdata": {"rt": -1, "trial_type": "single-stim", "stimulus": "<p id=\"stim\">3</p>", "internal_node_id": "0.0-79.0-7.0", "time_elapsed": 630869, "key_press": -1, "trial_index": 113}, "uniqueid": "MTK1520:3U4J9857OFIJI2O6SDH2VRQB3ZAB7M", "dateTime": 1515950491783}, {"current_trial": 114, "trialdata": {"rt": -1, "trial_type": "single-stim", "stimulus": "<p id=\"stim\">2</p>", "internal_node_id": "0.0-79.0-8.0", "time_elapsed": 631870, "key_press": -1, "trial_index": 114}, "uniqueid": "MTK1520:3U4J9857OFIJI2O6SDH2VRQB3ZAB7M", "dateTime": 1515950492784}, {"current_trial": 115, "trialdata": {"rt": -1, "trial_type": "single-stim", "stimulus": "<p id=\"stim\">1</p>", "internal_node_id": "0.0-79.0-9.0", "time_elapsed": 632871, "key_press": -1, "trial_index": 115}, "uniqueid": "MTK1520:3U4J9857OFIJI2O6SDH2VRQB3ZAB7M", "dateTime": 1515950493786}, {"current_trial": 116, "trialdata": {"rt": -1, "trial_type": "single-stim", "stimulus": "<p id=\"stim\">+</p>", "internal_node_id": "0.0-80.0-0.0", "time_elapsed": 634373, "key_press": -1, "type": "FIXATION", "trial_index": 116}, "uniqueid": "MTK1520:3U4J9857OFIJI2O6SDH2VRQB3ZAB7M", "dateTime": 1515950495287}, {"current_trial": 117, "trialdata": {"rt": -1000, "trial_type": "single-audio", "word": "pigment", "stimulus": "/static/audio/wordpool/PIGMENT.wav", "conditions": [12, 800, "a", 24000], "internal_node_id": "0.0-81.0", "trial": 3, "time_elapsed": 636162, "serialpos": 0, "key_press": -1, "wordID": 1065, "type": "PRES_AUD", "trial_index": 117}, "uniqueid": "MTK1520:3U4J9857OFIJI2O6SDH2VRQB3ZAB7M", "dateTime": 1515950497077}, {"current_trial": 118, "trialdata": {"rt": -1000, "trial_type": "single-audio", "word": "powder", "stimulus": "/static/audio/wordpool/POWDER.wav", "conditions": [12, 800, "a", 24000], "internal_node_id": "0.0-82.0", "trial": 3, "time_elapsed": 637838, "serialpos": 1, "key_press": -1, "wordID": 1116, "type": "PRES_AUD", "trial_index": 118}, "uniqueid": "MTK1520:3U4J9857OFIJI2O6SDH2VRQB3ZAB7M", "dateTime": 1515950498754}, {"current_trial": 119, "trialdata": {"rt": -1000, "trial_type": "single-audio", "word": "diver", "stimulus": "/static/audio/wordpool/DIVER.wav", "conditions": [12, 800, "a", 24000], "internal_node_id": "0.0-83.0", "trial": 3, "time_elapsed": 639675, "serialpos": 2, "key_press": -1, "wordID": 475, "type": "PRES_AUD", "trial_index": 119}, "uniqueid": "MTK1520:3U4J9857OFIJI2O6SDH2VRQB3ZAB7M", "dateTime": 1515950500590}, {"current_trial": 120, "trialdata": {"rt": -1000, "trial_type": "single-audio", "word": "lion", "stimulus": "/static/audio/wordpool/LION.wav", "conditions": [12, 800, "a", 24000], "internal_node_id": "0.0-84.0", "trial": 3, "time_elapsed": 641357, "serialpos": 3, "key_press": -1, "wordID": 826, "type": "PRES_AUD", "trial_index": 120}, "uniqueid": "MTK1520:3U4J9857OFIJI2O6SDH2VRQB3ZAB7M", "dateTime": 1515950502272}, {"current_trial": 121, "trialdata": {"rt": -1000, "trial_type": "single-audio", "word": "ozone", "stimulus": "/static/audio/wordpool/OZONE.wav", "conditions": [12, 800, "a", 24000], "internal_node_id": "0.0-85.0", "trial": 3, "time_elapsed": 643322, "serialpos": 4, "key_press": -1, "wordID": 995, "type": "PRES_AUD", "trial_index": 121}, "uniqueid": "MTK1520:3U4J9857OFIJI2O6SDH2VRQB3ZAB7M", "dateTime": 1515950504236}, {"current_trial": 122, "trialdata": {"rt": -1000, "trial_type": "single-audio", "word": "brother", "stimulus": "/static/audio/wordpool/BROTHER.wav", "conditions": [12, 800, "a", 24000], "internal_node_id": "0.0-86.0", "trial": 3, "time_elapsed": 645313, "serialpos": 5, "key_press": -1, "wordID": 178, "type": "PRES_AUD", "trial_index": 122}, "uniqueid": "MTK1520:3U4J9857OFIJI2O6SDH2VRQB3ZAB7M", "dateTime": 1515950506227}, {"current_trial": 123, "trialdata": {"rt": -1000, "trial_type": "single-audio", "word": "pasta", "stimulus": "/static/audio/wordpool/PASTA.wav", "conditions": [12, 800, "a", 24000], "internal_node_id": "0.0-87.0", "trial": 3, "time_elapsed": 647310, "serialpos": 6, "key_press": -1, "wordID": 1020, "type": "PRES_AUD", "trial_index": 123}, "uniqueid": "MTK1520:3U4J9857OFIJI2O6SDH2VRQB3ZAB7M", "dateTime": 1515950508225}, {"current_trial": 124, "trialdata": {"rt": -1000, "trial_type": "single-audio", "word": "smog", "stimulus": "/static/audio/wordpool/SMOG.wav", "conditions": [12, 800, "a", 24000], "internal_node_id": "0.0-88.0", "trial": 3, "time_elapsed": 649148, "serialpos": 7, "key_press": -1, "wordID": 1329, "type": "PRES_AUD", "trial_index": 124}, "uniqueid": "MTK1520:3U4J9857OFIJI2O6SDH2VRQB3ZAB7M", "dateTime": 1515950510063}, {"current_trial": 125, "trialdata": {"rt": -1000, "trial_type": "single-audio", "word": "lizard", "stimulus": "/static/audio/wordpool/LIZARD.wav", "conditions": [12, 800, "a", 24000], "internal_node_id": "0.0-89.0", "trial": 3, "time_elapsed": 651128, "serialpos": 8, "key_press": -1, "wordID": 833, "type": "PRES_AUD", "trial_index": 125}, "uniqueid": "MTK1520:3U4J9857OFIJI2O6SDH2VRQB3ZAB7M", "dateTime": 1515950512043}, {"current_trial": 126, "trialdata": {"rt": -1000, "trial_type": "single-audio", "word": "quail", "stimulus": "/static/audio/wordpool/QUAIL.wav", "conditions": [12, 800, "a", 24000], "internal_node_id": "0.0-90.0", "trial": 3, "time_elapsed": 652822, "serialpos": 9, "key_press": -1, "wordID": 1146, "type": "PRES_AUD", "trial_index": 126}, "uniqueid": "MTK1520:3U4J9857OFIJI2O6SDH2VRQB3ZAB7M", "dateTime": 1515950513736}, {"current_trial": 127, "trialdata": {"rt": -1000, "trial_type": "single-audio", "word": "tortoise", "stimulus": "/static/audio/wordpool/TORTOISE.wav", "conditions": [12, 800, "a", 24000], "internal_node_id": "0.0-91.0", "trial": 3, "time_elapsed": 654708, "serialpos": 10, "key_press": -1, "wordID": 1485, "type": "PRES_AUD", "trial_index": 127}, "uniqueid": "MTK1520:3U4J9857OFIJI2O6SDH2VRQB3ZAB7M", "dateTime": 1515950515623}, {"current_trial": 128, "trialdata": {"rt": -1000, "trial_type": "single-audio", "word": "snail", "stimulus": "/static/audio/wordpool/SNAIL.wav", "conditions": [12, 800, "a", 24000], "internal_node_id": "0.0-92.0", "trial": 3, "time_elapsed": 656372, "serialpos": 11, "key_press": -1, "wordID": 1331, "type": "PRES_AUD", "trial_index": 128}, "uniqueid": "MTK1520:3U4J9857OFIJI2O6SDH2VRQB3ZAB7M", "dateTime": 1515950517286}, {"current_trial": 129, "trialdata": {"rt": -1, "trial_type": "single-stim", "stimulus": "", "internal_node_id": "0.0-93.0-0.0", "time_elapsed": 657632, "key_press": -1, "type": "PRE_RECALL_DELAY", "trial_index": 129}, "uniqueid": "MTK1520:3U4J9857OFIJI2O6SDH2VRQB3ZAB7M", "dateTime": 1515950518546}, {"current_trial": 130, "trialdata": {"rt": -1000, "trial_type": "single-audio", "stimulus": "/static/audio/400Hz.wav", "internal_node_id": "0.0-94.0", "time_elapsed": 658133, "key_press": -1, "type": "PRE_RECALL_ALERT", "trial_index": 130}, "uniqueid": "MTK1520:3U4J9857OFIJI2O6SDH2VRQB3ZAB7M", "dateTime": 1515950519047}, {"current_trial": 131, "trialdata": {"rt": [3061, 4404, 7373, 11229, 14053, 16125, 17877, 23853, 26861, 28972], "recwords": ["pigment", "diver", "tortoise", "snail", "lizard", "brother", "pasta", "smog", "pigment", "powder"], "key_times": [1901, 2069, 2213, 2461, 2581, 2734, 2845, 3061, 3541, 3685, 3861, 4053, 4173, 4404, 5237, 5405, 6109, 6373, 6573, 6693, 6933, 7053, 7373, 8405, 8541, 8685, 8845, 9093, 11229, 12310, 12437, 12629, 12933, 13173, 13493, 14053, 15037, 15309, 15429, 15549, 15693, 15805, 15933, 16125, 16677, 16821, 17005, 17293, 17525, 17877, 19901, 20077, 21101, 21293, 23118, 23261, 23429, 23557, 23853, 25757, 25877, 26021, 26245, 26357, 26493, 26622, 26861, 27709, 27877, 28109, 28397, 28613, 28717, 28972], "trial_type": "free-recall", "conditions": [12, 800, "a", 24000], "internal_node_id": "0.0-95.0-0.0", "key_presses": [80, 73, 71, 77, 69, 78, 84, 13, 68, 73, 86, 69, 82, 13, 84, 79, 82, 84, 79, 73, 83, 69, 13, 83, 78, 65, 73, 76, 13, 76, 73, 90, 65, 82, 68, 13, 66, 82, 79, 84, 72, 69, 82, 13, 80, 65, 83, 84, 65, 13, 76, 73, 8, 8, 83, 77, 79, 71, 13, 80, 73, 71, 77, 69, 78, 84, 13, 80, 79, 87, 68, 69, 82, 13], "trial": 3, "time_elapsed": 718136, "type": "FREE_RECALL", "trial_index": 131}, "uniqueid": "MTK1520:3U4J9857OFIJI2O6SDH2VRQB3ZAB7M", "dateTime": 1515950579055}, {"current_trial": 132, "trialdata": {"rt": 1360, "trial_type": "text", "internal_node_id": "0.0-96.0", "time_elapsed": 721502, "key_press": 32, "type": "INSTRUCTIONS", "trial_index": 132}, "uniqueid": "MTK1520:3U4J9857OFIJI2O6SDH2VRQB3ZAB7M", "dateTime": 1515950582416}, {"current_trial": 133, "trialdata": {"rt": [2476, 4972, 8388, 10731], "trial_type": "math-distractor", "key_times": [1764, 2100, 2476, 4244, 4612, 4972, 7477, 7812, 8388, 9684, 10364, 10731], "responses": ["14", "18", "17", "12"], "num2": [3, 4, 5, 2, 7], "num3": [7, 6, 4, 6, 2], "conditions": [24, 1600, "a", 12000], "internal_node_id": "0.0-97.0", "key_presses": [97, 100, 13, 97, 104, 13, 97, 103, 13, 97, 98, 13], "trial": 4, "time_elapsed": 735507, "type": "DISTRACTOR", "trial_index": 133, "num1": [4, 8, 9, 2, 4]}, "uniqueid": "MTK1520:3U4J9857OFIJI2O6SDH2VRQB3ZAB7M", "dateTime": 1515950596421}, {"current_trial": 134, "trialdata": {"rt": -1, "trial_type": "single-stim", "stimulus": "<p id=\"stim\">10</p>", "internal_node_id": "0.0-98.0-0.0", "time_elapsed": 738507, "key_press": -1, "trial_index": 134}, "uniqueid": "MTK1520:3U4J9857OFIJI2O6SDH2VRQB3ZAB7M", "dateTime": 1515950599421}, {"current_trial": 135, "trialdata": {"rt": -1, "trial_type": "single-stim", "stimulus": "<p id=\"stim\">9</p>", "internal_node_id": "0.0-98.0-1.0", "time_elapsed": 739508, "key_press": -1, "trial_index": 135}, "uniqueid": "MTK1520:3U4J9857OFIJI2O6SDH2VRQB3ZAB7M", "dateTime": 1515950600422}, {"current_trial": 136, "trialdata": {"rt": -1, "trial_type": "single-stim", "stimulus": "<p id=\"stim\">8</p>", "internal_node_id": "0.0-98.0-2.0", "time_elapsed": 740510, "key_press": -1, "trial_index": 136}, "uniqueid": "MTK1520:3U4J9857OFIJI2O6SDH2VRQB3ZAB7M", "dateTime": 1515950601424}, {"current_trial": 137, "trialdata": {"rt": -1, "trial_type": "single-stim", "stimulus": "<p id=\"stim\">7</p>", "internal_node_id": "0.0-98.0-3.0", "time_elapsed": 741510, "key_press": -1, "trial_index": 137}, "uniqueid": "MTK1520:3U4J9857OFIJI2O6SDH2VRQB3ZAB7M", "dateTime": 1515950602424}, {"current_trial": 138, "trialdata": {"rt": -1, "trial_type": "single-stim", "stimulus": "<p id=\"stim\">6</p>", "internal_node_id": "0.0-98.0-4.0", "time_elapsed": 742511, "key_press": -1, "trial_index": 138}, "uniqueid": "MTK1520:3U4J9857OFIJI2O6SDH2VRQB3ZAB7M", "dateTime": 1515950603426}, {"current_trial": 139, "trialdata": {"rt": -1, "trial_type": "single-stim", "stimulus": "<p id=\"stim\">5</p>", "internal_node_id": "0.0-98.0-5.0", "time_elapsed": 743512, "key_press": -1, "trial_index": 139}, "uniqueid": "MTK1520:3U4J9857OFIJI2O6SDH2VRQB3ZAB7M", "dateTime": 1515950604427}, {"current_trial": 140, "trialdata": {"rt": -1, "trial_type": "single-stim", "stimulus": "<p id=\"stim\">4</p>", "internal_node_id": "0.0-98.0-6.0", "time_elapsed": 744513, "key_press": -1, "trial_index": 140}, "uniqueid": "MTK1520:3U4J9857OFIJI2O6SDH2VRQB3ZAB7M", "dateTime": 1515950605428}, {"current_trial": 141, "trialdata": {"rt": -1, "trial_type": "single-stim", "stimulus": "<p id=\"stim\">3</p>", "internal_node_id": "0.0-98.0-7.0", "time_elapsed": 745515, "key_press": -1, "trial_index": 141}, "uniqueid": "MTK1520:3U4J9857OFIJI2O6SDH2VRQB3ZAB7M", "dateTime": 1515950606429}, {"current_trial": 142, "trialdata": {"rt": -1, "trial_type": "single-stim", "stimulus": "<p id=\"stim\">2</p>", "internal_node_id": "0.0-98.0-8.0", "time_elapsed": 746516, "key_press": -1, "trial_index": 142}, "uniqueid": "MTK1520:3U4J9857OFIJI2O6SDH2VRQB3ZAB7M", "dateTime": 1515950607430}, {"current_trial": 143, "trialdata": {"rt": -1, "trial_type": "single-stim", "stimulus": "<p id=\"stim\">1</p>", "internal_node_id": "0.0-98.0-9.0", "time_elapsed": 747517, "key_press": -1, "trial_index": 143}, "uniqueid": "MTK1520:3U4J9857OFIJI2O6SDH2VRQB3ZAB7M", "dateTime": 1515950608431}, {"current_trial": 144, "trialdata": {"rt": -1, "trial_type": "single-stim", "stimulus": "<p id=\"stim\">+</p>", "internal_node_id": "0.0-99.0-0.0", "time_elapsed": 749018, "key_press": -1, "type": "FIXATION", "trial_index": 144}, "uniqueid": "MTK1520:3U4J9857OFIJI2O6SDH2VRQB3ZAB7M", "dateTime": 1515950609933}, {"current_trial": 145, "trialdata": {"rt": -1000, "trial_type": "single-audio", "word": "picture", "stimulus": "/static/audio/wordpool/PICTURE.wav", "conditions": [24, 1600, "a", 12000], "internal_node_id": "0.0-100.0", "trial": 4, "time_elapsed": 751484, "serialpos": 0, "key_press": -1, "wordID": 1060, "type": "PRES_AUD", "trial_index": 145}, "uniqueid": "MTK1520:3U4J9857OFIJI2O6SDH2VRQB3ZAB7M", "dateTime": 1515950612399}, {"current_trial": 146, "trialdata": {"rt": -1000, "trial_type": "single-audio", "word": "cousin", "stimulus": "/static/audio/wordpool/COUSIN.wav", "conditions": [24, 1600, "a", 12000], "internal_node_id": "0.0-101.0", "trial": 4, "time_elapsed": 754079, "serialpos": 1, "key_press": -1, "wordID": 391, "type": "PRES_AUD", "trial_index": 146}, "uniqueid": "MTK1520:3U4J9857OFIJI2O6SDH2VRQB3ZAB7M", "dateTime": 1515950614994}, {"current_trial": 147, "trialdata": {"rt": -1000, "trial_type": "single-audio", "word": "tribe", "stimulus": "/static/audio/wordpool/TRIBE.wav", "conditions": [24, 1600, "a", 12000], "internal_node_id": "0.0-102.0", "trial": 4, "time_elapsed": 756589, "serialpos": 2, "key_press": -1, "wordID": 1504, "type": "PRES_AUD", "trial_index": 147}, "uniqueid": "MTK1520:3U4J9857OFIJI2O6SDH2VRQB3ZAB7M", "dateTime": 1515950617503}, {"current_trial": 148, "trialdata": {"rt": -1000, "trial_type": "single-audio", "word": "turtle", "stimulus": "/static/audio/wordpool/TURTLE.wav", "conditions": [24, 1600, "a", 12000], "internal_node_id": "0.0-103.0", "trial": 4, "time_elapsed": 759056, "serialpos": 3, "key_press": -1, "wordID": 1521, "type": "PRES_AUD", "trial_index": 148}, "uniqueid": "MTK1520:3U4J9857OFIJI2O6SDH2VRQB3ZAB7M", "dateTime": 1515950619970}, {"current_trial": 149, "trialdata": {"rt": -1000, "trial_type": "single-audio", "word": "yarn", "stimulus": "/static/audio/wordpool/YARN.wav", "conditions": [24, 1600, "a", 12000], "internal_node_id": "0.0-104.0", "trial": 4, "time_elapsed": 761617, "serialpos": 4, "key_press": -1, "wordID": 1630, "type": "PRES_AUD", "trial_index": 149}, "uniqueid": "MTK1520:3U4J9857OFIJI2O6SDH2VRQB3ZAB7M", "dateTime": 1515950622532}, {"current_trial": 150, "trialdata": {"rt": -1000, "trial_type": "single-audio", "word": "world", "stimulus": "/static/audio/wordpool/WORLD.wav", "conditions": [24, 1600, "a", 12000], "internal_node_id": "0.0-105.0", "trial": 4, "time_elapsed": 764259, "serialpos": 5, "key_press": -1, "wordID": 1621, "type": "PRES_AUD", "trial_index": 150}, "uniqueid": "MTK1520:3U4J9857OFIJI2O6SDH2VRQB3ZAB7M", "dateTime": 1515950625173}, {"current_trial": 151, "trialdata": {"rt": -1000, "trial_type": "single-audio", "word": "pecan", "stimulus": "/static/audio/wordpool/PECAN.wav", "conditions": [24, 1600, "a", 12000], "internal_node_id": "0.0-106.0", "trial": 4, "time_elapsed": 766888, "serialpos": 6, "key_press": -1, "wordID": 1035, "type": "PRES_AUD", "trial_index": 151}, "uniqueid": "MTK1520:3U4J9857OFIJI2O6SDH2VRQB3ZAB7M", "dateTime": 1515950627802}, {"current_trial": 152, "trialdata": {"rt": -1000, "trial_type": "single-audio", "word": "knife", "stimulus": "/static/audio/wordpool/KNIFE.wav", "conditions": [24, 1600, "a", 12000], "internal_node_id": "0.0-107.0", "trial": 4, "time_elapsed": 769541, "serialpos": 7, "key_press": -1, "wordID": 784, "type": "PRES_AUD", "trial_index": 152}, "uniqueid": "MTK1520:3U4J9857OFIJI2O6SDH2VRQB3ZAB7M", "dateTime": 1515950630455}, {"current_trial": 153, "trialdata": {"rt": -1000, "trial_type": "single-audio", "word": "sword", "stimulus": "/static/audio/wordpool/SWORD.wav", "conditions": [24, 1600, "a", 12000], "internal_node_id": "0.0-108.0", "trial": 4, "time_elapsed": 771969, "serialpos": 8, "key_press": -1, "wordID": 1422, "type": "PRES_AUD", "trial_index": 153}, "uniqueid": "MTK1520:3U4J9857OFIJI2O6SDH2VRQB3ZAB7M", "dateTime": 1515950632884}, {"current_trial": 154, "trialdata": {"rt": -1000, "trial_type": "single-audio", "word": "oyster", "stimulus": "/static/audio/wordpool/OYSTER.wav", "conditions": [24, 1600, "a", 12000], "internal_node_id": "0.0-109.0", "trial": 4, "time_elapsed": 774764, "serialpos": 9, "key_press": -1, "wordID": 994, "type": "PRES_AUD", "trial_index": 154}, "uniqueid": "MTK1520:3U4J9857OFIJI2O6SDH2VRQB3ZAB7M", "dateTime": 1515950635678}, {"current_trial": 155, "trialdata": {"rt": -1000, "trial_type": "single-audio", "word": "portrait", "stimulus": "/static/audio/wordpool/PORTRAIT.wav", "conditions": [24, 1600, "a", 12000], "internal_node_id": "0.0-110.0", "trial": 4, "time_elapsed": 777393, "serialpos": 10, "key_press": -1, "wordID": 1110, "type": "PRES_AUD", "trial_index": 155}, "uniqueid": "MTK1520:3U4J9857OFIJI2O6SDH2VRQB3ZAB7M", "dateTime": 1515950638307}, {"current_trial": 156, "trialdata": {"rt": -1000, "trial_type": "single-audio", "word": "dandruff", "stimulus": "/static/audio/wordpool/DANDRUFF.wav", "conditions": [24, 1600, "a", 12000], "internal_node_id": "0.0-111.0", "trial": 4, "time_elapsed": 779839, "serialpos": 11, "key_press": -1, "wordID": 438, "type": "PRES_AUD", "trial_index": 156}, "uniqueid": "MTK1520:3U4J9857OFIJI2O6SDH2VRQB3ZAB7M", "dateTime": 1515950640754}, {"current_trial": 157, "trialdata": {"rt": -1000, "trial_type": "single-audio", "word": "sparrow", "stimulus": "/static/audio/wordpool/SPARROW.wav", "conditions": [24, 1600, "a", 12000], "internal_node_id": "0.0-112.0", "trial": 4, "time_elapsed": 782490, "serialpos": 12, "key_press": -1, "wordID": 1346, "type": "PRES_AUD", "trial_index": 157}, "uniqueid": "MTK1520:3U4J9857OFIJI2O6SDH2VRQB3ZAB7M", "dateTime": 1515950643405}, {"current_trial": 158, "trialdata": {"rt": -1000, "trial_type": "single-audio", "word": "pliers", "stimulus": "/static/audio/wordpool/PLIERS.wav", "conditions": [24, 1600, "a", 12000], "internal_node_id": "0.0-113.0", "trial": 4, "time_elapsed": 785219, "serialpos": 13, "key_press": -1, "wordID": 1088, "type": "PRES_AUD", "trial_index": 158}, "uniqueid": "MTK1520:3U4J9857OFIJI2O6SDH2VRQB3ZAB7M", "dateTime": 1515950646133}, {"current_trial": 159, "trialdata": {"rt": -1000, "trial_type": "single-audio", "word": "human", "stimulus": "/static/audio/wordpool/HUMAN.wav", "conditions": [24, 1600, "a", 12000], "internal_node_id": "0.0-114.0", "trial": 4, "time_elapsed": 787977, "serialpos": 14, "key_press": -1, "wordID": 725, "type": "PRES_AUD", "trial_index": 159}, "uniqueid": "MTK1520:3U4J9857OFIJI2O6SDH2VRQB3ZAB7M", "dateTime": 1515950648892}, {"current_trial": 160, "trialdata": {"rt": -1000, "trial_type": "single-audio", "word": "twister", "stimulus": "/static/audio/wordpool/TWISTER.wav", "conditions": [24, 1600, "a", 12000], "internal_node_id": "0.0-115.0", "trial": 4, "time_elapsed": 790701, "serialpos": 15, "key_press": -1, "wordID": 1529, "type": "PRES_AUD", "trial_index": 160}, "uniqueid": "MTK1520:3U4J9857OFIJI2O6SDH2VRQB3ZAB7M", "dateTime": 1515950651615}, {"current_trial": 161, "trialdata": {"rt": -1000, "trial_type": "single-audio", "word": "freckle", "stimulus": "/static/audio/wordpool/FRECKLE.wav", "conditions": [24, 1600, "a", 12000], "internal_node_id": "0.0-116.0", "trial": 4, "time_elapsed": 793392, "serialpos": 16, "key_press": -1, "wordID": 601, "type": "PRES_AUD", "trial_index": 161}, "uniqueid": "MTK1520:3U4J9857OFIJI2O6SDH2VRQB3ZAB7M", "dateTime": 1515950654306}, {"current_trial": 162, "trialdata": {"rt": -1000, "trial_type": "single-audio", "word": "suspect", "stimulus": "/static/audio/wordpool/SUSPECT.wav", "conditions": [24, 1600, "a", 12000], "internal_node_id": "0.0-117.0", "trial": 4, "time_elapsed": 796188, "serialpos": 17, "key_press": -1, "wordID": 1414, "type": "PRES_AUD", "trial_index": 162}, "uniqueid": "MTK1520:3U4J9857OFIJI2O6SDH2VRQB3ZAB7M", "dateTime": 1515950657103}, {"current_trial": 163, "trialdata": {"rt": -1000, "trial_type": "single-audio", "word": "robber", "stimulus": "/static/audio/wordpool/ROBBER.wav", "conditions": [24, 1600, "a", 12000], "internal_node_id": "0.0-118.0", "trial": 4, "time_elapsed": 798597, "serialpos": 18, "key_press": -1, "wordID": 1196, "type": "PRES_AUD", "trial_index": 163}, "uniqueid": "MTK1520:3U4J9857OFIJI2O6SDH2VRQB3ZAB7M", "dateTime": 1515950659513}, {"current_trial": 164, "trialdata": {"rt": -1000, "trial_type": "single-audio", "word": "sandwich", "stimulus": "/static/audio/wordpool/SANDWICH.wav", "conditions": [24, 1600, "a", 12000], "internal_node_id": "0.0-119.0", "trial": 4, "time_elapsed": 801181, "serialpos": 19, "key_press": -1, "wordID": 1231, "type": "PRES_AUD", "trial_index": 164}, "uniqueid": "MTK1520:3U4J9857OFIJI2O6SDH2VRQB3ZAB7M", "dateTime": 1515950662096}, {"current_trial": 165, "trialdata": {"rt": -1000, "trial_type": "single-audio", "word": "robin", "stimulus": "/static/audio/wordpool/ROBIN.wav", "conditions": [24, 1600, "a", 12000], "internal_node_id": "0.0-120.0", "trial": 4, "time_elapsed": 803881, "serialpos": 20, "key_press": -1, "wordID": 1198, "type": "PRES_AUD", "trial_index": 165}, "uniqueid": "MTK1520:3U4J9857OFIJI2O6SDH2VRQB3ZAB7M", "dateTime": 1515950664796}, {"current_trial": 166, "trialdata": {"rt": -1000, "trial_type": "single-audio", "word": "husband", "stimulus": "/static/audio/wordpool/HUSBAND.wav", "conditions": [24, 1600, "a", 12000], "internal_node_id": "0.0-121.0", "trial": 4, "time_elapsed": 806602, "serialpos": 21, "key_press": -1, "wordID": 727, "type": "PRES_AUD", "trial_index": 166}, "uniqueid": "MTK1520:3U4J9857OFIJI2O6SDH2VRQB3ZAB7M", "dateTime": 1515950667517}, {"current_trial": 167, "trialdata": {"rt": -1000, "trial_type": "single-audio", "word": "puppy", "stimulus": "/static/audio/wordpool/PUPPY.wav", "conditions": [24, 1600, "a", 12000], "internal_node_id": "0.0-122.0", "trial": 4, "time_elapsed": 809126, "serialpos": 22, "key_press": -1, "wordID": 1143, "type": "PRES_AUD", "trial_index": 167}, "uniqueid": "MTK1520:3U4J9857OFIJI2O6SDH2VRQB3ZAB7M", "dateTime": 1515950670040}, {"current_trial": 168, "trialdata": {"rt": -1000, "trial_type": "single-audio", "word": "rug", "stimulus": "/static/audio/wordpool/RUG.wav", "conditions": [24, 1600, "a", 12000], "internal_node_id": "0.0-123.0", "trial": 4, "time_elapsed": 811730, "serialpos": 23, "key_press": -1, "wordID": 1214, "type": "PRES_AUD", "trial_index": 168}, "uniqueid": "MTK1520:3U4J9857OFIJI2O6SDH2VRQB3ZAB7M", "dateTime": 1515950672644}, {"current_trial": 169, "trialdata": {"rt": -1, "trial_type": "single-stim", "stimulus": "", "internal_node_id": "0.0-124.0-0.0", "time_elapsed": 812995, "key_press": -1, "type": "PRE_RECALL_DELAY", "trial_index": 169}, "uniqueid": "MTK1520:3U4J9857OFIJI2O6SDH2VRQB3ZAB7M", "dateTime": 1515950673909}, {"current_trial": 170, "trialdata": {"rt": -1000, "trial_type": "single-audio", "stimulus": "/static/audio/400Hz.wav", "internal_node_id": "0.0-125.0", "time_elapsed": 813496, "key_press": -1, "type": "PRE_RECALL_ALERT", "trial_index": 170}, "uniqueid": "MTK1520:3U4J9857OFIJI2O6SDH2VRQB3ZAB7M", "dateTime": 1515950674410}, {"current_trial": 171, "trialdata": {"rt": [1818, 3418, 4858, 6106, 8722, 11970, 13890, 16129, 18248, 20913, 22153, 24209, 25897, 31809, 33689, 48777], "recwords": ["rug", "puppy", "husband", "robin", "sandwich", "twister", "picture", "portrait", "world", "pecan", "knife", "sword", "oyster", "pliers", "cousin", "husband"], "key_times": [1067, 1266, 1538, 1818, 2282, 2410, 2714, 2890, 3082, 3418, 3698, 3890, 3987, 4234, 4402, 4506, 4650, 4858, 5138, 5282, 5482, 5578, 5802, 6106, 7330, 7506, 7610, 7754, 7930, 8083, 8266, 8370, 8722, 10698, 10906, 11051, 11187, 11498, 11674, 11794, 11970, 12802, 12923, 13074, 13346, 13458, 13618, 13690, 13890, 14410, 14633, 14762, 15017, 15257, 15409, 15570, 15817, 16129, 17457, 17585, 17713, 17857, 18049, 18248, 19961, 20065, 20313, 20505, 20617, 20913, 21242, 21361, 21529, 21753, 21897, 22153, 22337, 22881, 23057, 23297, 23450, 23609, 23889, 24209, 24617, 24833, 25057, 25313, 25489, 25601, 25897, 30689, 30929, 31113, 31289, 31401, 31641, 31809, 32521, 32673, 32817, 33002, 33121, 33345, 33689, 47506, 47722, 47873, 48129, 48313, 48409, 48562, 48777], "trial_type": "free-recall", "conditions": [24, 1600, "a", 12000], "internal_node_id": "0.0-126.0-0.0", "key_presses": [82, 85, 71, 13, 80, 85, 80, 80, 89, 13, 72, 85, 83, 66, 65, 78, 68, 13, 82, 79, 66, 73, 78, 13, 83, 65, 78, 68, 87, 73, 67, 72, 13, 84, 87, 73, 83, 84, 69, 82, 13, 80, 73, 67, 84, 85, 82, 69, 13, 80, 79, 82, 84, 82, 65, 73, 84, 13, 87, 79, 82, 76, 68, 13, 80, 69, 67, 65, 78, 13, 75, 78, 73, 70, 69, 13, 87, 8, 83, 87, 79, 82, 68, 13, 79, 89, 83, 84, 69, 82, 13, 80, 76, 73, 69, 82, 83, 13, 67, 79, 85, 83, 73, 78, 13, 72, 85, 83, 66, 65, 78, 68, 13], "trial": 4, "time_elapsed": 873498, "type": "FREE_RECALL", "trial_index": 171}, "uniqueid": "MTK1520:3U4J9857OFIJI2O6SDH2VRQB3ZAB7M", "dateTime": 1515950734417}, {"current_trial": 172, "trialdata": {"rt": 1476, "trial_type": "text", "internal_node_id": "0.0-127.0", "time_elapsed": 876980, "key_press": 32, "type": "INSTRUCTIONS", "trial_index": 172}, "uniqueid": "MTK1520:3U4J9857OFIJI2O6SDH2VRQB3ZAB7M", "dateTime": 1515950737894}, {"current_trial": 173, "trialdata": {"rt": [3101, 7053, 8653, 10429, 12445, 14117, 15981, 17782, 20182, 22118], "trial_type": "math-distractor", "key_times": [2677, 3101, 6309, 6525, 7053, 8174, 8381, 8653, 10038, 10429, 11854, 12126, 12445, 13478, 13742, 14117, 15462, 15686, 15981, 17334, 17550, 17782, 19647, 19894, 20182, 21550, 21814, 22118, 23470], "responses": ["5", "10", "10", "8", "17", "19", "13", "12", "16", "19"], "num2": [3, 6, 3, 4, 2, 3, 1, 1, 8, 7, 6], "num3": [1, 2, 6, 2, 7, 9, 6, 6, 1, 4, 8], "conditions": [24, 1600, "a", 24000], "internal_node_id": "0.0-128.0", "key_presses": [101, 13, 97, 96, 13, 97, 96, 13, 104, 13, 97, 103, 13, 97, 105, 13, 97, 99, 13, 97, 98, 13, 97, 102, 13, 97, 105, 13, 97], "trial": 5, "time_elapsed": 902983, "type": "DISTRACTOR", "trial_index": 173, "num1": [1, 2, 1, 2, 8, 7, 6, 5, 7, 8, 5]}, "uniqueid": "MTK1520:3U4J9857OFIJI2O6SDH2VRQB3ZAB7M", "dateTime": 1515950763898}, {"current_trial": 174, "trialdata": {"rt": -1, "trial_type": "single-stim", "stimulus": "<p id=\"stim\">10</p>", "internal_node_id": "0.0-129.0-0.0", "time_elapsed": 905984, "key_press": -1, "trial_index": 174}, "uniqueid": "MTK1520:3U4J9857OFIJI2O6SDH2VRQB3ZAB7M", "dateTime": 1515950766898}, {"current_trial": 175, "trialdata": {"rt": -1, "trial_type": "single-stim", "stimulus": "<p id=\"stim\">9</p>", "internal_node_id": "0.0-129.0-1.0", "time_elapsed": 906985, "key_press": -1, "trial_index": 175}, "uniqueid": "MTK1520:3U4J9857OFIJI2O6SDH2VRQB3ZAB7M", "dateTime": 1515950767900}, {"current_trial": 176, "trialdata": {"rt": -1, "trial_type": "single-stim", "stimulus": "<p id=\"stim\">8</p>", "internal_node_id": "0.0-129.0-2.0", "time_elapsed": 907986, "key_press": -1, "trial_index": 176}, "uniqueid": "MTK1520:3U4J9857OFIJI2O6SDH2VRQB3ZAB7M", "dateTime": 1515950768900}, {"current_trial": 177, "trialdata": {"rt": -1, "trial_type": "single-stim", "stimulus": "<p id=\"stim\">7</p>", "internal_node_id": "0.0-129.0-3.0", "time_elapsed": 908987, "key_press": -1, "trial_index": 177}, "uniqueid": "MTK1520:3U4J9857OFIJI2O6SDH2VRQB3ZAB7M", "dateTime": 1515950769902}, {"current_trial": 178, "trialdata": {"rt": -1, "trial_type": "single-stim", "stimulus": "<p id=\"stim\">6</p>", "internal_node_id": "0.0-129.0-4.0", "time_elapsed": 909988, "key_press": -1, "trial_index": 178}, "uniqueid": "MTK1520:3U4J9857OFIJI2O6SDH2VRQB3ZAB7M", "dateTime": 1515950770902}, {"current_trial": 179, "trialdata": {"rt": -1, "trial_type": "single-stim", "stimulus": "<p id=\"stim\">5</p>", "internal_node_id": "0.0-129.0-5.0", "time_elapsed": 910989, "key_press": -1, "trial_index": 179}, "uniqueid": "MTK1520:3U4J9857OFIJI2O6SDH2VRQB3ZAB7M", "dateTime": 1515950771903}, {"current_trial": 180, "trialdata": {"rt": -1, "trial_type": "single-stim", "stimulus": "<p id=\"stim\">4</p>", "internal_node_id": "0.0-129.0-6.0", "time_elapsed": 911990, "key_press": -1, "trial_index": 180}, "uniqueid": "MTK1520:3U4J9857OFIJI2O6SDH2VRQB3ZAB7M", "dateTime": 1515950772905}, {"current_trial": 181, "trialdata": {"rt": -1, "trial_type": "single-stim", "stimulus": "<p id=\"stim\">3</p>", "internal_node_id": "0.0-129.0-7.0", "time_elapsed": 912991, "key_press": -1, "trial_index": 181}, "uniqueid": "MTK1520:3U4J9857OFIJI2O6SDH2VRQB3ZAB7M", "dateTime": 1515950773906}, {"current_trial": 182, "trialdata": {"rt": -1, "trial_type": "single-stim", "stimulus": "<p id=\"stim\">2</p>", "internal_node_id": "0.0-129.0-8.0", "time_elapsed": 913992, "key_press": -1, "trial_index": 182}, "uniqueid": "MTK1520:3U4J9857OFIJI2O6SDH2VRQB3ZAB7M", "dateTime": 1515950774907}, {"current_trial": 183, "trialdata": {"rt": -1, "trial_type": "single-stim", "stimulus": "<p id=\"stim\">1</p>", "internal_node_id": "0.0-129.0-9.0", "time_elapsed": 914993, "key_press": -1, "trial_index": 183}, "uniqueid": "MTK1520:3U4J9857OFIJI2O6SDH2VRQB3ZAB7M", "dateTime": 1515950775908}, {"current_trial": 184, "trialdata": {"rt": -1, "trial_type": "single-stim", "stimulus": "<p id=\"stim\">+</p>", "internal_node_id": "0.0-130.0-0.0", "time_elapsed": 916494, "key_press": -1, "type": "FIXATION", "trial_index": 184}, "uniqueid": "MTK1520:3U4J9857OFIJI2O6SDH2VRQB3ZAB7M", "dateTime": 1515950777408}, {"current_trial": 185, "trialdata": {"rt": -1000, "trial_type": "single-audio", "word": "gavel", "stimulus": "/static/audio/wordpool/GAVEL.wav", "conditions": [24, 1600, "a", 24000], "internal_node_id": "0.0-131.0", "trial": 5, "time_elapsed": 919038, "serialpos": 0, "key_press": -1, "wordID": 626, "type": "PRES_AUD", "trial_index": 185}, "uniqueid": "MTK1520:3U4J9857OFIJI2O6SDH2VRQB3ZAB7M", "dateTime": 1515950779953}, {"current_trial": 186, "trialdata": {"rt": -1000, "trial_type": "single-audio", "word": "mustard", "stimulus": "/static/audio/wordpool/MUSTARD.wav", "conditions": [24, 1600, "a", 24000], "internal_node_id": "0.0-132.0", "trial": 5, "time_elapsed": 921837, "serialpos": 1, "key_press": -1, "wordID": 934, "type": "PRES_AUD", "trial_index": 186}, "uniqueid": "MTK1520:3U4J9857OFIJI2O6SDH2VRQB3ZAB7M", "dateTime": 1515950782752}, {"current_trial": 187, "trialdata": {"rt": -1000, "trial_type": "single-audio", "word": "necklace", "stimulus": "/static/audio/wordpool/NECKLACE.wav", "conditions": [24, 1600, "a", 24000], "internal_node_id": "0.0-133.0", "trial": 5, "time_elapsed": 924512, "serialpos": 2, "key_press": -1, "wordID": 939, "type": "PRES_AUD", "trial_index": 187}, "uniqueid": "MTK1520:3U4J9857OFIJI2O6SDH2VRQB3ZAB7M", "dateTime": 1515950785427}, {"current_trial": 188, "trialdata": {"rt": -1000, "trial_type": "single-audio", "word": "cabbage", "stimulus": "/static/audio/wordpool/CABBAGE.wav", "conditions": [24, 1600, "a", 24000], "internal_node_id": "0.0-134.0", "trial": 5, "time_elapsed": 927243, "serialpos": 3, "key_press": -1, "wordID": 209, "type": "PRES_AUD", "trial_index": 188}, "uniqueid": "MTK1520:3U4J9857OFIJI2O6SDH2VRQB3ZAB7M", "dateTime": 1515950788158}, {"current_trial": 189, "trialdata": {"rt": -1000, "trial_type": "single-audio", "word": "salad", "stimulus": "/static/audio/wordpool/SALAD.wav", "conditions": [24, 1600, "a", 24000], "internal_node_id": "0.0-135.0", "trial": 5, "time_elapsed": 930018, "serialpos": 4, "key_press": -1, "wordID": 1223, "type": "PRES_AUD", "trial_index": 189}, "uniqueid": "MTK1520:3U4J9857OFIJI2O6SDH2VRQB3ZAB7M", "dateTime": 1515950790933}, {"current_trial": 190, "trialdata": {"rt": -1000, "trial_type": "single-audio", "word": "ankle", "stimulus": "/static/audio/wordpool/ANKLE.wav", "conditions": [24, 1600, "a", 24000], "internal_node_id": "0.0-136.0", "trial": 5, "time_elapsed": 932711, "serialpos": 5, "key_press": -1, "wordID": 23, "type": "PRES_AUD", "trial_index": 190}, "uniqueid": "MTK1520:3U4J9857OFIJI2O6SDH2VRQB3ZAB7M", "dateTime": 1515950793626}, {"current_trial": 191, "trialdata": {"rt": -1000, "trial_type": "single-audio", "word": "canyon", "stimulus": "/static/audio/wordpool/CANYON.wav", "conditions": [24, 1600, "a", 24000], "internal_node_id": "0.0-137.0", "trial": 5, "time_elapsed": 935375, "serialpos": 6, "key_press": -1, "wordID": 234, "type": "PRES_AUD", "trial_index": 191}, "uniqueid": "MTK1520:3U4J9857OFIJI2O6SDH2VRQB3ZAB7M", "dateTime": 1515950796290}, {"current_trial": 192, "trialdata": {"rt": -1000, "trial_type": "single-audio", "word": "church", "stimulus": "/static/audio/wordpool/CHURCH.wav", "conditions": [24, 1600, "a", 24000], "internal_node_id": "0.0-138.0", "trial": 5, "time_elapsed": 938105, "serialpos": 7, "key_press": -1, "wordID": 306, "type": "PRES_AUD", "trial_index": 192}, "uniqueid": "MTK1520:3U4J9857OFIJI2O6SDH2VRQB3ZAB7M", "dateTime": 1515950799019}, {"current_trial": 193, "trialdata": {"rt": -1000, "trial_type": "single-audio", "word": "playground", "stimulus": "/static/audio/wordpool/PLAYGROUND.wav", "conditions": [24, 1600, "a", 24000], "internal_node_id": "0.0-139.0", "trial": 5, "time_elapsed": 940701, "serialpos": 8, "key_press": -1, "wordID": 1086, "type": "PRES_AUD", "trial_index": 193}, "uniqueid": "MTK1520:3U4J9857OFIJI2O6SDH2VRQB3ZAB7M", "dateTime": 1515950801616}, {"current_trial": 194, "trialdata": {"rt": -1000, "trial_type": "single-audio", "word": "suitcase", "stimulus": "/static/audio/wordpool/SUITCASE.wav", "conditions": [24, 1600, "a", 24000], "internal_node_id": "0.0-140.0", "trial": 5, "time_elapsed": 943147, "serialpos": 9, "key_press": -1, "wordID": 1402, "type": "PRES_AUD", "trial_index": 194}, "uniqueid": "MTK1520:3U4J9857OFIJI2O6SDH2VRQB3ZAB7M", "dateTime": 1515950804061}, {"current_trial": 195, "trialdata": {"rt": -1000, "trial_type": "single-audio", "word": "elbow", "stimulus": "/static/audio/wordpool/ELBOW.wav", "conditions": [24, 1600, "a", 24000], "internal_node_id": "0.0-141.0", "trial": 5, "time_elapsed": 945842, "serialpos": 10, "key_press": -1, "wordID": 519, "type": "PRES_AUD", "trial_index": 195}, "uniqueid": "MTK1520:3U4J9857OFIJI2O6SDH2VRQB3ZAB7M", "dateTime": 1515950806756}, {"current_trial": 196, "trialdata": {"rt": -1000, "trial_type": "single-audio", "word": "frame", "stimulus": "/static/audio/wordpool/FRAME.wav", "conditions": [24, 1600, "a", 24000], "internal_node_id": "0.0-142.0", "trial": 5, "time_elapsed": 948247, "serialpos": 11, "key_press": -1, "wordID": 599, "type": "PRES_AUD", "trial_index": 196}, "uniqueid": "MTK1520:3U4J9857OFIJI2O6SDH2VRQB3ZAB7M", "dateTime": 1515950809162}, {"current_trial": 197, "trialdata": {"rt": -1000, "trial_type": "single-audio", "word": "dress", "stimulus": "/static/audio/wordpool/DRESS.wav", "conditions": [24, 1600, "a", 24000], "internal_node_id": "0.0-143.0", "trial": 5, "time_elapsed": 950698, "serialpos": 12, "key_press": -1, "wordID": 494, "type": "PRES_AUD", "trial_index": 197}, "uniqueid": "MTK1520:3U4J9857OFIJI2O6SDH2VRQB3ZAB7M", "dateTime": 1515950811612}, {"current_trial": 198, "trialdata": {"rt": -1000, "trial_type": "single-audio", "word": "carriage", "stimulus": "/static/audio/wordpool/CARRIAGE.wav", "conditions": [24, 1600, "a", 24000], "internal_node_id": "0.0-144.0", "trial": 5, "time_elapsed": 953197, "serialpos": 13, "key_press": -1, "wordID": 247, "type": "PRES_AUD", "trial_index": 198}, "uniqueid": "MTK1520:3U4J9857OFIJI2O6SDH2VRQB3ZAB7M", "dateTime": 1515950814111}, {"current_trial": 199, "trialdata": {"rt": -1000, "trial_type": "single-audio", "word": "foot", "stimulus": "/static/audio/wordpool/FOOT.wav", "conditions": [24, 1600, "a", 24000], "internal_node_id": "0.0-145.0", "trial": 5, "time_elapsed": 955844, "serialpos": 14, "key_press": -1, "wordID": 589, "type": "PRES_AUD", "trial_index": 199}, "uniqueid": "MTK1520:3U4J9857OFIJI2O6SDH2VRQB3ZAB7M", "dateTime": 1515950816759}, {"current_trial": 200, "trialdata": {"rt": -1000, "trial_type": "single-audio", "word": "lunch", "stimulus": "/static/audio/wordpool/LUNCH.wav", "conditions": [24, 1600, "a", 24000], "internal_node_id": "0.0-146.0", "trial": 5, "time_elapsed": 958509, "serialpos": 15, "key_press": -1, "wordID": 848, "type": "PRES_AUD", "trial_index": 200}, "uniqueid": "MTK1520:3U4J9857OFIJI2O6SDH2VRQB3ZAB7M", "dateTime": 1515950819423}, {"current_trial": 201, "trialdata": {"rt": -1000, "trial_type": "single-audio", "word": "mailman", "stimulus": "/static/audio/wordpool/MAILMAN.wav", "conditions": [24, 1600, "a", 24000], "internal_node_id": "0.0-147.0", "trial": 5, "time_elapsed": 961236, "serialpos": 16, "key_press": -1, "wordID": 857, "type": "PRES_AUD", "trial_index": 201}, "uniqueid": "MTK1520:3U4J9857OFIJI2O6SDH2VRQB3ZAB7M", "dateTime": 1515950822150}, {"current_trial": 202, "trialdata": {"rt": -1000, "trial_type": "single-audio", "word": "wagon", "stimulus": "/static/audio/wordpool/WAGON.wav", "conditions": [24, 1600, "a", 24000], "internal_node_id": "0.0-148.0", "trial": 5, "time_elapsed": 963990, "serialpos": 17, "key_press": -1, "wordID": 1577, "type": "PRES_AUD", "trial_index": 202}, "uniqueid": "MTK1520:3U4J9857OFIJI2O6SDH2VRQB3ZAB7M", "dateTime": 1515950824904}, {"current_trial": 203, "trialdata": {"rt": -1000, "trial_type": "single-audio", "word": "finger", "stimulus": "/static/audio/wordpool/FINGER.wav", "conditions": [24, 1600, "a", 24000], "internal_node_id": "0.0-149.0", "trial": 5, "time_elapsed": 966470, "serialpos": 18, "key_press": -1, "wordID": 566, "type": "PRES_AUD", "trial_index": 203}, "uniqueid": "MTK1520:3U4J9857OFIJI2O6SDH2VRQB3ZAB7M", "dateTime": 1515950827385}, {"current_trial": 204, "trialdata": {"rt": -1000, "trial_type": "single-audio", "word": "skirt", "stimulus": "/static/audio/wordpool/SKIRT.wav", "conditions": [24, 1600, "a", 24000], "internal_node_id": "0.0-150.0", "trial": 5, "time_elapsed": 969126, "serialpos": 19, "key_press": -1, "wordID": 1318, "type": "PRES_AUD", "trial_index": 204}, "uniqueid": "MTK1520:3U4J9857OFIJI2O6SDH2VRQB3ZAB7M", "dateTime": 1515950830041}, {"current_trial": 205, "trialdata": {"rt": -1000, "trial_type": "single-audio", "word": "grave", "stimulus": "/static/audio/wordpool/GRAVE.wav", "conditions": [24, 1600, "a", 24000], "internal_node_id": "0.0-151.0", "trial": 5, "time_elapsed": 971683, "serialpos": 20, "key_press": -1, "wordID": 657, "type": "PRES_AUD", "trial_index": 205}, "uniqueid": "MTK1520:3U4J9857OFIJI2O6SDH2VRQB3ZAB7M", "dateTime": 1515950832598}, {"current_trial": 206, "trialdata": {"rt": -1000, "trial_type": "single-audio", "word": "france", "stimulus": "/static/audio/wordpool/FRANCE.wav", "conditions": [24, 1600, "a", 24000], "internal_node_id": "0.0-152.0", "trial": 5, "time_elapsed": 974428, "serialpos": 21, "key_press": -1, "wordID": 600, "type": "PRES_AUD", "trial_index": 206}, "uniqueid": "MTK1520:3U4J9857OFIJI2O6SDH2VRQB3ZAB7M", "dateTime": 1515950835342}, {"current_trial": 207, "trialdata": {"rt": -1000, "trial_type": "single-audio", "word": "europe", "stimulus": "/static/audio/wordpool/EUROPE.wav", "conditions": [24, 1600, "a", 24000], "internal_node_id": "0.0-153.0", "trial": 5, "time_elapsed": 976889, "serialpos": 22, "key_press": -1, "wordID": 540, "type": "PRES_AUD", "trial_index": 207}, "uniqueid": "MTK1520:3U4J9857OFIJI2O6SDH2VRQB3ZAB7M", "dateTime": 1515950837804}, {"current_trial": 208, "trialdata": {"rt": -1000, "trial_type": "single-audio", "word": "tombstone", "stimulus": "/static/audio/wordpool/TOMBSTONE.wav", "conditions": [24, 1600, "a", 24000], "internal_node_id": "0.0-154.0", "trial": 5, "time_elapsed": 979479, "serialpos": 23, "key_press": -1, "wordID": 1477, "type": "PRES_AUD", "trial_index": 208}, "uniqueid": "MTK1520:3U4J9857OFIJI2O6SDH2VRQB3ZAB7M", "dateTime": 1515950840394}, {"current_trial": 209, "trialdata": {"rt": -1, "trial_type": "single-stim", "stimulus": "", "internal_node_id": "0.0-155.0-0.0", "time_elapsed": 980865, "key_press": -1, "type": "PRE_RECALL_DELAY", "trial_index": 209}, "uniqueid": "MTK1520:3U4J9857OFIJI2O6SDH2VRQB3ZAB7M", "dateTime": 1515950841779}, {"current_trial": 210, "trialdata": {"rt": -1000, "trial_type": "single-audio", "stimulus": "/static/audio/400Hz.wav", "internal_node_id": "0.0-156.0", "time_elapsed": 981367, "key_press": -1, "type": "PRE_RECALL_ALERT", "trial_index": 210}, "uniqueid": "MTK1520:3U4J9857OFIJI2O6SDH2VRQB3ZAB7M", "dateTime": 1515950842281}, {"current_trial": 211, "trialdata": {"rt": [3412, 5300, 7476, 8828, 10996, 15556, 18244, 20268, 21884, 25828, 27652, 36284, 41547, 44091], "recwords": ["france", "europe", "cabbage", "salad", "mustard", "church", "playground", "dress", "skirt", "ankle", "foot", "elbow", "finger", "arm"], "key_times": [2109, 2252, 2508, 2644, 2772, 2964, 3212, 3412, 3716, 3837, 4100, 4293, 4428, 4676, 4844, 5300, 5668, 5868, 6132, 6340, 6668, 6964, 7188, 7476, 7748, 7956, 8180, 8372, 8620, 8828, 9092, 9348, 9564, 9796, 10036, 10244, 10564, 10996, 14365, 14549, 14756, 14885, 15148, 15253, 15556, 15980, 16212, 16364, 16460, 16652, 16852, 16972, 17084, 17332, 17516, 18244, 19324, 19604, 19660, 19884, 20092, 20268, 20468, 20620, 20852, 21060, 21276, 21884, 24060, 24204, 24685, 24996, 25188, 25828, 26221, 26580, 26772, 26924, 27652, 34852, 35060, 35364, 35540, 35844, 36284, 40276, 40444, 40668, 40820, 41060, 41196, 41547, 43324, 43540, 43724, 44091], "trial_type": "free-recall", "conditions": [24, 1600, "a", 24000], "internal_node_id": "0.0-157.0-0.0", "key_presses": [16, 70, 82, 65, 78, 67, 69, 13, 16, 69, 85, 82, 79, 80, 69, 13, 67, 65, 66, 66, 65, 71, 69, 13, 83, 65, 76, 65, 68, 13, 77, 85, 83, 84, 65, 82, 68, 13, 67, 72, 85, 82, 67, 72, 13, 80, 76, 65, 89, 71, 82, 79, 85, 78, 68, 13, 68, 82, 69, 83, 83, 13, 83, 75, 73, 82, 84, 13, 65, 78, 75, 76, 69, 13, 70, 79, 79, 84, 13, 69, 76, 66, 79, 87, 13, 70, 73, 78, 71, 69, 82, 13, 65, 82, 77, 13], "trial": 5, "time_elapsed": 1041369, "type": "FREE_RECALL", "trial_index": 211}, "uniqueid": "MTK1520:3U4J9857OFIJI2O6SDH2VRQB3ZAB7M", "dateTime": 1515950902290}, {"current_trial": 212, "trialdata": {"rt": 685, "trial_type": "text", "internal_node_id": "0.0-158.0", "time_elapsed": 1044062, "key_press": 32, "type": "INSTRUCTIONS", "trial_index": 212}, "uniqueid": "MTK1520:3U4J9857OFIJI2O6SDH2VRQB3ZAB7M", "dateTime": 1515950904976}, {"current_trial": 213, "trialdata": {"rt": [1997, 9253, 11373, 14637, 16637, 19141, 21284], "trial_type": "math-distractor", "key_times": [1253, 1589, 1997, 4357, 4701, 6861, 7333, 8654, 8933, 9253, 10845, 11061, 11373, 13269, 13925, 14637, 15813, 16149, 16637, 18710, 18917, 19141, 20837, 21069, 21284, 23533], "responses": ["18", "17", "12", "13", "17", "11", "12"], "num2": [2, 5, 2, 5, 7, 6, 4, 4], "num3": [8, 3, 1, 1, 7, 2, 1, 9], "conditions": [12, 1600, "a", 24000], "internal_node_id": "0.0-159.0", "key_presses": [97, 104, 13, 97, 100, 8, 8, 97, 103, 13, 97, 98, 13, 97, 99, 13, 97, 103, 13, 97, 97, 13, 97, 98, 13, 97], "trial": 6, "time_elapsed": 1070064, "type": "DISTRACTOR", "trial_index": 213, "num1": [8, 9, 9, 7, 3, 3, 7, 4]}, "uniqueid": "MTK1520:3U4J9857OFIJI2O6SDH2VRQB3ZAB7M", "dateTime": 1515950930978}, {"current_trial": 214, "trialdata": {"rt": -1, "trial_type": "single-stim", "stimulus": "<p id=\"stim\">10</p>", "internal_node_id": "0.0-160.0-0.0", "time_elapsed": 1073064, "key_press": -1, "trial_index": 214}, "uniqueid": "MTK1520:3U4J9857OFIJI2O6SDH2VRQB3ZAB7M", "dateTime": 1515950933979}, {"current_trial": 215, "trialdata": {"rt": -1, "trial_type": "single-stim", "stimulus": "<p id=\"stim\">9</p>", "internal_node_id": "0.0-160.0-1.0", "time_elapsed": 1074065, "key_press": -1, "trial_index": 215}, "uniqueid": "MTK1520:3U4J9857OFIJI2O6SDH2VRQB3ZAB7M", "dateTime": 1515950934979}, {"current_trial": 216, "trialdata": {"rt": -1, "trial_type": "single-stim", "stimulus": "<p id=\"stim\">8</p>", "internal_node_id": "0.0-160.0-2.0", "time_elapsed": 1075065, "key_press": -1, "trial_index": 216}, "uniqueid": "MTK1520:3U4J9857OFIJI2O6SDH2VRQB3ZAB7M", "dateTime": 1515950935979}, {"current_trial": 217, "trialdata": {"rt": -1, "trial_type": "single-stim", "stimulus": "<p id=\"stim\">7</p>", "internal_node_id": "0.0-160.0-3.0", "time_elapsed": 1076067, "key_press": -1, "trial_index": 217}, "uniqueid": "MTK1520:3U4J9857OFIJI2O6SDH2VRQB3ZAB7M", "dateTime": 1515950936981}, {"current_trial": 218, "trialdata": {"rt": -1, "trial_type": "single-stim", "stimulus": "<p id=\"stim\">6</p>", "internal_node_id": "0.0-160.0-4.0", "time_elapsed": 1077069, "key_press": -1, "trial_index": 218}, "uniqueid": "MTK1520:3U4J9857OFIJI2O6SDH2VRQB3ZAB7M", "dateTime": 1515950937984}, {"current_trial": 219, "trialdata": {"rt": -1, "trial_type": "single-stim", "stimulus": "<p id=\"stim\">5</p>", "internal_node_id": "0.0-160.0-5.0", "time_elapsed": 1078071, "key_press": -1, "trial_index": 219}, "uniqueid": "MTK1520:3U4J9857OFIJI2O6SDH2VRQB3ZAB7M", "dateTime": 1515950938986}, {"current_trial": 220, "trialdata": {"rt": -1, "trial_type": "single-stim", "stimulus": "<p id=\"stim\">4</p>", "internal_node_id": "0.0-160.0-6.0", "time_elapsed": 1079074, "key_press": -1, "trial_index": 220}, "uniqueid": "MTK1520:3U4J9857OFIJI2O6SDH2VRQB3ZAB7M", "dateTime": 1515950939988}, {"current_trial": 221, "trialdata": {"rt": -1, "trial_type": "single-stim", "stimulus": "<p id=\"stim\">3</p>", "internal_node_id": "0.0-160.0-7.0", "time_elapsed": 1080075, "key_press": -1, "trial_index": 221}, "uniqueid": "MTK1520:3U4J9857OFIJI2O6SDH2VRQB3ZAB7M", "dateTime": 1515950940989}, {"current_trial": 222, "trialdata": {"rt": -1, "trial_type": "single-stim", "stimulus": "<p id=\"stim\">2</p>", "internal_node_id": "0.0-160.0-8.0", "time_elapsed": 1081076, "key_press": -1, "trial_index": 222}, "uniqueid": "MTK1520:3U4J9857OFIJI2O6SDH2VRQB3ZAB7M", "dateTime": 1515950941990}, {"current_trial": 223, "trialdata": {"rt": -1, "trial_type": "single-stim", "stimulus": "<p id=\"stim\">1</p>", "internal_node_id": "0.0-160.0-9.0", "time_elapsed": 1082077, "key_press": -1, "trial_index": 223}, "uniqueid": "MTK1520:3U4J9857OFIJI2O6SDH2VRQB3ZAB7M", "dateTime": 1515950942991}, {"current_trial": 224, "trialdata": {"rt": -1, "trial_type": "single-stim", "stimulus": "<p id=\"stim\">+</p>", "internal_node_id": "0.0-161.0-0.0", "time_elapsed": 1083579, "key_press": -1, "type": "FIXATION", "trial_index": 224}, "uniqueid": "MTK1520:3U4J9857OFIJI2O6SDH2VRQB3ZAB7M", "dateTime": 1515950944493}, {"current_trial": 225, "trialdata": {"rt": -1000, "trial_type": "single-audio", "word": "bunny", "stimulus": "/static/audio/wordpool/BUNNY.wav", "conditions": [12, 1600, "a", 24000], "internal_node_id": "0.0-162.0", "trial": 6, "time_elapsed": 1086057, "serialpos": 0, "key_press": -1, "wordID": 197, "type": "PRES_AUD", "trial_index": 225}, "uniqueid": "MTK1520:3U4J9857OFIJI2O6SDH2VRQB3ZAB7M", "dateTime": 1515950946971}, {"current_trial": 226, "trialdata": {"rt": -1000, "trial_type": "single-audio", "word": "beef", "stimulus": "/static/audio/wordpool/BEEF.wav", "conditions": [12, 1600, "a", 24000], "internal_node_id": "0.0-163.0", "trial": 6, "time_elapsed": 1088614, "serialpos": 1, "key_press": -1, "wordID": 112, "type": "PRES_AUD", "trial_index": 226}, "uniqueid": "MTK1520:3U4J9857OFIJI2O6SDH2VRQB3ZAB7M", "dateTime": 1515950949528}, {"current_trial": 227, "trialdata": {"rt": -1000, "trial_type": "single-audio", "word": "cattle", "stimulus": "/static/audio/wordpool/CATTLE.wav", "conditions": [12, 1600, "a", 24000], "internal_node_id": "0.0-164.0", "trial": 6, "time_elapsed": 1091377, "serialpos": 2, "key_press": -1, "wordID": 260, "type": "PRES_AUD", "trial_index": 227}, "uniqueid": "MTK1520:3U4J9857OFIJI2O6SDH2VRQB3ZAB7M", "dateTime": 1515950952292}, {"current_trial": 228, "trialdata": {"rt": -1000, "trial_type": "single-audio", "word": "convict", "stimulus": "/static/audio/wordpool/CONVICT.wav", "conditions": [12, 1600, "a", 24000], "internal_node_id": "0.0-165.0", "trial": 6, "time_elapsed": 1093920, "serialpos": 3, "key_press": -1, "wordID": 370, "type": "PRES_AUD", "trial_index": 228}, "uniqueid": "MTK1520:3U4J9857OFIJI2O6SDH2VRQB3ZAB7M", "dateTime": 1515950954834}, {"current_trial": 229, "trialdata": {"rt": -1000, "trial_type": "single-audio", "word": "quarter", "stimulus": "/static/audio/wordpool/QUARTER.wav", "conditions": [12, 1600, "a", 24000], "internal_node_id": "0.0-166.0", "trial": 6, "time_elapsed": 1096334, "serialpos": 4, "key_press": -1, "wordID": 1147, "type": "PRES_AUD", "trial_index": 229}, "uniqueid": "MTK1520:3U4J9857OFIJI2O6SDH2VRQB3ZAB7M", "dateTime": 1515950957248}, {"current_trial": 230, "trialdata": {"rt": -1000, "trial_type": "single-audio", "word": "piano", "stimulus": "/static/audio/wordpool/PIANO.wav", "conditions": [12, 1600, "a", 24000], "internal_node_id": "0.0-167.0", "trial": 6, "time_elapsed": 1098844, "serialpos": 5, "key_press": -1, "wordID": 1056, "type": "PRES_AUD", "trial_index": 230}, "uniqueid": "MTK1520:3U4J9857OFIJI2O6SDH2VRQB3ZAB7M", "dateTime": 1515950959758}, {"current_trial": 231, "trialdata": {"rt": -1000, "trial_type": "single-audio", "word": "palace", "stimulus": "/static/audio/wordpool/PALACE.wav", "conditions": [12, 1600, "a", 24000], "internal_node_id": "0.0-168.0", "trial": 6, "time_elapsed": 1101554, "serialpos": 6, "key_press": -1, "wordID": 1005, "type": "PRES_AUD", "trial_index": 231}, "uniqueid": "MTK1520:3U4J9857OFIJI2O6SDH2VRQB3ZAB7M", "dateTime": 1515950962468}, {"current_trial": 232, "trialdata": {"rt": -1000, "trial_type": "single-audio", "word": "egypt", "stimulus": "/static/audio/wordpool/EGYPT.wav", "conditions": [12, 1600, "a", 24000], "internal_node_id": "0.0-169.0", "trial": 6, "time_elapsed": 1104022, "serialpos": 7, "key_press": -1, "wordID": 518, "type": "PRES_AUD", "trial_index": 232}, "uniqueid": "MTK1520:3U4J9857OFIJI2O6SDH2VRQB3ZAB7M", "dateTime": 1515950964937}, {"current_trial": 233, "trialdata": {"rt": -1000, "trial_type": "single-audio", "word": "record", "stimulus": "/static/audio/wordpool/RECORD.wav", "conditions": [12, 1600, "a", 24000], "internal_node_id": "0.0-170.0", "trial": 6, "time_elapsed": 1106781, "serialpos": 8, "key_press": -1, "wordID": 1175, "type": "PRES_AUD", "trial_index": 233}, "uniqueid": "MTK1520:3U4J9857OFIJI2O6SDH2VRQB3ZAB7M", "dateTime": 1515950967696}, {"current_trial": 234, "trialdata": {"rt": -1000, "trial_type": "single-audio", "word": "blouse", "stimulus": "/static/audio/wordpool/BLOUSE.wav", "conditions": [12, 1600, "a", 24000], "internal_node_id": "0.0-171.0", "trial": 6, "time_elapsed": 1109325, "serialpos": 9, "key_press": -1, "wordID": 138, "type": "PRES_AUD", "trial_index": 234}, "uniqueid": "MTK1520:3U4J9857OFIJI2O6SDH2VRQB3ZAB7M", "dateTime": 1515950970239}, {"current_trial": 235, "trialdata": {"rt": -1000, "trial_type": "single-audio", "word": "catcher", "stimulus": "/static/audio/wordpool/CATCHER.wav", "conditions": [12, 1600, "a", 24000], "internal_node_id": "0.0-172.0", "trial": 6, "time_elapsed": 1111808, "serialpos": 10, "key_press": -1, "wordID": 257, "type": "PRES_AUD", "trial_index": 235}, "uniqueid": "MTK1520:3U4J9857OFIJI2O6SDH2VRQB3ZAB7M", "dateTime": 1515950972722}, {"current_trial": 236, "trialdata": {"rt": -1000, "trial_type": "single-audio", "word": "tuba", "stimulus": "/static/audio/wordpool/TUBA.wav", "conditions": [12, 1600, "a", 24000], "internal_node_id": "0.0-173.0", "trial": 6, "time_elapsed": 1114394, "serialpos": 11, "key_press": -1, "wordID": 1514, "type": "PRES_AUD", "trial_index": 236}, "uniqueid": "MTK1520:3U4J9857OFIJI2O6SDH2VRQB3ZAB7M", "dateTime": 1515950975309}, {"current_trial": 237, "trialdata": {"rt": -1, "trial_type": "single-stim", "stimulus": "", "internal_node_id": "0.0-174.0-0.0", "time_elapsed": 1115689, "key_press": -1, "type": "PRE_RECALL_DELAY", "trial_index": 237}, "uniqueid": "MTK1520:3U4J9857OFIJI2O6SDH2VRQB3ZAB7M", "dateTime": 1515950976603}, {"current_trial": 238, "trialdata": {"rt": -1000, "trial_type": "single-audio", "stimulus": "/static/audio/400Hz.wav", "internal_node_id": "0.0-175.0", "time_elapsed": 1116190, "key_press": -1, "type": "PRE_RECALL_ALERT", "trial_index": 238}, "uniqueid": "MTK1520:3U4J9857OFIJI2O6SDH2VRQB3ZAB7M", "dateTime": 1515950977104}, {"current_trial": 239, "trialdata": {"rt": [3716, 4948, 6404, 8204, 9564, 16116, 18100, 30132, 42492], "recwords": ["bunny", "beef", "cattle", "catcher", "tuba", "piano", "quarter", "palace", "record"], "key_times": [2356, 2692, 2972, 3148, 3364, 3716, 4044, 4268, 4460, 4636, 4948, 5244, 5460, 5732, 5900, 6029, 6204, 6404, 7020, 7212, 7348, 7612, 7741, 7932, 8052, 8204, 8476, 8636, 8860, 9237, 9564, 14149, 14580, 14892, 15188, 15516, 16116, 16788, 16989, 17228, 17420, 17637, 17796, 17892, 18100, 27813, 28124, 28501, 28661, 28908, 29204, 30132, 40797, 40916, 41196, 41397, 41549, 41788, 42492], "trial_type": "free-recall", "conditions": [12, 1600, "a", 24000], "internal_node_id": "0.0-176.0-0.0", "key_presses": [66, 85, 78, 78, 89, 13, 66, 69, 69, 70, 13, 67, 65, 84, 84, 76, 69, 13, 67, 65, 84, 67, 72, 69, 82, 13, 84, 85, 66, 65, 13, 80, 73, 65, 78, 79, 13, 81, 85, 65, 82, 84, 69, 82, 13, 80, 65, 76, 65, 67, 69, 13, 82, 69, 67, 79, 82, 68, 13], "trial": 6, "time_elapsed": 1176193, "type": "FREE_RECALL", "trial_index": 239}, "uniqueid": "MTK1520:3U4J9857OFIJI2O6SDH2VRQB3ZAB7M", "dateTime": 1515951037113}, {"current_trial": 240, "trialdata": {"rt": 1045, "trial_type": "text", "internal_node_id": "0.0-177.0", "time_elapsed": 1179245, "key_press": 32, "type": "INSTRUCTIONS", "trial_index": 240}, "uniqueid": "MTK1520:3U4J9857OFIJI2O6SDH2VRQB3ZAB7M", "dateTime": 1515951040159}, {"current_trial": 241, "trialdata": {"rt": [4134, 6238, 8006, 10286, 12902, 17341, 19918, 23094], "trial_type": "math-distractor", "key_times": [3534, 3847, 4134, 5454, 5870, 6238, 7478, 7734, 8006, 9838, 10286, 12334, 12590, 12902, 16823, 17086, 17341, 19495, 19918, 22598, 22830, 23094], "responses": ["20", "15", "14", "8", "19", "13", "7", "14"], "num2": [4, 4, 9, 3, 8, 2, 4, 3, 1], "num3": [9, 7, 1, 3, 2, 6, 1, 6, 7], "conditions": [12, 800, "a", 24000], "internal_node_id": "0.0-178.0", "key_presses": [98, 96, 13, 97, 101, 13, 97, 100, 13, 104, 13, 97, 105, 13, 97, 99, 13, 103, 13, 97, 100, 13], "trial": 7, "time_elapsed": 1205247, "type": "DISTRACTOR", "trial_index":