{"assignmentId": "38BQUHLA9X7MMZK20OODKTN06UAOMF", "workerId": "MTK1609", "questiondata": {"origin": "United States", "strat-rehearsal": "1", "marital": "Married/Domestic Partnership", "education": "Bachelor's degree", "ethnicity": "Not Hispanic", "color_depth": 24, "distracted": "No", "wrote-notes": "No", "strat-other": "", "screen_width": 1920, "avail_screen_width": 1920, "avail_screen_height": 1040, "strat-image": "78", "language": "English", "gender": "Male", "age": "29", "gender_other": "", "race": ["White"], "strat-categorize": "55", "pixel_depth": 24, "strat-spatial": "3", "strat-story": "94", "race_other": "", "screen_height": 1080}, "bonus": 0, "hitId": "306W7JMRYY5LVWVVCG46K7QMXF8B81", "counterbalance": 1049, "useragent": "Mozilla/5.0 (Windows NT 10.0; Win64; x64) AppleWebKit/537.36 (KHTML, like Gecko) Chrome/63.0.3239.132 Safari/537.36", "eventdata": [{"eventtype": "initialized", "interval": 0, "value": null, "timestamp": 1516043877618}, {"eventtype": "window_resize", "interval": 0, "value": [1920, 1033], "timestamp": 1516043877618}, {"eventtype": "focus", "interval": 27426, "value": "off", "timestamp": 1516043905044}, {"eventtype": "focus", "interval": 2, "value": "on", "timestamp": 1516043905046}, {"eventtype": "focus", "interval": 963874, "value": "off", "timestamp": 1516044868920}, {"eventtype": "focus", "interval": 5008, "value": "on", "timestamp": 1516044873928}, {"eventtype": "focus", "interval": 370975, "value": "off", "timestamp": 1516045244903}, {"eventtype": "focus", "interval": 9257, "value": "on", "timestamp": 1516045254160}, {"eventtype": "focus", "interval": 1255, "value": "off", "timestamp": 1516045255415}, {"eventtype": "focus", "interval": 8681, "value": "on", "timestamp": 1516045264096}, {"eventtype": "focus", "interval": 12575, "value": "off", "timestamp": 1516045276671}, {"eventtype": "focus", "interval": 4513, "value": "on", "timestamp": 1516045281184}, {"eventtype": "focus", "interval": 98999, "value": "off", "timestamp": 1516045380183}, {"eventtype": "focus", "interval": 14162, "value": "on", "timestamp": 1516045394345}, {"eventtype": "window_resize", "interval": 431397, "value": [1920, 989], "timestamp": 1516045825742}, {"eventtype": "focus", "interval": 27312, "value": "off", "timestamp": 1516045853054}, {"eventtype": "focus", "interval": 4704, "value": "on", "timestamp": 1516045857758}, {"eventtype": "focus", "interval": 65849, "value": "off", "timestamp": 1516045923607}, {"eventtype": "focus", "interval": 16513, "value": "on", "timestamp": 1516045940120}, {"eventtype": "focus", "interval": 110062, "value": "off", "timestamp": 1516046050182}, {"eventtype": "focus", "interval": 5148, "value": "on", "timestamp": 1516046055330}, {"eventtype": "focus", "interval": 158684, "value": "off", "timestamp": 1516046214014}, {"eventtype": "focus", "interval": 1250, "value": "on", "timestamp": 1516046215264}, {"eventtype": "focus", "interval": 159197, "value": "off", "timestamp": 1516046374461}, {"eventtype": "focus", "interval": 1049, "value": "on", "timestamp": 1516046375510}], "data": [{"current_trial": 0, "trialdata": {"rt": 1847, "trial_type": "text", "internal_node_id": "0.0-0.0", "time_elapsed": 1852, "key_press": 39, "type": "INSTRUCTIONS", "trial_index": 0}, "uniqueid": "MTK1609:38BQUHLA9X7MMZK20OODKTN06UAOMF", "dateTime": 1516043879877}, {"current_trial": 1, "trialdata": {"rt": 14817, "trial_type": "text", "internal_node_id": "0.0-1.0", "time_elapsed": 16673, "key_press": 13, "type": "INSTRUCTIONS", "trial_index": 1}, "uniqueid": "MTK1609:38BQUHLA9X7MMZK20OODKTN06UAOMF", "dateTime": 1516043894696}, {"current_trial": 2, "trialdata": {"rt": [6246], "trial_type": "audio-test", "responses": ["ocean"], "internal_node_id": "0.0-2.0", "time_elapsed": 22929, "type": "AUDIO_TEST", "trial_index": 2}, "uniqueid": "MTK1609:38BQUHLA9X7MMZK20OODKTN06UAOMF", "dateTime": 1516043900952}, {"current_trial": 3, "trialdata": {"rt": [1003, 8139], "trial_type": "audio-test", "responses": ["", "crystal"], "internal_node_id": "0.0-3.0", "time_elapsed": 31073, "type": "AUDIO_TEST", "trial_index": 3}, "uniqueid": "MTK1609:38BQUHLA9X7MMZK20OODKTN06UAOMF", "dateTime": 1516043909096}, {"current_trial": 4, "trialdata": {"rt": [5772], "trial_type": "audio-test", "responses": ["spice"], "internal_node_id": "0.0-4.0", "time_elapsed": 36849, "type": "AUDIO_TEST", "trial_index": 4}, "uniqueid": "MTK1609:38BQUHLA9X7MMZK20OODKTN06UAOMF", "dateTime": 1516043914873}, {"current_trial": 5, "trialdata": {"rt": 18545, "trial_type": "survey-text", "responses": "{\"Q0\":\"9:00\",\"Q1\":\"5:00\",\"Q2\":\"4\"}", "internal_node_id": "0.0-5.0", "time_elapsed": 56150, "type": "SLEEP_SURVEY", "trial_index": 5}, "uniqueid": "MTK1609:38BQUHLA9X7MMZK20OODKTN06UAOMF", "dateTime": 1516043934173}, {"current_trial": 6, "trialdata": {"rt": 40961, "trial_type": "text", "internal_node_id": "0.0-6.0", "time_elapsed": 98113, "key_press": 68, "type": "INSTRUCTIONS", "trial_index": 6}, "uniqueid": "MTK1609:38BQUHLA9X7MMZK20OODKTN06UAOMF", "dateTime": 1516043976136}, {"current_trial": 7, "trialdata": {"rt": 20922, "trial_type": "text", "internal_node_id": "0.0-7.0", "time_elapsed": 119537, "key_press": 32, "type": "INSTRUCTIONS", "trial_index": 7}, "uniqueid": "MTK1609:38BQUHLA9X7MMZK20OODKTN06UAOMF", "dateTime": 1516043997560}, {"current_trial": 8, "trialdata": {"rt": 10914, "trial_type": "text", "internal_node_id": "0.0-8.0", "time_elapsed": 130952, "key_press": 32, "type": "INSTRUCTIONS", "trial_index": 8}, "uniqueid": "MTK1609:38BQUHLA9X7MMZK20OODKTN06UAOMF", "dateTime": 1516044008975}, {"current_trial": 9, "trialdata": {"rt": [3016, 6728, 8631, 12023, 14240, 16096], "trial_type": "math-distractor", "key_times": [2352, 2479, 3016, 6280, 6504, 6728, 8472, 8631, 11608, 11743, 12023, 13872, 14112, 14240, 15640, 15920, 16096], "responses": ["10", "15", "7", "20", "14", "16"], "num2": [1, 4, 1, 6, 2, 5, 1], "num3": [2, 4, 5, 7, 4, 6, 2], "conditions": [18, 1200, "v", 18000], "internal_node_id": "0.0-9.0", "key_presses": [49, 48, 13, 49, 53, 13, 55, 13, 50, 48, 13, 49, 52, 13, 49, 54, 13], "trial": 0, "time_elapsed": 149962, "type": "DISTRACTOR", "trial_index": 9, "num1": [7, 7, 1, 7, 8, 5, 5]}, "uniqueid": "MTK1609:38BQUHLA9X7MMZK20OODKTN06UAOMF", "dateTime": 1516044027985}, {"current_trial": 10, "trialdata": {"rt": -1, "trial_type": "single-stim", "stimulus": "<p id=\"stim\">10</p>", "internal_node_id": "0.0-10.0-0.0", "time_elapsed": 152966, "key_press": -1, "trial_index": 10}, "uniqueid": "MTK1609:38BQUHLA9X7MMZK20OODKTN06UAOMF", "dateTime": 1516044030990}, {"current_trial": 11, "trialdata": {"rt": -1, "trial_type": "single-stim", "stimulus": "<p id=\"stim\">9</p>", "internal_node_id": "0.0-10.0-1.0", "time_elapsed": 153968, "key_press": -1, "trial_index": 11}, "uniqueid": "MTK1609:38BQUHLA9X7MMZK20OODKTN06UAOMF", "dateTime": 1516044031991}, {"current_trial": 12, "trialdata": {"rt": -1, "trial_type": "single-stim", "stimulus": "<p id=\"stim\">8</p>", "internal_node_id": "0.0-10.0-2.0", "time_elapsed": 154971, "key_press": -1, "trial_index": 12}, "uniqueid": "MTK1609:38BQUHLA9X7MMZK20OODKTN06UAOMF", "dateTime": 1516044032994}, {"current_trial": 13, "trialdata": {"rt": -1, "trial_type": "single-stim", "stimulus": "<p id=\"stim\">7</p>", "internal_node_id": "0.0-10.0-3.0", "time_elapsed": 155973, "key_press": -1, "trial_index": 13}, "uniqueid": "MTK1609:38BQUHLA9X7MMZK20OODKTN06UAOMF", "dateTime": 1516044033996}, {"current_trial": 14, "trialdata": {"rt": -1, "trial_type": "single-stim", "stimulus": "<p id=\"stim\">6</p>", "internal_node_id": "0.0-10.0-4.0", "time_elapsed": 156976, "key_press": -1, "trial_index": 14}, "uniqueid": "MTK1609:38BQUHLA9X7MMZK20OODKTN06UAOMF", "dateTime": 1516044034999}, {"current_trial": 15, "trialdata": {"rt": -1, "trial_type": "single-stim", "stimulus": "<p id=\"stim\">5</p>", "internal_node_id": "0.0-10.0-5.0", "time_elapsed": 157979, "key_press": -1, "trial_index": 15}, "uniqueid": "MTK1609:38BQUHLA9X7MMZK20OODKTN06UAOMF", "dateTime": 1516044036002}, {"current_trial": 16, "trialdata": {"rt": -1, "trial_type": "single-stim", "stimulus": "<p id=\"stim\">4</p>", "internal_node_id": "0.0-10.0-6.0", "time_elapsed": 158980, "key_press": -1, "trial_index": 16}, "uniqueid": "MTK1609:38BQUHLA9X7MMZK20OODKTN06UAOMF", "dateTime": 1516044037004}, {"current_trial": 17, "trialdata": {"rt": -1, "trial_type": "single-stim", "stimulus": "<p id=\"stim\">3</p>", "internal_node_id": "0.0-10.0-7.0", "time_elapsed": 159982, "key_press": -1, "trial_index": 17}, "uniqueid": "MTK1609:38BQUHLA9X7MMZK20OODKTN06UAOMF", "dateTime": 1516044038005}, {"current_trial": 18, "trialdata": {"rt": -1, "trial_type": "single-stim", "stimulus": "<p id=\"stim\">2</p>", "internal_node_id": "0.0-10.0-8.0", "time_elapsed": 160984, "key_press": -1, "trial_index": 18}, "uniqueid": "MTK1609:38BQUHLA9X7MMZK20OODKTN06UAOMF", "dateTime": 1516044039008}, {"current_trial": 19, "trialdata": {"rt": -1, "trial_type": "single-stim", "stimulus": "<p id=\"stim\">1</p>", "internal_node_id": "0.0-10.0-9.0", "time_elapsed": 161986, "key_press": -1, "trial_index": 19}, "uniqueid": "MTK1609:38BQUHLA9X7MMZK20OODKTN06UAOMF", "dateTime": 1516044040009}, {"current_trial": 20, "trialdata": {"rt": -1, "trial_type": "single-stim", "stimulus": "<p id=\"stim\">+</p>", "internal_node_id": "0.0-11.0-0.0", "time_elapsed": 163488, "key_press": -1, "type": "FIXATION", "trial_index": 20}, "uniqueid": "MTK1609:38BQUHLA9X7MMZK20OODKTN06UAOMF", "dateTime": 1516044041511}, {"current_trial": 21, "trialdata": {"rt": -1, "trial_type": "single-stim", "word": "mars", "stimulus": "<p id=\"stim\">MARS</p>", "conditions": [18, 1200, "v", 18000], "internal_node_id": "0.0-12.0", "trial": 0, "time_elapsed": 164690, "serialpos": 0, "key_press": -1, "wordID": 872, "type": "PRES_VIS", "trial_index": 21}, "uniqueid": "MTK1609:38BQUHLA9X7MMZK20OODKTN06UAOMF", "dateTime": 1516044042713}, {"current_trial": 22, "trialdata": {"rt": -1, "trial_type": "single-stim", "word": "honey", "stimulus": "<p id=\"stim\">HONEY</p>", "conditions": [18, 1200, "v", 18000], "internal_node_id": "0.0-13.0", "trial": 0, "time_elapsed": 166787, "serialpos": 1, "key_press": -1, "wordID": 712, "type": "PRES_VIS", "trial_index": 22}, "uniqueid": "MTK1609:38BQUHLA9X7MMZK20OODKTN06UAOMF", "dateTime": 1516044044810}, {"current_trial": 23, "trialdata": {"rt": -1, "trial_type": "single-stim", "word": "island", "stimulus": "<p id=\"stim\">ISLAND</p>", "conditions": [18, 1200, "v", 18000], "internal_node_id": "0.0-14.0", "trial": 0, "time_elapsed": 168936, "serialpos": 2, "key_press": -1, "wordID": 744, "type": "PRES_VIS", "trial_index": 23}, "uniqueid": "MTK1609:38BQUHLA9X7MMZK20OODKTN06UAOMF", "dateTime": 1516044046960}, {"current_trial": 24, "trialdata": {"rt": -1, "trial_type": "single-stim", "word": "truck", "stimulus": "<p id=\"stim\">TRUCK</p>", "conditions": [18, 1200, "v", 18000], "internal_node_id": "0.0-15.0", "trial": 0, "time_elapsed": 171073, "serialpos": 3, "key_press": -1, "wordID": 1511, "type": "PRES_VIS", "trial_index": 24}, "uniqueid": "MTK1609:38BQUHLA9X7MMZK20OODKTN06UAOMF", "dateTime": 1516044049097}, {"current_trial": 25, "trialdata": {"rt": -1, "trial_type": "single-stim", "word": "guard", "stimulus": "<p id=\"stim\">GUARD</p>", "conditions": [18, 1200, "v", 18000], "internal_node_id": "0.0-16.0", "trial": 0, "time_elapsed": 173403, "serialpos": 4, "key_press": -1, "wordID": 666, "type": "PRES_VIS", "trial_index": 25}, "uniqueid": "MTK1609:38BQUHLA9X7MMZK20OODKTN06UAOMF", "dateTime": 1516044051426}, {"current_trial": 26, "trialdata": {"rt": -1, "trial_type": "single-stim", "word": "elbow", "stimulus": "<p id=\"stim\">ELBOW</p>", "conditions": [18, 1200, "v", 18000], "internal_node_id": "0.0-17.0", "trial": 0, "time_elapsed": 175703, "serialpos": 5, "key_press": -1, "wordID": 519, "type": "PRES_VIS", "trial_index": 26}, "uniqueid": "MTK1609:38BQUHLA9X7MMZK20OODKTN06UAOMF", "dateTime": 1516044053726}, {"current_trial": 27, "trialdata": {"rt": -1, "trial_type": "single-stim", "word": "spool", "stimulus": "<p id=\"stim\">SPOOL</p>", "conditions": [18, 1200, "v", 18000], "internal_node_id": "0.0-18.0", "trial": 0, "time_elapsed": 177779, "serialpos": 6, "key_press": -1, "wordID": 1355, "type": "PRES_VIS", "trial_index": 27}, "uniqueid": "MTK1609:38BQUHLA9X7MMZK20OODKTN06UAOMF", "dateTime": 1516044055802}, {"current_trial": 28, "trialdata": {"rt": -1, "trial_type": "single-stim", "word": "silk", "stimulus": "<p id=\"stim\">SILK</p>", "conditions": [18, 1200, "v", 18000], "internal_node_id": "0.0-19.0", "trial": 0, "time_elapsed": 180154, "serialpos": 7, "key_press": -1, "wordID": 1306, "type": "PRES_VIS", "trial_index": 28}, "uniqueid": "MTK1609:38BQUHLA9X7MMZK20OODKTN06UAOMF", "dateTime": 1516044058177}, {"current_trial": 29, "trialdata": {"rt": -1, "trial_type": "single-stim", "word": "machine", "stimulus": "<p id=\"stim\">MACHINE</p>", "conditions": [18, 1200, "v", 18000], "internal_node_id": "0.0-20.0", "trial": 0, "time_elapsed": 182401, "serialpos": 8, "key_press": -1, "wordID": 851, "type": "PRES_VIS", "trial_index": 29}, "uniqueid": "MTK1609:38BQUHLA9X7MMZK20OODKTN06UAOMF", "dateTime": 1516044060424}, {"current_trial": 30, "trialdata": {"rt": -1, "trial_type": "single-stim", "word": "ketchup", "stimulus": "<p id=\"stim\">KETCHUP</p>", "conditions": [18, 1200, "v", 18000], "internal_node_id": "0.0-21.0", "trial": 0, "time_elapsed": 184612, "serialpos": 9, "key_press": -1, "wordID": 770, "type": "PRES_VIS", "trial_index": 30}, "uniqueid": "MTK1609:38BQUHLA9X7MMZK20OODKTN06UAOMF", "dateTime": 1516044062635}, {"current_trial": 31, "trialdata": {"rt": -1, "trial_type": "single-stim", "word": "fox", "stimulus": "<p id=\"stim\">FOX</p>", "conditions": [18, 1200, "v", 18000], "internal_node_id": "0.0-22.0", "trial": 0, "time_elapsed": 186791, "serialpos": 10, "key_press": -1, "wordID": 597, "type": "PRES_VIS", "trial_index": 31}, "uniqueid": "MTK1609:38BQUHLA9X7MMZK20OODKTN06UAOMF", "dateTime": 1516044064814}, {"current_trial": 32, "trialdata": {"rt": -1, "trial_type": "single-stim", "word": "flesh", "stimulus": "<p id=\"stim\">FLESH</p>", "conditions": [18, 1200, "v", 18000], "internal_node_id": "0.0-23.0", "trial": 0, "time_elapsed": 188895, "serialpos": 11, "key_press": -1, "wordID": 578, "type": "PRES_VIS", "trial_index": 32}, "uniqueid": "MTK1609:38BQUHLA9X7MMZK20OODKTN06UAOMF", "dateTime": 1516044066918}, {"current_trial": 33, "trialdata": {"rt": -1, "trial_type": "single-stim", "word": "bouquet", "stimulus": "<p id=\"stim\">BOUQUET</p>", "conditions": [18, 1200, "v", 18000], "internal_node_id": "0.0-24.0", "trial": 0, "time_elapsed": 191202, "serialpos": 12, "key_press": -1, "wordID": 156, "type": "PRES_VIS", "trial_index": 33}, "uniqueid": "MTK1609:38BQUHLA9X7MMZK20OODKTN06UAOMF", "dateTime": 1516044069225}, {"current_trial": 34, "trialdata": {"rt": -1, "trial_type": "single-stim", "word": "cloud", "stimulus": "<p id=\"stim\">CLOUD</p>", "conditions": [18, 1200, "v", 18000], "internal_node_id": "0.0-25.0", "trial": 0, "time_elapsed": 193223, "serialpos": 13, "key_press": -1, "wordID": 327, "type": "PRES_VIS", "trial_index": 34}, "uniqueid": "MTK1609:38BQUHLA9X7MMZK20OODKTN06UAOMF", "dateTime": 1516044071246}, {"current_trial": 35, "trialdata": {"rt": -1, "trial_type": "single-stim", "word": "japan", "stimulus": "<p id=\"stim\">JAPAN</p>", "conditions": [18, 1200, "v", 18000], "internal_node_id": "0.0-26.0", "trial": 0, "time_elapsed": 195421, "serialpos": 14, "key_press": -1, "wordID": 748, "type": "PRES_VIS", "trial_index": 35}, "uniqueid": "MTK1609:38BQUHLA9X7MMZK20OODKTN06UAOMF", "dateTime": 1516044073445}, {"current_trial": 36, "trialdata": {"rt": -1, "trial_type": "single-stim", "word": "market", "stimulus": "<p id=\"stim\">MARKET</p>", "conditions": [18, 1200, "v", 18000], "internal_node_id": "0.0-27.0", "trial": 0, "time_elapsed": 197708, "serialpos": 15, "key_press": -1, "wordID": 870, "type": "PRES_VIS", "trial_index": 36}, "uniqueid": "MTK1609:38BQUHLA9X7MMZK20OODKTN06UAOMF", "dateTime": 1516044075731}, {"current_trial": 37, "trialdata": {"rt": -1, "trial_type": "single-stim", "word": "orchid", "stimulus": "<p id=\"stim\">ORCHID</p>", "conditions": [18, 1200, "v", 18000], "internal_node_id": "0.0-28.0", "trial": 0, "time_elapsed": 199912, "serialpos": 16, "key_press": -1, "wordID": 981, "type": "PRES_VIS", "trial_index": 37}, "uniqueid": "MTK1609:38BQUHLA9X7MMZK20OODKTN06UAOMF", "dateTime": 1516044077936}, {"current_trial": 38, "trialdata": {"rt": -1, "trial_type": "single-stim", "word": "server", "stimulus": "<p id=\"stim\">SERVER</p>", "conditions": [18, 1200, "v", 18000], "internal_node_id": "0.0-29.0", "trial": 0, "time_elapsed": 202079, "serialpos": 17, "key_press": -1, "wordID": 1271, "type": "PRES_VIS", "trial_index": 38}, "uniqueid": "MTK1609:38BQUHLA9X7MMZK20OODKTN06UAOMF", "dateTime": 1516044080102}, {"current_trial": 39, "trialdata": {"rt": -1, "trial_type": "single-stim", "stimulus": "", "internal_node_id": "0.0-30.0-0.0", "time_elapsed": 204276, "key_press": -1, "type": "PRE_RECALL_DELAY", "trial_index": 39}, "uniqueid": "MTK1609:38BQUHLA9X7MMZK20OODKTN06UAOMF", "dateTime": 1516044082299}, {"current_trial": 40, "trialdata": {"rt": -1000, "trial_type": "single-audio", "stimulus": "/static/audio/400Hz.wav", "internal_node_id": "0.0-31.0", "time_elapsed": 204783, "key_press": -1, "type": "PRE_RECALL_ALERT", "trial_index": 40}, "uniqueid": "MTK1609:38BQUHLA9X7MMZK20OODKTN06UAOMF", "dateTime": 1516044082806}, {"current_trial": 41, "trialdata": {"rt": [1711, 3335, 4935, 6519, 10863, 15399, 17063, 20095, 22983, 31023, 37063, 42991], "recwords": ["mars", "honey", "island", "truck", "ketchup", "truck", "elbow", "sleeve", "boutquie", "japan", "ketchup", ""], "key_times": [1103, 1191, 1319, 1479, 1711, 2527, 2663, 2847, 2951, 3087, 3335, 3879, 3983, 4127, 4207, 4367, 4607, 4935, 5391, 5599, 5735, 5983, 6151, 6519, 9567, 9671, 9839, 10031, 10159, 10327, 10583, 10863, 14663, 14807, 14935, 15031, 15159, 15399, 16071, 16215, 16479, 16711, 16815, 17063, 17399, 17639, 17759, 17895, 18135, 18143, 18303, 18607, 18767, 18935, 19151, 19159, 19663, 19959, 20095, 20607, 20791, 20983, 21071, 21687, 21823, 22023, 22119, 22983, 30040, 30127, 30319, 30447, 30575, 31023, 34663, 34751, 34911, 35127, 35271, 35463, 36583, 37063, 42991], "trial_type": "free-recall", "conditions": [18, 1200, "v", 18000], "internal_node_id": "0.0-32.0-0.0", "key_presses": [77, 65, 82, 83, 13, 72, 79, 78, 69, 89, 13, 73, 83, 76, 65, 78, 68, 13, 84, 82, 85, 67, 75, 13, 75, 69, 84, 67, 72, 85, 80, 13, 84, 82, 85, 67, 75, 13, 69, 76, 66, 79, 87, 13, 83, 76, 69, 69, 66, 86, 69, 8, 8, 8, 86, 66, 8, 69, 13, 66, 79, 85, 84, 81, 85, 73, 69, 13, 74, 65, 80, 65, 78, 13, 75, 69, 84, 67, 72, 85, 80, 13, 32], "trial": 0, "time_elapsed": 264788, "type": "FREE_RECALL", "trial_index": 41}, "uniqueid": "MTK1609:38BQUHLA9X7MMZK20OODKTN06UAOMF", "dateTime": 1516044142815}, {"current_trial": 42, "trialdata": {"rt": 1871, "trial_type": "text", "internal_node_id": "0.0-33.0", "time_elapsed": 268665, "key_press": 32, "type": "INSTRUCTIONS", "trial_index": 42}, "uniqueid": "MTK1609:38BQUHLA9X7MMZK20OODKTN06UAOMF", "dateTime": 1516044146688}, {"current_trial": 43, "trialdata": {"rt": [6708, 9564, 14460], "trial_type": "math-distractor", "key_times": [6412, 6557, 6708, 9117, 9404, 9564, 13981, 14156, 14460], "responses": ["22", "17", "18"], "num2": [6, 5, 6, 9], "num3": [7, 5, 4, 8], "conditions": [18, 1200, "v", 18000], "internal_node_id": "0.0-34.0", "key_presses": [50, 50, 13, 49, 55, 13, 49, 56, 13], "trial": 1, "time_elapsed": 288670, "type": "DISTRACTOR", "trial_index": 43, "num1": [9, 7, 8, 4]}, "uniqueid": "MTK1609:38BQUHLA9X7MMZK20OODKTN06UAOMF", "dateTime": 1516044166693}, {"current_trial": 44, "trialdata": {"rt": -1, "trial_type": "single-stim", "stimulus": "<p id=\"stim\">10</p>", "internal_node_id": "0.0-35.0-0.0", "time_elapsed": 291673, "key_press": -1, "trial_index": 44}, "uniqueid": "MTK1609:38BQUHLA9X7MMZK20OODKTN06UAOMF", "dateTime": 1516044169696}, {"current_trial": 45, "trialdata": {"rt": -1, "trial_type": "single-stim", "stimulus": "<p id=\"stim\">9</p>", "internal_node_id": "0.0-35.0-1.0", "time_elapsed": 292675, "key_press": -1, "trial_index": 45}, "uniqueid": "MTK1609:38BQUHLA9X7MMZK20OODKTN06UAOMF", "dateTime": 1516044170698}, {"current_trial": 46, "trialdata": {"rt": -1, "trial_type": "single-stim", "stimulus": "<p id=\"stim\">8</p>", "internal_node_id": "0.0-35.0-2.0", "time_elapsed": 293676, "key_press": -1, "trial_index": 46}, "uniqueid": "MTK1609:38BQUHLA9X7MMZK20OODKTN06UAOMF", "dateTime": 1516044171700}, {"current_trial": 47, "trialdata": {"rt": -1, "trial_type": "single-stim", "stimulus": "<p id=\"stim\">7</p>", "internal_node_id": "0.0-35.0-3.0", "time_elapsed": 294679, "key_press": -1, "trial_index": 47}, "uniqueid": "MTK1609:38BQUHLA9X7MMZK20OODKTN06UAOMF", "dateTime": 1516044172703}, {"current_trial": 48, "trialdata": {"rt": -1, "trial_type": "single-stim", "stimulus": "<p id=\"stim\">6</p>", "internal_node_id": "0.0-35.0-4.0", "time_elapsed": 295681, "key_press": -1, "trial_index": 48}, "uniqueid": "MTK1609:38BQUHLA9X7MMZK20OODKTN06UAOMF", "dateTime": 1516044173704}, {"current_trial": 49, "trialdata": {"rt": -1, "trial_type": "single-stim", "stimulus": "<p id=\"stim\">5</p>", "internal_node_id": "0.0-35.0-5.0", "time_elapsed": 296684, "key_press": -1, "trial_index": 49}, "uniqueid": "MTK1609:38BQUHLA9X7MMZK20OODKTN06UAOMF", "dateTime": 1516044174707}, {"current_trial": 50, "trialdata": {"rt": -1, "trial_type": "single-stim", "stimulus": "<p id=\"stim\">4</p>", "internal_node_id": "0.0-35.0-6.0", "time_elapsed": 297687, "key_press": -1, "trial_index": 50}, "uniqueid": "MTK1609:38BQUHLA9X7MMZK20OODKTN06UAOMF", "dateTime": 1516044175710}, {"current_trial": 51, "trialdata": {"rt": -1, "trial_type": "single-stim", "stimulus": "<p id=\"stim\">3</p>", "internal_node_id": "0.0-35.0-7.0", "time_elapsed": 298689, "key_press": -1, "trial_index": 51}, "uniqueid": "MTK1609:38BQUHLA9X7MMZK20OODKTN06UAOMF", "dateTime": 1516044176712}, {"current_trial": 52, "trialdata": {"rt": -1, "trial_type": "single-stim", "stimulus": "<p id=\"stim\">2</p>", "internal_node_id": "0.0-35.0-8.0", "time_elapsed": 299691, "key_press": -1, "trial_index": 52}, "uniqueid": "MTK1609:38BQUHLA9X7MMZK20OODKTN06UAOMF", "dateTime": 1516044177714}, {"current_trial": 53, "trialdata": {"rt": -1, "trial_type": "single-stim", "stimulus": "<p id=\"stim\">1</p>", "internal_node_id": "0.0-35.0-9.0", "time_elapsed": 300693, "key_press": -1, "trial_index": 53}, "uniqueid": "MTK1609:38BQUHLA9X7MMZK20OODKTN06UAOMF", "dateTime": 1516044178716}, {"current_trial": 54, "trialdata": {"rt": -1, "trial_type": "single-stim", "stimulus": "<p id=\"stim\">+</p>", "internal_node_id": "0.0-36.0-0.0", "time_elapsed": 302194, "key_press": -1, "type": "FIXATION", "trial_index": 54}, "uniqueid": "MTK1609:38BQUHLA9X7MMZK20OODKTN06UAOMF", "dateTime": 1516044180217}, {"current_trial": 55, "trialdata": {"rt": -1, "trial_type": "single-stim", "word": "doughnut", "stimulus": "<p id=\"stim\">DOUGHNUT</p>", "conditions": [18, 1200, "v", 18000], "internal_node_id": "0.0-37.0", "trial": 1, "time_elapsed": 303396, "serialpos": 0, "key_press": -1, "wordID": 489, "type": "PRES_VIS", "trial_index": 55}, "uniqueid": "MTK1609:38BQUHLA9X7MMZK20OODKTN06UAOMF", "dateTime": 1516044181420}, {"current_trial": 56, "trialdata": {"rt": -1, "trial_type": "single-stim", "word": "scalpel", "stimulus": "<p id=\"stim\">SCALPEL</p>", "conditions": [18, 1200, "v", 18000], "internal_node_id": "0.0-38.0", "trial": 1, "time_elapsed": 305591, "serialpos": 1, "key_press": -1, "wordID": 1242, "type": "PRES_VIS", "trial_index": 56}, "uniqueid": "MTK1609:38BQUHLA9X7MMZK20OODKTN06UAOMF", "dateTime": 1516044183615}, {"current_trial": 57, "trialdata": {"rt": -1, "trial_type": "single-stim", "word": "guitar", "stimulus": "<p id=\"stim\">GUITAR</p>", "conditions": [18, 1200, "v", 18000], "internal_node_id": "0.0-39.0", "trial": 1, "time_elapsed": 307954, "serialpos": 2, "key_press": -1, "wordID": 669, "type": "PRES_VIS", "trial_index": 57}, "uniqueid": "MTK1609:38BQUHLA9X7MMZK20OODKTN06UAOMF", "dateTime": 1516044185978}, {"current_trial": 58, "trialdata": {"rt": -1, "trial_type": "single-stim", "word": "sausage", "stimulus": "<p id=\"stim\">SAUSAGE</p>", "conditions": [18, 1200, "v", 18000], "internal_node_id": "0.0-40.0", "trial": 1, "time_elapsed": 309982, "serialpos": 3, "key_press": -1, "wordID": 1237, "type": "PRES_VIS", "trial_index": 58}, "uniqueid": "MTK1609:38BQUHLA9X7MMZK20OODKTN06UAOMF", "dateTime": 1516044188005}, {"current_trial": 59, "trialdata": {"rt": -1, "trial_type": "single-stim", "word": "creature", "stimulus": "<p id=\"stim\">CREATURE</p>", "conditions": [18, 1200, "v", 18000], "internal_node_id": "0.0-41.0", "trial": 1, "time_elapsed": 312112, "serialpos": 4, "key_press": -1, "wordID": 402, "type": "PRES_VIS", "trial_index": 59}, "uniqueid": "MTK1609:38BQUHLA9X7MMZK20OODKTN06UAOMF", "dateTime": 1516044190135}, {"current_trial": 60, "trialdata": {"rt": -1, "trial_type": "single-stim", "word": "tortoise", "stimulus": "<p id=\"stim\">TORTOISE</p>", "conditions": [18, 1200, "v", 18000], "internal_node_id": "0.0-42.0", "trial": 1, "time_elapsed": 314465, "serialpos": 5, "key_press": -1, "wordID": 1485, "type": "PRES_VIS", "trial_index": 60}, "uniqueid": "MTK1609:38BQUHLA9X7MMZK20OODKTN06UAOMF", "dateTime": 1516044192488}, {"current_trial": 61, "trialdata": {"rt": -1, "trial_type": "single-stim", "word": "banquet", "stimulus": "<p id=\"stim\">BANQUET</p>", "conditions": [18, 1200, "v", 18000], "internal_node_id": "0.0-43.0", "trial": 1, "time_elapsed": 316585, "serialpos": 6, "key_press": -1, "wordID": 85, "type": "PRES_VIS", "trial_index": 61}, "uniqueid": "MTK1609:38BQUHLA9X7MMZK20OODKTN06UAOMF", "dateTime": 1516044194608}, {"current_trial": 62, "trialdata": {"rt": -1, "trial_type": "single-stim", "word": "lipstick", "stimulus": "<p id=\"stim\">LIPSTICK</p>", "conditions": [18, 1200, "v", 18000], "internal_node_id": "0.0-44.0", "trial": 1, "time_elapsed": 318708, "serialpos": 7, "key_press": -1, "wordID": 828, "type": "PRES_VIS", "trial_index": 62}, "uniqueid": "MTK1609:38BQUHLA9X7MMZK20OODKTN06UAOMF", "dateTime": 1516044196732}, {"current_trial": 63, "trialdata": {"rt": -1, "trial_type": "single-stim", "word": "sponge", "stimulus": "<p id=\"stim\">SPONGE</p>", "conditions": [18, 1200, "v", 18000], "internal_node_id": "0.0-45.0", "trial": 1, "time_elapsed": 321069, "serialpos": 8, "key_press": -1, "wordID": 1354, "type": "PRES_VIS", "trial_index": 63}, "uniqueid": "MTK1609:38BQUHLA9X7MMZK20OODKTN06UAOMF", "dateTime": 1516044199093}, {"current_trial": 64, "trialdata": {"rt": -1, "trial_type": "single-stim", "word": "shirt", "stimulus": "<p id=\"stim\">SHIRT</p>", "conditions": [18, 1200, "v", 18000], "internal_node_id": "0.0-46.0", "trial": 1, "time_elapsed": 323098, "serialpos": 9, "key_press": -1, "wordID": 1286, "type": "PRES_VIS", "trial_index": 64}, "uniqueid": "MTK1609:38BQUHLA9X7MMZK20OODKTN06UAOMF", "dateTime": 1516044201121}, {"current_trial": 65, "trialdata": {"rt": -1, "trial_type": "single-stim", "word": "costume", "stimulus": "<p id=\"stim\">COSTUME</p>", "conditions": [18, 1200, "v", 18000], "internal_node_id": "0.0-47.0", "trial": 1, "time_elapsed": 325403, "serialpos": 10, "key_press": -1, "wordID": 382, "type": "PRES_VIS", "trial_index": 65}, "uniqueid": "MTK1609:38BQUHLA9X7MMZK20OODKTN06UAOMF", "dateTime": 1516044203426}, {"current_trial": 66, "trialdata": {"rt": -1, "trial_type": "single-stim", "word": "shortcake", "stimulus": "<p id=\"stim\">SHORTCAKE</p>", "conditions": [18, 1200, "v", 18000], "internal_node_id": "0.0-48.0", "trial": 1, "time_elapsed": 327539, "serialpos": 11, "key_press": -1, "wordID": 1291, "type": "PRES_VIS", "trial_index": 66}, "uniqueid": "MTK1609:38BQUHLA9X7MMZK20OODKTN06UAOMF", "dateTime": 1516044205562}, {"current_trial": 67, "trialdata": {"rt": -1, "trial_type": "single-stim", "word": "glass", "stimulus": "<p id=\"stim\">GLASS</p>", "conditions": [18, 1200, "v", 18000], "internal_node_id": "0.0-49.0", "trial": 1, "time_elapsed": 329856, "serialpos": 12, "key_press": -1, "wordID": 638, "type": "PRES_VIS", "trial_index": 67}, "uniqueid": "MTK1609:38BQUHLA9X7MMZK20OODKTN06UAOMF", "dateTime": 1516044207879}, {"current_trial": 68, "trialdata": {"rt": -1, "trial_type": "single-stim", "word": "carrot", "stimulus": "<p id=\"stim\">CARROT</p>", "conditions": [18, 1200, "v", 18000], "internal_node_id": "0.0-50.0", "trial": 1, "time_elapsed": 331909, "serialpos": 13, "key_press": -1, "wordID": 248, "type": "PRES_VIS", "trial_index": 68}, "uniqueid": "MTK1609:38BQUHLA9X7MMZK20OODKTN06UAOMF", "dateTime": 1516044209935}, {"current_trial": 69, "trialdata": {"rt": -1, "trial_type": "single-stim", "word": "patrol", "stimulus": "<p id=\"stim\">PATROL</p>", "conditions": [18, 1200, "v", 18000], "internal_node_id": "0.0-51.0", "trial": 1, "time_elapsed": 334130, "serialpos": 14, "key_press": -1, "wordID": 1026, "type": "PRES_VIS", "trial_index": 69}, "uniqueid": "MTK1609:38BQUHLA9X7MMZK20OODKTN06UAOMF", "dateTime": 1516044212153}, {"current_trial": 70, "trialdata": {"rt": -1, "trial_type": "single-stim", "word": "donor", "stimulus": "<p id=\"stim\">DONOR</p>", "conditions": [18, 1200, "v", 18000], "internal_node_id": "0.0-52.0", "trial": 1, "time_elapsed": 336246, "serialpos": 15, "key_press": -1, "wordID": 484, "type": "PRES_VIS", "trial_index": 70}, "uniqueid": "MTK1609:38BQUHLA9X7MMZK20OODKTN06UAOMF", "dateTime": 1516044214269}, {"current_trial": 71, "trialdata": {"rt": -1, "trial_type": "single-stim", "word": "rabbit", "stimulus": "<p id=\"stim\">RABBIT</p>", "conditions": [18, 1200, "v", 18000], "internal_node_id": "0.0-53.0", "trial": 1, "time_elapsed": 338424, "serialpos": 16, "key_press": -1, "wordID": 1151, "type": "PRES_VIS", "trial_index": 71}, "uniqueid": "MTK1609:38BQUHLA9X7MMZK20OODKTN06UAOMF", "dateTime": 1516044216447}, {"current_trial": 72, "trialdata": {"rt": -1, "trial_type": "single-stim", "word": "turnip", "stimulus": "<p id=\"stim\">TURNIP</p>", "conditions": [18, 1200, "v", 18000], "internal_node_id": "0.0-54.0", "trial": 1, "time_elapsed": 340742, "serialpos": 17, "key_press": -1, "wordID": 1520, "type": "PRES_VIS", "trial_index": 72}, "uniqueid": "MTK1609:38BQUHLA9X7MMZK20OODKTN06UAOMF", "dateTime": 1516044218765}, {"current_trial": 73, "trialdata": {"rt": -1, "trial_type": "single-stim", "stimulus": "", "internal_node_id": "0.0-55.0-0.0", "time_elapsed": 343064, "key_press": -1, "type": "PRE_RECALL_DELAY", "trial_index": 73}, "uniqueid": "MTK1609:38BQUHLA9X7MMZK20OODKTN06UAOMF", "dateTime": 1516044221088}, {"current_trial": 74, "trialdata": {"rt": -1000, "trial_type": "single-audio", "stimulus": "/static/audio/400Hz.wav", "internal_node_id": "0.0-56.0", "time_elapsed": 343567, "key_press": -1, "type": "PRE_RECALL_ALERT", "trial_index": 74}, "uniqueid": "MTK1609:38BQUHLA9X7MMZK20OODKTN06UAOMF", "dateTime": 1516044221592}, {"current_trial": 75, "trialdata": {"rt": [3349, 5909, 7533, 10245, 12221, 15109, 18949, 24005, 25557, 26941, 29309, 31933, 33005, 40701, 41957, 45190, 51693], "recwords": ["dougnut", "scalpel", "guitar", "sausage", "creature", "tortise", "banquet", "sponge", "shirt", "costume", "shortcake", "glass", "carrot", "patrol", "deer", "rabbit", "turnip"], "key_times": [1990, 2117, 2301, 2462, 2661, 2949, 3029, 3349, 4509, 4925, 5109, 5238, 5437, 5533, 5669, 5909, 6285, 6445, 6629, 6741, 7189, 7333, 7533, 8869, 9101, 9333, 9597, 9773, 9901, 10013, 10245, 11109, 11357, 11509, 11597, 11733, 11861, 11965, 12117, 12221, 13925, 14397, 14477, 14605, 14741, 14829, 14965, 15109, 17101, 17317, 17453, 17589, 18501, 18613, 18781, 18949, 22958, 23221, 23389, 23589, 23685, 23837, 24005, 24709, 25013, 25213, 25285, 25413, 25557, 25869, 26053, 26157, 26325, 26445, 26645, 26749, 26941, 27861, 28093, 28317, 28389, 28525, 28733, 28797, 28981, 29077, 29309, 31221, 31389, 31493, 31637, 31773, 31933, 32125, 32301, 32485, 32605, 32741, 32829, 33005, 39686, 39765, 39973, 40125, 40205, 40373, 40701, 41037, 41333, 41461, 41725, 41957, 43678, 44125, 44518, 44661, 44869, 44965, 45190, 45917, 46133, 46269, 46461, 46757, 47325, 48141, 48333, 48909, 49053, 49229, 50261, 50949, 51117, 51693], "trial_type": "free-recall", "conditions": [18, 1200, "v", 18000], "internal_node_id": "0.0-57.0-0.0", "key_presses": [68, 79, 85, 71, 78, 85, 84, 13, 83, 67, 65, 76, 80, 69, 76, 13, 71, 85, 73, 84, 65, 82, 13, 83, 65, 85, 83, 65, 71, 69, 13, 67, 82, 69, 65, 84, 85, 82, 69, 13, 84, 79, 82, 84, 73, 83, 69, 13, 66, 65, 78, 81, 85, 69, 84, 13, 83, 80, 79, 78, 71, 69, 13, 83, 72, 73, 82, 84, 13, 67, 79, 83, 84, 85, 77, 69, 13, 83, 72, 79, 82, 84, 67, 65, 75, 69, 13, 71, 76, 65, 83, 83, 13, 67, 65, 82, 82, 79, 84, 13, 80, 65, 84, 82, 79, 76, 13, 68, 69, 69, 82, 13, 82, 65, 66, 66, 73, 84, 13, 84, 85, 82, 78, 73, 8, 85, 80, 8, 8, 8, 78, 73, 80, 13], "trial": 1, "time_elapsed": 403573, "type": "FREE_RECALL", "trial_index": 75}, "uniqueid": "MTK1609:38BQUHLA9X7MMZK20OODKTN06UAOMF", "dateTime": 1516044281600}, {"current_trial": 76, "trialdata": {"rt": 2510, "trial_type": "text", "internal_node_id": "0.0-58.0", "time_elapsed": 408089, "key_press": 96, "type": "INSTRUCTIONS", "trial_index": 76}, "uniqueid": "MTK1609:38BQUHLA9X7MMZK20OODKTN06UAOMF", "dateTime": 1516044286112}, {"current_trial": 77, "trialdata": {"rt": [3685, 5701, 7781, 12077, 16653, 21581], "trial_type": "math-distractor", "key_times": [3341, 3493, 3685, 5557, 5701, 7525, 7605, 7781, 9630, 9725, 11406, 11573, 11981, 12077, 16109, 16333, 16653, 21214, 21317, 21581, 23797, 23965], "responses": ["11", "7", "12", "8", "19", "20"], "num2": [2, 2, 3, 2, 6, 9, 4], "num3": [3, 1, 6, 2, 5, 5, 4], "conditions": [24, 1600, "v", 24000], "internal_node_id": "0.0-59.0", "key_presses": [49, 49, 13, 55, 13, 49, 50, 13, 49, 48, 8, 8, 56, 13, 49, 57, 13, 50, 48, 13, 49, 52], "trial": 2, "time_elapsed": 433093, "type": "DISTRACTOR", "trial_index": 77, "num1": [6, 4, 6, 4, 8, 6, 6]}, "uniqueid": "MTK1609:38BQUHLA9X7MMZK20OODKTN06UAOMF", "dateTime": 1516044311116}, {"current_trial": 78, "trialdata": {"rt": -1, "trial_type": "single-stim", "stimulus": "<p id=\"stim\">10</p>", "internal_node_id": "0.0-60.0-0.0", "time_elapsed": 436095, "key_press": -1, "trial_index": 78}, "uniqueid": "MTK1609:38BQUHLA9X7MMZK20OODKTN06UAOMF", "dateTime": 1516044314118}, {"current_trial": 79, "trialdata": {"rt": -1, "trial_type": "single-stim", "stimulus": "<p id=\"stim\">9</p>", "internal_node_id": "0.0-60.0-1.0", "time_elapsed": 437097, "key_press": -1, "trial_index": 79}, "uniqueid": "MTK1609:38BQUHLA9X7MMZK20OODKTN06UAOMF", "dateTime": 1516044315120}, {"current_trial": 80, "trialdata": {"rt": -1, "trial_type": "single-stim", "stimulus": "<p id=\"stim\">8</p>", "internal_node_id": "0.0-60.0-2.0", "time_elapsed": 438098, "key_press": -1, "trial_index": 80}, "uniqueid": "MTK1609:38BQUHLA9X7MMZK20OODKTN06UAOMF", "dateTime": 1516044316122}, {"current_trial": 81, "trialdata": {"rt": -1, "trial_type": "single-stim", "stimulus": "<p id=\"stim\">7</p>", "internal_node_id": "0.0-60.0-3.0", "time_elapsed": 439100, "key_press": -1, "trial_index": 81}, "uniqueid": "MTK1609:38BQUHLA9X7MMZK20OODKTN06UAOMF", "dateTime": 1516044317123}, {"current_trial": 82, "trialdata": {"rt": -1, "trial_type": "single-stim", "stimulus": "<p id=\"stim\">6</p>", "internal_node_id": "0.0-60.0-4.0", "time_elapsed": 440103, "key_press": -1, "trial_index": 82}, "uniqueid": "MTK1609:38BQUHLA9X7MMZK20OODKTN06UAOMF", "dateTime": 1516044318126}, {"current_trial": 83, "trialdata": {"rt": -1, "trial_type": "single-stim", "stimulus": "<p id=\"stim\">5</p>", "internal_node_id": "0.0-60.0-5.0", "time_elapsed": 441105, "key_press": -1, "trial_index": 83}, "uniqueid": "MTK1609:38BQUHLA9X7MMZK20OODKTN06UAOMF", "dateTime": 1516044319128}, {"current_trial": 84, "trialdata": {"rt": -1, "trial_type": "single-stim", "stimulus": "<p id=\"stim\">4</p>", "internal_node_id": "0.0-60.0-6.0", "time_elapsed": 442107, "key_press": -1, "trial_index": 84}, "uniqueid": "MTK1609:38BQUHLA9X7MMZK20OODKTN06UAOMF", "dateTime": 1516044320130}, {"current_trial": 85, "trialdata": {"rt": -1, "trial_type": "single-stim", "stimulus": "<p id=\"stim\">3</p>", "internal_node_id": "0.0-60.0-7.0", "time_elapsed": 443109, "key_press": -1, "trial_index": 85}, "uniqueid": "MTK1609:38BQUHLA9X7MMZK20OODKTN06UAOMF", "dateTime": 1516044321132}, {"current_trial": 86, "trialdata": {"rt": -1, "trial_type": "single-stim", "stimulus": "<p id=\"stim\">2</p>", "internal_node_id": "0.0-60.0-8.0", "time_elapsed": 444111, "key_press": -1, "trial_index": 86}, "uniqueid": "MTK1609:38BQUHLA9X7MMZK20OODKTN06UAOMF", "dateTime": 1516044322134}, {"current_trial": 87, "trialdata": {"rt": -1, "trial_type": "single-stim", "stimulus": "<p id=\"stim\">1</p>", "internal_node_id": "0.0-60.0-9.0", "time_elapsed": 445113, "key_press": -1, "trial_index": 87}, "uniqueid": "MTK1609:38BQUHLA9X7MMZK20OODKTN06UAOMF", "dateTime": 1516044323136}, {"current_trial": 88, "trialdata": {"rt": -1, "trial_type": "single-stim", "stimulus": "<p id=\"stim\">+</p>", "internal_node_id": "0.0-61.0-0.0", "time_elapsed": 446614, "key_press": -1, "type": "FIXATION", "trial_index": 88}, "uniqueid": "MTK1609:38BQUHLA9X7MMZK20OODKTN06UAOMF", "dateTime": 1516044324637}, {"current_trial": 89, "trialdata": {"rt": -1, "trial_type": "single-stim", "word": "perch", "stimulus": "<p id=\"stim\">PERCH</p>", "conditions": [24, 1600, "v", 24000], "internal_node_id": "0.0-62.0", "trial": 2, "time_elapsed": 448216, "serialpos": 0, "key_press": -1, "wordID": 1047, "type": "PRES_VIS", "trial_index": 89}, "uniqueid": "MTK1609:38BQUHLA9X7MMZK20OODKTN06UAOMF", "dateTime": 1516044326239}, {"current_trial": 90, "trialdata": {"rt": -1, "trial_type": "single-stim", "word": "grill", "stimulus": "<p id=\"stim\">GRILL</p>", "conditions": [24, 1600, "v", 24000], "internal_node_id": "0.0-63.0", "trial": 2, "time_elapsed": 450680, "serialpos": 1, "key_press": -1, "wordID": 660, "type": "PRES_VIS", "trial_index": 90}, "uniqueid": "MTK1609:38BQUHLA9X7MMZK20OODKTN06UAOMF", "dateTime": 1516044328704}, {"current_trial": 91, "trialdata": {"rt": -1, "trial_type": "single-stim", "word": "blouse", "stimulus": "<p id=\"stim\">BLOUSE</p>", "conditions": [24, 1600, "v", 24000], "internal_node_id": "0.0-64.0", "trial": 2, "time_elapsed": 453093, "serialpos": 2, "key_press": -1, "wordID": 138, "type": "PRES_VIS", "trial_index": 91}, "uniqueid": "MTK1609:38BQUHLA9X7MMZK20OODKTN06UAOMF", "dateTime": 1516044331116}, {"current_trial": 92, "trialdata": {"rt": -1, "trial_type": "single-stim", "word": "crayon", "stimulus": "<p id=\"stim\">CRAYON</p>", "conditions": [24, 1600, "v", 24000], "internal_node_id": "0.0-65.0", "trial": 2, "time_elapsed": 455625, "serialpos": 3, "key_press": -1, "wordID": 400, "type": "PRES_VIS", "trial_index": 92}, "uniqueid": "MTK1609:38BQUHLA9X7MMZK20OODKTN06UAOMF", "dateTime": 1516044333648}, {"current_trial": 93, "trialdata": {"rt": -1, "trial_type": "single-stim", "word": "airplane", "stimulus": "<p id=\"stim\">AIRPLANE</p>", "conditions": [24, 1600, "v", 24000], "internal_node_id": "0.0-66.0", "trial": 2, "time_elapsed": 458393, "serialpos": 4, "key_press": -1, "wordID": 11, "type": "PRES_VIS", "trial_index": 93}, "uniqueid": "MTK1609:38BQUHLA9X7MMZK20OODKTN06UAOMF", "dateTime": 1516044336416}, {"current_trial": 94, "trialdata": {"rt": -1, "trial_type": "single-stim", "word": "beaker", "stimulus": "<p id=\"stim\">BEAKER</p>", "conditions": [24, 1600, "v", 24000], "internal_node_id": "0.0-67.0", "trial": 2, "time_elapsed": 460823, "serialpos": 5, "key_press": -1, "wordID": 103, "type": "PRES_VIS", "trial_index": 94}, "uniqueid": "MTK1609:38BQUHLA9X7MMZK20OODKTN06UAOMF", "dateTime": 1516044338846}, {"current_trial": 95, "trialdata": {"rt": -1, "trial_type": "single-stim", "word": "cook", "stimulus": "<p id=\"stim\">COOK</p>", "conditions": [24, 1600, "v", 24000], "internal_node_id": "0.0-68.0", "trial": 2, "time_elapsed": 463558, "serialpos": 6, "key_press": -1, "wordID": 371, "type": "PRES_VIS", "trial_index": 95}, "uniqueid": "MTK1609:38BQUHLA9X7MMZK20OODKTN06UAOMF", "dateTime": 1516044341581}, {"current_trial": 96, "trialdata": {"rt": -1, "trial_type": "single-stim", "word": "wasp", "stimulus": "<p id=\"stim\">WASP</p>", "conditions": [24, 1600, "v", 24000], "internal_node_id": "0.0-69.0", "trial": 2, "time_elapsed": 466320, "serialpos": 7, "key_press": -1, "wordID": 1592, "type": "PRES_VIS", "trial_index": 96}, "uniqueid": "MTK1609:38BQUHLA9X7MMZK20OODKTN06UAOMF", "dateTime": 1516044344343}, {"current_trial": 97, "trialdata": {"rt": -1, "trial_type": "single-stim", "word": "crater", "stimulus": "<p id=\"stim\">CRATER</p>", "conditions": [24, 1600, "v", 24000], "internal_node_id": "0.0-70.0", "trial": 2, "time_elapsed": 468870, "serialpos": 8, "key_press": -1, "wordID": 399, "type": "PRES_VIS", "trial_index": 97}, "uniqueid": "MTK1609:38BQUHLA9X7MMZK20OODKTN06UAOMF", "dateTime": 1516044346894}, {"current_trial": 98, "trialdata": {"rt": -1, "trial_type": "single-stim", "word": "dolphin", "stimulus": "<p id=\"stim\">DOLPHIN</p>", "conditions": [24, 1600, "v", 24000], "internal_node_id": "0.0-71.0", "trial": 2, "time_elapsed": 471504, "serialpos": 9, "key_press": -1, "wordID": 482, "type": "PRES_VIS", "trial_index": 98}, "uniqueid": "MTK1609:38BQUHLA9X7MMZK20OODKTN06UAOMF", "dateTime": 1516044349527}, {"current_trial": 99, "trialdata": {"rt": -1, "trial_type": "single-stim", "word": "beef", "stimulus": "<p id=\"stim\">BEEF</p>", "conditions": [24, 1600, "v", 24000], "internal_node_id": "0.0-72.0", "trial": 2, "time_elapsed": 473955, "serialpos": 10, "key_press": -1, "wordID": 112, "type": "PRES_VIS", "trial_index": 99}, "uniqueid": "MTK1609:38BQUHLA9X7MMZK20OODKTN06UAOMF", "dateTime": 1516044351978}, {"current_trial": 100, "trialdata": {"rt": -1, "trial_type": "single-stim", "word": "cattle", "stimulus": "<p id=\"stim\">CATTLE</p>", "conditions": [24, 1600, "v", 24000], "internal_node_id": "0.0-73.0", "trial": 2, "time_elapsed": 476601, "serialpos": 11, "key_press": -1, "wordID": 260, "type": "PRES_VIS", "trial_index": 100}, "uniqueid": "MTK1609:38BQUHLA9X7MMZK20OODKTN06UAOMF", "dateTime": 1516044354624}, {"current_trial": 101, "trialdata": {"rt": -1, "trial_type": "single-stim", "word": "blender", "stimulus": "<p id=\"stim\">BLENDER</p>", "conditions": [24, 1600, "v", 24000], "internal_node_id": "0.0-74.0", "trial": 2, "time_elapsed": 479021, "serialpos": 12, "key_press": -1, "wordID": 135, "type": "PRES_VIS", "trial_index": 101}, "uniqueid": "MTK1609:38BQUHLA9X7MMZK20OODKTN06UAOMF", "dateTime": 1516044357044}, {"current_trial": 102, "trialdata": {"rt": -1, "trial_type": "single-stim", "word": "yarn", "stimulus": "<p id=\"stim\">YARN</p>", "conditions": [24, 1600, "v", 24000], "internal_node_id": "0.0-75.0", "trial": 2, "time_elapsed": 481761, "serialpos": 13, "key_press": -1, "wordID": 1630, "type": "PRES_VIS", "trial_index": 102}, "uniqueid": "MTK1609:38BQUHLA9X7MMZK20OODKTN06UAOMF", "dateTime": 1516044359784}, {"current_trial": 103, "trialdata": {"rt": -1, "trial_type": "single-stim", "word": "razor", "stimulus": "<p id=\"stim\">RAZOR</p>", "conditions": [24, 1600, "v", 24000], "internal_node_id": "0.0-76.0", "trial": 2, "time_elapsed": 484291, "serialpos": 14, "key_press": -1, "wordID": 1170, "type": "PRES_VIS", "trial_index": 103}, "uniqueid": "MTK1609:38BQUHLA9X7MMZK20OODKTN06UAOMF", "dateTime": 1516044362314}, {"current_trial": 104, "trialdata": {"rt": -1, "trial_type": "single-stim", "word": "sidewalk", "stimulus": "<p id=\"stim\">SIDEWALK</p>", "conditions": [24, 1600, "v", 24000], "internal_node_id": "0.0-77.0", "trial": 2, "time_elapsed": 487090, "serialpos": 15, "key_press": -1, "wordID": 1302, "type": "PRES_VIS", "trial_index": 104}, "uniqueid": "MTK1609:38BQUHLA9X7MMZK20OODKTN06UAOMF", "dateTime": 1516044365115}, {"current_trial": 105, "trialdata": {"rt": -1, "trial_type": "single-stim", "word": "agent", "stimulus": "<p id=\"stim\">AGENT</p>", "conditions": [24, 1600, "v", 24000], "internal_node_id": "0.0-78.0", "trial": 2, "time_elapsed": 489515, "serialpos": 16, "key_press": -1, "wordID": 9, "type": "PRES_VIS", "trial_index": 105}, "uniqueid": "MTK1609:38BQUHLA9X7MMZK20OODKTN06UAOMF", "dateTime": 1516044367538}, {"current_trial": 106, "trialdata": {"rt": -1, "trial_type": "single-stim", "word": "shovel", "stimulus": "<p id=\"stim\">SHOVEL</p>", "conditions": [24, 1600, "v", 24000], "internal_node_id": "0.0-79.0", "trial": 2, "time_elapsed": 492070, "serialpos": 17, "key_press": -1, "wordID": 1294, "type": "PRES_VIS", "trial_index": 106}, "uniqueid": "MTK1609:38BQUHLA9X7MMZK20OODKTN06UAOMF", "dateTime": 1516044370093}, {"current_trial": 107, "trialdata": {"rt": -1, "trial_type": "single-stim", "word": "baby", "stimulus": "<p id=\"stim\">BABY</p>", "conditions": [24, 1600, "v", 24000], "internal_node_id": "0.0-80.0", "trial": 2, "time_elapsed": 494760, "serialpos": 18, "key_press": -1, "wordID": 63, "type": "PRES_VIS", "trial_index": 107}, "uniqueid": "MTK1609:38BQUHLA9X7MMZK20OODKTN06UAOMF", "dateTime": 1516044372784}, {"current_trial": 108, "trialdata": {"rt": -1, "trial_type": "single-stim", "word": "couch", "stimulus": "<p id=\"stim\">COUCH</p>", "conditions": [24, 1600, "v", 24000], "internal_node_id": "0.0-81.0", "trial": 2, "time_elapsed": 497505, "serialpos": 19, "key_press": -1, "wordID": 385, "type": "PRES_VIS", "trial_index": 108}, "uniqueid": "MTK1609:38BQUHLA9X7MMZK20OODKTN06UAOMF", "dateTime": 1516044375528}, {"current_trial": 109, "trialdata": {"rt": -1, "trial_type": "single-stim", "word": "shark", "stimulus": "<p id=\"stim\">SHARK</p>", "conditions": [24, 1600, "v", 24000], "internal_node_id": "0.0-82.0", "trial": 2, "time_elapsed": 500245, "serialpos": 20, "key_press": -1, "wordID": 1274, "type": "PRES_VIS", "trial_index": 109}, "uniqueid": "MTK1609:38BQUHLA9X7MMZK20OODKTN06UAOMF", "dateTime": 1516044378268}, {"current_trial": 110, "trialdata": {"rt": -1, "trial_type": "single-stim", "word": "mammal", "stimulus": "<p id=\"stim\">MAMMAL</p>", "conditions": [24, 1600, "v", 24000], "internal_node_id": "0.0-83.0", "trial": 2, "time_elapsed": 502737, "serialpos": 21, "key_press": -1, "wordID": 860, "type": "PRES_VIS", "trial_index": 110}, "uniqueid": "MTK1609:38BQUHLA9X7MMZK20OODKTN06UAOMF", "dateTime": 1516044380760}, {"current_trial": 111, "trialdata": {"rt": -1, "trial_type": "single-stim", "word": "plaza", "stimulus": "<p id=\"stim\">PLAZA</p>", "conditions": [24, 1600, "v", 24000], "internal_node_id": "0.0-84.0", "trial": 2, "time_elapsed": 505313, "serialpos": 22, "key_press": -1, "wordID": 1087, "type": "PRES_VIS", "trial_index": 111}, "uniqueid": "MTK1609:38BQUHLA9X7MMZK20OODKTN06UAOMF", "dateTime": 1516044383336}, {"current_trial": 112, "trialdata": {"rt": -1, "trial_type": "single-stim", "word": "bullet", "stimulus": "<p id=\"stim\">BULLET</p>", "conditions": [24, 1600, "v", 24000], "internal_node_id": "0.0-85.0", "trial": 2, "time_elapsed": 507854, "serialpos": 23, "key_press": -1, "wordID": 193, "type": "PRES_VIS", "trial_index": 112}, "uniqueid": "MTK1609:38BQUHLA9X7MMZK20OODKTN06UAOMF", "dateTime": 1516044385878}, {"current_trial": 113, "trialdata": {"rt": -1, "trial_type": "single-stim", "stimulus": "", "internal_node_id": "0.0-86.0-0.0", "time_elapsed": 509999, "key_press": -1, "type": "PRE_RECALL_DELAY", "trial_index": 113}, "uniqueid": "MTK1609:38BQUHLA9X7MMZK20OODKTN06UAOMF", "dateTime": 1516044388022}, {"current_trial": 114, "trialdata": {"rt": -1000, "trial_type": "single-audio", "stimulus": "/static/audio/400Hz.wav", "internal_node_id": "0.0-87.0", "time_elapsed": 510506, "key_press": -1, "type": "PRE_RECALL_ALERT", "trial_index": 114}, "uniqueid": "MTK1609:38BQUHLA9X7MMZK20OODKTN06UAOMF", "dateTime": 1516044388529}, {"current_trial": 115, "trialdata": {"rt": [2308, 3716, 5420, 7908, 13284, 16036, 19244, 19972, 22164, 25252, 26324, 27812, 29724, 32092, 34701, 37060, 40100, 44028, 49020, 57516], "recwords": ["perch", "grill", "blouse", "crayon", "airplane", "beaker", "cook", "wasp", "crater", "dolphin", "beef", "cattle", "blender", "yarn", "razor", "agent", "baby", "couch", "mammal", "plasma"], "key_times": [1566, 1567, 1668, 1852, 1988, 2308, 2924, 3092, 3205, 3372, 3500, 3716, 4612, 4724, 4892, 5076, 5156, 5276, 5420, 6764, 6964, 7092, 7204, 7428, 7628, 7908, 8900, 9148, 9452, 9676, 9677, 9756, 10132, 10268, 10580, 10884, 10892, 11340, 11476, 11725, 11916, 12068, 12188, 12190, 12284, 12796, 12924, 13148, 13284, 14516, 14780, 14924, 15180, 15292, 15436, 15484, 15628, 16036, 18420, 18700, 18844, 19004, 19244, 19404, 19516, 19620, 19772, 19972, 21316, 21517, 21644, 21780, 21908, 21996, 22164, 23340, 23468, 23653, 23828, 23996, 24108, 24524, 24756, 24988, 25252, 25828, 25924, 26060, 26214, 26324, 26684, 26780, 27020, 27148, 27284, 27404, 27812, 28836, 28980, 29084, 29228, 29300, 29452, 29588, 29724, 30924, 31380, 31508, 31620, 31789, 32092, 33204, 33348, 33717, 34044, 34164, 34701, 36284, 36524, 36660, 36788, 36892, 37060, 38884, 39108, 39668, 39908, 40100, 42565, 42996, 43300, 43501, 43636, 44028, 47276, 47556, 48012, 48188, 48356, 48500, 49020, 51116, 51268, 51508, 51933, 52076, 52252, 54341, 54644, 54828, 55084, 55612, 56820, 57132, 57228, 57516, 59068, 59660], "trial_type": "free-recall", "conditions": [24, 1600, "v", 24000], "internal_node_id": "0.0-88.0-0.0", "key_presses": [80, 69, 82, 67, 72, 13, 71, 82, 73, 76, 76, 13, 66, 76, 79, 85, 83, 69, 13, 67, 82, 65, 89, 79, 78, 13, 65, 82, 8, 73, 85, 82, 8, 8, 82, 79, 80, 8, 8, 80, 76, 65, 78, 66, 69, 8, 8, 69, 13, 86, 8, 66, 69, 65, 75, 69, 82, 13, 67, 79, 79, 75, 13, 87, 65, 83, 80, 13, 67, 82, 65, 84, 69, 82, 13, 68, 79, 76, 80, 72, 79, 8, 73, 78, 13, 66, 69, 69, 70, 13, 67, 65, 84, 84, 76, 69, 13, 66, 76, 69, 78, 68, 69, 82, 13, 8, 89, 65, 82, 78, 13, 82, 65, 90, 79, 82, 13, 65, 71, 69, 78, 84, 13, 66, 65, 66, 89, 13, 67, 79, 85, 67, 72, 13, 77, 65, 77, 77, 65, 76, 13, 66, 85, 76, 8, 8, 8, 80, 76, 65, 83, 8, 83, 77, 65, 13, 66, 85], "trial": 2, "time_elapsed": 570511, "type": "FREE_RECALL", "trial_index": 115}, "uniqueid": "MTK1609:38BQUHLA9X7MMZK20OODKTN06UAOMF", "dateTime": 1516044448538}, {"current_trial": 116, "trialdata": {"rt": 2117, "trial_type": "text", "internal_node_id": "0.0-89.0", "time_elapsed": 574633, "key_press": 39, "type": "INSTRUCTIONS", "trial_index": 116}, "uniqueid": "MTK1609:38BQUHLA9X7MMZK20OODKTN06UAOMF", "dateTime": 1516044452656}, {"current_trial": 117, "trialdata": {"rt": [3188, 5212, 6892, 10868], "trial_type": "math-distractor", "key_times": [2885, 2940, 3188, 4796, 4924, 5212, 6764, 6892, 10140, 10524, 10868], "responses": ["19", "10", "7", "15"], "num2": [4, 2, 1, 8, 4], "num3": [8, 1, 5, 2, 3], "conditions": [24, 1600, "v", 12000], "internal_node_id": "0.0-90.0", "key_presses": [49, 57, 13, 49, 48, 13, 55, 13, 49, 53, 13], "trial": 3, "time_elapsed": 588637, "type": "DISTRACTOR", "trial_index": 117, "num1": [7, 7, 1, 5, 7]}, "uniqueid": "MTK1609:38BQUHLA9X7MMZK20OODKTN06UAOMF", "dateTime": 1516044466660}, {"current_trial": 118, "trialdata": {"rt": -1, "trial_type": "single-stim", "stimulus": "<p id=\"stim\">10</p>", "internal_node_id": "0.0-91.0-0.0", "time_elapsed": 591641, "key_press": -1, "trial_index": 118}, "uniqueid": "MTK1609:38BQUHLA9X7MMZK20OODKTN06UAOMF", "dateTime": 1516044469664}, {"current_trial": 119, "trialdata": {"rt": -1, "trial_type": "single-stim", "stimulus": "<p id=\"stim\">9</p>", "internal_node_id": "0.0-91.0-1.0", "time_elapsed": 592644, "key_press": -1, "trial_index": 119}, "uniqueid": "MTK1609:38BQUHLA9X7MMZK20OODKTN06UAOMF", "dateTime": 1516044470667}, {"current_trial": 120, "trialdata": {"rt": -1, "trial_type": "single-stim", "stimulus": "<p id=\"stim\">8</p>", "internal_node_id": "0.0-91.0-2.0", "time_elapsed": 593647, "key_press": -1, "trial_index": 120}, "uniqueid": "MTK1609:38BQUHLA9X7MMZK20OODKTN06UAOMF", "dateTime": 1516044471670}, {"current_trial": 121, "trialdata": {"rt": -1, "trial_type": "single-stim", "stimulus": "<p id=\"stim\">7</p>", "internal_node_id": "0.0-91.0-3.0", "time_elapsed": 594649, "key_press": -1, "trial_index": 121}, "uniqueid": "MTK1609:38BQUHLA9X7MMZK20OODKTN06UAOMF", "dateTime": 1516044472672}, {"current_trial": 122, "trialdata": {"rt": -1, "trial_type": "single-stim", "stimulus": "<p id=\"stim\">6</p>", "internal_node_id": "0.0-91.0-4.0", "time_elapsed": 595651, "key_press": -1, "trial_index": 122}, "uniqueid": "MTK1609:38BQUHLA9X7MMZK20OODKTN06UAOMF", "dateTime": 1516044473674}, {"current_trial": 123, "trialdata": {"rt": -1, "trial_type": "single-stim", "stimulus": "<p id=\"stim\">5</p>", "internal_node_id": "0.0-91.0-5.0", "time_elapsed": 596653, "key_press": -1, "trial_index": 123}, "uniqueid": "MTK1609:38BQUHLA9X7MMZK20OODKTN06UAOMF", "dateTime": 1516044474676}, {"current_trial": 124, "trialdata": {"rt": -1, "trial_type": "single-stim", "stimulus": "<p id=\"stim\">4</p>", "internal_node_id": "0.0-91.0-6.0", "time_elapsed": 597655, "key_press": -1, "trial_index": 124}, "uniqueid": "MTK1609:38BQUHLA9X7MMZK20OODKTN06UAOMF", "dateTime": 1516044475678}, {"current_trial": 125, "trialdata": {"rt": -1, "trial_type": "single-stim", "stimulus": "<p id=\"stim\">3</p>", "internal_node_id": "0.0-91.0-7.0", "time_elapsed": 598657, "key_press": -1, "trial_index": 125}, "uniqueid": "MTK1609:38BQUHLA9X7MMZK20OODKTN06UAOMF", "dateTime": 1516044476680}, {"current_trial": 126, "trialdata": {"rt": -1, "trial_type": "single-stim", "stimulus": "<p id=\"stim\">2</p>", "internal_node_id": "0.0-91.0-8.0", "time_elapsed": 599659, "key_press": -1, "trial_index": 126}, "uniqueid": "MTK1609:38BQUHLA9X7MMZK20OODKTN06UAOMF", "dateTime": 1516044477682}, {"current_trial": 127, "trialdata": {"rt": -1, "trial_type": "single-stim", "stimulus": "<p id=\"stim\">1</p>", "internal_node_id": "0.0-91.0-9.0", "time_elapsed": 600660, "key_press": -1, "trial_index": 127}, "uniqueid": "MTK1609:38BQUHLA9X7MMZK20OODKTN06UAOMF", "dateTime": 1516044478684}, {"current_trial": 128, "trialdata": {"rt": -1, "trial_type": "single-stim", "stimulus": "<p id=\"stim\">+</p>", "internal_node_id": "0.0-92.0-0.0", "time_elapsed": 602163, "key_press": -1, "type": "FIXATION", "trial_index": 128}, "uniqueid": "MTK1609:38BQUHLA9X7MMZK20OODKTN06UAOMF", "dateTime": 1516044480186}, {"current_trial": 129, "trialdata": {"rt": -1, "trial_type": "single-stim", "word": "rust", "stimulus": "<p id=\"stim\">RUST</p>", "conditions": [24, 1600, "v", 12000], "internal_node_id": "0.0-93.0", "trial": 3, "time_elapsed": 603765, "serialpos": 0, "key_press": -1, "wordID": 1218, "type": "PRES_VIS", "trial_index": 129}, "uniqueid": "MTK1609:38BQUHLA9X7MMZK20OODKTN06UAOMF", "dateTime": 1516044481788}, {"current_trial": 130, "trialdata": {"rt": -1, "trial_type": "single-stim", "word": "gymnast", "stimulus": "<p id=\"stim\">GYMNAST</p>", "conditions": [24, 1600, "v", 12000], "internal_node_id": "0.0-94.0", "trial": 3, "time_elapsed": 606449, "serialpos": 1, "key_press": -1, "wordID": 674, "type": "PRES_VIS", "trial_index": 130}, "uniqueid": "MTK1609:38BQUHLA9X7MMZK20OODKTN06UAOMF", "dateTime": 1516044484472}, {"current_trial": 131, "trialdata": {"rt": -1, "trial_type": "single-stim", "word": "marsh", "stimulus": "<p id=\"stim\">MARSH</p>", "conditions": [24, 1600, "v", 12000], "internal_node_id": "0.0-95.0", "trial": 3, "time_elapsed": 609161, "serialpos": 2, "key_press": -1, "wordID": 873, "type": "PRES_VIS", "trial_index": 131}, "uniqueid": "MTK1609:38BQUHLA9X7MMZK20OODKTN06UAOMF", "dateTime": 1516044487184}, {"current_trial": 132, "trialdata": {"rt": -1, "trial_type": "single-stim", "word": "shelf", "stimulus": "<p id=\"stim\">SHELF</p>", "conditions": [24, 1600, "v", 12000], "internal_node_id": "0.0-96.0", "trial": 3, "time_elapsed": 611678, "serialpos": 3, "key_press": -1, "wordID": 1279, "type": "PRES_VIS", "trial_index": 132}, "uniqueid": "MTK1609:38BQUHLA9X7MMZK20OODKTN06UAOMF", "dateTime": 1516044489702}, {"current_trial": 133, "trialdata": {"rt": -1, "trial_type": "single-stim", "word": "lamp", "stimulus": "<p id=\"stim\">LAMP</p>", "conditions": [24, 1600, "v", 12000], "internal_node_id": "0.0-97.0", "trial": 3, "time_elapsed": 614146, "serialpos": 4, "key_press": -1, "wordID": 797, "type": "PRES_VIS", "trial_index": 133}, "uniqueid": "MTK1609:38BQUHLA9X7MMZK20OODKTN06UAOMF", "dateTime": 1516044492169}, {"current_trial": 134, "trialdata": {"rt": -1, "trial_type": "single-stim", "word": "kitchen", "stimulus": "<p id=\"stim\">KITCHEN</p>", "conditions": [24, 1600, "v", 12000], "internal_node_id": "0.0-98.0", "trial": 3, "time_elapsed": 616849, "serialpos": 5, "key_press": -1, "wordID": 777, "type": "PRES_VIS", "trial_index": 134}, "uniqueid": "MTK1609:38BQUHLA9X7MMZK20OODKTN06UAOMF", "dateTime": 1516044494872}, {"current_trial": 135, "trialdata": {"rt": -1, "trial_type": "single-stim", "word": "casket", "stimulus": "<p id=\"stim\">CASKET</p>", "conditions": [24, 1600, "v", 12000], "internal_node_id": "0.0-99.0", "trial": 3, "time_elapsed": 619628, "serialpos": 6, "key_press": -1, "wordID": 254, "type": "PRES_VIS", "trial_index": 135}, "uniqueid": "MTK1609:38BQUHLA9X7MMZK20OODKTN06UAOMF", "dateTime": 1516044497651}, {"current_trial": 136, "trialdata": {"rt": -1, "trial_type": "single-stim", "word": "country", "stimulus": "<p id=\"stim\">COUNTRY</p>", "conditions": [24, 1600, "v", 12000], "internal_node_id": "0.0-100.0", "trial": 3, "time_elapsed": 622226, "serialpos": 7, "key_press": -1, "wordID": 387, "type": "PRES_VIS", "trial_index": 136}, "uniqueid": "MTK1609:38BQUHLA9X7MMZK20OODKTN06UAOMF", "dateTime": 1516044500249}, {"current_trial": 137, "trialdata": {"rt": -1, "trial_type": "single-stim", "word": "world", "stimulus": "<p id=\"stim\">WORLD</p>", "conditions": [24, 1600, "v", 12000], "internal_node_id": "0.0-101.0", "trial": 3, "time_elapsed": 624905, "serialpos": 8, "key_press": -1, "wordID": 1621, "type": "PRES_VIS", "trial_index": 137}, "uniqueid": "MTK1609:38BQUHLA9X7MMZK20OODKTN06UAOMF", "dateTime": 1516044502928}, {"current_trial": 138, "trialdata": {"rt": -1, "trial_type": "single-stim", "word": "london", "stimulus": "<p id=\"stim\">LONDON</p>", "conditions": [24, 1600, "v", 12000], "internal_node_id": "0.0-102.0", "trial": 3, "time_elapsed": 627677, "serialpos": 9, "key_press": -1, "wordID": 842, "type": "PRES_VIS", "trial_index": 138}, "uniqueid": "MTK1609:38BQUHLA9X7MMZK20OODKTN06UAOMF", "dateTime": 1516044505700}, {"current_trial": 139, "trialdata": {"rt": -1, "trial_type": "single-stim", "word": "badge", "stimulus": "<p id=\"stim\">BADGE</p>", "conditions": [24, 1600, "v", 12000], "internal_node_id": "0.0-103.0", "trial": 3, "time_elapsed": 630187, "serialpos": 10, "key_press": -1, "wordID": 67, "type": "PRES_VIS", "trial_index": 139}, "uniqueid": "MTK1609:38BQUHLA9X7MMZK20OODKTN06UAOMF", "dateTime": 1516044508211}, {"current_trial": 140, "trialdata": {"rt": -1, "trial_type": "single-stim", "word": "basement", "stimulus": "<p id=\"stim\">BASEMENT</p>", "conditions": [24, 1600, "v", 12000], "internal_node_id": "0.0-104.0", "trial": 3, "time_elapsed": 632790, "serialpos": 11, "key_press": -1, "wordID": 93, "type": "PRES_VIS", "trial_index": 140}, "uniqueid": "MTK1609:38BQUHLA9X7MMZK20OODKTN06UAOMF", "dateTime": 1516044510813}, {"current_trial": 141, "trialdata": {"rt": -1, "trial_type": "single-stim", "word": "waitress", "stimulus": "<p id=\"stim\">WAITRESS</p>", "conditions": [24, 1600, "v", 12000], "internal_node_id": "0.0-105.0", "trial": 3, "time_elapsed": 635447, "serialpos": 12, "key_press": -1, "wordID": 1580, "type": "PRES_VIS", "trial_index": 141}, "uniqueid": "MTK1609:38BQUHLA9X7MMZK20OODKTN06UAOMF", "dateTime": 1516044513470}, {"current_trial": 142, "trialdata": {"rt": -1, "trial_type": "single-stim", "word": "snack", "stimulus": "<p id=\"stim\">SNACK</p>", "conditions": [24, 1600, "v", 12000], "internal_node_id": "0.0-106.0", "trial": 3, "time_elapsed": 638070, "serialpos": 13, "key_press": -1, "wordID": 1330, "type": "PRES_VIS", "trial_index": 142}, "uniqueid": "MTK1609:38BQUHLA9X7MMZK20OODKTN06UAOMF", "dateTime": 1516044516094}, {"current_trial": 143, "trialdata": {"rt": -1, "trial_type": "single-stim", "word": "dashboard", "stimulus": "<p id=\"stim\">DASHBOARD</p>", "conditions": [24, 1600, "v", 12000], "internal_node_id": "0.0-107.0", "trial": 3, "time_elapsed": 640643, "serialpos": 14, "key_press": -1, "wordID": 440, "type": "PRES_VIS", "trial_index": 143}, "uniqueid": "MTK1609:38BQUHLA9X7MMZK20OODKTN06UAOMF", "dateTime": 1516044518666}, {"current_trial": 144, "trialdata": {"rt": -1, "trial_type": "single-stim", "word": "pudding", "stimulus": "<p id=\"stim\">PUDDING</p>", "conditions": [24, 1600, "v", 12000], "internal_node_id": "0.0-108.0", "trial": 3, "time_elapsed": 643312, "serialpos": 15, "key_press": -1, "wordID": 1138, "type": "PRES_VIS", "trial_index": 144}, "uniqueid": "MTK1609:38BQUHLA9X7MMZK20OODKTN06UAOMF", "dateTime": 1516044521335}, {"current_trial": 145, "trialdata": {"rt": -1, "trial_type": "single-stim", "word": "diner", "stimulus": "<p id=\"stim\">DINER</p>", "conditions": [24, 1600, "v", 12000], "internal_node_id": "0.0-109.0", "trial": 3, "time_elapsed": 646063, "serialpos": 16, "key_press": -1, "wordID": 466, "type": "PRES_VIS", "trial_index": 145}, "uniqueid": "MTK1609:38BQUHLA9X7MMZK20OODKTN06UAOMF", "dateTime": 1516044524086}, {"current_trial": 146, "trialdata": {"rt": -1, "trial_type": "single-stim", "word": "bunny", "stimulus": "<p id=\"stim\">BUNNY</p>", "conditions": [24, 1600, "v", 12000], "internal_node_id": "0.0-110.0", "trial": 3, "time_elapsed": 648821, "serialpos": 17, "key_press": -1, "wordID": 197, "type": "PRES_VIS", "trial_index": 146}, "uniqueid": "MTK1609:38BQUHLA9X7MMZK20OODKTN06UAOMF", "dateTime": 1516044526844}, {"current_trial": 147, "trialdata": {"rt": -1, "trial_type": "single-stim", "word": "robber", "stimulus": "<p id=\"stim\">ROBBER</p>", "conditions": [24, 1600, "v", 12000], "internal_node_id": "0.0-111.0", "trial": 3, "time_elapsed": 651298, "serialpos": 18, "key_press": -1, "wordID": 1196, "type": "PRES_VIS", "trial_index": 147}, "uniqueid": "MTK1609:38BQUHLA9X7MMZK20OODKTN06UAOMF", "dateTime": 1516044529321}, {"current_trial": 148, "trialdata": {"rt": -1, "trial_type": "single-stim", "word": "hornet", "stimulus": "<p id=\"stim\">HORNET</p>", "conditions": [24, 1600, "v", 12000], "internal_node_id": "0.0-112.0", "trial": 3, "time_elapsed": 654094, "serialpos": 19, "key_press": -1, "wordID": 717, "type": "PRES_VIS", "trial_index": 148}, "uniqueid": "MTK1609:38BQUHLA9X7MMZK20OODKTN06UAOMF", "dateTime": 1516044532117}, {"current_trial": 149, "trialdata": {"rt": -1, "trial_type": "single-stim", "word": "smog", "stimulus": "<p id=\"stim\">SMOG</p>", "conditions": [24, 1600, "v", 12000], "internal_node_id": "0.0-113.0", "trial": 3, "time_elapsed": 656845, "serialpos": 20, "key_press": -1, "wordID": 1329, "type": "PRES_VIS", "trial_index": 149}, "uniqueid": "MTK1609:38BQUHLA9X7MMZK20OODKTN06UAOMF", "dateTime": 1516044534869}, {"current_trial": 150, "trialdata": {"rt": -1, "trial_type": "single-stim", "word": "ozone", "stimulus": "<p id=\"stim\">OZONE</p>", "conditions": [24, 1600, "v", 12000], "internal_node_id": "0.0-114.0", "trial": 3, "time_elapsed": 659438, "serialpos": 21, "key_press": -1, "wordID": 995, "type": "PRES_VIS", "trial_index": 150}, "uniqueid": "MTK1609:38BQUHLA9X7MMZK20OODKTN06UAOMF", "dateTime": 1516044537461}, {"current_trial": 151, "trialdata": {"rt": -1, "trial_type": "single-stim", "word": "glove", "stimulus": "<p id=\"stim\">GLOVE</p>", "conditions": [24, 1600, "v", 12000], "internal_node_id": "0.0-115.0", "trial": 3, "time_elapsed": 662169, "serialpos": 22, "key_press": -1, "wordID": 641, "type": "PRES_VIS", "trial_index": 151}, "uniqueid": "MTK1609:38BQUHLA9X7MMZK20OODKTN06UAOMF", "dateTime": 1516044540192}, {"current_trial": 152, "trialdata": {"rt": -1, "trial_type": "single-stim", "word": "robot", "stimulus": "<p id=\"stim\">ROBOT</p>", "conditions": [24, 1600, "v", 12000], "internal_node_id": "0.0-116.0", "trial": 3, "time_elapsed": 664716, "serialpos": 23, "key_press": -1, "wordID": 1199, "type": "PRES_VIS", "trial_index": 152}, "uniqueid": "MTK1609:38BQUHLA9X7MMZK20OODKTN06UAOMF", "dateTime": 1516044542739}, {"current_trial": 153, "trialdata": {"rt": -1, "trial_type": "single-stim", "stimulus": "", "internal_node_id": "0.0-117.0-0.0", "time_elapsed": 667173, "key_press": -1, "type": "PRE_RECALL_DELAY", "trial_index": 153}, "uniqueid": "MTK1609:38BQUHLA9X7MMZK20OODKTN06UAOMF", "dateTime": 1516044545196}, {"current_trial": 154, "trialdata": {"rt": -1000, "trial_type": "single-audio", "stimulus": "/static/audio/400Hz.wav", "internal_node_id": "0.0-118.0", "time_elapsed": 667674, "key_press": -1, "type": "PRE_RECALL_ALERT", "trial_index": 154}, "uniqueid": "MTK1609:38BQUHLA9X7MMZK20OODKTN06UAOMF", "dateTime": 1516044545697}, {"current_trial": 155, "trialdata": {"rt": [2532, 4572, 7052, 8420, 10020, 11988, 13260, 16300, 19084, 20356, 23060, 24860, 27660, 30628, 32428, 34220, 36484, 38724, 40724, 41740, 43772], "recwords": ["rust", "gymnast", "marsh", "shelf", "lamp", "kitchen", "casket", "country", "world", "london", "basket", "snack", "dashboar", "pudding", "dinner", "bunny", "robber", "hornet", "smog", "ozone", "rabbit"], "key_times": [2005, 2180, 2228, 2364, 2532, 3300, 3484, 3780, 4044, 4140, 4260, 4436, 4572, 6260, 6332, 6476, 6660, 6772, 7052, 7316, 7492, 7604, 7764, 8260, 8420, 9020, 9156, 9260, 9540, 10020, 10868, 11044, 11156, 11341, 11460, 11596, 11708, 11988, 12237, 12324, 12444, 12700, 12996, 13124, 13260, 15172, 15316, 15524, 15716, 15796, 15932, 16004, 16300, 18164, 18365, 18572, 18836, 18956, 19084, 19332, 19492, 19660, 19812, 19884, 20076, 20356, 22333, 22420, 22516, 22652, 22732, 22892, 23060, 23836, 24012, 24196, 24412, 24572, 24860, 25524, 26436, 26532, 26788, 26996, 27220, 27308, 27428, 27660, 29484, 29740, 29860, 29980, 30076, 30252, 30356, 30628, 30636, 31460, 31708, 31908, 32053, 32156, 32292, 32428, 33300, 33468, 33748, 33884, 34028, 34220, 35084, 35388, 35556, 35660, 35820, 35972, 36116, 36204, 36484, 37796, 38028, 38164, 38268, 38420, 38548, 38724, 40116, 40268, 40460, 40604, 40724, 41020, 41172, 41268, 41452, 41556, 41740, 42669, 42828, 42956, 43092, 43300, 43388, 43772], "trial_type": "free-recall", "conditions": [24, 1600, "v", 12000], "internal_node_id": "0.0-119.0-0.0", "key_presses": [82, 85, 83, 84, 13, 71, 89, 77, 78, 65, 83, 84, 13, 77, 65, 82, 83, 72, 13, 83, 72, 69, 76, 70, 13, 76, 65, 77, 80, 13, 75, 73, 84, 67, 72, 69, 78, 13, 67, 65, 83, 75, 69, 84, 13, 67, 79, 85, 78, 84, 82, 89, 13, 87, 79, 82, 76, 68, 13, 76, 79, 78, 68, 79, 78, 13, 66, 65, 83, 75, 69, 84, 13, 83, 78, 65, 67, 75, 13, 68, 65, 83, 72, 66, 79, 65, 82, 13, 80, 85, 68, 68, 73, 78, 71, 13, 16, 68, 73, 78, 78, 69, 82, 13, 66, 85, 78, 78, 89, 13, 66, 8, 82, 79, 66, 66, 69, 82, 13, 72, 79, 82, 78, 69, 84, 13, 83, 77, 79, 71, 13, 79, 90, 79, 78, 69, 13, 82, 65, 66, 66, 73, 84, 13], "trial": 3, "time_elapsed": 727680, "type": "FREE_RECALL", "trial_index": 155}, "uniqueid": "MTK1609:38BQUHLA9X7MMZK20OODKTN06UAOMF", "dateTime": 1516044605707}, {"current_trial": 156, "trialdata": {"rt": 1611, "trial_type": "text", "internal_node_id": "0.0-120.0", "time_elapsed": 731297, "key_press": 39, "type": "INSTRUCTIONS", "trial_index": 156}, "uniqueid": "MTK1609:38BQUHLA9X7MMZK20OODKTN06UAOMF", "dateTime": 1516044609320}, {"current_trial": 157, "trialdata": {"rt": [3251, 5627, 10427], "trial_type": "math-distractor", "key_times": [2899, 3067, 3251, 5235, 5331, 5627, 10171, 10291, 10427], "responses": ["12", "18", "21"], "num2": [3, 4, 8, 9], "num3": [4, 7, 6, 3], "conditions": [12, 1600, "v", 12000], "internal_node_id": "0.0-121.0", "key_presses": [49, 50, 13, 49, 56, 13, 50, 49, 13], "trial": 4, "time_elapsed": 745302, "type": "DISTRACTOR", "trial_index": 157, "num1": [5, 7, 7, 8]}, "uniqueid": "MTK1609:38BQUHLA9X7MMZK20OODKTN06UAOMF", "dateTime": 1516044623325}, {"current_trial": 158, "trialdata": {"rt": -1, "trial_type": "single-stim", "stimulus": "<p id=\"stim\">10</p>", "internal_node_id": "0.0-122.0-0.0", "time_elapsed": 748304, "key_press": -1, "trial_index": 158}, "uniqueid": "MTK1609:38BQUHLA9X7MMZK20OODKTN06UAOMF", "dateTime": 1516044626328}, {"current_trial": 159, "trialdata": {"rt": -1, "trial_type": "single-stim", "stimulus": "<p id=\"stim\">9</p>", "internal_node_id": "0.0-122.0-1.0", "time_elapsed": 749306, "key_press": -1, "trial_index": 159}, "uniqueid": "MTK1609:38BQUHLA9X7MMZK20OODKTN06UAOMF", "dateTime": 1516044627329}, {"current_trial": 160, "trialdata": {"rt": -1, "trial_type": "single-stim", "stimulus": "<p id=\"stim\">8</p>", "internal_node_id": "0.0-122.0-2.0", "time_elapsed": 750309, "key_press": -1, "trial_index": 160}, "uniqueid": "MTK1609:38BQUHLA9X7MMZK20OODKTN06UAOMF", "dateTime": 1516044628332}, {"current_trial": 161, "trialdata": {"rt": -1, "trial_type": "single-stim", "stimulus": "<p id=\"stim\">7</p>", "internal_node_id": "0.0-122.0-3.0", "time_elapsed": 751311, "key_press": -1, "trial_index": 161}, "uniqueid": "MTK1609:38BQUHLA9X7MMZK20OODKTN06UAOMF", "dateTime": 1516044629334}, {"current_trial": 162, "trialdata": {"rt": -1, "trial_type": "single-stim", "stimulus": "<p id=\"stim\">6</p>", "internal_node_id": "0.0-122.0-4.0", "time_elapsed": 752313, "key_press": -1, "trial_index": 162}, "uniqueid": "MTK1609:38BQUHLA9X7MMZK20OODKTN06UAOMF", "dateTime": 1516044630336}, {"current_trial": 163, "trialdata": {"rt": -1, "trial_type": "single-stim", "stimulus": "<p id=\"stim\">5</p>", "internal_node_id": "0.0-122.0-5.0", "time_elapsed": 753315, "key_press": -1, "trial_index": 163}, "uniqueid": "MTK1609:38BQUHLA9X7MMZK20OODKTN06UAOMF", "dateTime": 1516044631338}, {"current_trial": 164, "trialdata": {"rt": -1, "trial_type": "single-stim", "stimulus": "<p id=\"stim\">4</p>", "internal_node_id": "0.0-122.0-6.0", "time_elapsed": 754317, "key_press": -1, "trial_index": 164}, "uniqueid": "MTK1609:38BQUHLA9X7MMZK20OODKTN06UAOMF", "dateTime": 1516044632340}, {"current_trial": 165, "trialdata": {"rt": -1, "trial_type": "single-stim", "stimulus": "<p id=\"stim\">3</p>", "internal_node_id": "0.0-122.0-7.0", "time_elapsed": 755319, "key_press": -1, "trial_index": 165}, "uniqueid": "MTK1609:38BQUHLA9X7MMZK20OODKTN06UAOMF", "dateTime": 1516044633342}, {"current_trial": 166, "trialdata": {"rt": -1, "trial_type": "single-stim", "stimulus": "<p id=\"stim\">2</p>", "internal_node_id": "0.0-122.0-8.0", "time_elapsed": 756321, "key_press": -1, "trial_index": 166}, "uniqueid": "MTK1609:38BQUHLA9X7MMZK20OODKTN06UAOMF", "dateTime": 1516044634344}, {"current_trial": 167, "trialdata": {"rt": -1, "trial_type": "single-stim", "stimulus": "<p id=\"stim\">1</p>", "internal_node_id": "0.0-122.0-9.0", "time_elapsed": 757323, "key_press": -1, "trial_index": 167}, "uniqueid": "MTK1609:38BQUHLA9X7MMZK20OODKTN06UAOMF", "dateTime": 1516044635346}, {"current_trial": 168, "trialdata": {"rt": -1, "trial_type": "single-stim", "stimulus": "<p id=\"stim\">+</p>", "internal_node_id": "0.0-123.0-0.0", "time_elapsed": 758825, "key_press": -1, "type": "FIXATION", "trial_index": 168}, "uniqueid": "MTK1609:38BQUHLA9X7MMZK20OODKTN06UAOMF", "dateTime": 1516044636848}, {"current_trial": 169, "trialdata": {"rt": -1, "trial_type": "single-stim", "word": "lightning", "stimulus": "<p id=\"stim\">LIGHTNING</p>", "conditions": [12, 1600, "v", 12000], "internal_node_id": "0.0-124.0", "trial": 4, "time_elapsed": 760426, "serialpos": 0, "key_press": -1, "wordID": 819, "type": "PRES_VIS", "trial_index": 169}, "uniqueid": "MTK1609:38BQUHLA9X7MMZK20OODKTN06UAOMF", "dateTime": 1516044638450}, {"current_trial": 170, "trialdata": {"rt": -1, "trial_type": "single-stim", "word": "skillet", "stimulus": "<p id=\"stim\">SKILLET</p>", "conditions": [12, 1600, "v", 12000], "internal_node_id": "0.0-125.0", "trial": 4, "time_elapsed": 763081, "serialpos": 1, "key_press": -1, "wordID": 1316, "type": "PRES_VIS", "trial_index": 170}, "uniqueid": "MTK1609:38BQUHLA9X7MMZK20OODKTN06UAOMF", "dateTime": 1516044641104}, {"current_trial": 171, "trialdata": {"rt": -1, "trial_type": "single-stim", "word": "spoon", "stimulus": "<p id=\"stim\">SPOON</p>", "conditions": [12, 1600, "v", 12000], "internal_node_id": "0.0-126.0", "trial": 4, "time_elapsed": 765867, "serialpos": 2, "key_press": -1, "wordID": 1356, "type": "PRES_VIS", "trial_index": 171}, "uniqueid": "MTK1609:38BQUHLA9X7MMZK20OODKTN06UAOMF", "dateTime": 1516044643891}, {"current_trial": 172, "trialdata": {"rt": -1, "trial_type": "single-stim", "word": "dress", "stimulus": "<p id=\"stim\">DRESS</p>", "conditions": [12, 1600, "v", 12000], "internal_node_id": "0.0-127.0", "trial": 4, "time_elapsed": 768297, "serialpos": 3, "key_press": -1, "wordID": 494, "type": "PRES_VIS", "trial_index": 172}, "uniqueid": "MTK1609:38BQUHLA9X7MMZK20OODKTN06UAOMF", "dateTime": 1516044646320}, {"current_trial": 173, "trialdata": {"rt": -1, "trial_type": "single-stim", "word": "wrist", "stimulus": "<p id=\"stim\">WRIST</p>", "conditions": [12, 1600, "v", 12000], "internal_node_id": "0.0-128.0", "trial": 4, "time_elapsed": 770986, "serialpos": 4, "key_press": -1, "wordID": 1625, "type": "PRES_VIS", "trial_index": 173}, "uniqueid": "MTK1609:38BQUHLA9X7MMZK20OODKTN06UAOMF", "dateTime": 1516044649009}, {"current_trial": 174, "trialdata": {"rt": -1, "trial_type": "single-stim", "word": "tribe", "stimulus": "<p id=\"stim\">TRIBE</p>", "conditions": [12, 1600, "v", 12000], "internal_node_id": "0.0-129.0", "trial": 4, "time_elapsed": 773670, "serialpos": 5, "key_press": -1, "wordID": 1504, "type": "PRES_VIS", "trial_index": 174}, "uniqueid": "MTK1609:38BQUHLA9X7MMZK20OODKTN06UAOMF", "dateTime": 1516044651694}, {"current_trial": 175, "trialdata": {"rt": -1, "trial_type": "single-stim", "word": "sphinx", "stimulus": "<p id=\"stim\">SPHINX</p>", "conditions": [12, 1600, "v", 12000], "internal_node_id": "0.0-130.0", "trial": 4, "time_elapsed": 776121, "serialpos": 6, "key_press": -1, "wordID": 1348, "type": "PRES_VIS", "trial_index": 175}, "uniqueid": "MTK1609:38BQUHLA9X7MMZK20OODKTN06UAOMF", "dateTime": 1516044654144}, {"current_trial": 176, "trialdata": {"rt": -1, "trial_type": "single-stim", "word": "vagrant", "stimulus": "<p id=\"stim\">VAGRANT</p>", "conditions": [12, 1600, "v", 12000], "internal_node_id": "0.0-131.0", "trial": 4, "time_elapsed": 778834, "serialpos": 7, "key_press": -1, "wordID": 1543, "type": "PRES_VIS", "trial_index": 176}, "uniqueid": "MTK1609:38BQUHLA9X7MMZK20OODKTN06UAOMF", "dateTime": 1516044656857}, {"current_trial": 177, "trialdata": {"rt": -1, "trial_type": "single-stim", "word": "lily", "stimulus": "<p id=\"stim\">LILY</p>", "conditions": [12, 1600, "v", 12000], "internal_node_id": "0.0-132.0", "trial": 4, "time_elapsed": 781506, "serialpos": 8, "key_press": -1, "wordID": 820, "type": "PRES_VIS", "trial_index": 177}, "uniqueid": "MTK1609:38BQUHLA9X7MMZK20OODKTN06UAOMF", "dateTime": 1516044659529}, {"current_trial": 178, "trialdata": {"rt": -1, "trial_type": "single-stim", "word": "bathtub", "stimulus": "<p id=\"stim\">BATHTUB</p>", "conditions": [12, 1600, "v", 12000], "internal_node_id": "0.0-133.0", "trial": 4, "time_elapsed": 784208, "serialpos": 9, "key_press": -1, "wordID": 99, "type": "PRES_VIS", "trial_index": 178}, "uniqueid": "MTK1609:38BQUHLA9X7MMZK20OODKTN06UAOMF", "dateTime": 1516044662231}, {"current_trial": 179, "trialdata": {"rt": -1, "trial_type": "single-stim", "word": "county", "stimulus": "<p id=\"stim\">COUNTY</p>", "conditions": [12, 1600, "v", 12000], "internal_node_id": "0.0-134.0", "trial": 4, "time_elapsed": 786685, "serialpos": 10, "key_press": -1, "wordID": 388, "type": "PRES_VIS", "trial_index": 179}, "uniqueid": "MTK1609:38BQUHLA9X7MMZK20OODKTN06UAOMF", "dateTime": 1516044664708}, {"current_trial": 180, "trialdata": {"rt": -1, "trial_type": "single-stim", "word": "finger", "stimulus": "<p id=\"stim\">FINGER</p>", "conditions": [12, 1600, "v", 12000], "internal_node_id": "0.0-135.0", "trial": 4, "time_elapsed": 789131, "serialpos": 11, "key_press": -1, "wordID": 566, "type": "PRES_VIS", "trial_index": 180}, "uniqueid": "MTK1609:38BQUHLA9X7MMZK20OODKTN06UAOMF", "dateTime": 1516044667154}, {"current_trial": 181, "trialdata": {"rt": -1, "trial_type": "single-stim", "stimulus": "", "internal_node_id": "0.0-136.0-0.0", "time_elapsed": 791264, "key_press": -1, "type": "PRE_RECALL_DELAY", "trial_index": 181}, "uniqueid": "MTK1609:38BQUHLA9X7MMZK20OODKTN06UAOMF", "dateTime": 1516044669287}, {"current_trial": 182, "trialdata": {"rt": -1000, "trial_type": "single-audio", "stimulus": "/static/audio/400Hz.wav", "internal_node_id": "0.0-137.0", "time_elapsed": 791768, "key_press": -1, "type": "PRE_RECALL_ALERT", "trial_index": 182}, "uniqueid": "MTK1609:38BQUHLA9X7MMZK20OODKTN06UAOMF", "dateTime": 1516044669791}, {"current_trial": 183, "trialdata": {"rt": [3950, 5334, 7134, 8398, 10094, 11790, 14750, 17574, 20398, 23014, 26414], "recwords": ["lightning", "skillet", "spoon", "dress", "wrist", "tribe", "sphinx", "lilly", "bathrub", "finger", "country"], "key_times": [1687, 1870, 2054, 2294, 2471, 2670, 2862, 3046, 3206, 3950, 4414, 4574, 4718, 4894, 5014, 5070, 5214, 5334, 6110, 6270, 6454, 6606, 6806, 7134, 7606, 7798, 7934, 8118, 8246, 8398, 9086, 9342, 9638, 9758, 9926, 10094, 10967, 11118, 11286, 11510, 11638, 11790, 12958, 13214, 13510, 14190, 14400, 14630, 14750, 16022, 16286, 16486, 16638, 17206, 17574, 18814, 18958, 19118, 19262, 19774, 20022, 20238, 20398, 22111, 22246, 22446, 22654, 22750, 22830, 23014, 23526, 23718, 23950, 25334, 25598, 25790, 25886, 26038, 26110, 26414], "trial_type": "free-recall", "conditions": [12, 1600, "v", 12000], "internal_node_id": "0.0-138.0-0.0", "key_presses": [76, 73, 71, 72, 84, 78, 73, 78, 71, 13, 83, 75, 73, 76, 76, 69, 84, 13, 83, 80, 79, 79, 78, 13, 68, 82, 69, 83, 83, 13, 87, 82, 73, 83, 84, 13, 84, 82, 73, 66, 69, 13, 83, 80, 72, 73, 78, 88, 13, 76, 73, 76, 76, 89, 13, 66, 65, 84, 72, 82, 85, 66, 13, 70, 73, 78, 71, 69, 82, 13, 67, 79, 78, 8, 85, 78, 84, 82, 89, 13], "trial": 4, "time_elapsed": 851773, "type": "FREE_RECALL", "trial_index": 183}, "uniqueid": "MTK1609:38BQUHLA9X7MMZK20OODKTN06UAOMF", "dateTime": 1516044729801}, {"current_trial": 184, "trialdata": {"rt": 5477, "trial_type": "text", "internal_node_id": "0.0-139.0", "time_elapsed": 859257, "key_press": 39, "type": "INSTRUCTIONS", "trial_index": 184}, "uniqueid": "MTK1609:38BQUHLA9X7MMZK20OODKTN06UAOMF", "dateTime": 1516044737280}, {"current_trial": 185, "trialdata": {"rt": [5165, 8197, 10285, 11941], "trial_type": "math-distractor", "key_times": [4741, 4877, 5165, 8070, 8197, 9933, 10045, 10285, 11661, 11821, 11941], "responses": ["17", "9", "10", "15"], "num2": [9, 2, 1, 9, 9], "num3": [5, 2, 7, 5, 5], "conditions": [24, 800, "v", 12000], "internal_node_id": "0.0-140.0", "key_presses": [49, 55, 13, 57, 13, 49, 48, 13, 49, 53, 13], "trial": 5, "time_elapsed": 873260, "type": "DISTRACTOR", "trial_index": 185, "num1": [3, 5, 2, 1, 2]}, "uniqueid": "MTK1609:38BQUHLA9X7MMZK20OODKTN06UAOMF", "dateTime": 1516044751284}, {"current_trial": 186, "trialdata": {"rt": -1, "trial_type": "single-stim", "stimulus": "<p id=\"stim\">10</p>", "internal_node_id": "0.0-141.0-0.0", "time_elapsed": 876263, "key_press": -1, "trial_index": 186}, "uniqueid": "MTK1609:38BQUHLA9X7MMZK20OODKTN06UAOMF", "dateTime": 1516044754286}, {"current_trial": 187, "trialdata": {"rt": -1, "trial_type": "single-stim", "stimulus": "<p id=\"stim\">9</p>", "internal_node_id": "0.0-141.0-1.0", "time_elapsed": 877265, "key_press": -1, "trial_index": 187}, "uniqueid": "MTK1609:38BQUHLA9X7MMZK20OODKTN06UAOMF", "dateTime": 1516044755288}, {"current_trial": 188, "trialdata": {"rt": -1, "trial_type": "single-stim", "stimulus": "<p id=\"stim\">8</p>", "internal_node_id": "0.0-141.0-2.0", "time_elapsed": 878268, "key_press": -1, "trial_index": 188}, "uniqueid": "MTK1609:38BQUHLA9X7MMZK20OODKTN06UAOMF", "dateTime": 1516044756291}, {"current_trial": 189, "trialdata": {"rt": -1, "trial_type": "single-stim", "stimulus": "<p id=\"stim\">7</p>", "internal_node_id": "0.0-141.0-3.0", "time_elapsed": 879270, "key_press": -1, "trial_index": 189}, "uniqueid": "MTK1609:38BQUHLA9X7MMZK20OODKTN06UAOMF", "dateTime": 1516044757293}, {"current_trial": 190, "trialdata": {"rt": -1, "trial_type": "single-stim", "stimulus": "<p id=\"stim\">6</p>", "internal_node_id": "0.0-141.0-4.0", "time_elapsed": 880273, "key_press": -1, "trial_index": 190}, "uniqueid": "MTK1609:38BQUHLA9X7MMZK20OODKTN06UAOMF", "dateTime": 1516044758297}, {"current_trial": 191, "trialdata": {"rt": -1, "trial_type": "single-stim", "stimulus": "<p id=\"stim\">5</p>", "internal_node_id": "0.0-141.0-5.0", "time_elapsed": 881276, "key_press": -1, "trial_index": 191}, "uniqueid": "MTK1609:38BQUHLA9X7MMZK20OODKTN06UAOMF", "dateTime": 1516044759299}, {"current_trial": 192, "trialdata": {"rt": -1, "trial_type": "single-stim", "stimulus": "<p id=\"stim\">4</p>", "internal_node_id": "0.0-141.0-6.0", "time_elapsed": 882277, "key_press": -1, "trial_index": 192}, "uniqueid": "MTK1609:38BQUHLA9X7MMZK20OODKTN06UAOMF", "dateTime": 1516044760301}, {"current_trial": 193, "trialdata": {"rt": -1, "trial_type": "single-stim", "stimulus": "<p id=\"stim\">3</p>", "internal_node_id": "0.0-141.0-7.0", "time_elapsed": 883279, "key_press": -1, "trial_index": 193}, "uniqueid": "MTK1609:38BQUHLA9X7MMZK20OODKTN06UAOMF", "dateTime": 1516044761302}, {"current_trial": 194, "trialdata": {"rt": -1, "trial_type": "single-stim", "stimulus": "<p id=\"stim\">2</p>", "internal_node_id": "0.0-141.0-8.0", "time_elapsed": 884281, "key_press": -1, "trial_index": 194}, "uniqueid": "MTK1609:38BQUHLA9X7MMZK20OODKTN06UAOMF", "dateTime": 1516044762304}, {"current_trial": 195, "trialdata": {"rt": -1, "trial_type": "single-stim", "stimulus": "<p id=\"stim\">1</p>", "internal_node_id": "0.0-141.0-9.0", "time_elapsed": 885283, "key_press": -1, "trial_index": 195}, "uniqueid": "MTK1609:38BQUHLA9X7MMZK20OODKTN06UAOMF", "dateTime": 1516044763306}, {"current_trial": 196, "trialdata": {"rt": -1, "trial_type": "single-stim", "stimulus": "<p id=\"stim\">+</p>", "internal_node_id": "0.0-142.0-0.0", "time_elapsed": 886784, "key_press": -1, "type": "FIXATION", "trial_index": 196}, "uniqueid": "MTK1609:38BQUHLA9X7MMZK20OODKTN06UAOMF", "dateTime": 1516044764808}, {"current_trial": 197, "trialdata": {"rt": -1, "trial_type": "single-stim", "word": "wagon", "stimulus": "<p id=\"stim\">WAGON</p>", "conditions": [24, 800, "v", 12000], "internal_node_id": "0.0-143.0", "trial": 5, "time_elapsed": 887587, "serialpos": 0, "key_press": -1, "wordID": 1577, "type": "PRES_VIS", "trial_index": 197}, "uniqueid": "MTK1609:38BQUHLA9X7MMZK20OODKTN06UAOMF", "dateTime": 1516044765610}, {"current_trial": 198, "trialdata": {"rt": -1, "trial_type": "single-stim", "word": "penguin", "stimulus": "<p id=\"stim\">PENGUIN</p>", "conditions": [24, 800, "v", 12000], "internal_node_id": "0.0-144.0", "trial": 5, "time_elapsed": 889337, "serialpos": 1, "key_press": -1, "wordID": 1043, "type": "PRES_VIS", "trial_index": 198}, "uniqueid": "MTK1609:38BQUHLA9X7MMZK20OODKTN06UAOMF", "dateTime": 1516044767360}, {"current_trial": 199, "trialdata": {"rt": -1, "trial_type": "single-stim", "word": "tunnel", "stimulus": "<p id=\"stim\">TUNNEL</p>", "conditions": [24, 800, "v", 12000], "internal_node_id": "0.0-145.0", "trial": 5, "time_elapsed": 891320, "serialpos": 2, "key_press": -1, "wordID": 1518, "type": "PRES_VIS", "trial_index": 199}, "uniqueid": "MTK1609:38BQUHLA9X7MMZK20OODKTN06UAOMF", "dateTime": 1516044769343}, {"current_trial": 200, "trialdata": {"rt": -1, "trial_type": "single-stim", "word": "typist", "stimulus": "<p id=\"stim\">TYPIST</p>", "conditions": [24, 800, "v", 12000], "internal_node_id": "0.0-146.0", "trial": 5, "time_elapsed": 893298, "serialpos": 3, "key_press": -1, "wordID": 1531, "type": "PRES_VIS", "trial_index": 200}, "uniqueid": "MTK1609:38BQUHLA9X7MMZK20OODKTN06UAOMF", "dateTime": 1516044771322}, {"current_trial": 201, "trialdata": {"rt": -1, "trial_type": "single-stim", "word": "daughter", "stimulus": "<p id=\"stim\">DAUGHTER</p>", "conditions": [24, 800, "v", 12000], "internal_node_id": "0.0-147.0", "trial": 5, "time_elapsed": 895293, "serialpos": 4, "key_press": -1, "wordID": 441, "type": "PRES_VIS", "trial_index": 201}, "uniqueid": "MTK1609:38BQUHLA9X7MMZK20OODKTN06UAOMF", "dateTime": 1516044773316}, {"current_trial": 202, "trialdata": {"rt": -1, "trial_type": "single-stim", "word": "sister", "stimulus": "<p id=\"stim\">SISTER</p>", "conditions": [24, 800, "v", 12000], "internal_node_id": "0.0-148.0", "trial": 5, "time_elapsed": 896927, "serialpos": 5, "key_press": -1, "wordID": 1311, "type": "PRES_VIS", "trial_index": 202}, "uniqueid": "MTK1609:38BQUHLA9X7MMZK20OODKTN06UAOMF", "dateTime": 1516044774950}, {"current_trial": 203, "trialdata": {"rt": -1, "trial_type": "single-stim", "word": "palace", "stimulus": "<p id=\"stim\">PALACE</p>", "conditions": [24, 800, "v", 12000], "internal_node_id": "0.0-149.0", "trial": 5, "time_elapsed": 898623, "serialpos": 6, "key_press": -1, "wordID": 1005, "type": "PRES_VIS", "trial_index": 203}, "uniqueid": "MTK1609:38BQUHLA9X7MMZK20OODKTN06UAOMF", "dateTime": 1516044776646}, {"current_trial": 204, "trialdata": {"rt": -1, "trial_type": "single-stim", "word": "hood", "stimulus": "<p id=\"stim\">HOOD</p>", "conditions": [24, 800, "v", 12000], "internal_node_id": "0.0-150.0", "trial": 5, "time_elapsed": 900606, "serialpos": 7, "key_press": -1, "wordID": 713, "type": "PRES_VIS", "trial_index": 204}, "uniqueid": "MTK1609:38BQUHLA9X7MMZK20OODKTN06UAOMF", "dateTime": 1516044778629}, {"current_trial": 205, "trialdata": {"rt": -1, "trial_type": "single-stim", "word": "turtle", "stimulus": "<p id=\"stim\">TURTLE</p>", "conditions": [24, 800, "v", 12000], "internal_node_id": "0.0-151.0", "trial": 5, "time_elapsed": 902522, "serialpos": 8, "key_press": -1, "wordID": 1521, "type": "PRES_VIS", "trial_index": 205}, "uniqueid": "MTK1609:38BQUHLA9X7MMZK20OODKTN06UAOMF", "dateTime": 1516044780545}, {"current_trial": 206, "trialdata": {"rt": -1, "trial_type": "single-stim", "word": "washer", "stimulus": "<p id=\"stim\">WASHER</p>", "conditions": [24, 800, "v", 12000], "internal_node_id": "0.0-152.0", "trial": 5, "time_elapsed": 904341, "serialpos": 9, "key_press": -1, "wordID": 1591, "type": "PRES_VIS", "trial_index": 206}, "uniqueid": "MTK1609:38BQUHLA9X7MMZK20OODKTN06UAOMF", "dateTime": 1516044782365}, {"current_trial": 207, "trialdata": {"rt": -1, "trial_type": "single-stim", "word": "donkey", "stimulus": "<p id=\"stim\">DONKEY</p>", "conditions": [24, 800, "v", 12000], "internal_node_id": "0.0-153.0", "trial": 5, "time_elapsed": 906282, "serialpos": 10, "key_press": -1, "wordID": 483, "type": "PRES_VIS", "trial_index": 207}, "uniqueid": "MTK1609:38BQUHLA9X7MMZK20OODKTN06UAOMF", "dateTime": 1516044784305}, {"current_trial": 208, "trialdata": {"rt": -1, "trial_type": "single-stim", "word": "farmer", "stimulus": "<p id=\"stim\">FARMER</p>", "conditions": [24, 800, "v", 12000], "internal_node_id": "0.0-154.0", "trial": 5, "time_elapsed": 908255, "serialpos": 11, "key_press": -1, "wordID": 552, "type": "PRES_VIS", "trial_index": 208}, "uniqueid": "MTK1609:38BQUHLA9X7MMZK20OODKTN06UAOMF", "dateTime": 1516044786278}, {"current_trial": 209, "trialdata": {"rt": -1, "trial_type": "single-stim", "word": "omelet", "stimulus": "<p id=\"stim\">OMELET</p>", "conditions": [24, 800, "v", 12000], "internal_node_id": "0.0-155.0", "trial": 5, "time_elapsed": 909910, "serialpos": 12, "key_press": -1, "wordID": 975, "type": "PRES_VIS", "trial_index": 209}, "uniqueid": "MTK1609:38BQUHLA9X7MMZK20OODKTN06UAOMF", "dateTime": 1516044787934}, {"current_trial": 210, "trialdata": {"rt": -1, "trial_type": "single-stim", "word": "chest", "stimulus": "<p id=\"stim\">CHEST</p>", "conditions": [24, 800, "v", 12000], "internal_node_id": "0.0-156.0", "trial": 5, "time_elapsed": 911769, "serialpos": 13, "key_press": -1, "wordID": 294, "type": "PRES_VIS", "trial_index": 210}, "uniqueid": "MTK1609:38BQUHLA9X7MMZK20OODKTN06UAOMF", "dateTime": 1516044789792}, {"current_trial": 211, "trialdata": {"rt": -1, "trial_type": "single-stim", "word": "cigar", "stimulus": "<p id=\"stim\">CIGAR</p>", "conditions": [24, 800, "v", 12000], "internal_node_id": "0.0-157.0", "trial": 5, "time_elapsed": 913383, "serialpos": 14, "key_press": -1, "wordID": 307, "type": "PRES_VIS", "trial_index": 211}, "uniqueid": "MTK1609:38BQUHLA9X7MMZK20OODKTN06UAOMF", "dateTime": 1516044791406}, {"current_trial": 212, "trialdata": {"rt": -1, "trial_type": "single-stim", "word": "canal", "stimulus": "<p id=\"stim\">CANAL</p>", "conditions": [24, 800, "v", 12000], "internal_node_id": "0.0-158.0", "trial": 5, "time_elapsed": 915156, "serialpos": 15, "key_press": -1, "wordID": 225, "type": "PRES_VIS", "trial_index": 212}, "uniqueid": "MTK1609:38BQUHLA9X7MMZK20OODKTN06UAOMF", "dateTime": 1516044793179}, {"current_trial": 213, "trialdata": {"rt": -1, "trial_type": "single-stim", "word": "sandwich", "stimulus": "<p id=\"stim\">SANDWICH</p>", "conditions": [24, 800, "v", 12000], "internal_node_id": "0.0-159.0", "trial": 5, "time_elapsed": 916889, "serialpos": 16, "key_press": -1, "wordID": 1231, "type": "PRES_VIS", "trial_index": 213}, "uniqueid": "MTK1609:38BQUHLA9X7MMZK20OODKTN06UAOMF", "dateTime": 1516044794912}, {"current_trial": 214, "trialdata": {"rt": -1, "trial_type": "single-stim", "word": "pasta", "stimulus": "<p id=\"stim\">PASTA</p>", "conditions": [24, 800, "v", 12000], "internal_node_id": "0.0-160.0", "trial": 5, "time_elapsed": 918654, "serialpos": 17, "key_press": -1, "wordID": 1020, "type": "PRES_VIS", "trial_index": 214}, "uniqueid": "MTK1609:38BQUHLA9X7MMZK20OODKTN06UAOMF", "dateTime": 1516044796678}, {"current_trial": 215, "trialdata": {"rt": -1, "trial_type": "single-stim", "word": "arm", "stimulus": "<p id=\"stim\">ARM</p>", "conditions": [24, 800, "v", 12000], "internal_node_id": "0.0-161.0", "trial": 5, "time_elapsed": 920525, "serialpos": 18, "key_press": -1, "wordID": 37, "type": "PRES_VIS", "trial_index": 215}, "uniqueid": "MTK1609:38BQUHLA9X7MMZK20OODKTN06UAOMF", "dateTime": 1516044798548}, {"current_trial": 216, "trialdata": {"rt": -1, "trial_type": "single-stim", "word": "leg", "stimulus": "<p id=\"stim\">LEG</p>", "conditions": [24, 800, "v", 12000], "internal_node_id": "0.0-162.0", "trial": 5, "time_elapsed": 922446, "serialpos": 19, "key_press": -1, "wordID": 808, "type": "PRES_VIS", "trial_index": 216}, "uniqueid": "MTK1609:38BQUHLA9X7MMZK20OODKTN06UAOMF", "dateTime": 1516044800469}, {"current_trial": 217, "trialdata": {"rt": -1, "trial_type": "single-stim", "word": "catcher", "stimulus": "<p id=\"stim\">CATCHER</p>", "conditions": [24, 800, "v", 12000], "internal_node_id": "0.0-163.0", "trial": 5, "time_elapsed": 924402, "serialpos": 20, "key_press": -1, "wordID": 257, "type": "PRES_VIS", "trial_index": 217}, "uniqueid": "MTK1609:38BQUHLA9X7MMZK20OODKTN06UAOMF", "dateTime": 1516044802425}, {"current_trial": 218, "trialdata": {"rt": -1, "trial_type": "single-stim", "word": "gazelle", "stimulus": "<p id=\"stim\">GAZELLE</p>", "conditions": [24, 800, "v", 12000], "internal_node_id": "0.0-164.0", "trial": 5, "time_elapsed": 926326, "serialpos": 21, "key_press": -1, "wordID": 627, "type": "PRES_VIS", "trial_index": 218}, "uniqueid": "MTK1609:38BQUHLA9X7MMZK20OODKTN06UAOMF", "dateTime": 1516044804350}, {"current_trial": 219, "trialdata": {"rt": -1, "trial_type": "single-stim", "word": "brandy", "stimulus": "<p id=\"stim\">BRANDY</p>", "conditions": [24, 800, "v", 12000], "internal_node_id": "0.0-165.0", "trial": 5, "time_elapsed": 927988, "serialpos": 22, "key_press": -1, "wordID": 168, "type": "PRES_VIS", "trial_index": 219}, "uniqueid": "MTK1609:38BQUHLA9X7MMZK20OODKTN06UAOMF", "dateTime": 1516044806011}, {"current_trial": 220, "trialdata": {"rt": -1, "trial_type": "single-stim", "word": "fragrance", "stimulus": "<p id=\"stim\">FRAGRANCE</p>", "conditions": [24, 800, "v", 12000], "internal_node_id": "0.0-166.0", "trial": 5, "time_elapsed": 929937, "serialpos": 23, "key_press": -1, "wordID": 598, "type": "PRES_VIS", "trial_index": 220}, "uniqueid": "MTK1609:38BQUHLA9X7MMZK20OODKTN06UAOMF", "dateTime": 1516044807960}, {"current_trial": 221, "trialdata": {"rt": -1, "trial_type": "single-stim", "stimulus": "", "internal_node_id": "0.0-167.0-0.0", "time_elapsed": 932159, "key_press": -1, "type": "PRE_RECALL_DELAY", "trial_index": 221}, "uniqueid": "MTK1609:38BQUHLA9X7MMZK20OODKTN06UAOMF", "dateTime": 1516044810182}, {"current_trial": 222, "trialdata": {"rt": -1000, "trial_type": "single-audio", "stimulus": "/static/audio/400Hz.wav", "internal_node_id": "0.0-168.0", "time_elapsed": 932661, "key_press": -1, "type": "PRE_RECALL_ALERT", "trial_index": 222}, "uniqueid": "MTK1609:38BQUHLA9X7MMZK20OODKTN06UAOMF", "dateTime": 1516044810684}, {"current_trial": 223, "trialdata": {"rt": [1785, 3873, 5169, 7249, 9129, 10241, 12857, 14497, 16401, 19145, 21321, 23377, 24489, 26129, 28585, 29761, 31441, 36601, 39361, 42769], "recwords": ["wagon", "penguin", "tunnel", "typist", "daughter", "sister", "hood", "turtle", "washer", "donkley", "farmer", "chest", "cigar", "canal", "sandwich", "pasta", "arm", "gazelle", "brandy", "fragrance"], "key_times": [1018, 1097, 1273, 1345, 1529, 1785, 2617, 2729, 2897, 3105, 3225, 3393, 3577, 3873, 4241, 4361, 4545, 4673, 4817, 4905, 5169, 6305, 6481, 6697, 6889, 6969, 7121, 7249, 8017, 8121, 8321, 8529, 8697, 8793, 8913, 8985, 9129, 9433, 9633, 9737, 9897, 10025, 10105, 10241, 12298, 12417, 12569, 12673, 12857, 13425, 13793, 13897, 14041, 14257, 14353, 14497, 15617, 15729, 15833, 16057, 16153, 16273, 16401, 17313, 17497, 17729, 17945, 17953, 18033, 18169, 19145, 20625, 20729, 20865, 20993, 21089, 21185, 21321, 22586, 22729, 22921, 23089, 23233, 23377, 23769, 23945, 24017, 24177, 24289, 24489, 25425, 25537, 25641, 25777, 25913, 26129, 26777, 27210, 27457, 27553, 27769, 28041, 28153, 28265, 28585, 29081, 29177, 29265, 29441, 29601, 29761, 30633, 30905, 31145, 31441, 35242, 35377, 35785, 36001, 36177, 36321, 36417, 36601, 38329, 38417, 38553, 38681, 38801, 38961, 39361, 39825, 40001, 40129, 40505, 41865, 42073, 42273, 42385, 42609, 42769], "trial_type": "free-recall", "conditions": [24, 800, "v", 12000], "internal_node_id": "0.0-169.0-0.0", "key_presses": [87, 65, 71, 79, 78, 13, 80, 69, 78, 71, 85, 73, 78, 13, 84, 85, 78, 78, 69, 76, 13, 84, 89, 80, 73, 83, 84, 13, 68, 65, 85, 71, 72, 84, 69, 82, 13, 83, 73, 83, 84, 69, 82, 13, 72, 79, 79, 68, 13, 84, 85, 82, 84, 76, 69, 13, 87, 65, 83, 72, 69, 82, 13, 68, 79, 78, 75, 76, 69, 89, 13, 70, 65, 82, 77, 69, 82, 13, 67, 72, 69, 83, 84, 13, 67, 73, 71, 65, 82, 13, 67, 65, 78, 65, 76, 13, 83, 65, 78, 68, 87, 73, 67, 72, 13, 80, 65, 83, 84, 65, 13, 65, 82, 77, 13, 71, 65, 90, 69, 76, 76, 69, 13, 66, 82, 65, 78, 68, 89, 13, 70, 82, 65, 71, 82, 65, 78, 67, 69, 13], "trial": 5, "time_elapsed": 992665, "type": "FREE_RECALL", "trial_index": 223}, "uniqueid": "MTK1609:38BQUHLA9X7MMZK20OODKTN06UAOMF", "dateTime": 1516044870695}, {"current_trial": 224, "trialdata": {"rt": 2591, "trial_type": "text", "internal_node_id": "0.0-170.0", "time_elapsed": 997265, "key_press": 39, "type": "INSTRUCTIONS", "trial_index": 224}, "uniqueid": "MTK1609:38BQUHLA9X7MMZK20OODKTN06UAOMF", "dateTime": 1516044875288}, {"current_trial": 225, "trialdata": {"rt": [2467, 4867, 9315, 11723, 14891, 17939, 19915, 23219], "trial_type": "math-distractor", "key_times": [2187, 2339, 2467, 4571, 4779, 4867, 8892, 9059, 9315, 11387, 11523, 11723, 14419, 14627, 14891, 17548, 17731, 17939, 19483, 19651, 19915, 22843, 22955, 23219], "responses": ["11", "13", "18", "12", "17", "20", "18", "19"], "num2": [6, 7, 4, 6, 9, 4, 7, 7, 4], "num3": [3, 4, 5, 4, 3, 7, 9, 5, 8], "conditions": [24, 1600, "v", 24000], "internal_node_id": "0.0-171.0", "key_presses": [49, 49, 13, 49, 51, 13, 49, 56, 13, 49, 50, 13, 49, 55, 13, 50, 48, 13, 49, 56, 13, 49, 57, 13], "trial": 6, "time_elapsed": 1023271, "type": "DISTRACTOR", "trial_index": 225, "num1": [2, 2, 9, 2, 5, 9, 2, 7, 2]}, "uniqueid": "MTK1609:38BQUHLA9X7MMZK20OODKTN06UAOMF", "dateTime": 1516044901294}, {"current_trial": 226, "trialdata": {"rt": -1, "trial_type": "single-stim", "stimulus": "<p id=\"stim\">10</p>", "internal_node_id": "0.0-172.0-0.0", "time_elapsed": 1026274, "key_press": -1, "trial_index": 226}, "uniqueid": "MTK1609:38BQUHLA9X7MMZK20OODKTN06UAOMF", "dateTime": 1516044904297}, {"current_trial": 227, "trialdata": {"rt": -1, "trial_type": "single-stim", "stimulus": "<p id=\"stim\">9</p>", "internal_node_id": "0.0-172.0-1.0", "time_elapsed": 1027276, "key_press": -1, "trial_index": 227}, "uniqueid": "MTK1609:38BQUHLA9X7MMZK20OODKTN06UAOMF", "dateTime": 1516044905299}, {"current_trial": 228, "trialdata": {"rt": -1, "trial_type": "single-stim", "stimulus": "<p id=\"stim\">8</p>", "internal_node_id": "0.0-172.0-2.0", "time_elapsed": 1028279, "key_press": -1, "trial_index": 228}, "uniqueid": "MTK1609:38BQUHLA9X7MMZK20OODKTN06UAOMF", "dateTime": 1516044906302}, {"current_trial": 229, "trialdata": {"rt": -1, "trial_type": "single-stim", "stimulus": "<p id=\"stim\">7</p>", "internal_node_id": "0.0-172.0-3.0", "time_elapsed": 1029281, "key_press": -1, "trial_index": 229}, "uniqueid": "MTK1609:38BQUHLA9X7MMZK20OODKTN06UAOMF", "dateTime": 1516044907304}, {"current_trial": 230, "trialdata": {"rt": -1, "trial_type": "single-stim", "stimulus": "<p id=\"stim\">6</p>", "internal_node_id": "0.0-172.0-4.0", "time_elapsed": 1030283, "key_press": -1, "trial_index": 230}, "uniqueid": "MTK1609:38BQUHLA9X7MMZK20OODKTN06UAOMF", "dateTime": 1516044908306}, {"current_trial": 231, "trialdata": {"rt": -1, "trial_type": "single-stim", "stimulus": "<p id=\"stim\">5</p>", "internal_node_id": "0.0-172.0-5.0", "time_elapsed": 1031285, "key_press": -1, "trial_index": 231}, "uniqueid": "MTK1609:38BQUHLA9X7MMZK20OODKTN06UAOMF", "dateTime": 1516044909308}, {"current_trial": 232, "trialdata": {"rt": -1, "trial_type": "single-stim", "stimulus": "<p id=\"stim\">4</p>", "internal_node_id": "0.0-172.0-6.0", "time_elapsed": 1032288, "key_press": -1, "trial_index": 232}, "uniqueid": "MTK1609:38BQUHLA9X7MMZK20OODKTN06UAOMF", "dateTime": 1516044910311}, {"current_trial": 233, "trialdata": {"rt": -1, "trial_type": "single-stim", "stimulus": "<p id=\"stim\">3</p>", "internal_node_id": "0.0-172.0-7.0", "time_elapsed": 1033291, "key_press": -1, "trial_index": 233}, "uniqueid": "MTK1609:38BQUHLA9X7MMZK20OODKTN06UAOMF", "dateTime": 1516044911314}, {"current_trial": 234, "trialdata": {"rt": -1, "trial_type": "single-stim", "stimulus": "<p id=\"stim\">2</p>", "internal_node_id": "0.0-172.0-8.0", "time_elapsed": 1034292, "key_press": -1, "trial_index": 234}, "uniqueid": "MTK1609:38BQUHLA9X7MMZK20OODKTN06UAOMF", "dateTime": 1516044912316}, {"current_trial": 235, "trialdata": {"rt": -1, "trial_type": "single-stim", "stimulus": "<p id=\"stim\">1</p>", "internal_node_id": "0.0-172.0-9.0", "time_elapsed": 1035294, "key_press": -1, "trial_index": 235}, "uniqueid": "MTK1609:38BQUHLA9X7MMZK20OODKTN06UAOMF", "dateTime": 1516044913318}, {"current_trial": 236, "trialdata": {"rt": -1, "trial_type": "single-stim", "stimulus": "<p id=\"stim\">+</p>", "internal_node_id": "0.0-173.0-0.0", "time_elapsed": 1036797, "key_press": -1, "type": "FIXATION", "trial_index": 236}, "uniqueid": "MTK1609:38BQUHLA9X7MMZK20OODKTN06UAOMF", "dateTime": 1516044914820}, {"current_trial": 237, "trialdata": {"rt": -1, "trial_type": "single-stim", "word": "robin", "stimulus": "<p id=\"stim\">ROBIN</p>", "conditions": [24, 1600, "v", 24000], "internal_node_id": "0.0-174.0", "trial": 6, "time_elapsed": 1038399, "serialpos": 0, "key_press": -1, "wordID": 1198, "type": "PRES_VIS", "trial_index": 237}, "uniqueid": "MTK1609:38BQUHLA9X7MMZK20OODKTN06UAOMF", "dateTime": 1516044916422}, {"current_trial": 238, "trialdata": {"rt": -1, "trial_type": "single-stim", "word": "pastry", "stimulus": "<p id=\"stim\">PASTRY</p>", "conditions": [24, 1600, "v", 24000], "internal_node_id": "0.0-175.0", "trial": 6, "time_elapsed": 1041151, "serialpos": 1, "key_press": -1, "wordID": 1021, "type": "PRES_VIS", "trial_index": 238}, "uni