{"assignmentId": "3WSELTNVR491XQGLZ2K75CYNBD7ATS", "workerId": "MTK1766", "questiondata": {"origin": "United States", "strat-rehearsal": "0", "marital": "Single", "education": "High school diploma", "ethnicity": "Not Hispanic", "color_depth": 24, "distracted": "No", "wrote-notes": "No", "strat-other": "I closed my eyes as I visualized the words.", "screen_width": 1536, "avail_screen_width": 1536, "avail_screen_height": 864, "strat-image": "100", "language": "English", "gender": "Female", "age": "41", "gender_other": "", "race": ["White"], "strat-categorize": "51", "pixel_depth": 24, "strat-spatial": "29", "strat-story": "8", "race_other": "", "screen_height": 864}, "bonus": 0, "hitId": "30Y6N4AHYP3KSY8BPL1C6E9RQ0ZRD7", "counterbalance": 2430, "useragent": "Mozilla/5.0 (Windows NT 10.0; Win64; x64) AppleWebKit/537.36 (KHTML, like Gecko) Chrome/64.0.3282.85 Safari/537.36", "eventdata": [{"eventtype": "initialized", "interval": 0, "value": null, "timestamp": 1516294934592}, {"eventtype": "window_resize", "interval": 0, "value": [1540, 816], "timestamp": 1516294934592}, {"eventtype": "window_resize", "interval": 5220, "value": [1536, 814], "timestamp": 1516294939812}, {"eventtype": "focus", "interval": 5250, "value": "off", "timestamp": 1516294945062}, {"eventtype": "focus", "interval": 33910, "value": "on", "timestamp": 1516294978972}, {"eventtype": "focus", "interval": 148194, "value": "off", "timestamp": 1516295127166}, {"eventtype": "focus", "interval": 112, "value": "on", "timestamp": 1516295127278}, {"eventtype": "focus", "interval": 1654, "value": "off", "timestamp": 1516295128932}, {"eventtype": "focus", "interval": 86, "value": "on", "timestamp": 1516295129018}, {"eventtype": "focus", "interval": 2448720, "value": "off", "timestamp": 1516297577738}, {"eventtype": "focus", "interval": 175, "value": "on", "timestamp": 1516297577913}, {"eventtype": "focus", "interval": 1436, "value": "off", "timestamp": 1516297579349}, {"eventtype": "focus", "interval": 78, "value": "on", "timestamp": 1516297579427}, {"eventtype": "focus", "interval": 282823, "value": "off", "timestamp": 1516297862250}, {"eventtype": "focus", "interval": 17836, "value": "on", "timestamp": 1516297880086}, {"eventtype": "focus", "interval": 17604, "value": "off", "timestamp": 1516297897690}, {"eventtype": "focus", "interval": 18910, "value": "on", "timestamp": 1516297916600}, {"eventtype": "focus", "interval": 15714, "value": "off", "timestamp": 1516297932314}, {"eventtype": "focus", "interval": 19062, "value": "on", "timestamp": 1516297951376}, {"eventtype": "focus", "interval": 503791, "value": "off", "timestamp": 1516298455167}, {"eventtype": "focus", "interval": 132, "value": "on", "timestamp": 1516298455299}, {"eventtype": "focus", "interval": 1572, "value": "off", "timestamp": 1516298456871}, {"eventtype": "focus", "interval": 130, "value": "on", "timestamp": 1516298457001}, {"eventtype": "focus", "interval": 265735, "value": "off", "timestamp": 1516298722736}, {"eventtype": "focus", "interval": 97, "value": "on", "timestamp": 1516298722833}, {"eventtype": "focus", "interval": 1369, "value": "off", "timestamp": 1516298724202}, {"eventtype": "focus", "interval": 292, "value": "on", "timestamp": 1516298724494}, {"eventtype": "focus", "interval": 22798, "value": "off", "timestamp": 1516298747292}, {"eventtype": "focus", "interval": 15436, "value": "on", "timestamp": 1516298762728}, {"eventtype": "focus", "interval": 16072, "value": "off", "timestamp": 1516298778800}, {"eventtype": "focus", "interval": 4099, "value": "on", "timestamp": 1516298782899}, {"eventtype": "focus", "interval": 33979, "value": "off", "timestamp": 1516298816878}, {"eventtype": "focus", "interval": 2660, "value": "on", "timestamp": 1516298819538}], "data": [{"current_trial": 0, "trialdata": {"rt": 7057, "trial_type": "text", "internal_node_id": "0.0-0.0", "time_elapsed": 7060, "key_press": 13, "type": "INSTRUCTIONS", "trial_index": 0}, "uniqueid": "MTK1766:3WSELTNVR491XQGLZ2K75CYNBD7ATS", "dateTime": 1516294980757}, {"current_trial": 1, "trialdata": {"rt": 34433, "trial_type": "text", "internal_node_id": "0.0-1.0", "time_elapsed": 41500, "key_press": 13, "type": "INSTRUCTIONS", "trial_index": 1}, "uniqueid": "MTK1766:3WSELTNVR491XQGLZ2K75CYNBD7ATS", "dateTime": 1516295015191}, {"current_trial": 2, "trialdata": {"rt": [14435], "trial_type": "audio-test", "responses": ["ocean"], "internal_node_id": "0.0-2.0", "time_elapsed": 55948, "type": "AUDIO_TEST", "trial_index": 2}, "uniqueid": "MTK1766:3WSELTNVR491XQGLZ2K75CYNBD7ATS", "dateTime": 1516295029639}, {"current_trial": 3, "trialdata": {"rt": [7745], "trial_type": "audio-test", "responses": ["crystal"], "internal_node_id": "0.0-3.0", "time_elapsed": 63698, "type": "AUDIO_TEST", "trial_index": 3}, "uniqueid": "MTK1766:3WSELTNVR491XQGLZ2K75CYNBD7ATS", "dateTime": 1516295037391}, {"current_trial": 4, "trialdata": {"rt": [4993], "trial_type": "audio-test", "responses": ["spice"], "internal_node_id": "0.0-4.0", "time_elapsed": 68700, "type": "AUDIO_TEST", "trial_index": 4}, "uniqueid": "MTK1766:3WSELTNVR491XQGLZ2K75CYNBD7ATS", "dateTime": 1516295042391}, {"current_trial": 5, "trialdata": {"rt": 36822, "trial_type": "survey-text", "responses": "{\"Q0\":\"9pm\",\"Q1\":\"6am\",\"Q2\":\"4\"}", "internal_node_id": "0.0-5.0", "time_elapsed": 106275, "type": "SLEEP_SURVEY", "trial_index": 5}, "uniqueid": "MTK1766:3WSELTNVR491XQGLZ2K75CYNBD7ATS", "dateTime": 1516295079966}, {"current_trial": 6, "trialdata": {"rt": 53712, "trial_type": "text", "internal_node_id": "0.0-6.0", "time_elapsed": 160988, "key_press": 13, "type": "INSTRUCTIONS", "trial_index": 6}, "uniqueid": "MTK1766:3WSELTNVR491XQGLZ2K75CYNBD7ATS", "dateTime": 1516295134681}, {"current_trial": 7, "trialdata": {"rt": 30162, "trial_type": "text", "internal_node_id": "0.0-7.0", "time_elapsed": 191654, "key_press": 13, "type": "INSTRUCTIONS", "trial_index": 7}, "uniqueid": "MTK1766:3WSELTNVR491XQGLZ2K75CYNBD7ATS", "dateTime": 1516295165345}, {"current_trial": 8, "trialdata": {"rt": 21337, "trial_type": "text", "internal_node_id": "0.0-8.0", "time_elapsed": 213494, "key_press": 13, "type": "INSTRUCTIONS", "trial_index": 8}, "uniqueid": "MTK1766:3WSELTNVR491XQGLZ2K75CYNBD7ATS", "dateTime": 1516295187185}, {"current_trial": 9, "trialdata": {"rt": [5367, 10406, 14639], "trial_type": "math-distractor", "key_times": [2503, 2678, 5367, 9231, 9375, 10406, 13719, 13918, 14639], "responses": ["19", "16", "14"], "num2": [1, 4, 3, 3], "num3": [9, 5, 2, 4], "conditions": [18, 1200, "a", 18000], "internal_node_id": "0.0-9.0", "key_presses": [97, 105, 13, 97, 102, 13, 97, 100, 13], "trial": 0, "time_elapsed": 232512, "type": "DISTRACTOR", "trial_index": 9, "num1": [9, 7, 9, 9]}, "uniqueid": "MTK1766:3WSELTNVR491XQGLZ2K75CYNBD7ATS", "dateTime": 1516295206203}, {"current_trial": 10, "trialdata": {"rt": -1, "trial_type": "single-stim", "stimulus": "<p id=\"stim\">10</p>", "internal_node_id": "0.0-10.0-0.0", "time_elapsed": 235519, "key_press": -1, "trial_index": 10}, "uniqueid": "MTK1766:3WSELTNVR491XQGLZ2K75CYNBD7ATS", "dateTime": 1516295209210}, {"current_trial": 11, "trialdata": {"rt": -1, "trial_type": "single-stim", "stimulus": "<p id=\"stim\">9</p>", "internal_node_id": "0.0-10.0-1.0", "time_elapsed": 236523, "key_press": -1, "trial_index": 11}, "uniqueid": "MTK1766:3WSELTNVR491XQGLZ2K75CYNBD7ATS", "dateTime": 1516295210218}, {"current_trial": 12, "trialdata": {"rt": -1, "trial_type": "single-stim", "stimulus": "<p id=\"stim\">8</p>", "internal_node_id": "0.0-10.0-2.0", "time_elapsed": 237529, "key_press": -1, "trial_index": 12}, "uniqueid": "MTK1766:3WSELTNVR491XQGLZ2K75CYNBD7ATS", "dateTime": 1516295211220}, {"current_trial": 13, "trialdata": {"rt": -1, "trial_type": "single-stim", "stimulus": "<p id=\"stim\">7</p>", "internal_node_id": "0.0-10.0-3.0", "time_elapsed": 238530, "key_press": -1, "trial_index": 13}, "uniqueid": "MTK1766:3WSELTNVR491XQGLZ2K75CYNBD7ATS", "dateTime": 1516295212221}, {"current_trial": 14, "trialdata": {"rt": -1, "trial_type": "single-stim", "stimulus": "<p id=\"stim\">6</p>", "internal_node_id": "0.0-10.0-4.0", "time_elapsed": 239531, "key_press": -1, "trial_index": 14}, "uniqueid": "MTK1766:3WSELTNVR491XQGLZ2K75CYNBD7ATS", "dateTime": 1516295213222}, {"current_trial": 15, "trialdata": {"rt": -1, "trial_type": "single-stim", "stimulus": "<p id=\"stim\">5</p>", "internal_node_id": "0.0-10.0-5.0", "time_elapsed": 240531, "key_press": -1, "trial_index": 15}, "uniqueid": "MTK1766:3WSELTNVR491XQGLZ2K75CYNBD7ATS", "dateTime": 1516295214222}, {"current_trial": 16, "trialdata": {"rt": -1, "trial_type": "single-stim", "stimulus": "<p id=\"stim\">4</p>", "internal_node_id": "0.0-10.0-6.0", "time_elapsed": 241532, "key_press": -1, "trial_index": 16}, "uniqueid": "MTK1766:3WSELTNVR491XQGLZ2K75CYNBD7ATS", "dateTime": 1516295215223}, {"current_trial": 17, "trialdata": {"rt": -1, "trial_type": "single-stim", "stimulus": "<p id=\"stim\">3</p>", "internal_node_id": "0.0-10.0-7.0", "time_elapsed": 242534, "key_press": -1, "trial_index": 17}, "uniqueid": "MTK1766:3WSELTNVR491XQGLZ2K75CYNBD7ATS", "dateTime": 1516295216225}, {"current_trial": 18, "trialdata": {"rt": -1, "trial_type": "single-stim", "stimulus": "<p id=\"stim\">2</p>", "internal_node_id": "0.0-10.0-8.0", "time_elapsed": 243535, "key_press": -1, "trial_index": 18}, "uniqueid": "MTK1766:3WSELTNVR491XQGLZ2K75CYNBD7ATS", "dateTime": 1516295217226}, {"current_trial": 19, "trialdata": {"rt": -1, "trial_type": "single-stim", "stimulus": "<p id=\"stim\">1</p>", "internal_node_id": "0.0-10.0-9.0", "time_elapsed": 244537, "key_press": -1, "trial_index": 19}, "uniqueid": "MTK1766:3WSELTNVR491XQGLZ2K75CYNBD7ATS", "dateTime": 1516295218228}, {"current_trial": 20, "trialdata": {"rt": -1, "trial_type": "single-stim", "stimulus": "<p id=\"stim\">+</p>", "internal_node_id": "0.0-11.0-0.0", "time_elapsed": 246038, "key_press": -1, "type": "FIXATION", "trial_index": 20}, "uniqueid": "MTK1766:3WSELTNVR491XQGLZ2K75CYNBD7ATS", "dateTime": 1516295219729}, {"current_trial": 21, "trialdata": {"rt": -1000, "trial_type": "single-audio", "word": "necklace", "stimulus": "/static/audio/wordpool/NECKLACE.wav", "conditions": [18, 1200, "a", 18000], "internal_node_id": "0.0-12.0", "trial": 0, "time_elapsed": 248335, "serialpos": 0, "key_press": -1, "wordID": 939, "type": "PRES_AUD", "trial_index": 21}, "uniqueid": "MTK1766:3WSELTNVR491XQGLZ2K75CYNBD7ATS", "dateTime": 1516295222026}, {"current_trial": 22, "trialdata": {"rt": -1000, "trial_type": "single-audio", "word": "lamp", "stimulus": "/static/audio/wordpool/LAMP.wav", "conditions": [18, 1200, "a", 18000], "internal_node_id": "0.0-13.0", "trial": 0, "time_elapsed": 250507, "serialpos": 1, "key_press": -1, "wordID": 797, "type": "PRES_AUD", "trial_index": 22}, "uniqueid": "MTK1766:3WSELTNVR491XQGLZ2K75CYNBD7ATS", "dateTime": 1516295224198}, {"current_trial": 23, "trialdata": {"rt": -1000, "trial_type": "single-audio", "word": "plaster", "stimulus": "/static/audio/wordpool/PLASTER.wav", "conditions": [18, 1200, "a", 18000], "internal_node_id": "0.0-14.0", "trial": 0, "time_elapsed": 252540, "serialpos": 2, "key_press": -1, "wordID": 1084, "type": "PRES_AUD", "trial_index": 23}, "uniqueid": "MTK1766:3WSELTNVR491XQGLZ2K75CYNBD7ATS", "dateTime": 1516295226231}, {"current_trial": 24, "trialdata": {"rt": -1000, "trial_type": "single-audio", "word": "gift", "stimulus": "/static/audio/wordpool/GIFT.wav", "conditions": [18, 1200, "a", 18000], "internal_node_id": "0.0-15.0", "trial": 0, "time_elapsed": 254559, "serialpos": 3, "key_press": -1, "wordID": 634, "type": "PRES_AUD", "trial_index": 24}, "uniqueid": "MTK1766:3WSELTNVR491XQGLZ2K75CYNBD7ATS", "dateTime": 1516295228250}, {"current_trial": 25, "trialdata": {"rt": -1000, "trial_type": "single-audio", "word": "smog", "stimulus": "/static/audio/wordpool/SMOG.wav", "conditions": [18, 1200, "a", 18000], "internal_node_id": "0.0-16.0", "trial": 0, "time_elapsed": 256930, "serialpos": 4, "key_press": -1, "wordID": 1329, "type": "PRES_AUD", "trial_index": 25}, "uniqueid": "MTK1766:3WSELTNVR491XQGLZ2K75CYNBD7ATS", "dateTime": 1516295230621}, {"current_trial": 26, "trialdata": {"rt": -1000, "trial_type": "single-audio", "word": "luggage", "stimulus": "/static/audio/wordpool/LUGGAGE.wav", "conditions": [18, 1200, "a", 18000], "internal_node_id": "0.0-17.0", "trial": 0, "time_elapsed": 259236, "serialpos": 5, "key_press": -1, "wordID": 846, "type": "PRES_AUD", "trial_index": 26}, "uniqueid": "MTK1766:3WSELTNVR491XQGLZ2K75CYNBD7ATS", "dateTime": 1516295232927}, {"current_trial": 27, "trialdata": {"rt": -1000, "trial_type": "single-audio", "word": "sibling", "stimulus": "/static/audio/wordpool/SIBLING.wav", "conditions": [18, 1200, "a", 18000], "internal_node_id": "0.0-18.0", "trial": 0, "time_elapsed": 261244, "serialpos": 6, "key_press": -1, "wordID": 1300, "type": "PRES_AUD", "trial_index": 27}, "uniqueid": "MTK1766:3WSELTNVR491XQGLZ2K75CYNBD7ATS", "dateTime": 1516295234935}, {"current_trial": 28, "trialdata": {"rt": -1000, "trial_type": "single-audio", "word": "princess", "stimulus": "/static/audio/wordpool/PRINCESS.wav", "conditions": [18, 1200, "a", 18000], "internal_node_id": "0.0-19.0", "trial": 0, "time_elapsed": 263614, "serialpos": 7, "key_press": -1, "wordID": 1124, "type": "PRES_AUD", "trial_index": 28}, "uniqueid": "MTK1766:3WSELTNVR491XQGLZ2K75CYNBD7ATS", "dateTime": 1516295237306}, {"current_trial": 29, "trialdata": {"rt": -1000, "trial_type": "single-audio", "word": "climber", "stimulus": "/static/audio/wordpool/CLIMBER.wav", "conditions": [18, 1200, "a", 18000], "internal_node_id": "0.0-20.0", "trial": 0, "time_elapsed": 265950, "serialpos": 8, "key_press": -1, "wordID": 322, "type": "PRES_AUD", "trial_index": 29}, "uniqueid": "MTK1766:3WSELTNVR491XQGLZ2K75CYNBD7ATS", "dateTime": 1516295239641}, {"current_trial": 30, "trialdata": {"rt": -1000, "trial_type": "single-audio", "word": "contract", "stimulus": "/static/audio/wordpool/CONTRACT.wav", "conditions": [18, 1200, "a", 18000], "internal_node_id": "0.0-21.0", "trial": 0, "time_elapsed": 267967, "serialpos": 9, "key_press": -1, "wordID": 367, "type": "PRES_AUD", "trial_index": 30}, "uniqueid": "MTK1766:3WSELTNVR491XQGLZ2K75CYNBD7ATS", "dateTime": 1516295241659}, {"current_trial": 31, "trialdata": {"rt": -1000, "trial_type": "single-audio", "word": "wasp", "stimulus": "/static/audio/wordpool/WASP.wav", "conditions": [18, 1200, "a", 18000], "internal_node_id": "0.0-22.0", "trial": 0, "time_elapsed": 270106, "serialpos": 10, "key_press": -1, "wordID": 1592, "type": "PRES_AUD", "trial_index": 31}, "uniqueid": "MTK1766:3WSELTNVR491XQGLZ2K75CYNBD7ATS", "dateTime": 1516295243797}, {"current_trial": 32, "trialdata": {"rt": -1000, "trial_type": "single-audio", "word": "hedge", "stimulus": "/static/audio/wordpool/HEDGE.wav", "conditions": [18, 1200, "a", 18000], "internal_node_id": "0.0-23.0", "trial": 0, "time_elapsed": 272218, "serialpos": 11, "key_press": -1, "wordID": 698, "type": "PRES_AUD", "trial_index": 32}, "uniqueid": "MTK1766:3WSELTNVR491XQGLZ2K75CYNBD7ATS", "dateTime": 1516295245909}, {"current_trial": 33, "trialdata": {"rt": -1000, "trial_type": "single-audio", "word": "gangster", "stimulus": "/static/audio/wordpool/GANGSTER.wav", "conditions": [18, 1200, "a", 18000], "internal_node_id": "0.0-24.0", "trial": 0, "time_elapsed": 274341, "serialpos": 12, "key_press": -1, "wordID": 619, "type": "PRES_AUD", "trial_index": 33}, "uniqueid": "MTK1766:3WSELTNVR491XQGLZ2K75CYNBD7ATS", "dateTime": 1516295248032}, {"current_trial": 34, "trialdata": {"rt": -1000, "trial_type": "single-audio", "word": "critic", "stimulus": "/static/audio/wordpool/CRITIC.wav", "conditions": [18, 1200, "a", 18000], "internal_node_id": "0.0-25.0", "trial": 0, "time_elapsed": 276616, "serialpos": 13, "key_press": -1, "wordID": 409, "type": "PRES_AUD", "trial_index": 34}, "uniqueid": "MTK1766:3WSELTNVR491XQGLZ2K75CYNBD7ATS", "dateTime": 1516295250307}, {"current_trial": 35, "trialdata": {"rt": -1000, "trial_type": "single-audio", "word": "banker", "stimulus": "/static/audio/wordpool/BANKER.wav", "conditions": [18, 1200, "a", 18000], "internal_node_id": "0.0-26.0", "trial": 0, "time_elapsed": 278697, "serialpos": 14, "key_press": -1, "wordID": 83, "type": "PRES_AUD", "trial_index": 35}, "uniqueid": "MTK1766:3WSELTNVR491XQGLZ2K75CYNBD7ATS", "dateTime": 1516295252389}, {"current_trial": 36, "trialdata": {"rt": -1000, "trial_type": "single-audio", "word": "hawk", "stimulus": "/static/audio/wordpool/HAWK.wav", "conditions": [18, 1200, "a", 18000], "internal_node_id": "0.0-27.0", "trial": 0, "time_elapsed": 281070, "serialpos": 15, "key_press": -1, "wordID": 691, "type": "PRES_AUD", "trial_index": 36}, "uniqueid": "MTK1766:3WSELTNVR491XQGLZ2K75CYNBD7ATS", "dateTime": 1516295254761}, {"current_trial": 37, "trialdata": {"rt": -1000, "trial_type": "single-audio", "word": "muffin", "stimulus": "/static/audio/wordpool/MUFFIN.wav", "conditions": [18, 1200, "a", 18000], "internal_node_id": "0.0-28.0", "trial": 0, "time_elapsed": 283316, "serialpos": 16, "key_press": -1, "wordID": 928, "type": "PRES_AUD", "trial_index": 37}, "uniqueid": "MTK1766:3WSELTNVR491XQGLZ2K75CYNBD7ATS", "dateTime": 1516295257007}, {"current_trial": 38, "trialdata": {"rt": -1000, "trial_type": "single-audio", "word": "fragrance", "stimulus": "/static/audio/wordpool/FRAGRANCE.wav", "conditions": [18, 1200, "a", 18000], "internal_node_id": "0.0-29.0", "trial": 0, "time_elapsed": 285701, "serialpos": 17, "key_press": -1, "wordID": 598, "type": "PRES_AUD", "trial_index": 38}, "uniqueid": "MTK1766:3WSELTNVR491XQGLZ2K75CYNBD7ATS", "dateTime": 1516295259392}, {"current_trial": 39, "trialdata": {"rt": -1, "trial_type": "single-stim", "stimulus": "", "internal_node_id": "0.0-30.0-0.0", "time_elapsed": 286963, "key_press": -1, "type": "PRE_RECALL_DELAY", "trial_index": 39}, "uniqueid": "MTK1766:3WSELTNVR491XQGLZ2K75CYNBD7ATS", "dateTime": 1516295260654}, {"current_trial": 40, "trialdata": {"rt": -1000, "trial_type": "single-audio", "stimulus": "/static/audio/400Hz.wav", "internal_node_id": "0.0-31.0", "time_elapsed": 287464, "key_press": -1, "type": "PRE_RECALL_ALERT", "trial_index": 40}, "uniqueid": "MTK1766:3WSELTNVR491XQGLZ2K75CYNBD7ATS", "dateTime": 1516295261155}, {"current_trial": 41, "trialdata": {"rt": [4788, 8380, 9956, 11764, 49309], "recwords": ["fragrance", "imposter", "gift", "hawk", "luggage"], "key_times": [2181, 2385, 2589, 3043, 3260, 3424, 3507, 3683, 3908, 4788, 6588, 6748, 6923, 7204, 7532, 7708, 7867, 7956, 8380, 9156, 9244, 9357, 9517, 9956, 10484, 10604, 10788, 10972, 11764, 47622, 47830, 47981, 48126, 48318, 48590, 49014, 49309], "trial_type": "free-recall", "conditions": [18, 1200, "a", 18000], "internal_node_id": "0.0-32.0-0.0", "key_presses": [70, 82, 65, 71, 82, 65, 78, 67, 69, 13, 73, 77, 80, 79, 83, 84, 69, 82, 13, 71, 73, 70, 84, 13, 72, 65, 87, 75, 13, 76, 85, 71, 71, 65, 71, 69, 13], "trial": 0, "time_elapsed": 347470, "type": "FREE_RECALL", "trial_index": 41}, "uniqueid": "MTK1766:3WSELTNVR491XQGLZ2K75CYNBD7ATS", "dateTime": 1516295321162}, {"current_trial": 42, "trialdata": {"rt": 46826, "trial_type": "text", "internal_node_id": "0.0-33.0", "time_elapsed": 396297, "key_press": 32, "type": "INSTRUCTIONS", "trial_index": 42}, "uniqueid": "MTK1766:3WSELTNVR491XQGLZ2K75CYNBD7ATS", "dateTime": 1516295369988}, {"current_trial": 43, "trialdata": {"rt": [3421, 6933, 10709, 13237, 17293], "trial_type": "math-distractor", "key_times": [2925, 3061, 3421, 6372, 6556, 6933, 9902, 10421, 10709, 12781, 12925, 13237, 16929, 17077, 17293], "responses": ["18", "17", "13", "15", "22"], "num2": [8, 6, 4, 5, 6, 6], "num3": [6, 4, 7, 6, 9, 4], "conditions": [18, 1200, "a", 18000], "internal_node_id": "0.0-34.0", "key_presses": [97, 104, 13, 97, 103, 13, 97, 99, 13, 97, 101, 13, 98, 98, 13], "trial": 1, "time_elapsed": 416300, "type": "DISTRACTOR", "trial_index": 43, "num1": [4, 7, 2, 4, 7, 6]}, "uniqueid": "MTK1766:3WSELTNVR491XQGLZ2K75CYNBD7ATS", "dateTime": 1516295389991}, {"current_trial": 44, "trialdata": {"rt": -1, "trial_type": "single-stim", "stimulus": "<p id=\"stim\">10</p>", "internal_node_id": "0.0-35.0-0.0", "time_elapsed": 419304, "key_press": -1, "trial_index": 44}, "uniqueid": "MTK1766:3WSELTNVR491XQGLZ2K75CYNBD7ATS", "dateTime": 1516295392995}, {"current_trial": 45, "trialdata": {"rt": -1, "trial_type": "single-stim", "stimulus": "<p id=\"stim\">9</p>", "internal_node_id": "0.0-35.0-1.0", "time_elapsed": 420304, "key_press": -1, "trial_index": 45}, "uniqueid": "MTK1766:3WSELTNVR491XQGLZ2K75CYNBD7ATS", "dateTime": 1516295393995}, {"current_trial": 46, "trialdata": {"rt": -1, "trial_type": "single-stim", "stimulus": "<p id=\"stim\">8</p>", "internal_node_id": "0.0-35.0-2.0", "time_elapsed": 421304, "key_press": -1, "trial_index": 46}, "uniqueid": "MTK1766:3WSELTNVR491XQGLZ2K75CYNBD7ATS", "dateTime": 1516295394995}, {"current_trial": 47, "trialdata": {"rt": -1, "trial_type": "single-stim", "stimulus": "<p id=\"stim\">7</p>", "internal_node_id": "0.0-35.0-3.0", "time_elapsed": 422305, "key_press": -1, "trial_index": 47}, "uniqueid": "MTK1766:3WSELTNVR491XQGLZ2K75CYNBD7ATS", "dateTime": 1516295395996}, {"current_trial": 48, "trialdata": {"rt": -1, "trial_type": "single-stim", "stimulus": "<p id=\"stim\">6</p>", "internal_node_id": "0.0-35.0-4.0", "time_elapsed": 423306, "key_press": -1, "trial_index": 48}, "uniqueid": "MTK1766:3WSELTNVR491XQGLZ2K75CYNBD7ATS", "dateTime": 1516295396997}, {"current_trial": 49, "trialdata": {"rt": -1, "trial_type": "single-stim", "stimulus": "<p id=\"stim\">5</p>", "internal_node_id": "0.0-35.0-5.0", "time_elapsed": 424307, "key_press": -1, "trial_index": 49}, "uniqueid": "MTK1766:3WSELTNVR491XQGLZ2K75CYNBD7ATS", "dateTime": 1516295397998}, {"current_trial": 50, "trialdata": {"rt": -1, "trial_type": "single-stim", "stimulus": "<p id=\"stim\">4</p>", "internal_node_id": "0.0-35.0-6.0", "time_elapsed": 425309, "key_press": -1, "trial_index": 50}, "uniqueid": "MTK1766:3WSELTNVR491XQGLZ2K75CYNBD7ATS", "dateTime": 1516295399000}, {"current_trial": 51, "trialdata": {"rt": -1, "trial_type": "single-stim", "stimulus": "<p id=\"stim\">3</p>", "internal_node_id": "0.0-35.0-7.0", "time_elapsed": 426309, "key_press": -1, "trial_index": 51}, "uniqueid": "MTK1766:3WSELTNVR491XQGLZ2K75CYNBD7ATS", "dateTime": 1516295400000}, {"current_trial": 52, "trialdata": {"rt": -1, "trial_type": "single-stim", "stimulus": "<p id=\"stim\">2</p>", "internal_node_id": "0.0-35.0-8.0", "time_elapsed": 427310, "key_press": -1, "trial_index": 52}, "uniqueid": "MTK1766:3WSELTNVR491XQGLZ2K75CYNBD7ATS", "dateTime": 1516295401001}, {"current_trial": 53, "trialdata": {"rt": -1, "trial_type": "single-stim", "stimulus": "<p id=\"stim\">1</p>", "internal_node_id": "0.0-35.0-9.0", "time_elapsed": 428310, "key_press": -1, "trial_index": 53}, "uniqueid": "MTK1766:3WSELTNVR491XQGLZ2K75CYNBD7ATS", "dateTime": 1516295402003}, {"current_trial": 54, "trialdata": {"rt": -1, "trial_type": "single-stim", "stimulus": "<p id=\"stim\">+</p>", "internal_node_id": "0.0-36.0-0.0", "time_elapsed": 429813, "key_press": -1, "type": "FIXATION", "trial_index": 54}, "uniqueid": "MTK1766:3WSELTNVR491XQGLZ2K75CYNBD7ATS", "dateTime": 1516295403504}, {"current_trial": 55, "trialdata": {"rt": -1000, "trial_type": "single-audio", "word": "maple", "stimulus": "/static/audio/wordpool/MAPLE.wav", "conditions": [18, 1200, "a", 18000], "internal_node_id": "0.0-37.0", "trial": 1, "time_elapsed": 431991, "serialpos": 0, "key_press": -1, "wordID": 865, "type": "PRES_AUD", "trial_index": 55}, "uniqueid": "MTK1766:3WSELTNVR491XQGLZ2K75CYNBD7ATS", "dateTime": 1516295405682}, {"current_trial": 56, "trialdata": {"rt": -1000, "trial_type": "single-audio", "word": "grill", "stimulus": "/static/audio/wordpool/GRILL.wav", "conditions": [18, 1200, "a", 18000], "internal_node_id": "0.0-38.0", "trial": 1, "time_elapsed": 434083, "serialpos": 1, "key_press": -1, "wordID": 660, "type": "PRES_AUD", "trial_index": 56}, "uniqueid": "MTK1766:3WSELTNVR491XQGLZ2K75CYNBD7ATS", "dateTime": 1516295407774}, {"current_trial": 57, "trialdata": {"rt": -1000, "trial_type": "single-audio", "word": "bureau", "stimulus": "/static/audio/wordpool/BUREAU.wav", "conditions": [18, 1200, "a", 18000], "internal_node_id": "0.0-39.0", "trial": 1, "time_elapsed": 436433, "serialpos": 2, "key_press": -1, "wordID": 198, "type": "PRES_AUD", "trial_index": 57}, "uniqueid": "MTK1766:3WSELTNVR491XQGLZ2K75CYNBD7ATS", "dateTime": 1516295410124}, {"current_trial": 58, "trialdata": {"rt": -1000, "trial_type": "single-audio", "word": "sparrow", "stimulus": "/static/audio/wordpool/SPARROW.wav", "conditions": [18, 1200, "a", 18000], "internal_node_id": "0.0-40.0", "trial": 1, "time_elapsed": 438760, "serialpos": 3, "key_press": -1, "wordID": 1346, "type": "PRES_AUD", "trial_index": 58}, "uniqueid": "MTK1766:3WSELTNVR491XQGLZ2K75CYNBD7ATS", "dateTime": 1516295412451}, {"current_trial": 59, "trialdata": {"rt": -1000, "trial_type": "single-audio", "word": "shorts", "stimulus": "/static/audio/wordpool/SHORTS.wav", "conditions": [18, 1200, "a", 18000], "internal_node_id": "0.0-41.0", "trial": 1, "time_elapsed": 440801, "serialpos": 4, "key_press": -1, "wordID": 1292, "type": "PRES_AUD", "trial_index": 59}, "uniqueid": "MTK1766:3WSELTNVR491XQGLZ2K75CYNBD7ATS", "dateTime": 1516295414494}, {"current_trial": 60, "trialdata": {"rt": -1000, "trial_type": "single-audio", "word": "shark", "stimulus": "/static/audio/wordpool/SHARK.wav", "conditions": [18, 1200, "a", 18000], "internal_node_id": "0.0-42.0", "trial": 1, "time_elapsed": 442983, "serialpos": 5, "key_press": -1, "wordID": 1274, "type": "PRES_AUD", "trial_index": 60}, "uniqueid": "MTK1766:3WSELTNVR491XQGLZ2K75CYNBD7ATS", "dateTime": 1516295416675}, {"current_trial": 61, "trialdata": {"rt": -1000, "trial_type": "single-audio", "word": "passage", "stimulus": "/static/audio/wordpool/PASSAGE.wav", "conditions": [18, 1200, "a", 18000], "internal_node_id": "0.0-43.0", "trial": 1, "time_elapsed": 445194, "serialpos": 6, "key_press": -1, "wordID": 1018, "type": "PRES_AUD", "trial_index": 61}, "uniqueid": "MTK1766:3WSELTNVR491XQGLZ2K75CYNBD7ATS", "dateTime": 1516295418886}, {"current_trial": 62, "trialdata": {"rt": -1000, "trial_type": "single-audio", "word": "fireman", "stimulus": "/static/audio/wordpool/FIREMAN.wav", "conditions": [18, 1200, "a", 18000], "internal_node_id": "0.0-44.0", "trial": 1, "time_elapsed": 447522, "serialpos": 7, "key_press": -1, "wordID": 568, "type": "PRES_AUD", "trial_index": 62}, "uniqueid": "MTK1766:3WSELTNVR491XQGLZ2K75CYNBD7ATS", "dateTime": 1516295421214}, {"current_trial": 63, "trialdata": {"rt": -1000, "trial_type": "single-audio", "word": "slime", "stimulus": "/static/audio/wordpool/SLIME.wav", "conditions": [18, 1200, "a", 18000], "internal_node_id": "0.0-45.0", "trial": 1, "time_elapsed": 449611, "serialpos": 8, "key_press": -1, "wordID": 1326, "type": "PRES_AUD", "trial_index": 63}, "uniqueid": "MTK1766:3WSELTNVR491XQGLZ2K75CYNBD7ATS", "dateTime": 1516295423302}, {"current_trial": 64, "trialdata": {"rt": -1000, "trial_type": "single-audio", "word": "denim", "stimulus": "/static/audio/wordpool/DENIM.wav", "conditions": [18, 1200, "a", 18000], "internal_node_id": "0.0-46.0", "trial": 1, "time_elapsed": 451942, "serialpos": 9, "key_press": -1, "wordID": 445, "type": "PRES_AUD", "trial_index": 64}, "uniqueid": "MTK1766:3WSELTNVR491XQGLZ2K75CYNBD7ATS", "dateTime": 1516295425633}, {"current_trial": 65, "trialdata": {"rt": -1000, "trial_type": "single-audio", "word": "tweezers", "stimulus": "/static/audio/wordpool/TWEEZERS.wav", "conditions": [18, 1200, "a", 18000], "internal_node_id": "0.0-47.0", "trial": 1, "time_elapsed": 454266, "serialpos": 10, "key_press": -1, "wordID": 1525, "type": "PRES_AUD", "trial_index": 65}, "uniqueid": "MTK1766:3WSELTNVR491XQGLZ2K75CYNBD7ATS", "dateTime": 1516295427957}, {"current_trial": 66, "trialdata": {"rt": -1000, "trial_type": "single-audio", "word": "peanut", "stimulus": "/static/audio/wordpool/PEANUT.wav", "conditions": [18, 1200, "a", 18000], "internal_node_id": "0.0-48.0", "trial": 1, "time_elapsed": 456583, "serialpos": 11, "key_press": -1, "wordID": 1031, "type": "PRES_AUD", "trial_index": 66}, "uniqueid": "MTK1766:3WSELTNVR491XQGLZ2K75CYNBD7ATS", "dateTime": 1516295430274}, {"current_trial": 67, "trialdata": {"rt": -1000, "trial_type": "single-audio", "word": "lapel", "stimulus": "/static/audio/wordpool/LAPEL.wav", "conditions": [18, 1200, "a", 18000], "internal_node_id": "0.0-49.0", "trial": 1, "time_elapsed": 458738, "serialpos": 12, "key_press": -1, "wordID": 799, "type": "PRES_AUD", "trial_index": 67}, "uniqueid": "MTK1766:3WSELTNVR491XQGLZ2K75CYNBD7ATS", "dateTime": 1516295432429}, {"current_trial": 68, "trialdata": {"rt": -1000, "trial_type": "single-audio", "word": "ketchup", "stimulus": "/static/audio/wordpool/KETCHUP.wav", "conditions": [18, 1200, "a", 18000], "internal_node_id": "0.0-50.0", "trial": 1, "time_elapsed": 460831, "serialpos": 13, "key_press": -1, "wordID": 770, "type": "PRES_AUD", "trial_index": 68}, "uniqueid": "MTK1766:3WSELTNVR491XQGLZ2K75CYNBD7ATS", "dateTime": 1516295434524}, {"current_trial": 69, "trialdata": {"rt": -1000, "trial_type": "single-audio", "word": "sausage", "stimulus": "/static/audio/wordpool/SAUSAGE.wav", "conditions": [18, 1200, "a", 18000], "internal_node_id": "0.0-51.0", "trial": 1, "time_elapsed": 463158, "serialpos": 14, "key_press": -1, "wordID": 1237, "type": "PRES_AUD", "trial_index": 69}, "uniqueid": "MTK1766:3WSELTNVR491XQGLZ2K75CYNBD7ATS", "dateTime": 1516295436849}, {"current_trial": 70, "trialdata": {"rt": -1000, "trial_type": "single-audio", "word": "yacht", "stimulus": "/static/audio/wordpool/YACHT.wav", "conditions": [18, 1200, "a", 18000], "internal_node_id": "0.0-52.0", "trial": 1, "time_elapsed": 465535, "serialpos": 15, "key_press": -1, "wordID": 1628, "type": "PRES_AUD", "trial_index": 70}, "uniqueid": "MTK1766:3WSELTNVR491XQGLZ2K75CYNBD7ATS", "dateTime": 1516295439226}, {"current_trial": 71, "trialdata": {"rt": -1000, "trial_type": "single-audio", "word": "canal", "stimulus": "/static/audio/wordpool/CANAL.wav", "conditions": [18, 1200, "a", 18000], "internal_node_id": "0.0-53.0", "trial": 1, "time_elapsed": 467800, "serialpos": 16, "key_press": -1, "wordID": 225, "type": "PRES_AUD", "trial_index": 71}, "uniqueid": "MTK1766:3WSELTNVR491XQGLZ2K75CYNBD7ATS", "dateTime": 1516295441491}, {"current_trial": 72, "trialdata": {"rt": -1000, "trial_type": "single-audio", "word": "blade", "stimulus": "/static/audio/wordpool/BLADE.wav", "conditions": [18, 1200, "a", 18000], "internal_node_id": "0.0-54.0", "trial": 1, "time_elapsed": 469931, "serialpos": 17, "key_press": -1, "wordID": 133, "type": "PRES_AUD", "trial_index": 72}, "uniqueid": "MTK1766:3WSELTNVR491XQGLZ2K75CYNBD7ATS", "dateTime": 1516295443622}, {"current_trial": 73, "trialdata": {"rt": -1, "trial_type": "single-stim", "stimulus": "", "internal_node_id": "0.0-55.0-0.0", "time_elapsed": 471172, "key_press": -1, "type": "PRE_RECALL_DELAY", "trial_index": 73}, "uniqueid": "MTK1766:3WSELTNVR491XQGLZ2K75CYNBD7ATS", "dateTime": 1516295444863}, {"current_trial": 74, "trialdata": {"rt": -1000, "trial_type": "single-audio", "stimulus": "/static/audio/400Hz.wav", "internal_node_id": "0.0-56.0", "time_elapsed": 471672, "key_press": -1, "type": "PRE_RECALL_ALERT", "trial_index": 74}, "uniqueid": "MTK1766:3WSELTNVR491XQGLZ2K75CYNBD7ATS", "dateTime": 1516295445364}, {"current_trial": 75, "trialdata": {"rt": [3359, 5727, 8559, 11079, 14367, 33800], "recwords": ["blade", "canal", "yacht", "sausage", "denim", "passage"], "key_times": [2087, 2279, 2494, 2688, 2838, 3359, 4566, 4750, 4879, 5015, 5335, 5727, 6327, 6815, 7046, 7486, 7944, 8559, 9119, 9393, 9438, 9566, 9742, 9947, 10135, 11079, 12791, 12930, 13089, 13319, 13591, 14367, 32368, 32559, 32768, 32944, 33151, 33320, 33471, 33800, 57304, 57759, 58064, 58895, 59055, 59295, 59535, 59872], "trial_type": "free-recall", "conditions": [18, 1200, "a", 18000], "internal_node_id": "0.0-57.0-0.0", "key_presses": [66, 76, 65, 68, 69, 13, 67, 65, 78, 65, 76, 13, 89, 65, 67, 72, 84, 13, 83, 65, 85, 83, 65, 71, 69, 13, 68, 69, 78, 73, 77, 13, 80, 65, 83, 83, 65, 71, 69, 13, 66, 85, 69, 8, 82, 69, 65, 85], "trial": 1, "time_elapsed": 531676, "type": "FREE_RECALL", "trial_index": 75}, "uniqueid": "MTK1766:3WSELTNVR491XQGLZ2K75CYNBD7ATS", "dateTime": 1516295505370}, {"current_trial": 76, "trialdata": {"rt": 2907, "trial_type": "text", "internal_node_id": "0.0-58.0", "time_elapsed": 536588, "key_press": 13, "type": "INSTRUCTIONS", "trial_index": 76}, "uniqueid": "MTK1766:3WSELTNVR491XQGLZ2K75CYNBD7ATS", "dateTime": 1516295510279}, {"current_trial": 77, "trialdata": {"rt": [2686, 4790, 7133, 9326, 13102, 15958, 18521, 20648, 23296], "trial_type": "math-distractor", "key_times": [2246, 2406, 2686, 4286, 4510, 4790, 6686, 6878, 7133, 8926, 9078, 9326, 12519, 12930, 13102, 15614, 15758, 15958, 18160, 18320, 18521, 20248, 20416, 20648, 22841, 23056, 23296], "responses": ["10", "14", "13", "12", "22", "21", "13", "13", "12"], "num2": [4, 3, 5, 1, 9, 8, 2, 4, 3, 2], "num3": [2, 4, 6, 8, 6, 5, 6, 1, 1, 5], "conditions": [24, 800, "a", 24000], "internal_node_id": "0.0-59.0", "key_presses": [97, 96, 13, 97, 100, 13, 97, 99, 13, 97, 98, 13, 98, 98, 13, 98, 97, 13, 97, 99, 13, 97, 99, 13, 97, 98, 13], "trial": 2, "time_elapsed": 561591, "type": "DISTRACTOR", "trial_index": 77, "num1": [4, 7, 2, 3, 7, 8, 5, 8, 8, 8]}, "uniqueid": "MTK1766:3WSELTNVR491XQGLZ2K75CYNBD7ATS", "dateTime": 1516295535283}, {"current_trial": 78, "trialdata": {"rt": -1, "trial_type": "single-stim", "stimulus": "<p id=\"stim\">10</p>", "internal_node_id": "0.0-60.0-0.0", "time_elapsed": 564608, "key_press": -1, "trial_index": 78}, "uniqueid": "MTK1766:3WSELTNVR491XQGLZ2K75CYNBD7ATS", "dateTime": 1516295538299}, {"current_trial": 79, "trialdata": {"rt": -1, "trial_type": "single-stim", "stimulus": "<p id=\"stim\">9</p>", "internal_node_id": "0.0-60.0-1.0", "time_elapsed": 565616, "key_press": -1, "trial_index": 79}, "uniqueid": "MTK1766:3WSELTNVR491XQGLZ2K75CYNBD7ATS", "dateTime": 1516295539307}, {"current_trial": 80, "trialdata": {"rt": -1, "trial_type": "single-stim", "stimulus": "<p id=\"stim\">8</p>", "internal_node_id": "0.0-60.0-2.0", "time_elapsed": 566630, "key_press": -1, "trial_index": 80}, "uniqueid": "MTK1766:3WSELTNVR491XQGLZ2K75CYNBD7ATS", "dateTime": 1516295540321}, {"current_trial": 81, "trialdata": {"rt": -1, "trial_type": "single-stim", "stimulus": "<p id=\"stim\">7</p>", "internal_node_id": "0.0-60.0-3.0", "time_elapsed": 567631, "key_press": -1, "trial_index": 81}, "uniqueid": "MTK1766:3WSELTNVR491XQGLZ2K75CYNBD7ATS", "dateTime": 1516295541322}, {"current_trial": 82, "trialdata": {"rt": -1, "trial_type": "single-stim", "stimulus": "<p id=\"stim\">6</p>", "internal_node_id": "0.0-60.0-4.0", "time_elapsed": 568632, "key_press": -1, "trial_index": 82}, "uniqueid": "MTK1766:3WSELTNVR491XQGLZ2K75CYNBD7ATS", "dateTime": 1516295542323}, {"current_trial": 83, "trialdata": {"rt": -1, "trial_type": "single-stim", "stimulus": "<p id=\"stim\">5</p>", "internal_node_id": "0.0-60.0-5.0", "time_elapsed": 569632, "key_press": -1, "trial_index": 83}, "uniqueid": "MTK1766:3WSELTNVR491XQGLZ2K75CYNBD7ATS", "dateTime": 1516295543323}, {"current_trial": 84, "trialdata": {"rt": -1, "trial_type": "single-stim", "stimulus": "<p id=\"stim\">4</p>", "internal_node_id": "0.0-60.0-6.0", "time_elapsed": 570646, "key_press": -1, "trial_index": 84}, "uniqueid": "MTK1766:3WSELTNVR491XQGLZ2K75CYNBD7ATS", "dateTime": 1516295544337}, {"current_trial": 85, "trialdata": {"rt": -1, "trial_type": "single-stim", "stimulus": "<p id=\"stim\">3</p>", "internal_node_id": "0.0-60.0-7.0", "time_elapsed": 571647, "key_press": -1, "trial_index": 85}, "uniqueid": "MTK1766:3WSELTNVR491XQGLZ2K75CYNBD7ATS", "dateTime": 1516295545338}, {"current_trial": 86, "trialdata": {"rt": -1, "trial_type": "single-stim", "stimulus": "<p id=\"stim\">2</p>", "internal_node_id": "0.0-60.0-8.0", "time_elapsed": 572647, "key_press": -1, "trial_index": 86}, "uniqueid": "MTK1766:3WSELTNVR491XQGLZ2K75CYNBD7ATS", "dateTime": 1516295546338}, {"current_trial": 87, "trialdata": {"rt": -1, "trial_type": "single-stim", "stimulus": "<p id=\"stim\">1</p>", "internal_node_id": "0.0-60.0-9.0", "time_elapsed": 573649, "key_press": -1, "trial_index": 87}, "uniqueid": "MTK1766:3WSELTNVR491XQGLZ2K75CYNBD7ATS", "dateTime": 1516295547340}, {"current_trial": 88, "trialdata": {"rt": -1, "trial_type": "single-stim", "stimulus": "<p id=\"stim\">+</p>", "internal_node_id": "0.0-61.0-0.0", "time_elapsed": 575150, "key_press": -1, "type": "FIXATION", "trial_index": 88}, "uniqueid": "MTK1766:3WSELTNVR491XQGLZ2K75CYNBD7ATS", "dateTime": 1516295548842}, {"current_trial": 89, "trialdata": {"rt": -1000, "trial_type": "single-audio", "word": "fruit", "stimulus": "/static/audio/wordpool/FRUIT.wav", "conditions": [24, 800, "a", 24000], "internal_node_id": "0.0-62.0", "trial": 2, "time_elapsed": 576996, "serialpos": 0, "key_press": -1, "wordID": 609, "type": "PRES_AUD", "trial_index": 89}, "uniqueid": "MTK1766:3WSELTNVR491XQGLZ2K75CYNBD7ATS", "dateTime": 1516295550687}, {"current_trial": 90, "trialdata": {"rt": -1000, "trial_type": "single-audio", "word": "omelet", "stimulus": "/static/audio/wordpool/OMELET.wav", "conditions": [24, 800, "a", 24000], "internal_node_id": "0.0-63.0", "trial": 2, "time_elapsed": 578901, "serialpos": 1, "key_press": -1, "wordID": 975, "type": "PRES_AUD", "trial_index": 90}, "uniqueid": "MTK1766:3WSELTNVR491XQGLZ2K75CYNBD7ATS", "dateTime": 1516295552592}, {"current_trial": 91, "trialdata": {"rt": -1000, "trial_type": "single-audio", "word": "machine", "stimulus": "/static/audio/wordpool/MACHINE.wav", "conditions": [24, 800, "a", 24000], "internal_node_id": "0.0-64.0", "trial": 2, "time_elapsed": 580536, "serialpos": 2, "key_press": -1, "wordID": 851, "type": "PRES_AUD", "trial_index": 91}, "uniqueid": "MTK1766:3WSELTNVR491XQGLZ2K75CYNBD7ATS", "dateTime": 1516295554228}, {"current_trial": 92, "trialdata": {"rt": -1000, "trial_type": "single-audio", "word": "inmate", "stimulus": "/static/audio/wordpool/INMATE.wav", "conditions": [24, 800, "a", 24000], "internal_node_id": "0.0-65.0", "trial": 2, "time_elapsed": 582330, "serialpos": 3, "key_press": -1, "wordID": 737, "type": "PRES_AUD", "trial_index": 92}, "uniqueid": "MTK1766:3WSELTNVR491XQGLZ2K75CYNBD7ATS", "dateTime": 1516295556021}, {"current_trial": 93, "trialdata": {"rt": -1000, "trial_type": "single-audio", "word": "lunch", "stimulus": "/static/audio/wordpool/LUNCH.wav", "conditions": [24, 800, "a", 24000], "internal_node_id": "0.0-66.0", "trial": 2, "time_elapsed": 583946, "serialpos": 4, "key_press": -1, "wordID": 848, "type": "PRES_AUD", "trial_index": 93}, "uniqueid": "MTK1766:3WSELTNVR491XQGLZ2K75CYNBD7ATS", "dateTime": 1516295557637}, {"current_trial": 94, "trialdata": {"rt": -1000, "trial_type": "single-audio", "word": "nightgown", "stimulus": "/static/audio/wordpool/NIGHTGOWN.wav", "conditions": [24, 800, "a", 24000], "internal_node_id": "0.0-67.0", "trial": 2, "time_elapsed": 585815, "serialpos": 5, "key_press": -1, "wordID": 952, "type": "PRES_AUD", "trial_index": 94}, "uniqueid": "MTK1766:3WSELTNVR491XQGLZ2K75CYNBD7ATS", "dateTime": 1516295559506}, {"current_trial": 95, "trialdata": {"rt": -1000, "trial_type": "single-audio", "word": "message", "stimulus": "/static/audio/wordpool/MESSAGE.wav", "conditions": [24, 800, "a", 24000], "internal_node_id": "0.0-68.0", "trial": 2, "time_elapsed": 587593, "serialpos": 6, "key_press": -1, "wordID": 887, "type": "PRES_AUD", "trial_index": 95}, "uniqueid": "MTK1766:3WSELTNVR491XQGLZ2K75CYNBD7ATS", "dateTime": 1516295561284}, {"current_trial": 96, "trialdata": {"rt": -1000, "trial_type": "single-audio", "word": "arm", "stimulus": "/static/audio/wordpool/ARM.wav", "conditions": [24, 800, "a", 24000], "internal_node_id": "0.0-69.0", "trial": 2, "time_elapsed": 589438, "serialpos": 7, "key_press": -1, "wordID": 37, "type": "PRES_AUD", "trial_index": 96}, "uniqueid": "MTK1766:3WSELTNVR491XQGLZ2K75CYNBD7ATS", "dateTime": 1516295563129}, {"current_trial": 97, "trialdata": {"rt": -1000, "trial_type": "single-audio", "word": "shoulder", "stimulus": "/static/audio/wordpool/SHOULDER.wav", "conditions": [24, 800, "a", 24000], "internal_node_id": "0.0-70.0", "trial": 2, "time_elapsed": 591126, "serialpos": 8, "key_press": -1, "wordID": 1293, "type": "PRES_AUD", "trial_index": 97}, "uniqueid": "MTK1766:3WSELTNVR491XQGLZ2K75CYNBD7ATS", "dateTime": 1516295564817}, {"current_trial": 98, "trialdata": {"rt": -1000, "trial_type": "single-audio", "word": "snack", "stimulus": "/static/audio/wordpool/SNACK.wav", "conditions": [24, 800, "a", 24000], "internal_node_id": "0.0-71.0", "trial": 2, "time_elapsed": 593052, "serialpos": 9, "key_press": -1, "wordID": 1330, "type": "PRES_AUD", "trial_index": 98}, "uniqueid": "MTK1766:3WSELTNVR491XQGLZ2K75CYNBD7ATS", "dateTime": 1516295566743}, {"current_trial": 99, "trialdata": {"rt": -1000, "trial_type": "single-audio", "word": "drink", "stimulus": "/static/audio/wordpool/DRINK.wav", "conditions": [24, 800, "a", 24000], "internal_node_id": "0.0-72.0", "trial": 2, "time_elapsed": 594711, "serialpos": 10, "key_press": -1, "wordID": 497, "type": "PRES_AUD", "trial_index": 99}, "uniqueid": "MTK1766:3WSELTNVR491XQGLZ2K75CYNBD7ATS", "dateTime": 1516295568403}, {"current_trial": 100, "trialdata": {"rt": -1000, "trial_type": "single-audio", "word": "bike", "stimulus": "/static/audio/wordpool/BIKE.wav", "conditions": [24, 800, "a", 24000], "internal_node_id": "0.0-73.0", "trial": 2, "time_elapsed": 596629, "serialpos": 11, "key_press": -1, "wordID": 124, "type": "PRES_AUD", "trial_index": 100}, "uniqueid": "MTK1766:3WSELTNVR491XQGLZ2K75CYNBD7ATS", "dateTime": 1516295570320}, {"current_trial": 101, "trialdata": {"rt": -1000, "trial_type": "single-audio", "word": "sandwich", "stimulus": "/static/audio/wordpool/SANDWICH.wav", "conditions": [24, 800, "a", 24000], "internal_node_id": "0.0-74.0", "trial": 2, "time_elapsed": 598388, "serialpos": 12, "key_press": -1, "wordID": 1231, "type": "PRES_AUD", "trial_index": 101}, "uniqueid": "MTK1766:3WSELTNVR491XQGLZ2K75CYNBD7ATS", "dateTime": 1516295572080}, {"current_trial": 102, "trialdata": {"rt": -1000, "trial_type": "single-audio", "word": "space", "stimulus": "/static/audio/wordpool/SPACE.wav", "conditions": [24, 800, "a", 24000], "internal_node_id": "0.0-75.0", "trial": 2, "time_elapsed": 599993, "serialpos": 13, "key_press": -1, "wordID": 1344, "type": "PRES_AUD", "trial_index": 102}, "uniqueid": "MTK1766:3WSELTNVR491XQGLZ2K75CYNBD7ATS", "dateTime": 1516295573684}, {"current_trial": 103, "trialdata": {"rt": -1000, "trial_type": "single-audio", "word": "doughnut", "stimulus": "/static/audio/wordpool/DOUGHNUT.wav", "conditions": [24, 800, "a", 24000], "internal_node_id": "0.0-76.0", "trial": 2, "time_elapsed": 601724, "serialpos": 14, "key_press": -1, "wordID": 489, "type": "PRES_AUD", "trial_index": 103}, "uniqueid": "MTK1766:3WSELTNVR491XQGLZ2K75CYNBD7ATS", "dateTime": 1516295575416}, {"current_trial": 104, "trialdata": {"rt": -1000, "trial_type": "single-audio", "word": "trombone", "stimulus": "/static/audio/wordpool/TROMBONE.wav", "conditions": [24, 800, "a", 24000], "internal_node_id": "0.0-77.0", "trial": 2, "time_elapsed": 603463, "serialpos": 15, "key_press": -1, "wordID": 1507, "type": "PRES_AUD", "trial_index": 104}, "uniqueid": "MTK1766:3WSELTNVR491XQGLZ2K75CYNBD7ATS", "dateTime": 1516295577156}, {"current_trial": 105, "trialdata": {"rt": -1000, "trial_type": "single-audio", "word": "banquet", "stimulus": "/static/audio/wordpool/BANQUET.wav", "conditions": [24, 800, "a", 24000], "internal_node_id": "0.0-78.0", "trial": 2, "time_elapsed": 605420, "serialpos": 16, "key_press": -1, "wordID": 85, "type": "PRES_AUD", "trial_index": 105}, "uniqueid": "MTK1766:3WSELTNVR491XQGLZ2K75CYNBD7ATS", "dateTime": 1516295579112}, {"current_trial": 106, "trialdata": {"rt": -1000, "trial_type": "single-audio", "word": "napkin", "stimulus": "/static/audio/wordpool/NAPKIN.wav", "conditions": [24, 800, "a", 24000], "internal_node_id": "0.0-79.0", "trial": 2, "time_elapsed": 607065, "serialpos": 17, "key_press": -1, "wordID": 936, "type": "PRES_AUD", "trial_index": 106}, "uniqueid": "MTK1766:3WSELTNVR491XQGLZ2K75CYNBD7ATS", "dateTime": 1516295580756}, {"current_trial": 107, "trialdata": {"rt": -1000, "trial_type": "single-audio", "word": "statue", "stimulus": "/static/audio/wordpool/STATUE.wav", "conditions": [24, 800, "a", 24000], "internal_node_id": "0.0-80.0", "trial": 2, "time_elapsed": 609062, "serialpos": 18, "key_press": -1, "wordID": 1373, "type": "PRES_AUD", "trial_index": 107}, "uniqueid": "MTK1766:3WSELTNVR491XQGLZ2K75CYNBD7ATS", "dateTime": 1516295582753}, {"current_trial": 108, "trialdata": {"rt": -1000, "trial_type": "single-audio", "word": "lake", "stimulus": "/static/audio/wordpool/LAKE.wav", "conditions": [24, 800, "a", 24000], "internal_node_id": "0.0-81.0", "trial": 2, "time_elapsed": 610965, "serialpos": 19, "key_press": -1, "wordID": 795, "type": "PRES_AUD", "trial_index": 108}, "uniqueid": "MTK1766:3WSELTNVR491XQGLZ2K75CYNBD7ATS", "dateTime": 1516295584656}, {"current_trial": 109, "trialdata": {"rt": -1000, "trial_type": "single-audio", "word": "cupboard", "stimulus": "/static/audio/wordpool/CUPBOARD.wav", "conditions": [24, 800, "a", 24000], "internal_node_id": "0.0-82.0", "trial": 2, "time_elapsed": 612684, "serialpos": 20, "key_press": -1, "wordID": 424, "type": "PRES_AUD", "trial_index": 109}, "uniqueid": "MTK1766:3WSELTNVR491XQGLZ2K75CYNBD7ATS", "dateTime": 1516295586375}, {"current_trial": 110, "trialdata": {"rt": -1000, "trial_type": "single-audio", "word": "dresser", "stimulus": "/static/audio/wordpool/DRESSER.wav", "conditions": [24, 800, "a", 24000], "internal_node_id": "0.0-83.0", "trial": 2, "time_elapsed": 614484, "serialpos": 21, "key_press": -1, "wordID": 495, "type": "PRES_AUD", "trial_index": 110}, "uniqueid": "MTK1766:3WSELTNVR491XQGLZ2K75CYNBD7ATS", "dateTime": 1516295588175}, {"current_trial": 111, "trialdata": {"rt": -1000, "trial_type": "single-audio", "word": "pastry", "stimulus": "/static/audio/wordpool/PASTRY.wav", "conditions": [24, 800, "a", 24000], "internal_node_id": "0.0-84.0", "trial": 2, "time_elapsed": 616362, "serialpos": 22, "key_press": -1, "wordID": 1021, "type": "PRES_AUD", "trial_index": 111}, "uniqueid": "MTK1766:3WSELTNVR491XQGLZ2K75CYNBD7ATS", "dateTime": 1516295590053}, {"current_trial": 112, "trialdata": {"rt": -1000, "trial_type": "single-audio", "word": "flesh", "stimulus": "/static/audio/wordpool/FLESH.wav", "conditions": [24, 800, "a", 24000], "internal_node_id": "0.0-85.0", "trial": 2, "time_elapsed": 618152, "serialpos": 23, "key_press": -1, "wordID": 578, "type": "PRES_AUD", "trial_index": 112}, "uniqueid": "MTK1766:3WSELTNVR491XQGLZ2K75CYNBD7ATS", "dateTime": 1516295591843}, {"current_trial": 113, "trialdata": {"rt": -1, "trial_type": "single-stim", "stimulus": "", "internal_node_id": "0.0-86.0-0.0", "time_elapsed": 619559, "key_press": -1, "type": "PRE_RECALL_DELAY", "trial_index": 113}, "uniqueid": "MTK1766:3WSELTNVR491XQGLZ2K75CYNBD7ATS", "dateTime": 1516295593250}, {"current_trial": 114, "trialdata": {"rt": -1000, "trial_type": "single-audio", "stimulus": "/static/audio/400Hz.wav", "internal_node_id": "0.0-87.0", "time_elapsed": 620059, "key_press": -1, "type": "PRE_RECALL_ALERT", "trial_index": 114}, "uniqueid": "MTK1766:3WSELTNVR491XQGLZ2K75CYNBD7ATS", "dateTime": 1516295593750}, {"current_trial": 115, "trialdata": {"rt": [4856, 9169, 11711, 13752, 16225, 20296, 25889, 29856, 35976, 37552, 43073], "recwords": ["flash", "cupboard", "sandwich", "donut", "pastry", "banquet", "snack", "machine", "arm", "shoulder", "drink"], "key_times": [2440, 2864, 3296, 3769, 3953, 4856, 6520, 7073, 7208, 7449, 7607, 7823, 8473, 8592, 8721, 8881, 9169, 9563, 9728, 9809, 9937, 10465, 10802, 10945, 11032, 11711, 12057, 12160, 12312, 12504, 12632, 13752, 14481, 14552, 14736, 15339, 15441, 15560, 15713, 15864, 16225, 18568, 18824, 18936, 19160, 19281, 19407, 19568, 19993, 20096, 20296, 24954, 25104, 25241, 25448, 25568, 25889, 28712, 28904, 29112, 29209, 29361, 29496, 29617, 29856, 35384, 35568, 35703, 35976, 36248, 36345, 36472, 36601, 36753, 36912, 37129, 37232, 37552, 42185, 42354, 42480, 42624, 42784, 43073], "trial_type": "free-recall", "conditions": [24, 800, "a", 24000], "internal_node_id": "0.0-88.0-0.0", "key_presses": [70, 76, 65, 83, 72, 13, 67, 85, 80, 66, 79, 82, 8, 65, 82, 68, 13, 83, 65, 78, 68, 87, 73, 67, 72, 13, 68, 79, 78, 85, 84, 13, 80, 65, 84, 8, 83, 84, 82, 89, 13, 66, 65, 78, 81, 85, 69, 83, 8, 84, 13, 83, 78, 65, 67, 75, 13, 77, 65, 67, 72, 73, 78, 69, 13, 65, 82, 77, 13, 83, 72, 79, 85, 76, 68, 69, 82, 13, 68, 82, 73, 78, 75, 13], "trial": 2, "time_elapsed": 680063, "type": "FREE_RECALL", "trial_index": 115}, "uniqueid": "MTK1766:3WSELTNVR491XQGLZ2K75CYNBD7ATS", "dateTime": 1516295653756}, {"current_trial": 116, "trialdata": {"rt": 1381, "trial_type": "text", "internal_node_id": "0.0-89.0", "time_elapsed": 683446, "key_press": 13, "type": "INSTRUCTIONS", "trial_index": 116}, "uniqueid": "MTK1766:3WSELTNVR491XQGLZ2K75CYNBD7ATS", "dateTime": 1516295657138}, {"current_trial": 117, "trialdata": {"rt": [2438, 6566, 8374, 10470], "trial_type": "math-distractor", "key_times": [2014, 2175, 2438, 5575, 6038, 6566, 8006, 8158, 8374, 10086, 10230, 10470], "responses": ["14", "13", "12", "14"], "num2": [8, 7, 3, 6, 8], "num3": [4, 5, 6, 7, 5], "conditions": [12, 800, "a", 12000], "internal_node_id": "0.0-90.0", "key_presses": [97, 100, 13, 97, 99, 13, 97, 98, 13, 97, 100, 13], "trial": 3, "time_elapsed": 697449, "type": "DISTRACTOR", "trial_index": 117, "num1": [2, 1, 3, 1, 4]}, "uniqueid": "MTK1766:3WSELTNVR491XQGLZ2K75CYNBD7ATS", "dateTime": 1516295671140}, {"current_trial": 118, "trialdata": {"rt": -1, "trial_type": "single-stim", "stimulus": "<p id=\"stim\">10</p>", "internal_node_id": "0.0-91.0-0.0", "time_elapsed": 700454, "key_press": -1, "trial_index": 118}, "uniqueid": "MTK1766:3WSELTNVR491XQGLZ2K75CYNBD7ATS", "dateTime": 1516295674145}, {"current_trial": 119, "trialdata": {"rt": -1, "trial_type": "single-stim", "stimulus": "<p id=\"stim\">9</p>", "internal_node_id": "0.0-91.0-1.0", "time_elapsed": 701455, "key_press": -1, "trial_index": 119}, "uniqueid": "MTK1766:3WSELTNVR491XQGLZ2K75CYNBD7ATS", "dateTime": 1516295675146}, {"current_trial": 120, "trialdata": {"rt": -1, "trial_type": "single-stim", "stimulus": "<p id=\"stim\">8</p>", "internal_node_id": "0.0-91.0-2.0", "time_elapsed": 702456, "key_press": -1, "trial_index": 120}, "uniqueid": "MTK1766:3WSELTNVR491XQGLZ2K75CYNBD7ATS", "dateTime": 1516295676147}, {"current_trial": 121, "trialdata": {"rt": -1, "trial_type": "single-stim", "stimulus": "<p id=\"stim\">7</p>", "internal_node_id": "0.0-91.0-3.0", "time_elapsed": 703456, "key_press": -1, "trial_index": 121}, "uniqueid": "MTK1766:3WSELTNVR491XQGLZ2K75CYNBD7ATS", "dateTime": 1516295677148}, {"current_trial": 122, "trialdata": {"rt": -1, "trial_type": "single-stim", "stimulus": "<p id=\"stim\">6</p>", "internal_node_id": "0.0-91.0-4.0", "time_elapsed": 704457, "key_press": -1, "trial_index": 122}, "uniqueid": "MTK1766:3WSELTNVR491XQGLZ2K75CYNBD7ATS", "dateTime": 1516295678148}, {"current_trial": 123, "trialdata": {"rt": -1, "trial_type": "single-stim", "stimulus": "<p id=\"stim\">5</p>", "internal_node_id": "0.0-91.0-5.0", "time_elapsed": 705458, "key_press": -1, "trial_index": 123}, "uniqueid": "MTK1766:3WSELTNVR491XQGLZ2K75CYNBD7ATS", "dateTime": 1516295679149}, {"current_trial": 124, "trialdata": {"rt": -1, "trial_type": "single-stim", "stimulus": "<p id=\"stim\">4</p>", "internal_node_id": "0.0-91.0-6.0", "time_elapsed": 706469, "key_press": -1, "trial_index": 124}, "uniqueid": "MTK1766:3WSELTNVR491XQGLZ2K75CYNBD7ATS", "dateTime": 1516295680160}, {"current_trial": 125, "trialdata": {"rt": -1, "trial_type": "single-stim", "stimulus": "<p id=\"stim\">3</p>", "internal_node_id": "0.0-91.0-7.0", "time_elapsed": 707470, "key_press": -1, "trial_index": 125}, "uniqueid": "MTK1766:3WSELTNVR491XQGLZ2K75CYNBD7ATS", "dateTime": 1516295681161}, {"current_trial": 126, "trialdata": {"rt": -1, "trial_type": "single-stim", "stimulus": "<p id=\"stim\">2</p>", "internal_node_id": "0.0-91.0-8.0", "time_elapsed": 708493, "key_press": -1, "trial_index": 126}, "uniqueid": "MTK1766:3WSELTNVR491XQGLZ2K75CYNBD7ATS", "dateTime": 1516295682184}, {"current_trial": 127, "trialdata": {"rt": -1, "trial_type": "single-stim", "stimulus": "<p id=\"stim\">1</p>", "internal_node_id": "0.0-91.0-9.0", "time_elapsed": 709497, "key_press": -1, "trial_index": 127}, "uniqueid": "MTK1766:3WSELTNVR491XQGLZ2K75CYNBD7ATS", "dateTime": 1516295683188}, {"current_trial": 128, "trialdata": {"rt": -1, "trial_type": "single-stim", "stimulus": "<p id=\"stim\">+</p>", "internal_node_id": "0.0-92.0-0.0", "time_elapsed": 710999, "key_press": -1, "type": "FIXATION", "trial_index": 128}, "uniqueid": "MTK1766:3WSELTNVR491XQGLZ2K75CYNBD7ATS", "dateTime": 1516295684690}, {"current_trial": 129, "trialdata": {"rt": -1000, "trial_type": "single-audio", "word": "motor", "stimulus": "/static/audio/wordpool/MOTOR.wav", "conditions": [12, 800, "a", 12000], "internal_node_id": "0.0-93.0", "trial": 3, "time_elapsed": 712689, "serialpos": 0, "key_press": -1, "wordID": 921, "type": "PRES_AUD", "trial_index": 129}, "uniqueid": "MTK1766:3WSELTNVR491XQGLZ2K75CYNBD7ATS", "dateTime": 1516295686380}, {"current_trial": 130, "trialdata": {"rt": -1000, "trial_type": "single-audio", "word": "rod", "stimulus": "/static/audio/wordpool/ROD.wav", "conditions": [12, 800, "a", 12000], "internal_node_id": "0.0-94.0", "trial": 3, "time_elapsed": 714504, "serialpos": 1, "key_press": -1, "wordID": 1202, "type": "PRES_AUD", "trial_index": 130}, "uniqueid": "MTK1766:3WSELTNVR491XQGLZ2K75CYNBD7ATS", "dateTime": 1516295688195}, {"current_trial": 131, "trialdata": {"rt": -1000, "trial_type": "single-audio", "word": "stone", "stimulus": "/static/audio/wordpool/STONE.wav", "conditions": [12, 800, "a", 12000], "internal_node_id": "0.0-95.0", "trial": 3, "time_elapsed": 716283, "serialpos": 2, "key_press": -1, "wordID": 1384, "type": "PRES_AUD", "trial_index": 131}, "uniqueid": "MTK1766:3WSELTNVR491XQGLZ2K75CYNBD7ATS", "dateTime": 1516295689974}, {"current_trial": 132, "trialdata": {"rt": -1000, "trial_type": "single-audio", "word": "tablet", "stimulus": "/static/audio/wordpool/TABLET.wav", "conditions": [12, 800, "a", 12000], "internal_node_id": "0.0-96.0", "trial": 3, "time_elapsed": 718110, "serialpos": 3, "key_press": -1, "wordID": 1426, "type": "PRES_AUD", "trial_index": 132}, "uniqueid": "MTK1766:3WSELTNVR491XQGLZ2K75CYNBD7ATS", "dateTime": 1516295691801}, {"current_trial": 133, "trialdata": {"rt": -1000, "trial_type": "single-audio", "word": "fiddle", "stimulus": "/static/audio/wordpool/FIDDLE.wav", "conditions": [12, 800, "a", 12000], "internal_node_id": "0.0-97.0", "trial": 3, "time_elapsed": 719730, "serialpos": 4, "key_press": -1, "wordID": 560, "type": "PRES_AUD", "trial_index": 133}, "uniqueid": "MTK1766:3WSELTNVR491XQGLZ2K75CYNBD7ATS", "dateTime": 1516295693421}, {"current_trial": 134, "trialdata": {"rt": -1000, "trial_type": "single-audio", "word": "honey", "stimulus": "/static/audio/wordpool/HONEY.wav", "conditions": [12, 800, "a", 12000], "internal_node_id": "0.0-98.0", "trial": 3, "time_elapsed": 721707, "serialpos": 5, "key_press": -1, "wordID": 712, "type": "PRES_AUD", "trial_index": 134}, "uniqueid": "MTK1766:3WSELTNVR491XQGLZ2K75CYNBD7ATS", "dateTime": 1516295695398}, {"current_trial": 135, "trialdata": {"rt": -1000, "trial_type": "single-audio", "word": "crevice", "stimulus": "/static/audio/wordpool/CREVICE.wav", "conditions": [12, 800, "a", 12000], "internal_node_id": "0.0-99.0", "trial": 3, "time_elapsed": 723346, "serialpos": 6, "key_press": -1, "wordID": 404, "type": "PRES_AUD", "trial_index": 135}, "uniqueid": "MTK1766:3WSELTNVR491XQGLZ2K75CYNBD7ATS", "dateTime": 1516295697037}, {"current_trial": 136, "trialdata": {"rt": -1000, "trial_type": "single-audio", "word": "dust", "stimulus": "/static/audio/wordpool/DUST.wav", "conditions": [12, 800, "a", 12000], "internal_node_id": "0.0-100.0", "trial": 3, "time_elapsed": 725171, "serialpos": 7, "key_press": -1, "wordID": 507, "type": "PRES_AUD", "trial_index": 136}, "uniqueid": "MTK1766:3WSELTNVR491XQGLZ2K75CYNBD7ATS", "dateTime": 1516295698862}, {"current_trial": 137, "trialdata": {"rt": -1000, "trial_type": "single-audio", "word": "notebook", "stimulus": "/static/audio/wordpool/NOTEBOOK.wav", "conditions": [12, 800, "a", 12000], "internal_node_id": "0.0-101.0", "trial": 3, "time_elapsed": 726874, "serialpos": 8, "key_press": -1, "wordID": 958, "type": "PRES_AUD", "trial_index": 137}, "uniqueid": "MTK1766:3WSELTNVR491XQGLZ2K75CYNBD7ATS", "dateTime": 1516295700567}, {"current_trial": 138, "trialdata": {"rt": -1000, "trial_type": "single-audio", "word": "milk", "stimulus": "/static/audio/wordpool/MILK.wav", "conditions": [12, 800, "a", 12000], "internal_node_id": "0.0-102.0", "trial": 3, "time_elapsed": 728520, "serialpos": 9, "key_press": -1, "wordID": 894, "type": "PRES_AUD", "trial_index": 138}, "uniqueid": "MTK1766:3WSELTNVR491XQGLZ2K75CYNBD7ATS", "dateTime": 1516295702212}, {"current_trial": 139, "trialdata": {"rt": -1000, "trial_type": "single-audio", "word": "tuba", "stimulus": "/static/audio/wordpool/TUBA.wav", "conditions": [12, 800, "a", 12000], "internal_node_id": "0.0-103.0", "trial": 3, "time_elapsed": 730346, "serialpos": 10, "key_press": -1, "wordID": 1514, "type": "PRES_AUD", "trial_index": 139}, "uniqueid": "MTK1766:3WSELTNVR491XQGLZ2K75CYNBD7ATS", "dateTime": 1516295704037}, {"current_trial": 140, "trialdata": {"rt": -1000, "trial_type": "single-audio", "word": "banjo", "stimulus": "/static/audio/wordpool/BANJO.wav", "conditions": [12, 800, "a", 12000], "internal_node_id": "0.0-104.0", "trial": 3, "time_elapsed": 732126, "serialpos": 11, "key_press": -1, "wordID": 81, "type": "PRES_AUD", "trial_index": 140}, "uniqueid": "MTK1766:3WSELTNVR491XQGLZ2K75CYNBD7ATS", "dateTime": 1516295705817}, {"current_trial": 141, "trialdata": {"rt": -1, "trial_type": "single-stim", "stimulus": "", "internal_node_id": "0.0-105.0-0.0", "time_elapsed": 733420, "key_press": -1, "type": "PRE_RECALL_DELAY", "trial_index": 141}, "uniqueid": "MTK1766:3WSELTNVR491XQGLZ2K75CYNBD7ATS", "dateTime": 1516295707111}, {"current_trial": 142, "trialdata": {"rt": -1000, "trial_type": "single-audio", "stimulus": "/static/audio/400Hz.wav", "internal_node_id": "0.0-106.0", "time_elapsed": 733934, "key_press": -1, "type": "PRE_RECALL_ALERT", "trial_index": 142}, "uniqueid": "MTK1766:3WSELTNVR491XQGLZ2K75CYNBD7ATS", "dateTime": 1516295707625}, {"current_trial": 143, "trialdata": {"rt": [3610, 5393, 7952, 10226, 15888, 27336, 54649], "recwords": ["banjo", "tuba", "milk", "honey", "crevice", "notebook", "tuba"], "key_times": [2323, 2506, 2617, 2898, 3081, 3610, 4042, 4169, 4401, 4649, 5393, 6577, 6714, 6914, 7065, 7952, 8642, 8770, 8968, 9105, 9274, 10226, 14194, 14385, 14560, 14914, 15121, 15232, 15409, 15888, 25737, 25889, 26037, 26282, 26616, 26769, 26921, 27082, 27336, 53889, 54049, 54169, 54409, 54649], "trial_type": "free-recall", "conditions": [12, 800, "a", 12000], "internal_node_id": "0.0-107.0-0.0", "key_presses": [66, 65, 78, 74, 79, 13, 84, 85, 66, 65, 13, 77, 73, 76, 75, 13, 72, 79, 78, 69, 89, 13, 67, 82, 69, 86, 73, 67, 69, 13, 78, 79, 84, 69, 66, 79, 79, 75, 13, 84, 85, 66, 65, 13], "trial": 3, "time_elapsed": 793937, "type": "FREE_RECALL", "trial_index": 143}, "uniqueid": "MTK1766:3WSELTNVR491XQGLZ2K75CYNBD7ATS", "dateTime": 1516295767630}, {"current_trial": 144, "trialdata": {"rt": 1531, "trial_type": "text", "internal_node_id": "0.0-108.0", "time_elapsed": 797472, "key_press": 13, "type": "INSTRUCTIONS", "trial_index": 144}, "uniqueid": "MTK1766:3WSELTNVR491XQGLZ2K75CYNBD7ATS", "dateTime": 1516295771163}, {"current_trial": 145, "trialdata": {"rt": [2327, 4638, 6847, 9079], "trial_type": "math-distractor", "key_times": [1824, 2016, 2327, 4336, 4638, 6472, 6623, 6847, 8535, 8847, 9079], "responses": ["17", "7", "16", "14"], "num2": [3, 1, 6, 4, 7], "num3": [5, 2, 5, 1, 7], "conditions": [24, 800, "a", 12000], "internal_node_id": "0.0-109.0", "key_presses": [97, 103, 13, 103, 13, 97, 102, 13, 97, 100, 13], "trial": 4, "time_elapsed": 811475, "type": "DISTRACTOR", "trial_index": 145, "num1": [9, 4, 5, 9, 5]}, "uniqueid": "MTK1766:3WSELTNVR491XQGLZ2K75CYNBD7ATS", "dateTime": 1516295785166}, {"current_trial": 146, "trialdata": {"rt": -1, "trial_type": "single-stim", "stimulus": "<p id=\"stim\">10</p>", "internal_node_id": "0.0-110.0-0.0", "time_elapsed": 814478, "key_press": -1, "trial_index": 146}, "uniqueid": "MTK1766:3WSELTNVR491XQGLZ2K75CYNBD7ATS", "dateTime": 1516295788169}, {"current_trial": 147, "trialdata": {"rt": -1, "trial_type": "single-stim", "stimulus": "<p id=\"stim\">9</p>", "internal_node_id": "0.0-110.0-1.0", "time_elapsed": 815478, "key_press": -1, "trial_index": 147}, "uniqueid": "MTK1766:3WSELTNVR491XQGLZ2K75CYNBD7ATS", "dateTime": 1516295789169}, {"current_trial": 148, "trialdata": {"rt": -1, "trial_type": "single-stim", "stimulus": "<p id=\"stim\">8</p>", "internal_node_id": "0.0-110.0-2.0", "time_elapsed": 816478, "key_press": -1, "trial_index": 148}, "uniqueid": "MTK1766:3WSELTNVR491XQGLZ2K75CYNBD7ATS", "dateTime": 1516295790169}, {"current_trial": 149, "trialdata": {"rt": -1, "trial_type": "single-stim", "stimulus": "<p id=\"stim\">7</p>", "internal_node_id": "0.0-110.0-3.0", "time_elapsed": 817478, "key_press": -1, "trial_index": 149}, "uniqueid": "MTK1766:3WSELTNVR491XQGLZ2K75CYNBD7ATS", "dateTime": 1516295791169}, {"current_trial": 150, "trialdata": {"rt": -1, "trial_type": "single-stim", "stimulus": "<p id=\"stim\">6</p>", "internal_node_id": "0.0-110.0-4.0", "time_elapsed": 818479, "key_press": -1, "trial_index": 150}, "uniqueid": "MTK1766:3WSELTNVR491XQGLZ2K75CYNBD7ATS", "dateTime": 1516295792170}, {"current_trial": 151, "trialdata": {"rt": -1, "trial_type": "single-stim", "stimulus": "<p id=\"stim\">5</p>", "internal_node_id": "0.0-110.0-5.0", "time_elapsed": 819480, "key_press": -1, "trial_index": 151}, "uniqueid": "MTK1766:3WSELTNVR491XQGLZ2K75CYNBD7ATS", "dateTime": 1516295793171}, {"current_trial": 152, "trialdata": {"rt": -1, "trial_type": "single-stim", "stimulus": "<p id=\"stim\">4</p>", "internal_node_id": "0.0-110.0-6.0", "time_elapsed": 820483, "key_press": -1, "trial_index": 152}, "uniqueid": "MTK1766:3WSELTNVR491XQGLZ2K75CYNBD7ATS", "dateTime": 1516295794174}, {"current_trial": 153, "trialdata": {"rt": -1, "trial_type": "single-stim", "stimulus": "<p id=\"stim\">3</p>", "internal_node_id": "0.0-110.0-7.0", "time_elapsed": 821484, "key_press": -1, "trial_index": 153}, "uniqueid": "MTK1766:3WSELTNVR491XQGLZ2K75CYNBD7ATS", "dateTime": 1516295795175}, {"current_trial": 154, "trialdata": {"rt": -1, "trial_type": "single-stim", "stimulus": "<p id=\"stim\">2</p>", "internal_node_id": "0.0-110.0-8.0", "time_elapsed": 822512, "key_press": -1, "trial_index": 154}, "uniqueid": "MTK1766:3WSELTNVR491XQGLZ2K75CYNBD7ATS", "dateTime": 1516295796203}, {"current_trial": 155, "trialdata": {"rt": -1, "trial_type": "single-stim", "stimulus": "<p id=\"stim\">1</p>", "internal_node_id": "0.0-110.0-9.0", "time_elapsed": 823512, "key_press": -1, "trial_index": 155}, "uniqueid": "MTK1766:3WSELTNVR491XQGLZ2K75CYNBD7ATS", "dateTime": 1516295797203}, {"current_trial": 156, "trialdata": {"rt": -1, "trial_type": "single-stim", "stimulus": "<p id=\"stim\">+</p>", "internal_node_id": "0.0-111.0-0.0", "time_elapsed": 825014, "key_press": -1, "type": "FIXATION", "trial_index": 156}, "uniqueid": "MTK1766:3WSELTNVR491XQGLZ2K75CYNBD7ATS", "dateTime": 1516295798705}, {"current_trial": 157, "trialdata": {"rt": -1000, "trial_type": "single-audio", "word": "mailman", "stimulus": "/static/audio/wordpool/MAILMAN.wav", "conditions": [24, 800, "a", 12000], "internal_node_id": "0.0-112.0", "trial": 4, "time_elapsed": 826692, "serialpos": 0, "key_press": -1, "wordID": 857, "type": "PRES_AUD", "trial_index": 157}, "uniqueid": "MTK1766:3WSELTNVR491XQGLZ2K75CYNBD7ATS", "dateTime": 1516295800384}, {"current_trial": 158, "trialdata": {"rt": -1000, "trial_type": "single-audio", "word": "valley", "stimulus": "/static/audio/wordpool/VALLEY.wav", "conditions": [24, 800, "a", 12000], "internal_node_id": "0.0-113.0", "trial": 4, "time_elapsed": 828426, "serialpos": 1, "key_press": -1, "wordID": 1544, "type": "PRES_AUD", "trial_index": 158}, "uniqueid": "MTK1766:3WSELTNVR491XQGLZ2K75CYNBD7ATS", "dateTime": 1516295802117}, {"current_trial": 159, "trialdata": {"rt": -1000, "trial_type": "single-audio", "word": "mammal", "stimulus": "/static/audio/wordpool/MAMMAL.wav", "conditions": [24, 800, "a", 12000], "internal_node_id": "0.0-114.0", "trial": 4, "time_elapsed": 830157, "serialpos": 2, "key_press": -1, "wordID": 860, "type": "PRES_AUD", "trial_index": 159}, "uniqueid": "MTK1766:3WSELTNVR491XQGLZ2K75CYNBD7ATS", "dateTime": 1516295803849}, {"current_trial": 160, "trialdata": {"rt": -1000, "trial_type": "single-audio", "word": "diver", "stimulus": "/static/audio/wordpool/DIVER.wav", "conditions": [24, 800, "a", 12000], "internal_node_id": "0.0-115.0", "trial": 4, "time_elapsed": 832003, "serialpos": 3, "key_press": -1, "wordID": 475, "type": "PRES_AUD", "trial_index": 160}, "uniqueid": "MTK1766:3WSELTNVR491XQGLZ2K75CYNBD7ATS", "dateTime": 1516295805694}, {"current_trial": 161, "trialdata": {"rt": -1000, "trial_type": "single-audio", "word": "swimmer", "stimulus": "/static/audio/wordpool/SWIMMER.wav", "conditions": [24, 800, "a", 12000], "internal_node_id": "0.0-116.0", "trial": 4, "time_elapsed": 833973, "serialpos": 4, "key_press": -1, "wordID": 1419, "type": "PRES_AUD", "trial_index": 161}, "uniqueid": "MTK1766:3WSELTNVR491XQGLZ2K75CYNBD7ATS", "dateTime": 1516295807664}, {"current_trial": 162, "trialdata": {"rt": -1000, "trial_type": "single-audio", "word": "pork", "stimulus": "/static/audio/wordpool/PORK.wav", "conditions": [24, 800, "a", 12000], "internal_node_id": "0.0-117.0", "trial": 4, "time_elapsed": 835842, "serialpos": 5, "key_press": -1, "wordID": 1107, "type": "PRES_AUD", "trial_index": 162}, "uniqueid": "MTK1766:3WSELTNVR491XQGLZ2K75CYNBD7ATS", "dateTime": 1516295809533}, {"current_trial": 163, "trialdata": {"rt": -1000, "trial_type": "single-audio", "word": "curtain", "stimulus": "/static/audio/wordpool/CURTAIN.wav", "conditions": [24, 800, "a", 12000], "internal_node_id": "0.0-118.0", "trial": 4, "time_elapsed": 837508, "serialpos": 6, "key_press": -1, "wordID": 426, "type": "PRES_AUD", "trial_index": 163}, "uniqueid": "MTK1766:3WSELTNVR491XQGLZ2K75CYNBD7ATS", "dateTime": 1516295811199}, {"current_trial": 164, "trialdata": {"rt": -1000, "trial_type": "single-audio", "word": "dolphin", "stimulus": "/static/audio/wordpool/DOLPHIN.wav", "conditions": [24, 800, "a", 12000], "internal_node_id": "0.0-119.0", "trial": 4, "time_elapsed": 839123, "serialpos": 7, "key_press": -1, "wordID": 482, "type": "PRES_AUD", "trial_index": 164}, "uniqueid": "MTK1766:3WSELTNVR491XQGLZ2K75CYNBD7ATS", "dateTime": 1516295812815}, {"current_trial": 165, "trialdata": {"rt": -1000, "trial_type": "single-audio", "word": "salmon", "stimulus": "/static/audio/wordpool/SALMON.wav", "conditions": [24, 800, "a", 12000], "internal_node_id": "0.0-120.0", "trial": 4, "time_elapsed": 840878, "serialpos": 8, "key_press": -1, "wordID": 1226, "type": "PRES_AUD", "trial_index": 165}, "uniqueid": "MTK1766:3WSELTNVR491XQGLZ2K75CYNBD7ATS", "dateTime": 1516295814569}, {"current_trial": 166, "trialdata": {"rt": -1000, "trial_type": "single-audio", "word": "salt", "stimulus": "/static/audio/wordpool/SALT.wav", "conditions": [24, 800, "a", 12000], "internal_node_id": "0.0-121.0", "trial": 4, "time_elapsed": 842796, "serialpos": 9, "key_press": -1, "wordID": 1228, "type": "PRES_AUD", "trial_index": 166}, "uniqueid": "MTK1766:3WSELTNVR491XQGLZ2K75CYNBD7ATS", "dateTime": 1516295816487}, {"current_trial": 167, "trialdata": {"rt": -1000, "trial_type": "single-audio", "word": "marine", "stimulus": "/static/audio/wordpool/MARINE.wav", "conditions": [24, 800, "a", 12000], "internal_node_id": "0.0-122.0", "trial": 4, "time_elapsed": 844463, "serialpos": 10, "key_press": -1, "wordID": 868, "type": "PRES_AUD", "trial_index": 167}, "uniqueid": "MTK1766:3WSELTNVR491XQGLZ2K75CYNBD7ATS", "dateTime": 1516295818154}, {"current_trial": 168, "trialdata": {"rt": -1000, "trial_type": "single-audio", "word": "pudding", "stimulus": "/static/audio/wordpool/PUDDING.wav", "conditions": [24, 800, "a", 12000], "internal_node_id": "0.0-123.0", "trial": 4, "time_elapsed": 846104, "serialpos": 11, "key_press": -1, "wordID": 1138, "type": "PRES_AUD", "trial_index": 168}, "uniqueid": "MTK1766:3WSELTNVR491XQGLZ2K75CYNBD7ATS", "dateTime": 1516295819795}, {"current_trial": 169, "trialdata": {"rt": -1000, "trial_type": "single-audio", "word": "lipstick", "stimulus": "/static/audio/wordpool/LIPSTICK.wav", "conditions": [24, 800, "a", 12000], "internal_node_id": "0.0-124.0", "trial": 4, "time_elapsed": 847833, "serialpos": 12, "key_press": -1, "wordID": 828, "type": "PRES_AUD", "trial_index": 169}, "uniqueid": "MTK1766:3WSELTNVR491XQGLZ2K75CYNBD7ATS", "dateTime": 1516295821524}, {"current_trial": 170, "trialdata": {"rt": -1000, "trial_type": "single-audio", "word": "dorm", "stimulus": "/static/audio/wordpool/DORM.wav", "conditions": [24, 800, "a", 12000], "internal_node_id": "0.0-125.0", "trial": 4, "time_elapsed": 849511, "serialpos": 13, "key_press": -1, "wordID": 487, "type": "PRES_AUD", "trial_index": 170}, "uniqueid": "MTK1766:3WSELTNVR491XQGLZ2K75CYNBD7ATS", "dateTime": 1516295823202}, {"current_trial": 171, "trialdata": {"rt": -1000, "trial_type": "single-audio", "word": "lumber", "stimulus": "/static/audio/wordpool/LUMBER.wav", "conditions": [24, 800, "a", 12000], "internal_node_id": "0.0-126.0", "trial": 4, "time_elapsed": 851475, "serialpos": 14, "key_press": -1, "wordID": 847, "type": "PRES_AUD", "trial_index": 171}, "uniqueid": "MTK1766:3WSELTNVR491XQGLZ2K75CYNBD7ATS", "dateTime": 1516295825166}, {"current_trial": 172, "trialdata": {"rt": -1000, "trial_type": "single-audio", "word": "peach", "stimulus": "/static/audio/wordpool/PEACH.wav", "conditions": [24, 800, "a", 12000], "internal_node_id": "0.0-127.0", "trial": 4, "time_elapsed": 853159, "serialpos": 15, "key_press": -1, "wordID": 1030, "type": "PRES_AUD", "trial_index": 172}, "uniqueid": "MTK1766:3WSELTNVR491XQGLZ2K75CYNBD7ATS", "dateTime": 1516295826850}, {"current_trial": 173, "trialdata": {"rt": -1000, "trial_type": "single-audio", "word": "cross", "stimulus": "/static/audio/wordpool/CROSS.wav", "conditions": [24, 800, "a", 12000], "internal_node_id": "0.0-128.0", "trial": 4, "time_elapsed": 854805, "serialpos": 16, "key_press": -1, "wordID": 412, "type": "PRES_AUD", "trial_index": 173}, "uniqueid": "MTK1766:3WSELTNVR491XQGLZ2K75CYNBD7ATS", "dateTime": 1516295828498}, {"current_trial": 174, "trialdata": {"rt": -1000, "trial_type": "single-audio", "word": "truck", "stimulus": "/static/audio/wordpool/TRUCK.wav", "conditions": [24, 800, "a", 12000], "internal_node_id": "0.0-129.0", "trial": 4, "time_elapsed": 856450, "serialpos": 17, "key_press": -1, "wordID": 1511, "type": "PRES_AUD", "trial_index": 174}, "uniqueid": "MTK1766:3WSELTNVR491XQGLZ2K75CYNBD7ATS", "dateTime": 1516295830142}, {"current_trial": 175, "trialdata": {"rt": -1000, "trial_type": "single-audio", "word": "driver", "stimulus": "/static/audio/wordpool/DRIVER.wav", "conditions": [24, 800, "a", 12000], "internal_node_id": "0.0-130.0", "trial": 4, "time_elapsed": 858173, "serialpos": 18, "key_press": -1, "wordID": 498, "type": "PRES_AUD", "trial_index": 175}, "uniqueid": "MTK1766:3WSELTNVR491XQGLZ2K75CYNBD7ATS", "dateTime": 1516295831864}, {"current_trial": 176, "trialdata": {"rt": -1000, "trial_type": "single-audio", "word": "cashier", "stimulus": "/static/audio/wordpool/CASHIER.wav", "conditions": [24, 800, "a", 12000], "internal_node_id": "0.0-131.0", "trial": 4, "time_elapsed": 859984, "serialpos": 19, "key_press": -1, "wordID": 253, "type": "PRES_AUD", "trial_index": 176}, "uniqueid": "MTK1766:3WSELTNVR491XQGLZ2K75CYNBD7ATS", "dateTime": 1516295833675}, {"current_trial": 177, "trialdata": {"rt": -1000, "trial_type": "single-audio", "word": "skirt", "stimulus": "/static/audio/wordpool/SKIRT.wav", "conditions": [24, 800, "a", 12000], "internal_node_id": "0.0-132.0", "trial": 4, "time_elapsed": 861635, "serialpos": 20, "key_press": -1, "wordID": 1318, "type": "PRES_AUD", "trial_index": 177}, "uniqueid": "MTK1766:3WSELTNVR491XQGLZ2K75CYNBD7ATS", "dateTime": 1516295835326}, {"current_trial": 178, "trialdata": {"rt": -1000, "trial_type": "single-audio", "word": "student", "stimulus": "/static/audio/wordpool/STUDENT.wav", "conditions": [24, 800, "a", 12000], "internal_node_id": "0.0-133.0", "trial": 4, "time_elapsed": 863478, "serialpos": 21, "key_press": -1, "wordID": 1394, "type": "PRES_AUD", "trial_index": 178}, "uniqueid": "MTK1766:3WSELTNVR491XQGLZ2K75CYNBD7ATS", "dateTime": 1516295837169}, {"current_trial": 179, "trialdata": {"rt": -1000, "trial_type": "single-audio", "word": "casket", "stimulus": "/static/audio/wordpool/CASKET.wav", "conditions": [24, 800, "a", 12000], "internal_node_id": "0.0-134.0", "trial": 4, "time_elapsed": 865385, "serialpos": 22, "key_press": -1, "wordID": 254, "type": "PRES_AUD", "trial_index": 179}, "uniqueid": "MTK1766:3WSELTNVR491XQGLZ2K75CYNBD7ATS", "dateTime": 1516295839076}, {"current_trial": 180, "trialdata": {"rt": -1000, "trial_type": "single-audio", "word": "infant", "stimulus": "/static/audio/wordpool/INFANT.wav", "conditions": [24, 800, "a", 12000], "internal_node_id": "0.0-135.0", "trial": 4, "time_elapsed": 867080, "serialpos": 23, "key_press": -1, "wordID": 736, "type": "PRES_AUD", "trial_index": 180}, "uniqueid": "MTK1766:3WSELTNVR491XQGLZ2K75CYNBD7ATS", "dateTime": 1516295840772}, {"current_trial": 181, "trialdata": {"rt": -1, "trial_type": "single-stim", "stimulus": "", "internal_node_id": "0.0-136.0-0.0", "time_elapsed": 868448, "key_press": -1, "type": "PRE_RECALL_DELAY", "trial_index": 181}, "uniqueid": "MTK1766:3WSELTNVR491XQGLZ2K75CYNBD7ATS", "dateTime": 1516295842139}, {"current_trial": 182, "trialdata": {"rt": -1000, "trial_type": "single-audio", "stimulus": "/static/audio/400Hz.wav", "internal_node_id": "0.0-137.0", "time_elapsed": 868950, "key_press": -1, "type": "PRE_RECALL_ALERT", "trial_index": 182}, "uniqueid": "MTK1766:3WSELTNVR491XQGLZ2K75CYNBD7ATS", "dateTime": 1516295842641}, {"current_trial": 183, "trialdata": {"rt": [3035, 5380, 7572, 9378, 12021, 16220, 20890, 26243, 29218, 40837, 53837, 55437], "recwords": ["infant", "casket", "driver", "truck", "cashier", "infant", "student", "marine", "dophin", "fiddle", "diver", "swimmer"], "key_times": [1883, 2027, 2171, 2347, 2452, 2578, 3035, 3756, 3995, 4179, 4276, 4547, 4730, 5380, 6474, 6675, 6794, 6931, 7084, 7220, 7572, 8155, 8323, 8523, 8652, 8819, 9378, 9754, 10027, 10211, 10387, 10739, 10899, 11060, 12021, 15339, 15499, 15628, 15780, 15885, 15956, 16220, 19787, 19915, 20020, 20148, 20363, 20491, 20596, 20890, 25108, 25235, 25372, 25808, 25939, 26037, 26243, 26594, 26762, 26883, 27139, 27475, 27643, 27827, 28028, 28235, 28428, 28627, 28788, 29218, 39683, 40067, 40276, 40419, 40563, 40668, 40837, 52997, 53123, 53243, 53411, 53532, 53837, 54404, 54571, 54708, 54901, 55037, 55109, 55229, 55437], "trial_type": "free-recall", "conditions": [24, 800, "a", 12000], "internal_node_id": "0.0-138.0-0.0", "key_presses": [73, 78, 70, 65, 78, 84, 13, 67, 65, 83, 75, 69, 84, 13, 68, 82, 73, 86, 69, 82, 13, 84, 82, 85, 67, 75, 13, 67, 65, 83, 72, 73, 69, 82, 13, 73, 78, 70, 65, 78, 84, 13, 83, 84, 85, 68, 69, 78, 84, 13, 77, 65, 82, 73, 78, 69, 13, 68, 65, 76, 80, 8, 8, 8, 79, 80, 72, 73, 78, 13, 70, 73, 68, 68, 76, 69, 13, 68, 73, 86, 69, 82, 13, 83, 87, 73, 77, 77, 69, 82, 13], "trial": 4, "time_elapsed": 928966, "type": "FREE_RECALL", "trial_index": 183}, "uniqueid": "MTK1766:3WSELTNVR491XQGLZ2K75CYNBD7ATS", "dateTime": 1516295902664}, {"current_trial": 184, "trialdata": {"rt": 845, "trial_type": "text", "internal_node_id": "0.0-139.0", "time_elapsed": 931819, "key_press": 13, "type": "INSTRUCTIONS", "trial_index": 184}, "uniqueid": "MTK1766:3WSELTNVR491XQGLZ2K75CYNBD7ATS", "dateTime": 1516295905511}, {"current_trial": 185, "trialdata": {"rt": [3806, 5533, 7453, 9241, 11150, 13071, 15366, 17340, 19318, 21356, 23849], "trial_type": "math-distractor", "key_times": [3461, 3581, 3806, 5156, 5308, 5533, 7198, 7453, 8893, 9014, 9241, 10807, 10942, 11150, 12797, 13071, 14965, 15117, 15366, 17133, 17340, 18958, 19110, 19318, 20973, 21165, 21356, 23430, 23581, 23849], "responses": ["15", "12", "8", "13", "11", "9", "19", "6", "15", "14", "16"], "num2": [8, 1, 1, 8, 3, 1, 4, 1, 6, 3, 2, 5], "num3": [1, 2, 5, 3, 1, 2, 7, 1, 5, 9, 9, 8], "conditions": [12, 800, "a", 24000], "internal_node_id": "0.0-140.0", "key_presses": [97, 101, 13, 97, 98, 13, 104, 13, 97, 99, 13, 97, 97, 13, 105, 13, 97, 105, 13, 102, 13, 97, 101, 13, 97, 100, 13, 97, 102, 13], "trial": 5, "time_elapsed": 957822, "type": "DISTRACTOR", "trial_index": 185, "num1": [6, 9, 2, 2, 7, 6, 8, 4, 4, 2, 5, 2]}, "uniqueid": "MTK1766:3WSELTNVR491XQGLZ2K75CYNBD7ATS", "dateTime": 1516295931513}, {"current_trial": 186, "trialdata": {"rt": -1, "trial_type": "single-stim", "stimulus": "<p id=\"stim\">10</p>", "internal_node_id": "0.0-141.0-0.0", "time_elapsed": 960823, "key_press": -1, "trial_index": 186}, "uniqueid": "MTK1766:3WSELTNVR491XQGLZ2K75CYNBD7ATS", "dateTime": 1516295934514}, {"current_trial": 187, "trialdata": {"rt": -1, "trial_type": "single-stim", "stimulus": "<p id=\"stim\">9</p>", "internal_node_id": "0.0-141.0-1.0", "time_elapsed": 961826, "key_press": -1, "trial_index": 187}, "uniqueid": "MTK1766:3WSELTNVR491XQGLZ2K75CYNBD7ATS", "dateTime": 1516295935517}, {"current_trial": 188, "trialdata": {"rt": -1, "trial_type": "single-stim", "stimulus": "<p id=\"stim\">8</p>", "internal_node_id": "0.0-141.0-2.0", "time_elapsed": 962827, "key_press": -1, "trial_index": 188}, "uniqueid": "MTK1766:3WSELTNVR491XQGLZ2K75CYNBD7ATS", "dateTime": 1516295936518}, {"current_trial": 189, "trialdata": {"rt": -1, "trial_type": "single-stim", "stimulus": "<p id=\"stim\">7</p>", "internal_node_id": "0.0-141.0-3.0", "time_elapsed": 963829, "key_press": -1, "trial_index": 189}, "uniqueid": "MTK1766:3WSELTNVR491XQGLZ2K75CYNBD7ATS", "dateTime": 1516295937520}, {"current_trial": 190, "trialdata": {"rt": -1, "trial_type": "single-stim", "stimulus": "<p id=\"stim\">6</p>", "internal_node_id": "0.0-141.0-4.0", "time_elapsed": 964829, "key_press": -1, "trial_index": 190}, "uniqueid": "MTK1766:3WSELTNVR491XQGLZ2K75CYNBD7ATS", "dateTime": 1516295938522}, {"current_trial": 191, "trialdata": {"rt": -1, "trial_type": "single-stim", "stimulus": "<p id=\"stim\">5</p>", "internal_node_id": "0.0-141.0-5.0", "time_elapsed": 965832, "key_press": -1, "trial_index": 191}, "uniqueid": "MTK1766:3WSELTNVR491XQGLZ2K75CYNBD7ATS", "dateTime": 1516295939523}, {"current_trial": 192, "trialdata": {"rt": -1, "trial_type": "single-stim", "stimulus": "<p id=\"stim\">4</p>", "internal_node_id": "0.0-141.0-6.0", "time_elapsed": 966833, "key_press": -1, "trial_index": 192}, "uniqueid": "MTK1766:3WSELTNVR491XQGLZ2K75CYNBD7ATS", "dateTime": 1516295940524}, {"current_trial": 193, "trialdata": {"rt": -1, "trial_type": "single-stim", "stimulus": "<p id=\"stim\">3</p>", "internal_node_id": "0.0-141.0-7.0", "time_elapsed": 967833, "key_press": -1, "trial_index": 193}, "uniqueid": "MTK1766:3WSELTNVR491XQGLZ2K75CYNBD7ATS", "dateTime": 1516295941526}, {"current_trial": 194, "trialdata": {"rt": -1, "trial_type": "single-stim", "stimulus": "<p id=\"stim\">2</p>", "internal_node_id": "0.0-141.0-8.0", "time_elapsed": 968834, "key_press": -1, "trial_index": 194}, "uniqueid": "MTK1766:3WSELTNVR491XQGLZ2K75CYNBD7ATS", "dateTime": 1516295942527}, {"current_trial": 195, "trialdata": {"rt": -1, "trial_type": "single-stim", "stimulus": "<p id=\"stim\">1</p>", "internal_node_id": "0.0-141.0-9.0", "time_elapsed": 969837, "key_press": -1, "trial_index": 195}, "uniqueid": "MTK1766:3WSELTNVR491XQGLZ2K75CYNBD7ATS", "dateTime": 1516295943528}, {"current_trial": 196, "trialdata": {"rt": -1, "trial_type": "single-stim", "stimulus": "<p id=\"stim\">+</p>", "internal_node_id": "0.0-142.0-0.0", "time_elapsed": 971338, "key_press": -1, "type": "FIXATION", "trial_index": 196}, "uniqueid": "MTK1766:3WSELTNVR491XQGLZ2K75CYNBD7ATS", "dateTime": 1516295945029}, {"current_trial": 197, "trialdata": {"rt": -1000, "trial_type": "single-audio", "word": "citrus", "stimulus": "/static/audio/wordpool/CITRUS.wav", "conditions": [12, 800, "a", 24000], "internal_node_id": "0.0-143.0", "trial": 5, "time_elapsed": 973076, "serialpos": 0, "key_press": -1, "wordID": 312, "type": "PRES_AUD", "trial_index": 197}, "uniqueid": "MTK1766:3WSELTNVR491XQGLZ2K75CYNBD7ATS", "dateTime": 1516295946768}, {"current_trial": 198, "trialdata": {"rt": -1000, "trial_type": "single-audio", "word": "lace", "stimulus": "/static/audio/wordpool/LACE.wav", "conditions": [12, 800, "a", 24000], "internal_node_id": "0.0-144.0", "trial": 5, "time_elapsed": 974760, "serialpos": 1, "key_press": -1, "wordID": 791, "type": "PRES_AUD", "trial_index": 198}, "uniqueid": "MTK1766:3WSELTNVR491XQGLZ2K75CYNBD7ATS", "dateTime": 1516295948451}, {"current_trial": 199, "trialdata": {"rt": -1000, "trial_type": "single-audio", "word": "seal", "stimulus": "/static/audio/wordpool/SEAL.wav", "conditions": [12, 800, "a", 24000], "internal_node_id": "0.0-145.0", "trial": 5, "time_elapsed": 976744, "serialpos": 2, "key_press": -1, "wordID": 1261, "type": "PRES_AUD", "trial_index": 199}, "uniqueid": "MTK1766:3WSELTNVR491XQGLZ2K75CYNBD7ATS", "dateTime": 1516295950437}, {"current_trial": 200, "trialdata": {"rt": -1000, "trial_type": "single-audio", "word": "airplane", "stimulus": "/static/audio/wordpool/AIRPLANE.wav", "conditions": [12, 800, "a", 24000], "internal_node_id": "0.0-146.0", "trial": 5, "time_elapsed": 978690, "serialpos": 3, "key_press": -1, "wordID": 11, "type": "PRES_AUD", "trial_index": 200}, "uniqueid": "MTK1766:3WSELTNVR491XQGLZ2K75CYNBD7ATS", "dateTime": 1516295952381}, {"current_trial": 201, "trialdata": {"rt": -1000, "trial_type": "single-audio", "word": "tombstone", "stimulus": "/static/audio/wordpool/TOMBSTONE.wav", "conditions": [12, 800, "a", 24000], "internal_node_id": "0.0-147.0", "trial": 5, "time_elapsed": 980544, "serialpos": 4, "key_press": -1, "wordID": 1477, "type": "PRES_AUD", "trial_index": 201}, "uniqueid": "MTK1766:3WSELTNVR491XQGLZ2K75CYNBD7ATS", "dateTime": 1516295954236}, {"current_trial": 202, "trialdata": {"rt": -1000, "trial_type": "single-audio", "word": "outfit", "stimulus": "/static/audio/wordpool/OUTFIT.wav", "conditions": [12, 800, "a", 24000], "internal_node_id": "0.0-148.0", "trial": 5, "time_elapsed": 982498, "serialpos": 5, "key_press": -1, "wordID": 987, "type": "PRES_AUD", "trial_index": 202}, "uniqueid": "MTK1766:3WSELTNVR491XQGLZ2K75CYNBD7ATS", "dateTime": 1516295956189}, {"current_trial": 203, "trialdata": {"rt": -1000, "trial_type": "single-audio", "word": "preacher", "stimulus": "/static/audio/wordpool/PREACHER.wav", "conditions": [12, 800, "a", 24000], "internal_node_id": "0.0-149.0", "trial": 5, "time_elapsed": 984441, "serialpos": 6, "key_press": -1, "wordID": 1118, "type": "PRES_AUD", "trial_index": 203}, "uniqueid": "MTK1766:3WSELTNVR491XQGLZ2K75CYNBD7ATS", "dateTime": 1516295958134}, {"current_trial": 204, "trialdata": {"rt": -1000, "trial_type": "single-audio", "word": "chest", "stimulus": "/static/audio/wordpool/CHEST.wav", "conditions": [12, 800, "a", 24000], "internal_node_id": "0.0-150.0", "trial": 5, "time_elapsed": 986134, "serialpos": 7, "key_press": -1, "wordID": 294, "type": "PRES_AUD", "trial_index": 204}, "uniqueid": "MTK1766:3WSELTNVR491XQGLZ2K75CYNBD7ATS", "dateTime": 1516295959825}, {"current_trial": 205, "trialdata": {"rt": -1000, "trial_type": "single-audio", "word": "actor", "stimulus": "/static/audio/wordpool/ACTOR.wav", "conditions": [12, 800, "a", 24000], "internal_node_id": "0.0-151.0", "trial": 5, "time_elapsed": 987914, "serialpos": 8, "key_press": -1, "wordID": 4, "type": "PRES_AUD", "trial_index": 205}, "uniqueid": "MTK1766:3WSELTNVR491XQGLZ2K75CYNBD7ATS", "dateTime": 1516295961605}, {"current_trial": 206, "trialdata": {"rt": -1000, "trial_type": "single-audio", "word": "film", "stimulus": "/static/audio/wordpool/FILM.wav", "conditions": [12, 800, "a", 24000], "internal_node_id": "0.0-152.0", "trial": 5, "time_elapsed": 989695, "serialpos": 9, "key_press": -1, "wordID": 564, "type": "PRES_AUD", "trial_index": 206}, "uniqueid": "MTK1766:3WSELTNVR491XQGLZ2K75CYNBD7ATS", "dateTime": 1516295963387}, {"current_trial": 207, "trialdata": {"rt": -1000, "trial_type": "single-audio", "word": "stomach", "stimulus": "/static/audio/wordpool/STOMACH.wav", "conditions": [12, 800, "a", 24000], "internal_node_id": "0.0-153.0", "trial": 5, "time_elapsed": 991613, "serialpos": 10, "key_press": -1, "wordID": 1383, "type": "PRES_AUD", "trial_index": 207}, "uniqueid": "MTK1766:3WSELTNVR491XQGLZ2K75CYNBD7ATS", "dateTime": 1516295965304}, {"current_trial": 208, "trialdata": {"rt": -1000, "trial_type": "single-audio", "word": "nomad", "stimulus": "/static/audio/wordpool/NOMAD.wav", "conditions": [12, 800, "a", 24000], "internal_node_id": "0.0-154.0", "trial": 5, "time_elapsed": 993569, "serialpos": 11, "key_press": -1, "wordID": 954, "type": "PRES_AUD", "trial_index": 208}, "uniqueid": "MTK1766:3WSELTNVR491XQGLZ2K75CYNBD7ATS", "dateTime": 1516295967260}, {"current_trial": 209, "trialdata": {"rt": -1, "trial_type": "single-stim", "stimulus": "", "internal_node_id": "0.0-155.0-0.0", "time_elapsed": 994882, "key_press": -1, "type": "PRE_RECALL_DELAY", "trial_index": 209}, "uniqueid": "MTK1766:3WSELTNVR491XQGLZ2K75CYNBD7ATS", "dateTime": 1516295968573}, {"current_trial": 210, "trialdata": {"rt": -1000, "trial_type": "single-audio", "stimulus": "/static/audio/400Hz.wav", "internal_node_id": "0.0-156.0", "time_elapsed": 995421, "key_press": -1, "type": "PRE_RECALL_ALERT", "trial_index": 210}, "uniqueid": "MTK1766:3WSELTNVR491XQGLZ2K75CYNBD7ATS", "dateTime": 1516295969112}, {"current_trial": 211, "trialdata": {"rt": [3122, 5403, 6939, 9003, 24779, 36363], "recwords": ["nomad", "stomach", "film", "actor", "nomad", "seal"], "key_times": [2005, 2145, 2550, 2557, 2690, 3122, 3563, 3827, 4115, 4330, 4484, 4690, 4845, 5403, 6019, 6154, 6339, 6554, 6939, 7329, 7523, 7795, 7924, 8051, 9003, 23787, 23979, 24179, 24386, 24546, 24779, 35628, 35819, 35962, 36115, 36363], "trial_type": "free-recall", "conditions": [12, 800, "a", 24000], "internal_node_id": "0.0-157.0-0.0", "key_presses": [78, 79, 77, 65, 68, 13, 83, 84, 79, 77, 65, 67, 72, 13, 70, 73, 76, 77, 13, 65, 67, 84, 79, 82, 13, 78, 79, 77, 65, 68, 13, 83, 69, 65, 76, 13], "trial": 5, "time_elapsed": 1055425, "type": "FREE_RECALL", "trial_index": 211}, "uniqueid": "MTK1766:3WSELTNVR491XQGLZ2K75CYNBD7ATS", "dateTime": 1516296029120}, {"current_trial": 212, "trialdata": {"rt": 1736, "trial_type": "text", "internal_node_id": "0.0-158.0", "time_elapsed": 1059165, "key_press": 13, "type": "INSTRUCTIONS", "trial_index": 212}, "uniqueid": "MTK1766:3WSELTNVR491XQGLZ2K75CYNBD7ATS", "dateTime": 1516296032856}, {"current_trial": 213, "trialdata": {"rt": [2359, 4904, 7184, 8895, 11398, 13447, 15903, 17640, 19479, 22672], "trial_type": "math-distractor", "key_times": [1736, 1974, 2359, 4543, 4663, 4904, 6743, 6951, 7184, 8487, 8655, 8895, 10919, 11135, 11398, 13224, 13447, 15543, 15708, 15903, 17415, 17640, 18936, 19111, 19479, 22167, 22391, 22672], "responses": ["17", "11", "14", "16", "17", "5", "12", "4", "17", "17"], "num2": [2, 4, 3, 5, 6, 1, 1, 1, 1, 7, 6], "num3": [8, 5, 3, 6, 6, 1, 7, 2, 7, 2, 8], "conditions": [12, 800, "a", 24000], "internal_node_id": "0.0-159.0", "key_presses": [97, 103, 13, 97, 97, 13, 97, 100, 13, 97, 102, 13, 97, 103, 13, 101, 13, 97, 98, 13, 100, 13, 97, 103, 13, 97, 103, 13], "trial": 6, "time_elapsed": 1085165, "type": "DISTRACTOR", "trial_index": 213, "num1": [7, 2, 8, 5, 5, 3, 4, 1, 9, 8, 9]}, "uniqueid": "MTK1766:3WSELTNVR491XQGLZ2K75CYNBD7ATS", "dateTime": 1516296058856}, {"current_trial": 214, "trialdata": {"rt": -1, "trial_type": "single-stim", "stimulus": "<p id=\"stim\">10</p>", "internal_node_id": "0.0-160.0-0.0", "time_elapsed": 1088168, "key_press": -1, "trial_index": 214}, "uniqueid": "MTK1766:3WSELTNVR491XQGLZ2K75CYNBD7ATS", "dateTime": 1516296061859}, {"current_trial": 215, "trialdata": {"rt": -1, "trial_type": "single-stim", "stimulus": "<p id=\"stim\">9</p>", "internal_node_id": "0.0-160.0-1.0", "time_elapsed": 1089170, "key_press": -1, "trial_index": 215}, "uniqueid": "MTK1766:3WSELTNVR491XQGLZ2K75CYNBD7ATS", "dateTime": 1516296062861}, {"current_trial": 216, "trialdata": {"rt": -1, "trial_type": "single-stim", "stimulus": "<p id=\"stim\">8</p>", "internal_node_id": "0.0-160.0-2.0", "time_elapsed": 1090170, "key_press": -1, "trial_index": 216}, "uniqueid": "MTK1766:3WSELTNVR491XQGLZ2K75CYNBD7ATS", "dateTime": 1516296063861}, {"current_trial": 217, "trialdata": {"rt": -1, "trial_type": "single-stim", "stimulus": "<p id=\"stim\">7</p>", "internal_node_id": "0.0-160.0-3.0", "time_elapsed": 1091172, "key_press": -1, "trial_index": 217}, "uniqueid": "MTK1766:3WSELTNVR491XQGLZ2K75CYNBD7ATS", "dateTime": 1516296064863}, {"current_trial": 218, "trialdata": {"rt": -1, "trial_type": "single-stim", "stimulus": "<p id=\"stim\">6</p>", "internal_node_id": "0.0-160.0-4.0", "time_elapsed": 1092172, "key_press": -1, "trial_index": 218}, "uniqueid": "MTK1766:3WSELTNVR491XQGLZ2K75CYNBD7ATS", "dateTime": 1516296065863}, {"current_trial": 219, "trialdata": {"rt": -1, "trial_type": "single-stim", "stimulus": "<p id=\"stim\">5</p>", "internal_node_id": "0.0-160.0-5.0", "time_elapsed": 1093172, "key_press": -1, "trial_index": 219}, "uniqueid": "MTK1766:3WSELTNVR491XQGLZ2K75CYNBD7ATS", "dateTime": 1516296066863}, {"current_trial": 220, "trialdata": {"rt": -1, "trial_type": "single-stim", "stimulus": "<p id=\"stim\">4</p>", "internal_node_id": "0.0-160.0-6.0", "time_elapsed": 1094172, "key_press": -1, "trial_index": 220}, "uniqueid": "MTK1766:3WSELTNVR491XQGLZ2K75CYNBD7ATS", "dateTime": 1516296067863}, {"current_trial": 221, "trialdata": {"rt": -1, "trial_type": "single-stim", "stimulus": "<p id=\"stim\">3</p>", "internal_node_id": "0.0-160.0-7.0", "time_elapsed": 1095175, "key_press": -1, "trial_index": 221}, "uniqueid": "MTK1766:3WSELTNVR491XQGLZ2K75CYNBD7ATS", "dateTime": 1516296068866}, {"current_trial": 222, "trialdata": {"rt": -1, "trial_type": "single-stim", "stimulus": "<p id=\"stim\">2</p>", "internal_node_id": "0.0-160.0-8.0", "time_elapsed": 1096178, "key_press": -1, "trial_index": 222}, "uniqueid": "MTK1766:3WSELTNVR491XQGLZ2K75CYNBD7ATS", "dateTime": 1516296069869}, {"current_trial": 223, "trialdata": {"rt": -1, "trial_type": "single-stim", "stimulus": "<p id=\"stim\">1</p>", "internal_node_id": "0.0-160.0-9.0", "time_elapsed": 1097177, "key_press": -1, "trial_index": 223}, "uniqueid": "MTK1766:3WSELTNVR491XQGLZ2K75CYNBD7ATS", "dateTime": 1516296070868}, {"current_trial": 224, "trialdata": {"rt": -1, "trial_type": "single-stim", "stimulus": "<p id=\"stim\">+</p>", "internal_node_id": "0.0-161.0-0.0", "time_elapsed": 1098680, "key_press": -1, "type": "FIXATION", "trial_index": 224}, "uniqueid": "MTK1766:3WSELTNVR491XQGLZ2K75CYNBD7ATS", "dateTime": 1516296072371}, {"current_trial": 225, "trialdata": {"rt": -1000, "trial_type": "single-audio", "word": "sister", "stimulus": "/static/audio/wordpool/SISTER.wav", "conditions": [12, 800, "a", 24000], "internal_node_id": "0.0-162.0", "trial": 6, "time_elapsed": 1100318, "serialpos": 0, "key_press": -1, "wordID": 1311, "type": "PRES_AUD", "trial_index": 225}, "uniqueid": "MTK1766:3WSELTNVR491XQGLZ2K75CYNBD7ATS", "dateTime": 1516296074009}, {"current_trial": 226, "trialdata": {"rt": -1000, "trial_type": "single-audio", "word": "toaster", "stimulus": "/static/audio/wordpool/TOASTER.wav", "conditions": [12, 800, "a", 24000], "internal_node_id": "0.0-163.0", "trial": 6, "time_elapsed": 1102052, "serialpos": 1, "key_press": -1, "wordID": 1471, "type": "PRES_AUD", "trial_index": 226}, "uniqueid": "MTK1766:3WSELTNVR491XQGLZ2K75CYNBD7ATS", "dateTime": 1516296075744}, {"current_trial": 227, "trialdata": {"rt": -1000, "trial_type": "single-audio", "word": "sponge", "stimulus": "/static/audio/wordpool/SPONGE.wav", "conditions": [12, 800, "a", 24000], "internal_node_id": "0.0-164.0", "trial": 6, "time_elapsed": 1103660, "serialpos": 2, "key_press": -1, "wordID": 1354, "type": "PRES_AUD", "trial_index": 227}, "uniqueid": "MTK1766:3WSELTNVR491XQGLZ2K75CYNBD7ATS", "dateTime": 1516296077353}, {"current_trial": 228, "trialdata": {"rt": -1000, "trial_type": "single-audio", "word": "lava", "stimulus": "/static/audio/wordpool/LAVA.wav", "conditions": [12, 800, "a", 24000], "internal_node_id": "0.0-165.0", "trial": 6, "time_elapsed": 1105270, "serialpos": 3, "key_press": -1, "wordID": 803, "type": "PRES_AUD", "trial_index": 228}, "uniqueid": "MTK1766:3WSELTNVR491XQGLZ2K75CYNBD7ATS", "dateTime": 1516296078961}, {"current_trial": 229, "trialdata": {"rt": -1000, "trial_type": "single-audio", "word": "crater", "stimulus": "/static/audio/wordpool/CRATER.wav", "conditions": [12, 800, "a", 24000], "internal_node_id": "0.0-166.0", "trial": 6, "time_elapsed": 1107093, "serialpos": 4, "key_press": -1, "wordID": 399, "type": "PRES_AUD", "trial_index": 229}, "uniqueid": "MTK1766:3WSELTNVR491XQGLZ2K75CYNBD7ATS", "dateTime": 1516296080784}, {"current_trial": 230, "trialdata": {"rt": -1000, "trial_type": "single-audio", "word": "tutu", "stimulus": "/static/audio/wordpool/TUTU.wav", "conditions": [12, 800, "a", 24000], "internal_node_id": "0.0-167.0", "trial": 6, "time_elapsed": 1108968, "serialpos": 5, "key_press": -1, "wordID": 1523, "type": "PRES_AUD", "trial_index": 230}, "uniqueid": "MTK1766:3WSELTNVR491XQGLZ2K75CYNBD7ATS", "dateTime": 1516296082659}, {"current_trial": 231, "trialdata": {"rt": -1000, "trial_type": "single-audio", "word": "twig", "stimulus": "/static/audio/wordpool/TWIG.wav", "conditions": [12, 800, "a", 24000], "internal_node_id": "0.0-168.0", "trial": 6, "time_elapsed": 1110682, "serialpos": 6, "key_press": -1, "wordID": 1526, "type": "PRES_AUD", "trial_index": 231}, "uniqueid": "MTK1766:3WSELTNVR491XQGLZ2K75CYNBD7ATS", "dateTime": 1516296084373}, {"current_trial": 232, "trialdata": {"rt": -1000, "trial_type": "single-audio", "word": "crutch", "stimulus": "/static/audio/wordpool/CRUTCH.wav", "conditions": [12, 800, "a", 24000], "internal_node_id": "0.0-169.0", "trial": 6, "time_elapsed": 1112621, "serialpos": 7, "key_press": -1, "wordID": 416, "type": "PRES_AUD", "trial_index": 232}, "uniqueid": "MTK1766:3WSELTNVR491XQGLZ2K75CYNBD7ATS", "dateTime": 1516296086313}, {"current_trial": 233, "trialdata": {"rt": -1000, "trial_type": "single-audio", "word": "cabbage", "stimulus": "/static/audio/wordpool/CABBAGE.wav", "conditions": [12, 800, "a", 24000], "internal_node_id": "0.0-170.0", "trial": 6, "time_elapsed": 1114316, "serialpos": 8, "key_press": -1, "wordID": 209, "type": "PRES_AUD", "trial_index": 233}, "uniqueid": "MTK1766:3WSELTNVR491XQGLZ2K75CYNBD7ATS", "dateTime": 1516296088008}, {"current_trial": 234, "trialdata": {"rt": -1000, "trial_type": "single-audio", "word": "brother", "stimulus": "/static/audio/wordpool/BROTHER.wav", "conditions": [12, 800, "a", 24000], "internal_node_id": "0.0-171.0", "trial": 6, "time_elapsed": 1116024, "serialpos": 9, "key_press": -1, "wordID": 178, "type": "PRES_AUD", "trial_index": 234}, "uniqueid": "MTK1766:3WSELTNVR491XQGLZ2K75CYNBD7ATS", "dateTime": 1516296089715}, {"current_trial": 235, "trialdata": {"rt": -1000, "trial_type": "single-audio", "word": "keeper", "stimulus": "/static/audio/wordpool/KEEPER.wav", "conditions": [12, 800, "a", 24000], "internal_node_id": "0.0-172.0", "trial": 6, "time_elapsed": 1117711, "serialpos": 10, "key_press": -1, "wordID": 768, "type": "PRES_AUD", "trial_index": 235}, "uniqueid": "MTK1766:3WSELTNVR491XQGLZ2K75CYNBD7ATS", "dateTime": 1516296091402}, {"current_trial": 236, "trialdata": {"rt": -1000, "trial_type": "single-audio", "word": "chauffeur", "stimulus": "/static/audio/wordpool/CHAUFFEUR.wav", "conditions": [12, 800, "a", 24000], "internal_node_id": "0.0-173.0", "trial": 6, "time_elapsed": 1119336, "serialpos": 11, "key_press": -1, "wordID": 282, "type": "PRES_AUD", "trial_index": 236}, "uniqueid": "MTK1766:3WSELTNVR491XQGLZ2K75CYNBD7ATS", "dateTime": 1516296093027}, {"current_trial": 237, "trialdata": {"rt": -1, "trial_type": "single-stim", "stimulus": "", "internal_node_id": "0.0-174.0-0.0", "time_elapsed": 1120711, "key_press": -1, "type": "PRE_RECALL_DELAY", "trial_index": 237}, "uniqueid": "MTK1766:3WSELTNVR491XQGLZ2K75CYNBD7ATS", "dateTime": 1516296094402}, {"current_trial": 238, "trialdata": {"rt": -1000, "trial_type": "single-audio", "stimulus": "/static/audio/400Hz.wav", "internal_node_id": "0.0-175.0", "time_elapsed": 1121213, "key_press": -1, "type": "PRE_RECALL_ALERT", "trial_index": 238}, "uniqueid": "MTK1766:3WSELTNVR491XQGLZ2K75CYNBD7ATS", "dateTime": 1516296094904}, {"current_trial": 239, "trialdata": {"rt": [3046, 7470, 9558, 12223, 15167], "recwords": ["brother", "chaffuer", "keeper", "cabbage", "crutch"], "key_times": [1935, 2143, 2270, 2374, 2471, 2551, 2631, 3046, 3944, 4279, 4719, 5120, 5262, 5584, 6111, 6775, 7470, 8439, 8679, 8830, 9015, 9104, 9208, 9558, 10119, 10302, 10526, 10678, 10910, 11150, 11350, 12223, 12918, 13110, 13318, 13463, 13743, 13911, 15167, 59921], "trial_type": "free-recall", "conditions": [12, 800, "a", 24000], "internal_node_id": "0.0-176.0-0.0", "key_presses": [66, 82, 79, 84, 72, 69, 82, 13, 67, 72, 65, 70, 70, 85, 69, 82, 13, 75, 69, 69, 80, 69, 82, 13, 67, 65, 66, 66, 65, 71, 69, 13, 67, 82, 85, 84, 67, 72, 13, 76], "trial": 6, "time_elapsed": 1181218, "type": "FREE_RECALL", "trial_index": 239}, "uniqueid": "MTK1766:3WSELTNVR491XQGLZ2K75CYNBD7ATS", "dateTime": 1516296154912}, {"current_trial": 240, "trialdata": {"rt": 6864, "trial_type": "text", "internal_node_id": "0.0-177.0", "time_elapsed": 1190088, "key_press": 13, "type": "INSTRUCTIONS", "trial_index": 240}, "uniqueid": "MTK1766:3WSELTNVR491XQGLZ2K75CYNBD7ATS", "dateTime": 1516296163779}, {"current_trial": 241, "trialdata": {"rt": [3277, 6335, 8319, 12286, 15158, 19246, 22799], "trial_type": "math-distractor", "key_times": [2910, 3078, 3277, 5909, 6086, 6335, 7942, 8095, 8319, 11766, 12078, 12286, 14790, 14935, 15158, 18678, 19046, 19246, 22446, 22606, 22799], "responses": ["11", "16", "11", "26", "11", "23", "22"], "num2": [2, 6, 3, 9, 6, 9, 9, 7], "num3": [7, 2, 6, 9, 4, 6, 6, 6], "conditions": [24, 800, "a", 24000], "internal_node_id": "0.0-178.0", "key_presses": [97, 97, 13, 97, 102, 13, 97, 97, 13, 98, 102, 13, 97, 97, 13, 98, 99, 13, 98, 98, 13], "trial": 7, "time_elapsed": 1216091, "type": "DISTRACTOR", "trial_index": 241, "num1": [2, 8, 2, 8, 1, 8, 7, 4]}, "uniqueid": "MTK1766:3WSELTNVR491XQGLZ2K75CYNBD7ATS", "dateTime": 1516296189783}, {"current_trial": 242, "trialdata": {"rt": -1, "trial_type": "single-stim", "stimulus": "<p id=\"stim\">10</p>", "internal_node_id": "0.0-179.0-0.0", "time_elapsed": 1219093, "key_press": -1, "trial_index": 242}, "uniqueid": "MTK1766:3WSELTNVR491XQGLZ2K75CYNBD7ATS", "dateTime": 1516296192784}, {"current_trial": 243, "trialdata": {"rt": -1, "trial_type": "single-stim", "stimulus": "<p id=\"stim\">9</p>", "internal_node_id": "0.0-179.0-1.0", "time_elapsed": 1220093, "key_press": -1, "trial_index": 243}, "uniqueid": "MTK1766:3WSELTNVR491XQGLZ2K75CYNBD7ATS", "dateTime": 1516296193784}, {"current_trial": 244, "trialdata": {"rt": -1, "trial_type": "single-stim", "stimulus": "<p id=\"stim\">8</p>", "internal_node_id": "0.0-179.0-2.0", "time_elapsed": 12210