{"assignmentId": "3U4J9857OFIJI2O6SDH2VRQB59AB78", "workerId": "MTK1829", "questiondata": {"origin": "United States", "strat-rehearsal": "94", "marital": "Married/Domestic Partnership", "education": "Some college", "ethnicity": "Not Hispanic", "color_depth": 24, "distracted": "No", "wrote-notes": "No", "strat-other": "Was writing them down allowed? I assumed it was against the rules", "screen_width": 1920, "avail_screen_width": 1920, "avail_screen_height": 1040, "strat-image": "5", "language": "English", "gender": "Female", "age": "26", "gender_other": "", "race": ["White"], "strat-categorize": "80", "pixel_depth": 24, "strat-spatial": "4", "strat-story": "56", "race_other": "", "screen_height": 1080}, "bonus": 0, "hitId": "3CVDZS288H7QT29FBJ0L8FI2XRUMF6", "counterbalance": 963, "useragent": "Mozilla/5.0 (Windows NT 10.0; Win64; x64) AppleWebKit/537.36 (KHTML, like Gecko) Chrome/63.0.3239.132 Safari/537.36", "eventdata": [{"eventtype": "initialized", "interval": 0, "value": null, "timestamp": 1516477497508}, {"eventtype": "window_resize", "interval": 0, "value": [1920, 1033], "timestamp": 1516477497508}, {"eventtype": "focus", "interval": 3991, "value": "off", "timestamp": 1516477501499}, {"eventtype": "focus", "interval": 7324, "value": "on", "timestamp": 1516477508823}, {"eventtype": "focus", "interval": 12379, "value": "off", "timestamp": 1516477521202}, {"eventtype": "focus", "interval": 2679, "value": "on", "timestamp": 1516477523881}, {"eventtype": "focus", "interval": 33109, "value": "off", "timestamp": 1516477556990}, {"eventtype": "focus", "interval": 2661, "value": "on", "timestamp": 1516477559651}, {"eventtype": "focus", "interval": 17427, "value": "off", "timestamp": 1516477577078}, {"eventtype": "focus", "interval": 2031, "value": "on", "timestamp": 1516477579109}, {"eventtype": "focus", "interval": 1217859, "value": "off", "timestamp": 1516478796968}, {"eventtype": "focus", "interval": 4352, "value": "on", "timestamp": 1516478801320}, {"eventtype": "focus", "interval": 1220762, "value": "off", "timestamp": 1516480022082}, {"eventtype": "focus", "interval": 7272, "value": "on", "timestamp": 1516480029354}], "data": [{"current_trial": 0, "trialdata": {"rt": 4883, "trial_type": "text", "internal_node_id": "0.0-0.0", "time_elapsed": 4884, "key_press": 32, "type": "INSTRUCTIONS", "trial_index": 0}, "uniqueid": "MTK1829:3U4J9857OFIJI2O6SDH2VRQB59AB78", "dateTime": 1516477514752}, {"current_trial": 1, "trialdata": {"rt": 38595, "trial_type": "text", "internal_node_id": "0.0-1.0", "time_elapsed": 43482, "key_press": 32, "type": "INSTRUCTIONS", "trial_index": 1}, "uniqueid": "MTK1829:3U4J9857OFIJI2O6SDH2VRQB59AB78", "dateTime": 1516477553350}, {"current_trial": 2, "trialdata": {"rt": [10647], "trial_type": "audio-test", "responses": ["ocean"], "internal_node_id": "0.0-2.0", "time_elapsed": 54141, "type": "AUDIO_TEST", "trial_index": 2}, "uniqueid": "MTK1829:3U4J9857OFIJI2O6SDH2VRQB59AB78", "dateTime": 1516477564008}, {"current_trial": 3, "trialdata": {"rt": [7298], "trial_type": "audio-test", "responses": ["crystal"], "internal_node_id": "0.0-3.0", "time_elapsed": 61443, "type": "AUDIO_TEST", "trial_index": 3}, "uniqueid": "MTK1829:3U4J9857OFIJI2O6SDH2VRQB59AB78", "dateTime": 1516477571310}, {"current_trial": 4, "trialdata": {"rt": [11217], "trial_type": "audio-test", "responses": ["spice"], "internal_node_id": "0.0-4.0", "time_elapsed": 72663, "type": "AUDIO_TEST", "trial_index": 4}, "uniqueid": "MTK1829:3U4J9857OFIJI2O6SDH2VRQB59AB78", "dateTime": 1516477582530}, {"current_trial": 5, "trialdata": {"rt": 24840, "trial_type": "survey-text", "responses": "{\"Q0\":\"10\",\"Q1\":\"10\",\"Q2\":\"4\"}", "internal_node_id": "0.0-5.0", "time_elapsed": 98257, "type": "SLEEP_SURVEY", "trial_index": 5}, "uniqueid": "MTK1829:3U4J9857OFIJI2O6SDH2VRQB59AB78", "dateTime": 1516477608124}, {"current_trial": 6, "trialdata": {"rt": 15526, "trial_type": "text", "internal_node_id": "0.0-6.0", "time_elapsed": 114784, "key_press": 32, "type": "INSTRUCTIONS", "trial_index": 6}, "uniqueid": "MTK1829:3U4J9857OFIJI2O6SDH2VRQB59AB78", "dateTime": 1516477624651}, {"current_trial": 7, "trialdata": {"rt": 9485, "trial_type": "text", "internal_node_id": "0.0-7.0", "time_elapsed": 124771, "key_press": 32, "type": "INSTRUCTIONS", "trial_index": 7}, "uniqueid": "MTK1829:3U4J9857OFIJI2O6SDH2VRQB59AB78", "dateTime": 1516477634638}, {"current_trial": 8, "trialdata": {"rt": 8838, "trial_type": "text", "internal_node_id": "0.0-8.0", "time_elapsed": 134112, "key_press": 32, "type": "INSTRUCTIONS", "trial_index": 8}, "uniqueid": "MTK1829:3U4J9857OFIJI2O6SDH2VRQB59AB78", "dateTime": 1516477643979}, {"current_trial": 9, "trialdata": {"rt": [4418, 7249, 10514, 12888, 14613, 16387], "trial_type": "math-distractor", "key_times": [3102, 4418, 6795, 7009, 7249, 9223, 10265, 10514, 12152, 12647, 12888, 14460, 14613, 15957, 16182, 16387], "responses": ["9", "10", "21", "18", "8", "10"], "num2": [1, 4, 9, 1, 2, 4, 1], "num3": [3, 5, 5, 8, 4, 1, 1], "conditions": [18, 1200, "a", 18000], "internal_node_id": "0.0-9.0", "key_presses": [105, 13, 97, 96, 13, 98, 97, 13, 97, 104, 13, 104, 13, 97, 96, 13], "trial": 0, "time_elapsed": 153122, "type": "DISTRACTOR", "trial_index": 9, "num1": [5, 1, 7, 9, 2, 5, 4]}, "uniqueid": "MTK1829:3U4J9857OFIJI2O6SDH2VRQB59AB78", "dateTime": 1516477662989}, {"current_trial": 10, "trialdata": {"rt": -1, "trial_type": "single-stim", "stimulus": "<p id=\"stim\">10</p>", "internal_node_id": "0.0-10.0-0.0", "time_elapsed": 156126, "key_press": -1, "trial_index": 10}, "uniqueid": "MTK1829:3U4J9857OFIJI2O6SDH2VRQB59AB78", "dateTime": 1516477665994}, {"current_trial": 11, "trialdata": {"rt": -1, "trial_type": "single-stim", "stimulus": "<p id=\"stim\">9</p>", "internal_node_id": "0.0-10.0-1.0", "time_elapsed": 157129, "key_press": -1, "trial_index": 11}, "uniqueid": "MTK1829:3U4J9857OFIJI2O6SDH2VRQB59AB78", "dateTime": 1516477666996}, {"current_trial": 12, "trialdata": {"rt": -1, "trial_type": "single-stim", "stimulus": "<p id=\"stim\">8</p>", "internal_node_id": "0.0-10.0-2.0", "time_elapsed": 158131, "key_press": -1, "trial_index": 12}, "uniqueid": "MTK1829:3U4J9857OFIJI2O6SDH2VRQB59AB78", "dateTime": 1516477667998}, {"current_trial": 13, "trialdata": {"rt": -1, "trial_type": "single-stim", "stimulus": "<p id=\"stim\">7</p>", "internal_node_id": "0.0-10.0-3.0", "time_elapsed": 159133, "key_press": -1, "trial_index": 13}, "uniqueid": "MTK1829:3U4J9857OFIJI2O6SDH2VRQB59AB78", "dateTime": 1516477669000}, {"current_trial": 14, "trialdata": {"rt": -1, "trial_type": "single-stim", "stimulus": "<p id=\"stim\">6</p>", "internal_node_id": "0.0-10.0-4.0", "time_elapsed": 160135, "key_press": -1, "trial_index": 14}, "uniqueid": "MTK1829:3U4J9857OFIJI2O6SDH2VRQB59AB78", "dateTime": 1516477670002}, {"current_trial": 15, "trialdata": {"rt": -1, "trial_type": "single-stim", "stimulus": "<p id=\"stim\">5</p>", "internal_node_id": "0.0-10.0-5.0", "time_elapsed": 161137, "key_press": -1, "trial_index": 15}, "uniqueid": "MTK1829:3U4J9857OFIJI2O6SDH2VRQB59AB78", "dateTime": 1516477671004}, {"current_trial": 16, "trialdata": {"rt": -1, "trial_type": "single-stim", "stimulus": "<p id=\"stim\">4</p>", "internal_node_id": "0.0-10.0-6.0", "time_elapsed": 162139, "key_press": -1, "trial_index": 16}, "uniqueid": "MTK1829:3U4J9857OFIJI2O6SDH2VRQB59AB78", "dateTime": 1516477672006}, {"current_trial": 17, "trialdata": {"rt": -1, "trial_type": "single-stim", "stimulus": "<p id=\"stim\">3</p>", "internal_node_id": "0.0-10.0-7.0", "time_elapsed": 163141, "key_press": -1, "trial_index": 17}, "uniqueid": "MTK1829:3U4J9857OFIJI2O6SDH2VRQB59AB78", "dateTime": 1516477673008}, {"current_trial": 18, "trialdata": {"rt": -1, "trial_type": "single-stim", "stimulus": "<p id=\"stim\">2</p>", "internal_node_id": "0.0-10.0-8.0", "time_elapsed": 164143, "key_press": -1, "trial_index": 18}, "uniqueid": "MTK1829:3U4J9857OFIJI2O6SDH2VRQB59AB78", "dateTime": 1516477674010}, {"current_trial": 19, "trialdata": {"rt": -1, "trial_type": "single-stim", "stimulus": "<p id=\"stim\">1</p>", "internal_node_id": "0.0-10.0-9.0", "time_elapsed": 165144, "key_press": -1, "trial_index": 19}, "uniqueid": "MTK1829:3U4J9857OFIJI2O6SDH2VRQB59AB78", "dateTime": 1516477675011}, {"current_trial": 20, "trialdata": {"rt": -1, "trial_type": "single-stim", "stimulus": "<p id=\"stim\">+</p>", "internal_node_id": "0.0-11.0-0.0", "time_elapsed": 166646, "key_press": -1, "type": "FIXATION", "trial_index": 20}, "uniqueid": "MTK1829:3U4J9857OFIJI2O6SDH2VRQB59AB78", "dateTime": 1516477676514}, {"current_trial": 21, "trialdata": {"rt": -1000, "trial_type": "single-audio", "word": "waiter", "stimulus": "/static/audio/wordpool/WAITER.wav", "conditions": [18, 1200, "a", 18000], "internal_node_id": "0.0-12.0", "trial": 0, "time_elapsed": 168675, "serialpos": 0, "key_press": -1, "wordID": 1579, "type": "PRES_AUD", "trial_index": 21}, "uniqueid": "MTK1829:3U4J9857OFIJI2O6SDH2VRQB59AB78", "dateTime": 1516477678542}, {"current_trial": 22, "trialdata": {"rt": -1000, "trial_type": "single-audio", "word": "cookbook", "stimulus": "/static/audio/wordpool/COOKBOOK.wav", "conditions": [18, 1200, "a", 18000], "internal_node_id": "0.0-13.0", "trial": 0, "time_elapsed": 171002, "serialpos": 1, "key_press": -1, "wordID": 372, "type": "PRES_AUD", "trial_index": 22}, "uniqueid": "MTK1829:3U4J9857OFIJI2O6SDH2VRQB59AB78", "dateTime": 1516477680870}, {"current_trial": 23, "trialdata": {"rt": -1000, "trial_type": "single-audio", "word": "freckle", "stimulus": "/static/audio/wordpool/FRECKLE.wav", "conditions": [18, 1200, "a", 18000], "internal_node_id": "0.0-14.0", "trial": 0, "time_elapsed": 173339, "serialpos": 2, "key_press": -1, "wordID": 601, "type": "PRES_AUD", "trial_index": 23}, "uniqueid": "MTK1829:3U4J9857OFIJI2O6SDH2VRQB59AB78", "dateTime": 1516477683206}, {"current_trial": 24, "trialdata": {"rt": -1000, "trial_type": "single-audio", "word": "egypt", "stimulus": "/static/audio/wordpool/EGYPT.wav", "conditions": [18, 1200, "a", 18000], "internal_node_id": "0.0-15.0", "trial": 0, "time_elapsed": 175494, "serialpos": 3, "key_press": -1, "wordID": 518, "type": "PRES_AUD", "trial_index": 24}, "uniqueid": "MTK1829:3U4J9857OFIJI2O6SDH2VRQB59AB78", "dateTime": 1516477685361}, {"current_trial": 25, "trialdata": {"rt": -1000, "trial_type": "single-audio", "word": "backbone", "stimulus": "/static/audio/wordpool/BACKBONE.wav", "conditions": [18, 1200, "a", 18000], "internal_node_id": "0.0-16.0", "trial": 0, "time_elapsed": 177797, "serialpos": 4, "key_press": -1, "wordID": 65, "type": "PRES_AUD", "trial_index": 25}, "uniqueid": "MTK1829:3U4J9857OFIJI2O6SDH2VRQB59AB78", "dateTime": 1516477687664}, {"current_trial": 26, "trialdata": {"rt": -1000, "trial_type": "single-audio", "word": "parsley", "stimulus": "/static/audio/wordpool/PARSLEY.wav", "conditions": [18, 1200, "a", 18000], "internal_node_id": "0.0-17.0", "trial": 0, "time_elapsed": 180036, "serialpos": 5, "key_press": -1, "wordID": 1015, "type": "PRES_AUD", "trial_index": 26}, "uniqueid": "MTK1829:3U4J9857OFIJI2O6SDH2VRQB59AB78", "dateTime": 1516477689903}, {"current_trial": 27, "trialdata": {"rt": -1000, "trial_type": "single-audio", "word": "milk", "stimulus": "/static/audio/wordpool/MILK.wav", "conditions": [18, 1200, "a", 18000], "internal_node_id": "0.0-18.0", "trial": 0, "time_elapsed": 182330, "serialpos": 6, "key_press": -1, "wordID": 894, "type": "PRES_AUD", "trial_index": 27}, "uniqueid": "MTK1829:3U4J9857OFIJI2O6SDH2VRQB59AB78", "dateTime": 1516477692197}, {"current_trial": 28, "trialdata": {"rt": -1000, "trial_type": "single-audio", "word": "driver", "stimulus": "/static/audio/wordpool/DRIVER.wav", "conditions": [18, 1200, "a", 18000], "internal_node_id": "0.0-19.0", "trial": 0, "time_elapsed": 184416, "serialpos": 7, "key_press": -1, "wordID": 498, "type": "PRES_AUD", "trial_index": 28}, "uniqueid": "MTK1829:3U4J9857OFIJI2O6SDH2VRQB59AB78", "dateTime": 1516477694283}, {"current_trial": 29, "trialdata": {"rt": -1000, "trial_type": "single-audio", "word": "flute", "stimulus": "/static/audio/wordpool/FLUTE.wav", "conditions": [18, 1200, "a", 18000], "internal_node_id": "0.0-20.0", "trial": 0, "time_elapsed": 186564, "serialpos": 8, "key_press": -1, "wordID": 584, "type": "PRES_AUD", "trial_index": 29}, "uniqueid": "MTK1829:3U4J9857OFIJI2O6SDH2VRQB59AB78", "dateTime": 1516477696431}, {"current_trial": 30, "trialdata": {"rt": -1000, "trial_type": "single-audio", "word": "cook", "stimulus": "/static/audio/wordpool/COOK.wav", "conditions": [18, 1200, "a", 18000], "internal_node_id": "0.0-21.0", "trial": 0, "time_elapsed": 188763, "serialpos": 9, "key_press": -1, "wordID": 371, "type": "PRES_AUD", "trial_index": 30}, "uniqueid": "MTK1829:3U4J9857OFIJI2O6SDH2VRQB59AB78", "dateTime": 1516477698630}, {"current_trial": 31, "trialdata": {"rt": -1000, "trial_type": "single-audio", "word": "dolphin", "stimulus": "/static/audio/wordpool/DOLPHIN.wav", "conditions": [18, 1200, "a", 18000], "internal_node_id": "0.0-22.0", "trial": 0, "time_elapsed": 191027, "serialpos": 10, "key_press": -1, "wordID": 482, "type": "PRES_AUD", "trial_index": 31}, "uniqueid": "MTK1829:3U4J9857OFIJI2O6SDH2VRQB59AB78", "dateTime": 1516477700895}, {"current_trial": 32, "trialdata": {"rt": -1000, "trial_type": "single-audio", "word": "donkey", "stimulus": "/static/audio/wordpool/DONKEY.wav", "conditions": [18, 1200, "a", 18000], "internal_node_id": "0.0-23.0", "trial": 0, "time_elapsed": 193071, "serialpos": 11, "key_press": -1, "wordID": 483, "type": "PRES_AUD", "trial_index": 32}, "uniqueid": "MTK1829:3U4J9857OFIJI2O6SDH2VRQB59AB78", "dateTime": 1516477702938}, {"current_trial": 33, "trialdata": {"rt": -1000, "trial_type": "single-audio", "word": "beaker", "stimulus": "/static/audio/wordpool/BEAKER.wav", "conditions": [18, 1200, "a", 18000], "internal_node_id": "0.0-24.0", "trial": 0, "time_elapsed": 195315, "serialpos": 12, "key_press": -1, "wordID": 103, "type": "PRES_AUD", "trial_index": 33}, "uniqueid": "MTK1829:3U4J9857OFIJI2O6SDH2VRQB59AB78", "dateTime": 1516477705182}, {"current_trial": 34, "trialdata": {"rt": -1000, "trial_type": "single-audio", "word": "japan", "stimulus": "/static/audio/wordpool/JAPAN.wav", "conditions": [18, 1200, "a", 18000], "internal_node_id": "0.0-25.0", "trial": 0, "time_elapsed": 197556, "serialpos": 13, "key_press": -1, "wordID": 748, "type": "PRES_AUD", "trial_index": 34}, "uniqueid": "MTK1829:3U4J9857OFIJI2O6SDH2VRQB59AB78", "dateTime": 1516477707423}, {"current_trial": 35, "trialdata": {"rt": -1000, "trial_type": "single-audio", "word": "motel", "stimulus": "/static/audio/wordpool/MOTEL.wav", "conditions": [18, 1200, "a", 18000], "internal_node_id": "0.0-26.0", "trial": 0, "time_elapsed": 199730, "serialpos": 14, "key_press": -1, "wordID": 918, "type": "PRES_AUD", "trial_index": 35}, "uniqueid": "MTK1829:3U4J9857OFIJI2O6SDH2VRQB59AB78", "dateTime": 1516477709597}, {"current_trial": 36, "trialdata": {"rt": -1000, "trial_type": "single-audio", "word": "chauffeur", "stimulus": "/static/audio/wordpool/CHAUFFEUR.wav", "conditions": [18, 1200, "a", 18000], "internal_node_id": "0.0-27.0", "trial": 0, "time_elapsed": 201822, "serialpos": 15, "key_press": -1, "wordID": 282, "type": "PRES_AUD", "trial_index": 36}, "uniqueid": "MTK1829:3U4J9857OFIJI2O6SDH2VRQB59AB78", "dateTime": 1516477711689}, {"current_trial": 37, "trialdata": {"rt": -1000, "trial_type": "single-audio", "word": "cigar", "stimulus": "/static/audio/wordpool/CIGAR.wav", "conditions": [18, 1200, "a", 18000], "internal_node_id": "0.0-28.0", "trial": 0, "time_elapsed": 204217, "serialpos": 16, "key_press": -1, "wordID": 307, "type": "PRES_AUD", "trial_index": 37}, "uniqueid": "MTK1829:3U4J9857OFIJI2O6SDH2VRQB59AB78", "dateTime": 1516477714084}, {"current_trial": 38, "trialdata": {"rt": -1000, "trial_type": "single-audio", "word": "mummy", "stimulus": "/static/audio/wordpool/MUMMY.wav", "conditions": [18, 1200, "a", 18000], "internal_node_id": "0.0-29.0", "trial": 0, "time_elapsed": 206519, "serialpos": 17, "key_press": -1, "wordID": 931, "type": "PRES_AUD", "trial_index": 38}, "uniqueid": "MTK1829:3U4J9857OFIJI2O6SDH2VRQB59AB78", "dateTime": 1516477716386}, {"current_trial": 39, "trialdata": {"rt": -1, "trial_type": "single-stim", "stimulus": "", "internal_node_id": "0.0-30.0-0.0", "time_elapsed": 207791, "key_press": -1, "type": "PRE_RECALL_DELAY", "trial_index": 39}, "uniqueid": "MTK1829:3U4J9857OFIJI2O6SDH2VRQB59AB78", "dateTime": 1516477717658}, {"current_trial": 40, "trialdata": {"rt": -1000, "trial_type": "single-audio", "stimulus": "/static/audio/400Hz.wav", "internal_node_id": "0.0-31.0", "time_elapsed": 208292, "key_press": -1, "type": "PRE_RECALL_ALERT", "trial_index": 40}, "uniqueid": "MTK1829:3U4J9857OFIJI2O6SDH2VRQB59AB78", "dateTime": 1516477718159}, {"current_trial": 41, "trialdata": {"rt": [2285, 4024, 5334, 7953, 11851, 15418, 18629], "recwords": ["mummy", "japan", "waiter", "chauffer", "beaker", "parsley", "flute"], "key_times": [1109, 1347, 1576, 1722, 1993, 2285, 2716, 2945, 3547, 3707, 3791, 4024, 4298, 4508, 4646, 4829, 5069, 5180, 5334, 5618, 5822, 5962, 6177, 6495, 7110, 7298, 7441, 7631, 7710, 7953, 10590, 10858, 11076, 11310, 11537, 11632, 11851, 13930, 14026, 14220, 14475, 14749, 14877, 15185, 15418, 17635, 17827, 18046, 18320, 18502, 18629], "trial_type": "free-recall", "conditions": [18, 1200, "a", 18000], "internal_node_id": "0.0-32.0-0.0", "key_presses": [77, 85, 77, 77, 89, 13, 74, 65, 80, 65, 78, 13, 87, 65, 73, 84, 69, 82, 13, 67, 72, 65, 85, 71, 8, 70, 70, 69, 82, 13, 66, 69, 65, 75, 69, 82, 13, 80, 65, 82, 83, 76, 69, 89, 13, 70, 76, 85, 84, 69, 13], "trial": 0, "time_elapsed": 268298, "type": "FREE_RECALL", "trial_index": 41}, "uniqueid": "MTK1829:3U4J9857OFIJI2O6SDH2VRQB59AB78", "dateTime": 1516477778168}, {"current_trial": 42, "trialdata": {"rt": 1952, "trial_type": "text", "internal_node_id": "0.0-33.0", "time_elapsed": 272254, "key_press": 32, "type": "INSTRUCTIONS", "trial_index": 42}, "uniqueid": "MTK1829:3U4J9857OFIJI2O6SDH2VRQB59AB78", "dateTime": 1516477782121}, {"current_trial": 43, "trialdata": {"rt": [3541, 6099, 8480, 10167, 13130, 15069, 16826], "trial_type": "math-distractor", "key_times": [2415, 2617, 3541, 5543, 5765, 6099, 7947, 8193, 8480, 9748, 9919, 10167, 11554, 12236, 12631, 12823, 13130, 14445, 14751, 15069, 16287, 16826], "responses": ["24", "15", "16", "20", "21", "19", "1"], "num2": [9, 7, 5, 7, 7, 8, 5, 6], "num3": [8, 6, 5, 5, 7, 9, 5, 4], "conditions": [18, 1200, "a", 18000], "internal_node_id": "0.0-34.0", "key_presses": [98, 100, 13, 97, 101, 13, 97, 102, 13, 98, 96, 13, 97, 8, 98, 97, 13, 97, 105, 13, 97, 13], "trial": 1, "time_elapsed": 292257, "type": "DISTRACTOR", "trial_index": 43, "num1": [7, 2, 6, 8, 7, 2, 5, 8]}, "uniqueid": "MTK1829:3U4J9857OFIJI2O6SDH2VRQB59AB78", "dateTime": 1516477802125}, {"current_trial": 44, "trialdata": {"rt": -1, "trial_type": "single-stim", "stimulus": "<p id=\"stim\">10</p>", "internal_node_id": "0.0-35.0-0.0", "time_elapsed": 295260, "key_press": -1, "trial_index": 44}, "uniqueid": "MTK1829:3U4J9857OFIJI2O6SDH2VRQB59AB78", "dateTime": 1516477805128}, {"current_trial": 45, "trialdata": {"rt": -1, "trial_type": "single-stim", "stimulus": "<p id=\"stim\">9</p>", "internal_node_id": "0.0-35.0-1.0", "time_elapsed": 296262, "key_press": -1, "trial_index": 45}, "uniqueid": "MTK1829:3U4J9857OFIJI2O6SDH2VRQB59AB78", "dateTime": 1516477806129}, {"current_trial": 46, "trialdata": {"rt": -1, "trial_type": "single-stim", "stimulus": "<p id=\"stim\">8</p>", "internal_node_id": "0.0-35.0-2.0", "time_elapsed": 297265, "key_press": -1, "trial_index": 46}, "uniqueid": "MTK1829:3U4J9857OFIJI2O6SDH2VRQB59AB78", "dateTime": 1516477807132}, {"current_trial": 47, "trialdata": {"rt": -1, "trial_type": "single-stim", "stimulus": "<p id=\"stim\">7</p>", "internal_node_id": "0.0-35.0-3.0", "time_elapsed": 298267, "key_press": -1, "trial_index": 47}, "uniqueid": "MTK1829:3U4J9857OFIJI2O6SDH2VRQB59AB78", "dateTime": 1516477808134}, {"current_trial": 48, "trialdata": {"rt": -1, "trial_type": "single-stim", "stimulus": "<p id=\"stim\">6</p>", "internal_node_id": "0.0-35.0-4.0", "time_elapsed": 299268, "key_press": -1, "trial_index": 48}, "uniqueid": "MTK1829:3U4J9857OFIJI2O6SDH2VRQB59AB78", "dateTime": 1516477809135}, {"current_trial": 49, "trialdata": {"rt": -1, "trial_type": "single-stim", "stimulus": "<p id=\"stim\">5</p>", "internal_node_id": "0.0-35.0-5.0", "time_elapsed": 300271, "key_press": -1, "trial_index": 49}, "uniqueid": "MTK1829:3U4J9857OFIJI2O6SDH2VRQB59AB78", "dateTime": 1516477810138}, {"current_trial": 50, "trialdata": {"rt": -1, "trial_type": "single-stim", "stimulus": "<p id=\"stim\">4</p>", "internal_node_id": "0.0-35.0-6.0", "time_elapsed": 301273, "key_press": -1, "trial_index": 50}, "uniqueid": "MTK1829:3U4J9857OFIJI2O6SDH2VRQB59AB78", "dateTime": 1516477811140}, {"current_trial": 51, "trialdata": {"rt": -1, "trial_type": "single-stim", "stimulus": "<p id=\"stim\">3</p>", "internal_node_id": "0.0-35.0-7.0", "time_elapsed": 302275, "key_press": -1, "trial_index": 51}, "uniqueid": "MTK1829:3U4J9857OFIJI2O6SDH2VRQB59AB78", "dateTime": 1516477812142}, {"current_trial": 52, "trialdata": {"rt": -1, "trial_type": "single-stim", "stimulus": "<p id=\"stim\">2</p>", "internal_node_id": "0.0-35.0-8.0", "time_elapsed": 303277, "key_press": -1, "trial_index": 52}, "uniqueid": "MTK1829:3U4J9857OFIJI2O6SDH2VRQB59AB78", "dateTime": 1516477813145}, {"current_trial": 53, "trialdata": {"rt": -1, "trial_type": "single-stim", "stimulus": "<p id=\"stim\">1</p>", "internal_node_id": "0.0-35.0-9.0", "time_elapsed": 304279, "key_press": -1, "trial_index": 53}, "uniqueid": "MTK1829:3U4J9857OFIJI2O6SDH2VRQB59AB78", "dateTime": 1516477814146}, {"current_trial": 54, "trialdata": {"rt": -1, "trial_type": "single-stim", "stimulus": "<p id=\"stim\">+</p>", "internal_node_id": "0.0-36.0-0.0", "time_elapsed": 305780, "key_press": -1, "type": "FIXATION", "trial_index": 54}, "uniqueid": "MTK1829:3U4J9857OFIJI2O6SDH2VRQB59AB78", "dateTime": 1516477815647}, {"current_trial": 55, "trialdata": {"rt": -1000, "trial_type": "single-audio", "word": "boyfriend", "stimulus": "/static/audio/wordpool/BOYFRIEND.wav", "conditions": [18, 1200, "a", 18000], "internal_node_id": "0.0-37.0", "trial": 1, "time_elapsed": 307789, "serialpos": 0, "key_press": -1, "wordID": 161, "type": "PRES_AUD", "trial_index": 55}, "uniqueid": "MTK1829:3U4J9857OFIJI2O6SDH2VRQB59AB78", "dateTime": 1516477817656}, {"current_trial": 56, "trialdata": {"rt": -1000, "trial_type": "single-audio", "word": "lamp", "stimulus": "/static/audio/wordpool/LAMP.wav", "conditions": [18, 1200, "a", 18000], "internal_node_id": "0.0-38.0", "trial": 1, "time_elapsed": 309929, "serialpos": 1, "key_press": -1, "wordID": 797, "type": "PRES_AUD", "trial_index": 56}, "uniqueid": "MTK1829:3U4J9857OFIJI2O6SDH2VRQB59AB78", "dateTime": 1516477819797}, {"current_trial": 57, "trialdata": {"rt": -1000, "trial_type": "single-audio", "word": "tweezers", "stimulus": "/static/audio/wordpool/TWEEZERS.wav", "conditions": [18, 1200, "a", 18000], "internal_node_id": "0.0-39.0", "trial": 1, "time_elapsed": 312117, "serialpos": 2, "key_press": -1, "wordID": 1525, "type": "PRES_AUD", "trial_index": 57}, "uniqueid": "MTK1829:3U4J9857OFIJI2O6SDH2VRQB59AB78", "dateTime": 1516477821984}, {"current_trial": 58, "trialdata": {"rt": -1000, "trial_type": "single-audio", "word": "postage", "stimulus": "/static/audio/wordpool/POSTAGE.wav", "conditions": [18, 1200, "a", 18000], "internal_node_id": "0.0-40.0", "trial": 1, "time_elapsed": 314187, "serialpos": 3, "key_press": -1, "wordID": 1112, "type": "PRES_AUD", "trial_index": 58}, "uniqueid": "MTK1829:3U4J9857OFIJI2O6SDH2VRQB59AB78", "dateTime": 1516477824054}, {"current_trial": 59, "trialdata": {"rt": -1000, "trial_type": "single-audio", "word": "rust", "stimulus": "/static/audio/wordpool/RUST.wav", "conditions": [18, 1200, "a", 18000], "internal_node_id": "0.0-41.0", "trial": 1, "time_elapsed": 316358, "serialpos": 4, "key_press": -1, "wordID": 1218, "type": "PRES_AUD", "trial_index": 59}, "uniqueid": "MTK1829:3U4J9857OFIJI2O6SDH2VRQB59AB78", "dateTime": 1516477826225}, {"current_trial": 60, "trialdata": {"rt": -1000, "trial_type": "single-audio", "word": "island", "stimulus": "/static/audio/wordpool/ISLAND.wav", "conditions": [18, 1200, "a", 18000], "internal_node_id": "0.0-42.0", "trial": 1, "time_elapsed": 318732, "serialpos": 5, "key_press": -1, "wordID": 744, "type": "PRES_AUD", "trial_index": 60}, "uniqueid": "MTK1829:3U4J9857OFIJI2O6SDH2VRQB59AB78", "dateTime": 1516477828599}, {"current_trial": 61, "trialdata": {"rt": -1000, "trial_type": "single-audio", "word": "crab", "stimulus": "/static/audio/wordpool/CRAB.wav", "conditions": [18, 1200, "a", 18000], "internal_node_id": "0.0-43.0", "trial": 1, "time_elapsed": 321020, "serialpos": 6, "key_press": -1, "wordID": 396, "type": "PRES_AUD", "trial_index": 61}, "uniqueid": "MTK1829:3U4J9857OFIJI2O6SDH2VRQB59AB78", "dateTime": 1516477830887}, {"current_trial": 62, "trialdata": {"rt": -1000, "trial_type": "single-audio", "word": "slime", "stimulus": "/static/audio/wordpool/SLIME.wav", "conditions": [18, 1200, "a", 18000], "internal_node_id": "0.0-44.0", "trial": 1, "time_elapsed": 323196, "serialpos": 7, "key_press": -1, "wordID": 1326, "type": "PRES_AUD", "trial_index": 62}, "uniqueid": "MTK1829:3U4J9857OFIJI2O6SDH2VRQB59AB78", "dateTime": 1516477833063}, {"current_trial": 63, "trialdata": {"rt": -1000, "trial_type": "single-audio", "word": "gymnast", "stimulus": "/static/audio/wordpool/GYMNAST.wav", "conditions": [18, 1200, "a", 18000], "internal_node_id": "0.0-45.0", "trial": 1, "time_elapsed": 325554, "serialpos": 8, "key_press": -1, "wordID": 674, "type": "PRES_AUD", "trial_index": 63}, "uniqueid": "MTK1829:3U4J9857OFIJI2O6SDH2VRQB59AB78", "dateTime": 1516477835421}, {"current_trial": 64, "trialdata": {"rt": -1000, "trial_type": "single-audio", "word": "tribe", "stimulus": "/static/audio/wordpool/TRIBE.wav", "conditions": [18, 1200, "a", 18000], "internal_node_id": "0.0-46.0", "trial": 1, "time_elapsed": 327879, "serialpos": 9, "key_press": -1, "wordID": 1504, "type": "PRES_AUD", "trial_index": 64}, "uniqueid": "MTK1829:3U4J9857OFIJI2O6SDH2VRQB59AB78", "dateTime": 1516477837746}, {"current_trial": 65, "trialdata": {"rt": -1000, "trial_type": "single-audio", "word": "citrus", "stimulus": "/static/audio/wordpool/CITRUS.wav", "conditions": [18, 1200, "a", 18000], "internal_node_id": "0.0-47.0", "trial": 1, "time_elapsed": 330014, "serialpos": 10, "key_press": -1, "wordID": 312, "type": "PRES_AUD", "trial_index": 65}, "uniqueid": "MTK1829:3U4J9857OFIJI2O6SDH2VRQB59AB78", "dateTime": 1516477839881}, {"current_trial": 66, "trialdata": {"rt": -1000, "trial_type": "single-audio", "word": "whiskers", "stimulus": "/static/audio/wordpool/WHISKERS.wav", "conditions": [18, 1200, "a", 18000], "internal_node_id": "0.0-48.0", "trial": 1, "time_elapsed": 332322, "serialpos": 11, "key_press": -1, "wordID": 1604, "type": "PRES_AUD", "trial_index": 66}, "uniqueid": "MTK1829:3U4J9857OFIJI2O6SDH2VRQB59AB78", "dateTime": 1516477842189}, {"current_trial": 67, "trialdata": {"rt": -1000, "trial_type": "single-audio", "word": "window", "stimulus": "/static/audio/wordpool/WINDOW.wav", "conditions": [18, 1200, "a", 18000], "internal_node_id": "0.0-49.0", "trial": 1, "time_elapsed": 334625, "serialpos": 12, "key_press": -1, "wordID": 1610, "type": "PRES_AUD", "trial_index": 67}, "uniqueid": "MTK1829:3U4J9857OFIJI2O6SDH2VRQB59AB78", "dateTime": 1516477844492}, {"current_trial": 68, "trialdata": {"rt": -1000, "trial_type": "single-audio", "word": "clock", "stimulus": "/static/audio/wordpool/CLOCK.wav", "conditions": [18, 1200, "a", 18000], "internal_node_id": "0.0-50.0", "trial": 1, "time_elapsed": 336991, "serialpos": 13, "key_press": -1, "wordID": 324, "type": "PRES_AUD", "trial_index": 68}, "uniqueid": "MTK1829:3U4J9857OFIJI2O6SDH2VRQB59AB78", "dateTime": 1516477846862}, {"current_trial": 69, "trialdata": {"rt": -1000, "trial_type": "single-audio", "word": "mop", "stimulus": "/static/audio/wordpool/MOP.wav", "conditions": [18, 1200, "a", 18000], "internal_node_id": "0.0-51.0", "trial": 1, "time_elapsed": 339006, "serialpos": 14, "key_press": -1, "wordID": 915, "type": "PRES_AUD", "trial_index": 69}, "uniqueid": "MTK1829:3U4J9857OFIJI2O6SDH2VRQB59AB78", "dateTime": 1516477848873}, {"current_trial": 70, "trialdata": {"rt": -1000, "trial_type": "single-audio", "word": "dust", "stimulus": "/static/audio/wordpool/DUST.wav", "conditions": [18, 1200, "a", 18000], "internal_node_id": "0.0-52.0", "trial": 1, "time_elapsed": 341148, "serialpos": 15, "key_press": -1, "wordID": 507, "type": "PRES_AUD", "trial_index": 70}, "uniqueid": "MTK1829:3U4J9857OFIJI2O6SDH2VRQB59AB78", "dateTime": 1516477851015}, {"current_trial": 71, "trialdata": {"rt": -1000, "trial_type": "single-audio", "word": "lodge", "stimulus": "/static/audio/wordpool/LODGE.wav", "conditions": [18, 1200, "a", 18000], "internal_node_id": "0.0-53.0", "trial": 1, "time_elapsed": 343298, "serialpos": 16, "key_press": -1, "wordID": 838, "type": "PRES_AUD", "trial_index": 71}, "uniqueid": "MTK1829:3U4J9857OFIJI2O6SDH2VRQB59AB78", "dateTime": 1516477853165}, {"current_trial": 72, "trialdata": {"rt": -1000, "trial_type": "single-audio", "word": "chapel", "stimulus": "/static/audio/wordpool/CHAPEL.wav", "conditions": [18, 1200, "a", 18000], "internal_node_id": "0.0-54.0", "trial": 1, "time_elapsed": 345643, "serialpos": 17, "key_press": -1, "wordID": 279, "type": "PRES_AUD", "trial_index": 72}, "uniqueid": "MTK1829:3U4J9857OFIJI2O6SDH2VRQB59AB78", "dateTime": 1516477855510}, {"current_trial": 73, "trialdata": {"rt": -1, "trial_type": "single-stim", "stimulus": "", "internal_node_id": "0.0-55.0-0.0", "time_elapsed": 346854, "key_press": -1, "type": "PRE_RECALL_DELAY", "trial_index": 73}, "uniqueid": "MTK1829:3U4J9857OFIJI2O6SDH2VRQB59AB78", "dateTime": 1516477856721}, {"current_trial": 74, "trialdata": {"rt": -1000, "trial_type": "single-audio", "stimulus": "/static/audio/400Hz.wav", "internal_node_id": "0.0-56.0", "time_elapsed": 347356, "key_press": -1, "type": "PRE_RECALL_ALERT", "trial_index": 74}, "uniqueid": "MTK1829:3U4J9857OFIJI2O6SDH2VRQB59AB78", "dateTime": 1516477857223}, {"current_trial": 75, "trialdata": {"rt": [2000, 2956, 5210, 6367, 9328, 11498, 13315, 18167, 19864, 34454], "recwords": ["chapel", "rust", "boyfriend", "slime", "gymnast", "island", "crab", "tweezer", "moth", "chapel"], "key_times": [691, 1076, 1242, 1342, 1547, 1741, 2000, 2343, 2549, 2645, 2861, 2956, 3288, 3483, 3713, 4034, 4380, 4556, 4737, 4854, 4976, 5210, 5479, 5657, 5873, 6033, 6139, 6367, 6709, 7027, 7130, 7274, 7685, 8137, 8389, 8638, 8864, 9328, 10322, 10463, 10677, 10844, 10955, 11087, 11498, 12276, 12517, 12689, 12951, 13315, 15170, 15388, 15801, 15996, 16396, 16662, 16747, 18167, 19191, 19356, 19478, 19585, 19864, 29459, 29581, 30180, 30353, 30765, 31184, 33280, 33450, 33630, 33753, 34036, 34153, 34454, 54882, 55242, 55442, 55728, 55893, 56081, 56313, 56815, 56961, 57143, 57343, 57869, 57905, 57942, 57980, 58017, 58055], "trial_type": "free-recall", "conditions": [18, 1200, "a", 18000], "internal_node_id": "0.0-57.0-0.0", "key_presses": [67, 72, 65, 80, 69, 76, 13, 82, 85, 83, 84, 13, 66, 79, 89, 70, 82, 73, 69, 78, 68, 13, 83, 76, 73, 77, 69, 13, 83, 8, 71, 89, 77, 78, 65, 83, 84, 13, 73, 83, 76, 65, 78, 68, 13, 67, 82, 65, 66, 13, 84, 87, 69, 69, 90, 69, 82, 13, 77, 79, 84, 72, 13, 67, 72, 8, 8, 67, 8, 67, 72, 65, 80, 69, 76, 13, 71, 89, 77, 78, 65, 83, 84, 8, 8, 8, 8, 8, 8, 8, 8, 8, 8], "trial": 1, "time_elapsed": 407359, "type": "FREE_RECALL", "trial_index": 75}, "uniqueid": "MTK1829:3U4J9857OFIJI2O6SDH2VRQB59AB78", "dateTime": 1516477917229}, {"current_trial": 76, "trialdata": {"rt": 1924, "trial_type": "text", "internal_node_id": "0.0-58.0", "time_elapsed": 411287, "key_press": 32, "type": "INSTRUCTIONS", "trial_index": 76}, "uniqueid": "MTK1829:3U4J9857OFIJI2O6SDH2VRQB59AB78", "dateTime": 1516477921154}, {"current_trial": 77, "trialdata": {"rt": [3435, 6398, 8240, 10986, 13085, 15165, 17647, 19890, 22118], "trial_type": "math-distractor", "key_times": [2874, 3435, 5497, 6121, 6398, 7612, 7913, 8240, 10620, 10761, 10986, 12532, 12804, 13085, 14646, 14824, 15165, 17132, 17358, 17647, 19174, 19611, 19890, 21632, 21856, 22118, 23695], "responses": ["7", "16", "17", "22", "15", "21", "13", "16", "15"], "num2": [3, 9, 4, 6, 5, 8, 3, 5, 9, 7], "num3": [2, 5, 7, 7, 4, 8, 2, 8, 4, 9], "conditions": [24, 800, "a", 24000], "internal_node_id": "0.0-59.0", "key_presses": [103, 13, 97, 102, 13, 97, 103, 13, 98, 98, 13, 97, 101, 13, 98, 97, 13, 97, 99, 13, 97, 102, 13, 97, 101, 13, 97], "trial": 2, "time_elapsed": 436290, "type": "DISTRACTOR", "trial_index": 77, "num1": [2, 2, 6, 9, 6, 5, 8, 2, 2, 2]}, "uniqueid": "MTK1829:3U4J9857OFIJI2O6SDH2VRQB59AB78", "dateTime": 1516477946157}, {"current_trial": 78, "trialdata": {"rt": -1, "trial_type": "single-stim", "stimulus": "<p id=\"stim\">10</p>", "internal_node_id": "0.0-60.0-0.0", "time_elapsed": 439292, "key_press": -1, "trial_index": 78}, "uniqueid": "MTK1829:3U4J9857OFIJI2O6SDH2VRQB59AB78", "dateTime": 1516477949160}, {"current_trial": 79, "trialdata": {"rt": -1, "trial_type": "single-stim", "stimulus": "<p id=\"stim\">9</p>", "internal_node_id": "0.0-60.0-1.0", "time_elapsed": 440293, "key_press": -1, "trial_index": 79}, "uniqueid": "MTK1829:3U4J9857OFIJI2O6SDH2VRQB59AB78", "dateTime": 1516477950161}, {"current_trial": 80, "trialdata": {"rt": -1, "trial_type": "single-stim", "stimulus": "<p id=\"stim\">8</p>", "internal_node_id": "0.0-60.0-2.0", "time_elapsed": 441294, "key_press": -1, "trial_index": 80}, "uniqueid": "MTK1829:3U4J9857OFIJI2O6SDH2VRQB59AB78", "dateTime": 1516477951161}, {"current_trial": 81, "trialdata": {"rt": -1, "trial_type": "single-stim", "stimulus": "<p id=\"stim\">7</p>", "internal_node_id": "0.0-60.0-3.0", "time_elapsed": 442296, "key_press": -1, "trial_index": 81}, "uniqueid": "MTK1829:3U4J9857OFIJI2O6SDH2VRQB59AB78", "dateTime": 1516477952163}, {"current_trial": 82, "trialdata": {"rt": -1, "trial_type": "single-stim", "stimulus": "<p id=\"stim\">6</p>", "internal_node_id": "0.0-60.0-4.0", "time_elapsed": 443298, "key_press": -1, "trial_index": 82}, "uniqueid": "MTK1829:3U4J9857OFIJI2O6SDH2VRQB59AB78", "dateTime": 1516477953165}, {"current_trial": 83, "trialdata": {"rt": -1, "trial_type": "single-stim", "stimulus": "<p id=\"stim\">5</p>", "internal_node_id": "0.0-60.0-5.0", "time_elapsed": 444300, "key_press": -1, "trial_index": 83}, "uniqueid": "MTK1829:3U4J9857OFIJI2O6SDH2VRQB59AB78", "dateTime": 1516477954167}, {"current_trial": 84, "trialdata": {"rt": -1, "trial_type": "single-stim", "stimulus": "<p id=\"stim\">4</p>", "internal_node_id": "0.0-60.0-6.0", "time_elapsed": 445302, "key_press": -1, "trial_index": 84}, "uniqueid": "MTK1829:3U4J9857OFIJI2O6SDH2VRQB59AB78", "dateTime": 1516477955169}, {"current_trial": 85, "trialdata": {"rt": -1, "trial_type": "single-stim", "stimulus": "<p id=\"stim\">3</p>", "internal_node_id": "0.0-60.0-7.0", "time_elapsed": 446304, "key_press": -1, "trial_index": 85}, "uniqueid": "MTK1829:3U4J9857OFIJI2O6SDH2VRQB59AB78", "dateTime": 1516477956171}, {"current_trial": 86, "trialdata": {"rt": -1, "trial_type": "single-stim", "stimulus": "<p id=\"stim\">2</p>", "internal_node_id": "0.0-60.0-8.0", "time_elapsed": 447305, "key_press": -1, "trial_index": 86}, "uniqueid": "MTK1829:3U4J9857OFIJI2O6SDH2VRQB59AB78", "dateTime": 1516477957173}, {"current_trial": 87, "trialdata": {"rt": -1, "trial_type": "single-stim", "stimulus": "<p id=\"stim\">1</p>", "internal_node_id": "0.0-60.0-9.0", "time_elapsed": 448307, "key_press": -1, "trial_index": 87}, "uniqueid": "MTK1829:3U4J9857OFIJI2O6SDH2VRQB59AB78", "dateTime": 1516477958174}, {"current_trial": 88, "trialdata": {"rt": -1, "trial_type": "single-stim", "stimulus": "<p id=\"stim\">+</p>", "internal_node_id": "0.0-61.0-0.0", "time_elapsed": 449809, "key_press": -1, "type": "FIXATION", "trial_index": 88}, "uniqueid": "MTK1829:3U4J9857OFIJI2O6SDH2VRQB59AB78", "dateTime": 1516477959676}, {"current_trial": 89, "trialdata": {"rt": -1000, "trial_type": "single-audio", "word": "baby", "stimulus": "/static/audio/wordpool/BABY.wav", "conditions": [24, 800, "a", 24000], "internal_node_id": "0.0-62.0", "trial": 2, "time_elapsed": 451586, "serialpos": 0, "key_press": -1, "wordID": 63, "type": "PRES_AUD", "trial_index": 89}, "uniqueid": "MTK1829:3U4J9857OFIJI2O6SDH2VRQB59AB78", "dateTime": 1516477961454}, {"current_trial": 90, "trialdata": {"rt": -1000, "trial_type": "single-audio", "word": "pimple", "stimulus": "/static/audio/wordpool/PIMPLE.wav", "conditions": [24, 800, "a", 24000], "internal_node_id": "0.0-63.0", "trial": 2, "time_elapsed": 453234, "serialpos": 1, "key_press": -1, "wordID": 1070, "type": "PRES_AUD", "trial_index": 90}, "uniqueid": "MTK1829:3U4J9857OFIJI2O6SDH2VRQB59AB78", "dateTime": 1516477963101}, {"current_trial": 91, "trialdata": {"rt": -1000, "trial_type": "single-audio", "word": "breast", "stimulus": "/static/audio/wordpool/BREAST.wav", "conditions": [24, 800, "a", 24000], "internal_node_id": "0.0-64.0", "trial": 2, "time_elapsed": 455041, "serialpos": 2, "key_press": -1, "wordID": 170, "type": "PRES_AUD", "trial_index": 91}, "uniqueid": "MTK1829:3U4J9857OFIJI2O6SDH2VRQB59AB78", "dateTime": 1516477964908}, {"current_trial": 92, "trialdata": {"rt": -1000, "trial_type": "single-audio", "word": "banker", "stimulus": "/static/audio/wordpool/BANKER.wav", "conditions": [24, 800, "a", 24000], "internal_node_id": "0.0-65.0", "trial": 2, "time_elapsed": 456888, "serialpos": 3, "key_press": -1, "wordID": 83, "type": "PRES_AUD", "trial_index": 92}, "uniqueid": "MTK1829:3U4J9857OFIJI2O6SDH2VRQB59AB78", "dateTime": 1516477966755}, {"current_trial": 93, "trialdata": {"rt": -1000, "trial_type": "single-audio", "word": "gift", "stimulus": "/static/audio/wordpool/GIFT.wav", "conditions": [24, 800, "a", 24000], "internal_node_id": "0.0-66.0", "trial": 2, "time_elapsed": 458565, "serialpos": 4, "key_press": -1, "wordID": 634, "type": "PRES_AUD", "trial_index": 93}, "uniqueid": "MTK1829:3U4J9857OFIJI2O6SDH2VRQB59AB78", "dateTime": 1516477968432}, {"current_trial": 94, "trialdata": {"rt": -1000, "trial_type": "single-audio", "word": "sphinx", "stimulus": "/static/audio/wordpool/SPHINX.wav", "conditions": [24, 800, "a", 24000], "internal_node_id": "0.0-67.0", "trial": 2, "time_elapsed": 460193, "serialpos": 5, "key_press": -1, "wordID": 1348, "type": "PRES_AUD", "trial_index": 94}, "uniqueid": "MTK1829:3U4J9857OFIJI2O6SDH2VRQB59AB78", "dateTime": 1516477970061}, {"current_trial": 95, "trialdata": {"rt": -1000, "trial_type": "single-audio", "word": "bunny", "stimulus": "/static/audio/wordpool/BUNNY.wav", "conditions": [24, 800, "a", 24000], "internal_node_id": "0.0-68.0", "trial": 2, "time_elapsed": 462040, "serialpos": 6, "key_press": -1, "wordID": 197, "type": "PRES_AUD", "trial_index": 95}, "uniqueid": "MTK1829:3U4J9857OFIJI2O6SDH2VRQB59AB78", "dateTime": 1516477971907}, {"current_trial": 96, "trialdata": {"rt": -1000, "trial_type": "single-audio", "word": "fungus", "stimulus": "/static/audio/wordpool/FUNGUS.wav", "conditions": [24, 800, "a", 24000], "internal_node_id": "0.0-69.0", "trial": 2, "time_elapsed": 464015, "serialpos": 7, "key_press": -1, "wordID": 613, "type": "PRES_AUD", "trial_index": 96}, "uniqueid": "MTK1829:3U4J9857OFIJI2O6SDH2VRQB59AB78", "dateTime": 1516477973882}, {"current_trial": 97, "trialdata": {"rt": -1000, "trial_type": "single-audio", "word": "termite", "stimulus": "/static/audio/wordpool/TERMITE.wav", "conditions": [24, 800, "a", 24000], "internal_node_id": "0.0-70.0", "trial": 2, "time_elapsed": 465700, "serialpos": 8, "key_press": -1, "wordID": 1450, "type": "PRES_AUD", "trial_index": 97}, "uniqueid": "MTK1829:3U4J9857OFIJI2O6SDH2VRQB59AB78", "dateTime": 1516477975567}, {"current_trial": 98, "trialdata": {"rt": -1000, "trial_type": "single-audio", "word": "typist", "stimulus": "/static/audio/wordpool/TYPIST.wav", "conditions": [24, 800, "a", 24000], "internal_node_id": "0.0-71.0", "trial": 2, "time_elapsed": 467579, "serialpos": 9, "key_press": -1, "wordID": 1531, "type": "PRES_AUD", "trial_index": 98}, "uniqueid": "MTK1829:3U4J9857OFIJI2O6SDH2VRQB59AB78", "dateTime": 1516477977446}, {"current_trial": 99, "trialdata": {"rt": -1000, "trial_type": "single-audio", "word": "judge", "stimulus": "/static/audio/wordpool/JUDGE.wav", "conditions": [24, 800, "a", 24000], "internal_node_id": "0.0-72.0", "trial": 2, "time_elapsed": 469382, "serialpos": 10, "key_press": -1, "wordID": 760, "type": "PRES_AUD", "trial_index": 99}, "uniqueid": "MTK1829:3U4J9857OFIJI2O6SDH2VRQB59AB78", "dateTime": 1516477979249}, {"current_trial": 100, "trialdata": {"rt": -1000, "trial_type": "single-audio", "word": "infant", "stimulus": "/static/audio/wordpool/INFANT.wav", "conditions": [24, 800, "a", 24000], "internal_node_id": "0.0-73.0", "trial": 2, "time_elapsed": 471064, "serialpos": 11, "key_press": -1, "wordID": 736, "type": "PRES_AUD", "trial_index": 100}, "uniqueid": "MTK1829:3U4J9857OFIJI2O6SDH2VRQB59AB78", "dateTime": 1516477980931}, {"current_trial": 101, "trialdata": {"rt": -1000, "trial_type": "single-audio", "word": "space", "stimulus": "/static/audio/wordpool/SPACE.wav", "conditions": [24, 800, "a", 24000], "internal_node_id": "0.0-74.0", "trial": 2, "time_elapsed": 472774, "serialpos": 12, "key_press": -1, "wordID": 1344, "type": "PRES_AUD", "trial_index": 101}, "uniqueid": "MTK1829:3U4J9857OFIJI2O6SDH2VRQB59AB78", "dateTime": 1516477982641}, {"current_trial": 102, "trialdata": {"rt": -1000, "trial_type": "single-audio", "word": "cousin", "stimulus": "/static/audio/wordpool/COUSIN.wav", "conditions": [24, 800, "a", 24000], "internal_node_id": "0.0-75.0", "trial": 2, "time_elapsed": 474407, "serialpos": 13, "key_press": -1, "wordID": 391, "type": "PRES_AUD", "trial_index": 102}, "uniqueid": "MTK1829:3U4J9857OFIJI2O6SDH2VRQB59AB78", "dateTime": 1516477984275}, {"current_trial": 103, "trialdata": {"rt": -1000, "trial_type": "single-audio", "word": "mister", "stimulus": "/static/audio/wordpool/MISTER.wav", "conditions": [24, 800, "a", 24000], "internal_node_id": "0.0-76.0", "trial": 2, "time_elapsed": 476228, "serialpos": 14, "key_press": -1, "wordID": 900, "type": "PRES_AUD", "trial_index": 103}, "uniqueid": "MTK1829:3U4J9857OFIJI2O6SDH2VRQB59AB78", "dateTime": 1516477986095}, {"current_trial": 104, "trialdata": {"rt": -1000, "trial_type": "single-audio", "word": "jello", "stimulus": "/static/audio/wordpool/JELLO.wav", "conditions": [24, 800, "a", 24000], "internal_node_id": "0.0-77.0", "trial": 2, "time_elapsed": 478049, "serialpos": 15, "key_press": -1, "wordID": 753, "type": "PRES_AUD", "trial_index": 104}, "uniqueid": "MTK1829:3U4J9857OFIJI2O6SDH2VRQB59AB78", "dateTime": 1516477987916}, {"current_trial": 105, "trialdata": {"rt": -1000, "trial_type": "single-audio", "word": "jelly", "stimulus": "/static/audio/wordpool/JELLY.wav", "conditions": [24, 800, "a", 24000], "internal_node_id": "0.0-78.0", "trial": 2, "time_elapsed": 479750, "serialpos": 16, "key_press": -1, "wordID": 754, "type": "PRES_AUD", "trial_index": 105}, "uniqueid": "MTK1829:3U4J9857OFIJI2O6SDH2VRQB59AB78", "dateTime": 1516477989617}, {"current_trial": 106, "trialdata": {"rt": -1000, "trial_type": "single-audio", "word": "yarn", "stimulus": "/static/audio/wordpool/YARN.wav", "conditions": [24, 800, "a", 24000], "internal_node_id": "0.0-79.0", "trial": 2, "time_elapsed": 481689, "serialpos": 17, "key_press": -1, "wordID": 1630, "type": "PRES_AUD", "trial_index": 106}, "uniqueid": "MTK1829:3U4J9857OFIJI2O6SDH2VRQB59AB78", "dateTime": 1516477991556}, {"current_trial": 107, "trialdata": {"rt": -1000, "trial_type": "single-audio", "word": "lipstick", "stimulus": "/static/audio/wordpool/LIPSTICK.wav", "conditions": [24, 800, "a", 24000], "internal_node_id": "0.0-80.0", "trial": 2, "time_elapsed": 483616, "serialpos": 18, "key_press": -1, "wordID": 828, "type": "PRES_AUD", "trial_index": 107}, "uniqueid": "MTK1829:3U4J9857OFIJI2O6SDH2VRQB59AB78", "dateTime": 1516477993483}, {"current_trial": 108, "trialdata": {"rt": -1000, "trial_type": "single-audio", "word": "knife", "stimulus": "/static/audio/wordpool/KNIFE.wav", "conditions": [24, 800, "a", 24000], "internal_node_id": "0.0-81.0", "trial": 2, "time_elapsed": 485460, "serialpos": 19, "key_press": -1, "wordID": 784, "type": "PRES_AUD", "trial_index": 108}, "uniqueid": "MTK1829:3U4J9857OFIJI2O6SDH2VRQB59AB78", "dateTime": 1516477995327}, {"current_trial": 109, "trialdata": {"rt": -1000, "trial_type": "single-audio", "word": "sibling", "stimulus": "/static/audio/wordpool/SIBLING.wav", "conditions": [24, 800, "a", 24000], "internal_node_id": "0.0-82.0", "trial": 2, "time_elapsed": 487359, "serialpos": 20, "key_press": -1, "wordID": 1300, "type": "PRES_AUD", "trial_index": 109}, "uniqueid": "MTK1829:3U4J9857OFIJI2O6SDH2VRQB59AB78", "dateTime": 1516477997226}, {"current_trial": 110, "trialdata": {"rt": -1000, "trial_type": "single-audio", "word": "cashew", "stimulus": "/static/audio/wordpool/CASHEW.wav", "conditions": [24, 800, "a", 24000], "internal_node_id": "0.0-83.0", "trial": 2, "time_elapsed": 489026, "serialpos": 21, "key_press": -1, "wordID": 252, "type": "PRES_AUD", "trial_index": 110}, "uniqueid": "MTK1829:3U4J9857OFIJI2O6SDH2VRQB59AB78", "dateTime": 1516477998893}, {"current_trial": 111, "trialdata": {"rt": -1000, "trial_type": "single-audio", "word": "marine", "stimulus": "/static/audio/wordpool/MARINE.wav", "conditions": [24, 800, "a", 24000], "internal_node_id": "0.0-84.0", "trial": 2, "time_elapsed": 490680, "serialpos": 22, "key_press": -1, "wordID": 868, "type": "PRES_AUD", "trial_index": 111}, "uniqueid": "MTK1829:3U4J9857OFIJI2O6SDH2VRQB59AB78", "dateTime": 1516478000547}, {"current_trial": 112, "trialdata": {"rt": -1000, "trial_type": "single-audio", "word": "frame", "stimulus": "/static/audio/wordpool/FRAME.wav", "conditions": [24, 800, "a", 24000], "internal_node_id": "0.0-85.0", "trial": 2, "time_elapsed": 492299, "serialpos": 23, "key_press": -1, "wordID": 599, "type": "PRES_AUD", "trial_index": 112}, "uniqueid": "MTK1829:3U4J9857OFIJI2O6SDH2VRQB59AB78", "dateTime": 1516478002166}, {"current_trial": 113, "trialdata": {"rt": -1, "trial_type": "single-stim", "stimulus": "", "internal_node_id": "0.0-86.0-0.0", "time_elapsed": 493603, "key_press": -1, "type": "PRE_RECALL_DELAY", "trial_index": 113}, "uniqueid": "MTK1829:3U4J9857OFIJI2O6SDH2VRQB59AB78", "dateTime": 1516478003470}, {"current_trial": 114, "trialdata": {"rt": -1000, "trial_type": "single-audio", "stimulus": "/static/audio/400Hz.wav", "internal_node_id": "0.0-87.0", "time_elapsed": 494105, "key_press": -1, "type": "PRE_RECALL_ALERT", "trial_index": 114}, "uniqueid": "MTK1829:3U4J9857OFIJI2O6SDH2VRQB59AB78", "dateTime": 1516478003972}, {"current_trial": 115, "trialdata": {"rt": [2336, 3590, 4703, 6073, 7219, 9423, 11906, 14560, 26148, 47779], "recwords": ["knife", "marine", "frame", "infant", "baby", "pimple", "judge", "banker", "jello", "sphinx"], "key_times": [1364, 1562, 1738, 1894, 2105, 2336, 2606, 2739, 2941, 3043, 3252, 3331, 3590, 3823, 4018, 4220, 4327, 4559, 4703, 5042, 5213, 5392, 5576, 5682, 5920, 6073, 6348, 6563, 6810, 6948, 7219, 7941, 8279, 8561, 8821, 9039, 9145, 9423, 10394, 10579, 10790, 11200, 11380, 11906, 13303, 13495, 13638, 13846, 14033, 14118, 14560, 25203, 25391, 25569, 25723, 25900, 26148, 26169, 45644, 45819, 46849, 47028, 47215, 47418, 47779], "trial_type": "free-recall", "conditions": [24, 800, "a", 24000], "internal_node_id": "0.0-88.0-0.0", "key_presses": [75, 78, 73, 70, 69, 13, 77, 65, 82, 73, 78, 69, 13, 70, 82, 65, 77, 69, 13, 73, 78, 70, 65, 78, 84, 13, 66, 65, 66, 89, 13, 80, 73, 77, 80, 76, 69, 13, 74, 85, 68, 71, 69, 13, 66, 65, 78, 75, 69, 82, 13, 74, 69, 76, 76, 79, 13, 38, 83, 80, 72, 73, 78, 88, 13], "trial": 2, "time_elapsed": 554109, "type": "FREE_RECALL", "trial_index": 115}, "uniqueid": "MTK1829:3U4J9857OFIJI2O6SDH2VRQB59AB78", "dateTime": 1516478063979}, {"current_trial": 116, "trialdata": {"rt": 1213, "trial_type": "text", "internal_node_id": "0.0-89.0", "time_elapsed": 557326, "key_press": 32, "type": "INSTRUCTIONS", "trial_index": 116}, "uniqueid": "MTK1829:3U4J9857OFIJI2O6SDH2VRQB59AB78", "dateTime": 1516478067194}, {"current_trial": 117, "trialdata": {"rt": [3254, 5849, 8710, 11200, 13127, 15517, 17580, 21546], "trial_type": "math-distractor", "key_times": [2006, 2283, 2569, 3254, 5365, 5569, 5849, 8193, 8446, 8710, 10773, 10957, 11200, 12682, 12880, 13127, 14961, 15268, 15517, 17079, 17317, 17580, 19633, 19812, 20688, 21130, 21546, 23971], "responses": ["16 ", "20", "15", "20", "20", "16", "13", "22"], "num2": [3, 8, 7, 6, 7, 4, 5, 7, 6], "num3": [4, 8, 3, 8, 7, 8, 6, 9, 5], "conditions": [12, 1600, "a", 24000], "internal_node_id": "0.0-90.0", "key_presses": [97, 102, 32, 13, 98, 96, 13, 97, 101, 13, 98, 96, 13, 98, 96, 13, 97, 102, 13, 97, 99, 13, 98, 97, 8, 98, 13, 97], "trial": 3, "time_elapsed": 583331, "type": "DISTRACTOR", "trial_index": 117, "num1": [9, 4, 5, 6, 6, 4, 2, 6, 1]}, "uniqueid": "MTK1829:3U4J9857OFIJI2O6SDH2VRQB59AB78", "dateTime": 1516478093198}, {"current_trial": 118, "trialdata": {"rt": -1, "trial_type": "single-stim", "stimulus": "<p id=\"stim\">10</p>", "internal_node_id": "0.0-91.0-0.0", "time_elapsed": 586336, "key_press": -1, "trial_index": 118}, "uniqueid": "MTK1829:3U4J9857OFIJI2O6SDH2VRQB59AB78", "dateTime": 1516478096203}, {"current_trial": 119, "trialdata": {"rt": -1, "trial_type": "single-stim", "stimulus": "<p id=\"stim\">9</p>", "internal_node_id": "0.0-91.0-1.0", "time_elapsed": 587339, "key_press": -1, "trial_index": 119}, "uniqueid": "MTK1829:3U4J9857OFIJI2O6SDH2VRQB59AB78", "dateTime": 1516478097206}, {"current_trial": 120, "trialdata": {"rt": -1, "trial_type": "single-stim", "stimulus": "<p id=\"stim\">8</p>", "internal_node_id": "0.0-91.0-2.0", "time_elapsed": 588341, "key_press": -1, "trial_index": 120}, "uniqueid": "MTK1829:3U4J9857OFIJI2O6SDH2VRQB59AB78", "dateTime": 1516478098208}, {"current_trial": 121, "trialdata": {"rt": -1, "trial_type": "single-stim", "stimulus": "<p id=\"stim\">7</p>", "internal_node_id": "0.0-91.0-3.0", "time_elapsed": 589344, "key_press": -1, "trial_index": 121}, "uniqueid": "MTK1829:3U4J9857OFIJI2O6SDH2VRQB59AB78", "dateTime": 1516478099211}, {"current_trial": 122, "trialdata": {"rt": -1, "trial_type": "single-stim", "stimulus": "<p id=\"stim\">6</p>", "internal_node_id": "0.0-91.0-4.0", "time_elapsed": 590347, "key_press": -1, "trial_index": 122}, "uniqueid": "MTK1829:3U4J9857OFIJI2O6SDH2VRQB59AB78", "dateTime": 1516478100214}, {"current_trial": 123, "trialdata": {"rt": -1, "trial_type": "single-stim", "stimulus": "<p id=\"stim\">5</p>", "internal_node_id": "0.0-91.0-5.0", "time_elapsed": 591348, "key_press": -1, "trial_index": 123}, "uniqueid": "MTK1829:3U4J9857OFIJI2O6SDH2VRQB59AB78", "dateTime": 1516478101215}, {"current_trial": 124, "trialdata": {"rt": -1, "trial_type": "single-stim", "stimulus": "<p id=\"stim\">4</p>", "internal_node_id": "0.0-91.0-6.0", "time_elapsed": 592349, "key_press": -1, "trial_index": 124}, "uniqueid": "MTK1829:3U4J9857OFIJI2O6SDH2VRQB59AB78", "dateTime": 1516478102216}, {"current_trial": 125, "trialdata": {"rt": -1, "trial_type": "single-stim", "stimulus": "<p id=\"stim\">3</p>", "internal_node_id": "0.0-91.0-7.0", "time_elapsed": 593351, "key_press": -1, "trial_index": 125}, "uniqueid": "MTK1829:3U4J9857OFIJI2O6SDH2VRQB59AB78", "dateTime": 1516478103218}, {"current_trial": 126, "trialdata": {"rt": -1, "trial_type": "single-stim", "stimulus": "<p id=\"stim\">2</p>", "internal_node_id": "0.0-91.0-8.0", "time_elapsed": 594353, "key_press": -1, "trial_index": 126}, "uniqueid": "MTK1829:3U4J9857OFIJI2O6SDH2VRQB59AB78", "dateTime": 1516478104220}, {"current_trial": 127, "trialdata": {"rt": -1, "trial_type": "single-stim", "stimulus": "<p id=\"stim\">1</p>", "internal_node_id": "0.0-91.0-9.0", "time_elapsed": 595356, "key_press": -1, "trial_index": 127}, "uniqueid": "MTK1829:3U4J9857OFIJI2O6SDH2VRQB59AB78", "dateTime": 1516478105223}, {"current_trial": 128, "trialdata": {"rt": -1, "trial_type": "single-stim", "stimulus": "<p id=\"stim\">+</p>", "internal_node_id": "0.0-92.0-0.0", "time_elapsed": 596858, "key_press": -1, "type": "FIXATION", "trial_index": 128}, "uniqueid": "MTK1829:3U4J9857OFIJI2O6SDH2VRQB59AB78", "dateTime": 1516478106725}, {"current_trial": 129, "trialdata": {"rt": -1000, "trial_type": "single-audio", "word": "diner", "stimulus": "/static/audio/wordpool/DINER.wav", "conditions": [12, 1600, "a", 24000], "internal_node_id": "0.0-93.0", "trial": 3, "time_elapsed": 599522, "serialpos": 0, "key_press": -1, "wordID": 466, "type": "PRES_AUD", "trial_index": 129}, "uniqueid": "MTK1829:3U4J9857OFIJI2O6SDH2VRQB59AB78", "dateTime": 1516478109389}, {"current_trial": 130, "trialdata": {"rt": -1000, "trial_type": "single-audio", "word": "briefcase", "stimulus": "/static/audio/wordpool/BRIEFCASE.wav", "conditions": [12, 1600, "a", 24000], "internal_node_id": "0.0-94.0", "trial": 3, "time_elapsed": 602189, "serialpos": 1, "key_press": -1, "wordID": 174, "type": "PRES_AUD", "trial_index": 130}, "uniqueid": "MTK1829:3U4J9857OFIJI2O6SDH2VRQB59AB78", "dateTime": 1516478112056}, {"current_trial": 131, "trialdata": {"rt": -1000, "trial_type": "single-audio", "word": "inmate", "stimulus": "/static/audio/wordpool/INMATE.wav", "conditions": [12, 1600, "a", 24000], "internal_node_id": "0.0-95.0", "trial": 3, "time_elapsed": 604769, "serialpos": 2, "key_press": -1, "wordID": 737, "type": "PRES_AUD", "trial_index": 131}, "uniqueid": "MTK1829:3U4J9857OFIJI2O6SDH2VRQB59AB78", "dateTime": 1516478114636}, {"current_trial": 132, "trialdata": {"rt": -1000, "trial_type": "single-audio", "word": "scarecrow", "stimulus": "/static/audio/wordpool/SCARECROW.wav", "conditions": [12, 1600, "a", 24000], "internal_node_id": "0.0-96.0", "trial": 3, "time_elapsed": 607226, "serialpos": 3, "key_press": -1, "wordID": 1244, "type": "PRES_AUD", "trial_index": 132}, "uniqueid": "MTK1829:3U4J9857OFIJI2O6SDH2VRQB59AB78", "dateTime": 1516478117093}, {"current_trial": 133, "trialdata": {"rt": -1000, "trial_type": "single-audio", "word": "wasp", "stimulus": "/static/audio/wordpool/WASP.wav", "conditions": [12, 1600, "a", 24000], "internal_node_id": "0.0-97.0", "trial": 3, "time_elapsed": 609730, "serialpos": 4, "key_press": -1, "wordID": 1592, "type": "PRES_AUD", "trial_index": 133}, "uniqueid": "MTK1829:3U4J9857OFIJI2O6SDH2VRQB59AB78", "dateTime": 1516478119598}, {"current_trial": 134, "trialdata": {"rt": -1000, "trial_type": "single-audio", "word": "hound", "stimulus": "/static/audio/wordpool/HOUND.wav", "conditions": [12, 1600, "a", 24000], "internal_node_id": "0.0-98.0", "trial": 3, "time_elapsed": 612156, "serialpos": 5, "key_press": -1, "wordID": 723, "type": "PRES_AUD", "trial_index": 134}, "uniqueid": "MTK1829:3U4J9857OFIJI2O6SDH2VRQB59AB78", "dateTime": 1516478122025}, {"current_trial": 135, "trialdata": {"rt": -1000, "trial_type": "single-audio", "word": "truck", "stimulus": "/static/audio/wordpool/TRUCK.wav", "conditions": [12, 1600, "a", 24000], "internal_node_id": "0.0-99.0", "trial": 3, "time_elapsed": 614706, "serialpos": 6, "key_press": -1, "wordID": 1511, "type": "PRES_AUD", "trial_index": 135}, "uniqueid": "MTK1829:3U4J9857OFIJI2O6SDH2VRQB59AB78", "dateTime": 1516478124573}, {"current_trial": 136, "trialdata": {"rt": -1000, "trial_type": "single-audio", "word": "forest", "stimulus": "/static/audio/wordpool/FOREST.wav", "conditions": [12, 1600, "a", 24000], "internal_node_id": "0.0-100.0", "trial": 3, "time_elapsed": 617303, "serialpos": 7, "key_press": -1, "wordID": 592, "type": "PRES_AUD", "trial_index": 136}, "uniqueid": "MTK1829:3U4J9857OFIJI2O6SDH2VRQB59AB78", "dateTime": 1516478127170}, {"current_trial": 137, "trialdata": {"rt": -1000, "trial_type": "single-audio", "word": "fruit", "stimulus": "/static/audio/wordpool/FRUIT.wav", "conditions": [12, 1600, "a", 24000], "internal_node_id": "0.0-101.0", "trial": 3, "time_elapsed": 619949, "serialpos": 8, "key_press": -1, "wordID": 609, "type": "PRES_AUD", "trial_index": 137}, "uniqueid": "MTK1829:3U4J9857OFIJI2O6SDH2VRQB59AB78", "dateTime": 1516478129816}, {"current_trial": 138, "trialdata": {"rt": -1000, "trial_type": "single-audio", "word": "grape", "stimulus": "/static/audio/wordpool/GRAPE.wav", "conditions": [12, 1600, "a", 24000], "internal_node_id": "0.0-102.0", "trial": 3, "time_elapsed": 622355, "serialpos": 9, "key_press": -1, "wordID": 653, "type": "PRES_AUD", "trial_index": 138}, "uniqueid": "MTK1829:3U4J9857OFIJI2O6SDH2VRQB59AB78", "dateTime": 1516478132222}, {"current_trial": 139, "trialdata": {"rt": -1000, "trial_type": "single-audio", "word": "pizza", "stimulus": "/static/audio/wordpool/PIZZA.wav", "conditions": [12, 1600, "a", 24000], "internal_node_id": "0.0-103.0", "trial": 3, "time_elapsed": 625052, "serialpos": 10, "key_press": -1, "wordID": 1078, "type": "PRES_AUD", "trial_index": 139}, "uniqueid": "MTK1829:3U4J9857OFIJI2O6SDH2VRQB59AB78", "dateTime": 1516478134919}, {"current_trial": 140, "trialdata": {"rt": -1000, "trial_type": "single-audio", "word": "canal", "stimulus": "/static/audio/wordpool/CANAL.wav", "conditions": [12, 1600, "a", 24000], "internal_node_id": "0.0-104.0", "trial": 3, "time_elapsed": 627598, "serialpos": 11, "key_press": -1, "wordID": 225, "type": "PRES_AUD", "trial_index": 140}, "uniqueid": "MTK1829:3U4J9857OFIJI2O6SDH2VRQB59AB78", "dateTime": 1516478137466}, {"current_trial": 141, "trialdata": {"rt": -1, "trial_type": "single-stim", "stimulus": "", "internal_node_id": "0.0-105.0-0.0", "time_elapsed": 628867, "key_press": -1, "type": "PRE_RECALL_DELAY", "trial_index": 141}, "uniqueid": "MTK1829:3U4J9857OFIJI2O6SDH2VRQB59AB78", "dateTime": 1516478138734}, {"current_trial": 142, "trialdata": {"rt": -1000, "trial_type": "single-audio", "stimulus": "/static/audio/400Hz.wav", "internal_node_id": "0.0-106.0", "time_elapsed": 629368, "key_press": -1, "type": "PRE_RECALL_ALERT", "trial_index": 142}, "uniqueid": "MTK1829:3U4J9857OFIJI2O6SDH2VRQB59AB78", "dateTime": 1516478139235}, {"current_trial": 143, "trialdata": {"rt": [1387, 3191, 5038, 7078, 11354, 21596], "recwords": ["canal", "inmate", "grape", "pizza", "forrest", "fruit"], "key_times": [437, 704, 820, 1001, 1113, 1387, 1898, 2078, 2323, 2422, 2670, 2882, 3191, 3782, 3992, 4188, 4338, 4515, 5038, 5716, 5932, 6267, 6438, 6785, 7078, 9972, 10148, 10286, 10453, 10614, 10801, 10987, 11354, 20317, 20594, 20705, 21059, 21279, 21596], "trial_type": "free-recall", "conditions": [12, 1600, "a", 24000], "internal_node_id": "0.0-107.0-0.0", "key_presses": [67, 65, 78, 65, 76, 13, 73, 78, 77, 65, 84, 69, 13, 71, 82, 65, 80, 69, 13, 80, 73, 90, 90, 65, 13, 70, 79, 82, 82, 69, 83, 84, 13, 70, 82, 85, 73, 84, 13], "trial": 3, "time_elapsed": 689372, "type": "FREE_RECALL", "trial_index": 143}, "uniqueid": "MTK1829:3U4J9857OFIJI2O6SDH2VRQB59AB78", "dateTime": 1516478199242}, {"current_trial": 144, "trialdata": {"rt": 4135, "trial_type": "text", "internal_node_id": "0.0-108.0", "time_elapsed": 695512, "key_press": 32, "type": "INSTRUCTIONS", "trial_index": 144}, "uniqueid": "MTK1829:3U4J9857OFIJI2O6SDH2VRQB59AB78", "dateTime": 1516478205379}, {"current_trial": 145, "trialdata": {"rt": [2766, 4767, 7800, 12353, 14226, 16106, 17772, 19643, 21428, 23455], "trial_type": "math-distractor", "key_times": [2120, 2405, 2766, 4377, 4767, 7194, 7474, 7800, 11919, 12097, 12353, 13689, 13941, 14226, 15563, 15815, 16106, 17297, 17524, 17772, 19123, 19350, 19643, 20892, 21162, 21428, 23079, 23225, 23455], "responses": ["15", "7", "14", "20", "14", "18", "10", "11", "16", "11"], "num2": [7, 1, 9, 3, 6, 2, 1, 2, 7, 4, 8], "num3": [6, 2, 2, 9, 3, 8, 1, 4, 2, 4, 5], "conditions": [24, 1600, "a", 24000], "internal_node_id": "0.0-109.0", "key_presses": [97, 101, 13, 103, 13, 97, 100, 13, 98, 96, 13, 97, 100, 13, 97, 104, 13, 97, 96, 13, 97, 97, 13, 97, 102, 13, 97, 97, 13], "trial": 4, "time_elapsed": 721516, "type": "DISTRACTOR", "trial_index": 145, "num1": [2, 4, 3, 8, 5, 8, 8, 5, 7, 3, 1]}, "uniqueid": "MTK1829:3U4J9857OFIJI2O6SDH2VRQB59AB78", "dateTime": 1516478231383}, {"current_trial": 146, "trialdata": {"rt": -1, "trial_type": "single-stim", "stimulus": "<p id=\"stim\">10</p>", "internal_node_id": "0.0-110.0-0.0", "time_elapsed": 724518, "key_press": -1, "trial_index": 146}, "uniqueid": "MTK1829:3U4J9857OFIJI2O6SDH2VRQB59AB78", "dateTime": 1516478234385}, {"current_trial": 147, "trialdata": {"rt": -1, "trial_type": "single-stim", "stimulus": "<p id=\"stim\">9</p>", "internal_node_id": "0.0-110.0-1.0", "time_elapsed": 725519, "key_press": -1, "trial_index": 147}, "uniqueid": "MTK1829:3U4J9857OFIJI2O6SDH2VRQB59AB78", "dateTime": 1516478235386}, {"current_trial": 148, "trialdata": {"rt": -1, "trial_type": "single-stim", "stimulus": "<p id=\"stim\">8</p>", "internal_node_id": "0.0-110.0-2.0", "time_elapsed": 726520, "key_press": -1, "trial_index": 148}, "uniqueid": "MTK1829:3U4J9857OFIJI2O6SDH2VRQB59AB78", "dateTime": 1516478236387}, {"current_trial": 149, "trialdata": {"rt": -1, "trial_type": "single-stim", "stimulus": "<p id=\"stim\">7</p>", "internal_node_id": "0.0-110.0-3.0", "time_elapsed": 727521, "key_press": -1, "trial_index": 149}, "uniqueid": "MTK1829:3U4J9857OFIJI2O6SDH2VRQB59AB78", "dateTime": 1516478237388}, {"current_trial": 150, "trialdata": {"rt": -1, "trial_type": "single-stim", "stimulus": "<p id=\"stim\">6</p>", "internal_node_id": "0.0-110.0-4.0", "time_elapsed": 728523, "key_press": -1, "trial_index": 150}, "uniqueid": "MTK1829:3U4J9857OFIJI2O6SDH2VRQB59AB78", "dateTime": 1516478238390}, {"current_trial": 151, "trialdata": {"rt": -1, "trial_type": "single-stim", "stimulus": "<p id=\"stim\">5</p>", "internal_node_id": "0.0-110.0-5.0", "time_elapsed": 729525, "key_press": -1, "trial_index": 151}, "uniqueid": "MTK1829:3U4J9857OFIJI2O6SDH2VRQB59AB78", "dateTime": 1516478239392}, {"current_trial": 152, "trialdata": {"rt": -1, "trial_type": "single-stim", "stimulus": "<p id=\"stim\">4</p>", "internal_node_id": "0.0-110.0-6.0", "time_elapsed": 730527, "key_press": -1, "trial_index": 152}, "uniqueid": "MTK1829:3U4J9857OFIJI2O6SDH2VRQB59AB78", "dateTime": 1516478240394}, {"current_trial": 153, "trialdata": {"rt": -1, "trial_type": "single-stim", "stimulus": "<p id=\"stim\">3</p>", "internal_node_id": "0.0-110.0-7.0", "time_elapsed": 731528, "key_press": -1, "trial_index": 153}, "uniqueid": "MTK1829:3U4J9857OFIJI2O6SDH2VRQB59AB78", "dateTime": 1516478241395}, {"current_trial": 154, "trialdata": {"rt": -1, "trial_type": "single-stim", "stimulus": "<p id=\"stim\">2</p>", "internal_node_id": "0.0-110.0-8.0", "time_elapsed": 732530, "key_press": -1, "trial_index": 154}, "uniqueid": "MTK1829:3U4J9857OFIJI2O6SDH2VRQB59AB78", "dateTime": 1516478242397}, {"current_trial": 155, "trialdata": {"rt": -1, "trial_type": "single-stim", "stimulus": "<p id=\"stim\">1</p>", "internal_node_id": "0.0-110.0-9.0", "time_elapsed": 733533, "key_press": -1, "trial_index": 155}, "uniqueid": "MTK1829:3U4J9857OFIJI2O6SDH2VRQB59AB78", "dateTime": 1516478243400}, {"current_trial": 156, "trialdata": {"rt": -1, "trial_type": "single-stim", "stimulus": "<p id=\"stim\">+</p>", "internal_node_id": "0.0-111.0-0.0", "time_elapsed": 735036, "key_press": -1, "type": "FIXATION", "trial_index": 156}, "uniqueid": "MTK1829:3U4J9857OFIJI2O6SDH2VRQB59AB78", "dateTime": 1516478244903}, {"current_trial": 157, "trialdata": {"rt": -1000, "trial_type": "single-audio", "word": "sword", "stimulus": "/static/audio/wordpool/SWORD.wav", "conditions": [24, 1600, "a", 24000], "internal_node_id": "0.0-112.0", "trial": 4, "time_elapsed": 737498, "serialpos": 0, "key_press": -1, "wordID": 1422, "type": "PRES_AUD", "trial_index": 157}, "uniqueid": "MTK1829:3U4J9857OFIJI2O6SDH2VRQB59AB78", "dateTime": 1516478247365}, {"current_trial": 158, "trialdata": {"rt": -1000, "trial_type": "single-audio", "word": "kitchen", "stimulus": "/static/audio/wordpool/KITCHEN.wav", "conditions": [24, 1600, "a", 24000], "internal_node_id": "0.0-113.0", "trial": 4, "time_elapsed": 740044, "serialpos": 1, "key_press": -1, "wordID": 777, "type": "PRES_AUD", "trial_index": 158}, "uniqueid": "MTK1829:3U4J9857OFIJI2O6SDH2VRQB59AB78", "dateTime": 1516478249911}, {"current_trial": 159, "trialdata": {"rt": -1000, "trial_type": "single-audio", "word": "fireplace", "stimulus": "/static/audio/wordpool/FIREPLACE.wav", "conditions": [24, 1600, "a", 24000], "internal_node_id": "0.0-114.0", "trial": 4, "time_elapsed": 742834, "serialpos": 2, "key_press": -1, "wordID": 569, "type": "PRES_AUD", "trial_index": 159}, "uniqueid": "MTK1829:3U4J9857OFIJI2O6SDH2VRQB59AB78", "dateTime": 1516478252702}, {"current_trial": 160, "trialdata": {"rt": -1000, "trial_type": "single-audio", "word": "donor", "stimulus": "/static/audio/wordpool/DONOR.wav", "conditions": [24, 1600, "a", 24000], "internal_node_id": "0.0-115.0", "trial": 4, "time_elapsed": 745314, "serialpos": 3, "key_press": -1, "wordID": 484, "type": "PRES_AUD", "trial_index": 160}, "uniqueid": "MTK1829:3U4J9857OFIJI2O6SDH2VRQB59AB78", "dateTime": 1516478255181}, {"current_trial": 161, "trialdata": {"rt": -1000, "trial_type": "single-audio", "word": "daisy", "stimulus": "/static/audio/wordpool/DAISY.wav", "conditions": [24, 1600, "a", 24000], "internal_node_id": "0.0-116.0", "trial": 4, "time_elapsed": 747926, "serialpos": 4, "key_press": -1, "wordID": 434, "type": "PRES_AUD", "trial_index": 161}, "uniqueid": "MTK1829:3U4J9857OFIJI2O6SDH2VRQB59AB78", "dateTime": 1516478257793}, {"current_trial": 162, "trialdata": {"rt": -1000, "trial_type": "single-audio", "word": "ointment", "stimulus": "/static/audio/wordpool/OINTMENT.wav", "conditions": [24, 1600, "a", 24000], "internal_node_id": "0.0-117.0", "trial": 4, "time_elapsed": 750381, "serialpos": 5, "key_press": -1, "wordID": 973, "type": "PRES_AUD", "trial_index": 162}, "uniqueid": "MTK1829:3U4J9857OFIJI2O6SDH2VRQB59AB78", "dateTime": 1516478260248}, {"current_trial": 163, "trialdata": {"rt": -1000, "trial_type": "single-audio", "word": "tunnel", "stimulus": "/static/audio/wordpool/TUNNEL.wav", "conditions": [24, 1600, "a", 24000], "internal_node_id": "0.0-118.0", "trial": 4, "time_elapsed": 753138, "serialpos": 6, "key_press": -1, "wordID": 1518, "type": "PRES_AUD", "trial_index": 163}, "uniqueid": "MTK1829:3U4J9857OFIJI2O6SDH2VRQB59AB78", "dateTime": 1516478263005}, {"current_trial": 164, "trialdata": {"rt": -1000, "trial_type": "single-audio", "word": "laser", "stimulus": "/static/audio/wordpool/LASER.wav", "conditions": [24, 1600, "a", 24000], "internal_node_id": "0.0-119.0", "trial": 4, "time_elapsed": 755819, "serialpos": 7, "key_press": -1, "wordID": 800, "type": "PRES_AUD", "trial_index": 164}, "uniqueid": "MTK1829:3U4J9857OFIJI2O6SDH2VRQB59AB78", "dateTime": 1516478265686}, {"current_trial": 165, "trialdata": {"rt": -1000, "trial_type": "single-audio", "word": "flower", "stimulus": "/static/audio/wordpool/FLOWER.wav", "conditions": [24, 1600, "a", 24000], "internal_node_id": "0.0-120.0", "trial": 4, "time_elapsed": 758611, "serialpos": 8, "key_press": -1, "wordID": 583, "type": "PRES_AUD", "trial_index": 165}, "uniqueid": "MTK1829:3U4J9857OFIJI2O6SDH2VRQB59AB78", "dateTime": 1516478268479}, {"current_trial": 166, "trialdata": {"rt": -1000, "trial_type": "single-audio", "word": "dandruff", "stimulus": "/static/audio/wordpool/DANDRUFF.wav", "conditions": [24, 1600, "a", 24000], "internal_node_id": "0.0-121.0", "trial": 4, "time_elapsed": 761270, "serialpos": 9, "key_press": -1, "wordID": 438, "type": "PRES_AUD", "trial_index": 166}, "uniqueid": "MTK1829:3U4J9857OFIJI2O6SDH2VRQB59AB78", "dateTime": 1516478271137}, {"current_trial": 167, "trialdata": {"rt": -1000, "trial_type": "single-audio", "word": "mildew", "stimulus": "/static/audio/wordpool/MILDEW.wav", "conditions": [24, 1600, "a", 24000], "internal_node_id": "0.0-122.0", "trial": 4, "time_elapsed": 763731, "serialpos": 10, "key_press": -1, "wordID": 892, "type": "PRES_AUD", "trial_index": 167}, "uniqueid": "MTK1829:3U4J9857OFIJI2O6SDH2VRQB59AB78", "dateTime": 1516478273598}, {"current_trial": 168, "trialdata": {"rt": -1000, "trial_type": "single-audio", "word": "balloon", "stimulus": "/static/audio/wordpool/BALLOON.wav", "conditions": [24, 1600, "a", 24000], "internal_node_id": "0.0-123.0", "trial": 4, "time_elapsed": 766287, "serialpos": 11, "key_press": -1, "wordID": 74, "type": "PRES_AUD", "trial_index": 168}, "uniqueid": "MTK1829:3U4J9857OFIJI2O6SDH2VRQB59AB78", "dateTime": 1516478276154}, {"current_trial": 169, "trialdata": {"rt": -1000, "trial_type": "single-audio", "word": "county", "stimulus": "/static/audio/wordpool/COUNTY.wav", "conditions": [24, 1600, "a", 24000], "internal_node_id": "0.0-124.0", "trial": 4, "time_elapsed": 768749, "serialpos": 12, "key_press": -1, "wordID": 388, "type": "PRES_AUD", "trial_index": 169}, "uniqueid": "MTK1829:3U4J9857OFIJI2O6SDH2VRQB59AB78", "dateTime": 1516478278617}, {"current_trial": 170, "trialdata": {"rt": -1000, "trial_type": "single-audio", "word": "casket", "stimulus": "/static/audio/wordpool/CASKET.wav", "conditions": [24, 1600, "a", 24000], "internal_node_id": "0.0-125.0", "trial": 4, "time_elapsed": 771197, "serialpos": 13, "key_press": -1, "wordID": 254, "type": "PRES_AUD", "trial_index": 170}, "uniqueid": "MTK1829:3U4J9857OFIJI2O6SDH2VRQB59AB78", "dateTime": 1516478281065}, {"current_trial": 171, "trialdata": {"rt": -1000, "trial_type": "single-audio", "word": "loft", "stimulus": "/static/audio/wordpool/LOFT.wav", "conditions": [24, 1600, "a", 24000], "internal_node_id": "0.0-126.0", "trial": 4, "time_elapsed": 773895, "serialpos": 14, "key_press": -1, "wordID": 839, "type": "PRES_AUD", "trial_index": 171}, "uniqueid": "MTK1829:3U4J9857OFIJI2O6SDH2VRQB59AB78", "dateTime": 1516478283762}, {"current_trial": 172, "trialdata": {"rt": -1000, "trial_type": "single-audio", "word": "student", "stimulus": "/static/audio/wordpool/STUDENT.wav", "conditions": [24, 1600, "a", 24000], "internal_node_id": "0.0-127.0", "trial": 4, "time_elapsed": 776650, "serialpos": 15, "key_press": -1, "wordID": 1394, "type": "PRES_AUD", "trial_index": 172}, "uniqueid": "MTK1829:3U4J9857OFIJI2O6SDH2VRQB59AB78", "dateTime": 1516478286517}, {"current_trial": 173, "trialdata": {"rt": -1000, "trial_type": "single-audio", "word": "girl", "stimulus": "/static/audio/wordpool/GIRL.wav", "conditions": [24, 1600, "a", 24000], "internal_node_id": "0.0-128.0", "trial": 4, "time_elapsed": 779067, "serialpos": 16, "key_press": -1, "wordID": 636, "type": "PRES_AUD", "trial_index": 173}, "uniqueid": "MTK1829:3U4J9857OFIJI2O6SDH2VRQB59AB78", "dateTime": 1516478288934}, {"current_trial": 174, "trialdata": {"rt": -1000, "trial_type": "single-audio", "word": "tombstone", "stimulus": "/static/audio/wordpool/TOMBSTONE.wav", "conditions": [24, 1600, "a", 24000], "internal_node_id": "0.0-129.0", "trial": 4, "time_elapsed": 781675, "serialpos": 17, "key_press": -1, "wordID": 1477, "type": "PRES_AUD", "trial_index": 174}, "uniqueid": "MTK1829:3U4J9857OFIJI2O6SDH2VRQB59AB78", "dateTime": 1516478291542}, {"current_trial": 175, "trialdata": {"rt": -1000, "trial_type": "single-audio", "word": "garden", "stimulus": "/static/audio/wordpool/GARDEN.wav", "conditions": [24, 1600, "a", 24000], "internal_node_id": "0.0-130.0", "trial": 4, "time_elapsed": 784457, "serialpos": 18, "key_press": -1, "wordID": 622, "type": "PRES_AUD", "trial_index": 175}, "uniqueid": "MTK1829:3U4J9857OFIJI2O6SDH2VRQB59AB78", "dateTime": 1516478294324}, {"current_trial": 176, "trialdata": {"rt": -1000, "trial_type": "single-audio", "word": "shrub", "stimulus": "/static/audio/wordpool/SHRUB.wav", "conditions": [24, 1600, "a", 24000], "internal_node_id": "0.0-131.0", "trial": 4, "time_elapsed": 787176, "serialpos": 19, "key_press": -1, "wordID": 1298, "type": "PRES_AUD", "trial_index": 176}, "uniqueid": "MTK1829:3U4J9857OFIJI2O6SDH2VRQB59AB78", "dateTime": 1516478297043}, {"current_trial": 177, "trialdata": {"rt": -1000, "trial_type": "single-audio", "word": "hatchet", "stimulus": "/static/audio/wordpool/HATCHET.wav", "conditions": [24, 1600, "a", 24000], "internal_node_id": "0.0-132.0", "trial": 4, "time_elapsed": 789577, "serialpos": 20, "key_press": -1, "wordID": 690, "type": "PRES_AUD", "trial_index": 177}, "uniqueid": "MTK1829:3U4J9857OFIJI2O6SDH2VRQB59AB78", "dateTime": 1516478299444}, {"current_trial": 178, "trialdata": {"rt": -1000, "trial_type": "single-audio", "word": "body", "stimulus": "/static/audio/wordpool/BODY.wav", "conditions": [24, 1600, "a", 24000], "internal_node_id": "0.0-133.0", "trial": 4, "time_elapsed": 792206, "serialpos": 21, "key_press": -1, "wordID": 144, "type": "PRES_AUD", "trial_index": 178}, "uniqueid": "MTK1829:3U4J9857OFIJI2O6SDH2VRQB59AB78", "dateTime": 1516478302073}, {"current_trial": 179, "trialdata": {"rt": -1000, "trial_type": "single-audio", "word": "viking", "stimulus": "/static/audio/wordpool/VIKING.wav", "conditions": [24, 1600, "a", 24000], "internal_node_id": "0.0-134.0", "trial": 4, "time_elapsed": 794669, "serialpos": 22, "key_press": -1, "wordID": 1564, "type": "PRES_AUD", "trial_index": 179}, "uniqueid": "MTK1829:3U4J9857OFIJI2O6SDH2VRQB59AB78", "dateTime": 1516478304536}, {"current_trial": 180, "trialdata": {"rt": -1000, "trial_type": "single-audio", "word": "antler", "stimulus": "/static/audio/wordpool/ANTLER.wav", "conditions": [24, 1600, "a", 24000], "internal_node_id": "0.0-135.0", "trial": 4, "time_elapsed": 797205, "serialpos": 23, "key_press": -1, "wordID": 28, "type": "PRES_AUD", "trial_index": 180}, "uniqueid": "MTK1829:3U4J9857OFIJI2O6SDH2VRQB59AB78", "dateTime": 1516478307072}, {"current_trial": 181, "trialdata": {"rt": -1, "trial_type": "single-stim", "stimulus": "", "internal_node_id": "0.0-136.0-0.0", "time_elapsed": 798504, "key_press": -1, "type": "PRE_RECALL_DELAY", "trial_index": 181}, "uniqueid": "MTK1829:3U4J9857OFIJI2O6SDH2VRQB59AB78", "dateTime": 1516478308372}, {"current_trial": 182, "trialdata": {"rt": -1000, "trial_type": "single-audio", "stimulus": "/static/audio/400Hz.wav", "internal_node_id": "0.0-137.0", "time_elapsed": 799005, "key_press": -1, "type": "PRE_RECALL_ALERT", "trial_index": 182}, "uniqueid": "MTK1829:3U4J9857OFIJI2O6SDH2VRQB59AB78", "dateTime": 1516478308872}, {"current_trial": 183, "trialdata": {"rt": [1519, 2791, 3951, 5974, 7499, 9589, 11395, 13302, 18973, 53630], "recwords": ["antler", "viking", "sword", "hatchet", "donor", "fireplace", "kitchen", "body", "girl", "ointment"], "key_times": [361, 551, 987, 1152, 1295, 1359, 1519, 1848, 1970, 2207, 2415, 2542, 2648, 2791, 3106, 3328, 3461, 3601, 3828, 3951, 4489, 4698, 4943, 5171, 5288, 5467, 5842, 5974, 6254, 6408, 6629, 7140, 7266, 7499, 7765, 7907, 8024, 8240, 8666, 8892, 8988, 9239, 9438, 9589, 9937, 10132, 10315, 10574, 10738, 11018, 11164, 11395, 11787, 11966, 12225, 12483, 13302, 18285, 18391, 18553, 18685, 18973, 44361, 44657, 45101, 47035, 47237, 47763, 47800, 47837, 47874, 52154, 52315, 52552, 52711, 52938, 53298, 53398, 53494, 53630], "trial_type": "free-recall", "conditions": [24, 1600, "a", 24000], "internal_node_id": "0.0-138.0-0.0", "key_presses": [65, 78, 84, 76, 69, 82, 13, 86, 73, 75, 73, 78, 71, 13, 83, 87, 79, 82, 68, 13, 72, 65, 84, 67, 72, 69, 84, 13, 68, 79, 78, 79, 82, 13, 70, 73, 82, 69, 80, 76, 65, 67, 69, 13, 75, 73, 84, 67, 72, 69, 78, 13, 66, 79, 68, 89, 13, 71, 73, 82, 76, 13, 67, 65, 78, 8, 8, 8, 8, 8, 8, 79, 73, 78, 84, 77, 69, 78, 84, 32], "trial": 4, "time_elapsed": 859008, "type": "FREE_RECALL", "trial_index": 183}, "uniqueid": "MTK1829:3U4J9857OFIJI2O6SDH2VRQB59AB78", "dateTime": 1516478368879}, {"current_trial": 184, "trialdata": {"rt": 1022, "trial_type": "text", "internal_node_id": "0.0-139.0", "time_elapsed": 862035, "key_press": 32, "type": "INSTRUCTIONS", "trial_index": 184}, "uniqueid": "MTK1829:3U4J9857OFIJI2O6SDH2VRQB59AB78", "dateTime": 1516478371902}, {"current_trial": 185, "trialdata": {"rt": [3976, 6680, 8540, 10575], "trial_type": "math-distractor", "key_times": [3253, 3591, 3976, 6132, 6380, 6680, 7955, 8228, 8540, 9960, 10253, 10575], "responses": ["17", "15", "16", "18"], "num2": [6, 4, 7, 4, 1], "num3": [4, 9, 7, 7, 5], "conditions": [12, 1600, "a", 12000], "internal_node_id": "0.0-140.0", "key_presses": [97, 103, 13, 97, 101, 13, 97, 102, 13, 97, 104, 13], "trial": 5, "time_elapsed": 876038, "type": "DISTRACTOR", "trial_index": 185, "num1": [7, 2, 2, 7, 2]}, "uniqueid": "MTK1829:3U4J9857OFIJI2O6SDH2VRQB59AB78", "dateTime": 1516478385905}, {"current_trial": 186, "trialdata": {"rt": -1, "trial_type": "single-stim", "stimulus": "<p id=\"stim\">10</p>", "internal_node_id": "0.0-141.0-0.0", "time_elapsed": 879041, "key_press": -1, "trial_index": 186}, "uniqueid": "MTK1829:3U4J9857OFIJI2O6SDH2VRQB59AB78", "dateTime": 1516478388908}, {"current_trial": 187, "trialdata": {"rt": -1, "trial_type": "single-stim", "stimulus": "<p id=\"stim\">9</p>", "internal_node_id": "0.0-141.0-1.0", "time_elapsed": 880042, "key_press": -1, "trial_index": 187}, "uniqueid": "MTK1829:3U4J9857OFIJI2O6SDH2VRQB59AB78", "dateTime": 1516478389909}, {"current_trial": 188, "trialdata": {"rt": -1, "trial_type": "single-stim", "stimulus": "<p id=\"stim\">8</p>", "internal_node_id": "0.0-141.0-2.0", "time_elapsed": 881043, "key_press": -1, "trial_index": 188}, "uniqueid": "MTK1829:3U4J9857OFIJI2O6SDH2VRQB59AB78", "dateTime": 1516478390910}, {"current_trial": 189, "trialdata": {"rt": -1, "trial_type": "single-stim", "stimulus": "<p id=\"stim\">7</p>", "internal_node_id": "0.0-141.0-3.0", "time_elapsed": 882044, "key_press": -1, "trial_index": 189}, "uniqueid": "MTK1829:3U4J9857OFIJI2O6SDH2VRQB59AB78", "dateTime": 1516478391911}, {"current_trial": 190, "trialdata": {"rt": -1, "trial_type": "single-stim", "stimulus": "<p id=\"stim\">6</p>", "internal_node_id": "0.0-141.0-4.0", "time_elapsed": 883047, "key_press": -1, "trial_index": 190}, "uniqueid": "MTK1829:3U4J9857OFIJI2O6SDH2VRQB59AB78", "dateTime": 1516478392914}, {"current_trial": 191, "trialdata": {"rt": -1, "trial_type": "single-stim", "stimulus": "<p id=\"stim\">5</p>", "internal_node_id": "0.0-141.0-5.0", "time_elapsed": 884050, "key_press": -1, "trial_index": 191}, "uniqueid": "MTK1829:3U4J9857OFIJI2O6SDH2VRQB59AB78", "dateTime": 1516478393917}, {"current_trial": 192, "trialdata": {"rt": -1, "trial_type": "single-stim", "stimulus": "<p id=\"stim\">4</p>", "internal_node_id": "0.0-141.0-6.0", "time_elapsed": 885052, "key_press": -1, "trial_index": 192}, "uniqueid": "MTK1829:3U4J9857OFIJI2O6SDH2VRQB59AB78", "dateTime": 1516478394919}, {"current_trial": 193, "trialdata": {"rt": -1, "trial_type": "single-stim", "stimulus": "<p id=\"stim\">3</p>", "internal_node_id": "0.0-141.0-7.0", "time_elapsed": 886053, "key_press": -1, "trial_index": 193}, "uniqueid": "MTK1829:3U4J9857OFIJI2O6SDH2VRQB59AB78", "dateTime": 1516478395921}, {"current_trial": 194, "trialdata": {"rt": -1, "trial_type": "single-stim", "stimulus": "<p id=\"stim\">2</p>", "internal_node_id": "0.0-141.0-8.0", "time_elapsed": 887055, "key_press": -1, "trial_index": 194}, "uniqueid": "MTK1829:3U4J9857OFIJI2O6SDH2VRQB59AB78", "dateTime": 1516478396922}, {"current_trial": 195, "trialdata": {"rt": -1, "trial_type": "single-stim", "stimulus": "<p id=\"stim\">1</p>", "internal_node_id": "0.0-141.0-9.0", "time_elapsed": 888057, "key_press": -1, "trial_index": 195}, "uniqueid": "MTK1829:3U4J9857OFIJI2O6SDH2VRQB59AB78", "dateTime": 1516478397924}, {"current_trial": 196, "trialdata": {"rt": -1, "trial_type": "single-stim", "stimulus": "<p id=\"stim\">+</p>", "internal_node_id": "0.0-142.0-0.0", "time_elapsed": 889558, "key_press": -1, "type": "FIXATION", "trial_index": 196}, "uniqueid": "MTK1829:3U4J9857OFIJI2O6SDH2VRQB59AB78", "dateTime": 1516478399425}, {"current_trial": 197, "trialdata": {"rt": -1000, "trial_type": "single-audio", "word": "padding", "stimulus": "/static/audio/wordpool/PADDING.wav", "conditions": [12, 1600, "a", 12000], "internal_node_id": "0.0-143.0", "trial": 5, "time_elapsed": 892152, "serialpos": 0, "key_press": -1, "wordID": 998, "type": "PRES_AUD", "trial_index": 197}, "uniqueid": "MTK1829:3U4J9857OFIJI2O6SDH2VRQB59AB78", "dateTime": 1516478402019}, {"current_trial": 198, "trialdata": {"rt": -1000, "trial_type": "single-audio", "word": "seafood", "stimulus": "/static/audio/wordpool/SEAFOOD.wav", "conditions": [12, 1600, "a", 12000], "internal_node_id": "0.0-144.0", "trial": 5, "time_elapsed": 894767, "serialpos": 1, "key_press": -1, "wordID": 1259, "type": "PRES_AUD", "trial_index": 198}, "uniqueid": "MTK1829:3U4J9857OFIJI2O6SDH2VRQB59AB78", "dateTime": 1516478404634}, {"current_trial": 199, "trialdata": {"rt": -1000, "trial_type": "single-audio", "word": "salmon", "stimulus": "/static/audio/wordpool/SALMON.wav", "conditions": [12, 1600, "a", 12000], "internal_node_id": "0.0-145.0", "trial": 5, "time_elapsed": 897338, "serialpos": 2, "key_press": -1, "wordID": 1226, "type": "PRES_AUD", "trial_index": 199}, "uniqueid": "MTK1829:3U4J9857OFIJI2O6SDH2VRQB59AB78", "dateTime": 1516478407205}, {"current_trial": 200, "trialdata": {"rt": -1000, "trial_type": "single-audio", "word": "shorts", "stimulus": "/static/audio/wordpool/SHORTS.wav", "conditions": [12, 1600, "a", 12000], "internal_node_id": "0.0-146.0", "trial": 5, "time_elapsed": 899817, "serialpos": 3, "key_press": -1, "wordID": 1292, "type": "PRES_AUD", "trial_index": 200}, "uniqueid": "MTK1829:3U4J9857OFIJI2O6SDH2VRQB59AB78", "dateTime": 1516478409684}, {"current_trial": 201, "trialdata": {"rt": -1000, "trial_type": "single-audio", "word": "clothes", "stimulus": "/static/audio/wordpool/CLOTHES.wav", "conditions": [12, 1600, "a", 12000], "internal_node_id": "0.0-147.0", "trial": 5, "time_elapsed": 902276, "serialpos": 4, "key_press": -1, "wordID": 326, "type": "PRES_AUD", "trial_index": 201}, "uniqueid": "MTK1829:3U4J9857OFIJI2O6SDH2VRQB59AB78", "dateTime": 1516478412143}, {"current_trial": 202, "trialdata": {"rt": -1000, "trial_type": "single-audio", "word": "shoulder", "stimulus": "/static/audio/wordpool/SHOULDER.wav", "conditions": [12, 1600, "a", 12000], "internal_node_id": "0.0-148.0", "trial": 5, "time_elapsed": 904927, "serialpos": 5, "key_press": -1, "wordID": 1293, "type": "PRES_AUD", "trial_index": 202}, "uniqueid": "MTK1829:3U4J9857OFIJI2O6SDH2VRQB59AB78", "dateTime": 1516478414794}, {"current_trial": 203, "trialdata": {"rt": -1000, "trial_type": "single-audio", "word": "highway", "stimulus": "/static/audio/wordpool/HIGHWAY.wav", "conditions": [12, 1600, "a", 12000], "internal_node_id": "0.0-149.0", "trial": 5, "time_elapsed": 907375, "serialpos": 6, "key_press": -1, "wordID": 706, "type": "PRES_AUD", "trial_index": 203}, "uniqueid": "MTK1829:3U4J9857OFIJI2O6SDH2VRQB59AB78", "dateTime": 1516478417242}, {"current_trial": 204, "trialdata": {"rt": -1000, "trial_type": "single-audio", "word": "subway", "stimulus": "/static/audio/wordpool/SUBWAY.wav", "conditions": [12, 1600, "a", 12000], "internal_node_id": "0.0-150.0", "trial": 5, "time_elapsed": 909789, "serialpos": 7, "key_press": -1, "wordID": 1399, "type": "PRES_AUD", "trial_index": 204}, "uniqueid": "MTK1829:3U4J9857OFIJI2O6SDH2VRQB59AB78", "dateTime": 1516478419656}, {"current_trial": 205, "trialdata": {"rt": -1000, "trial_type": "single-audio", "word": "garlic", "stimulus": "/static/audio/wordpool/GARLIC.wav", "conditions": [12, 1600, "a", 12000], "internal_node_id": "0.0-151.0", "trial": 5, "time_elapsed": 912421, "serialpos": 8, "key_press": -1, "wordID": 623, "type": "PRES_AUD", "trial_index": 205}, "uniqueid": "MTK1829:3U4J9857OFIJI2O6SDH2VRQB59AB78", "dateTime": 1516478422288}, {"current_trial": 206, "trialdata": {"rt": -1000, "trial_type": "single-audio", "word": "sculpture", "stimulus": "/static/audio/wordpool/SCULPTURE.wav", "conditions": [12, 1600, "a", 12000], "internal_node_id": "0.0-152.0", "trial": 5, "time_elapsed": 914914, "serialpos": 9, "key_press": -1, "wordID": 1257, "type": "PRES_AUD", "trial_index": 206}, "uniqueid": "MTK1829:3U4J9857OFIJI2O6SDH2VRQB59AB78", "dateTime": 1516478424781}, {"current_trial": 207, "trialdata": {"rt": -1000, "trial_type": "single-audio", "word": "atlas", "stimulus": "/static/audio/wordpool/ATLAS.wav", "conditions": [12, 1600, "a", 12000], "internal_node_id": "0.0-153.0", "trial": 5, "time_elapsed": 917600, "serialpos": 10, "key_press": -1, "wordID": 52, "type": "PRES_AUD", "trial_index": 207}, "uniqueid": "MTK1829:3U4J9857OFIJI2O6SDH2VRQB59AB78", "dateTime": 1516478427467}, {"current_trial": 208, "trialdata": {"rt": -1000, "trial_type": "single-audio", "word": "onion", "stimulus": "/static/audio/wordpool/ONION.wav", "conditions": [12, 1600, "a", 12000], "internal_node_id": "0.0-154.0", "trial": 5, "time_elapsed": 920260, "serialpos": 11, "key_press": -1, "wordID": 976, "type": "PRES_AUD", "trial_index": 208}, "uniqueid": "MTK1829:3U4J9857OFIJI2O6SDH2VRQB59AB78", "dateTime": 1516478430127}, {"current_trial": 209, "trialdata": {"rt": -1, "trial_type": "single-stim", "stimulus": "", "internal_node_id": "0.0-155.0-0.0", "time_elapsed": 921539, "key_press": -1, "type": "PRE_RECALL_DELAY", "trial_index": 209}, "uniqueid": "MTK1829:3U4J9857OFIJI2O6SDH2VRQB59AB78", "dateTime": 1516478431406}, {"current_trial": 210, "trialdata": {"rt": -1000, "trial_type": "single-audio", "stimulus": "/static/audio/400Hz.wav", "internal_node_id": "0.0-156.0", "time_elapsed": 922041, "key_press": -1, "type": "PRE_RECALL_ALERT", "trial_index": 210}, "uniqueid": "MTK1829:3U4J9857OFIJI2O6SDH2VRQB59AB78", "dateTime": 1516478431908}, {"current_trial": 211, "trialdata": {"rt": [2445, 4009, 5756, 7578, 11069, 18146, 21611, 29645, 35557], "recwords": ["onion", "padding", "shorts", "seafood", "salmon", "sculpture", "sculpture", "shoulder", "garden"], "key_times": [914, 1205, 1418, 1602, 1789, 2445, 2962, 3095, 3288, 3455, 3561, 3712, 3764, 4009, 4189, 4363, 4516, 4636, 4856, 5075, 5756, 6108, 6278, 6448, 6720, 6926, 7092, 7224, 7578, 7909, 8131, 8625, 8806, 9158, 9280, 11069, 15938, 16239, 16398, 16565, 17041, 17400, 17532, 17686, 17804, 18146, 19325, 19603, 19715, 19884, 20358, 20961, 21229, 21351, 21468, 21611, 28406, 28534, 28713, 28808, 28984, 29053, 29377, 29447, 29645, 34173, 34436, 34579, 34819, 35110, 35250, 35557], "trial_type": "free-recall", "conditions": [12, 1600, "a", 12000], "internal_node_id": "0.0-157.0-0.0", "key_presses": [79, 78, 73, 79, 78, 32, 80, 65, 68, 68, 73, 78, 71, 13, 83, 72, 79, 82, 84, 83, 13, 83, 69, 65, 70, 79, 79, 68, 13, 83, 65, 76, 77, 79, 78, 13, 83, 67, 85, 76, 80, 84, 85, 82, 69, 13, 83, 67, 85, 76, 80, 84, 85, 82, 69, 13, 83, 72, 79, 85, 76, 68, 69, 82, 13, 71, 65, 82, 68, 69, 78, 13], "trial": 5, "time_elapsed": 982045, "type": "FREE_RECALL", "trial_index": 211}, "uniqueid": "MTK1829:3U4J9857OFIJI2O6SDH2VRQB59AB78", "dateTime": 1516478491917}, {"current_trial": 212, "trialdata": {"rt": 895, "trial_type": "text", "internal_node_id": "0.0-158.0", "time_elapsed": 984946, "key_press": 32, "type": "INSTRUCTIONS", "trial_index": 212}, "uniqueid": "MTK1829:3U4J9857OFIJI2O6SDH2VRQB59AB78", "dateTime": 1516478494813}, {"current_trial": 213, "trialdata": {"rt": [2944, 4989, 7387, 9485, 11046, 12925, 15011, 16979, 20010, 22340], "trial_type": "math-distractor", "key_times": [2367, 2583, 2944, 4273, 4590, 4989, 6803, 7071, 7387, 8882, 9166, 9485, 10750, 11046, 12494, 12652, 12925, 14356, 14713, 15011, 16493, 16702, 16979, 19152, 19606, 20010, 21725, 22042, 22340, 23800], "responses": ["14", "16", "17", "13", "9", "11", "18", "12", "18", "19"], "num2": [3, 9, 9, 3, 1, 5, 1, 2, 4, 2, 8], "num3": [8, 6, 1, 8, 1, 5, 8, 3, 5, 8, 8], "conditions": [24, 800, "a", 24000], "internal_node_id": "0.0-159.0", "key_presses": [97, 100, 13, 97, 102, 13, 97, 103, 13, 97, 99, 13, 105, 13, 97, 97, 13, 97, 104, 13, 97, 98, 13, 97, 104, 13, 97, 105, 13, 97], "trial": 6, "time_elapsed": 1010950, "type": "DISTRACTOR", "trial_index": 213, "num1": [3, 1, 7, 2, 7, 1, 9, 7, 9, 9, 2]}, "uniqueid": "MTK1829:3U4J9857OFIJI2O6SDH2VRQB59AB78", "dateTime": 1516478520818}, {"current_trial": 214, "trialdata": {"rt": -1, "trial_type": "single-stim", "stimulus": "<p id=\"stim\">10</p>", "internal_node_id": "0.0-160.0-0.0", "time_elapsed": 1013952, "key_press": -1, "trial_index": 214}, "uniqueid": "MTK1829:3U4J9857OFIJI2O6SDH2VRQB59AB78", "dateTime": 1516478523819}, {"current_trial": 215, "trialdata": {"rt": -1, "trial_type": "single-stim", "stimulus": "<p id=\"stim\">9</p>", "internal_node_id": "0.0-160.0-1.0", "time_elapsed": 1014955, "key_press": -1, "trial_index": 215}, "uniqueid": "MTK1829:3U4J9857OFIJI2O6SDH2VRQB59AB78", "dateTime": 1516478524822}, {"current_trial": 216, "trialdata": {"rt": -1, "trial_type": "single-stim", "stimulus": "<p id=\"stim\">8</p>", "internal_node_id": "0.0-160.0-2.0", "time_elapsed": 1015956, "key_press": -1, "trial_index": 216}, "uniqueid": "MTK1829:3U4J9857OFIJI2O6SDH2VRQB59AB78", "dateTime": 1516478525823}, {"current_trial": 217, "trialdata": {"rt": -1, "trial_type": "single-stim", "stimulus": "<p id=\"stim\">7</p>", "internal_node_id": "0.0-160.0-3.0", "time_elapsed": 1016957, "key_press": -1, "trial_index": 217}, "uniqueid": "MTK1829:3U4J9857OFIJI2O6SDH2VRQB59AB78", "dateTime": 1516478526824}, {"current_trial": 218, "trialdata": {"rt": -1, "trial_type": "single-stim", "stimulus": "<p id=\"stim\">6</p>", "internal_node_id": "0.0-160.0-4.0", "time_elapsed": 1017958, "key_press": -1, "trial_index": 218}, "uniqueid": "MTK1829:3U4J9857OFIJI2O6SDH2VRQB59AB78", "dateTime": 1516478527825}, {"current_trial": 219, "trialdata": {"rt": -1, "trial_type": "single-stim", "stimulus": "<p id=\"stim\">5</p>", "internal_node_id": "0.0-160.0-5.0", "time_elapsed": 1018959, "key_press": -1, "trial_index": 219}, "uniqueid": "MTK1829:3U4J9857OFIJI2O6SDH2VRQB59AB78", "dateTime": 1516478528826}, {"current_trial": 220, "trialdata": {"rt": -1, "trial_type": "single-stim", "stimulus": "<p id=\"stim\">4</p>", "internal_node_id": "0.0-160.0-6.0", "time_elapsed": 1019959, "key_press": -1, "trial_index": 220}, "uniqueid": "MTK1829:3U4J9857OFIJI2O6SDH2VRQB59AB78", "dateTime": 1516478529826}, {"current_trial": 221, "trialdata": {"rt": -1, "trial_type": "single-stim", "stimulus": "<p id=\"stim\">3</p>", "internal_node_id": "0.0-160.0-7.0", "time_elapsed": 1020960, "key_press": -1, "trial_index": 221}, "uniqueid": "MTK1829:3U4J9857OFIJI2O6SDH2VRQB59AB78", "dateTime": 1516478530827}, {"current_trial": 222, "trialdata": {"rt": -1, "trial_type": "single-stim", "stimulus": "<p id=\"stim\">2</p>", "internal_node_id": "0.0-160.0-8.0", "time_elapsed": 1021961, "key_press": -1, "trial_index": 222}, "uniqueid": "MTK1829:3U4J9857OFIJI2O6SDH2VRQB59AB78", "dateTime": 1516478531828}, {"current_trial": 223, "trialdata": {"rt": -1, "trial_type": "single-stim", "stimulus": "<p id=\"stim\">1</p>", "internal_node_id": "0.0-160.0-9.0", "time_elapsed": 1022963, "key_press": -1, "trial_index": 223}, "uniqueid": "MTK1829:3U4J9857OFIJI2O6SDH2VRQB59AB78", "dateTime": 1516478532830}, {"current_trial": 224, "trialdata": {"rt": -1, "trial_type": "single-stim", "stimulus": "<p id=\"stim\">+</p>", "internal_node_id": "0.0-161.0-0.0", "time_elapsed": 1024464, "key_press": -1, "type": "FIXATION", "trial_index": 224}, "uniqueid": "MTK1829:3U4J9857OFIJI2O6SDH2VRQB59AB78", "dateTime": 1516478534331}, {"current_trial": 225, "trialdata": {"rt": -1000, "trial_type": "single-audio", "word": "blender", "stimulus": "/static/audio/wordpool/BLENDER.wav", "conditions": [24, 800, "a", 24000], "internal_node_id": "0.0-162.0", "trial": 6, "time_elapsed": 1026387, "serialpos": 0, "key_press": -1, "wordID": 135, "type": "PRES_AUD", "trial_index": 225}, "uniqueid": "MTK1829:3U4J9857OFIJI2O6SDH2VRQB59AB78", "dateTime": 1516478536254}, {"current_trial": 226, "trialdata": {"rt": -1000, "trial_type": "single-audio", "word": "razor", "stimulus": "/static/audio/wordpool/RAZOR.wav", "conditions": [24, 800, "a", 24000], "internal_node_id": "0.0-163.0", "trial": 6, "time_elapsed": 1028084, "serialpos": 1, "key_press": -1, "wordID": 1170, "type": "PRES_AUD", "trial_index": 226}, "uniqueid": "MTK1829:3U4J9857OFIJI2O6SDH2VRQB59AB78", "dateTime": 1516478537952}, {"current_trial": 227, "trialdata": {"rt": -1000, "trial_type": "single-audio", "word": "sidewalk", "stimulus": "/static/audio/wordpool/SIDEWALK.wav", "conditions": [24, 800, "a", 24000], "internal_node_id": "0.0-164.0", "trial": 6, "time_elapsed": 1030078, "serialpos": 2, "key_press": -1, "wordID": 1302, "type": "PRES_AUD", "trial_index": 227}, "uniqueid": "MTK1829:3U4J9857OFIJI2O6SDH2VRQB59AB78", "dateTime": 1516478539946}, {"current_trial": 228, "trialdata": {"rt": -1000, "trial_type": "single-audio", "word": "scalpel", "stimulus": "/static/audio/wordpool/SCALPEL.wav", "conditions": [24, 800, "a", 24000], "internal_node_id": "0.0-165.0", "trial": 6, "time_elapsed": 1032076, "serialpos": 3, "key_press": -1, "wordID": 1242, "type": "PRES_AUD", "trial_index": 228}, "uniqueid": "MTK1829:3U4J9857OFIJI2O6SDH2VRQB59AB78", "dateTime": 1516478541943}, {"current_trial": 229, "trialdata": {"rt": -1000, "trial_type": "single-audio", "word": "scissors", "stimulus": "/static/audio/wordpool/SCISSORS.wav", "conditions": [24, 800, "a", 24000], "internal_node_id": "0.0-166.0", "trial": 6, "time_elapsed": 1033818, "serialpos": 4, "key_press": -1, "wordID": 1249, "type": "PRES_AUD", "trial_index": 229}, "uniqueid": "MTK1829:3U4J9857OFIJI2O6SDH2VRQB59AB78", "dateTime": 1516478543685}, {"current_trial": 230, "trialdata": {"rt": -1000, "trial_type": "single-audio", "word": "snake", "stimulus": "/static/audio/wordpool/SNAKE.wav", "conditions": [24, 800, "a", 24000], "internal_node_id": "0.0-167.0", "trial": 6, "time_elapsed": 1035565, "serialpos": 5, "key_press": -1, "wordID": 1332, "type": "PRES_AUD", "trial_index": 230}, "uniqueid": "MTK1829:3U4J9857OFIJI2O6SDH2VRQB59AB78", "dateTime": 1516478545432}, {"current_trial": 231, "trialdata": {"rt": -1000, "trial_type": "single-audio", "word": "table", "stimulus": "/static/audio/wordpool/TABLE.wav", "conditions": [24, 800, "a", 24000], "internal_node_id": "0.0-168.0", "trial": 6, "time_elapsed": 1037501, "serialpos": 6, "key_press": -1, "wordID": 1425, "type": "PRES_AUD", "trial_index": 231}, "uniqueid": "MTK1829:3U4J9857OFIJI2O6SDH2VRQB59AB78", "dateTime": 1516478547369}, {"current_trial": 232, "trialdata": {"rt": -1000, "trial_type": "single-audio", "word": "tourist", "stimulus": "/static/audio/wordpool/TOURIST.wav", "conditions": [24, 800, "a", 24000], "internal_node_id": "0.0-169.0", "trial": 6, "time_elapsed": 1039477, "serialpos": 7, "key_press": -1, "wordID": 1487, "type": "PRES_AUD", "trial_index": 232}, "uniqueid": "MTK1829:3U4J9857OFIJI2O6SDH2VRQB59AB78", "dateTime": 1516478549344}, {"current_trial": 233, "trialdata": {"rt": -1000, "trial_type": "single-audio", "word": "outfit", "stimulus": "/static/audio/wordpool/OUTFIT.wav", "conditions": [24, 800, "a", 24000], "internal_node_id": "0.0-170.0", "trial": 6, "time_elapsed": 1041078, "serialpos": 8, "key_press": -1, "wordID": 987, "type": "PRES_AUD", "trial_index": 233}, "uniqueid": "MTK1829:3U4J9857OFIJI2O6SDH2VRQB59AB78", "dateTime": 1516478550945}, {"current_trial": 234, "trialdata": {"rt": -1000, "trial_type": "single-audio", "word": "sausage", "stimulus": "/static/audio/wordpool/SAUSAGE.wav", "conditions": [24, 800, "a", 24000], "internal_node_id": "0.0-171.0", "trial": 6, "time_elapsed": 1043064, "serialpos": 9, "key_press": -1, "wordID": 1237, "type": "PRES_AUD", "trial_index": 234}, "uniqueid": "MTK1829:3U4J9857OFIJI2O6SDH2VRQB59AB78", "dateTime": 1516478552931}, {"current_trial": 235, "trialdata": {"rt": -1000, "trial_type": "single-audio", "word": "robber", "stimulus": "/static/audio/wordpool/ROBBER.wav", "conditions": [24, 800, "a", 24000], "internal_node_id": "0.0-172.0", "trial": 6, "time_elapsed": 1044898, "serialpos": 10, "key_press": -1, "wordID": 1196, "type": "PRES_AUD", "trial_index": 235}, "uniqueid": "MTK1829:3U4J9857OFIJI2O6SDH2VRQB59AB78", "dateTime": 1516478554765}, {"current_trial": 236, "trialdata": {"rt": -1000, "trial_type": "single-audio", "word": "possum", "stimulus": "/static/audio/wordpool/POSSUM.wav", "conditions": [24, 800, "a", 24000], "internal_node_id": "0.0-173.0", "trial": 6, "time_elapsed": 1046625, "serialpos": 11, "key_press": -1, "wordID": 1111, "type": "PRES_AUD", "trial_index": 236}, "uniqueid": "MTK1829:3U4J9857OFIJI2O6SDH2VRQB59AB78", "dateTime": 1516478556492}, {"current_trial": 237, "trialdata": {"rt": -1000, "trial_type": "single-audio", "word": "cupboard", "stimulus": "/static/audio/wordpool/CUPBOARD.wav", "conditions": [24, 800, "a", 24000], "internal_node_id": "0.0-174.0", "trial": 6, "time_elapsed": 1048428, "serialpos": 12, "key_press": -1, "wordID": 424, "type": "PRES_AUD", "trial_index": 237}, "uniqueid": "MTK1829:3U4J9857OFIJI2O6SDH2VRQB59AB78", "dateTime": 1516478558296}, {"current_trial": 238, "trialdata": {"rt": -1000, "trial_type": "single-audio", "word": "dresser", "stimulus": "/static/audio/wordpool/DRESSER.wav", "conditions": [24, 800, "a", 24000], "internal_node_id": "0.0-175.0", "trial": 6, "time_elapsed": 1050387, "serialpos": 13, "key_press": -1, "wordID": 495, "type": "PRES_AUD", "trial_index": 238}, "uniqueid": "MTK1829:3U4J9857OFIJI2O6SDH2VRQB59AB78", "dateTime": 1516478560254}, {"current_trial": 239, "trialdata": {"rt": -1000, "trial_type": "single-audio", "word": "ankle", "stimulus": "/static/audio/wordpool/ANKLE.wav", "conditions": [24, 800, "a", 24000], "internal_node_id": "0.0-176.0", "trial": 6, "time_elapsed": 1052041, "serialpos": 14, "key_press": -1, "wordID": 23, "type": "PRES_AUD", "trial_index": 239}, "uniqueid": "MTK1829:3U4J9857OFIJI2O6SDH2VRQB59AB78", "dateTime": 1516478561908}, {"current_trial": 240, "trialdata": {"rt": -1000, "trial_type": "single-audio", "word": "waitress", "stimulus": "/static/audio/wordpool/WAITRESS.wav", "conditions": [24, 800, "a", 24000], "internal_node_id": "0.0-177.0", "trial": 6, "time_elapsed": 1053874, "serialpos": 15, "key_press": -1, "wordID": 1580, "type": "PRES_AUD", "trial_index": 240}, "uniqueid": "MTK1829:3U4J9857OFIJI2O6SDH2VRQB59AB78", "dateTime": 1516478563741}, {"current_trial": 241, "trialdata": {"rt": -1000, "trial_type": "single-audio", "word": "candy", "stimulus": "/static/audio/wordpool/CANDY.wav", "conditions": [24, 800, "a", 24000], "internal_node_id": "0.0-178.0", "trial": 6, "time_elapsed": 1055780, "serialpos": 16, "key_press": -1, "wordID": 229, "type": "PRES_AUD", "trial_index": 241}, "uniqueid": "MTK1829:3U4J9857OFIJI2O6SDH2VRQB59AB78", "dateTime": 1516478565648}, {"current_trial": 242, "trialdata": {"rt": -1000, "trial_type": "single-audio", "word": "flag", "stimulus": "/static/audio/wordpool/FLAG.wav", "conditions": [24, 800, "a", 24000], "internal_node_id": "0.0-179.0", "trial": 6, "time_elapsed": 1057738, "serialpos": 17, "key_press": -1, "wordID": 572, "type": "PRES_AUD", "trial_index": 242}, "uniqueid": "MTK1829:3U4J9857OFIJI2O6SDH2VRQB59AB78", "dateTime": 1516478567605}, {"current_trial": 243, "trialdata": {"rt": -1000, "trial_type": "single-audio", "word": "cellar", "stimulus": "/static/audio/wordpool/CELLAR.wav", "conditions": [24, 800, "a", 24000], "internal_node_id": "0.0-180.0", "trial": 6, "time_elapsed": 1059350, "serialpos": 18, "key_press": -1, "wordID": 266, "type": "PRES_AUD", "trial_index": 243}, "uniqueid": "MTK1829:3U4J9857OFIJI2O6SDH2VRQB59AB78", "dateTime": 1516478569217}, {"current_trial": 244, "trialdata": {"rt": -1000, "trial_type": "single-audio", "word": "dime", "stimulus": "/static/audio/wordpool/DIME.wav", "conditions": [24, 800, "a", 24000], "internal_node_id": "0.0-181.0", "trial": 6, "time_elapsed": 1060975, "serialpos": 19, "key_press": -1, "wordID": 465, "type": "PRES_AUD", "trial_index": 244}, "uniqueid": "MTK1829:3U4J9857OFIJI2O6SDH2VRQB59AB78", "dateTime": 1516478570843}, {"current_trial": 245, "trialdata": {"rt": -1000, "trial_type": "single-audio", "word": "rooster", "stimulus": "/static/audio/wordpool/ROOSTER.wav", "conditions": [24, 800, "a", 24000], "internal_node_id": "0.0-182.0", "trial": 6, "time_elapsed