{"condition": 0, "counterbalance": 588, "assignmentId": "3UN61F00HXWRB5RC0HOVXMHJS3Y5R4", "workerId": "MTK1196", "hitId": "32FESTC2NHX23YUETJ16RJETC2IUCB", "currenttrial": 626, "bonus": 0, "data": [{"uniqueid": "MTK1196:3UN61F00HXWRB5RC0HOVXMHJS3Y5R4", "current_trial": 0, "dateTime": 1513457936637, "trialdata": {"rt": 28417, "key_press": 32, "type": "INSTRUCTIONS", "trial_type": "text", "trial_index": 0, "time_elapsed": 28424, "internal_node_id": "0.0-0.0"}}, {"uniqueid": "MTK1196:3UN61F00HXWRB5RC0HOVXMHJS3Y5R4", "current_trial": 1, "dateTime": 1513457938798, "trialdata": {"rt": 2158, "key_press": 220, "type": "INSTRUCTIONS", "trial_type": "text", "trial_index": 1, "time_elapsed": 30586, "internal_node_id": "0.0-1.0"}}, {"uniqueid": "MTK1196:3UN61F00HXWRB5RC0HOVXMHJS3Y5R4", "current_trial": 2, "dateTime": 1513457944609, "trialdata": {"rt": [5767], "responses": ["ocean"], "type": "AUDIO_TEST", "trial_type": "audio-test", "trial_index": 2, "time_elapsed": 36398, "internal_node_id": "0.0-2.0"}}, {"uniqueid": "MTK1196:3UN61F00HXWRB5RC0HOVXMHJS3Y5R4", "current_trial": 3, "dateTime": 1513457957446, "trialdata": {"rt": [12821], "responses": ["crystal"], "type": "AUDIO_TEST", "trial_type": "audio-test", "trial_index": 3, "time_elapsed": 49234, "internal_node_id": "0.0-3.0"}}, {"uniqueid": "MTK1196:3UN61F00HXWRB5RC0HOVXMHJS3Y5R4", "current_trial": 4, "dateTime": 1513457963273, "trialdata": {"rt": [5814], "responses": ["spice"], "type": "AUDIO_TEST", "trial_type": "audio-test", "trial_index": 4, "time_elapsed": 55062, "internal_node_id": "0.0-4.0"}}, {"uniqueid": "MTK1196:3UN61F00HXWRB5RC0HOVXMHJS3Y5R4", "current_trial": 5, "dateTime": 1513457972607, "trialdata": {"rt": 8577, "responses": "{\"Q0\":\"12\",\"Q1\":\"8\",\"Q2\":\"3\"}", "type": "SLEEP_SURVEY", "trial_type": "survey-text", "trial_index": 5, "time_elapsed": 64396, "internal_node_id": "0.0-5.0"}}, {"uniqueid": "MTK1196:3UN61F00HXWRB5RC0HOVXMHJS3Y5R4", "current_trial": 6, "dateTime": 1513457977391, "trialdata": {"rt": 3781, "key_press": 13, "type": "INSTRUCTIONS", "trial_type": "text", "trial_index": 6, "time_elapsed": 69180, "internal_node_id": "0.0-6.0"}}, {"uniqueid": "MTK1196:3UN61F00HXWRB5RC0HOVXMHJS3Y5R4", "current_trial": 7, "dateTime": 1513457983918, "trialdata": {"rt": 6025, "key_press": 13, "type": "INSTRUCTIONS", "trial_type": "text", "trial_index": 7, "time_elapsed": 75707, "internal_node_id": "0.0-7.0"}}, {"uniqueid": "MTK1196:3UN61F00HXWRB5RC0HOVXMHJS3Y5R4", "current_trial": 8, "dateTime": 1513457984919, "trialdata": {"rt": 498, "key_press": 13, "type": "INSTRUCTIONS", "trial_type": "text", "trial_index": 8, "time_elapsed": 76707, "internal_node_id": "0.0-8.0"}}, {"uniqueid": "MTK1196:3UN61F00HXWRB5RC0HOVXMHJS3Y5R4", "current_trial": 9, "dateTime": 1513458003930, "trialdata": {"rt": [4465, 8376, 11389, 15439], "responses": ["13", "18", "14", "19"], "num1": [4, 5, 4, 8, 5], "num2": [4, 8, 8, 6, 3], "num3": [5, 5, 2, 5, 6], "type": "DISTRACTOR", "conditions": [18, 1200, "v", 18000], "trial": 0, "trial_type": "math-distractor", "trial_index": 9, "time_elapsed": 95719, "internal_node_id": "0.0-9.0"}}, {"uniqueid": "MTK1196:3UN61F00HXWRB5RC0HOVXMHJS3Y5R4", "current_trial": 10, "dateTime": 1513458007015, "trialdata": {"rt": -1, "stimulus": "<p id=\"stim\">10</p>", "key_press": -1, "trial_type": "single-stim", "trial_index": 10, "time_elapsed": 98804, "internal_node_id": "0.0-10.0-0.0"}}, {"uniqueid": "MTK1196:3UN61F00HXWRB5RC0HOVXMHJS3Y5R4", "current_trial": 11, "dateTime": 1513458008018, "trialdata": {"rt": -1, "stimulus": "<p id=\"stim\">9</p>", "key_press": -1, "trial_type": "single-stim", "trial_index": 11, "time_elapsed": 99807, "internal_node_id": "0.0-10.0-1.0"}}, {"uniqueid": "MTK1196:3UN61F00HXWRB5RC0HOVXMHJS3Y5R4", "current_trial": 12, "dateTime": 1513458009022, "trialdata": {"rt": -1, "stimulus": "<p id=\"stim\">8</p>", "key_press": -1, "trial_type": "single-stim", "trial_index": 12, "time_elapsed": 100811, "internal_node_id": "0.0-10.0-2.0"}}, {"uniqueid": "MTK1196:3UN61F00HXWRB5RC0HOVXMHJS3Y5R4", "current_trial": 13, "dateTime": 1513458010025, "trialdata": {"rt": -1, "stimulus": "<p id=\"stim\">7</p>", "key_press": -1, "trial_type": "single-stim", "trial_index": 13, "time_elapsed": 101813, "internal_node_id": "0.0-10.0-3.0"}}, {"uniqueid": "MTK1196:3UN61F00HXWRB5RC0HOVXMHJS3Y5R4", "current_trial": 14, "dateTime": 1513458011026, "trialdata": {"rt": -1, "stimulus": "<p id=\"stim\">6</p>", "key_press": -1, "trial_type": "single-stim", "trial_index": 14, "time_elapsed": 102815, "internal_node_id": "0.0-10.0-4.0"}}, {"uniqueid": "MTK1196:3UN61F00HXWRB5RC0HOVXMHJS3Y5R4", "current_trial": 15, "dateTime": 1513458012030, "trialdata": {"rt": -1, "stimulus": "<p id=\"stim\">5</p>", "key_press": -1, "trial_type": "single-stim", "trial_index": 15, "time_elapsed": 103818, "internal_node_id": "0.0-10.0-5.0"}}, {"uniqueid": "MTK1196:3UN61F00HXWRB5RC0HOVXMHJS3Y5R4", "current_trial": 16, "dateTime": 1513458013032, "trialdata": {"rt": -1, "stimulus": "<p id=\"stim\">4</p>", "key_press": -1, "trial_type": "single-stim", "trial_index": 16, "time_elapsed": 104821, "internal_node_id": "0.0-10.0-6.0"}}, {"uniqueid": "MTK1196:3UN61F00HXWRB5RC0HOVXMHJS3Y5R4", "current_trial": 17, "dateTime": 1513458014035, "trialdata": {"rt": -1, "stimulus": "<p id=\"stim\">3</p>", "key_press": -1, "trial_type": "single-stim", "trial_index": 17, "time_elapsed": 105824, "internal_node_id": "0.0-10.0-7.0"}}, {"uniqueid": "MTK1196:3UN61F00HXWRB5RC0HOVXMHJS3Y5R4", "current_trial": 18, "dateTime": 1513458015037, "trialdata": {"rt": -1, "stimulus": "<p id=\"stim\">2</p>", "key_press": -1, "trial_type": "single-stim", "trial_index": 18, "time_elapsed": 106826, "internal_node_id": "0.0-10.0-8.0"}}, {"uniqueid": "MTK1196:3UN61F00HXWRB5RC0HOVXMHJS3Y5R4", "current_trial": 19, "dateTime": 1513458016041, "trialdata": {"rt": -1, "stimulus": "<p id=\"stim\">1</p>", "key_press": -1, "trial_type": "single-stim", "trial_index": 19, "time_elapsed": 107828, "internal_node_id": "0.0-10.0-9.0"}}, {"uniqueid": "MTK1196:3UN61F00HXWRB5RC0HOVXMHJS3Y5R4", "current_trial": 20, "dateTime": 1513458017544, "trialdata": {"rt": -1, "stimulus": "<p id=\"stim\">+</p>", "key_press": -1, "type": "FIXATION", "trial_type": "single-stim", "trial_index": 20, "time_elapsed": 109332, "internal_node_id": "0.0-11.0-0.0"}}, {"uniqueid": "MTK1196:3UN61F00HXWRB5RC0HOVXMHJS3Y5R4", "current_trial": 21, "dateTime": 1513458018747, "trialdata": {"rt": -1, "stimulus": "<p id=\"stim\">AUTHOR</p>", "key_press": -1, "type": "PRES_VIS", "word": "author", "wordID": 60, "conditions": [18, 1200, "v", 18000], "trial": 0, "serialpos": 0, "trial_type": "single-stim", "trial_index": 21, "time_elapsed": 110535, "internal_node_id": "0.0-12.0"}}, {"uniqueid": "MTK1196:3UN61F00HXWRB5RC0HOVXMHJS3Y5R4", "current_trial": 22, "dateTime": 1513458021112, "trialdata": {"rt": -1, "stimulus": "<p id=\"stim\">FRANCE</p>", "key_press": -1, "type": "PRES_VIS", "word": "france", "wordID": 600, "conditions": [18, 1200, "v", 18000], "trial": 0, "serialpos": 1, "trial_type": "single-stim", "trial_index": 22, "time_elapsed": 112901, "internal_node_id": "0.0-13.0"}}, {"uniqueid": "MTK1196:3UN61F00HXWRB5RC0HOVXMHJS3Y5R4", "current_trial": 23, "dateTime": 1513458023391, "trialdata": {"rt": -1, "stimulus": "<p id=\"stim\">MONEY</p>", "key_press": -1, "type": "PRES_VIS", "word": "money", "wordID": 907, "conditions": [18, 1200, "v", 18000], "trial": 0, "serialpos": 2, "trial_type": "single-stim", "trial_index": 23, "time_elapsed": 115180, "internal_node_id": "0.0-14.0"}}, {"uniqueid": "MTK1196:3UN61F00HXWRB5RC0HOVXMHJS3Y5R4", "current_trial": 24, "dateTime": 1513458025419, "trialdata": {"rt": -1, "stimulus": "<p id=\"stim\">CLOUD</p>", "key_press": -1, "type": "PRES_VIS", "word": "cloud", "wordID": 327, "conditions": [18, 1200, "v", 18000], "trial": 0, "serialpos": 3, "trial_type": "single-stim", "trial_index": 24, "time_elapsed": 117208, "internal_node_id": "0.0-15.0"}}, {"uniqueid": "MTK1196:3UN61F00HXWRB5RC0HOVXMHJS3Y5R4", "current_trial": 25, "dateTime": 1513458027535, "trialdata": {"rt": -1, "stimulus": "<p id=\"stim\">THREAD</p>", "key_press": -1, "type": "PRES_VIS", "word": "thread", "wordID": 1459, "conditions": [18, 1200, "v", 18000], "trial": 0, "serialpos": 4, "trial_type": "single-stim", "trial_index": 25, "time_elapsed": 119323, "internal_node_id": "0.0-16.0"}}, {"uniqueid": "MTK1196:3UN61F00HXWRB5RC0HOVXMHJS3Y5R4", "current_trial": 26, "dateTime": 1513458029563, "trialdata": {"rt": -1, "stimulus": "<p id=\"stim\">SLIDE</p>", "key_press": -1, "type": "PRES_VIS", "word": "slide", "wordID": 1325, "conditions": [18, 1200, "v", 18000], "trial": 0, "serialpos": 5, "trial_type": "single-stim", "trial_index": 26, "time_elapsed": 121352, "internal_node_id": "0.0-17.0"}}, {"uniqueid": "MTK1196:3UN61F00HXWRB5RC0HOVXMHJS3Y5R4", "current_trial": 27, "dateTime": 1513458031836, "trialdata": {"rt": -1, "stimulus": "<p id=\"stim\">CLAM</p>", "key_press": -1, "type": "PRES_VIS", "word": "clam", "wordID": 314, "conditions": [18, 1200, "v", 18000], "trial": 0, "serialpos": 6, "trial_type": "single-stim", "trial_index": 27, "time_elapsed": 123624, "internal_node_id": "0.0-18.0"}}, {"uniqueid": "MTK1196:3UN61F00HXWRB5RC0HOVXMHJS3Y5R4", "current_trial": 28, "dateTime": 1513458034055, "trialdata": {"rt": -1, "stimulus": "<p id=\"stim\">ACTRESS</p>", "key_press": -1, "type": "PRES_VIS", "word": "actress", "wordID": 5, "conditions": [18, 1200, "v", 18000], "trial": 0, "serialpos": 7, "trial_type": "single-stim", "trial_index": 28, "time_elapsed": 125844, "internal_node_id": "0.0-19.0"}}, {"uniqueid": "MTK1196:3UN61F00HXWRB5RC0HOVXMHJS3Y5R4", "current_trial": 29, "dateTime": 1513458036345, "trialdata": {"rt": -1, "stimulus": "<p id=\"stim\">CARROT</p>", "key_press": -1, "type": "PRES_VIS", "word": "carrot", "wordID": 248, "conditions": [18, 1200, "v", 18000], "trial": 0, "serialpos": 8, "trial_type": "single-stim", "trial_index": 29, "time_elapsed": 128133, "internal_node_id": "0.0-20.0"}}, {"uniqueid": "MTK1196:3UN61F00HXWRB5RC0HOVXMHJS3Y5R4", "current_trial": 30, "dateTime": 1513458038416, "trialdata": {"rt": -1, "stimulus": "<p id=\"stim\">ZIPPER</p>", "key_press": -1, "type": "PRES_VIS", "word": "zipper", "wordID": 1635, "conditions": [18, 1200, "v", 18000], "trial": 0, "serialpos": 9, "trial_type": "single-stim", "trial_index": 30, "time_elapsed": 130204, "internal_node_id": "0.0-21.0"}}, {"uniqueid": "MTK1196:3UN61F00HXWRB5RC0HOVXMHJS3Y5R4", "current_trial": 31, "dateTime": 1513458040684, "trialdata": {"rt": -1, "stimulus": "<p id=\"stim\">LILY</p>", "key_press": -1, "type": "PRES_VIS", "word": "lily", "wordID": 820, "conditions": [18, 1200, "v", 18000], "trial": 0, "serialpos": 10, "trial_type": "single-stim", "trial_index": 31, "time_elapsed": 132472, "internal_node_id": "0.0-22.0"}}, {"uniqueid": "MTK1196:3UN61F00HXWRB5RC0HOVXMHJS3Y5R4", "current_trial": 32, "dateTime": 1513458042928, "trialdata": {"rt": -1, "stimulus": "<p id=\"stim\">CREATURE</p>", "key_press": -1, "type": "PRES_VIS", "word": "creature", "wordID": 402, "conditions": [18, 1200, "v", 18000], "trial": 0, "serialpos": 11, "trial_type": "single-stim", "trial_index": 32, "time_elapsed": 134716, "internal_node_id": "0.0-23.0"}}, {"uniqueid": "MTK1196:3UN61F00HXWRB5RC0HOVXMHJS3Y5R4", "current_trial": 33, "dateTime": 1513458045111, "trialdata": {"rt": -1, "stimulus": "<p id=\"stim\">REBEL</p>", "key_press": -1, "type": "PRES_VIS", "word": "rebel", "wordID": 1171, "conditions": [18, 1200, "v", 18000], "trial": 0, "serialpos": 12, "trial_type": "single-stim", "trial_index": 33, "time_elapsed": 136900, "internal_node_id": "0.0-24.0"}}, {"uniqueid": "MTK1196:3UN61F00HXWRB5RC0HOVXMHJS3Y5R4", "current_trial": 34, "dateTime": 1513458047238, "trialdata": {"rt": -1, "stimulus": "<p id=\"stim\">SEAFOOD</p>", "key_press": -1, "type": "PRES_VIS", "word": "seafood", "wordID": 1259, "conditions": [18, 1200, "v", 18000], "trial": 0, "serialpos": 13, "trial_type": "single-stim", "trial_index": 34, "time_elapsed": 139026, "internal_node_id": "0.0-25.0"}}, {"uniqueid": "MTK1196:3UN61F00HXWRB5RC0HOVXMHJS3Y5R4", "current_trial": 35, "dateTime": 1513458049428, "trialdata": {"rt": -1, "stimulus": "<p id=\"stim\">ELBOW</p>", "key_press": -1, "type": "PRES_VIS", "word": "elbow", "wordID": 519, "conditions": [18, 1200, "v", 18000], "trial": 0, "serialpos": 14, "trial_type": "single-stim", "trial_index": 35, "time_elapsed": 141217, "internal_node_id": "0.0-26.0"}}, {"uniqueid": "MTK1196:3UN61F00HXWRB5RC0HOVXMHJS3Y5R4", "current_trial": 36, "dateTime": 1513458051592, "trialdata": {"rt": -1, "stimulus": "<p id=\"stim\">SPONGE</p>", "key_press": -1, "type": "PRES_VIS", "word": "sponge", "wordID": 1354, "conditions": [18, 1200, "v", 18000], "trial": 0, "serialpos": 15, "trial_type": "single-stim", "trial_index": 36, "time_elapsed": 143380, "internal_node_id": "0.0-27.0"}}, {"uniqueid": "MTK1196:3UN61F00HXWRB5RC0HOVXMHJS3Y5R4", "current_trial": 37, "dateTime": 1513458053660, "trialdata": {"rt": -1, "stimulus": "<p id=\"stim\">JURY</p>", "key_press": -1, "type": "PRES_VIS", "word": "jury", "wordID": 765, "conditions": [18, 1200, "v", 18000], "trial": 0, "serialpos": 16, "trial_type": "single-stim", "trial_index": 37, "time_elapsed": 145448, "internal_node_id": "0.0-28.0"}}, {"uniqueid": "MTK1196:3UN61F00HXWRB5RC0HOVXMHJS3Y5R4", "current_trial": 38, "dateTime": 1513458055836, "trialdata": {"rt": -1, "stimulus": "<p id=\"stim\">SUITCASE</p>", "key_press": -1, "type": "PRES_VIS", "word": "suitcase", "wordID": 1402, "conditions": [18, 1200, "v", 18000], "trial": 0, "serialpos": 17, "trial_type": "single-stim", "trial_index": 38, "time_elapsed": 147624, "internal_node_id": "0.0-29.0"}}, {"uniqueid": "MTK1196:3UN61F00HXWRB5RC0HOVXMHJS3Y5R4", "current_trial": 39, "dateTime": 1513458058027, "trialdata": {"rt": -1, "stimulus": "", "key_press": -1, "type": "PRE_RECALL_DELAY", "trial_type": "single-stim", "trial_index": 39, "time_elapsed": 149815, "internal_node_id": "0.0-30.0-0.0"}}, {"uniqueid": "MTK1196:3UN61F00HXWRB5RC0HOVXMHJS3Y5R4", "current_trial": 40, "dateTime": 1513458058558, "trialdata": {"rt": -1000, "stimulus": "/static/audio/400Hz.wav", "key_press": -1, "type": "PRE_RECALL_ALERT", "trial_type": "single-audio", "trial_index": 40, "time_elapsed": 150346, "internal_node_id": "0.0-31.0"}}, {"uniqueid": "MTK1196:3UN61F00HXWRB5RC0HOVXMHJS3Y5R4", "current_trial": 41, "dateTime": 1513458118572, "trialdata": {"rt": [6659, 7451, 11187, 15412, 17998, 19075, 19379, 19699, 19979, 20235, 20538, 21195, 21660, 22027, 22699, 23250, 23587, 23859, 24211, 25235, 26691, 30339, 30675, 31155, 31387, 32618, 33266, 34011, 34971, 36275], "recwords": ["e", "e", "elbow", "head", "", "e", "e", "e", "e", "e", "e", "e", "e", "e", "a", "s", "", "f", "f", "fa", "france", "", "", "", "", "eeee", "a", "sdsadas", "asdasda", "asdwe"], "type": "FREE_RECALL", "conditions": [18, 1200, "v", 18000], "trial": 0, "trial_type": "free-recall", "trial_index": 41, "time_elapsed": 210354, "internal_node_id": "0.0-32.0-0.0"}}, {"uniqueid": "MTK1196:3UN61F00HXWRB5RC0HOVXMHJS3Y5R4", "current_trial": 42, "dateTime": 1513458122087, "trialdata": {"rt": 1512, "key_press": 13, "type": "INSTRUCTIONS", "trial_type": "text", "trial_index": 42, "time_elapsed": 213875, "internal_node_id": "0.0-33.0"}}, {"uniqueid": "MTK1196:3UN61F00HXWRB5RC0HOVXMHJS3Y5R4", "current_trial": 43, "dateTime": 1513458142093, "trialdata": {"rt": [2443, 6283, 10891, 13527, 16360, 17874], "responses": ["13", "20", "22", "7", "13", "3"], "num1": [5, 9, 9, 2, 2, 1, 9], "num2": [3, 8, 6, 4, 3, 1, 1], "num3": [5, 3, 7, 1, 8, 1, 3], "type": "DISTRACTOR", "conditions": [18, 1200, "a", 18000], "trial": 1, "trial_type": "math-distractor", "trial_index": 43, "time_elapsed": 233881, "internal_node_id": "0.0-34.0"}}, {"uniqueid": "MTK1196:3UN61F00HXWRB5RC0HOVXMHJS3Y5R4", "current_trial": 44, "dateTime": 1513458145094, "trialdata": {"rt": -1, "stimulus": "<p id=\"stim\">10</p>", "key_press": -1, "trial_type": "single-stim", "trial_index": 44, "time_elapsed": 236883, "internal_node_id": "0.0-35.0-0.0"}}, {"uniqueid": "MTK1196:3UN61F00HXWRB5RC0HOVXMHJS3Y5R4", "current_trial": 45, "dateTime": 1513458146097, "trialdata": {"rt": -1, "stimulus": "<p id=\"stim\">9</p>", "key_press": -1, "trial_type": "single-stim", "trial_index": 45, "time_elapsed": 237885, "internal_node_id": "0.0-35.0-1.0"}}, {"uniqueid": "MTK1196:3UN61F00HXWRB5RC0HOVXMHJS3Y5R4", "current_trial": 46, "dateTime": 1513458147099, "trialdata": {"rt": -1, "stimulus": "<p id=\"stim\">8</p>", "key_press": -1, "trial_type": "single-stim", "trial_index": 46, "time_elapsed": 238887, "internal_node_id": "0.0-35.0-2.0"}}, {"uniqueid": "MTK1196:3UN61F00HXWRB5RC0HOVXMHJS3Y5R4", "current_trial": 47, "dateTime": 1513458148101, "trialdata": {"rt": -1, "stimulus": "<p id=\"stim\">7</p>", "key_press": -1, "trial_type": "single-stim", "trial_index": 47, "time_elapsed": 239889, "internal_node_id": "0.0-35.0-3.0"}}, {"uniqueid": "MTK1196:3UN61F00HXWRB5RC0HOVXMHJS3Y5R4", "current_trial": 48, "dateTime": 1513458149103, "trialdata": {"rt": -1, "stimulus": "<p id=\"stim\">6</p>", "key_press": -1, "trial_type": "single-stim", "trial_index": 48, "time_elapsed": 240891, "internal_node_id": "0.0-35.0-4.0"}}, {"uniqueid": "MTK1196:3UN61F00HXWRB5RC0HOVXMHJS3Y5R4", "current_trial": 49, "dateTime": 1513458150105, "trialdata": {"rt": -1, "stimulus": "<p id=\"stim\">5</p>", "key_press": -1, "trial_type": "single-stim", "trial_index": 49, "time_elapsed": 241893, "internal_node_id": "0.0-35.0-5.0"}}, {"uniqueid": "MTK1196:3UN61F00HXWRB5RC0HOVXMHJS3Y5R4", "current_trial": 50, "dateTime": 1513458151106, "trialdata": {"rt": -1, "stimulus": "<p id=\"stim\">4</p>", "key_press": -1, "trial_type": "single-stim", "trial_index": 50, "time_elapsed": 242895, "internal_node_id": "0.0-35.0-6.0"}}, {"uniqueid": "MTK1196:3UN61F00HXWRB5RC0HOVXMHJS3Y5R4", "current_trial": 51, "dateTime": 1513458152107, "trialdata": {"rt": -1, "stimulus": "<p id=\"stim\">3</p>", "key_press": -1, "trial_type": "single-stim", "trial_index": 51, "time_elapsed": 243896, "internal_node_id": "0.0-35.0-7.0"}}, {"uniqueid": "MTK1196:3UN61F00HXWRB5RC0HOVXMHJS3Y5R4", "current_trial": 52, "dateTime": 1513458153109, "trialdata": {"rt": -1, "stimulus": "<p id=\"stim\">2</p>", "key_press": -1, "trial_type": "single-stim", "trial_index": 52, "time_elapsed": 244898, "internal_node_id": "0.0-35.0-8.0"}}, {"uniqueid": "MTK1196:3UN61F00HXWRB5RC0HOVXMHJS3Y5R4", "current_trial": 53, "dateTime": 1513458154111, "trialdata": {"rt": -1, "stimulus": "<p id=\"stim\">1</p>", "key_press": -1, "trial_type": "single-stim", "trial_index": 53, "time_elapsed": 245900, "internal_node_id": "0.0-35.0-9.0"}}, {"uniqueid": "MTK1196:3UN61F00HXWRB5RC0HOVXMHJS3Y5R4", "current_trial": 54, "dateTime": 1513458155614, "trialdata": {"rt": -1, "stimulus": "<p id=\"stim\">+</p>", "key_press": -1, "type": "FIXATION", "trial_type": "single-stim", "trial_index": 54, "time_elapsed": 247403, "internal_node_id": "0.0-36.0-0.0"}}, {"uniqueid": "MTK1196:3UN61F00HXWRB5RC0HOVXMHJS3Y5R4", "current_trial": 55, "dateTime": 1513458157639, "trialdata": {"rt": -1000, "stimulus": "/static/audio/wordpool/SIBLING.wav", "key_press": -1, "type": "PRES_AUD", "word": "sibling", "wordID": 1300, "conditions": [18, 1200, "a", 18000], "trial": 1, "serialpos": 0, "trial_type": "single-audio", "trial_index": 55, "time_elapsed": 249427, "internal_node_id": "0.0-37.0"}}, {"uniqueid": "MTK1196:3UN61F00HXWRB5RC0HOVXMHJS3Y5R4", "current_trial": 56, "dateTime": 1513458160026, "trialdata": {"rt": -1000, "stimulus": "/static/audio/wordpool/TEACHER.wav", "key_press": -1, "type": "PRES_AUD", "word": "teacher", "wordID": 1439, "conditions": [18, 1200, "a", 18000], "trial": 1, "serialpos": 1, "trial_type": "single-audio", "trial_index": 56, "time_elapsed": 251815, "internal_node_id": "0.0-38.0"}}, {"uniqueid": "MTK1196:3UN61F00HXWRB5RC0HOVXMHJS3Y5R4", "current_trial": 57, "dateTime": 1513458162421, "trialdata": {"rt": -1000, "stimulus": "/static/audio/wordpool/BUREAU.wav", "key_press": -1, "type": "PRES_AUD", "word": "bureau", "wordID": 198, "conditions": [18, 1200, "a", 18000], "trial": 1, "serialpos": 2, "trial_type": "single-audio", "trial_index": 57, "time_elapsed": 254210, "internal_node_id": "0.0-39.0"}}, {"uniqueid": "MTK1196:3UN61F00HXWRB5RC0HOVXMHJS3Y5R4", "current_trial": 58, "dateTime": 1513458164705, "trialdata": {"rt": -1000, "stimulus": "/static/audio/wordpool/MARKER.wav", "key_press": -1, "type": "PRES_AUD", "word": "marker", "wordID": 869, "conditions": [18, 1200, "a", 18000], "trial": 1, "serialpos": 3, "trial_type": "single-audio", "trial_index": 58, "time_elapsed": 256494, "internal_node_id": "0.0-40.0"}}, {"uniqueid": "MTK1196:3UN61F00HXWRB5RC0HOVXMHJS3Y5R4", "current_trial": 59, "dateTime": 1513458166860, "trialdata": {"rt": -1000, "stimulus": "/static/audio/wordpool/MISSILE.wav", "key_press": -1, "type": "PRES_AUD", "word": "missile", "wordID": 899, "conditions": [18, 1200, "a", 18000], "trial": 1, "serialpos": 4, "trial_type": "single-audio", "trial_index": 59, "time_elapsed": 258649, "internal_node_id": "0.0-41.0"}}, {"uniqueid": "MTK1196:3UN61F00HXWRB5RC0HOVXMHJS3Y5R4", "current_trial": 60, "dateTime": 1513458168956, "trialdata": {"rt": -1000, "stimulus": "/static/audio/wordpool/BUG.wav", "key_press": -1, "type": "PRES_AUD", "word": "bug", "wordID": 186, "conditions": [18, 1200, "a", 18000], "trial": 1, "serialpos": 5, "trial_type": "single-audio", "trial_index": 60, "time_elapsed": 260744, "internal_node_id": "0.0-42.0"}}, {"uniqueid": "MTK1196:3UN61F00HXWRB5RC0HOVXMHJS3Y5R4", "current_trial": 61, "dateTime": 1513458170972, "trialdata": {"rt": -1000, "stimulus": "/static/audio/wordpool/PEBBLE.wav", "key_press": -1, "type": "PRES_AUD", "word": "pebble", "wordID": 1034, "conditions": [18, 1200, "a", 18000], "trial": 1, "serialpos": 6, "trial_type": "single-audio", "trial_index": 61, "time_elapsed": 262760, "internal_node_id": "0.0-43.0"}}, {"uniqueid": "MTK1196:3UN61F00HXWRB5RC0HOVXMHJS3Y5R4", "current_trial": 62, "dateTime": 1513458173004, "trialdata": {"rt": -1000, "stimulus": "/static/audio/wordpool/SOFTBALL.wav", "key_press": -1, "type": "PRES_AUD", "word": "softball", "wordID": 1342, "conditions": [18, 1200, "a", 18000], "trial": 1, "serialpos": 7, "trial_type": "single-audio", "trial_index": 62, "time_elapsed": 264792, "internal_node_id": "0.0-44.0"}}, {"uniqueid": "MTK1196:3UN61F00HXWRB5RC0HOVXMHJS3Y5R4", "current_trial": 63, "dateTime": 1513458175381, "trialdata": {"rt": -1000, "stimulus": "/static/audio/wordpool/VICTIM.wav", "key_press": -1, "type": "PRES_AUD", "word": "victim", "wordID": 1561, "conditions": [18, 1200, "a", 18000], "trial": 1, "serialpos": 8, "trial_type": "single-audio", "trial_index": 63, "time_elapsed": 267170, "internal_node_id": "0.0-45.0"}}, {"uniqueid": "MTK1196:3UN61F00HXWRB5RC0HOVXMHJS3Y5R4", "current_trial": 64, "dateTime": 1513458177492, "trialdata": {"rt": -1000, "stimulus": "/static/audio/wordpool/GAZELLE.wav", "key_press": -1, "type": "PRES_AUD", "word": "gazelle", "wordID": 627, "conditions": [18, 1200, "a", 18000], "trial": 1, "serialpos": 9, "trial_type": "single-audio", "trial_index": 64, "time_elapsed": 269280, "internal_node_id": "0.0-46.0"}}, {"uniqueid": "MTK1196:3UN61F00HXWRB5RC0HOVXMHJS3Y5R4", "current_trial": 65, "dateTime": 1513458179762, "trialdata": {"rt": -1000, "stimulus": "/static/audio/wordpool/CASKET.wav", "key_press": -1, "type": "PRES_AUD", "word": "casket", "wordID": 254, "conditions": [18, 1200, "a", 18000], "trial": 1, "serialpos": 10, "trial_type": "single-audio", "trial_index": 65, "time_elapsed": 271550, "internal_node_id": "0.0-47.0"}}, {"uniqueid": "MTK1196:3UN61F00HXWRB5RC0HOVXMHJS3Y5R4", "current_trial": 66, "dateTime": 1513458182010, "trialdata": {"rt": -1000, "stimulus": "/static/audio/wordpool/ATLAS.wav", "key_press": -1, "type": "PRES_AUD", "word": "atlas", "wordID": 52, "conditions": [18, 1200, "a", 18000], "trial": 1, "serialpos": 11, "trial_type": "single-audio", "trial_index": 66, "time_elapsed": 273799, "internal_node_id": "0.0-48.0"}}, {"uniqueid": "MTK1196:3UN61F00HXWRB5RC0HOVXMHJS3Y5R4", "current_trial": 67, "dateTime": 1513458184212, "trialdata": {"rt": -1000, "stimulus": "/static/audio/wordpool/TWEEZERS.wav", "key_press": -1, "type": "PRES_AUD", "word": "tweezers", "wordID": 1525, "conditions": [18, 1200, "a", 18000], "trial": 1, "serialpos": 12, "trial_type": "single-audio", "trial_index": 67, "time_elapsed": 276001, "internal_node_id": "0.0-49.0"}}, {"uniqueid": "MTK1196:3UN61F00HXWRB5RC0HOVXMHJS3Y5R4", "current_trial": 68, "dateTime": 1513458186434, "trialdata": {"rt": -1000, "stimulus": "/static/audio/wordpool/BEAST.wav", "key_press": -1, "type": "PRES_AUD", "word": "beast", "wordID": 107, "conditions": [18, 1200, "a", 18000], "trial": 1, "serialpos": 13, "trial_type": "single-audio", "trial_index": 68, "time_elapsed": 278219, "internal_node_id": "0.0-50.0"}}, {"uniqueid": "MTK1196:3UN61F00HXWRB5RC0HOVXMHJS3Y5R4", "current_trial": 69, "dateTime": 1513458188703, "trialdata": {"rt": -1000, "stimulus": "/static/audio/wordpool/BOYFRIEND.wav", "key_press": -1, "type": "PRES_AUD", "word": "boyfriend", "wordID": 161, "conditions": [18, 1200, "a", 18000], "trial": 1, "serialpos": 14, "trial_type": "single-audio", "trial_index": 69, "time_elapsed": 280492, "internal_node_id": "0.0-51.0"}}, {"uniqueid": "MTK1196:3UN61F00HXWRB5RC0HOVXMHJS3Y5R4", "current_trial": 70, "dateTime": 1513458191001, "trialdata": {"rt": -1000, "stimulus": "/static/audio/wordpool/PILOT.wav", "key_press": -1, "type": "PRES_AUD", "word": "pilot", "wordID": 1069, "conditions": [18, 1200, "a", 18000], "trial": 1, "serialpos": 15, "trial_type": "single-audio", "trial_index": 70, "time_elapsed": 282790, "internal_node_id": "0.0-52.0"}}, {"uniqueid": "MTK1196:3UN61F00HXWRB5RC0HOVXMHJS3Y5R4", "current_trial": 71, "dateTime": 1513458193216, "trialdata": {"rt": -1000, "stimulus": "/static/audio/wordpool/PICNIC.wav", "key_press": -1, "type": "PRES_AUD", "word": "picnic", "wordID": 1059, "conditions": [18, 1200, "a", 18000], "trial": 1, "serialpos": 16, "trial_type": "single-audio", "trial_index": 71, "time_elapsed": 285005, "internal_node_id": "0.0-53.0"}}, {"uniqueid": "MTK1196:3UN61F00HXWRB5RC0HOVXMHJS3Y5R4", "current_trial": 72, "dateTime": 1513458195310, "trialdata": {"rt": -1000, "stimulus": "/static/audio/wordpool/COUCH.wav", "key_press": -1, "type": "PRES_AUD", "word": "couch", "wordID": 385, "conditions": [18, 1200, "a", 18000], "trial": 1, "serialpos": 17, "trial_type": "single-audio", "trial_index": 72, "time_elapsed": 287099, "internal_node_id": "0.0-54.0"}}, {"uniqueid": "MTK1196:3UN61F00HXWRB5RC0HOVXMHJS3Y5R4", "current_trial": 73, "dateTime": 1513458196550, "trialdata": {"rt": -1, "stimulus": "", "key_press": -1, "type": "PRE_RECALL_DELAY", "trial_type": "single-stim", "trial_index": 73, "time_elapsed": 288339, "internal_node_id": "0.0-55.0-0.0"}}, {"uniqueid": "MTK1196:3UN61F00HXWRB5RC0HOVXMHJS3Y5R4", "current_trial": 74, "dateTime": 1513458197055, "trialdata": {"rt": -1000, "stimulus": "/static/audio/400Hz.wav", "key_press": -1, "type": "PRE_RECALL_ALERT", "trial_type": "single-audio", "trial_index": 74, "time_elapsed": 288844, "internal_node_id": "0.0-56.0"}}, {"uniqueid": "MTK1196:3UN61F00HXWRB5RC0HOVXMHJS3Y5R4", "current_trial": 75, "dateTime": 1513458257065, "trialdata": {"rt": [2090, 3762, 6649, 10906, 15002, 18298, 21242], "recwords": ["couch", "sibling", "picnic", "atlas", "euro", "boyfriend", "marker"], "type": "FREE_RECALL", "conditions": [18, 1200, "a", 18000], "trial": 1, "trial_type": "free-recall", "trial_index": 75, "time_elapsed": 348849, "internal_node_id": "0.0-57.0-0.0"}}, {"uniqueid": "MTK1196:3UN61F00HXWRB5RC0HOVXMHJS3Y5R4", "current_trial": 76, "dateTime": 1513458266433, "trialdata": {"rt": 7352, "key_press": 13, "type": "INSTRUCTIONS", "trial_type": "text", "trial_index": 76, "time_elapsed": 358211, "internal_node_id": "0.0-58.0"}}, {"uniqueid": "MTK1196:3UN61F00HXWRB5RC0HOVXMHJS3Y5R4", "current_trial": 77, "dateTime": 1513458291440, "trialdata": {"rt": [4174, 7312, 9392, 15495, 17327, 19887, 22943], "responses": ["8", "13", "15", "18", "11", "8", "13"], "num1": [1, 7, 6, 9, 4, 2, 4, 3], "num2": [1, 5, 6, 6, 4, 2, 6, 4], "num3": [6, 1, 3, 3, 3, 4, 3, 4], "type": "DISTRACTOR", "conditions": [24, 800, "v", 24000], "trial": 2, "trial_type": "math-distractor", "trial_index": 77, "time_elapsed": 383229, "internal_node_id": "0.0-59.0"}}, {"uniqueid": "MTK1196:3UN61F00HXWRB5RC0HOVXMHJS3Y5R4", "current_trial": 78, "dateTime": 1513458294445, "trialdata": {"rt": -1, "stimulus": "<p id=\"stim\">10</p>", "key_press": -1, "trial_type": "single-stim", "trial_index": 78, "time_elapsed": 386234, "internal_node_id": "0.0-60.0-0.0"}}, {"uniqueid": "MTK1196:3UN61F00HXWRB5RC0HOVXMHJS3Y5R4", "current_trial": 79, "dateTime": 1513458295448, "trialdata": {"rt": -1, "stimulus": "<p id=\"stim\">9</p>", "key_press": -1, "trial_type": "single-stim", "trial_index": 79, "time_elapsed": 387236, "internal_node_id": "0.0-60.0-1.0"}}, {"uniqueid": "MTK1196:3UN61F00HXWRB5RC0HOVXMHJS3Y5R4", "current_trial": 80, "dateTime": 1513458296451, "trialdata": {"rt": -1, "stimulus": "<p id=\"stim\">8</p>", "key_press": -1, "trial_type": "single-stim", "trial_index": 80, "time_elapsed": 388239, "internal_node_id": "0.0-60.0-2.0"}}, {"uniqueid": "MTK1196:3UN61F00HXWRB5RC0HOVXMHJS3Y5R4", "current_trial": 81, "dateTime": 1513458297453, "trialdata": {"rt": -1, "stimulus": "<p id=\"stim\">7</p>", "key_press": -1, "trial_type": "single-stim", "trial_index": 81, "time_elapsed": 389241, "internal_node_id": "0.0-60.0-3.0"}}, {"uniqueid": "MTK1196:3UN61F00HXWRB5RC0HOVXMHJS3Y5R4", "current_trial": 82, "dateTime": 1513458298457, "trialdata": {"rt": -1, "stimulus": "<p id=\"stim\">6</p>", "key_press": -1, "trial_type": "single-stim", "trial_index": 82, "time_elapsed": 390245, "internal_node_id": "0.0-60.0-4.0"}}, {"uniqueid": "MTK1196:3UN61F00HXWRB5RC0HOVXMHJS3Y5R4", "current_trial": 83, "dateTime": 1513458299459, "trialdata": {"rt": -1, "stimulus": "<p id=\"stim\">5</p>", "key_press": -1, "trial_type": "single-stim", "trial_index": 83, "time_elapsed": 391247, "internal_node_id": "0.0-60.0-5.0"}}, {"uniqueid": "MTK1196:3UN61F00HXWRB5RC0HOVXMHJS3Y5R4", "current_trial": 84, "dateTime": 1513458300462, "trialdata": {"rt": -1, "stimulus": "<p id=\"stim\">4</p>", "key_press": -1, "trial_type": "single-stim", "trial_index": 84, "time_elapsed": 392250, "internal_node_id": "0.0-60.0-6.0"}}, {"uniqueid": "MTK1196:3UN61F00HXWRB5RC0HOVXMHJS3Y5R4", "current_trial": 85, "dateTime": 1513458301465, "trialdata": {"rt": -1, "stimulus": "<p id=\"stim\">3</p>", "key_press": -1, "trial_type": "single-stim", "trial_index": 85, "time_elapsed": 393253, "internal_node_id": "0.0-60.0-7.0"}}, {"uniqueid": "MTK1196:3UN61F00HXWRB5RC0HOVXMHJS3Y5R4", "current_trial": 86, "dateTime": 1513458302467, "trialdata": {"rt": -1, "stimulus": "<p id=\"stim\">2</p>", "key_press": -1, "trial_type": "single-stim", "trial_index": 86, "time_elapsed": 394255, "internal_node_id": "0.0-60.0-8.0"}}, {"uniqueid": "MTK1196:3UN61F00HXWRB5RC0HOVXMHJS3Y5R4", "current_trial": 87, "dateTime": 1513458303468, "trialdata": {"rt": -1, "stimulus": "<p id=\"stim\">1</p>", "key_press": -1, "trial_type": "single-stim", "trial_index": 87, "time_elapsed": 395257, "internal_node_id": "0.0-60.0-9.0"}}, {"uniqueid": "MTK1196:3UN61F00HXWRB5RC0HOVXMHJS3Y5R4", "current_trial": 88, "dateTime": 1513458304970, "trialdata": {"rt": -1, "stimulus": "<p id=\"stim\">+</p>", "key_press": -1, "type": "FIXATION", "trial_type": "single-stim", "trial_index": 88, "time_elapsed": 396759, "internal_node_id": "0.0-61.0-0.0"}}, {"uniqueid": "MTK1196:3UN61F00HXWRB5RC0HOVXMHJS3Y5R4", "current_trial": 89, "dateTime": 1513458305772, "trialdata": {"rt": -1, "stimulus": "<p id=\"stim\">POSSUM</p>", "key_press": -1, "type": "PRES_VIS", "word": "possum", "wordID": 1111, "conditions": [24, 800, "v", 24000], "trial": 2, "serialpos": 0, "trial_type": "single-stim", "trial_index": 89, "time_elapsed": 397561, "internal_node_id": "0.0-62.0"}}, {"uniqueid": "MTK1196:3UN61F00HXWRB5RC0HOVXMHJS3Y5R4", "current_trial": 90, "dateTime": 1513458307529, "trialdata": {"rt": -1, "stimulus": "<p id=\"stim\">POLICE</p>", "key_press": -1, "type": "PRES_VIS", "word": "police", "wordID": 1097, "conditions": [24, 800, "v", 24000], "trial": 2, "serialpos": 1, "trial_type": "single-stim", "trial_index": 90, "time_elapsed": 399318, "internal_node_id": "0.0-63.0"}}, {"uniqueid": "MTK1196:3UN61F00HXWRB5RC0HOVXMHJS3Y5R4", "current_trial": 91, "dateTime": 1513458309519, "trialdata": {"rt": -1, "stimulus": "<p id=\"stim\">BRANDY</p>", "key_press": -1, "type": "PRES_VIS", "word": "brandy", "wordID": 168, "conditions": [24, 800, "v", 24000], "trial": 2, "serialpos": 2, "trial_type": "single-stim", "trial_index": 91, "time_elapsed": 401308, "internal_node_id": "0.0-64.0"}}, {"uniqueid": "MTK1196:3UN61F00HXWRB5RC0HOVXMHJS3Y5R4", "current_trial": 92, "dateTime": 1513458311304, "trialdata": {"rt": -1, "stimulus": "<p id=\"stim\">LABEL</p>", "key_press": -1, "type": "PRES_VIS", "word": "label", "wordID": 789, "conditions": [24, 800, "v", 24000], "trial": 2, "serialpos": 3, "trial_type": "single-stim", "trial_index": 92, "time_elapsed": 403093, "internal_node_id": "0.0-65.0"}}, {"uniqueid": "MTK1196:3UN61F00HXWRB5RC0HOVXMHJS3Y5R4", "current_trial": 93, "dateTime": 1513458313193, "trialdata": {"rt": -1, "stimulus": "<p id=\"stim\">CLAMP</p>", "key_press": -1, "type": "PRES_VIS", "word": "clamp", "wordID": 315, "conditions": [24, 800, "v", 24000], "trial": 2, "serialpos": 4, "trial_type": "single-stim", "trial_index": 93, "time_elapsed": 404982, "internal_node_id": "0.0-66.0"}}, {"uniqueid": "MTK1196:3UN61F00HXWRB5RC0HOVXMHJS3Y5R4", "current_trial": 94, "dateTime": 1513458314893, "trialdata": {"rt": -1, "stimulus": "<p id=\"stim\">DRUG</p>", "key_press": -1, "type": "PRES_VIS", "word": "drug", "wordID": 500, "conditions": [24, 800, "v", 24000], "trial": 2, "serialpos": 5, "trial_type": "single-stim", "trial_index": 94, "time_elapsed": 406682, "internal_node_id": "0.0-67.0"}}, {"uniqueid": "MTK1196:3UN61F00HXWRB5RC0HOVXMHJS3Y5R4", "current_trial": 95, "dateTime": 1513458316892, "trialdata": {"rt": -1, "stimulus": "<p id=\"stim\">DRESS</p>", "key_press": -1, "type": "PRES_VIS", "word": "dress", "wordID": 494, "conditions": [24, 800, "v", 24000], "trial": 2, "serialpos": 6, "trial_type": "single-stim", "trial_index": 95, "time_elapsed": 408681, "internal_node_id": "0.0-68.0"}}, {"uniqueid": "MTK1196:3UN61F00HXWRB5RC0HOVXMHJS3Y5R4", "current_trial": 96, "dateTime": 1513458318773, "trialdata": {"rt": -1, "stimulus": "<p id=\"stim\">FOX</p>", "key_press": -1, "type": "PRES_VIS", "word": "fox", "wordID": 597, "conditions": [24, 800, "v", 24000], "trial": 2, "serialpos": 7, "trial_type": "single-stim", "trial_index": 96, "time_elapsed": 410562, "internal_node_id": "0.0-69.0"}}, {"uniqueid": "MTK1196:3UN61F00HXWRB5RC0HOVXMHJS3Y5R4", "current_trial": 97, "dateTime": 1513458320739, "trialdata": {"rt": -1, "stimulus": "<p id=\"stim\">COSTUME</p>", "key_press": -1, "type": "PRES_VIS", "word": "costume", "wordID": 382, "conditions": [24, 800, "v", 24000], "trial": 2, "serialpos": 8, "trial_type": "single-stim", "trial_index": 97, "time_elapsed": 412528, "internal_node_id": "0.0-70.0"}}, {"uniqueid": "MTK1196:3UN61F00HXWRB5RC0HOVXMHJS3Y5R4", "current_trial": 98, "dateTime": 1513458322407, "trialdata": {"rt": -1, "stimulus": "<p id=\"stim\">SCARECROW</p>", "key_press": -1, "type": "PRES_VIS", "word": "scarecrow", "wordID": 1244, "conditions": [24, 800, "v", 24000], "trial": 2, "serialpos": 9, "trial_type": "single-stim", "trial_index": 98, "time_elapsed": 414196, "internal_node_id": "0.0-71.0"}}, {"uniqueid": "MTK1196:3UN61F00HXWRB5RC0HOVXMHJS3Y5R4", "current_trial": 99, "dateTime": 1513458324184, "trialdata": {"rt": -1, "stimulus": "<p id=\"stim\">BLUEPRINT</p>", "key_press": -1, "type": "PRES_VIS", "word": "blueprint", "wordID": 141, "conditions": [24, 800, "v", 24000], "trial": 2, "serialpos": 10, "trial_type": "single-stim", "trial_index": 99, "time_elapsed": 415973, "internal_node_id": "0.0-72.0"}}, {"uniqueid": "MTK1196:3UN61F00HXWRB5RC0HOVXMHJS3Y5R4", "current_trial": 100, "dateTime": 1513458326141, "trialdata": {"rt": -1, "stimulus": "<p id=\"stim\">MESSAGE</p>", "key_press": -1, "type": "PRES_VIS", "word": "message", "wordID": 887, "conditions": [24, 800, "v", 24000], "trial": 2, "serialpos": 11, "trial_type": "single-stim", "trial_index": 100, "time_elapsed": 417930, "internal_node_id": "0.0-73.0"}}, {"uniqueid": "MTK1196:3UN61F00HXWRB5RC0HOVXMHJS3Y5R4", "current_trial": 101, "dateTime": 1513458327843, "trialdata": {"rt": -1, "stimulus": "<p id=\"stim\">SERVER</p>", "key_press": -1, "type": "PRES_VIS", "word": "server", "wordID": 1271, "conditions": [24, 800, "v", 24000], "trial": 2, "serialpos": 12, "trial_type": "single-stim", "trial_index": 101, "time_elapsed": 419632, "internal_node_id": "0.0-74.0"}}, {"uniqueid": "MTK1196:3UN61F00HXWRB5RC0HOVXMHJS3Y5R4", "current_trial": 102, "dateTime": 1513458329769, "trialdata": {"rt": -1, "stimulus": "<p id=\"stim\">HONEY</p>", "key_press": -1, "type": "PRES_VIS", "word": "honey", "wordID": 712, "conditions": [24, 800, "v", 24000], "trial": 2, "serialpos": 13, "trial_type": "single-stim", "trial_index": 102, "time_elapsed": 421558, "internal_node_id": "0.0-75.0"}}, {"uniqueid": "MTK1196:3UN61F00HXWRB5RC0HOVXMHJS3Y5R4", "current_trial": 103, "dateTime": 1513458331604, "trialdata": {"rt": -1, "stimulus": "<p id=\"stim\">MILK</p>", "key_press": -1, "type": "PRES_VIS", "word": "milk", "wordID": 894, "conditions": [24, 800, "v", 24000], "trial": 2, "serialpos": 14, "trial_type": "single-stim", "trial_index": 103, "time_elapsed": 423392, "internal_node_id": "0.0-76.0"}}, {"uniqueid": "MTK1196:3UN61F00HXWRB5RC0HOVXMHJS3Y5R4", "current_trial": 104, "dateTime": 1513458333512, "trialdata": {"rt": -1, "stimulus": "<p id=\"stim\">INFANT</p>", "key_press": -1, "type": "PRES_VIS", "word": "infant", "wordID": 736, "conditions": [24, 800, "v", 24000], "trial": 2, "serialpos": 15, "trial_type": "single-stim", "trial_index": 104, "time_elapsed": 425300, "internal_node_id": "0.0-77.0"}}, {"uniqueid": "MTK1196:3UN61F00HXWRB5RC0HOVXMHJS3Y5R4", "current_trial": 105, "dateTime": 1513458335449, "trialdata": {"rt": -1, "stimulus": "<p id=\"stim\">GLOVE</p>", "key_press": -1, "type": "PRES_VIS", "word": "glove", "wordID": 641, "conditions": [24, 800, "v", 24000], "trial": 2, "serialpos": 16, "trial_type": "single-stim", "trial_index": 105, "time_elapsed": 427237, "internal_node_id": "0.0-78.0"}}, {"uniqueid": "MTK1196:3UN61F00HXWRB5RC0HOVXMHJS3Y5R4", "current_trial": 106, "dateTime": 1513458337199, "trialdata": {"rt": -1, "stimulus": "<p id=\"stim\">CUPBOARD</p>", "key_press": -1, "type": "PRES_VIS", "word": "cupboard", "wordID": 424, "conditions": [24, 800, "v", 24000], "trial": 2, "serialpos": 17, "trial_type": "single-stim", "trial_index": 106, "time_elapsed": 428988, "internal_node_id": "0.0-79.0"}}, {"uniqueid": "MTK1196:3UN61F00HXWRB5RC0HOVXMHJS3Y5R4", "current_trial": 107, "dateTime": 1513458339116, "trialdata": {"rt": -1, "stimulus": "<p id=\"stim\">AIRPLANE</p>", "key_press": -1, "type": "PRES_VIS", "word": "airplane", "wordID": 11, "conditions": [24, 800, "v", 24000], "trial": 2, "serialpos": 18, "trial_type": "single-stim", "trial_index": 107, "time_elapsed": 430905, "internal_node_id": "0.0-80.0"}}, {"uniqueid": "MTK1196:3UN61F00HXWRB5RC0HOVXMHJS3Y5R4", "current_trial": 108, "dateTime": 1513458340796, "trialdata": {"rt": -1, "stimulus": "<p id=\"stim\">GIFT</p>", "key_press": -1, "type": "PRES_VIS", "word": "gift", "wordID": 634, "conditions": [24, 800, "v", 24000], "trial": 2, "serialpos": 19, "trial_type": "single-stim", "trial_index": 108, "time_elapsed": 432585, "internal_node_id": "0.0-81.0"}}, {"uniqueid": "MTK1196:3UN61F00HXWRB5RC0HOVXMHJS3Y5R4", "current_trial": 109, "dateTime": 1513458342741, "trialdata": {"rt": -1, "stimulus": "<p id=\"stim\">CRIB</p>", "key_press": -1, "type": "PRES_VIS", "word": "crib", "wordID": 406, "conditions": [24, 800, "v", 24000], "trial": 2, "serialpos": 20, "trial_type": "single-stim", "trial_index": 109, "time_elapsed": 434530, "internal_node_id": "0.0-82.0"}}, {"uniqueid": "MTK1196:3UN61F00HXWRB5RC0HOVXMHJS3Y5R4", "current_trial": 110, "dateTime": 1513458344424, "trialdata": {"rt": -1, "stimulus": "<p id=\"stim\">SEAL</p>", "key_press": -1, "type": "PRES_VIS", "word": "seal", "wordID": 1261, "conditions": [24, 800, "v", 24000], "trial": 2, "serialpos": 21, "trial_type": "single-stim", "trial_index": 110, "time_elapsed": 436212, "internal_node_id": "0.0-83.0"}}, {"uniqueid": "MTK1196:3UN61F00HXWRB5RC0HOVXMHJS3Y5R4", "current_trial": 111, "dateTime": 1513458346249, "trialdata": {"rt": -1, "stimulus": "<p id=\"stim\">BUGGY</p>", "key_press": -1, "type": "PRES_VIS", "word": "buggy", "wordID": 187, "conditions": [24, 800, "v", 24000], "trial": 2, "serialpos": 22, "trial_type": "single-stim", "trial_index": 111, "time_elapsed": 438038, "internal_node_id": "0.0-84.0"}}, {"uniqueid": "MTK1196:3UN61F00HXWRB5RC0HOVXMHJS3Y5R4", "current_trial": 112, "dateTime": 1513458347861, "trialdata": {"rt": -1, "stimulus": "<p id=\"stim\">DRIVER</p>", "key_press": -1, "type": "PRES_VIS", "word": "driver", "wordID": 498, "conditions": [24, 800, "v", 24000], "trial": 2, "serialpos": 23, "trial_type": "single-stim", "trial_index": 112, "time_elapsed": 439649, "internal_node_id": "0.0-85.0"}}, {"uniqueid": "MTK1196:3UN61F00HXWRB5RC0HOVXMHJS3Y5R4", "current_trial": 113, "dateTime": 1513458350052, "trialdata": {"rt": -1, "stimulus": "", "key_press": -1, "type": "PRE_RECALL_DELAY", "trial_type": "single-stim", "trial_index": 113, "time_elapsed": 441841, "internal_node_id": "0.0-86.0-0.0"}}, {"uniqueid": "MTK1196:3UN61F00HXWRB5RC0HOVXMHJS3Y5R4", "current_trial": 114, "dateTime": 1513458350555, "trialdata": {"rt": -1000, "stimulus": "/static/audio/400Hz.wav", "key_press": -1, "type": "PRE_RECALL_ALERT", "trial_type": "single-audio", "trial_index": 114, "time_elapsed": 442344, "internal_node_id": "0.0-87.0"}}, {"uniqueid": "MTK1196:3UN61F00HXWRB5RC0HOVXMHJS3Y5R4", "current_trial": 115, "dateTime": 1513458410568, "trialdata": {"rt": [2573, 3317, 4221, 9941], "recwords": ["driver", "fox", "bug", "costume"], "type": "FREE_RECALL", "conditions": [24, 800, "v", 24000], "trial": 2, "trial_type": "free-recall", "trial_index": 115, "time_elapsed": 502352, "internal_node_id": "0.0-88.0-0.0"}}, {"uniqueid": "MTK1196:3UN61F00HXWRB5RC0HOVXMHJS3Y5R4", "current_trial": 116, "dateTime": 1513458414814, "trialdata": {"rt": 2243, "key_press": 13, "type": "INSTRUCTIONS", "trial_type": "text", "trial_index": 116, "time_elapsed": 506603, "internal_node_id": "0.0-89.0"}}, {"uniqueid": "MTK1196:3UN61F00HXWRB5RC0HOVXMHJS3Y5R4", "current_trial": 117, "dateTime": 1513458440822, "trialdata": {"rt": [3298, 10634, 15242, 19626], "responses": ["17", "23", "15", "13"], "num1": [9, 6, 5, 8, 9], "num2": [3, 8, 2, 1, 6], "num3": [5, 9, 8, 4, 5], "type": "DISTRACTOR", "conditions": [12, 1600, "v", 24000], "trial": 3, "trial_type": "math-distractor", "trial_index": 117, "time_elapsed": 532610, "internal_node_id": "0.0-90.0"}}, {"uniqueid": "MTK1196:3UN61F00HXWRB5RC0HOVXMHJS3Y5R4", "current_trial": 118, "dateTime": 1513458443825, "trialdata": {"rt": -1, "stimulus": "<p id=\"stim\">10</p>", "key_press": -1, "trial_type": "single-stim", "trial_index": 118, "time_elapsed": 535614, "internal_node_id": "0.0-91.0-0.0"}}, {"uniqueid": "MTK1196:3UN61F00HXWRB5RC0HOVXMHJS3Y5R4", "current_trial": 119, "dateTime": 1513458444828, "trialdata": {"rt": -1, "stimulus": "<p id=\"stim\">9</p>", "key_press": -1, "trial_type": "single-stim", "trial_index": 119, "time_elapsed": 536616, "internal_node_id": "0.0-91.0-1.0"}}, {"uniqueid": "MTK1196:3UN61F00HXWRB5RC0HOVXMHJS3Y5R4", "current_trial": 120, "dateTime": 1513458445829, "trialdata": {"rt": -1, "stimulus": "<p id=\"stim\">8</p>", "key_press": -1, "trial_type": "single-stim", "trial_index": 120, "time_elapsed": 537618, "internal_node_id": "0.0-91.0-2.0"}}, {"uniqueid": "MTK1196:3UN61F00HXWRB5RC0HOVXMHJS3Y5R4", "current_trial": 121, "dateTime": 1513458446831, "trialdata": {"rt": -1, "stimulus": "<p id=\"stim\">7</p>", "key_press": -1, "trial_type": "single-stim", "trial_index": 121, "time_elapsed": 538620, "internal_node_id": "0.0-91.0-3.0"}}, {"uniqueid": "MTK1196:3UN61F00HXWRB5RC0HOVXMHJS3Y5R4", "current_trial": 122, "dateTime": 1513458447834, "trialdata": {"rt": -1, "stimulus": "<p id=\"stim\">6</p>", "key_press": -1, "trial_type": "single-stim", "trial_index": 122, "time_elapsed": 539622, "internal_node_id": "0.0-91.0-4.0"}}, {"uniqueid": "MTK1196:3UN61F00HXWRB5RC0HOVXMHJS3Y5R4", "current_trial": 123, "dateTime": 1513458448835, "trialdata": {"rt": -1, "stimulus": "<p id=\"stim\">5</p>", "key_press": -1, "trial_type": "single-stim", "trial_index": 123, "time_elapsed": 540624, "internal_node_id": "0.0-91.0-5.0"}}, {"uniqueid": "MTK1196:3UN61F00HXWRB5RC0HOVXMHJS3Y5R4", "current_trial": 124, "dateTime": 1513458449838, "trialdata": {"rt": -1, "stimulus": "<p id=\"stim\">4</p>", "key_press": -1, "trial_type": "single-stim", "trial_index": 124, "time_elapsed": 541626, "internal_node_id": "0.0-91.0-6.0"}}, {"uniqueid": "MTK1196:3UN61F00HXWRB5RC0HOVXMHJS3Y5R4", "current_trial": 125, "dateTime": 1513458450840, "trialdata": {"rt": -1, "stimulus": "<p id=\"stim\">3</p>", "key_press": -1, "trial_type": "single-stim", "trial_index": 125, "time_elapsed": 542628, "internal_node_id": "0.0-91.0-7.0"}}, {"uniqueid": "MTK1196:3UN61F00HXWRB5RC0HOVXMHJS3Y5R4", "current_trial": 126, "dateTime": 1513458451842, "trialdata": {"rt": -1, "stimulus": "<p id=\"stim\">2</p>", "key_press": -1, "trial_type": "single-stim", "trial_index": 126, "time_elapsed": 543630, "internal_node_id": "0.0-91.0-8.0"}}, {"uniqueid": "MTK1196:3UN61F00HXWRB5RC0HOVXMHJS3Y5R4", "current_trial": 127, "dateTime": 1513458452843, "trialdata": {"rt": -1, "stimulus": "<p id=\"stim\">1</p>", "key_press": -1, "trial_type": "single-stim", "trial_index": 127, "time_elapsed": 544632, "internal_node_id": "0.0-91.0-9.0"}}, {"uniqueid": "MTK1196:3UN61F00HXWRB5RC0HOVXMHJS3Y5R4", "current_trial": 128, "dateTime": 1513458454346, "trialdata": {"rt": -1, "stimulus": "<p id=\"stim\">+</p>", "key_press": -1, "type": "FIXATION", "trial_type": "single-stim", "trial_index": 128, "time_elapsed": 546134, "internal_node_id": "0.0-92.0-0.0"}}, {"uniqueid": "MTK1196:3UN61F00HXWRB5RC0HOVXMHJS3Y5R4", "current_trial": 129, "dateTime": 1513458455948, "trialdata": {"rt": -1, "stimulus": "<p id=\"stim\">SCALLOP</p>", "key_press": -1, "type": "PRES_VIS", "word": "scallop", "wordID": 1241, "conditions": [12, 1600, "v", 24000], "trial": 3, "serialpos": 0, "trial_type": "single-stim", "trial_index": 129, "time_elapsed": 547737, "internal_node_id": "0.0-93.0"}}, {"uniqueid": "MTK1196:3UN61F00HXWRB5RC0HOVXMHJS3Y5R4", "current_trial": 130, "dateTime": 1513458458495, "trialdata": {"rt": -1, "stimulus": "<p id=\"stim\">KNIFE</p>", "key_press": -1, "type": "PRES_VIS", "word": "knife", "wordID": 784, "conditions": [12, 1600, "v", 24000], "trial": 3, "serialpos": 1, "trial_type": "single-stim", "trial_index": 130, "time_elapsed": 550283, "internal_node_id": "0.0-94.0"}}, {"uniqueid": "MTK1196:3UN61F00HXWRB5RC0HOVXMHJS3Y5R4", "current_trial": 131, "dateTime": 1513458461073, "trialdata": {"rt": -1, "stimulus": "<p id=\"stim\">DUSTPAN</p>", "key_press": -1, "type": "PRES_VIS", "word": "dustpan", "wordID": 508, "conditions": [12, 1600, "v", 24000], "trial": 3, "serialpos": 2, "trial_type": "single-stim", "trial_index": 131, "time_elapsed": 552861, "internal_node_id": "0.0-95.0"}}, {"uniqueid": "MTK1196:3UN61F00HXWRB5RC0HOVXMHJS3Y5R4", "current_trial": 132, "dateTime": 1513458463672, "trialdata": {"rt": -1, "stimulus": "<p id=\"stim\">SHIRT</p>", "key_press": -1, "type": "PRES_VIS", "word": "shirt", "wordID": 1286, "conditions": [12, 1600, "v", 24000], "trial": 3, "serialpos": 3, "trial_type": "single-stim", "trial_index": 132, "time_elapsed": 555461, "internal_node_id": "0.0-96.0"}}, {"uniqueid": "MTK1196:3UN61F00HXWRB5RC0HOVXMHJS3Y5R4", "current_trial": 133, "dateTime": 1513458466175, "trialdata": {"rt": -1, "stimulus": "<p id=\"stim\">OYSTER</p>", "key_press": -1, "type": "PRES_VIS", "word": "oyster", "wordID": 994, "conditions": [12, 1600, "v", 24000], "trial": 3, "serialpos": 4, "trial_type": "single-stim", "trial_index": 133, "time_elapsed": 557963, "internal_node_id": "0.0-97.0"}}, {"uniqueid": "MTK1196:3UN61F00HXWRB5RC0HOVXMHJS3Y5R4", "current_trial": 134, "dateTime": 1513458468861, "trialdata": {"rt": -1, "stimulus": "<p id=\"stim\">COFFEE</p>", "key_press": -1, "type": "PRES_VIS", "word": "coffee", "wordID": 340, "conditions": [12, 1600, "v", 24000], "trial": 3, "serialpos": 5, "trial_type": "single-stim", "trial_index": 134, "time_elapsed": 560650, "internal_node_id": "0.0-98.0"}}, {"uniqueid": "MTK1196:3UN61F00HXWRB5RC0HOVXMHJS3Y5R4", "current_trial": 135, "dateTime": 1513458471514, "trialdata": {"rt": -1, "stimulus": "<p id=\"stim\">POWDER</p>", "key_press": -1, "type": "PRES_VIS", "word": "powder", "wordID": 1116, "conditions": [12, 1600, "v", 24000], "trial": 3, "serialpos": 6, "trial_type": "single-stim", "trial_index": 135, "time_elapsed": 563303, "internal_node_id": "0.0-99.0"}}, {"uniqueid": "MTK1196:3UN61F00HXWRB5RC0HOVXMHJS3Y5R4", "current_trial": 136, "dateTime": 1513458474307, "trialdata": {"rt": -1, "stimulus": "<p id=\"stim\">ATOM</p>", "key_press": -1, "type": "PRES_VIS", "word": "atom", "wordID": 54, "conditions": [12, 1600, "v", 24000], "trial": 3, "serialpos": 7, "trial_type": "single-stim", "trial_index": 136, "time_elapsed": 566095, "internal_node_id": "0.0-100.0"}}, {"uniqueid": "MTK1196:3UN61F00HXWRB5RC0HOVXMHJS3Y5R4", "current_trial": 137, "dateTime": 1513458476761, "trialdata": {"rt": -1, "stimulus": "<p id=\"stim\">MUMMY</p>", "key_press": -1, "type": "PRES_VIS", "word": "mummy", "wordID": 931, "conditions": [12, 1600, "v", 24000], "trial": 3, "serialpos": 8, "trial_type": "single-stim", "trial_index": 137, "time_elapsed": 568549, "internal_node_id": "0.0-101.0"}}, {"uniqueid": "MTK1196:3UN61F00HXWRB5RC0HOVXMHJS3Y5R4", "current_trial": 138, "dateTime": 1513458479242, "trialdata": {"rt": -1, "stimulus": "<p id=\"stim\">FOREHEAD</p>", "key_press": -1, "type": "PRES_VIS", "word": "forehead", "wordID": 591, "conditions": [12, 1600, "v", 24000], "trial": 3, "serialpos": 9, "trial_type": "single-stim", "trial_index": 138, "time_elapsed": 571030, "internal_node_id": "0.0-102.0"}}, {"uniqueid": "MTK1196:3UN61F00HXWRB5RC0HOVXMHJS3Y5R4", "current_trial": 139, "dateTime": 1513458481792, "trialdata": {"rt": -1, "stimulus": "<p id=\"stim\">DAUGHTER</p>", "key_press": -1, "type": "PRES_VIS", "word": "daughter", "wordID": 441, "conditions": [12, 1600, "v", 24000], "trial": 3, "serialpos": 10, "trial_type": "single-stim", "trial_index": 139, "time_elapsed": 573581, "internal_node_id": "0.0-103.0"}}, {"uniqueid": "MTK1196:3UN61F00HXWRB5RC0HOVXMHJS3Y5R4", "current_trial": 140, "dateTime": 1513458484245, "trialdata": {"rt": -1, "stimulus": "<p id=\"stim\">HUSBAND</p>", "key_press": -1, "type": "PRES_VIS", "word": "husband", "wordID": 727, "conditions": [12, 1600, "v", 24000], "trial": 3, "serialpos": 11, "trial_type": "single-stim", "trial_index": 140, "time_elapsed": 576034, "internal_node_id": "0.0-104.0"}}, {"uniqueid": "MTK1196:3UN61F00HXWRB5RC0HOVXMHJS3Y5R4", "current_trial": 141, "dateTime": 1513458486571, "trialdata": {"rt": -1, "stimulus": "", "key_press": -1, "type": "PRE_RECALL_DELAY", "trial_type": "single-stim", "trial_index": 141, "time_elapsed": 578359, "internal_node_id": "0.0-105.0-0.0"}}, {"uniqueid": "MTK1196:3UN61F00HXWRB5RC0HOVXMHJS3Y5R4", "current_trial": 142, "dateTime": 1513458487075, "trialdata": {"rt": -1000, "stimulus": "/static/audio/400Hz.wav", "key_press": -1, "type": "PRE_RECALL_ALERT", "trial_type": "single-audio", "trial_index": 142, "time_elapsed": 578863, "internal_node_id": "0.0-106.0"}}, {"uniqueid": "MTK1196:3UN61F00HXWRB5RC0HOVXMHJS3Y5R4", "current_trial": 143, "dateTime": 1513458547086, "trialdata": {"rt": [3413, 4885], "recwords": ["husband", "daughter"], "type": "FREE_RECALL", "conditions": [12, 1600, "v", 24000], "trial": 3, "trial_type": "free-recall", "trial_index": 143, "time_elapsed": 638869, "internal_node_id": "0.0-107.0-0.0"}}, {"uniqueid": "MTK1196:3UN61F00HXWRB5RC0HOVXMHJS3Y5R4", "current_trial": 144, "dateTime": 1513458561173, "trialdata": {"rt": 12085, "key_press": 13, "type": "INSTRUCTIONS", "trial_type": "text", "trial_index": 144, "time_elapsed": 652962, "internal_node_id": "0.0-108.0"}}, {"uniqueid": "MTK1196:3UN61F00HXWRB5RC0HOVXMHJS3Y5R4", "current_trial": 145, "dateTime": 1513458575179, "trialdata": {"rt": [3777, 6914, 8722], "responses": ["17", "17", "13"], "num1": [8, 8, 3, 9], "num2": [5, 8, 5, 6], "num3": [4, 1, 5, 6], "type": "DISTRACTOR", "conditions": [24, 1600, "a", 12000], "trial": 4, "trial_type": "math-distractor", "trial_index": 145, "time_elapsed": 666968, "internal_node_id": "0.0-109.0"}}, {"uniqueid": "MTK1196:3UN61F00HXWRB5RC0HOVXMHJS3Y5R4", "current_trial": 146, "dateTime": 1513458578183, "trialdata": {"rt": -1, "stimulus": "<p id=\"stim\">10</p>", "key_press": -1, "trial_type": "single-stim", "trial_index": 146, "time_elapsed": 669971, "internal_node_id": "0.0-110.0-0.0"}}, {"uniqueid": "MTK1196:3UN61F00HXWRB5RC0HOVXMHJS3Y5R4", "current_trial": 147, "dateTime": 1513458579185, "trialdata": {"rt": -1, "stimulus": "<p id=\"stim\">9</p>", "key_press": -1, "trial_type": "single-stim", "trial_index": 147, "time_elapsed": 670973, "internal_node_id": "0.0-110.0-1.0"}}, {"uniqueid": "MTK1196:3UN61F00HXWRB5RC0HOVXMHJS3Y5R4", "current_trial": 148, "dateTime": 1513458580187, "trialdata": {"rt": -1, "stimulus": "<p id=\"stim\">8</p>", "key_press": -1, "trial_type": "single-stim", "trial_index": 148, "time_elapsed": 671975, "internal_node_id": "0.0-110.0-2.0"}}, {"uniqueid": "MTK1196:3UN61F00HXWRB5RC0HOVXMHJS3Y5R4", "current_trial": 149, "dateTime": 1513458581190, "trialdata": {"rt": -1, "stimulus": "<p id=\"stim\">7</p>", "key_press": -1, "trial_type": "single-stim", "trial_index": 149, "time_elapsed": 672978, "internal_node_id": "0.0-110.0-3.0"}}, {"uniqueid": "MTK1196:3UN61F00HXWRB5RC0HOVXMHJS3Y5R4", "current_trial": 150, "dateTime": 1513458582192, "trialdata": {"rt": -1, "stimulus": "<p id=\"stim\">6</p>", "key_press": -1, "trial_type": "single-stim", "trial_index": 150, "time_elapsed": 673980, "internal_node_id": "0.0-110.0-4.0"}}, {"uniqueid": "MTK1196:3UN61F00HXWRB5RC0HOVXMHJS3Y5R4", "current_trial": 151, "dateTime": 1513458583194, "trialdata": {"rt": -1, "stimulus": "<p id=\"stim\">5</p>", "key_press": -1, "trial_type": "single-stim", "trial_index": 151, "time_elapsed": 674982, "internal_node_id": "0.0-110.0-5.0"}}, {"uniqueid": "MTK1196:3UN61F00HXWRB5RC0HOVXMHJS3Y5R4", "current_trial": 152, "dateTime": 1513458584196, "trialdata": {"rt": -1, "stimulus": "<p id=\"stim\">4</p>", "key_press": -1, "trial_type": "single-stim", "trial_index": 152, "time_elapsed": 675985, "internal_node_id": "0.0-110.0-6.0"}}, {"uniqueid": "MTK1196:3UN61F00HXWRB5RC0HOVXMHJS3Y5R4", "current_trial": 153, "dateTime": 1513458585198, "trialdata": {"rt": -1, "stimulus": "<p id=\"stim\">3</p>", "key_press": -1, "trial_type": "single-stim", "trial_index": 153, "time_elapsed": 676986, "internal_node_id": "0.0-110.0-7.0"}}, {"uniqueid": "MTK1196:3UN61F00HXWRB5RC0HOVXMHJS3Y5R4", "current_trial": 154, "dateTime": 1513458586199, "trialdata": {"rt": -1, "stimulus": "<p id=\"stim\">2</p>", "key_press": -1, "trial_type": "single-stim", "trial_index": 154, "time_elapsed": 677988, "internal_node_id": "0.0-110.0-8.0"}}, {"uniqueid": "MTK1196:3UN61F00HXWRB5RC0HOVXMHJS3Y5R4", "current_trial": 155, "dateTime": 1513458587202, "trialdata": {"rt": -1, "stimulus": "<p id=\"stim\">1</p>", "key_press": -1, "trial_type": "single-stim", "trial_index": 155, "time_elapsed": 678991, "internal_node_id": "0.0-110.0-9.0"}}, {"uniqueid": "MTK1196:3UN61F00HXWRB5RC0HOVXMHJS3Y5R4", "current_trial": 156, "dateTime": 1513458588704, "trialdata": {"rt": -1, "stimulus": "<p id=\"stim\">+</p>", "key_press": -1, "type": "FIXATION", "trial_type": "single-stim", "trial_index": 156, "time_elapsed": 680492, "internal_node_id": "0.0-111.0-0.0"}}, {"uniqueid": "MTK1196:3UN61F00HXWRB5RC0HOVXMHJS3Y5R4", "current_trial": 157, "dateTime": 1513458591420, "trialdata": {"rt": -1000, "stimulus": "/static/audio/wordpool/MARROW.wav", "key_press": -1, "type": "PRES_AUD", "word": "marrow", "wordID": 871, "conditions": [24, 1600, "a", 12000], "trial": 4, "serialpos": 0, "trial_type": "single-audio", "trial_index": 157, "time_elapsed": 683209, "internal_node_id": "0.0-112.0"}}, {"uniqueid": "MTK1196:3UN61F00HXWRB5RC0HOVXMHJS3Y5R4", "current_trial": 158, "dateTime": 1513458593846, "trialdata": {"rt": 1881.3333333332594, "stimulus": "/static/audio/wordpool/CABBAGE.wav", "key_press": 175, "type": "PRES_AUD", "word": "cabbage", "wordID": 209, "conditions": [24, 1600, "a", 12000], "trial": 4, "serialpos": 1, "trial_type": "single-audio", "trial_index": 158, "time_elapsed": 685635, "internal_node_id": "0.0-113.0"}}, {"uniqueid": "MTK1196:3UN61F00HXWRB5RC0HOVXMHJS3Y5R4", "current_trial": 159, "dateTime": 1513458596483, "trialdata": {"rt": -12.000000000057298, "stimulus": "/static/audio/wordpool/PIGEON.wav", "key_press": 175, "type": "PRES_AUD", "word": "pigeon", "wordID": 1064, "conditions": [24, 1600, "a", 12000], "trial": 4, "serialpos": 2, "trial_type": "single-audio", "trial_index": 159, "time_elapsed": 688271, "internal_node_id": "0.0-114.0"}}, {"uniqueid": "MTK1196:3UN61F00HXWRB5RC0HOVXMHJS3Y5R4", "current_trial": 160, "dateTime": 1513458599021, "trialdata": {"rt": -1000, "stimulus": "/static/audio/wordpool/CHIPMUNK.wav", "key_press": -1, "type": "PRES_AUD", "word": "chipmunk", "wordID": 303, "conditions": [24, 1600, "a", 12000], "trial": 4, "serialpos": 3, "trial_type": "single-audio", "trial_index": 160, "time_elapsed": 690810, "internal_node_id": "0.0-115.0"}}, {"uniqueid": "MTK1196:3UN61F00HXWRB5RC0HOVXMHJS3Y5R4", "current_trial": 161, "dateTime": 1513458601636, "trialdata": {"rt": -1000, "stimulus": "/static/audio/wordpool/SPIDER.wav", "key_press": -1, "type": "PRES_AUD", "word": "spider", "wordID": 1350, "conditions": [24, 1600, "a", 12000], "trial": 4, "serialpos": 4, "trial_type": "single-audio", "trial_index": 161, "time_elapsed": 693424, "internal_node_id": "0.0-116.0"}}, {"uniqueid": "MTK1196:3UN61F00HXWRB5RC0HOVXMHJS3Y5R4", "current_trial": 162, "dateTime": 1513458604424, "trialdata": {"rt": -1000, "stimulus": "/static/audio/wordpool/PUPPY.wav", "key_press": -1, "type": "PRES_AUD", "word": "puppy", "wordID": 1143, "conditions": [24, 1600, "a", 12000], "trial": 4, "serialpos": 5, "trial_type": "single-audio", "trial_index": 162, "time_elapsed": 696212, "internal_node_id": "0.0-117.0"}}, {"uniqueid": "MTK1196:3UN61F00HXWRB5RC0HOVXMHJS3Y5R4", "current_trial": 163, "dateTime": 1513458606927, "trialdata": {"rt": -1000, "stimulus": "/static/audio/wordpool/BUNNY.wav", "key_press": -1, "type": "PRES_AUD", "word": "bunny", "wordID": 197, "conditions": [24, 1600, "a", 12000], "trial": 4, "serialpos": 6, "trial_type": "single-audio", "trial_index": 163, "time_elapsed": 698716, "internal_node_id": "0.0-118.0"}}, {"uniqueid": "MTK1196:3UN61F00HXWRB5RC0HOVXMHJS3Y5R4", "current_trial": 164, "dateTime": 1513458609377, "trialdata": {"rt": -1000, "stimulus": "/static/audio/wordpool/SNAKE.wav", "key_press": -1, "type": "PRES_AUD", "word": "snake", "wordID": 1332, "conditions": [24, 1600, "a", 12000], "trial": 4, "serialpos": 7, "trial_type": "single-audio", "trial_index": 164, "time_elapsed": 701165, "internal_node_id": "0.0-119.0"}}, {"uniqueid": "MTK1196:3UN61F00HXWRB5RC0HOVXMHJS3Y5R4", "current_trial": 165, "dateTime": 1513458611891, "trialdata": {"rt": -1000, "stimulus": "/static/audio/wordpool/LADY.wav", "key_press": -1, "type": "PRES_AUD", "word": "lady", "wordID": 793, "conditions": [24, 1600, "a", 12000], "trial": 4, "serialpos": 8, "trial_type": "single-audio", "trial_index": 165, "time_elapsed": 703680, "internal_node_id": "0.0-120.0"}}, {"uniqueid": "MTK1196:3UN61F00HXWRB5RC0HOVXMHJS3Y5R4", "current_trial": 166, "dateTime": 1513458614643, "trialdata": {"rt": -1000, "stimulus": "/static/audio/wordpool/JAPAN.wav", "key_press": -1, "type": "PRES_AUD", "word": "japan", "wordID": 748, "conditions": [24, 1600, "a", 12000], "trial": 4, "serialpos": 9, "trial_type": "single-audio", "trial_index": 166, "time_elapsed": 706431, "internal_node_id": "0.0-121.0"}}, {"uniqueid": "MTK1196:3UN61F00HXWRB5RC0HOVXMHJS3Y5R4", "current_trial": 167, "dateTime": 1513458617387, "trialdata": {"rt": -1000, "stimulus": "/static/audio/wordpool/BLACKBOARD.wav", "key_press": -1, "type": "PRES_AUD", "word": "blackboard", "wordID": 132, "conditions": [24, 1600, "a", 12000], "trial": 4, "serialpos": 10, "trial_type": "single-audio", "trial_index": 167, "time_elapsed": 709176, "internal_node_id": "0.0-122.0"}}, {"uniqueid": "MTK1196:3UN61F00HXWRB5RC0HOVXMHJS3Y5R4", "current_trial": 168, "dateTime": 1513458620156, "trialdata": {"rt": -1000, "stimulus": "/static/audio/wordpool/BANQUET.wav", "key_press": -1, "type": "PRES_AUD", "word": "banquet", "wordID": 85, "conditions": [24, 1600, "a", 12000], "trial": 4, "serialpos": 11, "trial_type": "single-audio", "trial_index": 168, "time_elapsed": 711945, "internal_node_id": "0.0-123.0"}}, {"uniqueid": "MTK1196:3UN61F00HXWRB5RC0HOVXMHJS3Y5R4", "current_trial": 169, "dateTime": 1513458622688, "trialdata": {"rt": -1000, "stimulus": "/static/audio/wordpool/COMPASS.wav", "key_press": -1, "type": "PRES_AUD", "word": "compass", "wordID": 357, "conditions": [24, 1600, "a", 12000], "trial": 4, "serialpos": 12, "trial_type": "single-audio", "trial_index": 169, "time_elapsed": 714476, "internal_node_id": "0.0-124.0"}}, {"uniqueid": "MTK1196:3UN61F00HXWRB5RC0HOVXMHJS3Y5R4", "current_trial": 170, "dateTime": 1513458625181, "trialdata": {"rt": -1000, "stimulus": "/static/audio/wordpool/OMELET.wav", "key_press": -1, "type": "PRES_AUD", "word": "omelet", "wordID": 975, "conditions": [24, 1600, "a", 12000], "trial": 4, "serialpos": 13, "trial_type": "single-audio", "trial_index": 170, "time_elapsed": 716970, "internal_node_id": "0.0-125.0"}}, {"uniqueid": "MTK1196:3UN61F00HXWRB5RC0HOVXMHJS3Y5R4", "current_trial": 171, "dateTime": 1513458627664, "trialdata": {"rt": -1000, "stimulus": "/static/audio/wordpool/GROUND.wav", "key_press": -1, "type": "PRES_AUD", "word": "ground", "wordID": 665, "conditions": [24, 1600, "a", 12000], "trial": 4, "serialpos": 14, "trial_type": "single-audio", "trial_index": 171, "time_elapsed": 719453, "internal_node_id": "0.0-126.0"}}, {"uniqueid": "MTK1196:3UN61F00HXWRB5RC0HOVXMHJS3Y5R4", "current_trial": 172, "dateTime": 1513458630237, "trialdata": {"rt": -1000, "stimulus": "/static/audio/wordpool/APRON.wav", "key_press": -1, "type": "PRES_AUD", "word": "apron", "wordID": 34, "conditions": [24, 1600, "a", 12000], "trial": 4, "serialpos": 15, "trial_type": "single-audio", "trial_index": 172, "time_elapsed": 722026, "internal_node_id": "0.0-127.0"}}, {"uniqueid": "MTK1196:3UN61F00HXWRB5RC0HOVXMHJS3Y5R4", "current_trial": 173, "dateTime": 1513458632961, "trialdata": {"rt": -1000, "stimulus": "/static/audio/wordpool/RECEIPT.wav", "key_press": -1, "type": "PRES_AUD", "word": "receipt", "wordID": 1172, "conditions": [24, 1600, "a", 12000], "trial": 4, "serialpos": 16, "trial_type": "single-audio", "trial_index": 173, "time_elapsed": 724750, "internal_node_id": "0.0-128.0"}}, {"uniqueid": "MTK1196:3UN61F00HXWRB5RC0HOVXMHJS3Y5R4", "current_trial": 174, "dateTime": 1513458635575, "trialdata": {"rt": -1000, "stimulus": "/static/audio/wordpool/VALLEY.wav", "key_press": -1, "type": "PRES_AUD", "word": "valley", "wordID": 1544, "conditions": [24, 1600, "a", 12000], "trial": 4, "serialpos": 17, "trial_type": "single-audio", "trial_index": 174, "time_elapsed": 727363, "internal_node_id": "0.0-129.0"}}, {"uniqueid": "MTK1196:3UN61F00HXWRB5RC0HOVXMHJS3Y5R4", "current_trial": 175, "dateTime": 1513458638116, "trialdata": {"rt": -1000, "stimulus": "/static/audio/wordpool/CANYON.wav", "key_press": -1, "type": "PRES_AUD", "word": "canyon", "wordID": 234, "conditions": [24, 1600, "a", 12000], "trial": 4, "serialpos": 18, "trial_type": "single-audio", "trial_index": 175, "time_elapsed": 729905, "internal_node_id": "0.0-130.0"}}, {"uniqueid": "MTK1196:3UN61F00HXWRB5RC0HOVXMHJS3Y5R4", "current_trial": 176, "dateTime": 1513458640841, "trialdata": {"rt": -1000, "stimulus": "/static/audio/wordpool/SALAD.wav", "key_press": -1, "type": "PRES_AUD", "word": "salad", "wordID": 1223, "conditions": [24, 1600, "a", 12000], "trial": 4, "serialpos": 19, "trial_type": "single-audio", "trial_index": 176, "time_elapsed": 732630, "internal_node_id": "0.0-131.0"}}, {"uniqueid": "MTK1196:3UN61F00HXWRB5RC0HOVXMHJS3Y5R4", "current_trial": 177, "dateTime": 1513458643579, "trialdata": {"rt": -1000, "stimulus": "/static/audio/wordpool/LONDON.wav", "key_press": -1, "type": "PRES_AUD", "word": "london", "wordID": 842, "conditions": [24, 1600, "a", 12000], "trial": 4, "serialpos": 20, "trial_type": "single-audio", "trial_index": 177, "time_elapsed": 735367, "internal_node_id": "0.0-132.0"}}, {"uniqueid": "MTK1196:3UN61F00HXWRB5RC0HOVXMHJS3Y5R4", "current_trial": 178, "dateTime": 1513458646014, "trialdata": {"rt": -1000, "stimulus": "/static/audio/wordpool/GARBAGE.wav", "key_press": -1, "type": "PRES_AUD", "word": "garbage", "wordID": 621, "conditions": [24, 1600, "a", 12000], "trial": 4, "serialpos": 21, "trial_type": "single-audio", "trial_index": 178, "time_elapsed": 737802, "internal_node_id": "0.0-133.0"}}, {"uniqueid": "MTK1196:3UN61F00HXWRB5RC0HOVXMHJS3Y5R4", "current_trial": 179, "dateTime": 1513458648796, "trialdata": {"rt": -1000, "stimulus": "/static/audio/wordpool/COIN.wav", "key_press": -1, "type": "PRES_AUD", "word": "coin", "wordID": 342, "conditions": [24, 1600, "a", 12000], "trial": 4, "serialpos": 22, "trial_type": "single-audio", "trial_index": 179, "time_elapsed": 740585, "internal_node_id": "0.0-134.0"}}, {"uniqueid": "MTK1196:3UN61F00HXWRB5RC0HOVXMHJS3Y5R4", "current_trial": 180, "dateTime": 1513458651564, "trialdata": {"rt": -1000, "stimulus": "/static/audio/wordpool/SANDWICH.wav", "key_press": -1, "type": "PRES_AUD", "word": "sandwich", "wordID": 1231, "conditions": [24, 1600, "a", 12000], "trial": 4, "serialpos": 23, "trial_type": "single-audio", "trial_index": 180, "time_elapsed": 743352, "internal_node_id": "0.0-135.0"}}, {"uniqueid": "MTK1196:3UN61F00HXWRB5RC0HOVXMHJS3Y5R4", "current_trial": 181, "dateTime": 1513458652905, "trialdata": {"rt": -1, "stimulus": "", "key_press": -1, "type": "PRE_RECALL_DELAY", "trial_type": "single-stim", "trial_index": 181, "time_elapsed": 744693, "internal_node_id": "0.0-136.0-0.0"}}, {"uniqueid": "MTK1196:3UN61F00HXWRB5RC0HOVXMHJS3Y5R4", "current_trial": 182, "dateTime": 1513458653412, "trialdata": {"rt": -1000, "stimulus": "/static/audio/400Hz.wav", "key_press": -1, "type": "PRE_RECALL_ALERT", "trial_type": "single-audio", "trial_index": 182, "time_elapsed": 745200, "internal_node_id": "0.0-137.0"}}, {"uniqueid": "MTK1196:3UN61F00HXWRB5RC0HOVXMHJS3Y5R4", "current_trial": 183, "dateTime": 1513458713456, "trialdata": {"rt": [2859, 4723, 6195, 7980, 10995, 16307, 27771], "recwords": ["sandwhich", "bunny", "puppy", "compass", "japan", "marrow", "lady"], "type": "FREE_RECALL", "conditions": [24, 1600, "a", 12000], "trial": 4, "trial_type": "free-recall", "trial_index": 183, "time_elapsed": 805238, "internal_node_id": "0.0-138.0-0.0"}}, {"uniqueid": "MTK1196:3UN61F00HXWRB5RC0HOVXMHJS3Y5R4", "current_trial": 184, "dateTime": 1513458716429, "trialdata": {"rt": 969, "key_press": 32, "type": "INSTRUCTIONS", "trial_type": "text", "trial_index": 184, "time_elapsed": 808218, "internal_node_id": "0.0-139.0"}}, {"uniqueid": "MTK1196:3UN61F00HXWRB5RC0HOVXMHJS3Y5R4", "current_trial": 185, "dateTime": 1513458742436, "trialdata": {"rt": [3577, 5202, 8626, 10850, 13994, 15962, 18962], "responses": ["16", "14", "15", "12", "12", "16", "14"], "num1": [8, 1, 4, 7, 1, 6, 7, 5], "num2": [3, 9, 4, 2, 6, 4, 4, 9], "num3": [5, 4, 7, 3, 5, 6, 4, 3], "type": "DISTRACTOR", "conditions": [24, 800, "a", 24000], "trial": 5, "trial_type": "math-distractor", "trial_index": 185, "time_elapsed": 834224, "internal_node_id": "0.0-140.0"}}, {"uniqueid": "MTK1196:3UN61F00HXWRB5RC0HOVXMHJS3Y5R4", "current_trial": 186, "dateTime": 1513458745457, "trialdata": {"rt": -1, "stimulus": "<p id=\"stim\">10</p>", "key_press": -1, "trial_type": "single-stim", "trial_index": 186, "time_elapsed": 837246, "internal_node_id": "0.0-141.0-0.0"}}, {"uniqueid": "MTK1196:3UN61F00HXWRB5RC0HOVXMHJS3Y5R4", "current_trial": 187, "dateTime": 1513458746460, "trialdata": {"rt": -1, "stimulus": "<p id=\"stim\">9</p>", "key_press": -1, "trial_type": "single-stim", "trial_index": 187, "time_elapsed": 838248, "internal_node_id": "0.0-141.0-1.0"}}, {"uniqueid": "MTK1196:3UN61F00HXWRB5RC0HOVXMHJS3Y5R4", "current_trial": 188, "dateTime": 1513458747466, "trialdata": {"rt": -1, "stimulus": "<p id=\"stim\">8</p>", "key_press": -1, "trial_type": "single-stim", "trial_index": 188, "time_elapsed": 839254, "internal_node_id": "0.0-141.0-2.0"}}, {"uniqueid": "MTK1196:3UN61F00HXWRB5RC0HOVXMHJS3Y5R4", "current_trial": 189, "dateTime": 1513458748468, "trialdata": {"rt": -1, "stimulus": "<p id=\"stim\">7</p>", "key_press": -1, "trial_type": "single-stim", "trial_index": 189, "time_elapsed": 840256, "internal_node_id": "0.0-141.0-3.0"}}, {"uniqueid": "MTK1196:3UN61F00HXWRB5RC0HOVXMHJS3Y5R4", "current_trial": 190, "dateTime": 1513458749469, "trialdata": {"rt": -1, "stimulus": "<p id=\"stim\">6</p>", "key_press": -1, "trial_type": "single-stim", "trial_index": 190, "time_elapsed": 841258, "internal_node_id": "0.0-141.0-4.0"}}, {"uniqueid": "MTK1196:3UN61F00HXWRB5RC0HOVXMHJS3Y5R4", "current_trial": 191, "dateTime": 1513458750472, "trialdata": {"rt": -1, "stimulus": "<p id=\"stim\">5</p>", "key_press": -1, "trial_type": "single-stim", "trial_index": 191, "time_elapsed": 842260, "internal_node_id": "0.0-141.0-5.0"}}, {"uniqueid": "MTK1196:3UN61F00HXWRB5RC0HOVXMHJS3Y5R4", "current_trial": 192, "dateTime": 1513458751474, "trialdata": {"rt": -1, "stimulus": "<p id=\"stim\">4</p>", "key_press": -1, "trial_type": "single-stim", "trial_index": 192, "time_elapsed": 843263, "internal_node_id": "0.0-141.0-6.0"}}, {"uniqueid": "MTK1196:3UN61F00HXWRB5RC0HOVXMHJS3Y5R4", "current_trial": 193, "dateTime": 1513458752477, "trialdata": {"rt": -1, "stimulus": "<p id=\"stim\">3</p>", "key_press": -1, "trial_type": "single-stim", "trial_index": 193, "time_elapsed": 844265, "internal_node_id": "0.0-141.0-7.0"}}, {"uniqueid": "MTK1196:3UN61F00HXWRB5RC0HOVXMHJS3Y5R4", "current_trial": 194, "dateTime": 1513458753479, "trialdata": {"rt": -1, "stimulus": "<p id=\"stim\">2</p>", "key_press": -1, "trial_type": "single-stim", "trial_index": 194, "time_elapsed": 845268, "internal_node_id": "0.0-141.0-8.0"}}, {"uniqueid": "MTK1196:3UN61F00HXWRB5RC0HOVXMHJS3Y5R4", "current_trial": 195, "dateTime": 1513458754482, "trialdata": {"rt": -1, "stimulus": "<p id=\"stim\">1</p>", "key_press": -1, "trial_type": "single-stim", "trial_index": 195, "time_elapsed": 846270, "internal_node_id": "0.0-141.0-9.0"}}, {"uniqueid": "MTK1196:3UN61F00HXWRB5RC0HOVXMHJS3Y5R4", "current_trial": 196, "dateTime": 1513458755985, "trialdata": {"rt": -1, "stimulus": "<p id=\"stim\">+</p>", "key_press": -1, "type": "FIXATION", "trial_type": "single-stim", "trial_index": 196, "time_elapsed": 847773, "internal_node_id": "0.0-142.0-0.0"}}, {"uniqueid": "MTK1196:3UN61F00HXWRB5RC0HOVXMHJS3Y5R4", "current_trial": 197, "dateTime": 1513458757624, "trialdata": {"rt": -1000, "stimulus": "/static/audio/wordpool/BRIEFCASE.wav", "key_press": -1, "type": "PRES_AUD", "word": "briefcase", "wordID": 174, "conditions": [24, 800, "a", 24000], "trial": 5, "serialpos": 0, "trial_type": "single-audio", "trial_index": 197, "time_elapsed": 849413, "internal_node_id": "0.0-143.0"}}, {"uniqueid": "MTK1196:3UN61F00HXWRB5RC0HOVXMHJS3Y5R4", "current_trial": 198, "dateTime": 1513458759281, "trialdata": {"rt": -1000, "stimulus": "/static/audio/wordpool/WRENCH.wav", "key_press": -1, "type": "PRES_AUD", "word": "wrench", "wordID": 1624, "conditions": [24, 800, "a", 24000], "trial": 5, "serialpos": 1, "trial_type": "single-audio", "trial_index": 198, "time_elapsed": 851070, "internal_node_id": "0.0-144.0"}}, {"uniqueid": "MTK1196:3UN61F00HXWRB5RC0HOVXMHJS3Y5R4", "current_trial": 199, "dateTime": 1513458761064, "trialdata": {"rt": -1000, "stimulus": "/static/audio/wordpool/ARM.wav", "key_press": -1, "type": "PRES_AUD", "word": "arm", "wordID": 37, "conditions": [24, 800, "a", 24000], "trial": 5, "serialpos": 2, "trial_type": "single-audio", "trial_index": 199, "time_elapsed": 852853, "internal_node_id": "0.0-145.0"}}, {"uniqueid": "MTK1196:3UN61F00HXWRB5RC0HOVXMHJS3Y5R4", "current_trial": 200, "dateTime": 1513458762813, "trialdata": {"rt": -1000, "stimulus": "/static/audio/wordpool/SHOULDER.wav", "key_press": -1, "type": "PRES_AUD", "word": "shoulder", "wordID": 1293, "conditions": [24, 800, "a", 24000], "trial": 5, "serialpos": 3, "trial_type": "single-audio", "trial_index": 200, "time_elapsed": 854602, "internal_node_id": "0.0-146.0"}}, {"uniqueid": "MTK1196:3UN61F00HXWRB5RC0HOVXMHJS3Y5R4", "current_trial": 201, "dateTime": 1513458764735, "trialdata": {"rt": -1000, "stimulus": "/static/audio/wordpool/CLIMBER.wav", "key_press": -1, "type": "PRES_AUD", "word": "climber", "wordID": 322, "conditions": [24, 800, "a", 24000], "trial": 5, "serialpos": 4, "trial_type": "single-audio", "trial_index": 201, "time_elapsed": 856523, "internal_node_id": "0.0-147.0"}}, {"uniqueid": "MTK1196:3UN61F00HXWRB5RC0HOVXMHJS3Y5R4", "current_trial": 202, "dateTime": 1513458766611, "trialdata": {"rt": -1000, "stimulus": "/static/audio/wordpool/STAMP.wav", "key_press": -1, "type": "PRES_AUD", "word": "stamp", "wordID": 1369, "conditions": [24, 800, "a", 24000], "trial": 5, "serialpos": 5, "trial_type": "single-audio", "trial_index": 202, "time_elapsed": 858399, "internal_node_id": "0.0-148.0"}}, {"uniqueid": "MTK1196:3UN61F00HXWRB5RC0HOVXMHJS3Y5R4", "current_trial": 203, "dateTime": 1513458768316, "trialdata": {"rt": -1000, "stimulus": "/static/audio/wordpool/PAPER.wav", "key_press": -1, "type": "PRES_AUD", "word": "paper", "wordID": 1010, "conditions": [24, 800, "a", 24000], "trial": 5, "serialpos": 6, "trial_type": "single-audio", "trial_index": 203, "time_elapsed": 860105, "internal_node_id": "0.0-149.0"}}, {"uniqueid": "MTK1196:3UN61F00HXWRB5RC0HOVXMHJS3Y5R4", "current_trial": 204, "dateTime": 1513458770037, "trialdata": {"rt": -1000, "stimulus": "/static/audio/wordpool/SUPPER.wav", "key_press": -1, "type": "PRES_AUD", "word": "supper", "wordID": 1410, "conditions": [24, 800, "a", 24000], "trial": 5, "serialpos": 7, "trial_type": "single-audio", "trial_index": 204, "time_elapsed": 861825, "internal_node_id": "0.0-150.0"}}, {"uniqueid": "MTK1196:3UN61F00HXWRB5RC0HOVXMHJS3Y5R4", "current_trial": 205, "dateTime": 1513458771789, "trialdata": {"rt": -1000, "stimulus": "/static/audio/wordpool/LEADER.wav", "key_press": -1, "type": "PRES_AUD", "word": "leader", "wordID": 806, "conditions": [24, 800, "a", 24000], "trial": 5, "serialpos": 8, "trial_type": "single-audio", "trial_index": 205, "time_elapsed": 863578, "internal_node_id": "0.0-151.0"}}, {"uniqueid": "MTK1196:3UN61F00HXWRB5RC0HOVXMHJS3Y5R4", "current_trial": 206, "dateTime": 1513458773540, "trialdata": {"rt": -1000, "stimulus": "/static/audio/wordpool/HANDBAG.wav", "key_press": -1, "type": "PRES_AUD", "word": "handbag", "wordID": 683, "conditions": [24, 800, "a", 24000], "trial": 5, "serialpos": 9, "trial_type": "single-audio", "trial_index": 206, "time_elapsed": 865329, "internal_node_id": "0.0-152.0"}}, {"uniqueid": "MTK1196:3UN61F00HXWRB5RC0HOVXMHJS3Y5R4", "current_trial": 207, "dateTime": 1513458775455, "trialdata": {"rt": -1000, "stimulus": "/static/audio/wordpool/TRACTOR.wav", "key_press": -1, "type": "PRES_AUD", "word": "tractor", "wordID": 1492, "conditions": [24, 800, "a", 24000], "trial": 5, "serialpos": 10, "trial_type": "single-audio", "trial_index": 207, "time_elapsed": 867244, "internal_node_id": "0.0-153.0"}}, {"uniqueid": "MTK1196:3UN61F00HXWRB5RC0HOVXMHJS3Y5R4", "current_trial": 208, "dateTime": 1513458777402, "trialdata": {"rt": -1000, "stimulus": "/static/audio/wordpool/EGYPT.wav", "key_press": -1, "type": "PRES_AUD", "word": "egypt", "wordID": 518, "conditions": [24, 800, "a", 24000], "trial": 5, "serialpos": 11, "trial_type": "single-audio", "trial_index": 208, "time_elapsed": 869190, "internal_node_id": "0.0-154.0"}}, {"uniqueid": "MTK1196:3UN61F00HXWRB5RC0HOVXMHJS3Y5R4", "current_trial": 209, "dateTime": 1513458779135, "trialdata": {"rt": -1000, "stimulus": "/static/audio/wordpool/PEPPER.wav", "key_press": -1, "type": "PRES_AUD", "word": "pepper", "wordID": 1046, "conditions": [24, 800, "a", 24000], "trial": 5, "serialpos": 12, "trial_type": "single-audio", "trial_index": 209, "time_elapsed": 870924, "internal_node_id": "0.0-155.0"}}, {"uniqueid": "MTK1196:3UN61F00HXWRB5RC0HOVXMHJS3Y5R4", "current_trial": 210, "dateTime": 1513458780987, "trialdata": {"rt": -1000, "stimulus": "/static/audio/wordpool/TYPIST.wav", "key_press": -1, "type": "PRES_AUD", "word": "typist", "wordID": 1531, "conditions": [24, 800, "a", 24000], "trial": 5, "serialpos": 13, "trial_type": "single-audio", "trial_index": 210, "time_elapsed": 872776, "internal_node_id": "0.0-156.0"}}, {"uniqueid": "MTK1196:3UN61F00HXWRB5RC0HOVXMHJS3Y5R4", "current_trial": 211, "dateTime": 1513458782864, "trialdata": {"rt": -1000, "stimulus": "/static/audio/wordpool/THIEF.wav", "key_press": -1, "type": "PRES_AUD", "word": "thief", "wordID": 1455, "conditions": [24, 800, "a", 24000], "trial": 5, "serialpos": 14, "trial_type": "single-audio", "trial_index": 211, "time_elapsed": 874652, "internal_node_id": "0.0-157.0"}}, {"uniqueid": "MTK1196:3UN61F00HXWRB5RC0HOVXMHJS3Y5R4", "current_trial": 212, "dateTime": 1513458784483, "trialdata": {"rt": -1000, "stimulus": "/static/audio/wordpool/KITCHEN.wav", "key_press": -1, "type": "PRES_AUD", "word": "kitchen", "wordID": 777, "conditions": [24, 800, "a", 24000], "trial": 5, "serialpos": 15, "trial_type": "single-audio", "trial_index": 212, "time_elapsed": 876271, "internal_node_id": "0.0-158.0"}}, {"uniqueid": "MTK1196:3UN61F00HXWRB5RC0HOVXMHJS3Y5R4", "current_trial": 213, "dateTime": 1513458786345, "trialdata": {"rt": -1000, "stimulus": "/static/audio/wordpool/WRIST.wav", "key_press": -1, "type": "PRES_AUD", "word": "wrist", "wordID": 1625, "conditions": [24, 800, "a", 24000], "trial": 5, "serialpos": 16, "trial_type": "single-audio", "trial_index": 213, "time_elapsed": 878134, "internal_node_id": "0.0-159.0"}}, {"uniqueid": "MTK1196:3UN61F00HXWRB5RC0HOVXMHJS3Y5R4", "current_trial": 214, "dateTime": 1513458788268, "trialdata": {"rt": -1000, "stimulus": "/static/audio/wordpool/BELLY.wav", "key_press": -1, "type": "PRES_AUD", "word": "belly", "wordID": 118, "conditions": [24, 800, "a", 24000], "trial": 5, "serialpos": 17, "trial_type": "single-audio", "trial_index": 214, "time_elapsed": 880057, "internal_node_id": "0.0-160.0"}}, {"uniqueid": "MTK1196:3UN61F00HXWRB5RC0HOVXMHJS3Y5R4", "current_trial": 215, "dateTime": 1513458790020, "trialdata": {"rt": -1000, "stimulus": "/static/audio/wordpool/SCULPTURE.wav", "key_press": -1, "type": "PRES_AUD", "word": "sculpture", "wordID": 1257, "conditions": [24, 800, "a", 24000], "trial": 5, "serialpos": 18, "trial_type": "single-audio", "trial_index": 215, "time_elapsed": 881809, "internal_node_id": "0.0-161.0"}}, {"uniqueid": "MTK1196:3UN61F00HXWRB5RC0HOVXMHJS3Y5R4", "current_trial": 216, "dateTime": 1513458791743, "trialdata": {"rt": -1000, "stimulus": "/static/audio/wordpool/STATUE.wav", "key_press": -1, "type": "PRES_AUD", "word": "statue", "wordID": 1373, "conditions": [24, 800, "a", 24000], "trial": 5, "serialpos": 19, "trial_type": "single-audio", "trial_index": 216, "time_elapsed": 883531, "internal_node_id": "0.0-162.0"}}, {"uniqueid": "MTK1196:3UN61F00HXWRB5RC0HOVXMHJS3Y5R4", "current_trial": 217, "dateTime": 1513458793456, "trialdata": {"rt": -1000, "stimulus": "/static/audio/wordpool/BOUQUET.wav", "key_press": -1, "type": "PRES_AUD", "word": "bouquet", "wordID": 156, "conditions": [24, 800, "a", 24000], "trial": 5, "serialpos": 20, "trial_type": "single-audio", "trial_index": 217, "time_elapsed": 885245, "internal_node_id": "0.0-163.0"}}, {"uniqueid": "MTK1196:3UN61F00HXWRB5RC0HOVXMHJS3Y5R4", "current_trial": 218, "dateTime": 1513458795269, "trialdata": {"rt": -1000, "stimulus": "/static/audio/wordpool/TART.wav", "key_press": -1, "type": "PRES_AUD", "word": "tart", "wordID": 1435, "conditions": [24, 800, "a", 24000], "trial": 5, "serialpos": 21, "trial_type": "single-audio", "trial_index": 218, "time_elapsed": 887058, "internal_node_id": "0.0-164.0"}}, {"uniqueid": "MTK1196:3UN61F00HXWRB5RC0HOVXMHJS3Y5R4", "current_trial": 219, "dateTime": 1513458797039, "trialdata": {"rt": -1000, "stimulus": "/static/audio/wordpool/WIFE.wav", "key_press": -1, "type": "PRES_AUD", "word": "wife", "wordID": 1608, "conditions": [24, 800, "a", 24000], "trial": 5, "serialpos": 22, "trial_type": "single-audio", "trial_index": 219, "time_elapsed": 888828, "internal_node_id": "0.0-165.0"}}, {"uniqueid": "MTK1196:3UN61F00HXWRB5RC0HOVXMHJS3Y5R4", "current_trial": 220, "dateTime": 1513458798824, "trialdata": {"rt": -1000, "stimulus": "/static/audio/wordpool/BURGLAR.wav", "key_press": -1, "type": "PRES_AUD", "word": "burglar", "wordID": 199, "conditions": [24, 800, "a", 24000], "trial": 5, "serialpos": 23, "trial_type": "single-audio", "trial_index": 220, "time_elapsed": 890612, "internal_node_id": "0.0-166.0"}}, {"uniqueid": "MTK1196:3UN61F00HXWRB5RC0HOVXMHJS3Y5R4", "current_trial": 221, "dateTime": 1513458800119, "trialdata": {"rt": -1, "stimulus": "", "key_press": -1, "type": "PRE_RECALL_DELAY", "trial_type": "single-stim", "trial_index": 221, "time_elapsed": 891908, "internal_node_id": "0.0-167.0-0.0"}}, {"uniqueid": "MTK1196:3UN61F00HXWRB5RC0HOVXMHJS3Y5R4", "current_trial": 222, "dateTime": 1513458800681, "trialdata": {"rt": -1000, "stimulus": "/static/audio/400Hz.wav", "key_press": -1, "type": "PRE_RECALL_ALERT", "trial_type": "single-audio", "trial_index": 222, "time_elapsed": 892470, "internal_node_id": "0.0-168.0"}}, {"uniqueid": "MTK1196:3UN61F00HXWRB5RC0HOVXMHJS3Y5R4", "current_trial": 223, "dateTime": 1513458860695, "trialdata": {"rt": [4207, 12311, 14607, 16614], "recwords": ["breifcase", "leg", "shoulder", "arm"], "type": "FREE_RECALL", "conditions": [24, 800, "a", 24000], "trial": 5, "trial_type": "free-recall", "trial_index": 223, "time_elapsed": 952475, "internal_node_id": "0.0-169.0-0.0"}}, {"uniqueid": "MTK1196:3UN61F00HXWRB5RC0HOVXMHJS3Y5R4", "current_trial": 224, "dateTime": 1513458864637, "trialdata": {"rt": 1940, "key_press": 13, "type": "INSTRUCTIONS", "trial_type": "text", "trial_index": 224, "time_elapsed": 956426, "internal_node_id": "0.0-170.0"}}, {"uniqueid": "MTK1196:3UN61F00HXWRB5RC0HOVXMHJS3Y5R4", "current_trial": 225, "dateTime": 1513458878644, "trialdata": {"rt": [3355, 7050, 10163], "responses": ["11", "22", "14"], "num1": [2, 7, 1, 5], "num2": [4, 7, 7, 4], "num3": [5, 8, 6, 7], "type": "DISTRACTOR", "conditions": [24, 1600, "v", 12000], "trial": 6, "trial_type": "math-distractor", "trial_index": 225, "time_elapsed": 970432, "internal_node_id": "0.0-171.0"}}, {"uniqueid": "MTK1196:3UN61F00HXWRB5RC0HOVXMHJS3Y5R4", "current_trial": 226, "dateTime": 1513458881646, "trialdata": {"rt": -1, "stimulus": "<p id=\"stim\">10</p>", "key_press": -1, "trial_type": "single-stim", "trial_index": 226, "time_elapsed": 973434, "internal_node_id": "0.0-172.0-0.0"}}, {"uniqueid": "MTK1196:3UN61F00HXWRB5RC0HOVXMHJS3Y5R4", "current_trial": 227, "dateTime": 1513458882648, "trialdata": {"rt": -1, "stimulus": "<p id=\"stim\">9</p>", "key_press": -1, "trial_type": "single-stim", "trial_index": 227, "time_elapsed": 974436, "internal_node_id": "0.0-172.0-1.0"}}, {"uniqueid": "MTK1196:3UN61F00HXWRB5RC0HOVXMHJS3Y5R4", "current_trial": 228, "dateTime": 1513458883650, "trialdata": {"rt": -1, "stimulus": "<p id=\"stim\">8</p>", "key_press": -1, "trial_type": "single-stim", "trial_index": 228, "time_elapsed": 975438, "internal_node_id": "0.0-172.0-2.0"}}, {"uniqueid": "MTK1196:3UN61F00HXWRB5RC0HOVXMHJS3Y5R4", "current_trial": 229, "dateTime": 1513458884652, "trialdata": {"rt": -1, "stimulus": "<p id=\"stim\">7</p>", "key_press": -1, "trial_type": "single-stim", "trial_index": 229, "time_elapsed": 976440, "internal_node_id": "0.0-172.0-3.0"}}, {"uniqueid": "MTK1196:3UN61F00HXWRB5RC0HOVXMHJS3Y5R4", "current_trial": 230, "dateTime": 1513458885653, "trialdata": {"rt": -1, "stimulus": "<p id=\"stim\">6</p>", "key_press": -1, "trial_type": "single-stim", "trial_index": 230, "time_elapsed": 977442, "internal_node_id": "0.0-172.0-4.0"}}, {"uniqueid": "MTK1196:3UN61F00HXWRB5RC0HOVXMHJS3Y5R4", "current_trial": 231, "dateTime": 1513458886657, "trialdata": {"rt": -1, "stimulus": "<p id=\"stim\">5</p>", "key_press": -1, "trial_type": "single-stim", "trial_index": 231, "time_elapsed": 978445, "internal_node_id": "0.0-172.0-5.0"}}, {"uniqueid": "MTK1196:3UN61F00HXWRB5RC0HOVXMHJS3Y5R4", "current_trial": 232, "dateTime": 1513458887659, "trialdata": {"rt": -1, "stimulus": "<p id=\"stim\">4</p>", "key_press": -1, "trial_type": "single-stim", "trial_index": 232, "time_elapsed": 979447, "internal_node_id": "0.0-172.0-6.0"}}, {"uniqueid": "MTK1196:3UN61F00HXWRB5RC0HOVXMHJS3Y5R4", "current_trial": 233, "dateTime": 1513458888661, "trialdata": {"rt": -1, "stimulus": "<p id=\"stim\">3</p>", "key_press": -1, "trial_type": "single-stim", "trial_index": 233, "time_elapsed": 980449, "internal_node_id": "0.0-172.0-7.0"}}, {"uniqueid": "MTK1196:3UN61F00HXWRB5RC0HOVXMHJS3Y5R4", "current_trial": 234, "dateTime": 1513458889663, "trialdata": {"rt": -1, "stimulus": "<p id=\"stim\">2</p>", "key_press": -1, "trial_type": "single-stim", "trial_index": 234, "time_elapsed": 981451, "internal_node_id": "0.0-172.0-8.0"}}, {"uniqueid": "MTK1196:3UN61F00HXWRB5RC0HOVXMHJS3Y5R4", "current_trial": 235, "dateTime": 1513458890665, "trialdata": {"rt": -1, "stimulus": "<p id=\"stim\">1</p>", "key_press": -1, "trial_type": "single-stim", "trial_index": 235, "time_elapsed": 982453, "internal_node_id": "0.0-172.0-9.0"}}, {"uniqueid": "MTK1196:3UN61F00HXWRB5RC0HOVXMHJS3Y5R4", "current_trial": 236, "dateTime": 1513458892166, "trialdata": {"rt": -1, "stimulus": "<p id=\"stim\">+</p>", "key_press": -1, "type": "FIXATION", "trial_type": "single-stim", "trial_index": 236, "time_elapsed": 983955, "internal_node_id": "0.0-173.0-0.0"}}, {"uniqueid": "MTK1196:3UN61F00HXWRB5RC0HOVXMHJS3Y5R4", "current_trial": 237, "dateTime": 1513458893770, "trialdata": {"rt": -1, "stimulus": "<p id=\"stim\">COUNTRY</p>", "key_press": -1, "type": "PRES_VIS", "word": "country", "wordID": 387, "conditions": [24, 1600, "v", 12000], "trial": 6, "serialpos": 0, "trial_type": "single-stim", "trial_index": 237, "time_elapsed": 985558, "internal_node_id": "0.0-174.0"}}, {"uniqueid": "MTK1196:3UN61F00HXWRB5RC0HOVXMHJS3Y5R4", "current_trial": 238, "dateTime": 1513458896207, "trialdata": {"rt": -1, "stimulus": "<p id=\"stim\">PERFUME</p>", "key_press": -1, "type": "PRES_VIS", "word": "perfume", "wordID": 1048, "conditions": [24, 1600, "v", 12000], "trial": 6, "serialpos": 1, "trial_type": "single-stim", "trial_index": 238, "time_elapsed": 987995, "internal_node_id": "0.0-175.0"}}, {"uniqueid": "MTK1196:3UN61F00HXWRB5RC0HOVXMHJS3Y5R4", "current_trial": 239, "dateTime": 1513458898807, "trialdata": {"rt": -1, "stimulus": "<p id=\"stim\">HEADBAND</p>", "key_press": -1, "type": "PRES_VIS", "word": "headband", "wordID": 695, "conditions": [24, 1600, "v", 12000], "trial": 6, "serialpos": 2, "trial_type": "single-stim", "trial_index": 239, "time_elapsed": 990595, "internal_node_id": "0.0-176.0"}}, {"uniqueid": "MTK1196:3UN61F00HXWRB5RC0HOVXMHJS3Y5R4", "current_trial": 240, "dateTime": 1513458901414, "trialdata": {"rt": -1, "stimulus": "<p id=\"stim\">WORLD</p>", "key_press": -1, "type": "PRES_VIS", "word": "world", "wordID": 1621, "conditions": [24, 1600, "v", 12000], "trial": 6, "serialpos": 3, "trial_type": "single-stim", "trial_index": 240, "time_elapsed": 993202, "internal_node_id": "0.0-177.0"}}, {"uniqueid": "MTK1196:3UN61F00HXWRB5RC0HOVXMHJS3Y5R4", "current_trial": 241, "dateTime": 1513458904177, "trialdata": {"rt": -1, "stimulus": "<p id=\"stim\">BODY</p>", "key_press": -1, "type": "PRES_VIS", "word": "body", "wordID": 144, "conditions": [24, 1600, "v", 12000], "trial": 6, "serialpos": 4, "trial_type": "single-stim", "trial_index": 241, "time_elapsed": 995965, "internal_node_id": "0.0-178.0"}}, {"uniqueid": "MTK1196:3UN61F00HXWRB5RC0HOVXMHJS3Y5R4", "current_trial": 242, "dateTime": 1513458906959, "trialdata": {"rt": -1, "stimulus": "<p id=\"stim\">TUBA</p>", "key_press": -1, "type": "PRES_VIS", "word": "tuba", "wordID": 1514, "conditions": [24, 1600, "v", 12000], "trial": 6, "serialpos": 5, "trial_type": "single-stim", "trial_index": 242, "time_elapsed": 998747, "internal_node_id": "0.0-179.0"}}, {"uniqueid": "MTK1196:3UN61F00HXWRB5RC0HOVXMHJS3Y5R4", "current_trial": 243, "dateTime": 1513458909583, "trialdata": {"rt": -1, "stimulus": "<p id=\"stim\">CRATER</p>", "key_press": -1, "type": "PRES_VIS", "word": "crater", "wordID": 399, "conditions": [24, 1600, "v", 12000], "trial": 6, "serialpos": 6, "trial_type": "single-stim", "trial_index": 243, "time_elapsed": 1001371, "internal_node_id": "0.0-180.0"}}, {"uniqueid": "MTK1196:3UN61F00HXWRB5RC0HOVXMHJS3Y5R4", "current_trial": 244, "dateTime": 1513458912074, "trialdata": {"rt": -1, "stimulus": "<p id=\"stim\">SALT</p>", "key_press": -1, "type": "PRES_VIS", "word": "salt", "wordID": 1228, "conditions": [24, 1600, "v", 12000], "trial": 6, "serialpos": 7, "trial_type": "single-stim", "trial_index": 244, "time_elapsed": 1003862, "internal_node_id": "0.0-181.0"}}, {"uniqueid": "MTK1196:3UN61F00HXWRB5RC0HOVXMHJS3Y5R4", "current_trial": 245, "dateTime": 1513458914644, "trialdata": {"rt": -1, "stimulus": "<p id=\"stim\">RIFLE</p>", "key_press": -1, "type": "PRES_VIS", "word": "rifle", "wordID": 1191, "conditions": [24, 1600, "v", 12000], "trial": 6, "serialpos": 8, "trial_type": "single-stim", "trial_index": 245, "time_elapsed": 1006432, "internal_node_id": "0.0-182.0"}}, {"uniqueid": "MTK1196:3UN61F00HXWRB5RC0HOVXMHJS3Y5R4", "current_trial": 246, "dateTime": 1513458917192, "trialdata": {"rt": -1, "stimulus": "<p id=\"stim\">FIDDLE</p>", "key_press": -1, "type": "PRES_VIS", "word": "fiddle", "wordID": 560, "conditions": [24, 1600, "v", 12000], "trial": 6, "serialpos": 9, "trial_type": "single-stim", "trial_index": 246, "time_elapsed": 1008981, "internal_node_id": "0.0-183.0"}}, {"uniqueid": "MTK1196:3UN61F00HXWRB5RC0HOVXMHJS3Y5R4", "current_trial": 247, "dateTime": 1513458919609, "trialdata": {"rt": -1, "stimulus": "<p id=\"stim\">SALMON</p>", "key_press": -1, "type": "PRES_VIS", "word": "salmon", "wordID": 1226, "conditions": [24, 1600, "v", 12000], "trial": 6, "serialpos": 10, "trial_type": "single-stim", "trial_index": 247, "time_elapsed": 1011398, "internal_node_id": "0.0-184.0"}}, {"uniqueid": "MTK1196:3UN61F00HXWRB5RC0HOVXMHJS3Y5R4", "current_trial": 248, "dateTime": 1513458922399, "trialdata": {"rt": -1, "stimulus": "<p id=\"stim\">TROUT</p>", "key_press": -1, "type": "PRES_VIS", "word": "trout", "wordID": 1510, "conditions": [24, 1600, "v", 12000], "trial": 6, "serialpos": 11, "trial_type": "single-stim", "trial_index": 248, "time_elapsed": 1014188, "internal_node_id": "0.0-185.0"}}, {"uniqueid": "MTK1196:3UN61F00HXWRB5RC0HOVXMHJS3Y5R4", "current_trial": 249, "dateTime": 1513458924907, "trialdata": {"rt": -1, "stimulus": "<p id=\"stim\">SAUSAGE</p>", "key_press": -1, "type": "PRES_VIS", "word": "sausage", "wordID": 1237, "conditions": [24, 1600, "v", 12000], "trial": 6, "serialpos": 12, "trial_type": "single-stim", "trial_index": 249, "time_elapsed": 1016695, "internal_node_id": "0.0-186.0"}}, {"uniqueid": "MTK1196:3UN61F00HXWRB5RC0HOVXMHJS3Y5R4", "current_trial": 250, "dateTime": 1513458927485, "trialdata": {"rt": -1, "stimulus": "<p id=\"stim\">NIGHTGOWN</p>", "key_press": -1, "type": "PRES_VIS", "word": "nightgown", "wordID": 952, "conditions": [24, 1600, "v", 12000], "trial": 6, "serialpos": 13, "trial_type": "single-stim", "trial_index": 250, "time_elapsed": 1019273, "internal_node_id": "0.0-187.0"}}, {"uniqueid": "MTK1196:3UN61F00HXWRB5RC0HOVXMHJS3Y5R4", "current_trial": 251, "dateTime": 1513458929987, "trialdata": {"rt": -1, "stimulus": "<p id=\"stim\">FRAME</p>", "key_press": -1, "type": "PRES_VIS", "word": "frame", "wordID": 599, "conditions": [24, 1600, "v", 12000], "trial": 6, "serialpos": 14, "trial_type": "single-stim", "trial_index": 251, "time_elapsed": 1021775, "internal_node_id": "0.0-188.0"}}, {"uniqueid": "MTK1196:3UN61F00HXWRB5RC0HOVXMHJS3Y5R4", "current_trial": 252, "dateTime": 1513458932767, "trialdata": {"rt": -1, "stimulus": "<p id=\"stim\">BLOCKADE</p>", "key_press": -1, "type": "PRES_VIS", "word": "blockade", "wordID": 136, "conditions": [24, 1600, "v", 12000], "trial": 6, "serialpos": 15, "trial_type": "single-stim", "trial_index": 252, "time_elapsed": 1024555, "internal_node_id": "0.0-189.0"}}, {"uniqueid": "MTK1196:3UN61F00HXWRB5RC0HOVXMHJS3Y5R4", "current_trial": 253, "dateTime": 1513458935409, "trialdata": {"rt": -1, "stimulus": "<p id=\"stim\">CANAL</p>", "key_press": -1, "type": "PRES_VIS", "word": "canal", "wordID": 225, "conditions": [24, 1600, "v", 12000], "trial": 6, "serialpos": 16, "trial_type": "single-stim", "trial_index": 253, "time_elapsed": 1027197, "internal_node_id": "0.0-190.0"}}, {"uniqueid": "MTK1196:3UN61F00HXWRB5RC0HOVXMHJS3Y5R4", "current_trial": 254, "dateTime": 1513458937939, "trialdata": {"rt": -1, "stimulus": "<p id=\"stim\">ARMY</p>", "key_press": -1, "type": "PRES_VIS", "word": "army", "wordID": 38, "conditions": [24, 1600, "v", 12000], "trial": 6, "serialpos": 17, "trial_type": "single-stim", "trial_index": 254, "time_elapsed": 1029727, "internal_node_id": "0.0-191.0"}}, {"uniqueid": "MTK1196:3UN61F00HXWRB5RC0HOVXMHJS3Y5R4", "current_trial": 255, "dateTime": 1513458940352, "trialdata": {"rt": -1, "stimulus": "<p id=\"stim\">DENIM</p>", "key_press": -1, "type": "PRES_VIS", "word": "denim", "wordID": 445, "conditions": [24, 1600, "v", 12000], "trial": 6, "serialpos": 18, "trial_type": "single-stim", "trial_index": 255, "time_elapsed": 1032140, "internal_node_id": "0.0-192.0"}}, {"uniqueid": "MTK1196:3UN61F00HXWRB5RC0HOVXMHJS3Y5R4", "current_trial": 256, "dateTime": 1513458942966, "trialdata": {"rt": -1, "stimulus": "<p id=\"stim\">FARMER</p>", "key_press": -1, "type": "PRES_VIS", "word": "farmer", "wordID": 552, "conditions": [24, 1600, "v", 12000], "trial": 6, "serialpos": 19, "trial_type": "single-stim", "trial_index": 256, "time_elapsed": 1034754, "internal_node_id": "0.0-193.0"}}, {"uniqueid": "MTK1196:3UN61F00HXWRB5RC0HOVXMHJS3Y5R4", "current_trial": 257, "dateTime": 1513458945441, "trialdata": {"rt": -1, "stimulus": "<p id=\"stim\">SUNRISE</p>", "key_press": -1, "type": "PRES_VIS", "word": "sunrise", "wordID": 1406, "conditions": [24, 1600, "v", 12000], "trial": 6, "serialpos": 20, "trial_type": "single-stim", "trial_index": 257, "time_elapsed": 1037229, "internal_node_id": "0.0-194.0"}}, {"uniqueid": "MTK1196:3UN61F00HXWRB5RC0HOVXMHJS3Y5R4", "current_trial": 258, "dateTime": 1513458947853, "trialdata": {"rt": -1, "stimulus": "<p id=\"stim\">SUNSET</p>", "key_press": -1, "type": "PRES_VIS", "word": "sunset", "wordID": 1407, "conditions": [24, 1600, "v", 12000], "trial": 6, "serialpos": 21, "trial_type": "single-stim", "trial_index": 258, "time_elapsed": 1039641, "internal_node_id": "0.0-195.0"}}, {"uniqueid": "MTK1196:3UN61F00HXWRB5RC0HOVXMHJS3Y5R4", "current_trial": 259, "dateTime": 1513458950428, "trialdata": {"rt": -1, "stimulus": "<p id=\"stim\">CLOTHES</p>", "key_press": -1, "type": "PRES_VIS", "word": "clothes", "wordID": 326, "conditions": [24, 1600, "v", 12000], "trial": 6, "serialpos": 22, "trial_type": "single-stim", "trial_index": 259, "time_elapsed": 1042212, "internal_node_id": "0.0-196.0"}}, {"uniqueid": "MTK1196:3UN61F00HXWRB5RC0HOVXMHJS3Y5R4", "current_trial": 260, "dateTime": 1513458953141, "trialdata": {"rt": -1, "stimulus": "<p id=\"stim\">GRAPE</p>", "key_press": -1, "type": "PRES_VIS", "word": "grape", "wordID": 653, "conditions": [24, 1600, "v", 12000], "trial": 6, "serialpos": 23, "trial_type": "single-stim", "trial_index": 260, "time_elapsed": 1044930, "internal_node_id": "0.0-197.0"}}, {"uniqueid": "MTK1196:3UN61F00HXWRB5RC0HOVXMHJS3Y5R4", "current_trial": 261, "dateTime": 1513458955392, "trialdata": {"rt": -1, "stimulus": "", "key_press": -1, "type": "PRE_RECALL_DELAY", "trial_type": "single-stim", "trial_index": 261, "time_elapsed": 1047181, "internal_node_id": "0.0-198.0-0.0"}}, {"uniqueid": "MTK1196:3UN61F00HXWRB5RC0HOVXMHJS3Y5R4", "current_trial": 262, "dateTime": 1513458955898, "trialdata": {"rt": -1000, "stimulus": "/static/audio/400Hz.wav", "key_press": -1, "type": "PRE_RECALL_ALERT", "trial_type": "single-audio", "trial_index": 262, "time_elapsed": 1047686, "internal_node_id": "0.0-199.0"}}, {"uniqueid": "MTK1196:3UN61F00HXWRB5RC0HOVXMHJS3Y5R4", "current_trial": 263, "dateTime": 1513459015917, "trialdata": {"rt": [2949, 5685, 6829, 7941, 11917, 13277, 23740], "recwords": ["grape", "salmon", "canal", "trout", "blockae", "army", "headband"], "type": "FREE_RECALL", "conditions": [24, 1600, "v", 12000], "trial": 6, "trial_type": "free-recall", "trial_index": 263, "time_elapsed": 1107693, "internal_node_id": "0.0-200.0-0.0"}}, {"uniqueid": "MTK1196:3UN61F00HXWRB5RC0HOVXMHJS3Y5R4", "current_trial": 264, "dateTime": 1513459025422, "trialdata": {"rt": 7504, "key_press": 13, "type": "INSTRUCTIONS", "trial_type": "text", "trial_index": 264, "time_elapsed": 1117211, "internal_node_id": "0.0-201.0"}}, {"uniqueid": "MTK1196:3UN61F00HXWRB5RC0HOVXMHJS3Y5R4", "current_trial": 265, "dateTime": 1513459039427, "trialdata": {"rt": [5970, 9802], "responses": ["8", "13"], "num1": [1, 1, 8], "num2": [4, 4, 5], "num3": [3, 8, 9], "type": "DISTRACTOR", "conditions": [12, 800, "v", 12000], "trial": 7, "trial_type": "math-distractor", "trial_index": 265, "time_elapsed": 1131216, "internal_node_id": "0.0-202.0"}}, {"uniqueid": "MTK1196:3UN61F00HXWRB5RC0HOVXMHJS3Y5R4", "current_trial": 266, "dateTime": 1513459042431, "trialdata": {"rt": -1, "stimulus": "<p id=\"stim\">10</p>", "key_press": -1, "trial_type": "single-stim", "trial_index": 266, "time_elapsed": 1134219, "internal_node_id": "0.0-203.0-0.0"}}, {"uniqueid": "MTK1196:3UN61F00HXWRB5RC0HOVXMHJS3Y5R4", "current_trial": 267, "dateTime": 1513459043434, "trialdata": {"rt": -1, "stimulus": "<p id=\"stim\">9</p>", "key_press": -1, "trial_type": "single-stim", "trial_index": 267, "time_elapsed": 1135222, "internal_node_id": "0.0-203.0-1.0"}}, {"uniqueid": "MTK1196:3UN61F00HXWRB5RC0HOVXMHJS3Y5R4", "current_trial": 268, "dateTime": 1513459044436, "trialdata": {"rt": -1, "stimulus": "<p id=\"stim\">8</p>", "key_press": -1, "trial_type": "single-stim", "trial_index": 268, "time_elapsed": 1136225, "internal_node_id": "0.0-203.0-2.0"}}, {"uniqueid": "MTK1196:3UN61F00HXWRB5RC0HOVXMHJS3Y5R4", "current_trial": 269, "dateTime": 1513459045439, "trialdata": {"rt": -1, "stimulus": "<p id=\"stim\">7</p>", "key_press": -1, "trial_type": "single-stim", "trial_index": 269, "time_elapsed": 1137228, "internal_node_id": "0.0-203.0-3.0"}}, {"uniqueid": "MTK1196:3UN61F00HXWRB5RC0HOVXMHJS3Y5R4", "current_trial": 270, "dateTime": 1513459046442, "trialdata": {"rt": -1, "stimulus": "<p id=\"stim\">6</p>", "key_press": -1, "trial_type": "single-stim", "trial_index": 270, "time_elapsed": 1138231, "intern