{"assignmentId": "3HHRAGRYX9C7FF18BFK8F7HG5RDO9H", "workerId": "MTK1584", "questiondata": {"origin": "United States", "strat-rehearsal": "31", "marital": "Divorced", "education": "Associate degree", "ethnicity": "Not Hispanic", "color_depth": 24, "distracted": "No", "wrote-notes": "Yes", "strat-other": "", "screen_width": 1280, "avail_screen_width": 1280, "avail_screen_height": 681, "strat-image": "35", "language": "english", "gender": "Female", "age": "54", "gender_other": "", "race": ["Asian"], "strat-categorize": "24", "pixel_depth": 24, "strat-spatial": "24", "strat-story": "8", "race_other": "", "screen_height": 721}, "bonus": 0, "hitId": "31YWE12TE0JO8LTD774IV4LJ5YS7XL", "counterbalance": 1766, "useragent": "Mozilla/5.0 (Windows NT 10.0; Win64; x64) AppleWebKit/537.36 (KHTML, like Gecko) Chrome/63.0.3239.132 Safari/537.36", "eventdata": [{"eventtype": "initialized", "interval": 0, "value": null, "timestamp": 1516042599747}, {"eventtype": "window_resize", "interval": 0, "value": [1288, 674], "timestamp": 1516042599747}, {"eventtype": "window_resize", "interval": 57808, "value": [1280, 720], "timestamp": 1516042657555}], "data": [{"current_trial": 0, "trialdata": {"rt": 2335, "trial_type": "text", "internal_node_id": "0.0-0.0", "time_elapsed": 2337, "key_press": 32, "type": "INSTRUCTIONS", "trial_index": 0}, "uniqueid": "MTK1584:3HHRAGRYX9C7FF18BFK8F7HG5RDO9H", "dateTime": 1516042609299}, {"current_trial": 1, "trialdata": {"rt": 1637, "trial_type": "text", "internal_node_id": "0.0-1.0", "time_elapsed": 3976, "key_press": 32, "type": "INSTRUCTIONS", "trial_index": 1}, "uniqueid": "MTK1584:3HHRAGRYX9C7FF18BFK8F7HG5RDO9H", "dateTime": 1516042610938}, {"current_trial": 2, "trialdata": {"rt": [8284], "trial_type": "audio-test", "responses": ["ocean"], "internal_node_id": "0.0-2.0", "time_elapsed": 12272, "type": "AUDIO_TEST", "trial_index": 2}, "uniqueid": "MTK1584:3HHRAGRYX9C7FF18BFK8F7HG5RDO9H", "dateTime": 1516042619234}, {"current_trial": 3, "trialdata": {"rt": [6868], "trial_type": "audio-test", "responses": ["crystal"], "internal_node_id": "0.0-3.0", "time_elapsed": 19144, "type": "AUDIO_TEST", "trial_index": 3}, "uniqueid": "MTK1584:3HHRAGRYX9C7FF18BFK8F7HG5RDO9H", "dateTime": 1516042626106}, {"current_trial": 4, "trialdata": {"rt": [6794], "trial_type": "audio-test", "responses": ["spice"], "internal_node_id": "0.0-4.0", "time_elapsed": 25943, "type": "AUDIO_TEST", "trial_index": 4}, "uniqueid": "MTK1584:3HHRAGRYX9C7FF18BFK8F7HG5RDO9H", "dateTime": 1516042632905}, {"current_trial": 5, "trialdata": {"rt": 25440, "trial_type": "survey-text", "responses": "{\"Q0\":\"10:00 pm\",\"Q1\":\"7:00 am\",\"Q2\":\"3\"}", "internal_node_id": "0.0-5.0", "time_elapsed": 52138, "type": "SLEEP_SURVEY", "trial_index": 5}, "uniqueid": "MTK1584:3HHRAGRYX9C7FF18BFK8F7HG5RDO9H", "dateTime": 1516042659100}, {"current_trial": 6, "trialdata": {"rt": 2964, "trial_type": "text", "internal_node_id": "0.0-6.0", "time_elapsed": 56102, "key_press": 32, "type": "INSTRUCTIONS", "trial_index": 6}, "uniqueid": "MTK1584:3HHRAGRYX9C7FF18BFK8F7HG5RDO9H", "dateTime": 1516042663065}, {"current_trial": 7, "trialdata": {"rt": 1433, "trial_type": "text", "internal_node_id": "0.0-7.0", "time_elapsed": 58038, "key_press": 32, "type": "INSTRUCTIONS", "trial_index": 7}, "uniqueid": "MTK1584:3HHRAGRYX9C7FF18BFK8F7HG5RDO9H", "dateTime": 1516042665000}, {"current_trial": 8, "trialdata": {"rt": 729, "trial_type": "text", "internal_node_id": "0.0-8.0", "time_elapsed": 59270, "key_press": 32, "type": "INSTRUCTIONS", "trial_index": 8}, "uniqueid": "MTK1584:3HHRAGRYX9C7FF18BFK8F7HG5RDO9H", "dateTime": 1516042666232}, {"current_trial": 9, "trialdata": {"rt": [1912, 4551, 8119, 10864, 12904, 15959], "trial_type": "math-distractor", "key_times": [1617, 1912, 4064, 4288, 4551, 6944, 7183, 8119, 10352, 10528, 10864, 12465, 12632, 12904, 14304, 15208, 15624, 15959], "responses": ["8", "15", "20", "13", "18", "8"], "num2": [6, 1, 9, 2, 8, 5, 6], "num3": [1, 6, 8, 6, 2, 1, 1], "conditions": [18, 1200, "a", 18000], "internal_node_id": "0.0-9.0", "key_presses": [104, 13, 97, 101, 13, 98, 96, 13, 97, 99, 13, 97, 104, 13, 97, 8, 104, 13], "trial": 0, "time_elapsed": 78279, "type": "DISTRACTOR", "trial_index": 9, "num1": [1, 8, 3, 5, 8, 2, 2]}, "uniqueid": "MTK1584:3HHRAGRYX9C7FF18BFK8F7HG5RDO9H", "dateTime": 1516042685241}, {"current_trial": 10, "trialdata": {"rt": -1, "trial_type": "single-stim", "stimulus": "<p id=\"stim\">10</p>", "internal_node_id": "0.0-10.0-0.0", "time_elapsed": 81282, "key_press": -1, "trial_index": 10}, "uniqueid": "MTK1584:3HHRAGRYX9C7FF18BFK8F7HG5RDO9H", "dateTime": 1516042688244}, {"current_trial": 11, "trialdata": {"rt": -1, "trial_type": "single-stim", "stimulus": "<p id=\"stim\">9</p>", "internal_node_id": "0.0-10.0-1.0", "time_elapsed": 82284, "key_press": -1, "trial_index": 11}, "uniqueid": "MTK1584:3HHRAGRYX9C7FF18BFK8F7HG5RDO9H", "dateTime": 1516042689246}, {"current_trial": 12, "trialdata": {"rt": -1, "trial_type": "single-stim", "stimulus": "<p id=\"stim\">8</p>", "internal_node_id": "0.0-10.0-2.0", "time_elapsed": 83286, "key_press": -1, "trial_index": 12}, "uniqueid": "MTK1584:3HHRAGRYX9C7FF18BFK8F7HG5RDO9H", "dateTime": 1516042690248}, {"current_trial": 13, "trialdata": {"rt": -1, "trial_type": "single-stim", "stimulus": "<p id=\"stim\">7</p>", "internal_node_id": "0.0-10.0-3.0", "time_elapsed": 84286, "key_press": -1, "trial_index": 13}, "uniqueid": "MTK1584:3HHRAGRYX9C7FF18BFK8F7HG5RDO9H", "dateTime": 1516042691248}, {"current_trial": 14, "trialdata": {"rt": -1, "trial_type": "single-stim", "stimulus": "<p id=\"stim\">6</p>", "internal_node_id": "0.0-10.0-4.0", "time_elapsed": 85286, "key_press": -1, "trial_index": 14}, "uniqueid": "MTK1584:3HHRAGRYX9C7FF18BFK8F7HG5RDO9H", "dateTime": 1516042692249}, {"current_trial": 15, "trialdata": {"rt": -1, "trial_type": "single-stim", "stimulus": "<p id=\"stim\">5</p>", "internal_node_id": "0.0-10.0-5.0", "time_elapsed": 86288, "key_press": -1, "trial_index": 15}, "uniqueid": "MTK1584:3HHRAGRYX9C7FF18BFK8F7HG5RDO9H", "dateTime": 1516042693250}, {"current_trial": 16, "trialdata": {"rt": -1, "trial_type": "single-stim", "stimulus": "<p id=\"stim\">4</p>", "internal_node_id": "0.0-10.0-6.0", "time_elapsed": 87289, "key_press": -1, "trial_index": 16}, "uniqueid": "MTK1584:3HHRAGRYX9C7FF18BFK8F7HG5RDO9H", "dateTime": 1516042694251}, {"current_trial": 17, "trialdata": {"rt": -1, "trial_type": "single-stim", "stimulus": "<p id=\"stim\">3</p>", "internal_node_id": "0.0-10.0-7.0", "time_elapsed": 88291, "key_press": -1, "trial_index": 17}, "uniqueid": "MTK1584:3HHRAGRYX9C7FF18BFK8F7HG5RDO9H", "dateTime": 1516042695253}, {"current_trial": 18, "trialdata": {"rt": -1, "trial_type": "single-stim", "stimulus": "<p id=\"stim\">2</p>", "internal_node_id": "0.0-10.0-8.0", "time_elapsed": 89291, "key_press": -1, "trial_index": 18}, "uniqueid": "MTK1584:3HHRAGRYX9C7FF18BFK8F7HG5RDO9H", "dateTime": 1516042696253}, {"current_trial": 19, "trialdata": {"rt": -1, "trial_type": "single-stim", "stimulus": "<p id=\"stim\">1</p>", "internal_node_id": "0.0-10.0-9.0", "time_elapsed": 90294, "key_press": -1, "trial_index": 19}, "uniqueid": "MTK1584:3HHRAGRYX9C7FF18BFK8F7HG5RDO9H", "dateTime": 1516042697256}, {"current_trial": 20, "trialdata": {"rt": -1, "trial_type": "single-stim", "stimulus": "<p id=\"stim\">+</p>", "internal_node_id": "0.0-11.0-0.0", "time_elapsed": 91795, "key_press": -1, "type": "FIXATION", "trial_index": 20}, "uniqueid": "MTK1584:3HHRAGRYX9C7FF18BFK8F7HG5RDO9H", "dateTime": 1516042698757}, {"current_trial": 21, "trialdata": {"rt": -1000, "trial_type": "single-audio", "word": "lion", "stimulus": "/static/audio/wordpool/LION.wav", "conditions": [18, 1200, "a", 18000], "internal_node_id": "0.0-12.0", "trial": 0, "time_elapsed": 94071, "serialpos": 0, "key_press": -1, "wordID": 826, "type": "PRES_AUD", "trial_index": 21}, "uniqueid": "MTK1584:3HHRAGRYX9C7FF18BFK8F7HG5RDO9H", "dateTime": 1516042701033}, {"current_trial": 22, "trialdata": {"rt": -1000, "trial_type": "single-audio", "word": "market", "stimulus": "/static/audio/wordpool/MARKET.wav", "conditions": [18, 1200, "a", 18000], "internal_node_id": "0.0-13.0", "trial": 0, "time_elapsed": 96384, "serialpos": 1, "key_press": -1, "wordID": 870, "type": "PRES_AUD", "trial_index": 22}, "uniqueid": "MTK1584:3HHRAGRYX9C7FF18BFK8F7HG5RDO9H", "dateTime": 1516042703346}, {"current_trial": 23, "trialdata": {"rt": -1000, "trial_type": "single-audio", "word": "message", "stimulus": "/static/audio/wordpool/MESSAGE.wav", "conditions": [18, 1200, "a", 18000], "internal_node_id": "0.0-14.0", "trial": 0, "time_elapsed": 98744, "serialpos": 2, "key_press": -1, "wordID": 887, "type": "PRES_AUD", "trial_index": 23}, "uniqueid": "MTK1584:3HHRAGRYX9C7FF18BFK8F7HG5RDO9H", "dateTime": 1516042705706}, {"current_trial": 24, "trialdata": {"rt": -1000, "trial_type": "single-audio", "word": "glove", "stimulus": "/static/audio/wordpool/GLOVE.wav", "conditions": [18, 1200, "a", 18000], "internal_node_id": "0.0-15.0", "trial": 0, "time_elapsed": 100973, "serialpos": 3, "key_press": -1, "wordID": 641, "type": "PRES_AUD", "trial_index": 24}, "uniqueid": "MTK1584:3HHRAGRYX9C7FF18BFK8F7HG5RDO9H", "dateTime": 1516042707935}, {"current_trial": 25, "trialdata": {"rt": -1000, "trial_type": "single-audio", "word": "clamp", "stimulus": "/static/audio/wordpool/CLAMP.wav", "conditions": [18, 1200, "a", 18000], "internal_node_id": "0.0-16.0", "trial": 0, "time_elapsed": 103173, "serialpos": 4, "key_press": -1, "wordID": 315, "type": "PRES_AUD", "trial_index": 25}, "uniqueid": "MTK1584:3HHRAGRYX9C7FF18BFK8F7HG5RDO9H", "dateTime": 1516042710135}, {"current_trial": 26, "trialdata": {"rt": -1000, "trial_type": "single-audio", "word": "bison", "stimulus": "/static/audio/wordpool/BISON.wav", "conditions": [18, 1200, "a", 18000], "internal_node_id": "0.0-17.0", "trial": 0, "time_elapsed": 105405, "serialpos": 5, "key_press": -1, "wordID": 130, "type": "PRES_AUD", "trial_index": 26}, "uniqueid": "MTK1584:3HHRAGRYX9C7FF18BFK8F7HG5RDO9H", "dateTime": 1516042712367}, {"current_trial": 27, "trialdata": {"rt": -1000, "trial_type": "single-audio", "word": "tablet", "stimulus": "/static/audio/wordpool/TABLET.wav", "conditions": [18, 1200, "a", 18000], "internal_node_id": "0.0-18.0", "trial": 0, "time_elapsed": 107729, "serialpos": 6, "key_press": -1, "wordID": 1426, "type": "PRES_AUD", "trial_index": 27}, "uniqueid": "MTK1584:3HHRAGRYX9C7FF18BFK8F7HG5RDO9H", "dateTime": 1516042714691}, {"current_trial": 28, "trialdata": {"rt": -1000, "trial_type": "single-audio", "word": "cashier", "stimulus": "/static/audio/wordpool/CASHIER.wav", "conditions": [18, 1200, "a", 18000], "internal_node_id": "0.0-19.0", "trial": 0, "time_elapsed": 110077, "serialpos": 7, "key_press": -1, "wordID": 253, "type": "PRES_AUD", "trial_index": 28}, "uniqueid": "MTK1584:3HHRAGRYX9C7FF18BFK8F7HG5RDO9H", "dateTime": 1516042717039}, {"current_trial": 29, "trialdata": {"rt": -1000, "trial_type": "single-audio", "word": "cousin", "stimulus": "/static/audio/wordpool/COUSIN.wav", "conditions": [18, 1200, "a", 18000], "internal_node_id": "0.0-20.0", "trial": 0, "time_elapsed": 112254, "serialpos": 8, "key_press": -1, "wordID": 391, "type": "PRES_AUD", "trial_index": 29}, "uniqueid": "MTK1584:3HHRAGRYX9C7FF18BFK8F7HG5RDO9H", "dateTime": 1516042719216}, {"current_trial": 30, "trialdata": {"rt": -1000, "trial_type": "single-audio", "word": "machine", "stimulus": "/static/audio/wordpool/MACHINE.wav", "conditions": [18, 1200, "a", 18000], "internal_node_id": "0.0-21.0", "trial": 0, "time_elapsed": 114330, "serialpos": 9, "key_press": -1, "wordID": 851, "type": "PRES_AUD", "trial_index": 30}, "uniqueid": "MTK1584:3HHRAGRYX9C7FF18BFK8F7HG5RDO9H", "dateTime": 1516042721292}, {"current_trial": 31, "trialdata": {"rt": -1000, "trial_type": "single-audio", "word": "turtle", "stimulus": "/static/audio/wordpool/TURTLE.wav", "conditions": [18, 1200, "a", 18000], "internal_node_id": "0.0-22.0", "trial": 0, "time_elapsed": 116670, "serialpos": 10, "key_press": -1, "wordID": 1521, "type": "PRES_AUD", "trial_index": 31}, "uniqueid": "MTK1584:3HHRAGRYX9C7FF18BFK8F7HG5RDO9H", "dateTime": 1516042723632}, {"current_trial": 32, "trialdata": {"rt": -1000, "trial_type": "single-audio", "word": "bathtub", "stimulus": "/static/audio/wordpool/BATHTUB.wav", "conditions": [18, 1200, "a", 18000], "internal_node_id": "0.0-23.0", "trial": 0, "time_elapsed": 118959, "serialpos": 11, "key_press": -1, "wordID": 99, "type": "PRES_AUD", "trial_index": 32}, "uniqueid": "MTK1584:3HHRAGRYX9C7FF18BFK8F7HG5RDO9H", "dateTime": 1516042725921}, {"current_trial": 33, "trialdata": {"rt": -1000, "trial_type": "single-audio", "word": "creature", "stimulus": "/static/audio/wordpool/CREATURE.wav", "conditions": [18, 1200, "a", 18000], "internal_node_id": "0.0-24.0", "trial": 0, "time_elapsed": 121187, "serialpos": 12, "key_press": -1, "wordID": 402, "type": "PRES_AUD", "trial_index": 33}, "uniqueid": "MTK1584:3HHRAGRYX9C7FF18BFK8F7HG5RDO9H", "dateTime": 1516042728149}, {"current_trial": 34, "trialdata": {"rt": -1000, "trial_type": "single-audio", "word": "bug", "stimulus": "/static/audio/wordpool/BUG.wav", "conditions": [18, 1200, "a", 18000], "internal_node_id": "0.0-25.0", "trial": 0, "time_elapsed": 123375, "serialpos": 13, "key_press": -1, "wordID": 186, "type": "PRES_AUD", "trial_index": 34}, "uniqueid": "MTK1584:3HHRAGRYX9C7FF18BFK8F7HG5RDO9H", "dateTime": 1516042730338}, {"current_trial": 35, "trialdata": {"rt": -1000, "trial_type": "single-audio", "word": "binder", "stimulus": "/static/audio/wordpool/BINDER.wav", "conditions": [18, 1200, "a", 18000], "internal_node_id": "0.0-26.0", "trial": 0, "time_elapsed": 125527, "serialpos": 14, "key_press": -1, "wordID": 126, "type": "PRES_AUD", "trial_index": 35}, "uniqueid": "MTK1584:3HHRAGRYX9C7FF18BFK8F7HG5RDO9H", "dateTime": 1516042732489}, {"current_trial": 36, "trialdata": {"rt": -1000, "trial_type": "single-audio", "word": "item", "stimulus": "/static/audio/wordpool/ITEM.wav", "conditions": [18, 1200, "a", 18000], "internal_node_id": "0.0-27.0", "trial": 0, "time_elapsed": 127625, "serialpos": 15, "key_press": -1, "wordID": 745, "type": "PRES_AUD", "trial_index": 36}, "uniqueid": "MTK1584:3HHRAGRYX9C7FF18BFK8F7HG5RDO9H", "dateTime": 1516042734587}, {"current_trial": 37, "trialdata": {"rt": -1000, "trial_type": "single-audio", "word": "rocket", "stimulus": "/static/audio/wordpool/ROCKET.wav", "conditions": [18, 1200, "a", 18000], "internal_node_id": "0.0-28.0", "trial": 0, "time_elapsed": 129823, "serialpos": 16, "key_press": -1, "wordID": 1201, "type": "PRES_AUD", "trial_index": 37}, "uniqueid": "MTK1584:3HHRAGRYX9C7FF18BFK8F7HG5RDO9H", "dateTime": 1516042736785}, {"current_trial": 38, "trialdata": {"rt": -1000, "trial_type": "single-audio", "word": "blouse", "stimulus": "/static/audio/wordpool/BLOUSE.wav", "conditions": [18, 1200, "a", 18000], "internal_node_id": "0.0-29.0", "trial": 0, "time_elapsed": 132201, "serialpos": 17, "key_press": -1, "wordID": 138, "type": "PRES_AUD", "trial_index": 38}, "uniqueid": "MTK1584:3HHRAGRYX9C7FF18BFK8F7HG5RDO9H", "dateTime": 1516042739163}, {"current_trial": 39, "trialdata": {"rt": -1, "trial_type": "single-stim", "stimulus": "", "internal_node_id": "0.0-30.0-0.0", "time_elapsed": 133440, "key_press": -1, "type": "PRE_RECALL_DELAY", "trial_index": 39}, "uniqueid": "MTK1584:3HHRAGRYX9C7FF18BFK8F7HG5RDO9H", "dateTime": 1516042740403}, {"current_trial": 40, "trialdata": {"rt": -1000, "trial_type": "single-audio", "stimulus": "/static/audio/400Hz.wav", "internal_node_id": "0.0-31.0", "time_elapsed": 133942, "key_press": -1, "type": "PRE_RECALL_ALERT", "trial_index": 40}, "uniqueid": "MTK1584:3HHRAGRYX9C7FF18BFK8F7HG5RDO9H", "dateTime": 1516042740904}, {"current_trial": 41, "trialdata": {"rt": [7267, 10627, 14275, 22131, 24651, 28403, 31891, 34474, 36938, 39922, 42354, 45866, 49114, 51939, 55129, 57793], "recwords": ["lionj", "market", "message", "clamp", "bison", "cashier", "machine", "turtle", "blouse", "rocket", "bug", "turtle", "bathtub", "clamp", "glove", "tablet"], "key_times": [5236, 5900, 6059, 6363, 6373, 7267, 8388, 8587, 9172, 9884, 10011, 10251, 10627, 11356, 11507, 11915, 12260, 12555, 12931, 13219, 14275, 20396, 20475, 21003, 21211, 21460, 22131, 22699, 22851, 23083, 23275, 23540, 24651, 26211, 26444, 27012, 27243, 27523, 27723, 27900, 28403, 30019, 30227, 30516, 30667, 30804, 30987, 31147, 31891, 32723, 32859, 33051, 33619, 33851, 33994, 34474, 35562, 35683, 35882, 36139, 36283, 36475, 36938, 38227, 38363, 38579, 39115, 39267, 39499, 39922, 41516, 41619, 41811, 42354, 43963, 44067, 44226, 44731, 44946, 45115, 45866, 46435, 46611, 46922, 47090, 47691, 47819, 48083, 49114, 50123, 50307, 50867, 51075, 51315, 51939, 54059, 54242, 54433, 54563, 54761, 55129, 55819, 55978, 56218, 56434, 56554, 56842, 57793, 58388, 58522, 58658, 58987, 59123, 59291], "trial_type": "free-recall", "conditions": [18, 1200, "a", 18000], "internal_node_id": "0.0-32.0-0.0", "key_presses": [76, 73, 79, 78, 74, 13, 77, 65, 82, 75, 69, 84, 13, 77, 69, 83, 83, 65, 71, 69, 13, 67, 76, 65, 77, 80, 13, 66, 73, 83, 79, 78, 13, 67, 65, 83, 72, 73, 69, 82, 13, 77, 65, 67, 72, 73, 78, 69, 13, 84, 85, 82, 84, 76, 69, 13, 66, 76, 79, 85, 83, 69, 13, 82, 79, 67, 75, 69, 84, 13, 66, 85, 71, 13, 84, 85, 82, 84, 76, 69, 13, 66, 65, 84, 72, 84, 85, 66, 13, 67, 76, 65, 77, 80, 13, 71, 76, 79, 86, 69, 13, 84, 65, 66, 76, 69, 84, 13, 67, 79, 85, 83, 73, 78], "trial": 0, "time_elapsed": 193945, "type": "FREE_RECALL", "trial_index": 41}, "uniqueid": "MTK1584:3HHRAGRYX9C7FF18BFK8F7HG5RDO9H", "dateTime": 1516042800911}, {"current_trial": 42, "trialdata": {"rt": 11069, "trial_type": "text", "internal_node_id": "0.0-33.0", "time_elapsed": 207019, "key_press": 32, "type": "INSTRUCTIONS", "trial_index": 42}, "uniqueid": "MTK1584:3HHRAGRYX9C7FF18BFK8F7HG5RDO9H", "dateTime": 1516042813981}, {"current_trial": 43, "trialdata": {"rt": [2446, 4366, 8055, 10477, 12101, 14229, 16621], "trial_type": "math-distractor", "key_times": [1990, 2207, 2446, 3918, 4126, 4366, 7646, 7798, 8055, 10166, 10477, 11830, 12101, 13870, 14014, 14229, 16230, 16374, 16621], "responses": ["20", "20", "23", "8", "7", "12", "16"], "num2": [8, 9, 5, 1, 1, 2, 8, 1], "num3": [4, 2, 9, 3, 2, 4, 3, 9], "conditions": [18, 1200, "a", 18000], "internal_node_id": "0.0-34.0", "key_presses": [98, 96, 13, 98, 96, 13, 98, 99, 13, 104, 13, 103, 13, 97, 98, 13, 97, 102, 13], "trial": 1, "time_elapsed": 227024, "type": "DISTRACTOR", "trial_index": 43, "num1": [8, 9, 7, 3, 4, 6, 5, 8]}, "uniqueid": "MTK1584:3HHRAGRYX9C7FF18BFK8F7HG5RDO9H", "dateTime": 1516042833986}, {"current_trial": 44, "trialdata": {"rt": -1, "trial_type": "single-stim", "stimulus": "<p id=\"stim\">10</p>", "internal_node_id": "0.0-35.0-0.0", "time_elapsed": 230026, "key_press": -1, "trial_index": 44}, "uniqueid": "MTK1584:3HHRAGRYX9C7FF18BFK8F7HG5RDO9H", "dateTime": 1516042836988}, {"current_trial": 45, "trialdata": {"rt": -1, "trial_type": "single-stim", "stimulus": "<p id=\"stim\">9</p>", "internal_node_id": "0.0-35.0-1.0", "time_elapsed": 231028, "key_press": -1, "trial_index": 45}, "uniqueid": "MTK1584:3HHRAGRYX9C7FF18BFK8F7HG5RDO9H", "dateTime": 1516042837991}, {"current_trial": 46, "trialdata": {"rt": -1, "trial_type": "single-stim", "stimulus": "<p id=\"stim\">8</p>", "internal_node_id": "0.0-35.0-2.0", "time_elapsed": 232029, "key_press": -1, "trial_index": 46}, "uniqueid": "MTK1584:3HHRAGRYX9C7FF18BFK8F7HG5RDO9H", "dateTime": 1516042838992}, {"current_trial": 47, "trialdata": {"rt": -1, "trial_type": "single-stim", "stimulus": "<p id=\"stim\">7</p>", "internal_node_id": "0.0-35.0-3.0", "time_elapsed": 233030, "key_press": -1, "trial_index": 47}, "uniqueid": "MTK1584:3HHRAGRYX9C7FF18BFK8F7HG5RDO9H", "dateTime": 1516042839993}, {"current_trial": 48, "trialdata": {"rt": -1, "trial_type": "single-stim", "stimulus": "<p id=\"stim\">6</p>", "internal_node_id": "0.0-35.0-4.0", "time_elapsed": 234031, "key_press": -1, "trial_index": 48}, "uniqueid": "MTK1584:3HHRAGRYX9C7FF18BFK8F7HG5RDO9H", "dateTime": 1516042840993}, {"current_trial": 49, "trialdata": {"rt": -1, "trial_type": "single-stim", "stimulus": "<p id=\"stim\">5</p>", "internal_node_id": "0.0-35.0-5.0", "time_elapsed": 235032, "key_press": -1, "trial_index": 49}, "uniqueid": "MTK1584:3HHRAGRYX9C7FF18BFK8F7HG5RDO9H", "dateTime": 1516042841994}, {"current_trial": 50, "trialdata": {"rt": -1, "trial_type": "single-stim", "stimulus": "<p id=\"stim\">4</p>", "internal_node_id": "0.0-35.0-6.0", "time_elapsed": 236032, "key_press": -1, "trial_index": 50}, "uniqueid": "MTK1584:3HHRAGRYX9C7FF18BFK8F7HG5RDO9H", "dateTime": 1516042842995}, {"current_trial": 51, "trialdata": {"rt": -1, "trial_type": "single-stim", "stimulus": "<p id=\"stim\">3</p>", "internal_node_id": "0.0-35.0-7.0", "time_elapsed": 237033, "key_press": -1, "trial_index": 51}, "uniqueid": "MTK1584:3HHRAGRYX9C7FF18BFK8F7HG5RDO9H", "dateTime": 1516042843996}, {"current_trial": 52, "trialdata": {"rt": -1, "trial_type": "single-stim", "stimulus": "<p id=\"stim\">2</p>", "internal_node_id": "0.0-35.0-8.0", "time_elapsed": 238035, "key_press": -1, "trial_index": 52}, "uniqueid": "MTK1584:3HHRAGRYX9C7FF18BFK8F7HG5RDO9H", "dateTime": 1516042844998}, {"current_trial": 53, "trialdata": {"rt": -1, "trial_type": "single-stim", "stimulus": "<p id=\"stim\">1</p>", "internal_node_id": "0.0-35.0-9.0", "time_elapsed": 239036, "key_press": -1, "trial_index": 53}, "uniqueid": "MTK1584:3HHRAGRYX9C7FF18BFK8F7HG5RDO9H", "dateTime": 1516042845999}, {"current_trial": 54, "trialdata": {"rt": -1, "trial_type": "single-stim", "stimulus": "<p id=\"stim\">+</p>", "internal_node_id": "0.0-36.0-0.0", "time_elapsed": 240537, "key_press": -1, "type": "FIXATION", "trial_index": 54}, "uniqueid": "MTK1584:3HHRAGRYX9C7FF18BFK8F7HG5RDO9H", "dateTime": 1516042847499}, {"current_trial": 55, "trialdata": {"rt": -1000, "trial_type": "single-audio", "word": "egypt", "stimulus": "/static/audio/wordpool/EGYPT.wav", "conditions": [18, 1200, "a", 18000], "internal_node_id": "0.0-37.0", "trial": 1, "time_elapsed": 242619, "serialpos": 0, "key_press": -1, "wordID": 518, "type": "PRES_AUD", "trial_index": 55}, "uniqueid": "MTK1584:3HHRAGRYX9C7FF18BFK8F7HG5RDO9H", "dateTime": 1516042849581}, {"current_trial": 56, "trialdata": {"rt": -1000, "trial_type": "single-audio", "word": "novel", "stimulus": "/static/audio/wordpool/NOVEL.wav", "conditions": [18, 1200, "a", 18000], "internal_node_id": "0.0-38.0", "trial": 1, "time_elapsed": 244890, "serialpos": 1, "key_press": -1, "wordID": 959, "type": "PRES_AUD", "trial_index": 56}, "uniqueid": "MTK1584:3HHRAGRYX9C7FF18BFK8F7HG5RDO9H", "dateTime": 1516042851852}, {"current_trial": 57, "trialdata": {"rt": -1000, "trial_type": "single-audio", "word": "salt", "stimulus": "/static/audio/wordpool/SALT.wav", "conditions": [18, 1200, "a", 18000], "internal_node_id": "0.0-39.0", "trial": 1, "time_elapsed": 247038, "serialpos": 2, "key_press": -1, "wordID": 1228, "type": "PRES_AUD", "trial_index": 57}, "uniqueid": "MTK1584:3HHRAGRYX9C7FF18BFK8F7HG5RDO9H", "dateTime": 1516042854000}, {"current_trial": 58, "trialdata": {"rt": -1000, "trial_type": "single-audio", "word": "forest", "stimulus": "/static/audio/wordpool/FOREST.wav", "conditions": [18, 1200, "a", 18000], "internal_node_id": "0.0-40.0", "trial": 1, "time_elapsed": 249183, "serialpos": 3, "key_press": -1, "wordID": 592, "type": "PRES_AUD", "trial_index": 58}, "uniqueid": "MTK1584:3HHRAGRYX9C7FF18BFK8F7HG5RDO9H", "dateTime": 1516042856146}, {"current_trial": 59, "trialdata": {"rt": -1000, "trial_type": "single-audio", "word": "plaza", "stimulus": "/static/audio/wordpool/PLAZA.wav", "conditions": [18, 1200, "a", 18000], "internal_node_id": "0.0-41.0", "trial": 1, "time_elapsed": 251287, "serialpos": 4, "key_press": -1, "wordID": 1087, "type": "PRES_AUD", "trial_index": 59}, "uniqueid": "MTK1584:3HHRAGRYX9C7FF18BFK8F7HG5RDO9H", "dateTime": 1516042858249}, {"current_trial": 60, "trialdata": {"rt": -1000, "trial_type": "single-audio", "word": "sketch", "stimulus": "/static/audio/wordpool/SKETCH.wav", "conditions": [18, 1200, "a", 18000], "internal_node_id": "0.0-42.0", "trial": 1, "time_elapsed": 253414, "serialpos": 5, "key_press": -1, "wordID": 1314, "type": "PRES_AUD", "trial_index": 60}, "uniqueid": "MTK1584:3HHRAGRYX9C7FF18BFK8F7HG5RDO9H", "dateTime": 1516042860376}, {"current_trial": 61, "trialdata": {"rt": -1000, "trial_type": "single-audio", "word": "goblin", "stimulus": "/static/audio/wordpool/GOBLIN.wav", "conditions": [18, 1200, "a", 18000], "internal_node_id": "0.0-43.0", "trial": 1, "time_elapsed": 255601, "serialpos": 6, "key_press": -1, "wordID": 644, "type": "PRES_AUD", "trial_index": 61}, "uniqueid": "MTK1584:3HHRAGRYX9C7FF18BFK8F7HG5RDO9H", "dateTime": 1516042862563}, {"current_trial": 62, "trialdata": {"rt": -1000, "trial_type": "single-audio", "word": "pluto", "stimulus": "/static/audio/wordpool/PLUTO.wav", "conditions": [18, 1200, "a", 18000], "internal_node_id": "0.0-44.0", "trial": 1, "time_elapsed": 257688, "serialpos": 7, "key_press": -1, "wordID": 1091, "type": "PRES_AUD", "trial_index": 62}, "uniqueid": "MTK1584:3HHRAGRYX9C7FF18BFK8F7HG5RDO9H", "dateTime": 1516042864651}, {"current_trial": 63, "trialdata": {"rt": -1000, "trial_type": "single-audio", "word": "leopard", "stimulus": "/static/audio/wordpool/LEOPARD.wav", "conditions": [18, 1200, "a", 18000], "internal_node_id": "0.0-45.0", "trial": 1, "time_elapsed": 259934, "serialpos": 8, "key_press": -1, "wordID": 811, "type": "PRES_AUD", "trial_index": 63}, "uniqueid": "MTK1584:3HHRAGRYX9C7FF18BFK8F7HG5RDO9H", "dateTime": 1516042866896}, {"current_trial": 64, "trialdata": {"rt": -1000, "trial_type": "single-audio", "word": "beast", "stimulus": "/static/audio/wordpool/BEAST.wav", "conditions": [18, 1200, "a", 18000], "internal_node_id": "0.0-46.0", "trial": 1, "time_elapsed": 262226, "serialpos": 9, "key_press": -1, "wordID": 107, "type": "PRES_AUD", "trial_index": 64}, "uniqueid": "MTK1584:3HHRAGRYX9C7FF18BFK8F7HG5RDO9H", "dateTime": 1516042869188}, {"current_trial": 65, "trialdata": {"rt": -1000, "trial_type": "single-audio", "word": "hamper", "stimulus": "/static/audio/wordpool/HAMPER.wav", "conditions": [18, 1200, "a", 18000], "internal_node_id": "0.0-47.0", "trial": 1, "time_elapsed": 264307, "serialpos": 10, "key_press": -1, "wordID": 681, "type": "PRES_AUD", "trial_index": 65}, "uniqueid": "MTK1584:3HHRAGRYX9C7FF18BFK8F7HG5RDO9H", "dateTime": 1516042871270}, {"current_trial": 66, "trialdata": {"rt": -1000, "trial_type": "single-audio", "word": "pistol", "stimulus": "/static/audio/wordpool/PISTOL.wav", "conditions": [18, 1200, "a", 18000], "internal_node_id": "0.0-48.0", "trial": 1, "time_elapsed": 266369, "serialpos": 11, "key_press": -1, "wordID": 1074, "type": "PRES_AUD", "trial_index": 66}, "uniqueid": "MTK1584:3HHRAGRYX9C7FF18BFK8F7HG5RDO9H", "dateTime": 1516042873331}, {"current_trial": 67, "trialdata": {"rt": -1000, "trial_type": "single-audio", "word": "fireman", "stimulus": "/static/audio/wordpool/FIREMAN.wav", "conditions": [18, 1200, "a", 18000], "internal_node_id": "0.0-49.0", "trial": 1, "time_elapsed": 268701, "serialpos": 12, "key_press": -1, "wordID": 568, "type": "PRES_AUD", "trial_index": 67}, "uniqueid": "MTK1584:3HHRAGRYX9C7FF18BFK8F7HG5RDO9H", "dateTime": 1516042875663}, {"current_trial": 68, "trialdata": {"rt": -1000, "trial_type": "single-audio", "word": "outfit", "stimulus": "/static/audio/wordpool/OUTFIT.wav", "conditions": [18, 1200, "a", 18000], "internal_node_id": "0.0-50.0", "trial": 1, "time_elapsed": 270853, "serialpos": 13, "key_press": -1, "wordID": 987, "type": "PRES_AUD", "trial_index": 68}, "uniqueid": "MTK1584:3HHRAGRYX9C7FF18BFK8F7HG5RDO9H", "dateTime": 1516042877820}, {"current_trial": 69, "trialdata": {"rt": -1000, "trial_type": "single-audio", "word": "pebble", "stimulus": "/static/audio/wordpool/PEBBLE.wav", "conditions": [18, 1200, "a", 18000], "internal_node_id": "0.0-51.0", "trial": 1, "time_elapsed": 273037, "serialpos": 14, "key_press": -1, "wordID": 1034, "type": "PRES_AUD", "trial_index": 69}, "uniqueid": "MTK1584:3HHRAGRYX9C7FF18BFK8F7HG5RDO9H", "dateTime": 1516042879999}, {"current_trial": 70, "trialdata": {"rt": -1000, "trial_type": "single-audio", "word": "trout", "stimulus": "/static/audio/wordpool/TROUT.wav", "conditions": [18, 1200, "a", 18000], "internal_node_id": "0.0-52.0", "trial": 1, "time_elapsed": 275364, "serialpos": 15, "key_press": -1, "wordID": 1510, "type": "PRES_AUD", "trial_index": 70}, "uniqueid": "MTK1584:3HHRAGRYX9C7FF18BFK8F7HG5RDO9H", "dateTime": 1516042882326}, {"current_trial": 71, "trialdata": {"rt": -1000, "trial_type": "single-audio", "word": "survey", "stimulus": "/static/audio/wordpool/SURVEY.wav", "conditions": [18, 1200, "a", 18000], "internal_node_id": "0.0-53.0", "trial": 1, "time_elapsed": 277459, "serialpos": 16, "key_press": -1, "wordID": 1413, "type": "PRES_AUD", "trial_index": 71}, "uniqueid": "MTK1584:3HHRAGRYX9C7FF18BFK8F7HG5RDO9H", "dateTime": 1516042884421}, {"current_trial": 72, "trialdata": {"rt": -1000, "trial_type": "single-audio", "word": "slope", "stimulus": "/static/audio/wordpool/SLOPE.wav", "conditions": [18, 1200, "a", 18000], "internal_node_id": "0.0-54.0", "trial": 1, "time_elapsed": 279572, "serialpos": 17, "key_press": -1, "wordID": 1327, "type": "PRES_AUD", "trial_index": 72}, "uniqueid": "MTK1584:3HHRAGRYX9C7FF18BFK8F7HG5RDO9H", "dateTime": 1516042886534}, {"current_trial": 73, "trialdata": {"rt": -1, "trial_type": "single-stim", "stimulus": "", "internal_node_id": "0.0-55.0-0.0", "time_elapsed": 280817, "key_press": -1, "type": "PRE_RECALL_DELAY", "trial_index": 73}, "uniqueid": "MTK1584:3HHRAGRYX9C7FF18BFK8F7HG5RDO9H", "dateTime": 1516042887779}, {"current_trial": 74, "trialdata": {"rt": -1000, "trial_type": "single-audio", "stimulus": "/static/audio/400Hz.wav", "internal_node_id": "0.0-56.0", "time_elapsed": 281328, "key_press": -1, "type": "PRE_RECALL_ALERT", "trial_index": 74}, "uniqueid": "MTK1584:3HHRAGRYX9C7FF18BFK8F7HG5RDO9H", "dateTime": 1516042888290}, {"current_trial": 75, "trialdata": {"rt": [1550, 4230, 7582, 10878, 52093], "recwords": ["clock", "survey", "pebble", "egypt", "goblin"], "key_times": [479, 583, 772, 965, 1159, 1550, 3023, 3166, 3294, 3529, 3687, 3815, 4230, 6383, 6503, 6799, 6975, 7119, 7278, 7582, 8814, 9150, 9638, 10270, 10422, 10878, 49007, 49197, 50062, 50222, 50542, 50877, 51030, 51406, 51574, 51742, 52093, 57789, 57949], "trial_type": "free-recall", "conditions": [18, 1200, "a", 18000], "internal_node_id": "0.0-57.0-0.0", "key_presses": [67, 76, 79, 67, 75, 13, 83, 85, 82, 86, 69, 89, 13, 80, 69, 66, 66, 76, 69, 13, 69, 71, 89, 80, 84, 13, 84, 79, 8, 8, 71, 79, 66, 76, 73, 78, 13, 78, 79], "trial": 1, "time_elapsed": 341332, "type": "FREE_RECALL", "trial_index": 75}, "uniqueid": "MTK1584:3HHRAGRYX9C7FF18BFK8F7HG5RDO9H", "dateTime": 1516042948299}, {"current_trial": 76, "trialdata": {"rt": 3639, "trial_type": "text", "internal_node_id": "0.0-58.0", "time_elapsed": 346976, "key_press": 32, "type": "INSTRUCTIONS", "trial_index": 76}, "uniqueid": "MTK1584:3HHRAGRYX9C7FF18BFK8F7HG5RDO9H", "dateTime": 1516042953938}, {"current_trial": 77, "trialdata": {"rt": [2124, 4388, 6099, 8139], "trial_type": "math-distractor", "key_times": [1572, 1764, 2124, 3429, 4076, 4388, 5612, 5764, 6099, 7740, 7923, 8139, 11934], "responses": ["15", "20", "19", "14"], "num2": [8, 9, 9, 4, 4], "num3": [6, 2, 1, 8, 9], "conditions": [24, 800, "a", 12000], "internal_node_id": "0.0-59.0", "key_presses": [97, 101, 13, 98, 96, 13, 97, 105, 13, 97, 100, 13, 97], "trial": 2, "time_elapsed": 359982, "type": "DISTRACTOR", "trial_index": 77, "num1": [1, 9, 9, 2, 4]}, "uniqueid": "MTK1584:3HHRAGRYX9C7FF18BFK8F7HG5RDO9H", "dateTime": 1516042966944}, {"current_trial": 78, "trialdata": {"rt": -1, "trial_type": "single-stim", "stimulus": "<p id=\"stim\">10</p>", "internal_node_id": "0.0-60.0-0.0", "time_elapsed": 362983, "key_press": -1, "trial_index": 78}, "uniqueid": "MTK1584:3HHRAGRYX9C7FF18BFK8F7HG5RDO9H", "dateTime": 1516042969945}, {"current_trial": 79, "trialdata": {"rt": -1, "trial_type": "single-stim", "stimulus": "<p id=\"stim\">9</p>", "internal_node_id": "0.0-60.0-1.0", "time_elapsed": 363983, "key_press": -1, "trial_index": 79}, "uniqueid": "MTK1584:3HHRAGRYX9C7FF18BFK8F7HG5RDO9H", "dateTime": 1516042970946}, {"current_trial": 80, "trialdata": {"rt": -1, "trial_type": "single-stim", "stimulus": "<p id=\"stim\">8</p>", "internal_node_id": "0.0-60.0-2.0", "time_elapsed": 364985, "key_press": -1, "trial_index": 80}, "uniqueid": "MTK1584:3HHRAGRYX9C7FF18BFK8F7HG5RDO9H", "dateTime": 1516042971947}, {"current_trial": 81, "trialdata": {"rt": -1, "trial_type": "single-stim", "stimulus": "<p id=\"stim\">7</p>", "internal_node_id": "0.0-60.0-3.0", "time_elapsed": 365986, "key_press": -1, "trial_index": 81}, "uniqueid": "MTK1584:3HHRAGRYX9C7FF18BFK8F7HG5RDO9H", "dateTime": 1516042972948}, {"current_trial": 82, "trialdata": {"rt": -1, "trial_type": "single-stim", "stimulus": "<p id=\"stim\">6</p>", "internal_node_id": "0.0-60.0-4.0", "time_elapsed": 366987, "key_press": -1, "trial_index": 82}, "uniqueid": "MTK1584:3HHRAGRYX9C7FF18BFK8F7HG5RDO9H", "dateTime": 1516042973949}, {"current_trial": 83, "trialdata": {"rt": -1, "trial_type": "single-stim", "stimulus": "<p id=\"stim\">5</p>", "internal_node_id": "0.0-60.0-5.0", "time_elapsed": 367989, "key_press": -1, "trial_index": 83}, "uniqueid": "MTK1584:3HHRAGRYX9C7FF18BFK8F7HG5RDO9H", "dateTime": 1516042974951}, {"current_trial": 84, "trialdata": {"rt": -1, "trial_type": "single-stim", "stimulus": "<p id=\"stim\">4</p>", "internal_node_id": "0.0-60.0-6.0", "time_elapsed": 368989, "key_press": -1, "trial_index": 84}, "uniqueid": "MTK1584:3HHRAGRYX9C7FF18BFK8F7HG5RDO9H", "dateTime": 1516042975953}, {"current_trial": 85, "trialdata": {"rt": -1, "trial_type": "single-stim", "stimulus": "<p id=\"stim\">3</p>", "internal_node_id": "0.0-60.0-7.0", "time_elapsed": 369991, "key_press": -1, "trial_index": 85}, "uniqueid": "MTK1584:3HHRAGRYX9C7FF18BFK8F7HG5RDO9H", "dateTime": 1516042976954}, {"current_trial": 86, "trialdata": {"rt": -1, "trial_type": "single-stim", "stimulus": "<p id=\"stim\">2</p>", "internal_node_id": "0.0-60.0-8.0", "time_elapsed": 370993, "key_press": -1, "trial_index": 86}, "uniqueid": "MTK1584:3HHRAGRYX9C7FF18BFK8F7HG5RDO9H", "dateTime": 1516042977956}, {"current_trial": 87, "trialdata": {"rt": -1, "trial_type": "single-stim", "stimulus": "<p id=\"stim\">1</p>", "internal_node_id": "0.0-60.0-9.0", "time_elapsed": 371995, "key_press": -1, "trial_index": 87}, "uniqueid": "MTK1584:3HHRAGRYX9C7FF18BFK8F7HG5RDO9H", "dateTime": 1516042978957}, {"current_trial": 88, "trialdata": {"rt": -1, "trial_type": "single-stim", "stimulus": "<p id=\"stim\">+</p>", "internal_node_id": "0.0-61.0-0.0", "time_elapsed": 373496, "key_press": -1, "type": "FIXATION", "trial_index": 88}, "uniqueid": "MTK1584:3HHRAGRYX9C7FF18BFK8F7HG5RDO9H", "dateTime": 1516042980458}, {"current_trial": 89, "trialdata": {"rt": -1000, "trial_type": "single-audio", "word": "slide", "stimulus": "/static/audio/wordpool/SLIDE.wav", "conditions": [24, 800, "a", 12000], "internal_node_id": "0.0-62.0", "trial": 2, "time_elapsed": 375320, "serialpos": 0, "key_press": -1, "wordID": 1325, "type": "PRES_AUD", "trial_index": 89}, "uniqueid": "MTK1584:3HHRAGRYX9C7FF18BFK8F7HG5RDO9H", "dateTime": 1516042982282}, {"current_trial": 90, "trialdata": {"rt": -1000, "trial_type": "single-audio", "word": "europe", "stimulus": "/static/audio/wordpool/EUROPE.wav", "conditions": [24, 800, "a", 12000], "internal_node_id": "0.0-63.0", "trial": 2, "time_elapsed": 377194, "serialpos": 1, "key_press": -1, "wordID": 540, "type": "PRES_AUD", "trial_index": 90}, "uniqueid": "MTK1584:3HHRAGRYX9C7FF18BFK8F7HG5RDO9H", "dateTime": 1516042984156}, {"current_trial": 91, "trialdata": {"rt": -1000, "trial_type": "single-audio", "word": "padding", "stimulus": "/static/audio/wordpool/PADDING.wav", "conditions": [24, 800, "a", 12000], "internal_node_id": "0.0-64.0", "trial": 2, "time_elapsed": 378994, "serialpos": 2, "key_press": -1, "wordID": 998, "type": "PRES_AUD", "trial_index": 91}, "uniqueid": "MTK1584:3HHRAGRYX9C7FF18BFK8F7HG5RDO9H", "dateTime": 1516042985956}, {"current_trial": 92, "trialdata": {"rt": -1000, "trial_type": "single-audio", "word": "record", "stimulus": "/static/audio/wordpool/RECORD.wav", "conditions": [24, 800, "a", 12000], "internal_node_id": "0.0-65.0", "trial": 2, "time_elapsed": 380842, "serialpos": 3, "key_press": -1, "wordID": 1175, "type": "PRES_AUD", "trial_index": 92}, "uniqueid": "MTK1584:3HHRAGRYX9C7FF18BFK8F7HG5RDO9H", "dateTime": 1516042987804}, {"current_trial": 93, "trialdata": {"rt": -1000, "trial_type": "single-audio", "word": "husband", "stimulus": "/static/audio/wordpool/HUSBAND.wav", "conditions": [24, 800, "a", 12000], "internal_node_id": "0.0-66.0", "trial": 2, "time_elapsed": 382445, "serialpos": 4, "key_press": -1, "wordID": 727, "type": "PRES_AUD", "trial_index": 93}, "uniqueid": "MTK1584:3HHRAGRYX9C7FF18BFK8F7HG5RDO9H", "dateTime": 1516042989409}, {"current_trial": 94, "trialdata": {"rt": -1000, "trial_type": "single-audio", "word": "crib", "stimulus": "/static/audio/wordpool/CRIB.wav", "conditions": [24, 800, "a", 12000], "internal_node_id": "0.0-67.0", "trial": 2, "time_elapsed": 384063, "serialpos": 5, "key_press": -1, "wordID": 406, "type": "PRES_AUD", "trial_index": 94}, "uniqueid": "MTK1584:3HHRAGRYX9C7FF18BFK8F7HG5RDO9H", "dateTime": 1516042991025}, {"current_trial": 95, "trialdata": {"rt": -1000, "trial_type": "single-audio", "word": "onion", "stimulus": "/static/audio/wordpool/ONION.wav", "conditions": [24, 800, "a", 12000], "internal_node_id": "0.0-68.0", "trial": 2, "time_elapsed": 385882, "serialpos": 6, "key_press": -1, "wordID": 976, "type": "PRES_AUD", "trial_index": 95}, "uniqueid": "MTK1584:3HHRAGRYX9C7FF18BFK8F7HG5RDO9H", "dateTime": 1516042992845}, {"current_trial": 96, "trialdata": {"rt": -1000, "trial_type": "single-audio", "word": "pepper", "stimulus": "/static/audio/wordpool/PEPPER.wav", "conditions": [24, 800, "a", 12000], "internal_node_id": "0.0-69.0", "trial": 2, "time_elapsed": 387561, "serialpos": 7, "key_press": -1, "wordID": 1046, "type": "PRES_AUD", "trial_index": 96}, "uniqueid": "MTK1584:3HHRAGRYX9C7FF18BFK8F7HG5RDO9H", "dateTime": 1516042994523}, {"current_trial": 97, "trialdata": {"rt": -1000, "trial_type": "single-audio", "word": "wrench", "stimulus": "/static/audio/wordpool/WRENCH.wav", "conditions": [24, 800, "a", 12000], "internal_node_id": "0.0-70.0", "trial": 2, "time_elapsed": 389544, "serialpos": 8, "key_press": -1, "wordID": 1624, "type": "PRES_AUD", "trial_index": 97}, "uniqueid": "MTK1584:3HHRAGRYX9C7FF18BFK8F7HG5RDO9H", "dateTime": 1516042996506}, {"current_trial": 98, "trialdata": {"rt": -1000, "trial_type": "single-audio", "word": "airplane", "stimulus": "/static/audio/wordpool/AIRPLANE.wav", "conditions": [24, 800, "a", 12000], "internal_node_id": "0.0-71.0", "trial": 2, "time_elapsed": 391473, "serialpos": 9, "key_press": -1, "wordID": 11, "type": "PRES_AUD", "trial_index": 98}, "uniqueid": "MTK1584:3HHRAGRYX9C7FF18BFK8F7HG5RDO9H", "dateTime": 1516042998435}, {"current_trial": 99, "trialdata": {"rt": -1000, "trial_type": "single-audio", "word": "eagle", "stimulus": "/static/audio/wordpool/EAGLE.wav", "conditions": [24, 800, "a", 12000], "internal_node_id": "0.0-72.0", "trial": 2, "time_elapsed": 393313, "serialpos": 10, "key_press": -1, "wordID": 511, "type": "PRES_AUD", "trial_index": 99}, "uniqueid": "MTK1584:3HHRAGRYX9C7FF18BFK8F7HG5RDO9H", "dateTime": 1516043000275}, {"current_trial": 100, "trialdata": {"rt": -1000, "trial_type": "single-audio", "word": "japan", "stimulus": "/static/audio/wordpool/JAPAN.wav", "conditions": [24, 800, "a", 12000], "internal_node_id": "0.0-73.0", "trial": 2, "time_elapsed": 395152, "serialpos": 11, "key_press": -1, "wordID": 748, "type": "PRES_AUD", "trial_index": 100}, "uniqueid": "MTK1584:3HHRAGRYX9C7FF18BFK8F7HG5RDO9H", "dateTime": 1516043002114}, {"current_trial": 101, "trialdata": {"rt": -1000, "trial_type": "single-audio", "word": "fiddle", "stimulus": "/static/audio/wordpool/FIDDLE.wav", "conditions": [24, 800, "a", 12000], "internal_node_id": "0.0-74.0", "trial": 2, "time_elapsed": 396933, "serialpos": 12, "key_press": -1, "wordID": 560, "type": "PRES_AUD", "trial_index": 101}, "uniqueid": "MTK1584:3HHRAGRYX9C7FF18BFK8F7HG5RDO9H", "dateTime": 1516043003895}, {"current_trial": 102, "trialdata": {"rt": -1000, "trial_type": "single-audio", "word": "ozone", "stimulus": "/static/audio/wordpool/OZONE.wav", "conditions": [24, 800, "a", 12000], "internal_node_id": "0.0-75.0", "trial": 2, "time_elapsed": 398536, "serialpos": 13, "key_press": -1, "wordID": 995, "type": "PRES_AUD", "trial_index": 102}, "uniqueid": "MTK1584:3HHRAGRYX9C7FF18BFK8F7HG5RDO9H", "dateTime": 1516043005498}, {"current_trial": 103, "trialdata": {"rt": -1000, "trial_type": "single-audio", "word": "smog", "stimulus": "/static/audio/wordpool/SMOG.wav", "conditions": [24, 800, "a", 12000], "internal_node_id": "0.0-76.0", "trial": 2, "time_elapsed": 400189, "serialpos": 14, "key_press": -1, "wordID": 1329, "type": "PRES_AUD", "trial_index": 103}, "uniqueid": "MTK1584:3HHRAGRYX9C7FF18BFK8F7HG5RDO9H", "dateTime": 1516043007151}, {"current_trial": 104, "trialdata": {"rt": -1000, "trial_type": "single-audio", "word": "mattress", "stimulus": "/static/audio/wordpool/MATTRESS.wav", "conditions": [24, 800, "a", 12000], "internal_node_id": "0.0-77.0", "trial": 2, "time_elapsed": 401800, "serialpos": 15, "key_press": -1, "wordID": 878, "type": "PRES_AUD", "trial_index": 104}, "uniqueid": "MTK1584:3HHRAGRYX9C7FF18BFK8F7HG5RDO9H", "dateTime": 1516043008762}, {"current_trial": 105, "trialdata": {"rt": -1000, "trial_type": "single-audio", "word": "headband", "stimulus": "/static/audio/wordpool/HEADBAND.wav", "conditions": [24, 800, "a", 12000], "internal_node_id": "0.0-78.0", "trial": 2, "time_elapsed": 403552, "serialpos": 16, "key_press": -1, "wordID": 695, "type": "PRES_AUD", "trial_index": 105}, "uniqueid": "MTK1584:3HHRAGRYX9C7FF18BFK8F7HG5RDO9H", "dateTime": 1516043010514}, {"current_trial": 106, "trialdata": {"rt": -1000, "trial_type": "single-audio", "word": "possum", "stimulus": "/static/audio/wordpool/POSSUM.wav", "conditions": [24, 800, "a", 12000], "internal_node_id": "0.0-79.0", "trial": 2, "time_elapsed": 405246, "serialpos": 17, "key_press": -1, "wordID": 1111, "type": "PRES_AUD", "trial_index": 106}, "uniqueid": "MTK1584:3HHRAGRYX9C7FF18BFK8F7HG5RDO9H", "dateTime": 1516043012208}, {"current_trial": 107, "trialdata": {"rt": -1000, "trial_type": "single-audio", "word": "sunrise", "stimulus": "/static/audio/wordpool/SUNRISE.wav", "conditions": [24, 800, "a", 12000], "internal_node_id": "0.0-80.0", "trial": 2, "time_elapsed": 406970, "serialpos": 18, "key_press": -1, "wordID": 1406, "type": "PRES_AUD", "trial_index": 107}, "uniqueid": "MTK1584:3HHRAGRYX9C7FF18BFK8F7HG5RDO9H", "dateTime": 1516043013932}, {"current_trial": 108, "trialdata": {"rt": -1000, "trial_type": "single-audio", "word": "receipt", "stimulus": "/static/audio/wordpool/RECEIPT.wav", "conditions": [24, 800, "a", 12000], "internal_node_id": "0.0-81.0", "trial": 2, "time_elapsed": 408584, "serialpos": 19, "key_press": -1, "wordID": 1172, "type": "PRES_AUD", "trial_index": 108}, "uniqueid": "MTK1584:3HHRAGRYX9C7FF18BFK8F7HG5RDO9H", "dateTime": 1516043015546}, {"current_trial": 109, "trialdata": {"rt": -1000, "trial_type": "single-audio", "word": "mask", "stimulus": "/static/audio/wordpool/MASK.wav", "conditions": [24, 800, "a", 12000], "internal_node_id": "0.0-82.0", "trial": 2, "time_elapsed": 410540, "serialpos": 20, "key_press": -1, "wordID": 875, "type": "PRES_AUD", "trial_index": 109}, "uniqueid": "MTK1584:3HHRAGRYX9C7FF18BFK8F7HG5RDO9H", "dateTime": 1516043017502}, {"current_trial": 110, "trialdata": {"rt": -1000, "trial_type": "single-audio", "word": "gazelle", "stimulus": "/static/audio/wordpool/GAZELLE.wav", "conditions": [24, 800, "a", 12000], "internal_node_id": "0.0-83.0", "trial": 2, "time_elapsed": 412389, "serialpos": 21, "key_press": -1, "wordID": 627, "type": "PRES_AUD", "trial_index": 110}, "uniqueid": "MTK1584:3HHRAGRYX9C7FF18BFK8F7HG5RDO9H", "dateTime": 1516043019351}, {"current_trial": 111, "trialdata": {"rt": -1000, "trial_type": "single-audio", "word": "banjo", "stimulus": "/static/audio/wordpool/BANJO.wav", "conditions": [24, 800, "a", 12000], "internal_node_id": "0.0-84.0", "trial": 2, "time_elapsed": 414136, "serialpos": 22, "key_press": -1, "wordID": 81, "type": "PRES_AUD", "trial_index": 111}, "uniqueid": "MTK1584:3HHRAGRYX9C7FF18BFK8F7HG5RDO9H", "dateTime": 1516043021098}, {"current_trial": 112, "trialdata": {"rt": -1000, "trial_type": "single-audio", "word": "county", "stimulus": "/static/audio/wordpool/COUNTY.wav", "conditions": [24, 800, "a", 12000], "internal_node_id": "0.0-85.0", "trial": 2, "time_elapsed": 415771, "serialpos": 23, "key_press": -1, "wordID": 388, "type": "PRES_AUD", "trial_index": 112}, "uniqueid": "MTK1584:3HHRAGRYX9C7FF18BFK8F7HG5RDO9H", "dateTime": 1516043022733}, {"current_trial": 113, "trialdata": {"rt": -1, "trial_type": "single-stim", "stimulus": "", "internal_node_id": "0.0-86.0-0.0", "time_elapsed": 417139, "key_press": -1, "type": "PRE_RECALL_DELAY", "trial_index": 113}, "uniqueid": "MTK1584:3HHRAGRYX9C7FF18BFK8F7HG5RDO9H", "dateTime": 1516043024101}, {"current_trial": 114, "trialdata": {"rt": -1000, "trial_type": "single-audio", "stimulus": "/static/audio/400Hz.wav", "internal_node_id": "0.0-87.0", "time_elapsed": 417644, "key_press": -1, "type": "PRE_RECALL_ALERT", "trial_index": 114}, "uniqueid": "MTK1584:3HHRAGRYX9C7FF18BFK8F7HG5RDO9H", "dateTime": 1516043024606}, {"current_trial": 115, "trialdata": {"rt": [3240, 5688, 8207, 10415, 13247, 16895, 19679, 25375, 27343, 30415, 35111, 40819, 44455, 48680, 59302], "recwords": ["gazelle", "county", "ozone", "smog", "fly", "padding", "crib", "husband", "onion", "pepper", "headband", "eagle", "japan", "wrench", "county"], "key_times": [664, 840, 1544, 1944, 2328, 2504, 2697, 3240, 3648, 3832, 3920, 4208, 4696, 4928, 5688, 6656, 7016, 7160, 7367, 7512, 8207, 8688, 8824, 8976, 9552, 10415, 12001, 12304, 12495, 13247, 15552, 15704, 15928, 16088, 16216, 16376, 16520, 16895, 18456, 18696, 18831, 18992, 19679, 21839, 21991, 22136, 22351, 22527, 22664, 24831, 25375, 26104, 26415, 26592, 26719, 26991, 27343, 28295, 28503, 28759, 28927, 29023, 29191, 30415, 33368, 33455, 33583, 33751, 34087, 34263, 34407, 34583, 35111, 39631, 39800, 40031, 40215, 40327, 40819, 42191, 42391, 42607, 42879, 43071, 44455, 46351, 46663, 47135, 47455, 47687, 47775, 48680, 51327, 51423, 51543, 51799, 52175, 52367, 54496, 54671, 54798, 55750, 56175, 56439, 56567, 57239, 57414, 57567, 58319, 58527, 58750, 58903, 59302], "trial_type": "free-recall", "conditions": [24, 800, "a", 12000], "internal_node_id": "0.0-88.0-0.0", "key_presses": [71, 65, 90, 69, 76, 76, 69, 13, 67, 79, 85, 78, 84, 89, 13, 79, 90, 79, 78, 69, 13, 83, 77, 79, 71, 13, 70, 76, 89, 13, 80, 65, 68, 68, 73, 78, 71, 13, 67, 82, 73, 66, 13, 72, 85, 83, 66, 65, 78, 68, 13, 79, 78, 73, 79, 78, 13, 80, 69, 80, 80, 69, 82, 13, 72, 69, 65, 68, 66, 65, 78, 68, 13, 69, 65, 71, 76, 69, 13, 74, 65, 80, 65, 78, 13, 87, 82, 69, 78, 67, 72, 13, 67, 79, 85, 78, 84, 89, 8, 8, 8, 8, 78, 84, 89, 8, 8, 8, 85, 78, 84, 89, 13], "trial": 2, "time_elapsed": 477648, "type": "FREE_RECALL", "trial_index": 115}, "uniqueid": "MTK1584:3HHRAGRYX9C7FF18BFK8F7HG5RDO9H", "dateTime": 1516043084615}, {"current_trial": 116, "trialdata": {"rt": 1633, "trial_type": "text", "internal_node_id": "0.0-89.0", "time_elapsed": 481287, "key_press": 32, "type": "INSTRUCTIONS", "trial_index": 116}, "uniqueid": "MTK1584:3HHRAGRYX9C7FF18BFK8F7HG5RDO9H", "dateTime": 1516043088249}, {"current_trial": 117, "trialdata": {"rt": [1259, 2539, 3843, 5259, 7339, 9469, 12763, 14979, 16579, 18491, 21491, 23411], "trial_type": "math-distractor", "key_times": [997, 1259, 2276, 2539, 3508, 3843, 4907, 5059, 5259, 6915, 7076, 7339, 9107, 9243, 9469, 12396, 12539, 12763, 14570, 14762, 14979, 16203, 16339, 16579, 18107, 18227, 18491, 21083, 21243, 21491, 23068, 23411], "responses": ["8", "9", "3", "11", "18", "12", "15", "14", "16", "12", "13", "9"], "num2": [2, 3, 1, 6, 6, 1, 6, 6, 1, 7, 1, 3, 7], "num3": [1, 3, 1, 1, 2, 6, 2, 5, 9, 4, 7, 4, 2], "conditions": [12, 800, "a", 24000], "internal_node_id": "0.0-90.0", "key_presses": [104, 13, 105, 13, 99, 13, 97, 97, 13, 97, 104, 13, 97, 98, 13, 97, 101, 13, 97, 100, 13, 97, 102, 13, 97, 98, 13, 97, 99, 13, 105, 13], "trial": 3, "time_elapsed": 507290, "type": "DISTRACTOR", "trial_index": 117, "num1": [5, 3, 1, 4, 9, 5, 7, 3, 6, 1, 5, 2, 2]}, "uniqueid": "MTK1584:3HHRAGRYX9C7FF18BFK8F7HG5RDO9H", "dateTime": 1516043114252}, {"current_trial": 118, "trialdata": {"rt": -1, "trial_type": "single-stim", "stimulus": "<p id=\"stim\">10</p>", "internal_node_id": "0.0-91.0-0.0", "time_elapsed": 510291, "key_press": -1, "trial_index": 118}, "uniqueid": "MTK1584:3HHRAGRYX9C7FF18BFK8F7HG5RDO9H", "dateTime": 1516043117254}, {"current_trial": 119, "trialdata": {"rt": -1, "trial_type": "single-stim", "stimulus": "<p id=\"stim\">9</p>", "internal_node_id": "0.0-91.0-1.0", "time_elapsed": 511293, "key_press": -1, "trial_index": 119}, "uniqueid": "MTK1584:3HHRAGRYX9C7FF18BFK8F7HG5RDO9H", "dateTime": 1516043118256}, {"current_trial": 120, "trialdata": {"rt": -1, "trial_type": "single-stim", "stimulus": "<p id=\"stim\">8</p>", "internal_node_id": "0.0-91.0-2.0", "time_elapsed": 512294, "key_press": -1, "trial_index": 120}, "uniqueid": "MTK1584:3HHRAGRYX9C7FF18BFK8F7HG5RDO9H", "dateTime": 1516043119257}, {"current_trial": 121, "trialdata": {"rt": -1, "trial_type": "single-stim", "stimulus": "<p id=\"stim\">7</p>", "internal_node_id": "0.0-91.0-3.0", "time_elapsed": 513296, "key_press": -1, "trial_index": 121}, "uniqueid": "MTK1584:3HHRAGRYX9C7FF18BFK8F7HG5RDO9H", "dateTime": 1516043120258}, {"current_trial": 122, "trialdata": {"rt": -1, "trial_type": "single-stim", "stimulus": "<p id=\"stim\">6</p>", "internal_node_id": "0.0-91.0-4.0", "time_elapsed": 514296, "key_press": -1, "trial_index": 122}, "uniqueid": "MTK1584:3HHRAGRYX9C7FF18BFK8F7HG5RDO9H", "dateTime": 1516043121258}, {"current_trial": 123, "trialdata": {"rt": -1, "trial_type": "single-stim", "stimulus": "<p id=\"stim\">5</p>", "internal_node_id": "0.0-91.0-5.0", "time_elapsed": 515297, "key_press": -1, "trial_index": 123}, "uniqueid": "MTK1584:3HHRAGRYX9C7FF18BFK8F7HG5RDO9H", "dateTime": 1516043122259}, {"current_trial": 124, "trialdata": {"rt": -1, "trial_type": "single-stim", "stimulus": "<p id=\"stim\">4</p>", "internal_node_id": "0.0-91.0-6.0", "time_elapsed": 516298, "key_press": -1, "trial_index": 124}, "uniqueid": "MTK1584:3HHRAGRYX9C7FF18BFK8F7HG5RDO9H", "dateTime": 1516043123261}, {"current_trial": 125, "trialdata": {"rt": -1, "trial_type": "single-stim", "stimulus": "<p id=\"stim\">3</p>", "internal_node_id": "0.0-91.0-7.0", "time_elapsed": 517299, "key_press": -1, "trial_index": 125}, "uniqueid": "MTK1584:3HHRAGRYX9C7FF18BFK8F7HG5RDO9H", "dateTime": 1516043124262}, {"current_trial": 126, "trialdata": {"rt": -1, "trial_type": "single-stim", "stimulus": "<p id=\"stim\">2</p>", "internal_node_id": "0.0-91.0-8.0", "time_elapsed": 518300, "key_press": -1, "trial_index": 126}, "uniqueid": "MTK1584:3HHRAGRYX9C7FF18BFK8F7HG5RDO9H", "dateTime": 1516043125263}, {"current_trial": 127, "trialdata": {"rt": -1, "trial_type": "single-stim", "stimulus": "<p id=\"stim\">1</p>", "internal_node_id": "0.0-91.0-9.0", "time_elapsed": 519302, "key_press": -1, "trial_index": 127}, "uniqueid": "MTK1584:3HHRAGRYX9C7FF18BFK8F7HG5RDO9H", "dateTime": 1516043126264}, {"current_trial": 128, "trialdata": {"rt": -1, "trial_type": "single-stim", "stimulus": "<p id=\"stim\">+</p>", "internal_node_id": "0.0-92.0-0.0", "time_elapsed": 520803, "key_press": -1, "type": "FIXATION", "trial_index": 128}, "uniqueid": "MTK1584:3HHRAGRYX9C7FF18BFK8F7HG5RDO9H", "dateTime": 1516043127766}, {"current_trial": 129, "trialdata": {"rt": -1000, "trial_type": "single-audio", "word": "sticker", "stimulus": "/static/audio/wordpool/STICKER.wav", "conditions": [12, 800, "a", 24000], "internal_node_id": "0.0-93.0", "trial": 3, "time_elapsed": 522683, "serialpos": 0, "key_press": -1, "wordID": 1381, "type": "PRES_AUD", "trial_index": 129}, "uniqueid": "MTK1584:3HHRAGRYX9C7FF18BFK8F7HG5RDO9H", "dateTime": 1516043129645}, {"current_trial": 130, "trialdata": {"rt": -1000, "trial_type": "single-audio", "word": "badge", "stimulus": "/static/audio/wordpool/BADGE.wav", "conditions": [12, 800, "a", 24000], "internal_node_id": "0.0-94.0", "trial": 3, "time_elapsed": 524553, "serialpos": 1, "key_press": -1, "wordID": 67, "type": "PRES_AUD", "trial_index": 130}, "uniqueid": "MTK1584:3HHRAGRYX9C7FF18BFK8F7HG5RDO9H", "dateTime": 1516043131516}, {"current_trial": 131, "trialdata": {"rt": -1000, "trial_type": "single-audio", "word": "gangster", "stimulus": "/static/audio/wordpool/GANGSTER.wav", "conditions": [12, 800, "a", 24000], "internal_node_id": "0.0-95.0", "trial": 3, "time_elapsed": 526415, "serialpos": 2, "key_press": -1, "wordID": 619, "type": "PRES_AUD", "trial_index": 131}, "uniqueid": "MTK1584:3HHRAGRYX9C7FF18BFK8F7HG5RDO9H", "dateTime": 1516043133377}, {"current_trial": 132, "trialdata": {"rt": -1000, "trial_type": "single-audio", "word": "fox", "stimulus": "/static/audio/wordpool/FOX.wav", "conditions": [12, 800, "a", 24000], "internal_node_id": "0.0-96.0", "trial": 3, "time_elapsed": 528227, "serialpos": 3, "key_press": -1, "wordID": 597, "type": "PRES_AUD", "trial_index": 132}, "uniqueid": "MTK1584:3HHRAGRYX9C7FF18BFK8F7HG5RDO9H", "dateTime": 1516043135189}, {"current_trial": 133, "trialdata": {"rt": -1000, "trial_type": "single-audio", "word": "teacher", "stimulus": "/static/audio/wordpool/TEACHER.wav", "conditions": [12, 800, "a", 24000], "internal_node_id": "0.0-97.0", "trial": 3, "time_elapsed": 530193, "serialpos": 4, "key_press": -1, "wordID": 1439, "type": "PRES_AUD", "trial_index": 133}, "uniqueid": "MTK1584:3HHRAGRYX9C7FF18BFK8F7HG5RDO9H", "dateTime": 1516043137155}, {"current_trial": 134, "trialdata": {"rt": -1000, "trial_type": "single-audio", "word": "rabbit", "stimulus": "/static/audio/wordpool/RABBIT.wav", "conditions": [12, 800, "a", 24000], "internal_node_id": "0.0-98.0", "trial": 3, "time_elapsed": 531852, "serialpos": 5, "key_press": -1, "wordID": 1151, "type": "PRES_AUD", "trial_index": 134}, "uniqueid": "MTK1584:3HHRAGRYX9C7FF18BFK8F7HG5RDO9H", "dateTime": 1516043138814}, {"current_trial": 135, "trialdata": {"rt": -1000, "trial_type": "single-audio", "word": "cyclone", "stimulus": "/static/audio/wordpool/CYCLONE.wav", "conditions": [12, 800, "a", 24000], "internal_node_id": "0.0-99.0", "trial": 3, "time_elapsed": 533688, "serialpos": 6, "key_press": -1, "wordID": 430, "type": "PRES_AUD", "trial_index": 135}, "uniqueid": "MTK1584:3HHRAGRYX9C7FF18BFK8F7HG5RDO9H", "dateTime": 1516043140650}, {"current_trial": 136, "trialdata": {"rt": -1000, "trial_type": "single-audio", "word": "college", "stimulus": "/static/audio/wordpool/COLLEGE.wav", "conditions": [12, 800, "a", 24000], "internal_node_id": "0.0-100.0", "trial": 3, "time_elapsed": 535602, "serialpos": 7, "key_press": -1, "wordID": 345, "type": "PRES_AUD", "trial_index": 136}, "uniqueid": "MTK1584:3HHRAGRYX9C7FF18BFK8F7HG5RDO9H", "dateTime": 1516043142564}, {"current_trial": 137, "trialdata": {"rt": -1000, "trial_type": "single-audio", "word": "shrub", "stimulus": "/static/audio/wordpool/SHRUB.wav", "conditions": [12, 800, "a", 24000], "internal_node_id": "0.0-101.0", "trial": 3, "time_elapsed": 537531, "serialpos": 8, "key_press": -1, "wordID": 1298, "type": "PRES_AUD", "trial_index": 137}, "uniqueid": "MTK1584:3HHRAGRYX9C7FF18BFK8F7HG5RDO9H", "dateTime": 1516043144493}, {"current_trial": 138, "trialdata": {"rt": -1000, "trial_type": "single-audio", "word": "hiker", "stimulus": "/static/audio/wordpool/HIKER.wav", "conditions": [12, 800, "a", 24000], "internal_node_id": "0.0-102.0", "trial": 3, "time_elapsed": 539309, "serialpos": 9, "key_press": -1, "wordID": 707, "type": "PRES_AUD", "trial_index": 138}, "uniqueid": "MTK1584:3HHRAGRYX9C7FF18BFK8F7HG5RDO9H", "dateTime": 1516043146272}, {"current_trial": 139, "trialdata": {"rt": -1000, "trial_type": "single-audio", "word": "tortoise", "stimulus": "/static/audio/wordpool/TORTOISE.wav", "conditions": [12, 800, "a", 24000], "internal_node_id": "0.0-103.0", "trial": 3, "time_elapsed": 541132, "serialpos": 10, "key_press": -1, "wordID": 1485, "type": "PRES_AUD", "trial_index": 139}, "uniqueid": "MTK1584:3HHRAGRYX9C7FF18BFK8F7HG5RDO9H", "dateTime": 1516043148094}, {"current_trial": 140, "trialdata": {"rt": -1000, "trial_type": "single-audio", "word": "branch", "stimulus": "/static/audio/wordpool/BRANCH.wav", "conditions": [12, 800, "a", 24000], "internal_node_id": "0.0-104.0", "trial": 3, "time_elapsed": 543099, "serialpos": 11, "key_press": -1, "wordID": 167, "type": "PRES_AUD", "trial_index": 140}, "uniqueid": "MTK1584:3HHRAGRYX9C7FF18BFK8F7HG5RDO9H", "dateTime": 1516043150061}, {"current_trial": 141, "trialdata": {"rt": -1, "trial_type": "single-stim", "stimulus": "", "internal_node_id": "0.0-105.0-0.0", "time_elapsed": 544361, "key_press": -1, "type": "PRE_RECALL_DELAY", "trial_index": 141}, "uniqueid": "MTK1584:3HHRAGRYX9C7FF18BFK8F7HG5RDO9H", "dateTime": 1516043151323}, {"current_trial": 142, "trialdata": {"rt": -1000, "trial_type": "single-audio", "stimulus": "/static/audio/400Hz.wav", "internal_node_id": "0.0-106.0", "time_elapsed": 544863, "key_press": -1, "type": "PRE_RECALL_ALERT", "trial_index": 142}, "uniqueid": "MTK1584:3HHRAGRYX9C7FF18BFK8F7HG5RDO9H", "dateTime": 1516043151825}, {"current_trial": 143, "trialdata": {"rt": [1866, 4290, 13090, 16282, 20490, 22906, 28890, 34186, 37073, 40338, 44121, 46889, 49857, 54145], "recwords": ["french", "hicker", "sticker", "badge", "fox", "cyclone", "teacher", "cyclone", "holly", "scrubg", "onion", "pepper", "ozone", "fox"], "key_times": [507, 715, 890, 1042, 1258, 1362, 1866, 3099, 3218, 3426, 3674, 3787, 3946, 4290, 5779, 6034, 7218, 10218, 10411, 10587, 11962, 12202, 12362, 12522, 12690, 12794, 12930, 13090, 14042, 14394, 15162, 15474, 15626, 16282, 19002, 19930, 20106, 20490, 21139, 21275, 21537, 21698, 21882, 22050, 22178, 22906, 26137, 26346, 26530, 26798, 27002, 28441, 28561, 28890, 29242, 29450, 29770, 30026, 30468, 30602, 31827, 32002, 32178, 32330, 32618, 32810, 33002, 33161, 33353, 34186, 35274, 35444, 35721, 35866, 36114, 37073, 38562, 38770, 38985, 39154, 39290, 39298, 40338, 41505, 42411, 43073, 43289, 43466, 43593, 43841, 44121, 44921, 45147, 45617, 45777, 45929, 46097, 46889, 48673, 48761, 48921, 49105, 49241, 49857, 53234, 53385, 53505, 54145], "trial_type": "free-recall", "conditions": [12, 800, "a", 24000], "internal_node_id": "0.0-107.0-0.0", "key_presses": [70, 82, 69, 78, 67, 72, 13, 72, 73, 67, 75, 69, 82, 13, 83, 84, 73, 8, 8, 8, 83, 84, 73, 67, 75, 69, 82, 13, 66, 65, 68, 71, 69, 13, 70, 79, 88, 13, 67, 89, 67, 76, 79, 78, 69, 13, 84, 69, 65, 67, 72, 69, 82, 13, 67, 89, 76, 79, 78, 69, 8, 8, 8, 8, 67, 76, 79, 78, 69, 13, 72, 79, 76, 76, 89, 13, 83, 67, 82, 85, 66, 71, 13, 73, 8, 79, 78, 73, 79, 78, 13, 80, 69, 80, 80, 69, 82, 13, 79, 90, 79, 78, 69, 13, 70, 79, 88, 13], "trial": 3, "time_elapsed": 604866, "type": "FREE_RECALL", "trial_index": 143}, "uniqueid": "MTK1584:3HHRAGRYX9C7FF18BFK8F7HG5RDO9H", "dateTime": 1516043211833}, {"current_trial": 144, "trialdata": {"rt": 1539, "trial_type": "text", "internal_node_id": "0.0-108.0", "time_elapsed": 608411, "key_press": 32, "type": "INSTRUCTIONS", "trial_index": 144}, "uniqueid": "MTK1584:3HHRAGRYX9C7FF18BFK8F7HG5RDO9H", "dateTime": 1516043215373}, {"current_trial": 145, "trialdata": {"rt": [2108, 4141, 5989, 7820, 9724, 13836, 17692, 19348, 21164], "trial_type": "math-distractor", "key_times": [1277, 1397, 2108, 3653, 3877, 4141, 5645, 5773, 5989, 7413, 7508, 7820, 9325, 9477, 9724, 13364, 13564, 13836, 17276, 17428, 17692, 18917, 19045, 19348, 20821, 20965, 21164], "responses": ["12", "10", "11", "16", "16", "17", "19", "16", "12"], "num2": [2, 1, 4, 2, 8, 8, 7, 3, 3, 3], "num3": [3, 7, 3, 5, 6, 3, 8, 6, 8, 6], "conditions": [24, 800, "a", 24000], "internal_node_id": "0.0-109.0", "key_presses": [97, 98, 13, 97, 96, 13, 97, 97, 13, 97, 102, 13, 97, 102, 13, 97, 103, 13, 97, 105, 13, 97, 102, 13, 97, 98, 13], "trial": 4, "time_elapsed": 634414, "type": "DISTRACTOR", "trial_index": 145, "num1": [7, 2, 4, 9, 2, 6, 4, 7, 1, 9]}, "uniqueid": "MTK1584:3HHRAGRYX9C7FF18BFK8F7HG5RDO9H", "dateTime": 1516043241376}, {"current_trial": 146, "trialdata": {"rt": -1, "trial_type": "single-stim", "stimulus": "<p id=\"stim\">10</p>", "internal_node_id": "0.0-110.0-0.0", "time_elapsed": 637414, "key_press": -1, "trial_index": 146}, "uniqueid": "MTK1584:3HHRAGRYX9C7FF18BFK8F7HG5RDO9H", "dateTime": 1516043244376}, {"current_trial": 147, "trialdata": {"rt": -1, "trial_type": "single-stim", "stimulus": "<p id=\"stim\">9</p>", "internal_node_id": "0.0-110.0-1.0", "time_elapsed": 638415, "key_press": -1, "trial_index": 147}, "uniqueid": "MTK1584:3HHRAGRYX9C7FF18BFK8F7HG5RDO9H", "dateTime": 1516043245377}, {"current_trial": 148, "trialdata": {"rt": -1, "trial_type": "single-stim", "stimulus": "<p id=\"stim\">8</p>", "internal_node_id": "0.0-110.0-2.0", "time_elapsed": 639416, "key_press": -1, "trial_index": 148}, "uniqueid": "MTK1584:3HHRAGRYX9C7FF18BFK8F7HG5RDO9H", "dateTime": 1516043246378}, {"current_trial": 149, "trialdata": {"rt": -1, "trial_type": "single-stim", "stimulus": "<p id=\"stim\">7</p>", "internal_node_id": "0.0-110.0-3.0", "time_elapsed": 640418, "key_press": -1, "trial_index": 149}, "uniqueid": "MTK1584:3HHRAGRYX9C7FF18BFK8F7HG5RDO9H", "dateTime": 1516043247380}, {"current_trial": 150, "trialdata": {"rt": -1, "trial_type": "single-stim", "stimulus": "<p id=\"stim\">6</p>", "internal_node_id": "0.0-110.0-4.0", "time_elapsed": 641418, "key_press": -1, "trial_index": 150}, "uniqueid": "MTK1584:3HHRAGRYX9C7FF18BFK8F7HG5RDO9H", "dateTime": 1516043248380}, {"current_trial": 151, "trialdata": {"rt": -1, "trial_type": "single-stim", "stimulus": "<p id=\"stim\">5</p>", "internal_node_id": "0.0-110.0-5.0", "time_elapsed": 642419, "key_press": -1, "trial_index": 151}, "uniqueid": "MTK1584:3HHRAGRYX9C7FF18BFK8F7HG5RDO9H", "dateTime": 1516043249381}, {"current_trial": 152, "trialdata": {"rt": -1, "trial_type": "single-stim", "stimulus": "<p id=\"stim\">4</p>", "internal_node_id": "0.0-110.0-6.0", "time_elapsed": 643421, "key_press": -1, "trial_index": 152}, "uniqueid": "MTK1584:3HHRAGRYX9C7FF18BFK8F7HG5RDO9H", "dateTime": 1516043250383}, {"current_trial": 153, "trialdata": {"rt": -1, "trial_type": "single-stim", "stimulus": "<p id=\"stim\">3</p>", "internal_node_id": "0.0-110.0-7.0", "time_elapsed": 644422, "key_press": -1, "trial_index": 153}, "uniqueid": "MTK1584:3HHRAGRYX9C7FF18BFK8F7HG5RDO9H", "dateTime": 1516043251384}, {"current_trial": 154, "trialdata": {"rt": -1, "trial_type": "single-stim", "stimulus": "<p id=\"stim\">2</p>", "internal_node_id": "0.0-110.0-8.0", "time_elapsed": 645423, "key_press": -1, "trial_index": 154}, "uniqueid": "MTK1584:3HHRAGRYX9C7FF18BFK8F7HG5RDO9H", "dateTime": 1516043252386}, {"current_trial": 155, "trialdata": {"rt": -1, "trial_type": "single-stim", "stimulus": "<p id=\"stim\">1</p>", "internal_node_id": "0.0-110.0-9.0", "time_elapsed": 646425, "key_press": -1, "trial_index": 155}, "uniqueid": "MTK1584:3HHRAGRYX9C7FF18BFK8F7HG5RDO9H", "dateTime": 1516043253388}, {"current_trial": 156, "trialdata": {"rt": -1, "trial_type": "single-stim", "stimulus": "<p id=\"stim\">+</p>", "internal_node_id": "0.0-111.0-0.0", "time_elapsed": 647926, "key_press": -1, "type": "FIXATION", "trial_index": 156}, "uniqueid": "MTK1584:3HHRAGRYX9C7FF18BFK8F7HG5RDO9H", "dateTime": 1516043254889}, {"current_trial": 157, "trialdata": {"rt": -1000, "trial_type": "single-audio", "word": "bunny", "stimulus": "/static/audio/wordpool/BUNNY.wav", "conditions": [24, 800, "a", 24000], "internal_node_id": "0.0-112.0", "trial": 4, "time_elapsed": 649622, "serialpos": 0, "key_press": -1, "wordID": 197, "type": "PRES_AUD", "trial_index": 157}, "uniqueid": "MTK1584:3HHRAGRYX9C7FF18BFK8F7HG5RDO9H", "dateTime": 1516043256584}, {"current_trial": 158, "trialdata": {"rt": -1000, "trial_type": "single-audio", "word": "turnip", "stimulus": "/static/audio/wordpool/TURNIP.wav", "conditions": [24, 800, "a", 24000], "internal_node_id": "0.0-113.0", "trial": 4, "time_elapsed": 651484, "serialpos": 1, "key_press": -1, "wordID": 1520, "type": "PRES_AUD", "trial_index": 158}, "uniqueid": "MTK1584:3HHRAGRYX9C7FF18BFK8F7HG5RDO9H", "dateTime": 1516043258446}, {"current_trial": 159, "trialdata": {"rt": -1000, "trial_type": "single-audio", "word": "camel", "stimulus": "/static/audio/wordpool/CAMEL.wav", "conditions": [24, 800, "a", 24000], "internal_node_id": "0.0-114.0", "trial": 4, "time_elapsed": 653289, "serialpos": 2, "key_press": -1, "wordID": 222, "type": "PRES_AUD", "trial_index": 159}, "uniqueid": "MTK1584:3HHRAGRYX9C7FF18BFK8F7HG5RDO9H", "dateTime": 1516043260251}, {"current_trial": 160, "trialdata": {"rt": -1000, "trial_type": "single-audio", "word": "donkey", "stimulus": "/static/audio/wordpool/DONKEY.wav", "conditions": [24, 800, "a", 24000], "internal_node_id": "0.0-115.0", "trial": 4, "time_elapsed": 655070, "serialpos": 3, "key_press": -1, "wordID": 483, "type": "PRES_AUD", "trial_index": 160}, "uniqueid": "MTK1584:3HHRAGRYX9C7FF18BFK8F7HG5RDO9H", "dateTime": 1516043262032}, {"current_trial": 161, "trialdata": {"rt": -1000, "trial_type": "single-audio", "word": "dolphin", "stimulus": "/static/audio/wordpool/DOLPHIN.wav", "conditions": [24, 800, "a", 24000], "internal_node_id": "0.0-116.0", "trial": 4, "time_elapsed": 657018, "serialpos": 4, "key_press": -1, "wordID": 482, "type": "PRES_AUD", "trial_index": 161}, "uniqueid": "MTK1584:3HHRAGRYX9C7FF18BFK8F7HG5RDO9H", "dateTime": 1516043263980}, {"current_trial": 162, "trialdata": {"rt": -1000, "trial_type": "single-audio", "word": "mop", "stimulus": "/static/audio/wordpool/MOP.wav", "conditions": [24, 800, "a", 24000], "internal_node_id": "0.0-117.0", "trial": 4, "time_elapsed": 658995, "serialpos": 5, "key_press": -1, "wordID": 915, "type": "PRES_AUD", "trial_index": 162}, "uniqueid": "MTK1584:3HHRAGRYX9C7FF18BFK8F7HG5RDO9H", "dateTime": 1516043265957}, {"current_trial": 163, "trialdata": {"rt": -1000, "trial_type": "single-audio", "word": "robber", "stimulus": "/static/audio/wordpool/ROBBER.wav", "conditions": [24, 800, "a", 24000], "internal_node_id": "0.0-118.0", "trial": 4, "time_elapsed": 660860, "serialpos": 6, "key_press": -1, "wordID": 1196, "type": "PRES_AUD", "trial_index": 163}, "uniqueid": "MTK1584:3HHRAGRYX9C7FF18BFK8F7HG5RDO9H", "dateTime": 1516043267823}, {"current_trial": 164, "trialdata": {"rt": -1000, "trial_type": "single-audio", "word": "radish", "stimulus": "/static/audio/wordpool/RADISH.wav", "conditions": [24, 800, "a", 24000], "internal_node_id": "0.0-119.0", "trial": 4, "time_elapsed": 662630, "serialpos": 7, "key_press": -1, "wordID": 1157, "type": "PRES_AUD", "trial_index": 164}, "uniqueid": "MTK1584:3HHRAGRYX9C7FF18BFK8F7HG5RDO9H", "dateTime": 1516043269593}, {"current_trial": 165, "trialdata": {"rt": -1000, "trial_type": "single-audio", "word": "liver", "stimulus": "/static/audio/wordpool/LIVER.wav", "conditions": [24, 800, "a", 24000], "internal_node_id": "0.0-120.0", "trial": 4, "time_elapsed": 664335, "serialpos": 8, "key_press": -1, "wordID": 832, "type": "PRES_AUD", "trial_index": 165}, "uniqueid": "MTK1584:3HHRAGRYX9C7FF18BFK8F7HG5RDO9H", "dateTime": 1516043271297}, {"current_trial": 166, "trialdata": {"rt": -1000, "trial_type": "single-audio", "word": "pastry", "stimulus": "/static/audio/wordpool/PASTRY.wav", "conditions": [24, 800, "a", 24000], "internal_node_id": "0.0-121.0", "trial": 4, "time_elapsed": 666046, "serialpos": 9, "key_press": -1, "wordID": 1021, "type": "PRES_AUD", "trial_index": 166}, "uniqueid": "MTK1584:3HHRAGRYX9C7FF18BFK8F7HG5RDO9H", "dateTime": 1516043273008}, {"current_trial": 167, "trialdata": {"rt": -1000, "trial_type": "single-audio", "word": "knapsack", "stimulus": "/static/audio/wordpool/KNAPSACK.wav", "conditions": [24, 800, "a", 24000], "internal_node_id": "0.0-122.0", "trial": 4, "time_elapsed": 667979, "serialpos": 10, "key_press": -1, "wordID": 782, "type": "PRES_AUD", "trial_index": 167}, "uniqueid": "MTK1584:3HHRAGRYX9C7FF18BFK8F7HG5RDO9H", "dateTime": 1516043274941}, {"current_trial": 168, "trialdata": {"rt": -1000, "trial_type": "single-audio", "word": "drink", "stimulus": "/static/audio/wordpool/DRINK.wav", "conditions": [24, 800, "a", 24000], "internal_node_id": "0.0-123.0", "trial": 4, "time_elapsed": 669732, "serialpos": 11, "key_press": -1, "wordID": 497, "type": "PRES_AUD", "trial_index": 168}, "uniqueid": "MTK1584:3HHRAGRYX9C7FF18BFK8F7HG5RDO9H", "dateTime": 1516043276694}, {"current_trial": 169, "trialdata": {"rt": -1000, "trial_type": "single-audio", "word": "peanut", "stimulus": "/static/audio/wordpool/PEANUT.wav", "conditions": [24, 800, "a", 24000], "internal_node_id": "0.0-124.0", "trial": 4, "time_elapsed": 671655, "serialpos": 12, "key_press": -1, "wordID": 1031, "type": "PRES_AUD", "trial_index": 169}, "uniqueid": "MTK1584:3HHRAGRYX9C7FF18BFK8F7HG5RDO9H", "dateTime": 1516043278617}, {"current_trial": 170, "trialdata": {"rt": -1000, "trial_type": "single-audio", "word": "student", "stimulus": "/static/audio/wordpool/STUDENT.wav", "conditions": [24, 800, "a", 24000], "internal_node_id": "0.0-125.0", "trial": 4, "time_elapsed": 673274, "serialpos": 13, "key_press": -1, "wordID": 1394, "type": "PRES_AUD", "trial_index": 170}, "uniqueid": "MTK1584:3HHRAGRYX9C7FF18BFK8F7HG5RDO9H", "dateTime": 1516043280236}, {"current_trial": 171, "trialdata": {"rt": -1000, "trial_type": "single-audio", "word": "boyfriend", "stimulus": "/static/audio/wordpool/BOYFRIEND.wav", "conditions": [24, 800, "a", 24000], "internal_node_id": "0.0-126.0", "trial": 4, "time_elapsed": 675208, "serialpos": 14, "key_press": -1, "wordID": 161, "type": "PRES_AUD", "trial_index": 171}, "uniqueid": "MTK1584:3HHRAGRYX9C7FF18BFK8F7HG5RDO9H", "dateTime": 1516043282170}, {"current_trial": 172, "trialdata": {"rt": -1000, "trial_type": "single-audio", "word": "burglar", "stimulus": "/static/audio/wordpool/BURGLAR.wav", "conditions": [24, 800, "a", 24000], "internal_node_id": "0.0-127.0", "trial": 4, "time_elapsed": 677076, "serialpos": 15, "key_press": -1, "wordID": 199, "type": "PRES_AUD", "trial_index": 172}, "uniqueid": "MTK1584:3HHRAGRYX9C7FF18BFK8F7HG5RDO9H", "dateTime": 1516043284038}, {"current_trial": 173, "trialdata": {"rt": -1000, "trial_type": "single-audio", "word": "police", "stimulus": "/static/audio/wordpool/POLICE.wav", "conditions": [24, 800, "a", 24000], "internal_node_id": "0.0-128.0", "trial": 4, "time_elapsed": 678930, "serialpos": 16, "key_press": -1, "wordID": 1097, "type": "PRES_AUD", "trial_index": 173}, "uniqueid": "MTK1584:3HHRAGRYX9C7FF18BFK8F7HG5RDO9H", "dateTime": 1516043285892}, {"current_trial": 174, "trialdata": {"rt": -1000, "trial_type": "single-audio", "word": "star", "stimulus": "/static/audio/wordpool/STAR.wav", "conditions": [24, 800, "a", 24000], "internal_node_id": "0.0-129.0", "trial": 4, "time_elapsed": 680896, "serialpos": 17, "key_press": -1, "wordID": 1372, "type": "PRES_AUD", "trial_index": 174}, "uniqueid": "MTK1584:3HHRAGRYX9C7FF18BFK8F7HG5RDO9H", "dateTime": 1516043287858}, {"current_trial": 175, "trialdata": {"rt": -1000, "trial_type": "single-audio", "word": "chapel", "stimulus": "/static/audio/wordpool/CHAPEL.wav", "conditions": [24, 800, "a", 24000], "internal_node_id": "0.0-130.0", "trial": 4, "time_elapsed": 682878, "serialpos": 18, "key_press": -1, "wordID": 279, "type": "PRES_AUD", "trial_index": 175}, "uniqueid": "MTK1584:3HHRAGRYX9C7FF18BFK8F7HG5RDO9H", "dateTime": 1516043289840}, {"current_trial": 176, "trialdata": {"rt": -1000, "trial_type": "single-audio", "word": "scotch", "stimulus": "/static/audio/wordpool/SCOTCH.wav", "conditions": [24, 800, "a", 24000], "internal_node_id": "0.0-131.0", "trial": 4, "time_elapsed": 684650, "serialpos": 19, "key_press": -1, "wordID": 1250, "type": "PRES_AUD", "trial_index": 176}, "uniqueid": "MTK1584:3HHRAGRYX9C7FF18BFK8F7HG5RDO9H", "dateTime": 1516043291612}, {"current_trial": 177, "trialdata": {"rt": -1000, "trial_type": "single-audio", "word": "blackboard", "stimulus": "/static/audio/wordpool/BLACKBOARD.wav", "conditions": [24, 800, "a", 24000], "internal_node_id": "0.0-132.0", "trial": 4, "time_elapsed": 686310, "serialpos": 20, "key_press": -1, "wordID": 132, "type": "PRES_AUD", "trial_index": 177}, "uniqueid": "MTK1584:3HHRAGRYX9C7FF18BFK8F7HG5RDO9H", "dateTime": 1516043293272}, {"current_trial": 178, "trialdata": {"rt": -1000, "trial_type": "single-audio", "word": "dorm", "stimulus": "/static/audio/wordpool/DORM.wav", "conditions": [24, 800, "a", 24000], "internal_node_id": "0.0-133.0", "trial": 4, "time_elapsed": 688014, "serialpos": 21, "key_press": -1, "wordID": 487, "type": "PRES_AUD", "trial_index": 178}, "uniqueid": "MTK1584:3HHRAGRYX9C7FF18BFK8F7HG5RDO9H", "dateTime": 1516043294976}, {"current_trial": 179, "trialdata": {"rt": -1000, "trial_type": "single-audio", "word": "cellar", "stimulus": "/static/audio/wordpool/CELLAR.wav", "conditions": [24, 800, "a", 24000], "internal_node_id": "0.0-134.0", "trial": 4, "time_elapsed": 690024, "serialpos": 22, "key_press": -1, "wordID": 266, "type": "PRES_AUD", "trial_index": 179}, "uniqueid": "MTK1584:3HHRAGRYX9C7FF18BFK8F7HG5RDO9H", "dateTime": 1516043296986}, {"current_trial": 180, "trialdata": {"rt": -1000, "trial_type": "single-audio", "word": "basement", "stimulus": "/static/audio/wordpool/BASEMENT.wav", "conditions": [24, 800, "a", 24000], "internal_node_id": "0.0-135.0", "trial": 4, "time_elapsed": 691786, "serialpos": 23, "key_press": -1, "wordID": 93, "type": "PRES_AUD", "trial_index": 180}, "uniqueid": "MTK1584:3HHRAGRYX9C7FF18BFK8F7HG5RDO9H", "dateTime": 1516043298748}, {"current_trial": 181, "trialdata": {"rt": -1, "trial_type": "single-stim", "stimulus": "", "internal_node_id": "0.0-136.0-0.0", "time_elapsed": 693045, "key_press": -1, "type": "PRE_RECALL_DELAY", "trial_index": 181}, "uniqueid": "MTK1584:3HHRAGRYX9C7FF18BFK8F7HG5RDO9H", "dateTime": 1516043300007}, {"current_trial": 182, "trialdata": {"rt": -1000, "trial_type": "single-audio", "stimulus": "/static/audio/400Hz.wav", "internal_node_id": "0.0-137.0", "time_elapsed": 693549, "key_press": -1, "type": "PRE_RECALL_ALERT", "trial_index": 182}, "uniqueid": "MTK1584:3HHRAGRYX9C7FF18BFK8F7HG5RDO9H", "dateTime": 1516043300511}, {"current_trial": 183, "trialdata": {"rt": [2907, 5146, 7314, 11841, 14898, 18866, 20602, 24049, 28209, 30386, 35753, 38969, 43793, 45841, 48145], "recwords": ["basement", "seller", "dorm", "bunny", "turnip", "dolphin", "donkey", "pastry", "knapsack", "peanut", "liver", "radish", "star", "burgler", "police"], "key_times": [316, 578, 747, 946, 1338, 1466, 1570, 1730, 2907, 3347, 3610, 3938, 4106, 4210, 4362, 5146, 6058, 6170, 6314, 6570, 7314, 8762, 8954, 9499, 10306, 10611, 11841, 13098, 13282, 13474, 13922, 14098, 14314, 14898, 16963, 17147, 17323, 18026, 18218, 18386, 18578, 18866, 19289, 19402, 19570, 19851, 19978, 20170, 20602, 21898, 22049, 22177, 22770, 23498, 23754, 24049, 24986, 25130, 25266, 25362, 25930, 26098, 26546, 26722, 27082, 27274, 27578, 27906, 28209, 29122, 29203, 29321, 29618, 29802, 30026, 30386, 34098, 34274, 34402, 34545, 34714, 35753, 36962, 37137, 37482, 37658, 37826, 37993, 38969, 41080, 41962, 42434, 42698, 42802, 43026, 43793, 44346, 44490, 44778, 45185, 45329, 45498, 45635, 45841, 46897, 47106, 47298, 47489, 47633, 47793, 48145], "trial_type": "free-recall", "conditions": [24, 800, "a", 24000], "internal_node_id": "0.0-138.0-0.0", "key_presses": [66, 65, 83, 69, 77, 69, 78, 84, 13, 83, 69, 76, 76, 69, 82, 13, 68, 79, 82, 77, 13, 66, 85, 78, 78, 89, 13, 84, 85, 82, 78, 73, 80, 13, 68, 79, 76, 80, 72, 73, 78, 13, 68, 79, 78, 75, 69, 89, 13, 80, 65, 83, 84, 82, 89, 13, 75, 78, 79, 87, 8, 8, 65, 80, 83, 65, 67, 75, 13, 80, 69, 65, 78, 85, 84, 13, 76, 73, 86, 69, 82, 13, 82, 65, 68, 73, 83, 72, 13, 66, 8, 83, 84, 65, 82, 13, 66, 85, 82, 71, 76, 69, 82, 13, 80, 79, 76, 73, 67, 69, 13], "trial": 4, "time_elapsed": 753550, "type": "FREE_RECALL", "trial_index": 183}, "uniqueid": "MTK1584:3HHRAGRYX9C7FF18BFK8F7HG5RDO9H", "dateTime": 1516043360516}, {"current_trial": 184, "trialdata": {"rt": 3042, "trial_type": "text", "internal_node_id": "0.0-139.0", "time_elapsed": 758601, "key_press": 32, "type": "INSTRUCTIONS", "trial_index": 184}, "uniqueid": "MTK1584:3HHRAGRYX9C7FF18BFK8F7HG5RDO9H", "dateTime": 1516043365563}, {"current_trial": 185, "trialdata": {"rt": [1988, 4612, 9444, 11276], "trial_type": "math-distractor", "key_times": [1605, 1781, 1789, 1988, 4085, 4309, 4612, 7581, 8518, 9021, 9181, 9444, 10853, 11004, 11276], "responses": ["185", "13", "22", "18"], "num2": [6, 2, 5, 7, 5], "num3": [3, 5, 9, 9, 4], "conditions": [12, 1600, "a", 12000], "internal_node_id": "0.0-140.0", "key_presses": [97, 104, 101, 13, 97, 99, 13, 97, 8, 98, 98, 13, 97, 104, 13], "trial": 5, "time_elapsed": 772604, "type": "DISTRACTOR", "trial_index": 185, "num1": [6, 6, 8, 1, 4]}, "uniqueid": "MTK1584:3HHRAGRYX9C7FF18BFK8F7HG5RDO9H", "dateTime": 1516043379566}, {"current_trial": 186, "trialdata": {"rt": -1, "trial_type": "single-stim", "stimulus": "<p id=\"stim\">10</p>", "internal_node_id": "0.0-141.0-0.0", "time_elapsed": 775605, "key_press": -1, "trial_index": 186}, "uniqueid": "MTK1584:3HHRAGRYX9C7FF18BFK8F7HG5RDO9H", "dateTime": 1516043382568}, {"current_trial": 187, "trialdata": {"rt": -1, "trial_type": "single-stim", "stimulus": "<p id=\"stim\">9</p>", "internal_node_id": "0.0-141.0-1.0", "time_elapsed": 776606, "key_press": -1, "trial_index": 187}, "uniqueid": "MTK1584:3HHRAGRYX9C7FF18BFK8F7HG5RDO9H", "dateTime": 1516043383568}, {"current_trial": 188, "trialdata": {"rt": -1, "trial_type": "single-stim", "stimulus": "<p id=\"stim\">8</p>", "internal_node_id": "0.0-141.0-2.0", "time_elapsed": 777608, "key_press": -1, "trial_index": 188}, "uniqueid": "MTK1584:3HHRAGRYX9C7FF18BFK8F7HG5RDO9H", "dateTime": 1516043384571}, {"current_trial": 189, "trialdata": {"rt": -1, "trial_type": "single-stim", "stimulus": "<p id=\"stim\">7</p>", "internal_node_id": "0.0-141.0-3.0", "time_elapsed": 778609, "key_press": -1, "trial_index": 189}, "uniqueid": "MTK1584:3HHRAGRYX9C7FF18BFK8F7HG5RDO9H", "dateTime": 1516043385572}, {"current_trial": 190, "trialdata": {"rt": -1, "trial_type": "single-stim", "stimulus": "<p id=\"stim\">6</p>", "internal_node_id": "0.0-141.0-4.0", "time_elapsed": 779610, "key_press": -1, "trial_index": 190}, "uniqueid": "MTK1584:3HHRAGRYX9C7FF18BFK8F7HG5RDO9H", "dateTime": 1516043386572}, {"current_trial": 191, "trialdata": {"rt": -1, "trial_type": "single-stim", "stimulus": "<p id=\"stim\">5</p>", "internal_node_id": "0.0-141.0-5.0", "time_elapsed": 780611, "key_press": -1, "trial_index": 191}, "uniqueid": "MTK1584:3HHRAGRYX9C7FF18BFK8F7HG5RDO9H", "dateTime": 1516043387573}, {"current_trial": 192, "trialdata": {"rt": -1, "trial_type": "single-stim", "stimulus": "<p id=\"stim\">4</p>", "internal_node_id": "0.0-141.0-6.0", "time_elapsed": 781612, "key_press": -1, "trial_index": 192}, "uniqueid": "MTK1584:3HHRAGRYX9C7FF18BFK8F7HG5RDO9H", "dateTime": 1516043388574}, {"current_trial": 193, "trialdata": {"rt": -1, "trial_type": "single-stim", "stimulus": "<p id=\"stim\">3</p>", "internal_node_id": "0.0-141.0-7.0", "time_elapsed": 782614, "key_press": -1, "trial_index": 193}, "uniqueid": "MTK1584:3HHRAGRYX9C7FF18BFK8F7HG5RDO9H", "dateTime": 1516043389577}, {"current_trial": 194, "trialdata": {"rt": -1, "trial_type": "single-stim", "stimulus": "<p id=\"stim\">2</p>", "internal_node_id": "0.0-141.0-8.0", "time_elapsed": 783615, "key_press": -1, "trial_index": 194}, "uniqueid": "MTK1584:3HHRAGRYX9C7FF18BFK8F7HG5RDO9H", "dateTime": 1516043390578}, {"current_trial": 195, "trialdata": {"rt": -1, "trial_type": "single-stim", "stimulus": "<p id=\"stim\">1</p>", "internal_node_id": "0.0-141.0-9.0", "time_elapsed": 784618, "key_press": -1, "trial_index": 195}, "uniqueid": "MTK1584:3HHRAGRYX9C7FF18BFK8F7HG5RDO9H", "dateTime": 1516043391581}, {"current_trial": 196, "trialdata": {"rt": -1, "trial_type": "single-stim", "stimulus": "<p id=\"stim\">+</p>", "internal_node_id": "0.0-142.0-0.0", "time_elapsed": 786119, "key_press": -1, "type": "FIXATION", "trial_index": 196}, "uniqueid": "MTK1584:3HHRAGRYX9C7FF18BFK8F7HG5RDO9H", "dateTime": 1516043393081}, {"current_trial": 197, "trialdata": {"rt": -1000, "trial_type": "single-audio", "word": "seafood", "stimulus": "/static/audio/wordpool/SEAFOOD.wav", "conditions": [12, 1600, "a", 12000], "internal_node_id": "0.0-143.0", "trial": 5, "time_elapsed": 788552, "serialpos": 0, "key_press": -1, "wordID": 1259, "type": "PRES_AUD", "trial_index": 197}, "uniqueid": "MTK1584:3HHRAGRYX9C7FF18BFK8F7HG5RDO9H", "dateTime": 1516043395514}, {"current_trial": 198, "trialdata": {"rt": -1000, "trial_type": "single-audio", "word": "lodge", "stimulus": "/static/audio/wordpool/LODGE.wav", "conditions": [12, 1600, "a", 12000], "internal_node_id": "0.0-144.0", "trial": 5, "time_elapsed": 791301, "serialpos": 1, "key_press": -1, "wordID": 838, "type": "PRES_AUD", "trial_index": 198}, "uniqueid": "MTK1584:3HHRAGRYX9C7FF18BFK8F7HG5RDO9H", "dateTime": 1516043398263}, {"current_trial": 199, "trialdata": {"rt": -1000, "trial_type": "single-audio", "word": "sibling", "stimulus": "/static/audio/wordpool/SIBLING.wav", "conditions": [12, 1600, "a", 12000], "internal_node_id": "0.0-145.0", "trial": 5, "time_elapsed": 794007, "serialpos": 2, "key_press": -1, "wordID": 1300, "type": "PRES_AUD", "trial_index": 199}, "uniqueid": "MTK1584:3HHRAGRYX9C7FF18BFK8F7HG5RDO9H", "dateTime": 1516043400969}, {"current_trial": 200, "trialdata": {"rt": -1000, "trial_type": "single-audio", "word": "jello", "stimulus": "/static/audio/wordpool/JELLO.wav", "conditions": [12, 1600, "a", 12000], "internal_node_id": "0.0-146.0", "trial": 5, "time_elapsed": 796415, "serialpos": 3, "key_press": -1, "wordID": 753, "type": "PRES_AUD", "trial_index": 200}, "uniqueid": "MTK1584:3HHRAGRYX9C7FF18BFK8F7HG5RDO9H", "dateTime": 1516043403377}, {"current_trial": 201, "trialdata": {"rt": -1000, "trial_type": "single-audio", "word": "waitress", "stimulus": "/static/audio/wordpool/WAITRESS.wav", "conditions": [12, 1600, "a", 12000], "internal_node_id": "0.0-147.0", "trial": 5, "time_elapsed": 799057, "serialpos": 4, "key_press": -1, "wordID": 1580, "type": "PRES_AUD", "trial_index": 201}, "uniqueid": "MTK1584:3HHRAGRYX9C7FF18BFK8F7HG5RDO9H", "dateTime": 1516043406019}, {"current_trial": 202, "trialdata": {"rt": -1000, "trial_type": "single-audio", "word": "wife", "stimulus": "/static/audio/wordpool/WIFE.wav", "conditions": [12, 1600, "a", 12000], "internal_node_id": "0.0-148.0", "trial": 5, "time_elapsed": 801665, "serialpos": 5, "key_press": -1, "wordID": 1608, "type": "PRES_AUD", "trial_index": 202}, "uniqueid": "MTK1584:3HHRAGRYX9C7FF18BFK8F7HG5RDO9H", "dateTime": 1516043408627}, {"current_trial": 203, "trialdata": {"rt": -1000, "trial_type": "single-audio", "word": "widow", "stimulus": "/static/audio/wordpool/WIDOW.wav", "conditions": [12, 1600, "a", 12000], "internal_node_id": "0.0-149.0", "trial": 5, "time_elapsed": 804067, "serialpos": 6, "key_press": -1, "wordID": 1607, "type": "PRES_AUD", "trial_index": 203}, "uniqueid": "MTK1584:3HHRAGRYX9C7FF18BFK8F7HG5RDO9H", "dateTime": 1516043411029}, {"current_trial": 204, "trialdata": {"rt": -1000, "trial_type": "single-audio", "word": "lagoon", "stimulus": "/static/audio/wordpool/LAGOON.wav", "conditions": [12, 1600, "a", 12000], "internal_node_id": "0.0-150.0", "trial": 5, "time_elapsed": 806627, "serialpos": 7, "key_press": -1, "wordID": 794, "type": "PRES_AUD", "trial_index": 204}, "uniqueid": "MTK1584:3HHRAGRYX9C7FF18BFK8F7HG5RDO9H", "dateTime": 1516043413589}, {"current_trial": 205, "trialdata": {"rt": -1000, "trial_type": "single-audio", "word": "hostess", "stimulus": "/static/audio/wordpool/HOSTESS.wav", "conditions": [12, 1600, "a", 12000], "internal_node_id": "0.0-151.0", "trial": 5, "time_elapsed": 809132, "serialpos": 8, "key_press": -1, "wordID": 722, "type": "PRES_AUD", "trial_index": 205}, "uniqueid": "MTK1584:3HHRAGRYX9C7FF18BFK8F7HG5RDO9H", "dateTime": 1516043416094}, {"current_trial": 206, "trialdata": {"rt": -1000, "trial_type": "single-audio", "word": "wardrobe", "stimulus": "/static/audio/wordpool/WARDROBE.wav", "conditions": [12, 1600, "a", 12000], "internal_node_id": "0.0-152.0", "trial": 5, "time_elapsed": 811811, "serialpos": 9, "key_press": -1, "wordID": 1586, "type": "PRES_AUD", "trial_index": 206}, "uniqueid": "MTK1584:3HHRAGRYX9C7FF18BFK8F7HG5RDO9H", "dateTime": 1516043418773}, {"current_trial": 207, "trialdata": {"rt": -1000, "trial_type": "single-audio", "word": "chest", "stimulus": "/static/audio/wordpool/CHEST.wav", "conditions": [12, 1600, "a", 12000], "internal_node_id": "0.0-153.0", "trial": 5, "time_elapsed": 814240, "serialpos": 10, "key_press": -1, "wordID": 294, "type": "PRES_AUD", "trial_index": 207}, "uniqueid": "MTK1584:3HHRAGRYX9C7FF18BFK8F7HG5RDO9H", "dateTime": 1516043421202}, {"current_trial": 208, "trialdata": {"rt": 980.0000000000182, "trial_type": "single-audio", "word": "wasp", "stimulus": "/static/audio/wordpool/WASP.wav", "conditions": [12, 1600, "a", 12000], "internal_node_id": "0.0-154.0", "trial": 5, "time_elapsed": 816894, "serialpos": 11, "key_press": 87, "wordID": 1592, "type": "PRES_AUD", "trial_index": 208}, "uniqueid": "MTK1584:3HHRAGRYX9C7FF18BFK8F7HG5RDO9H", "dateTime": 1516043423856}, {"current_trial": 209, "trialdata": {"rt": -1, "trial_type": "single-stim", "stimulus": "", "internal_node_id": "0.0-155.0-0.0", "time_elapsed": 818252, "key_press": -1, "type": "PRE_RECALL_DELAY", "trial_index": 209}, "uniqueid": "MTK1584:3HHRAGRYX9C7FF18BFK8F7HG5RDO9H", "dateTime": 1516043425215}, {"current_trial": 210, "trialdata": {"rt": -1000, "trial_type": "single-audio", "stimulus": "/static/audio/400Hz.wav", "internal_node_id": "0.0-156.0", "time_elapsed": 818756, "key_press": -1, "type": "PRE_RECALL_ALERT", "trial_index": 210}, "uniqueid": "MTK1584:3HHRAGRYX9C7FF18BFK8F7HG5RDO9H", "dateTime": 1516043425718}, {"current_trial": 211, "trialdata": {"rt": [4113, 6441, 10049, 14392, 16192, 18168, 22823, 25592, 29503, 34519, 38119], "recwords": ["wasp", "seafood", "lodge", "waitress", "yellow", "white", "widow", "lagoon", "poster", "chest", "wife"], "key_times": [457, 1121, 1353, 1793, 1801, 2441, 2625, 3568, 4113, 4873, 5017, 5169, 5481, 5665, 5808, 5993, 6441, 8881, 9065, 9185, 9385, 9553, 10049, 12385, 12569, 12841, 13169, 13633, 13816, 14073, 14225, 14392, 14753, 14881, 15105, 15256, 15456, 15584, 16192, 17121, 17288, 17401, 17529, 17728, 18168, 21624, 21759, 21967, 22079, 22392, 22823, 23464, 23607, 23863, 24119, 24327, 24639, 25592, 27848, 28055, 28207, 28496, 28618, 28791, 29503, 31063, 31303, 31744, 31967, 32311, 34519, 37175, 37367, 37551, 37831, 38119], "trial_type": "free-recall", "conditions": [12, 1600, "a", 12000], "internal_node_id": "0.0-157.0-0.0", "key_presses": [87, 65, 83, 80, 79, 8, 8, 80, 13, 83, 69, 65, 70, 79, 79, 68, 13, 76, 79, 68, 71, 69, 13, 87, 65, 73, 84, 82, 69, 83, 83, 13, 89, 69, 76, 76, 79, 87, 13, 87, 72, 73, 84, 69, 13, 87, 73, 68, 79, 87, 13, 76, 65, 71, 79, 79, 78, 13, 80, 79, 83, 84, 69, 82, 13, 67, 72, 69, 83, 84, 13, 87, 73, 70, 69, 13], "trial": 5, "time_elapsed": 878758, "type": "FREE_RECALL", "trial_index": 211}, "uniqueid": "MTK1584:3HHRAGRYX9C7FF18BFK8F7HG5RDO9H", "dateTime": 1516043485727}, {"current_trial": 212, "trialdata": {"rt": 1416, "trial_type": "text", "internal_node_id": "0.0-158.0", "time_elapsed": 882181, "key_press": 32, "type": "INSTRUCTIONS", "trial_index": 212}, "uniqueid": "MTK1584:3HHRAGRYX9C7FF18BFK8F7HG5RDO9H", "dateTime": 1516043489143}, {"current_trial": 213, "trialdata": {"rt": [3692, 9156, 11824], "trial_type": "math-distractor", "key_times": [3278, 3437, 3692, 7301, 8272, 8717, 8893, 9156, 11421, 11565, 11824], "responses": ["23", "25", "21"], "num2": [8, 9, 6, 7], "num3": [7, 7, 6, 8], "conditions": [12, 800, "a", 12000], "internal_node_id": "0.0-159.0", "key_presses": [98, 99, 13, 97, 8, 98, 101, 13, 98, 97, 13], "trial": 6, "time_elapsed": 896184, "type": "DISTRACTOR", "trial_index": 213, "num1": [8, 9, 9, 4]}, "uniqueid": "MTK1584:3HHRAGRYX9C7FF18BFK8F7HG5RDO9H", "dateTime": 1516043503146}, {"current_trial": 214, "trialdata": {"rt": -1, "trial_type": "single-stim", "stimulus": "<p id=\"stim\">10</p>", "internal_node_id": "0.0-160.0-0.0", "time_elapsed": 899185, "key_press": -1, "trial_index": 214}, "uniqueid": "MTK1584:3HHRAGRYX9C7FF18BFK8F7HG5RDO9H", "dateTime": 1516043506148}, {"current_trial": 215, "trialdata": {"rt": -1, "trial_type": "single-stim", "stimulus": "<p id=\"stim\">9</p>", "internal_node_id": "0.0-160.0-1.0", "time_elapsed": 900186, "key_press": -1, "trial_index": 215}, "uniqueid": "MTK1584:3HHRAGRYX9C7FF18BFK8F7HG5RDO9H", "dateTime": 1516043507148}, {"current_trial": 216, "trialdata": {"rt": -1, "trial_type": "single-stim", "stimulus": "<p id=\"stim\">8</p>", "internal_node_id": "0.0-160.0-2.0", "time_elapsed": 901187, "key_press": -1, "trial_index": 216}, "uniqueid": "MTK1584:3HHRAGRYX9C7FF18BFK8F7HG5RDO9H", "dateTime": 1516043508150}, {"current_trial": 217, "trialdata": {"rt": -1, "trial_type": "single-stim", "stimulus": "<p id=\"stim\">7</p>", "internal_node_id": "0.0-160.0-3.0", "time_elapsed": 902190, "key_press": -1, "trial_index": 217}, "uniqueid": "MTK1584:3HHRAGRYX9C7FF18BFK8F7HG5RDO9H", "dateTime": 1516043509153}, {"current_trial": 218, "trialdata": {"rt": -1, "trial_type": "single-stim", "stimulus": "<p id=\"stim\">6</p>", "internal_node_id": "0.0-160.0-4.0", "time_elapsed": 903191, "key_press": -1, "trial_index": 218}, "uniqueid": "MTK1584:3HHRAGRYX9C7FF18BFK8F7HG5RDO9H", "dateTime": 1516043510153}, {"current_trial": 219, "trialdata": {"rt": -1, "trial_type": "single-stim", "stimulus": "<p id=\"stim\">5</p>", "internal_node_id": "0.0-160.0-5.0", "time_elapsed": 904193, "key_press": -1, "trial_index": 219}, "uniqueid": "MTK1584:3HHRAGRYX9C7FF18BFK8F7HG5RDO9H", "dateTime": 1516043511156}, {"current_trial": 220, "trialdata": {"rt": -1, "trial_type": "single-stim", "stimulus": "<p id=\"stim\">4</p>", "internal_node_id": "0.0-160.0-6.0", "time_elapsed": 905199, "key_press": -1, "trial_index": 220}, "uniqueid": "MTK1584:3HHRAGRYX9C7FF18BFK8F7HG5RDO9H", "dateTime": 1516043512161}, {"current_trial": 221, "trialdata": {"rt": -1, "trial_type": "single-stim", "stimulus": "<p id=\"stim\">3</p>", "internal_node_id": "0.0-160.0-7.0", "time_elapsed": 906201, "key_press": -1, "trial_index": 221}, "uniqueid": "MTK1584:3HHRAGRYX9C7FF18BFK8F7HG5RDO9H", "dateTime": 1516043513164}, {"current_trial": 222, "trialdata": {"rt": -1, "trial_type": "single-stim", "stimulus": "<p id=\"stim\">2</p>", "internal_node_id": "0.0-160.0-8.0", "time_elapsed": 907202, "key_press": -1, "trial_index": 222}, "uniqueid": "MTK1584:3HHRAGRYX9C7FF18BFK8F7HG5RDO9H", "dateTime": 1516043514165}, {"current_trial": 223, "trialdata": {"rt": -1, "trial_type": "single-stim", "stimulus": "<p id=\"stim\">1</p>", "internal_node_id": "0.0-160.0-9.0", "time_elapsed": 908204, "key_press": -1, "trial_index": 223}, "uniqueid": "MTK1584:3HHRAGRYX9C7FF18BFK8F7HG5RDO9H", "dateTime": 1516043515167}, {"current_trial": 224, "trialdata": {"rt": -1, "trial_type": "single-stim", "stimulus": "<p id=\"stim\">+</p>", "internal_node_id": "0.0-161.0-0.0", "time_elapsed": 909706, "key_press": -1, "type": "FIXATION", "trial_index": 224}, "uniqueid": "MTK1584:3HHRAGRYX9C7FF18BFK8F7HG5RDO9H", "dateTime": 1516043516669}, {"current_trial": 225, "trialdata": {"rt": -1000, "trial_type": "single-audio", "word": "custard", "stimulus": "/static/audio/wordpool/CUSTARD.wav", "conditions": [12, 800, "a", 12000], "internal_node_id": "0.0-162.0", "trial": 6, "time_elapsed": 911527, "serialpos": 0, "key_press": -1, "wordID": 428, "type": "PRES_AUD", "trial_index": 225}, "uniqueid": "MTK1584:3HHRAGRYX9C7FF18BFK8F7HG5RDO9H", "dateTime": 1516043518489}, {"current_trial": 226, "trialdata": {"rt": -1000, "trial_type": "single-audio", "word": "jelly", "stimulus": "/static/audio/wordpool/JELLY.wav", "conditions": [12, 800, "a", 12000], "internal_node_id": "0.0-163.0", "trial": 6, "time_elapsed": 913266, "serialpos": 1, "key_press": -1, "wordID": 754, "type": "PRES_AUD", "trial_index": 226}, "uniqueid": "MTK1584:3HHRAGRYX9C7FF18BFK8F7HG5RDO9H", "dateTime": 1516043520228}, {"current_trial": 227, "trialdata": {"rt": -1000, "trial_type": "single-audio", "word": "compass", "stimulus": "/static/audio/wordpool/COMPASS.wav", "conditions": [12, 800, "a", 12000], "internal_node_id": "0.0-164.0", "trial": 6, "time_elapsed": 914877, "serialpos": 2, "key_press": -1, "wordID": 357, "type": "PRES_AUD", "trial_index": 227}, "uniqueid": "MTK1584:3HHRAGRYX9C7FF18BFK8F7HG5RDO9H", "dateTime": 1516043521839}, {"current_trial": 228, "trialdata": {"rt": -1000, "trial_type": "single-audio", "word": "nomad", "stimulus": "/static/audio/wordpool/NOMAD.wav", "conditions": [12, 800, "a", 12000], "internal_node_id": "0.0-165.0", "trial": 6, "time_elapsed": 916650, "serialpos": 3, "key_press": -1, "wordID": 954, "type": "PRES_AUD", "trial_index": 228}, "uniqueid": "MTK1584:3HHRAGRYX9C7FF18BFK8F7HG5RDO9H", "dateTime": 1516043523612}, {"current_trial": 229, "trialdata": {"rt": -1000, "trial_type": "single-audio", "word": "suitcase", "stimulus": "/static/audio/wordpool/SUITCASE.wav", "conditions": [12, 800, "a", 12000], "internal_node_id": "0.0-166.0", "trial": 6, "time_elapsed": 918574, "serialpos": 4, "key_press": -1, "wordID": 1402, "type": "PRES_AUD", "trial_index": 229}, "uniqueid": "MTK1584:3HHRAGRYX9C7FF18BFK8F7HG5RDO9H", "dateTime": 1516043525536}, {"current_trial": 230, "trialdata": {"rt": -1000, "trial_type": "single-audio", "word": "clothes", "stimulus": "/static/audio/wordpool/CLOTHES.wav", "conditions": [12, 800, "a", 12000], "internal_node_id": "0.0-167.0", "trial": 6, "time_elapsed": 920435, "serialpos": 5, "key_press": -1, "wordID": 326, "type": "PRES_AUD", "trial_index": 230}, "uniqueid": "MTK1584:3HHRAGRYX9C7FF18BFK8F7HG5RDO9H", "dateTime": 1516043527398}, {"current_trial": 231, "trialdata": {"rt": -1000, "trial_type": "single-audio", "word": "tweezers", "stimulus": "/static/audio/wordpool/TWEEZERS.wav", "conditions": [12, 800, "a", 12000], "internal_node_id": "0.0-168.0", "trial": 6, "time_elapsed": 922082, "serialpos": 6, "key_press": -1, "wordID": 1525, "type": "PRES_AUD", "trial_index": 231}, "uniqueid": "MTK1584:3HHRAGRYX9C7FF18BFK8F7HG5RDO9H", "dateTime": 1516043529044}, {"current_trial": 232, "trialdata": {"rt": -1000, "trial_type": "single-audio", "word": "ketchup", "stimulus": "/static/audio/wordpool/KETCHUP.wav", "conditions": [12, 800, "a", 12000], "internal_node_id": "0.0-169.0", "trial": 6, "time_elapsed": 923760, "serialpos": 7, "key_press": -1, "wordID": 770, "type": "PRES_AUD", "trial_index": 232}, "uniqueid": "MTK1584:3HHRAGRYX9C7FF18BFK8F7HG5RDO9H", "dateTime": 1516043530722}, {"current_trial": 233, "trialdata": {"rt": -1000, "trial_type": "single-audio", "word": "plaid", "stimulus": "/static/audio/wordpool/PLAID.wav", "conditions": [12, 800, "a", 12000], "internal_node_id": "0.0-170.0", "trial": 6, "time_elapsed": 925730, "serialpos": 8, "key_press": -1, "wordID": 1079, "type": "PRES_AUD", "trial_index": 233}, "uniqueid": "MTK1584:3HHRAGRYX9C7FF18BFK8F7HG5RDO9H", "dateTime": 1516043532692}, {"current_trial": 234, "trialdata": {"rt": -1000, "trial_type": "single-audio", "word": "jury", "stimulus": "/static/audio/wordpool/JURY.wav", "conditions": [12, 800, "a", 12000], "internal_node_id": "0.0-171.0", "trial": 6, "time_elapsed": 927346, "serialpos": 9, "key_press": -1, "wordID": 765, "type": "PRES_AUD", "trial_index": 234}, "uniqueid": "MTK1584:3HHRAGRYX9C7FF18BFK8F7HG5RDO9H", "dateTime": 1516043534308}, {"current_trial": 235, "trialdata": {"rt": -1000, "trial_type": "single-audio", "word": "subway", "stimulus": "/static/audio/wordpool/SUBWAY.wav", "conditions": [12, 800, "a", 12000], "internal_node_id": "0.0-172.0", "trial": 6, "time_elapsed": 929025, "serialpos": 10, "key_press": -1, "wordID": 1399, "type": "PRES_AUD", "trial_index": 235}, "uniqueid": "MTK1584:3HHRAGRYX9C7FF18BFK8F7HG5RDO9H", "dateTime": 1516043535987}, {"current_trial": 236, "trialdata": {"rt": -1000, "trial_type": "single-audio", "word": "denim", "stimulus": "/static/audio/wordpool/DENIM.wav", "conditions": [12, 800, "a", 12000], "internal_node_id": "0.0-173.0", "trial": 6, "time_elapsed": 930809, "serialpos": 11, "key_press": -1, "wordID": 445, "type": "PRES_AUD", "trial_index": 236}, "uniqueid": "MTK1584:3HHRAGRYX9C7FF18BFK8F7HG5RDO9H", "dateTime": 1516043537771}, {"current_trial": 237, "trialdata": {"rt": -1, "trial_type": "single-stim", "stimulus": "", "internal_node_id": "0.0-174.0-0.0", "time_elapsed": 932117, "key_press": -1, "type": "PRE_RECALL_DELAY", "trial_index": 237}, "uniqueid": "MTK1584:3HHRAGRYX9C7FF18BFK8F7HG5RDO9H", "dateTime": 1516043539080}, {"current_trial": 238, "trialdata": {"rt": -1000, "trial_type": "single-audio", "stimulus": "/static/audio/400Hz.wav", "internal_node_id": "0.0-175.0", "time_elapsed": 932619, "key_press": -1, "type": "PRE_RECALL_ALERT", "trial_index": 238}, "uniqueid": "MTK1584:3HHRAGRYX9C7FF18BFK8F7HG5RDO9H", "dateTime": 1516043539581}, {"current_trial": 239, "trialdata": {"rt": [1662, 5574, 8214, 10110, 20886, 23886, 27710], "recwords": ["denim", "subway", "custard", "jelly", "flag", "turnip", "suitcase"], "key_times": [432, 599, 855, 1015, 1302, 1662, 1927, 2119, 2326, 2343, 3503, 3679, 4158, 4343, 4470, 4767, 4999, 5302, 5574, 5911, 6134, 6246, 6622, 6798, 7023, 7583, 8214, 8766, 8886, 9086, 9246, 9486, 10110, 19495, 19926, 20102, 20366, 20886, 21974, 22182, 22310, 22710, 22886, 23166, 23886, 25262, 25422, 25526, 25702, 26086, 26230, 26382, 26526, 27710], "trial_type": "free-recall", "conditions": [12, 800, "a", 12000], "internal_node_id": "0.0-176.0-0.0", "key_presses": [68, 69, 78, 73, 77, 13, 83, 85, 66, 71, 87, 65, 8, 8, 8, 87, 65, 89, 13, 67, 85, 83, 84, 65, 82, 68, 13, 74, 69, 76, 76, 89, 13, 70, 76, 65, 71, 13, 84, 85, 82, 78, 73, 80, 13, 83, 85, 73, 84, 67, 65, 83, 69, 13], "trial": 6, "time_elapsed": 992622, "type": "FREE_RECALL", "trial_index": 239}, "uniqueid": "MTK1584:3HHRAGRYX9C7FF18BFK8F7HG5RDO9H", "dateTime": 1516043599592}, {"current_trial": 240, "trialdata": {"rt": 1805, "trial_type": "text", "internal_node_id": "0.0-177.0", "time_elapsed": 996435, "key_press": 32, "type": "INSTRUCTIONS", "trial_index": 240}, "uniqueid": "MTK1584:3HHRAGRYX9C7FF18BFK8F7HG5RDO9H", "dateTime": 1516043603398}, {"current_trial": 241, "trialdata": {"rt": [5003, 7019, 9981, 11403, 13459, 15667, 16956, 18883, 20891, 23395], "trial_type": "math-distractor", "key_times": [4556, 4724, 5003, 6596, 6764, 7019, 9639, 9772, 9981, 11059, 11195, 11403, 13012, 13156, 13459, 15292, 15420, 15667, 16724, 16956, 18548, 18883, 20181, 20331, 20891, 22964, 23132, 23395], "responses": ["23", "11", "21", "15", "18", "12", "5", "9", "11", "14"], "num2": [5, 1, 9, 7, 8, 8, 2, 2, 3, 8, 8], "num3": [9, 8, 5, 7, 1, 3, 2, 6, 7, 5, 6], "conditions": [12, 1600, "a", 24000], "internal_node_id": "0.0-178.0", "key_presses": [98, 99, 13, 97, 97, 13, 98, 97, 13, 97, 101, 13, 97, 104, 13, 97, 98, 13, 101, 13, 105, 13, 97, 97, 13, 97, 100, 13], "trial": 7, "time_elapsed": 1022438, "type": "DISTRACTOR", "trial_index": 241, "num1": [8, 2, 7, 1, 9, 1, 1, 1, 1, 1, 4]}, "uniqueid": "MTK1584:3HHRAGRYX9C7FF18BFK8F7HG5RDO9H", "dateTime": 1516043629400}, {"current_trial": 242, "trialdata": {"rt": -1, "trial_type": "single-stim", "stimulus": "<p id=\"stim\">10</p>", "internal_node_id": "0.0-179.0-0.0", "time_elapsed": 1025438, "key_p