{"assignmentId": "38F71OA9GU3SGM791L5NXZEMFWTFM1", "workerId": "MTK1879", "questiondata": {"origin": "United States", "strat-rehearsal": "52", "marital": "Single", "education": "Bachelor's degree", "ethnicity": "Not Hispanic", "color_depth": 24, "distracted": "No", "wrote-notes": "No", "strat-other": "", "screen_width": 1440, "avail_screen_width": 1440, "avail_screen_height": 797, "strat-image": "21", "language": "english", "gender": "Female", "age": "27", "gender_other": "", "race": ["White"], "strat-categorize": "64", "pixel_depth": 24, "strat-spatial": "45", "strat-story": "36", "race_other": "", "screen_height": 900}, "bonus": 0, "hitId": "3CVDZS288H7QT29FBJ0L8FI2XRUMF6", "counterbalance": 1567, "useragent": "Mozilla/5.0 (Macintosh; Intel Mac OS X 10_12_6) AppleWebKit/537.36 (KHTML, like Gecko) Chrome/63.0.3239.132 Safari/537.36", "eventdata": [{"eventtype": "initialized", "interval": 0, "value": null, "timestamp": 1516492284290}, {"eventtype": "window_resize", "interval": 0, "value": [1440, 746], "timestamp": 1516492284290}, {"eventtype": "focus", "interval": 344690, "value": "off", "timestamp": 1516492628980}, {"eventtype": "focus", "interval": 17369, "value": "on", "timestamp": 1516492646349}, {"eventtype": "focus", "interval": 2649992, "value": "off", "timestamp": 1516495296341}, {"eventtype": "focus", "interval": 1061, "value": "on", "timestamp": 1516495297402}], "data": [{"current_trial": 0, "trialdata": {"rt": 1451, "trial_type": "text", "internal_node_id": "0.0-0.0", "time_elapsed": 1454, "key_press": 32, "type": "INSTRUCTIONS", "trial_index": 0}, "uniqueid": "MTK1879:38F71OA9GU3SGM791L5NXZEMFWTFM1", "dateTime": 1516492295469}, {"current_trial": 1, "trialdata": {"rt": 23520, "trial_type": "text", "internal_node_id": "0.0-1.0", "time_elapsed": 24976, "key_press": 32, "type": "INSTRUCTIONS", "trial_index": 1}, "uniqueid": "MTK1879:38F71OA9GU3SGM791L5NXZEMFWTFM1", "dateTime": 1516492318991}, {"current_trial": 2, "trialdata": {"rt": [8014], "trial_type": "audio-test", "responses": ["ocean"], "internal_node_id": "0.0-2.0", "time_elapsed": 33003, "type": "AUDIO_TEST", "trial_index": 2}, "uniqueid": "MTK1879:38F71OA9GU3SGM791L5NXZEMFWTFM1", "dateTime": 1516492327019}, {"current_trial": 3, "trialdata": {"rt": [4816], "trial_type": "audio-test", "responses": ["crystal"], "internal_node_id": "0.0-3.0", "time_elapsed": 37825, "type": "AUDIO_TEST", "trial_index": 3}, "uniqueid": "MTK1879:38F71OA9GU3SGM791L5NXZEMFWTFM1", "dateTime": 1516492331840}, {"current_trial": 4, "trialdata": {"rt": [4457], "trial_type": "audio-test", "responses": ["spice"], "internal_node_id": "0.0-4.0", "time_elapsed": 42288, "type": "AUDIO_TEST", "trial_index": 4}, "uniqueid": "MTK1879:38F71OA9GU3SGM791L5NXZEMFWTFM1", "dateTime": 1516492336303}, {"current_trial": 5, "trialdata": {"rt": 15188, "trial_type": "survey-text", "responses": "{\"Q0\":\"1:30am\",\"Q1\":\"7am\",\"Q2\":\"3\"}", "internal_node_id": "0.0-5.0", "time_elapsed": 58230, "type": "SLEEP_SURVEY", "trial_index": 5}, "uniqueid": "MTK1879:38F71OA9GU3SGM791L5NXZEMFWTFM1", "dateTime": 1516492352245}, {"current_trial": 6, "trialdata": {"rt": 23679, "trial_type": "text", "internal_node_id": "0.0-6.0", "time_elapsed": 82916, "key_press": 32, "type": "INSTRUCTIONS", "trial_index": 6}, "uniqueid": "MTK1879:38F71OA9GU3SGM791L5NXZEMFWTFM1", "dateTime": 1516492376931}, {"current_trial": 7, "trialdata": {"rt": 14701, "trial_type": "text", "internal_node_id": "0.0-7.0", "time_elapsed": 98121, "key_press": 32, "type": "INSTRUCTIONS", "trial_index": 7}, "uniqueid": "MTK1879:38F71OA9GU3SGM791L5NXZEMFWTFM1", "dateTime": 1516492392136}, {"current_trial": 8, "trialdata": {"rt": 2620, "trial_type": "text", "internal_node_id": "0.0-8.0", "time_elapsed": 101248, "key_press": 32, "type": "INSTRUCTIONS", "trial_index": 8}, "uniqueid": "MTK1879:38F71OA9GU3SGM791L5NXZEMFWTFM1", "dateTime": 1516492395263}, {"current_trial": 9, "trialdata": {"rt": [3213, 5131, 10551, 14418, 16929], "trial_type": "math-distractor", "key_times": [2845, 2957, 3213, 4965, 5131, 10262, 10391, 10551, 14218, 14256, 14418, 16562, 16722, 16929], "responses": ["18", "9", "20", "19", "11"], "num2": [5, 6, 9, 8, 2, 7], "num3": [6, 2, 4, 8, 3, 5], "conditions": [18, 1200, "a", 18000], "internal_node_id": "0.0-9.0", "key_presses": [49, 56, 13, 57, 13, 50, 48, 13, 49, 57, 13, 49, 49, 13], "trial": 0, "time_elapsed": 120257, "type": "DISTRACTOR", "trial_index": 9, "num1": [7, 1, 7, 3, 6, 5]}, "uniqueid": "MTK1879:38F71OA9GU3SGM791L5NXZEMFWTFM1", "dateTime": 1516492414273}, {"current_trial": 10, "trialdata": {"rt": -1, "trial_type": "single-stim", "stimulus": "<p id=\"stim\">10</p>", "internal_node_id": "0.0-10.0-0.0", "time_elapsed": 123265, "key_press": -1, "trial_index": 10}, "uniqueid": "MTK1879:38F71OA9GU3SGM791L5NXZEMFWTFM1", "dateTime": 1516492417280}, {"current_trial": 11, "trialdata": {"rt": -1, "trial_type": "single-stim", "stimulus": "<p id=\"stim\">9</p>", "internal_node_id": "0.0-10.0-1.0", "time_elapsed": 124271, "key_press": -1, "trial_index": 11}, "uniqueid": "MTK1879:38F71OA9GU3SGM791L5NXZEMFWTFM1", "dateTime": 1516492418286}, {"current_trial": 12, "trialdata": {"rt": -1, "trial_type": "single-stim", "stimulus": "<p id=\"stim\">8</p>", "internal_node_id": "0.0-10.0-2.0", "time_elapsed": 125277, "key_press": -1, "trial_index": 12}, "uniqueid": "MTK1879:38F71OA9GU3SGM791L5NXZEMFWTFM1", "dateTime": 1516492419292}, {"current_trial": 13, "trialdata": {"rt": -1, "trial_type": "single-stim", "stimulus": "<p id=\"stim\">7</p>", "internal_node_id": "0.0-10.0-3.0", "time_elapsed": 126283, "key_press": -1, "trial_index": 13}, "uniqueid": "MTK1879:38F71OA9GU3SGM791L5NXZEMFWTFM1", "dateTime": 1516492420298}, {"current_trial": 14, "trialdata": {"rt": -1, "trial_type": "single-stim", "stimulus": "<p id=\"stim\">6</p>", "internal_node_id": "0.0-10.0-4.0", "time_elapsed": 127288, "key_press": -1, "trial_index": 14}, "uniqueid": "MTK1879:38F71OA9GU3SGM791L5NXZEMFWTFM1", "dateTime": 1516492421303}, {"current_trial": 15, "trialdata": {"rt": -1, "trial_type": "single-stim", "stimulus": "<p id=\"stim\">5</p>", "internal_node_id": "0.0-10.0-5.0", "time_elapsed": 128295, "key_press": -1, "trial_index": 15}, "uniqueid": "MTK1879:38F71OA9GU3SGM791L5NXZEMFWTFM1", "dateTime": 1516492422310}, {"current_trial": 16, "trialdata": {"rt": -1, "trial_type": "single-stim", "stimulus": "<p id=\"stim\">4</p>", "internal_node_id": "0.0-10.0-6.0", "time_elapsed": 129300, "key_press": -1, "trial_index": 16}, "uniqueid": "MTK1879:38F71OA9GU3SGM791L5NXZEMFWTFM1", "dateTime": 1516492423316}, {"current_trial": 17, "trialdata": {"rt": -1, "trial_type": "single-stim", "stimulus": "<p id=\"stim\">3</p>", "internal_node_id": "0.0-10.0-7.0", "time_elapsed": 130308, "key_press": -1, "trial_index": 17}, "uniqueid": "MTK1879:38F71OA9GU3SGM791L5NXZEMFWTFM1", "dateTime": 1516492424323}, {"current_trial": 18, "trialdata": {"rt": -1, "trial_type": "single-stim", "stimulus": "<p id=\"stim\">2</p>", "internal_node_id": "0.0-10.0-8.0", "time_elapsed": 131314, "key_press": -1, "trial_index": 18}, "uniqueid": "MTK1879:38F71OA9GU3SGM791L5NXZEMFWTFM1", "dateTime": 1516492425329}, {"current_trial": 19, "trialdata": {"rt": -1, "trial_type": "single-stim", "stimulus": "<p id=\"stim\">1</p>", "internal_node_id": "0.0-10.0-9.0", "time_elapsed": 132318, "key_press": -1, "trial_index": 19}, "uniqueid": "MTK1879:38F71OA9GU3SGM791L5NXZEMFWTFM1", "dateTime": 1516492426333}, {"current_trial": 20, "trialdata": {"rt": -1, "trial_type": "single-stim", "stimulus": "<p id=\"stim\">+</p>", "internal_node_id": "0.0-11.0-0.0", "time_elapsed": 133821, "key_press": -1, "type": "FIXATION", "trial_index": 20}, "uniqueid": "MTK1879:38F71OA9GU3SGM791L5NXZEMFWTFM1", "dateTime": 1516492427836}, {"current_trial": 21, "trialdata": {"rt": -1000, "trial_type": "single-audio", "word": "wrist", "stimulus": "/static/audio/wordpool/WRIST.wav", "conditions": [18, 1200, "a", 18000], "internal_node_id": "0.0-12.0", "trial": 0, "time_elapsed": 136061, "serialpos": 0, "key_press": -1, "wordID": 1625, "type": "PRES_AUD", "trial_index": 21}, "uniqueid": "MTK1879:38F71OA9GU3SGM791L5NXZEMFWTFM1", "dateTime": 1516492430078}, {"current_trial": 22, "trialdata": {"rt": -1000, "trial_type": "single-audio", "word": "convict", "stimulus": "/static/audio/wordpool/CONVICT.wav", "conditions": [18, 1200, "a", 18000], "internal_node_id": "0.0-13.0", "trial": 0, "time_elapsed": 138308, "serialpos": 1, "key_press": -1, "wordID": 370, "type": "PRES_AUD", "trial_index": 22}, "uniqueid": "MTK1879:38F71OA9GU3SGM791L5NXZEMFWTFM1", "dateTime": 1516492432323}, {"current_trial": 23, "trialdata": {"rt": -1000, "trial_type": "single-audio", "word": "hedge", "stimulus": "/static/audio/wordpool/HEDGE.wav", "conditions": [18, 1200, "a", 18000], "internal_node_id": "0.0-14.0", "trial": 0, "time_elapsed": 140541, "serialpos": 2, "key_press": -1, "wordID": 698, "type": "PRES_AUD", "trial_index": 23}, "uniqueid": "MTK1879:38F71OA9GU3SGM791L5NXZEMFWTFM1", "dateTime": 1516492434557}, {"current_trial": 24, "trialdata": {"rt": -1000, "trial_type": "single-audio", "word": "airplane", "stimulus": "/static/audio/wordpool/AIRPLANE.wav", "conditions": [18, 1200, "a", 18000], "internal_node_id": "0.0-15.0", "trial": 0, "time_elapsed": 142585, "serialpos": 3, "key_press": -1, "wordID": 11, "type": "PRES_AUD", "trial_index": 24}, "uniqueid": "MTK1879:38F71OA9GU3SGM791L5NXZEMFWTFM1", "dateTime": 1516492436600}, {"current_trial": 25, "trialdata": {"rt": -1000, "trial_type": "single-audio", "word": "pilot", "stimulus": "/static/audio/wordpool/PILOT.wav", "conditions": [18, 1200, "a", 18000], "internal_node_id": "0.0-16.0", "trial": 0, "time_elapsed": 144947, "serialpos": 4, "key_press": -1, "wordID": 1069, "type": "PRES_AUD", "trial_index": 25}, "uniqueid": "MTK1879:38F71OA9GU3SGM791L5NXZEMFWTFM1", "dateTime": 1516492438963}, {"current_trial": 26, "trialdata": {"rt": -1000, "trial_type": "single-audio", "word": "bacon", "stimulus": "/static/audio/wordpool/BACON.wav", "conditions": [18, 1200, "a", 18000], "internal_node_id": "0.0-17.0", "trial": 0, "time_elapsed": 147345, "serialpos": 5, "key_press": -1, "wordID": 66, "type": "PRES_AUD", "trial_index": 26}, "uniqueid": "MTK1879:38F71OA9GU3SGM791L5NXZEMFWTFM1", "dateTime": 1516492441360}, {"current_trial": 27, "trialdata": {"rt": -1000, "trial_type": "single-audio", "word": "uncle", "stimulus": "/static/audio/wordpool/UNCLE.wav", "conditions": [18, 1200, "a", 18000], "internal_node_id": "0.0-18.0", "trial": 0, "time_elapsed": 149491, "serialpos": 6, "key_press": -1, "wordID": 1535, "type": "PRES_AUD", "trial_index": 27}, "uniqueid": "MTK1879:38F71OA9GU3SGM791L5NXZEMFWTFM1", "dateTime": 1516492443506}, {"current_trial": 28, "trialdata": {"rt": -1000, "trial_type": "single-audio", "word": "army", "stimulus": "/static/audio/wordpool/ARMY.wav", "conditions": [18, 1200, "a", 18000], "internal_node_id": "0.0-19.0", "trial": 0, "time_elapsed": 151821, "serialpos": 7, "key_press": -1, "wordID": 38, "type": "PRES_AUD", "trial_index": 28}, "uniqueid": "MTK1879:38F71OA9GU3SGM791L5NXZEMFWTFM1", "dateTime": 1516492445836}, {"current_trial": 29, "trialdata": {"rt": -1000, "trial_type": "single-audio", "word": "slug", "stimulus": "/static/audio/wordpool/SLUG.wav", "conditions": [18, 1200, "a", 18000], "internal_node_id": "0.0-20.0", "trial": 0, "time_elapsed": 154008, "serialpos": 8, "key_press": -1, "wordID": 1328, "type": "PRES_AUD", "trial_index": 29}, "uniqueid": "MTK1879:38F71OA9GU3SGM791L5NXZEMFWTFM1", "dateTime": 1516492448023}, {"current_trial": 30, "trialdata": {"rt": -1000, "trial_type": "single-audio", "word": "xerox", "stimulus": "/static/audio/wordpool/XEROX.wav", "conditions": [18, 1200, "a", 18000], "internal_node_id": "0.0-21.0", "trial": 0, "time_elapsed": 156305, "serialpos": 9, "key_press": -1, "wordID": 1627, "type": "PRES_AUD", "trial_index": 30}, "uniqueid": "MTK1879:38F71OA9GU3SGM791L5NXZEMFWTFM1", "dateTime": 1516492450320}, {"current_trial": 31, "trialdata": {"rt": -1000, "trial_type": "single-audio", "word": "whistle", "stimulus": "/static/audio/wordpool/WHISTLE.wav", "conditions": [18, 1200, "a", 18000], "internal_node_id": "0.0-22.0", "trial": 0, "time_elapsed": 158597, "serialpos": 10, "key_press": -1, "wordID": 1605, "type": "PRES_AUD", "trial_index": 31}, "uniqueid": "MTK1879:38F71OA9GU3SGM791L5NXZEMFWTFM1", "dateTime": 1516492452613}, {"current_trial": 32, "trialdata": {"rt": -1000, "trial_type": "single-audio", "word": "cabin", "stimulus": "/static/audio/wordpool/CABIN.wav", "conditions": [18, 1200, "a", 18000], "internal_node_id": "0.0-23.0", "trial": 0, "time_elapsed": 160861, "serialpos": 11, "key_press": -1, "wordID": 210, "type": "PRES_AUD", "trial_index": 32}, "uniqueid": "MTK1879:38F71OA9GU3SGM791L5NXZEMFWTFM1", "dateTime": 1516492454876}, {"current_trial": 33, "trialdata": {"rt": -1000, "trial_type": "single-audio", "word": "ox", "stimulus": "/static/audio/wordpool/OX.wav", "conditions": [18, 1200, "a", 18000], "internal_node_id": "0.0-24.0", "trial": 0, "time_elapsed": 163113, "serialpos": 12, "key_press": -1, "wordID": 993, "type": "PRES_AUD", "trial_index": 33}, "uniqueid": "MTK1879:38F71OA9GU3SGM791L5NXZEMFWTFM1", "dateTime": 1516492457128}, {"current_trial": 34, "trialdata": {"rt": -1000, "trial_type": "single-audio", "word": "bank", "stimulus": "/static/audio/wordpool/BANK.wav", "conditions": [18, 1200, "a", 18000], "internal_node_id": "0.0-25.0", "trial": 0, "time_elapsed": 165376, "serialpos": 13, "key_press": -1, "wordID": 82, "type": "PRES_AUD", "trial_index": 34}, "uniqueid": "MTK1879:38F71OA9GU3SGM791L5NXZEMFWTFM1", "dateTime": 1516492459391}, {"current_trial": 35, "trialdata": {"rt": -1000, "trial_type": "single-audio", "word": "salmon", "stimulus": "/static/audio/wordpool/SALMON.wav", "conditions": [18, 1200, "a", 18000], "internal_node_id": "0.0-26.0", "trial": 0, "time_elapsed": 167500, "serialpos": 14, "key_press": -1, "wordID": 1226, "type": "PRES_AUD", "trial_index": 35}, "uniqueid": "MTK1879:38F71OA9GU3SGM791L5NXZEMFWTFM1", "dateTime": 1516492461515}, {"current_trial": 36, "trialdata": {"rt": -1000, "trial_type": "single-audio", "word": "goblin", "stimulus": "/static/audio/wordpool/GOBLIN.wav", "conditions": [18, 1200, "a", 18000], "internal_node_id": "0.0-27.0", "trial": 0, "time_elapsed": 169834, "serialpos": 15, "key_press": -1, "wordID": 644, "type": "PRES_AUD", "trial_index": 36}, "uniqueid": "MTK1879:38F71OA9GU3SGM791L5NXZEMFWTFM1", "dateTime": 1516492463849}, {"current_trial": 37, "trialdata": {"rt": -1000, "trial_type": "single-audio", "word": "tombstone", "stimulus": "/static/audio/wordpool/TOMBSTONE.wav", "conditions": [18, 1200, "a", 18000], "internal_node_id": "0.0-28.0", "trial": 0, "time_elapsed": 171847, "serialpos": 16, "key_press": -1, "wordID": 1477, "type": "PRES_AUD", "trial_index": 37}, "uniqueid": "MTK1879:38F71OA9GU3SGM791L5NXZEMFWTFM1", "dateTime": 1516492465862}, {"current_trial": 38, "trialdata": {"rt": -1000, "trial_type": "single-audio", "word": "thread", "stimulus": "/static/audio/wordpool/THREAD.wav", "conditions": [18, 1200, "a", 18000], "internal_node_id": "0.0-29.0", "trial": 0, "time_elapsed": 174221, "serialpos": 17, "key_press": -1, "wordID": 1459, "type": "PRES_AUD", "trial_index": 38}, "uniqueid": "MTK1879:38F71OA9GU3SGM791L5NXZEMFWTFM1", "dateTime": 1516492468236}, {"current_trial": 39, "trialdata": {"rt": -1, "trial_type": "single-stim", "stimulus": "", "internal_node_id": "0.0-30.0-0.0", "time_elapsed": 175527, "key_press": -1, "type": "PRE_RECALL_DELAY", "trial_index": 39}, "uniqueid": "MTK1879:38F71OA9GU3SGM791L5NXZEMFWTFM1", "dateTime": 1516492469543}, {"current_trial": 40, "trialdata": {"rt": -1000, "trial_type": "single-audio", "stimulus": "/static/audio/400Hz.wav", "internal_node_id": "0.0-31.0", "time_elapsed": 176029, "key_press": -1, "type": "PRE_RECALL_ALERT", "trial_index": 40}, "uniqueid": "MTK1879:38F71OA9GU3SGM791L5NXZEMFWTFM1", "dateTime": 1516492470045}, {"current_trial": 41, "trialdata": {"rt": [1877, 3629, 4655, 5943, 7030, 8485], "recwords": ["goblin", "tombstone", "thread", "salmon", "ox", ""], "key_times": [864, 942, 1037, 1165, 1326, 1512, 1877, 2463, 2527, 2725, 2829, 3047, 3150, 3221, 3390, 3478, 3629, 3909, 4037, 4119, 4205, 4270, 4485, 4655, 5023, 5191, 5295, 5470, 5606, 5757, 5943, 6701, 6878, 7030, 8485], "trial_type": "free-recall", "conditions": [18, 1200, "a", 18000], "internal_node_id": "0.0-32.0-0.0", "key_presses": [71, 79, 66, 76, 73, 78, 13, 84, 79, 77, 66, 83, 84, 79, 78, 69, 13, 84, 72, 82, 69, 65, 68, 13, 83, 65, 76, 77, 79, 78, 13, 79, 88, 13, 13], "trial": 0, "time_elapsed": 236033, "type": "FREE_RECALL", "trial_index": 41}, "uniqueid": "MTK1879:38F71OA9GU3SGM791L5NXZEMFWTFM1", "dateTime": 1516492530050}, {"current_trial": 42, "trialdata": {"rt": 1762, "trial_type": "text", "internal_node_id": "0.0-33.0", "time_elapsed": 239804, "key_press": 32, "type": "INSTRUCTIONS", "trial_index": 42}, "uniqueid": "MTK1879:38F71OA9GU3SGM791L5NXZEMFWTFM1", "dateTime": 1516492533819}, {"current_trial": 43, "trialdata": {"rt": [6004, 8683, 11668], "trial_type": "math-distractor", "key_times": [5683, 5796, 6004, 8268, 8572, 8683, 11210, 11396, 11668], "responses": ["20", "16", "16"], "num2": [5, 5, 3, 9], "num3": [7, 2, 4, 7], "conditions": [18, 1200, "a", 18000], "internal_node_id": "0.0-34.0", "key_presses": [50, 48, 13, 49, 54, 13, 49, 54, 13], "trial": 1, "time_elapsed": 259812, "type": "DISTRACTOR", "trial_index": 43, "num1": [8, 9, 9, 7]}, "uniqueid": "MTK1879:38F71OA9GU3SGM791L5NXZEMFWTFM1", "dateTime": 1516492553827}, {"current_trial": 44, "trialdata": {"rt": -1, "trial_type": "single-stim", "stimulus": "<p id=\"stim\">10</p>", "internal_node_id": "0.0-35.0-0.0", "time_elapsed": 262824, "key_press": -1, "trial_index": 44}, "uniqueid": "MTK1879:38F71OA9GU3SGM791L5NXZEMFWTFM1", "dateTime": 1516492556839}, {"current_trial": 45, "trialdata": {"rt": -1, "trial_type": "single-stim", "stimulus": "<p id=\"stim\">9</p>", "internal_node_id": "0.0-35.0-1.0", "time_elapsed": 263829, "key_press": -1, "trial_index": 45}, "uniqueid": "MTK1879:38F71OA9GU3SGM791L5NXZEMFWTFM1", "dateTime": 1516492557844}, {"current_trial": 46, "trialdata": {"rt": -1, "trial_type": "single-stim", "stimulus": "<p id=\"stim\">8</p>", "internal_node_id": "0.0-35.0-2.0", "time_elapsed": 264835, "key_press": -1, "trial_index": 46}, "uniqueid": "MTK1879:38F71OA9GU3SGM791L5NXZEMFWTFM1", "dateTime": 1516492558850}, {"current_trial": 47, "trialdata": {"rt": -1, "trial_type": "single-stim", "stimulus": "<p id=\"stim\">7</p>", "internal_node_id": "0.0-35.0-3.0", "time_elapsed": 265842, "key_press": -1, "trial_index": 47}, "uniqueid": "MTK1879:38F71OA9GU3SGM791L5NXZEMFWTFM1", "dateTime": 1516492559857}, {"current_trial": 48, "trialdata": {"rt": -1, "trial_type": "single-stim", "stimulus": "<p id=\"stim\">6</p>", "internal_node_id": "0.0-35.0-4.0", "time_elapsed": 266848, "key_press": -1, "trial_index": 48}, "uniqueid": "MTK1879:38F71OA9GU3SGM791L5NXZEMFWTFM1", "dateTime": 1516492560864}, {"current_trial": 49, "trialdata": {"rt": -1, "trial_type": "single-stim", "stimulus": "<p id=\"stim\">5</p>", "internal_node_id": "0.0-35.0-5.0", "time_elapsed": 267855, "key_press": -1, "trial_index": 49}, "uniqueid": "MTK1879:38F71OA9GU3SGM791L5NXZEMFWTFM1", "dateTime": 1516492561870}, {"current_trial": 50, "trialdata": {"rt": -1, "trial_type": "single-stim", "stimulus": "<p id=\"stim\">4</p>", "internal_node_id": "0.0-35.0-6.0", "time_elapsed": 268860, "key_press": -1, "trial_index": 50}, "uniqueid": "MTK1879:38F71OA9GU3SGM791L5NXZEMFWTFM1", "dateTime": 1516492562875}, {"current_trial": 51, "trialdata": {"rt": -1, "trial_type": "single-stim", "stimulus": "<p id=\"stim\">3</p>", "internal_node_id": "0.0-35.0-7.0", "time_elapsed": 269866, "key_press": -1, "trial_index": 51}, "uniqueid": "MTK1879:38F71OA9GU3SGM791L5NXZEMFWTFM1", "dateTime": 1516492563881}, {"current_trial": 52, "trialdata": {"rt": -1, "trial_type": "single-stim", "stimulus": "<p id=\"stim\">2</p>", "internal_node_id": "0.0-35.0-8.0", "time_elapsed": 270868, "key_press": -1, "trial_index": 52}, "uniqueid": "MTK1879:38F71OA9GU3SGM791L5NXZEMFWTFM1", "dateTime": 1516492564883}, {"current_trial": 53, "trialdata": {"rt": -1, "trial_type": "single-stim", "stimulus": "<p id=\"stim\">1</p>", "internal_node_id": "0.0-35.0-9.0", "time_elapsed": 271874, "key_press": -1, "trial_index": 53}, "uniqueid": "MTK1879:38F71OA9GU3SGM791L5NXZEMFWTFM1", "dateTime": 1516492565889}, {"current_trial": 54, "trialdata": {"rt": -1, "trial_type": "single-stim", "stimulus": "<p id=\"stim\">+</p>", "internal_node_id": "0.0-36.0-0.0", "time_elapsed": 273380, "key_press": -1, "type": "FIXATION", "trial_index": 54}, "uniqueid": "MTK1879:38F71OA9GU3SGM791L5NXZEMFWTFM1", "dateTime": 1516492567395}, {"current_trial": 55, "trialdata": {"rt": -1000, "trial_type": "single-audio", "word": "venus", "stimulus": "/static/audio/wordpool/VENUS.wav", "conditions": [18, 1200, "a", 18000], "internal_node_id": "0.0-37.0", "trial": 1, "time_elapsed": 275476, "serialpos": 0, "key_press": -1, "wordID": 1556, "type": "PRES_AUD", "trial_index": 55}, "uniqueid": "MTK1879:38F71OA9GU3SGM791L5NXZEMFWTFM1", "dateTime": 1516492569491}, {"current_trial": 56, "trialdata": {"rt": -1000, "trial_type": "single-audio", "word": "sausage", "stimulus": "/static/audio/wordpool/SAUSAGE.wav", "conditions": [18, 1200, "a", 18000], "internal_node_id": "0.0-38.0", "trial": 1, "time_elapsed": 277838, "serialpos": 1, "key_press": -1, "wordID": 1237, "type": "PRES_AUD", "trial_index": 56}, "uniqueid": "MTK1879:38F71OA9GU3SGM791L5NXZEMFWTFM1", "dateTime": 1516492571853}, {"current_trial": 57, "trialdata": {"rt": -1000, "trial_type": "single-audio", "word": "stallion", "stimulus": "/static/audio/wordpool/STALLION.wav", "conditions": [18, 1200, "a", 18000], "internal_node_id": "0.0-39.0", "trial": 1, "time_elapsed": 280153, "serialpos": 2, "key_press": -1, "wordID": 1368, "type": "PRES_AUD", "trial_index": 57}, "uniqueid": "MTK1879:38F71OA9GU3SGM791L5NXZEMFWTFM1", "dateTime": 1516492574169}, {"current_trial": 58, "trialdata": {"rt": -1000, "trial_type": "single-audio", "word": "server", "stimulus": "/static/audio/wordpool/SERVER.wav", "conditions": [18, 1200, "a", 18000], "internal_node_id": "0.0-40.0", "trial": 1, "time_elapsed": 282475, "serialpos": 3, "key_press": -1, "wordID": 1271, "type": "PRES_AUD", "trial_index": 58}, "uniqueid": "MTK1879:38F71OA9GU3SGM791L5NXZEMFWTFM1", "dateTime": 1516492576490}, {"current_trial": 59, "trialdata": {"rt": -1000, "trial_type": "single-audio", "word": "slime", "stimulus": "/static/audio/wordpool/SLIME.wav", "conditions": [18, 1200, "a", 18000], "internal_node_id": "0.0-41.0", "trial": 1, "time_elapsed": 284809, "serialpos": 4, "key_press": -1, "wordID": 1326, "type": "PRES_AUD", "trial_index": 59}, "uniqueid": "MTK1879:38F71OA9GU3SGM791L5NXZEMFWTFM1", "dateTime": 1516492578824}, {"current_trial": 60, "trialdata": {"rt": -1000, "trial_type": "single-audio", "word": "ankle", "stimulus": "/static/audio/wordpool/ANKLE.wav", "conditions": [18, 1200, "a", 18000], "internal_node_id": "0.0-42.0", "trial": 1, "time_elapsed": 286930, "serialpos": 5, "key_press": -1, "wordID": 23, "type": "PRES_AUD", "trial_index": 60}, "uniqueid": "MTK1879:38F71OA9GU3SGM791L5NXZEMFWTFM1", "dateTime": 1516492580945}, {"current_trial": 61, "trialdata": {"rt": -1000, "trial_type": "single-audio", "word": "neutron", "stimulus": "/static/audio/wordpool/NEUTRON.wav", "conditions": [18, 1200, "a", 18000], "internal_node_id": "0.0-43.0", "trial": 1, "time_elapsed": 289296, "serialpos": 6, "key_press": -1, "wordID": 946, "type": "PRES_AUD", "trial_index": 61}, "uniqueid": "MTK1879:38F71OA9GU3SGM791L5NXZEMFWTFM1", "dateTime": 1516492583311}, {"current_trial": 62, "trialdata": {"rt": -1000, "trial_type": "single-audio", "word": "spider", "stimulus": "/static/audio/wordpool/SPIDER.wav", "conditions": [18, 1200, "a", 18000], "internal_node_id": "0.0-44.0", "trial": 1, "time_elapsed": 291344, "serialpos": 7, "key_press": -1, "wordID": 1350, "type": "PRES_AUD", "trial_index": 62}, "uniqueid": "MTK1879:38F71OA9GU3SGM791L5NXZEMFWTFM1", "dateTime": 1516492585359}, {"current_trial": 63, "trialdata": {"rt": -1000, "trial_type": "single-audio", "word": "juggler", "stimulus": "/static/audio/wordpool/JUGGLER.wav", "conditions": [18, 1200, "a", 18000], "internal_node_id": "0.0-45.0", "trial": 1, "time_elapsed": 293736, "serialpos": 8, "key_press": -1, "wordID": 762, "type": "PRES_AUD", "trial_index": 63}, "uniqueid": "MTK1879:38F71OA9GU3SGM791L5NXZEMFWTFM1", "dateTime": 1516492587751}, {"current_trial": 64, "trialdata": {"rt": -1000, "trial_type": "single-audio", "word": "atom", "stimulus": "/static/audio/wordpool/ATOM.wav", "conditions": [18, 1200, "a", 18000], "internal_node_id": "0.0-46.0", "trial": 1, "time_elapsed": 295813, "serialpos": 9, "key_press": -1, "wordID": 54, "type": "PRES_AUD", "trial_index": 64}, "uniqueid": "MTK1879:38F71OA9GU3SGM791L5NXZEMFWTFM1", "dateTime": 1516492589828}, {"current_trial": 65, "trialdata": {"rt": -1000, "trial_type": "single-audio", "word": "napkin", "stimulus": "/static/audio/wordpool/NAPKIN.wav", "conditions": [18, 1200, "a", 18000], "internal_node_id": "0.0-47.0", "trial": 1, "time_elapsed": 297954, "serialpos": 10, "key_press": -1, "wordID": 936, "type": "PRES_AUD", "trial_index": 65}, "uniqueid": "MTK1879:38F71OA9GU3SGM791L5NXZEMFWTFM1", "dateTime": 1516492591970}, {"current_trial": 66, "trialdata": {"rt": -1000, "trial_type": "single-audio", "word": "muffin", "stimulus": "/static/audio/wordpool/MUFFIN.wav", "conditions": [18, 1200, "a", 18000], "internal_node_id": "0.0-48.0", "trial": 1, "time_elapsed": 299986, "serialpos": 11, "key_press": -1, "wordID": 928, "type": "PRES_AUD", "trial_index": 66}, "uniqueid": "MTK1879:38F71OA9GU3SGM791L5NXZEMFWTFM1", "dateTime": 1516492594001}, {"current_trial": 67, "trialdata": {"rt": -1000, "trial_type": "single-audio", "word": "penguin", "stimulus": "/static/audio/wordpool/PENGUIN.wav", "conditions": [18, 1200, "a", 18000], "internal_node_id": "0.0-49.0", "trial": 1, "time_elapsed": 302179, "serialpos": 12, "key_press": -1, "wordID": 1043, "type": "PRES_AUD", "trial_index": 67}, "uniqueid": "MTK1879:38F71OA9GU3SGM791L5NXZEMFWTFM1", "dateTime": 1516492596194}, {"current_trial": 68, "trialdata": {"rt": -1000, "trial_type": "single-audio", "word": "dime", "stimulus": "/static/audio/wordpool/DIME.wav", "conditions": [18, 1200, "a", 18000], "internal_node_id": "0.0-50.0", "trial": 1, "time_elapsed": 304211, "serialpos": 13, "key_press": -1, "wordID": 465, "type": "PRES_AUD", "trial_index": 68}, "uniqueid": "MTK1879:38F71OA9GU3SGM791L5NXZEMFWTFM1", "dateTime": 1516492598227}, {"current_trial": 69, "trialdata": {"rt": -1000, "trial_type": "single-audio", "word": "snail", "stimulus": "/static/audio/wordpool/SNAIL.wav", "conditions": [18, 1200, "a", 18000], "internal_node_id": "0.0-51.0", "trial": 1, "time_elapsed": 306288, "serialpos": 14, "key_press": -1, "wordID": 1331, "type": "PRES_AUD", "trial_index": 69}, "uniqueid": "MTK1879:38F71OA9GU3SGM791L5NXZEMFWTFM1", "dateTime": 1516492600303}, {"current_trial": 70, "trialdata": {"rt": -1000, "trial_type": "single-audio", "word": "hatchet", "stimulus": "/static/audio/wordpool/HATCHET.wav", "conditions": [18, 1200, "a", 18000], "internal_node_id": "0.0-52.0", "trial": 1, "time_elapsed": 308497, "serialpos": 15, "key_press": -1, "wordID": 690, "type": "PRES_AUD", "trial_index": 70}, "uniqueid": "MTK1879:38F71OA9GU3SGM791L5NXZEMFWTFM1", "dateTime": 1516492602512}, {"current_trial": 71, "trialdata": {"rt": -1000, "trial_type": "single-audio", "word": "drill", "stimulus": "/static/audio/wordpool/DRILL.wav", "conditions": [18, 1200, "a", 18000], "internal_node_id": "0.0-53.0", "trial": 1, "time_elapsed": 310827, "serialpos": 16, "key_press": -1, "wordID": 496, "type": "PRES_AUD", "trial_index": 71}, "uniqueid": "MTK1879:38F71OA9GU3SGM791L5NXZEMFWTFM1", "dateTime": 1516492604842}, {"current_trial": 72, "trialdata": {"rt": -1000, "trial_type": "single-audio", "word": "plaid", "stimulus": "/static/audio/wordpool/PLAID.wav", "conditions": [18, 1200, "a", 18000], "internal_node_id": "0.0-54.0", "trial": 1, "time_elapsed": 313137, "serialpos": 17, "key_press": -1, "wordID": 1079, "type": "PRES_AUD", "trial_index": 72}, "uniqueid": "MTK1879:38F71OA9GU3SGM791L5NXZEMFWTFM1", "dateTime": 1516492607152}, {"current_trial": 73, "trialdata": {"rt": -1, "trial_type": "single-stim", "stimulus": "", "internal_node_id": "0.0-55.0-0.0", "time_elapsed": 314460, "key_press": -1, "type": "PRE_RECALL_DELAY", "trial_index": 73}, "uniqueid": "MTK1879:38F71OA9GU3SGM791L5NXZEMFWTFM1", "dateTime": 1516492608476}, {"current_trial": 74, "trialdata": {"rt": -1000, "trial_type": "single-audio", "stimulus": "/static/audio/400Hz.wav", "internal_node_id": "0.0-56.0", "time_elapsed": 314961, "key_press": -1, "type": "PRE_RECALL_ALERT", "trial_index": 74}, "uniqueid": "MTK1879:38F71OA9GU3SGM791L5NXZEMFWTFM1", "dateTime": 1516492608977}, {"current_trial": 75, "trialdata": {"rt": [3095, 4177, 5927, 6841, 12281, 39698], "recwords": ["hatchet", "venus", "sausage", "drill", "flag", "dragon"], "key_times": [1384, 1415, 1511, 1727, 1863, 2383, 2912, 3095, 3495, 3599, 3697, 3840, 3945, 4177, 4401, 4529, 4665, 4897, 5257, 5303, 5567, 5695, 5783, 5927, 6147, 6305, 6345, 6527, 6655, 6841, 11603, 11707, 11801, 11939, 12281, 38818, 39090, 39170, 39290, 39355, 39538, 39698], "trial_type": "free-recall", "conditions": [18, 1200, "a", 18000], "internal_node_id": "0.0-57.0-0.0", "key_presses": [72, 65, 84, 67, 72, 69, 84, 13, 86, 69, 78, 85, 83, 13, 83, 65, 85, 71, 8, 83, 65, 71, 69, 13, 68, 82, 73, 76, 76, 13, 70, 76, 65, 71, 13, 68, 82, 65, 71, 79, 78, 13], "trial": 1, "time_elapsed": 374963, "type": "FREE_RECALL", "trial_index": 75}, "uniqueid": "MTK1879:38F71OA9GU3SGM791L5NXZEMFWTFM1", "dateTime": 1516492668980}, {"current_trial": 76, "trialdata": {"rt": 2343, "trial_type": "text", "internal_node_id": "0.0-58.0", "time_elapsed": 379312, "key_press": 74, "type": "INSTRUCTIONS", "trial_index": 76}, "uniqueid": "MTK1879:38F71OA9GU3SGM791L5NXZEMFWTFM1", "dateTime": 1516492673327}, {"current_trial": 77, "trialdata": {"rt": [9884, 14094, 23439], "trial_type": "math-distractor", "key_times": [9400, 9614, 9884, 13656, 13831, 14094, 22560, 22759, 23439], "responses": ["13", "18", "21"], "num2": [5, 9, 4, 6], "num3": [2, 3, 9, 1], "conditions": [12, 800, "a", 24000], "internal_node_id": "0.0-59.0", "key_presses": [49, 51, 13, 49, 56, 13, 50, 49, 13], "trial": 2, "time_elapsed": 404316, "type": "DISTRACTOR", "trial_index": 77, "num1": [6, 6, 8, 3]}, "uniqueid": "MTK1879:38F71OA9GU3SGM791L5NXZEMFWTFM1", "dateTime": 1516492698331}, {"current_trial": 78, "trialdata": {"rt": -1, "trial_type": "single-stim", "stimulus": "<p id=\"stim\">10</p>", "internal_node_id": "0.0-60.0-0.0", "time_elapsed": 407320, "key_press": -1, "trial_index": 78}, "uniqueid": "MTK1879:38F71OA9GU3SGM791L5NXZEMFWTFM1", "dateTime": 1516492701335}, {"current_trial": 79, "trialdata": {"rt": -1, "trial_type": "single-stim", "stimulus": "<p id=\"stim\">9</p>", "internal_node_id": "0.0-60.0-1.0", "time_elapsed": 408321, "key_press": -1, "trial_index": 79}, "uniqueid": "MTK1879:38F71OA9GU3SGM791L5NXZEMFWTFM1", "dateTime": 1516492702336}, {"current_trial": 80, "trialdata": {"rt": -1, "trial_type": "single-stim", "stimulus": "<p id=\"stim\">8</p>", "internal_node_id": "0.0-60.0-2.0", "time_elapsed": 409322, "key_press": -1, "trial_index": 80}, "uniqueid": "MTK1879:38F71OA9GU3SGM791L5NXZEMFWTFM1", "dateTime": 1516492703337}, {"current_trial": 81, "trialdata": {"rt": -1, "trial_type": "single-stim", "stimulus": "<p id=\"stim\">7</p>", "internal_node_id": "0.0-60.0-3.0", "time_elapsed": 410324, "key_press": -1, "trial_index": 81}, "uniqueid": "MTK1879:38F71OA9GU3SGM791L5NXZEMFWTFM1", "dateTime": 1516492704339}, {"current_trial": 82, "trialdata": {"rt": -1, "trial_type": "single-stim", "stimulus": "<p id=\"stim\">6</p>", "internal_node_id": "0.0-60.0-4.0", "time_elapsed": 411325, "key_press": -1, "trial_index": 82}, "uniqueid": "MTK1879:38F71OA9GU3SGM791L5NXZEMFWTFM1", "dateTime": 1516492705340}, {"current_trial": 83, "trialdata": {"rt": -1, "trial_type": "single-stim", "stimulus": "<p id=\"stim\">5</p>", "internal_node_id": "0.0-60.0-5.0", "time_elapsed": 412326, "key_press": -1, "trial_index": 83}, "uniqueid": "MTK1879:38F71OA9GU3SGM791L5NXZEMFWTFM1", "dateTime": 1516492706341}, {"current_trial": 84, "trialdata": {"rt": -1, "trial_type": "single-stim", "stimulus": "<p id=\"stim\">4</p>", "internal_node_id": "0.0-60.0-6.0", "time_elapsed": 413330, "key_press": -1, "trial_index": 84}, "uniqueid": "MTK1879:38F71OA9GU3SGM791L5NXZEMFWTFM1", "dateTime": 1516492707345}, {"current_trial": 85, "trialdata": {"rt": -1, "trial_type": "single-stim", "stimulus": "<p id=\"stim\">3</p>", "internal_node_id": "0.0-60.0-7.0", "time_elapsed": 414341, "key_press": -1, "trial_index": 85}, "uniqueid": "MTK1879:38F71OA9GU3SGM791L5NXZEMFWTFM1", "dateTime": 1516492708356}, {"current_trial": 86, "trialdata": {"rt": -1, "trial_type": "single-stim", "stimulus": "<p id=\"stim\">2</p>", "internal_node_id": "0.0-60.0-8.0", "time_elapsed": 415343, "key_press": -1, "trial_index": 86}, "uniqueid": "MTK1879:38F71OA9GU3SGM791L5NXZEMFWTFM1", "dateTime": 1516492709359}, {"current_trial": 87, "trialdata": {"rt": -1, "trial_type": "single-stim", "stimulus": "<p id=\"stim\">1</p>", "internal_node_id": "0.0-60.0-9.0", "time_elapsed": 416348, "key_press": -1, "trial_index": 87}, "uniqueid": "MTK1879:38F71OA9GU3SGM791L5NXZEMFWTFM1", "dateTime": 1516492710363}, {"current_trial": 88, "trialdata": {"rt": -1, "trial_type": "single-stim", "stimulus": "<p id=\"stim\">+</p>", "internal_node_id": "0.0-61.0-0.0", "time_elapsed": 417851, "key_press": -1, "type": "FIXATION", "trial_index": 88}, "uniqueid": "MTK1879:38F71OA9GU3SGM791L5NXZEMFWTFM1", "dateTime": 1516492711866}, {"current_trial": 89, "trialdata": {"rt": -1000, "trial_type": "single-audio", "word": "cupboard", "stimulus": "/static/audio/wordpool/CUPBOARD.wav", "conditions": [12, 800, "a", 24000], "internal_node_id": "0.0-62.0", "trial": 2, "time_elapsed": 419812, "serialpos": 0, "key_press": -1, "wordID": 424, "type": "PRES_AUD", "trial_index": 89}, "uniqueid": "MTK1879:38F71OA9GU3SGM791L5NXZEMFWTFM1", "dateTime": 1516492713827}, {"current_trial": 90, "trialdata": {"rt": -1000, "trial_type": "single-audio", "word": "kitchen", "stimulus": "/static/audio/wordpool/KITCHEN.wav", "conditions": [12, 800, "a", 24000], "internal_node_id": "0.0-63.0", "trial": 2, "time_elapsed": 421461, "serialpos": 1, "key_press": -1, "wordID": 777, "type": "PRES_AUD", "trial_index": 90}, "uniqueid": "MTK1879:38F71OA9GU3SGM791L5NXZEMFWTFM1", "dateTime": 1516492715476}, {"current_trial": 91, "trialdata": {"rt": -1000, "trial_type": "single-audio", "word": "peach", "stimulus": "/static/audio/wordpool/PEACH.wav", "conditions": [12, 800, "a", 24000], "internal_node_id": "0.0-64.0", "trial": 2, "time_elapsed": 423218, "serialpos": 2, "key_press": -1, "wordID": 1030, "type": "PRES_AUD", "trial_index": 91}, "uniqueid": "MTK1879:38F71OA9GU3SGM791L5NXZEMFWTFM1", "dateTime": 1516492717233}, {"current_trial": 92, "trialdata": {"rt": -1000, "trial_type": "single-audio", "word": "lightning", "stimulus": "/static/audio/wordpool/LIGHTNING.wav", "conditions": [12, 800, "a", 24000], "internal_node_id": "0.0-65.0", "trial": 2, "time_elapsed": 425120, "serialpos": 3, "key_press": -1, "wordID": 819, "type": "PRES_AUD", "trial_index": 92}, "uniqueid": "MTK1879:38F71OA9GU3SGM791L5NXZEMFWTFM1", "dateTime": 1516492719135}, {"current_trial": 93, "trialdata": {"rt": -1000, "trial_type": "single-audio", "word": "robin", "stimulus": "/static/audio/wordpool/ROBIN.wav", "conditions": [12, 800, "a", 24000], "internal_node_id": "0.0-66.0", "trial": 2, "time_elapsed": 426910, "serialpos": 4, "key_press": -1, "wordID": 1198, "type": "PRES_AUD", "trial_index": 93}, "uniqueid": "MTK1879:38F71OA9GU3SGM791L5NXZEMFWTFM1", "dateTime": 1516492720925}, {"current_trial": 94, "trialdata": {"rt": -1000, "trial_type": "single-audio", "word": "swimmer", "stimulus": "/static/audio/wordpool/SWIMMER.wav", "conditions": [12, 800, "a", 24000], "internal_node_id": "0.0-67.0", "trial": 2, "time_elapsed": 428800, "serialpos": 5, "key_press": -1, "wordID": 1419, "type": "PRES_AUD", "trial_index": 94}, "uniqueid": "MTK1879:38F71OA9GU3SGM791L5NXZEMFWTFM1", "dateTime": 1516492722815}, {"current_trial": 95, "trialdata": {"rt": -1000, "trial_type": "single-audio", "word": "outlaw", "stimulus": "/static/audio/wordpool/OUTLAW.wav", "conditions": [12, 800, "a", 24000], "internal_node_id": "0.0-68.0", "trial": 2, "time_elapsed": 430735, "serialpos": 6, "key_press": -1, "wordID": 988, "type": "PRES_AUD", "trial_index": 95}, "uniqueid": "MTK1879:38F71OA9GU3SGM791L5NXZEMFWTFM1", "dateTime": 1516492724750}, {"current_trial": 96, "trialdata": {"rt": -1000, "trial_type": "single-audio", "word": "college", "stimulus": "/static/audio/wordpool/COLLEGE.wav", "conditions": [12, 800, "a", 24000], "internal_node_id": "0.0-69.0", "trial": 2, "time_elapsed": 432656, "serialpos": 7, "key_press": -1, "wordID": 345, "type": "PRES_AUD", "trial_index": 96}, "uniqueid": "MTK1879:38F71OA9GU3SGM791L5NXZEMFWTFM1", "dateTime": 1516492726672}, {"current_trial": 97, "trialdata": {"rt": -1000, "trial_type": "single-audio", "word": "daughter", "stimulus": "/static/audio/wordpool/DAUGHTER.wav", "conditions": [12, 800, "a", 24000], "internal_node_id": "0.0-70.0", "trial": 2, "time_elapsed": 434408, "serialpos": 8, "key_press": -1, "wordID": 441, "type": "PRES_AUD", "trial_index": 97}, "uniqueid": "MTK1879:38F71OA9GU3SGM791L5NXZEMFWTFM1", "dateTime": 1516492728423}, {"current_trial": 98, "trialdata": {"rt": -1000, "trial_type": "single-audio", "word": "brook", "stimulus": "/static/audio/wordpool/BROOK.wav", "conditions": [12, 800, "a", 24000], "internal_node_id": "0.0-71.0", "trial": 2, "time_elapsed": 436377, "serialpos": 9, "key_press": -1, "wordID": 176, "type": "PRES_AUD", "trial_index": 98}, "uniqueid": "MTK1879:38F71OA9GU3SGM791L5NXZEMFWTFM1", "dateTime": 1516492730392}, {"current_trial": 99, "trialdata": {"rt": -1000, "trial_type": "single-audio", "word": "fruit", "stimulus": "/static/audio/wordpool/FRUIT.wav", "conditions": [12, 800, "a", 24000], "internal_node_id": "0.0-72.0", "trial": 2, "time_elapsed": 438373, "serialpos": 10, "key_press": -1, "wordID": 609, "type": "PRES_AUD", "trial_index": 99}, "uniqueid": "MTK1879:38F71OA9GU3SGM791L5NXZEMFWTFM1", "dateTime": 1516492732388}, {"current_trial": 100, "trialdata": {"rt": -1000, "trial_type": "single-audio", "word": "hawk", "stimulus": "/static/audio/wordpool/HAWK.wav", "conditions": [12, 800, "a", 24000], "internal_node_id": "0.0-73.0", "trial": 2, "time_elapsed": 440021, "serialpos": 11, "key_press": -1, "wordID": 691, "type": "PRES_AUD", "trial_index": 100}, "uniqueid": "MTK1879:38F71OA9GU3SGM791L5NXZEMFWTFM1", "dateTime": 1516492734037}, {"current_trial": 101, "trialdata": {"rt": -1, "trial_type": "single-stim", "stimulus": "", "internal_node_id": "0.0-74.0-0.0", "time_elapsed": 441296, "key_press": -1, "type": "PRE_RECALL_DELAY", "trial_index": 101}, "uniqueid": "MTK1879:38F71OA9GU3SGM791L5NXZEMFWTFM1", "dateTime": 1516492735311}, {"current_trial": 102, "trialdata": {"rt": -1000, "trial_type": "single-audio", "stimulus": "/static/audio/400Hz.wav", "internal_node_id": "0.0-75.0", "time_elapsed": 441797, "key_press": -1, "type": "PRE_RECALL_ALERT", "trial_index": 102}, "uniqueid": "MTK1879:38F71OA9GU3SGM791L5NXZEMFWTFM1", "dateTime": 1516492735812}, {"current_trial": 103, "trialdata": {"rt": [892, 2468, 4156], "recwords": ["hawk", "garbage", "cupboard"], "key_times": [415, 444, 572, 684, 892, 1052, 1204, 1293, 1511, 1751, 1947, 2148, 2276, 2348, 2468, 2716, 2884, 3084, 3268, 3508, 3580, 3731, 3805, 3901, 4076, 4156], "trial_type": "free-recall", "conditions": [12, 800, "a", 24000], "internal_node_id": "0.0-76.0-0.0", "key_presses": [72, 65, 87, 75, 13, 71, 65, 82, 71, 8, 66, 65, 71, 69, 13, 67, 85, 80, 79, 8, 66, 79, 65, 82, 68, 13], "trial": 2, "time_elapsed": 501806, "type": "FREE_RECALL", "trial_index": 103}, "uniqueid": "MTK1879:38F71OA9GU3SGM791L5NXZEMFWTFM1", "dateTime": 1516492795823}, {"current_trial": 104, "trialdata": {"rt": 9968, "trial_type": "text", "internal_node_id": "0.0-77.0", "time_elapsed": 513784, "key_press": 32, "type": "INSTRUCTIONS", "trial_index": 104}, "uniqueid": "MTK1879:38F71OA9GU3SGM791L5NXZEMFWTFM1", "dateTime": 1516492807799}, {"current_trial": 105, "trialdata": {"rt": [5872, 9311, 11647], "trial_type": "math-distractor", "key_times": [5507, 5695, 5872, 8919, 9058, 9311, 11311, 11503, 11647], "responses": ["20", "17", "14"], "num2": [8, 9, 6, 1], "num3": [8, 4, 2, 6], "conditions": [12, 800, "a", 12000], "internal_node_id": "0.0-78.0", "key_presses": [50, 48, 13, 49, 55, 13, 49, 52, 13], "trial": 3, "time_elapsed": 527806, "type": "DISTRACTOR", "trial_index": 105, "num1": [4, 4, 6, 8]}, "uniqueid": "MTK1879:38F71OA9GU3SGM791L5NXZEMFWTFM1", "dateTime": 1516492821821}, {"current_trial": 106, "trialdata": {"rt": -1, "trial_type": "single-stim", "stimulus": "<p id=\"stim\">10</p>", "internal_node_id": "0.0-79.0-0.0", "time_elapsed": 530809, "key_press": -1, "trial_index": 106}, "uniqueid": "MTK1879:38F71OA9GU3SGM791L5NXZEMFWTFM1", "dateTime": 1516492824824}, {"current_trial": 107, "trialdata": {"rt": -1, "trial_type": "single-stim", "stimulus": "<p id=\"stim\">9</p>", "internal_node_id": "0.0-79.0-1.0", "time_elapsed": 531810, "key_press": -1, "trial_index": 107}, "uniqueid": "MTK1879:38F71OA9GU3SGM791L5NXZEMFWTFM1", "dateTime": 1516492825825}, {"current_trial": 108, "trialdata": {"rt": -1, "trial_type": "single-stim", "stimulus": "<p id=\"stim\">8</p>", "internal_node_id": "0.0-79.0-2.0", "time_elapsed": 532812, "key_press": -1, "trial_index": 108}, "uniqueid": "MTK1879:38F71OA9GU3SGM791L5NXZEMFWTFM1", "dateTime": 1516492826827}, {"current_trial": 109, "trialdata": {"rt": -1, "trial_type": "single-stim", "stimulus": "<p id=\"stim\">7</p>", "internal_node_id": "0.0-79.0-3.0", "time_elapsed": 533817, "key_press": -1, "trial_index": 109}, "uniqueid": "MTK1879:38F71OA9GU3SGM791L5NXZEMFWTFM1", "dateTime": 1516492827832}, {"current_trial": 110, "trialdata": {"rt": -1, "trial_type": "single-stim", "stimulus": "<p id=\"stim\">6</p>", "internal_node_id": "0.0-79.0-4.0", "time_elapsed": 534821, "key_press": -1, "trial_index": 110}, "uniqueid": "MTK1879:38F71OA9GU3SGM791L5NXZEMFWTFM1", "dateTime": 1516492828836}, {"current_trial": 111, "trialdata": {"rt": -1, "trial_type": "single-stim", "stimulus": "<p id=\"stim\">5</p>", "internal_node_id": "0.0-79.0-5.0", "time_elapsed": 535824, "key_press": -1, "trial_index": 111}, "uniqueid": "MTK1879:38F71OA9GU3SGM791L5NXZEMFWTFM1", "dateTime": 1516492829839}, {"current_trial": 112, "trialdata": {"rt": -1, "trial_type": "single-stim", "stimulus": "<p id=\"stim\">4</p>", "internal_node_id": "0.0-79.0-6.0", "time_elapsed": 536825, "key_press": -1, "trial_index": 112}, "uniqueid": "MTK1879:38F71OA9GU3SGM791L5NXZEMFWTFM1", "dateTime": 1516492830840}, {"current_trial": 113, "trialdata": {"rt": -1, "trial_type": "single-stim", "stimulus": "<p id=\"stim\">3</p>", "internal_node_id": "0.0-79.0-7.0", "time_elapsed": 537826, "key_press": -1, "trial_index": 113}, "uniqueid": "MTK1879:38F71OA9GU3SGM791L5NXZEMFWTFM1", "dateTime": 1516492831842}, {"current_trial": 114, "trialdata": {"rt": -1, "trial_type": "single-stim", "stimulus": "<p id=\"stim\">2</p>", "internal_node_id": "0.0-79.0-8.0", "time_elapsed": 538830, "key_press": -1, "trial_index": 114}, "uniqueid": "MTK1879:38F71OA9GU3SGM791L5NXZEMFWTFM1", "dateTime": 1516492832845}, {"current_trial": 115, "trialdata": {"rt": -1, "trial_type": "single-stim", "stimulus": "<p id=\"stim\">1</p>", "internal_node_id": "0.0-79.0-9.0", "time_elapsed": 539833, "key_press": -1, "trial_index": 115}, "uniqueid": "MTK1879:38F71OA9GU3SGM791L5NXZEMFWTFM1", "dateTime": 1516492833849}, {"current_trial": 116, "trialdata": {"rt": -1, "trial_type": "single-stim", "stimulus": "<p id=\"stim\">+</p>", "internal_node_id": "0.0-80.0-0.0", "time_elapsed": 541336, "key_press": -1, "type": "FIXATION", "trial_index": 116}, "uniqueid": "MTK1879:38F71OA9GU3SGM791L5NXZEMFWTFM1", "dateTime": 1516492835351}, {"current_trial": 117, "trialdata": {"rt": -1000, "trial_type": "single-audio", "word": "silk", "stimulus": "/static/audio/wordpool/SILK.wav", "conditions": [12, 800, "a", 12000], "internal_node_id": "0.0-81.0", "trial": 3, "time_elapsed": 542684, "serialpos": 0, "key_press": -1, "wordID": 1306, "type": "PRES_AUD", "trial_index": 117}, "uniqueid": "MTK1879:38F71OA9GU3SGM791L5NXZEMFWTFM1", "dateTime": 1516492836700}, {"current_trial": 118, "trialdata": {"rt": -1000, "trial_type": "single-audio", "word": "jelly", "stimulus": "/static/audio/wordpool/JELLY.wav", "conditions": [12, 800, "a", 12000], "internal_node_id": "0.0-82.0", "trial": 3, "time_elapsed": 544660, "serialpos": 1, "key_press": -1, "wordID": 754, "type": "PRES_AUD", "trial_index": 118}, "uniqueid": "MTK1879:38F71OA9GU3SGM791L5NXZEMFWTFM1", "dateTime": 1516492838675}, {"current_trial": 119, "trialdata": {"rt": -1000, "trial_type": "single-audio", "word": "bike", "stimulus": "/static/audio/wordpool/BIKE.wav", "conditions": [12, 800, "a", 12000], "internal_node_id": "0.0-83.0", "trial": 3, "time_elapsed": 546375, "serialpos": 2, "key_press": -1, "wordID": 124, "type": "PRES_AUD", "trial_index": 119}, "uniqueid": "MTK1879:38F71OA9GU3SGM791L5NXZEMFWTFM1", "dateTime": 1516492840390}, {"current_trial": 120, "trialdata": {"rt": -1000, "trial_type": "single-audio", "word": "waiter", "stimulus": "/static/audio/wordpool/WAITER.wav", "conditions": [12, 800, "a", 12000], "internal_node_id": "0.0-84.0", "trial": 3, "time_elapsed": 548081, "serialpos": 3, "key_press": -1, "wordID": 1579, "type": "PRES_AUD", "trial_index": 120}, "uniqueid": "MTK1879:38F71OA9GU3SGM791L5NXZEMFWTFM1", "dateTime": 1516492842096}, {"current_trial": 121, "trialdata": {"rt": -1000, "trial_type": "single-audio", "word": "knife", "stimulus": "/static/audio/wordpool/KNIFE.wav", "conditions": [12, 800, "a", 12000], "internal_node_id": "0.0-85.0", "trial": 3, "time_elapsed": 550087, "serialpos": 4, "key_press": -1, "wordID": 784, "type": "PRES_AUD", "trial_index": 121}, "uniqueid": "MTK1879:38F71OA9GU3SGM791L5NXZEMFWTFM1", "dateTime": 1516492844102}, {"current_trial": 122, "trialdata": {"rt": -1000, "trial_type": "single-audio", "word": "glass", "stimulus": "/static/audio/wordpool/GLASS.wav", "conditions": [12, 800, "a", 12000], "internal_node_id": "0.0-86.0", "trial": 3, "time_elapsed": 552050, "serialpos": 5, "key_press": -1, "wordID": 638, "type": "PRES_AUD", "trial_index": 122}, "uniqueid": "MTK1879:38F71OA9GU3SGM791L5NXZEMFWTFM1", "dateTime": 1516492846065}, {"current_trial": 123, "trialdata": {"rt": -1000, "trial_type": "single-audio", "word": "canal", "stimulus": "/static/audio/wordpool/CANAL.wav", "conditions": [12, 800, "a", 12000], "internal_node_id": "0.0-87.0", "trial": 3, "time_elapsed": 553791, "serialpos": 6, "key_press": -1, "wordID": 225, "type": "PRES_AUD", "trial_index": 123}, "uniqueid": "MTK1879:38F71OA9GU3SGM791L5NXZEMFWTFM1", "dateTime": 1516492847807}, {"current_trial": 124, "trialdata": {"rt": -1000, "trial_type": "single-audio", "word": "pebble", "stimulus": "/static/audio/wordpool/PEBBLE.wav", "conditions": [12, 800, "a", 12000], "internal_node_id": "0.0-88.0", "trial": 3, "time_elapsed": 555536, "serialpos": 7, "key_press": -1, "wordID": 1034, "type": "PRES_AUD", "trial_index": 124}, "uniqueid": "MTK1879:38F71OA9GU3SGM791L5NXZEMFWTFM1", "dateTime": 1516492849551}, {"current_trial": 125, "trialdata": {"rt": -1000, "trial_type": "single-audio", "word": "clothes", "stimulus": "/static/audio/wordpool/CLOTHES.wav", "conditions": [12, 800, "a", 12000], "internal_node_id": "0.0-89.0", "trial": 3, "time_elapsed": 557415, "serialpos": 8, "key_press": -1, "wordID": 326, "type": "PRES_AUD", "trial_index": 125}, "uniqueid": "MTK1879:38F71OA9GU3SGM791L5NXZEMFWTFM1", "dateTime": 1516492851430}, {"current_trial": 126, "trialdata": {"rt": -1000, "trial_type": "single-audio", "word": "nightgown", "stimulus": "/static/audio/wordpool/NIGHTGOWN.wav", "conditions": [12, 800, "a", 12000], "internal_node_id": "0.0-90.0", "trial": 3, "time_elapsed": 559101, "serialpos": 9, "key_press": -1, "wordID": 952, "type": "PRES_AUD", "trial_index": 126}, "uniqueid": "MTK1879:38F71OA9GU3SGM791L5NXZEMFWTFM1", "dateTime": 1516492853116}, {"current_trial": 127, "trialdata": {"rt": -1000, "trial_type": "single-audio", "word": "guitar", "stimulus": "/static/audio/wordpool/GUITAR.wav", "conditions": [12, 800, "a", 12000], "internal_node_id": "0.0-91.0", "trial": 3, "time_elapsed": 560895, "serialpos": 10, "key_press": -1, "wordID": 669, "type": "PRES_AUD", "trial_index": 127}, "uniqueid": "MTK1879:38F71OA9GU3SGM791L5NXZEMFWTFM1", "dateTime": 1516492854910}, {"current_trial": 128, "trialdata": {"rt": -1000, "trial_type": "single-audio", "word": "sword", "stimulus": "/static/audio/wordpool/SWORD.wav", "conditions": [12, 800, "a", 12000], "internal_node_id": "0.0-92.0", "trial": 3, "time_elapsed": 562865, "serialpos": 11, "key_press": -1, "wordID": 1422, "type": "PRES_AUD", "trial_index": 128}, "uniqueid": "MTK1879:38F71OA9GU3SGM791L5NXZEMFWTFM1", "dateTime": 1516492856880}, {"current_trial": 129, "trialdata": {"rt": -1, "trial_type": "single-stim", "stimulus": "", "internal_node_id": "0.0-93.0-0.0", "time_elapsed": 564079, "key_press": -1, "type": "PRE_RECALL_DELAY", "trial_index": 129}, "uniqueid": "MTK1879:38F71OA9GU3SGM791L5NXZEMFWTFM1", "dateTime": 1516492858095}, {"current_trial": 130, "trialdata": {"rt": -1000, "trial_type": "single-audio", "stimulus": "/static/audio/400Hz.wav", "internal_node_id": "0.0-94.0", "time_elapsed": 564583, "key_press": -1, "type": "PRE_RECALL_ALERT", "trial_index": 130}, "uniqueid": "MTK1879:38F71OA9GU3SGM791L5NXZEMFWTFM1", "dateTime": 1516492858599}, {"current_trial": 131, "trialdata": {"rt": [1315, 2802, 5220], "recwords": ["sword", "guitar", "nightgown"], "key_times": [356, 502, 643, 781, 939, 1315, 2110, 2250, 2411, 2498, 2579, 2696, 2802, 3095, 3237, 3315, 3417, 3500, 3836, 4016, 4131, 4452, 4587, 4739, 4831, 4991, 5220], "trial_type": "free-recall", "conditions": [12, 800, "a", 12000], "internal_node_id": "0.0-95.0-0.0", "key_presses": [83, 87, 79, 82, 68, 13, 71, 85, 73, 84, 65, 82, 13, 78, 73, 71, 72, 84, 71, 87, 79, 8, 8, 79, 87, 78, 13], "trial": 3, "time_elapsed": 624587, "type": "FREE_RECALL", "trial_index": 131}, "uniqueid": "MTK1879:38F71OA9GU3SGM791L5NXZEMFWTFM1", "dateTime": 1516492918604}, {"current_trial": 132, "trialdata": {"rt": 3086, "trial_type": "text", "internal_node_id": "0.0-96.0", "time_elapsed": 629678, "key_press": 32, "type": "INSTRUCTIONS", "trial_index": 132}, "uniqueid": "MTK1879:38F71OA9GU3SGM791L5NXZEMFWTFM1", "dateTime": 1516492923693}, {"current_trial": 133, "trialdata": {"rt": [1873], "trial_type": "math-distractor", "key_times": [1530, 1625, 1873], "responses": ["19"], "num2": [5, 8], "num3": [9, 7], "conditions": [12, 1600, "a", 12000], "internal_node_id": "0.0-97.0", "key_presses": [49, 57, 13], "trial": 4, "time_elapsed": 643694, "type": "DISTRACTOR", "trial_index": 133, "num1": [5, 6]}, "uniqueid": "MTK1879:38F71OA9GU3SGM791L5NXZEMFWTFM1", "dateTime": 1516492937709}, {"current_trial": 134, "trialdata": {"rt": -1, "trial_type": "single-stim", "stimulus": "<p id=\"stim\">10</p>", "internal_node_id": "0.0-98.0-0.0", "time_elapsed": 646698, "key_press": -1, "trial_index": 134}, "uniqueid": "MTK1879:38F71OA9GU3SGM791L5NXZEMFWTFM1", "dateTime": 1516492940714}, {"current_trial": 135, "trialdata": {"rt": -1, "trial_type": "single-stim", "stimulus": "<p id=\"stim\">9</p>", "internal_node_id": "0.0-98.0-1.0", "time_elapsed": 647706, "key_press": -1, "trial_index": 135}, "uniqueid": "MTK1879:38F71OA9GU3SGM791L5NXZEMFWTFM1", "dateTime": 1516492941721}, {"current_trial": 136, "trialdata": {"rt": -1, "trial_type": "single-stim", "stimulus": "<p id=\"stim\">8</p>", "internal_node_id": "0.0-98.0-2.0", "time_elapsed": 648707, "key_press": -1, "trial_index": 136}, "uniqueid": "MTK1879:38F71OA9GU3SGM791L5NXZEMFWTFM1", "dateTime": 1516492942722}, {"current_trial": 137, "trialdata": {"rt": -1, "trial_type": "single-stim", "stimulus": "<p id=\"stim\">7</p>", "internal_node_id": "0.0-98.0-3.0", "time_elapsed": 649709, "key_press": -1, "trial_index": 137}, "uniqueid": "MTK1879:38F71OA9GU3SGM791L5NXZEMFWTFM1", "dateTime": 1516492943724}, {"current_trial": 138, "trialdata": {"rt": -1, "trial_type": "single-stim", "stimulus": "<p id=\"stim\">6</p>", "internal_node_id": "0.0-98.0-4.0", "time_elapsed": 650727, "key_press": -1, "trial_index": 138}, "uniqueid": "MTK1879:38F71OA9GU3SGM791L5NXZEMFWTFM1", "dateTime": 1516492944742}, {"current_trial": 139, "trialdata": {"rt": -1, "trial_type": "single-stim", "stimulus": "<p id=\"stim\">5</p>", "internal_node_id": "0.0-98.0-5.0", "time_elapsed": 651729, "key_press": -1, "trial_index": 139}, "uniqueid": "MTK1879:38F71OA9GU3SGM791L5NXZEMFWTFM1", "dateTime": 1516492945744}, {"current_trial": 140, "trialdata": {"rt": -1, "trial_type": "single-stim", "stimulus": "<p id=\"stim\">4</p>", "internal_node_id": "0.0-98.0-6.0", "time_elapsed": 652731, "key_press": -1, "trial_index": 140}, "uniqueid": "MTK1879:38F71OA9GU3SGM791L5NXZEMFWTFM1", "dateTime": 1516492946747}, {"current_trial": 141, "trialdata": {"rt": -1, "trial_type": "single-stim", "stimulus": "<p id=\"stim\">3</p>", "internal_node_id": "0.0-98.0-7.0", "time_elapsed": 653733, "key_press": -1, "trial_index": 141}, "uniqueid": "MTK1879:38F71OA9GU3SGM791L5NXZEMFWTFM1", "dateTime": 1516492947748}, {"current_trial": 142, "trialdata": {"rt": -1, "trial_type": "single-stim", "stimulus": "<p id=\"stim\">2</p>", "internal_node_id": "0.0-98.0-8.0", "time_elapsed": 654734, "key_press": -1, "trial_index": 142}, "uniqueid": "MTK1879:38F71OA9GU3SGM791L5NXZEMFWTFM1", "dateTime": 1516492948749}, {"current_trial": 143, "trialdata": {"rt": -1, "trial_type": "single-stim", "stimulus": "<p id=\"stim\">1</p>", "internal_node_id": "0.0-98.0-9.0", "time_elapsed": 655735, "key_press": -1, "trial_index": 143}, "uniqueid": "MTK1879:38F71OA9GU3SGM791L5NXZEMFWTFM1", "dateTime": 1516492949750}, {"current_trial": 144, "trialdata": {"rt": -1, "trial_type": "single-stim", "stimulus": "<p id=\"stim\">+</p>", "internal_node_id": "0.0-99.0-0.0", "time_elapsed": 657237, "key_press": -1, "type": "FIXATION", "trial_index": 144}, "uniqueid": "MTK1879:38F71OA9GU3SGM791L5NXZEMFWTFM1", "dateTime": 1516492951252}, {"current_trial": 145, "trialdata": {"rt": -1000, "trial_type": "single-audio", "word": "tuba", "stimulus": "/static/audio/wordpool/TUBA.wav", "conditions": [12, 1600, "a", 12000], "internal_node_id": "0.0-100.0", "trial": 4, "time_elapsed": 659666, "serialpos": 0, "key_press": -1, "wordID": 1514, "type": "PRES_AUD", "trial_index": 145}, "uniqueid": "MTK1879:38F71OA9GU3SGM791L5NXZEMFWTFM1", "dateTime": 1516492953681}, {"current_trial": 146, "trialdata": {"rt": -1000, "trial_type": "single-audio", "word": "champagne", "stimulus": "/static/audio/wordpool/CHAMPAGNE.wav", "conditions": [12, 1600, "a", 12000], "internal_node_id": "0.0-101.0", "trial": 4, "time_elapsed": 662146, "serialpos": 1, "key_press": -1, "wordID": 277, "type": "PRES_AUD", "trial_index": 146}, "uniqueid": "MTK1879:38F71OA9GU3SGM791L5NXZEMFWTFM1", "dateTime": 1516492956161}, {"current_trial": 147, "trialdata": {"rt": -1000, "trial_type": "single-audio", "word": "garlic", "stimulus": "/static/audio/wordpool/GARLIC.wav", "conditions": [12, 1600, "a", 12000], "internal_node_id": "0.0-102.0", "trial": 4, "time_elapsed": 664629, "serialpos": 2, "key_press": -1, "wordID": 623, "type": "PRES_AUD", "trial_index": 147}, "uniqueid": "MTK1879:38F71OA9GU3SGM791L5NXZEMFWTFM1", "dateTime": 1516492958644}, {"current_trial": 148, "trialdata": {"rt": -1000, "trial_type": "single-audio", "word": "softball", "stimulus": "/static/audio/wordpool/SOFTBALL.wav", "conditions": [12, 1600, "a", 12000], "internal_node_id": "0.0-103.0", "trial": 4, "time_elapsed": 667174, "serialpos": 3, "key_press": -1, "wordID": 1342, "type": "PRES_AUD", "trial_index": 148}, "uniqueid": "MTK1879:38F71OA9GU3SGM791L5NXZEMFWTFM1", "dateTime": 1516492961189}, {"current_trial": 149, "trialdata": {"rt": -1000, "trial_type": "single-audio", "word": "package", "stimulus": "/static/audio/wordpool/PACKAGE.wav", "conditions": [12, 1600, "a", 12000], "internal_node_id": "0.0-104.0", "trial": 4, "time_elapsed": 669616, "serialpos": 4, "key_press": -1, "wordID": 996, "type": "PRES_AUD", "trial_index": 149}, "uniqueid": "MTK1879:38F71OA9GU3SGM791L5NXZEMFWTFM1", "dateTime": 1516492963631}, {"current_trial": 150, "trialdata": {"rt": -1000, "trial_type": "single-audio", "word": "drink", "stimulus": "/static/audio/wordpool/DRINK.wav", "conditions": [12, 1600, "a", 12000], "internal_node_id": "0.0-105.0", "trial": 4, "time_elapsed": 672413, "serialpos": 5, "key_press": -1, "wordID": 497, "type": "PRES_AUD", "trial_index": 150}, "uniqueid": "MTK1879:38F71OA9GU3SGM791L5NXZEMFWTFM1", "dateTime": 1516492966428}, {"current_trial": 151, "trialdata": {"rt": -1000, "trial_type": "single-audio", "word": "marsh", "stimulus": "/static/audio/wordpool/MARSH.wav", "conditions": [12, 1600, "a", 12000], "internal_node_id": "0.0-106.0", "trial": 4, "time_elapsed": 674859, "serialpos": 6, "key_press": -1, "wordID": 873, "type": "PRES_AUD", "trial_index": 151}, "uniqueid": "MTK1879:38F71OA9GU3SGM791L5NXZEMFWTFM1", "dateTime": 1516492968874}, {"current_trial": 152, "trialdata": {"rt": -1000, "trial_type": "single-audio", "word": "mustard", "stimulus": "/static/audio/wordpool/MUSTARD.wav", "conditions": [12, 1600, "a", 12000], "internal_node_id": "0.0-107.0", "trial": 4, "time_elapsed": 677632, "serialpos": 7, "key_press": -1, "wordID": 934, "type": "PRES_AUD", "trial_index": 152}, "uniqueid": "MTK1879:38F71OA9GU3SGM791L5NXZEMFWTFM1", "dateTime": 1516492971647}, {"current_trial": 153, "trialdata": {"rt": -1000, "trial_type": "single-audio", "word": "glove", "stimulus": "/static/audio/wordpool/GLOVE.wav", "conditions": [12, 1600, "a", 12000], "internal_node_id": "0.0-108.0", "trial": 4, "time_elapsed": 680424, "serialpos": 8, "key_press": -1, "wordID": 641, "type": "PRES_AUD", "trial_index": 153}, "uniqueid": "MTK1879:38F71OA9GU3SGM791L5NXZEMFWTFM1", "dateTime": 1516492974439}, {"current_trial": 154, "trialdata": {"rt": -1000, "trial_type": "single-audio", "word": "peanut", "stimulus": "/static/audio/wordpool/PEANUT.wav", "conditions": [12, 1600, "a", 12000], "internal_node_id": "0.0-109.0", "trial": 4, "time_elapsed": 683220, "serialpos": 9, "key_press": -1, "wordID": 1031, "type": "PRES_AUD", "trial_index": 154}, "uniqueid": "MTK1879:38F71OA9GU3SGM791L5NXZEMFWTFM1", "dateTime": 1516492977235}, {"current_trial": 155, "trialdata": {"rt": -1000, "trial_type": "single-audio", "word": "pecan", "stimulus": "/static/audio/wordpool/PECAN.wav", "conditions": [12, 1600, "a", 12000], "internal_node_id": "0.0-110.0", "trial": 4, "time_elapsed": 685914, "serialpos": 10, "key_press": -1, "wordID": 1035, "type": "PRES_AUD", "trial_index": 155}, "uniqueid": "MTK1879:38F71OA9GU3SGM791L5NXZEMFWTFM1", "dateTime": 1516492979929}, {"current_trial": 156, "trialdata": {"rt": -1000, "trial_type": "single-audio", "word": "pepper", "stimulus": "/static/audio/wordpool/PEPPER.wav", "conditions": [12, 1600, "a", 12000], "internal_node_id": "0.0-111.0", "trial": 4, "time_elapsed": 688559, "serialpos": 11, "key_press": -1, "wordID": 1046, "type": "PRES_AUD", "trial_index": 156}, "uniqueid": "MTK1879:38F71OA9GU3SGM791L5NXZEMFWTFM1", "dateTime": 1516492982574}, {"current_trial": 157, "trialdata": {"rt": -1, "trial_type": "single-stim", "stimulus": "", "internal_node_id": "0.0-112.0-0.0", "time_elapsed": 689843, "key_press": -1, "type": "PRE_RECALL_DELAY", "trial_index": 157}, "uniqueid": "MTK1879:38F71OA9GU3SGM791L5NXZEMFWTFM1", "dateTime": 1516492983858}, {"current_trial": 158, "trialdata": {"rt": -1000, "trial_type": "single-audio", "stimulus": "/static/audio/400Hz.wav", "internal_node_id": "0.0-113.0", "time_elapsed": 690344, "key_press": -1, "type": "PRE_RECALL_ALERT", "trial_index": 158}, "uniqueid": "MTK1879:38F71OA9GU3SGM791L5NXZEMFWTFM1", "dateTime": 1516492984359}, {"current_trial": 159, "trialdata": {"rt": [2641, 4851, 6345], "recwords": ["peanut", "pecan", "pepper"], "key_times": [26, 129, 473, 1457, 1792, 1937, 1993, 2225, 2379, 2480, 2641, 2945, 3043, 3313, 3489, 3626, 3753, 4010, 4137, 4267, 4402, 4515, 4585, 4698, 4851, 4992, 5072, 5888, 6016, 6113, 6256, 6345], "trial_type": "free-recall", "conditions": [12, 1600, "a", 12000], "internal_node_id": "0.0-114.0-0.0", "key_presses": [80, 69, 78, 80, 8, 8, 65, 78, 85, 84, 13, 80, 69, 65, 67, 65, 78, 8, 8, 8, 8, 67, 65, 78, 32, 80, 69, 80, 80, 69, 82, 13], "trial": 4, "time_elapsed": 750348, "type": "FREE_RECALL", "trial_index": 159}, "uniqueid": "MTK1879:38F71OA9GU3SGM791L5NXZEMFWTFM1", "dateTime": 1516493044366}, {"current_trial": 160, "trialdata": {"rt": 3397, "trial_type": "text", "internal_node_id": "0.0-115.0", "time_elapsed": 755752, "key_press": 32, "type": "INSTRUCTIONS", "trial_index": 160}, "uniqueid": "MTK1879:38F71OA9GU3SGM791L5NXZEMFWTFM1", "dateTime": 1516493049767}, {"current_trial": 161, "trialdata": {"rt": [5758, 9334, 11736], "trial_type": "math-distractor", "key_times": [5015, 5216, 5758, 9141, 9256, 9334, 11190, 11484, 11736], "responses": ["14", "22", "14"], "num2": [5, 8, 4, 8], "num3": [6, 8, 9, 9], "conditions": [24, 1600, "a", 12000], "internal_node_id": "0.0-116.0", "key_presses": [49, 52, 13, 50, 50, 13, 49, 52, 13], "trial": 5, "time_elapsed": 769758, "type": "DISTRACTOR", "trial_index": 161, "num1": [3, 6, 1, 6]}, "uniqueid": "MTK1879:38F71OA9GU3SGM791L5NXZEMFWTFM1", "dateTime": 1516493063773}, {"current_trial": 162, "trialdata": {"rt": -1, "trial_type": "single-stim", "stimulus": "<p id=\"stim\">10</p>", "internal_node_id": "0.0-117.0-0.0", "time_elapsed": 772776, "key_press": -1, "trial_index": 162}, "uniqueid": "MTK1879:38F71OA9GU3SGM791L5NXZEMFWTFM1", "dateTime": 1516493066791}, {"current_trial": 163, "trialdata": {"rt": -1, "trial_type": "single-stim", "stimulus": "<p id=\"stim\">9</p>", "internal_node_id": "0.0-117.0-1.0", "time_elapsed": 773778, "key_press": -1, "trial_index": 163}, "uniqueid": "MTK1879:38F71OA9GU3SGM791L5NXZEMFWTFM1", "dateTime": 1516493067793}, {"current_trial": 164, "trialdata": {"rt": -1, "trial_type": "single-stim", "stimulus": "<p id=\"stim\">8</p>", "internal_node_id": "0.0-117.0-2.0", "time_elapsed": 774783, "key_press": -1, "trial_index": 164}, "uniqueid": "MTK1879:38F71OA9GU3SGM791L5NXZEMFWTFM1", "dateTime": 1516493068798}, {"current_trial": 165, "trialdata": {"rt": -1, "trial_type": "single-stim", "stimulus": "<p id=\"stim\">7</p>", "internal_node_id": "0.0-117.0-3.0", "time_elapsed": 775792, "key_press": -1, "trial_index": 165}, "uniqueid": "MTK1879:38F71OA9GU3SGM791L5NXZEMFWTFM1", "dateTime": 1516493069807}, {"current_trial": 166, "trialdata": {"rt": -1, "trial_type": "single-stim", "stimulus": "<p id=\"stim\">6</p>", "internal_node_id": "0.0-117.0-4.0", "time_elapsed": 776794, "key_press": -1, "trial_index": 166}, "uniqueid": "MTK1879:38F71OA9GU3SGM791L5NXZEMFWTFM1", "dateTime": 1516493070809}, {"current_trial": 167, "trialdata": {"rt": -1, "trial_type": "single-stim", "stimulus": "<p id=\"stim\">5</p>", "internal_node_id": "0.0-117.0-5.0", "time_elapsed": 777795, "key_press": -1, "trial_index": 167}, "uniqueid": "MTK1879:38F71OA9GU3SGM791L5NXZEMFWTFM1", "dateTime": 1516493071810}, {"current_trial": 168, "trialdata": {"rt": -1, "trial_type": "single-stim", "stimulus": "<p id=\"stim\">4</p>", "internal_node_id": "0.0-117.0-6.0", "time_elapsed": 778797, "key_press": -1, "trial_index": 168}, "uniqueid": "MTK1879:38F71OA9GU3SGM791L5NXZEMFWTFM1", "dateTime": 1516493072812}, {"current_trial": 169, "trialdata": {"rt": -1, "trial_type": "single-stim", "stimulus": "<p id=\"stim\">3</p>", "internal_node_id": "0.0-117.0-7.0", "time_elapsed": 779797, "key_press": -1, "trial_index": 169}, "uniqueid": "MTK1879:38F71OA9GU3SGM791L5NXZEMFWTFM1", "dateTime": 1516493073813}, {"current_trial": 170, "trialdata": {"rt": -1, "trial_type": "single-stim", "stimulus": "<p id=\"stim\">2</p>", "internal_node_id": "0.0-117.0-8.0", "time_elapsed": 780798, "key_press": -1, "trial_index": 170}, "uniqueid": "MTK1879:38F71OA9GU3SGM791L5NXZEMFWTFM1", "dateTime": 1516493074813}, {"current_trial": 171, "trialdata": {"rt": -1, "trial_type": "single-stim", "stimulus": "<p id=\"stim\">1</p>", "internal_node_id": "0.0-117.0-9.0", "time_elapsed": 781799, "key_press": -1, "trial_index": 171}, "uniqueid": "MTK1879:38F71OA9GU3SGM791L5NXZEMFWTFM1", "dateTime": 1516493075814}, {"current_trial": 172, "trialdata": {"rt": -1, "trial_type": "single-stim", "stimulus": "<p id=\"stim\">+</p>", "internal_node_id": "0.0-118.0-0.0", "time_elapsed": 783312, "key_press": -1, "type": "FIXATION", "trial_index": 172}, "uniqueid": "MTK1879:38F71OA9GU3SGM791L5NXZEMFWTFM1", "dateTime": 1516493077327}, {"current_trial": 173, "trialdata": {"rt": -1000, "trial_type": "single-audio", "word": "pigeon", "stimulus": "/static/audio/wordpool/PIGEON.wav", "conditions": [24, 1600, "a", 12000], "internal_node_id": "0.0-119.0", "trial": 5, "time_elapsed": 785753, "serialpos": 0, "key_press": -1, "wordID": 1064, "type": "PRES_AUD", "trial_index": 173}, "uniqueid": "MTK1879:38F71OA9GU3SGM791L5NXZEMFWTFM1", "dateTime": 1516493079768}, {"current_trial": 174, "trialdata": {"rt": -1000, "trial_type": "single-audio", "word": "elbow", "stimulus": "/static/audio/wordpool/ELBOW.wav", "conditions": [24, 1600, "a", 12000], "internal_node_id": "0.0-120.0", "trial": 5, "time_elapsed": 788543, "serialpos": 1, "key_press": -1, "wordID": 519, "type": "PRES_AUD", "trial_index": 174}, "uniqueid": "MTK1879:38F71OA9GU3SGM791L5NXZEMFWTFM1", "dateTime": 1516493082558}, {"current_trial": 175, "trialdata": {"rt": -1000, "trial_type": "single-audio", "word": "rabbit", "stimulus": "/static/audio/wordpool/RABBIT.wav", "conditions": [24, 1600, "a", 12000], "internal_node_id": "0.0-121.0", "trial": 5, "time_elapsed": 791043, "serialpos": 2, "key_press": -1, "wordID": 1151, "type": "PRES_AUD", "trial_index": 175}, "uniqueid": "MTK1879:38F71OA9GU3SGM791L5NXZEMFWTFM1", "dateTime": 1516493085058}, {"current_trial": 176, "trialdata": {"rt": -1000, "trial_type": "single-audio", "word": "coffee", "stimulus": "/static/audio/wordpool/COFFEE.wav", "conditions": [24, 1600, "a", 12000], "internal_node_id": "0.0-122.0", "trial": 5, "time_elapsed": 793461, "serialpos": 3, "key_press": -1, "wordID": 340, "type": "PRES_AUD", "trial_index": 176}, "uniqueid": "MTK1879:38F71OA9GU3SGM791L5NXZEMFWTFM1", "dateTime": 1516493087476}, {"current_trial": 177, "trialdata": {"rt": -1000, "trial_type": "single-audio", "word": "sphinx", "stimulus": "/static/audio/wordpool/SPHINX.wav", "conditions": [24, 1600, "a", 12000], "internal_node_id": "0.0-123.0", "trial": 5, "time_elapsed": 796180, "serialpos": 4, "key_press": -1, "wordID": 1348, "type": "PRES_AUD", "trial_index": 177}, "uniqueid": "MTK1879:38F71OA9GU3SGM791L5NXZEMFWTFM1", "dateTime": 1516493090195}, {"current_trial": 178, "trialdata": {"rt": -1000, "trial_type": "single-audio", "word": "monster", "stimulus": "/static/audio/wordpool/MONSTER.wav", "conditions": [24, 1600, "a", 12000], "internal_node_id": "0.0-124.0", "trial": 5, "time_elapsed": 798660, "serialpos": 5, "key_press": -1, "wordID": 911, "type": "PRES_AUD", "trial_index": 178}, "uniqueid": "MTK1879:38F71OA9GU3SGM791L5NXZEMFWTFM1", "dateTime": 1516493092675}, {"current_trial": 179, "trialdata": {"rt": -1000, "trial_type": "single-audio", "word": "beast", "stimulus": "/static/audio/wordpool/BEAST.wav", "conditions": [24, 1600, "a", 12000], "internal_node_id": "0.0-125.0", "trial": 5, "time_elapsed": 801133, "serialpos": 6, "key_press": -1, "wordID": 107, "type": "PRES_AUD", "trial_index": 179}, "uniqueid": "MTK1879:38F71OA9GU3SGM791L5NXZEMFWTFM1", "dateTime": 1516493095148}, {"current_trial": 180, "trialdata": {"rt": -1000, "trial_type": "single-audio", "word": "puddle", "stimulus": "/static/audio/wordpool/PUDDLE.wav", "conditions": [24, 1600, "a", 12000], "internal_node_id": "0.0-126.0", "trial": 5, "time_elapsed": 803685, "serialpos": 7, "key_press": -1, "wordID": 1139, "type": "PRES_AUD", "trial_index": 180}, "uniqueid": "MTK1879:38F71OA9GU3SGM791L5NXZEMFWTFM1", "dateTime": 1516493097700}, {"current_trial": 181, "trialdata": {"rt": -1000, "trial_type": "single-audio", "word": "fox", "stimulus": "/static/audio/wordpool/FOX.wav", "conditions": [24, 1600, "a", 12000], "internal_node_id": "0.0-127.0", "trial": 5, "time_elapsed": 806312, "serialpos": 8, "key_press": -1, "wordID": 597, "type": "PRES_AUD", "trial_index": 181}, "uniqueid": "MTK1879:38F71OA9GU3SGM791L5NXZEMFWTFM1", "dateTime": 1516493100329}, {"current_trial": 182, "trialdata": {"rt": -1000, "trial_type": "single-audio", "word": "mailman", "stimulus": "/static/audio/wordpool/MAILMAN.wav", "conditions": [24, 1600, "a", 12000], "internal_node_id": "0.0-128.0", "trial": 5, "time_elapsed": 808725, "serialpos": 9, "key_press": -1, "wordID": 857, "type": "PRES_AUD", "trial_index": 182}, "uniqueid": "MTK1879:38F71OA9GU3SGM791L5NXZEMFWTFM1", "dateTime": 1516493102741}, {"current_trial": 183, "trialdata": {"rt": -1000, "trial_type": "single-audio", "word": "nurse", "stimulus": "/static/audio/wordpool/NURSE.wav", "conditions": [24, 1600, "a", 12000], "internal_node_id": "0.0-129.0", "trial": 5, "time_elapsed": 811289, "serialpos": 10, "key_press": -1, "wordID": 962, "type": "PRES_AUD", "trial_index": 183}, "uniqueid": "MTK1879:38F71OA9GU3SGM791L5NXZEMFWTFM1", "dateTime": 1516493105304}, {"current_trial": 184, "trialdata": {"rt": -1000, "trial_type": "single-audio", "word": "daisy", "stimulus": "/static/audio/wordpool/DAISY.wav", "conditions": [24, 1600, "a", 12000], "internal_node_id": "0.0-130.0", "trial": 5, "time_elapsed": 813848, "serialpos": 11, "key_press": -1, "wordID": 434, "type": "PRES_AUD", "trial_index": 184}, "uniqueid": "MTK1879:38F71OA9GU3SGM791L5NXZEMFWTFM1", "dateTime": 1516493107863}, {"current_trial": 185, "trialdata": {"rt": -1000, "trial_type": "single-audio", "word": "camel", "stimulus": "/static/audio/wordpool/CAMEL.wav", "conditions": [24, 1600, "a", 12000], "internal_node_id": "0.0-131.0", "trial": 5, "time_elapsed": 816344, "serialpos": 12, "key_press": -1, "wordID": 222, "type": "PRES_AUD", "trial_index": 185}, "uniqueid": "MTK1879:38F71OA9GU3SGM791L5NXZEMFWTFM1", "dateTime": 1516493110359}, {"current_trial": 186, "trialdata": {"rt": -1000, "trial_type": "single-audio", "word": "gangster", "stimulus": "/static/audio/wordpool/GANGSTER.wav", "conditions": [24, 1600, "a", 12000], "internal_node_id": "0.0-132.0", "trial": 5, "time_elapsed": 819061, "serialpos": 13, "key_press": -1, "wordID": 619, "type": "PRES_AUD", "trial_index": 186}, "uniqueid": "MTK1879:38F71OA9GU3SGM791L5NXZEMFWTFM1", "dateTime": 1516493113076}, {"current_trial": 187, "trialdata": {"rt": -1000, "trial_type": "single-audio", "word": "radish", "stimulus": "/static/audio/wordpool/RADISH.wav", "conditions": [24, 1600, "a", 12000], "internal_node_id": "0.0-133.0", "trial": 5, "time_elapsed": 821518, "serialpos": 14, "key_press": -1, "wordID": 1157, "type": "PRES_AUD", "trial_index": 187}, "uniqueid": "MTK1879:38F71OA9GU3SGM791L5NXZEMFWTFM1", "dateTime": 1516493115533}, {"current_trial": 188, "trialdata": {"rt": -1000, "trial_type": "single-audio", "word": "actor", "stimulus": "/static/audio/wordpool/ACTOR.wav", "conditions": [24, 1600, "a", 12000], "internal_node_id": "0.0-134.0", "trial": 5, "time_elapsed": 824204, "serialpos": 15, "key_press": -1, "wordID": 4, "type": "PRES_AUD", "trial_index": 188}, "uniqueid": "MTK1879:38F71OA9GU3SGM791L5NXZEMFWTFM1", "dateTime": 1516493118219}, {"current_trial": 189, "trialdata": {"rt": -1000, "trial_type": "single-audio", "word": "shoulder", "stimulus": "/static/audio/wordpool/SHOULDER.wav", "conditions": [24, 1600, "a", 12000], "internal_node_id": "0.0-135.0", "trial": 5, "time_elapsed": 826649, "serialpos": 16, "key_press": -1, "wordID": 1293, "type": "PRES_AUD", "trial_index": 189}, "uniqueid": "MTK1879:38F71OA9GU3SGM791L5NXZEMFWTFM1", "dateTime": 1516493120664}, {"current_trial": 190, "trialdata": {"rt": -1000, "trial_type": "single-audio", "word": "donkey", "stimulus": "/static/audio/wordpool/DONKEY.wav", "conditions": [24, 1600, "a", 12000], "internal_node_id": "0.0-136.0", "trial": 5, "time_elapsed": 829135, "serialpos": 17, "key_press": -1, "wordID": 483, "type": "PRES_AUD", "trial_index": 190}, "uniqueid": "MTK1879:38F71OA9GU3SGM791L5NXZEMFWTFM1", "dateTime": 1516493123150}, {"current_trial": 191, "trialdata": {"rt": -1000, "trial_type": "single-audio", "word": "maple", "stimulus": "/static/audio/wordpool/MAPLE.wav", "conditions": [24, 1600, "a", 12000], "internal_node_id": "0.0-137.0", "trial": 5, "time_elapsed": 831677, "serialpos": 18, "key_press": -1, "wordID": 865, "type": "PRES_AUD", "trial_index": 191}, "uniqueid": "MTK1879:38F71OA9GU3SGM791L5NXZEMFWTFM1", "dateTime": 1516493125692}, {"current_trial": 192, "trialdata": {"rt": -1000, "trial_type": "single-audio", "word": "quail", "stimulus": "/static/audio/wordpool/QUAIL.wav", "conditions": [24, 1600, "a", 12000], "internal_node_id": "0.0-138.0", "trial": 5, "time_elapsed": 834088, "serialpos": 19, "key_press": -1, "wordID": 1146, "type": "PRES_AUD", "trial_index": 192}, "uniqueid": "MTK1879:38F71OA9GU3SGM791L5NXZEMFWTFM1", "dateTime": 1516493128103}, {"current_trial": 193, "trialdata": {"rt": -1000, "trial_type": "single-audio", "word": "world", "stimulus": "/static/audio/wordpool/WORLD.wav", "conditions": [24, 1600, "a", 12000], "internal_node_id": "0.0-139.0", "trial": 5, "time_elapsed": 836785, "serialpos": 20, "key_press": -1, "wordID": 1621, "type": "PRES_AUD", "trial_index": 193}, "uniqueid": "MTK1879:38F71OA9GU3SGM791L5NXZEMFWTFM1", "dateTime": 1516493130800}, {"current_trial": 194, "trialdata": {"rt": -1000, "trial_type": "single-audio", "word": "globe", "stimulus": "/static/audio/wordpool/GLOBE.wav", "conditions": [24, 1600, "a", 12000], "internal_node_id": "0.0-140.0", "trial": 5, "time_elapsed": 839513, "serialpos": 21, "key_press": -1, "wordID": 640, "type": "PRES_AUD", "trial_index": 194}, "uniqueid": "MTK1879:38F71OA9GU3SGM791L5NXZEMFWTFM1", "dateTime": 1516493133528}, {"current_trial": 195, "trialdata": {"rt": -1000, "trial_type": "single-audio", "word": "jungle", "stimulus": "/static/audio/wordpool/JUNGLE.wav", "conditions": [24, 1600, "a", 12000], "internal_node_id": "0.0-141.0", "trial": 5, "time_elapsed": 842012, "serialpos": 22, "key_press": -1, "wordID": 763, "type": "PRES_AUD", "trial_index": 195}, "uniqueid": "MTK1879:38F71OA9GU3SGM791L5NXZEMFWTFM1", "dateTime": 1516493136027}, {"current_trial": 196, "trialdata": {"rt": -1000, "trial_type": "single-audio", "word": "tablet", "stimulus": "/static/audio/wordpool/TABLET.wav", "conditions": [24, 1600, "a", 12000], "internal_node_id": "0.0-142.0", "trial": 5, "time_elapsed": 844708, "serialpos": 23, "key_press": -1, "wordID": 1426, "type": "PRES_AUD", "trial_index": 196}, "uniqueid": "MTK1879:38F71OA9GU3SGM791L5NXZEMFWTFM1", "dateTime": 1516493138723}, {"current_trial": 197, "trialdata": {"rt": 955, "trial_type": "single-stim", "stimulus": "", "internal_node_id": "0.0-143.0-0.0", "time_elapsed": 846032, "key_press": 71, "type": "PRE_RECALL_DELAY", "trial_index": 197}, "uniqueid": "MTK1879:38F71OA9GU3SGM791L5NXZEMFWTFM1", "dateTime": 1516493140047}, {"current_trial": 198, "trialdata": {"rt": -1000, "trial_type": "single-audio", "stimulus": "/static/audio/400Hz.wav", "internal_node_id": "0.0-144.0", "time_elapsed": 846533, "key_press": -1, "type": "PRE_RECALL_ALERT", "trial_index": 198}, "uniqueid": "MTK1879:38F71OA9GU3SGM791L5NXZEMFWTFM1", "dateTime": 1516493140549}, {"current_trial": 199, "trialdata": {"rt": [3201, 4946, 6180, 7073], "recwords": ["globe", "tablet", "piegon", "rabbit"], "key_times": [265, 361, 562, 563, 654, 1017, 1921, 2076, 2202, 2665, 2796, 2915, 3063, 3201, 3475, 3575, 3800, 4043, 4387, 4578, 4660, 4779, 4946, 5160, 5360, 5441, 5562, 5706, 5896, 6180, 6265, 6361, 6553, 6705, 6788, 6921, 7073], "trial_type": "free-recall", "conditions": [24, 1600, "a", 12000], "internal_node_id": "0.0-145.0-0.0", "key_presses": [71, 75, 73, 79, 66, 8, 8, 8, 8, 76, 79, 66, 69, 13, 84, 65, 66, 8, 66, 76, 69, 84, 13, 80, 73, 69, 71, 79, 78, 13, 82, 65, 66, 66, 73, 84, 13], "trial": 5, "time_elapsed": 906535, "type": "FREE_RECALL", "trial_index": 199}, "uniqueid": "MTK1879:38F71OA9GU3SGM791L5NXZEMFWTFM1", "dateTime": 1516493200553}, {"current_trial": 200, "trialdata": {"rt": 7608, "trial_type": "text", "internal_node_id": "0.0-146.0", "time_elapsed": 916149, "key_press": 32, "type": "INSTRUCTIONS", "trial_index": 200}, "uniqueid": "MTK1879:38F71OA9GU3SGM791L5NXZEMFWTFM1", "dateTime": 1516493210164}, {"current_trial": 201, "trialdata": {"rt": [9390, 11254, 17805, 23852], "trial_type": "math-distractor", "key_times": [9026, 9262, 9390, 10886, 11122, 11254, 17366, 17574, 17805, 23448, 23600, 23852], "responses": ["24", "14", "24", "18"], "num2": [9, 9, 9, 3, 5], "num3": [5, 4, 7, 7, 3], "conditions": [12, 1600, "a", 24000], "internal_node_id": "0.0-147.0", "key_presses": [50, 52, 13, 49, 52, 13, 50, 52, 13, 49, 56, 13], "trial": 6, "time_elapsed": 942155, "type": "DISTRACTOR", "trial_index": 201, "num1": [9, 1, 8, 8, 8]}, "uniqueid": "MTK1879:38F71OA9GU3SGM791L5NXZEMFWTFM1", "dateTime": 1516493236170}, {"current_trial": 202, "trialdata": {"rt": -1, "trial_type": "single-stim", "stimulus": "<p id=\"stim\">10</p>", "internal_node_id": "0.0-148.0-0.0", "time_elapsed": 945170, "key_press": -1, "trial_index": 202}, "uniqueid": "MTK1879:38F71OA9GU3SGM791L5NXZEMFWTFM1", "dateTime": 1516493239185}, {"current_trial": 203, "trialdata": {"rt": -1, "trial_type": "single-stim", "stimulus": "<p id=\"stim\">9</p>", "internal_node_id": "0.0-148.0-1.0", "time_elapsed": 946177, "key_press": -1, "trial_index": 203}, "uniqueid": "MTK1879:38F71OA9GU3SGM791L5NXZEMFWTFM1", "dateTime": 1516493240192}, {"current_trial": 204, "trialdata": {"rt": -1, "trial_type": "single-stim", "stimulus": "<p id=\"stim\">8</p>", "internal_node_id": "0.0-148.0-2.0", "time_elapsed": 947184, "key_press": -1, "trial_index": 204}, "uniqueid": "MTK1879:38F71OA9GU3SGM791L5NXZEMFWTFM1", "dateTime": 1516493241199}, {"current_trial": 205, "trialdata": {"rt": -1, "trial_type": "single-stim", "stimulus": "<p id=\"stim\">7</p>", "internal_node_id": "0.0-148.0-3.0", "time_elapsed": 948185, "key_press": -1, "trial_index": 205}, "uniqueid": "MTK1879:38F71OA9GU3SGM791L5NXZEMFWTFM1", "dateTime": 1516493242200}, {"current_trial": 206, "trialdata": {"rt": -1, "trial_type": "single-stim", "stimulus": "<p id=\"stim\">6</p>", "internal_node_id": "0.0-148.0-4.0", "time_elapsed": 949191, "key_press": -1, "trial_index": 206}, "uniqueid": "MTK1879:38F71OA9GU3SGM791L5NXZEMFWTFM1", "dateTime": 1516493243206}, {"current_trial": 207, "trialdata": {"rt": -1, "trial_type": "single-stim", "stimulus": "<p id=\"stim\">5</p>", "internal_node_id": "0.0-148.0-5.0", "time_elapsed": 950213, "key_press": -1, "trial_index": 207}, "uniqueid": "MTK1879:38F71OA9GU3SGM791L5NXZEMFWTFM1", "dateTime": 1516493244228}, {"current_trial": 208, "trialdata": {"rt": -1, "trial_type": "single-stim", "stimulus": "<p id=\"stim\">4</p>", "internal_node_id": "0.0-148.0-6.0", "time_elapsed": 951219, "key_press": -1, "trial_index": 208}, "uniqueid": "MTK1879:38F71OA9GU3SGM791L5NXZEMFWTFM1", "dateTime": 1516493245234}, {"current_trial": 209, "trialdata": {"rt": -1, "trial_type": "single-stim", "stimulus": "<p id=\"stim\">3</p>", "internal_node_id": "0.0-148.0-7.0", "time_elapsed": 952222, "key_press": -1, "trial_index": 209}, "uniqueid": "MTK1879:38F71OA9GU3SGM791L5NXZEMFWTFM1", "dateTime": 1516493246238}, {"current_trial": 210, "trialdata": {"rt": -1, "trial_type": "single-stim", "stimulus": "<p id=\"stim\">2</p>", "internal_node_id": "0.0-148.0-8.0", "time_elapsed": 953225, "key_press": -1, "trial_index": 210}, "uniqueid": "MTK1879:38F71OA9GU3SGM791L5NXZEMFWTFM1", "dateTime": 1516493247240}, {"current_trial": 211, "trialdata": {"rt": -1, "trial_type": "single-stim", "stimulus": "<p id=\"stim\">1</p>", "internal_node_id": "0.0-148.0-9.0", "time_elapsed": 954226, "key_press": -1, "trial_index": 211}, "uniqueid": "MTK1879:38F71OA9GU3SGM791L5NXZEMFWTFM1", "dateTime": 1516493248242}, {"current_trial": 212, "trialdata": {"rt": -1, "trial_type": "single-stim", "stimulus": "<p id=\"stim\">+</p>", "internal_node_id": "0.0-149.0-0.0", "time_elapsed": 955732, "key_press": -1, "type": "FIXATION", "trial_index": 212}, "uniqueid": "MTK1879:38F71OA9GU3SGM791L5NXZEMFWTFM1", "dateTime": 1516493249747}, {"current_trial": 213, "trialdata": {"rt": -1000, "trial_type": "single-audio", "word": "witness", "stimulus": "/static/audio/wordpool/WITNESS.wav", "conditions": [12, 1600, "a", 24000], "internal_node_id": "0.0-150.0", "trial": 6, "time_elapsed": 958237, "serialpos": 0, "key_press": -1, "wordID": 1617, "type": "PRES_AUD", "trial_index": 213}, "uniqueid": "MTK1879:38F71OA9GU3SGM791L5NXZEMFWTFM1", "dateTime": 1516493252252}, {"current_trial": 214, "trialdata": {"rt": -1000, "trial_type": "single-audio", "word": "robber", "stimulus": "/static/audio/wordpool/ROBBER.wav", "conditions": [12, 1600, "a", 24000], "internal_node_id": "0.0-151.0", "trial": 6, "time_elapsed": 960968, "serialpos": 1, "key_press": -1, "wordID": 1196, "type": "PRES_AUD", "trial_index": 214}, "uniqueid": "MTK1879:38F71OA9GU3SGM791L5NXZEMFWTFM1", "dateTime": 1516493254983}, {"current_trial": 215, "trialdata": {"rt": -1000, "trial_type": "single-audio", "word": "balloon", "stimulus": "/static/audio/wordpool/BALLOON.wav", "conditions": [12, 1600, "a", 24000], "internal_node_id": "0.0-152.0", "trial": 6, "time_elapsed": 963580, "serialpos": 2, "key_press": -1, "wordID": 74, "type": "PRES_AUD", "trial_index": 215}, "uniqueid": "MTK1879:38F71OA9GU3SGM791L5NXZEMFWTFM1", "dateTime": 1516493257595}, {"current_trial": 216, "trialdata": {"rt": -1000, "trial_type": "single-audio", "word": "powder", "stimulus": "/static/audio/wordpool/POWDER.wav", "conditions": [12, 1600, "a", 24000], "internal_node_id": "0.0-153.0", "trial": 6, "time_elapsed": 966347, "serialpos": 3, "key_press": -1, "wordID": 1116, "type": "PRES_AUD", "trial_index": 216}, "uniqueid": "MTK1879:38F71OA9GU3SGM791L5NXZEMFWTFM1", "dateTime": 1516493260362}, {"current_trial": 217, "trialdata": {"rt": -1000, "trial_type": "single-audio", "word": "sidewalk", "stimulus": "/static/audio/wordpool/SIDEWALK.wav", "conditions": [12, 1600, "a", 24000], "internal_node_id": "0.0-154.0", "trial": 6, "time_elapsed": 969076, "serialpos": 4, "key_press": -1, "wordID": 1302, "type": "PRES_AUD", "trial_index": 217}, "uniqueid": "MTK1879:38F71OA9GU3SGM791L5NXZEMFWTFM1", "dateTime": 1516493263092}, {"current_trial": 218, "trialdata": {"rt": -1000, "trial_type": "single-audio", "word": "sunset", "stimulus": "/static/audio/wordpool/SUNSET.wav", "conditions": [12, 1600, "a", 24000], "internal_node_id": "0.0-155.0", "trial": 6, "time_elapsed": 971487, "serialpos": 5, "key_press": -1, "wordID": 1407, "type": "PRES_AUD", "trial_index": 218}, "uniqueid": "MTK1879:38F71OA9GU3SGM791L5NXZEMFWTFM1", "dateTime": 1516493265502}, {"current_trial": 219, "trialdata": {"rt": -1000, "trial_type": "single-audio", "word": "stomach", "stimulus": "/static/audio/wordpool/STOMACH.wav", "conditions": [12, 1600, "a", 24000], "internal_node_id": "0.0-156.0", "trial": 6, "time_elapsed": 974223, "serialpos": 6, "key_press": -1, "wordID": 1383, "type": "PRES_AUD", "trial_index": 219}, "uniqueid": "MTK1879:38F71OA9GU3SGM791L5NXZEMFWTFM1", "dateTime": 1516493268238}, {"current_trial": 220, "trialdata": {"rt": -1000, "trial_type": "single-audio", "word": "lunch", "stimulus": "/static/audio/wordpool/LUNCH.wav", "conditions": [12, 1600, "a", 24000], "internal_node_id": "0.0-157.0", "trial": 6, "time_elapsed": 976866, "serialpos": 7, "key_press": -1, "wordID": 848, "type": "PRES_AUD", "trial_index": 220}, "uniqueid": "MTK1879:38F71OA9GU3SGM791L5NXZEMFWTFM1", "dateTime": 1516493270881}, {"current_trial": 221, "trialdata": {"rt": -1000, "trial_type": "single-audio", "word": "canyon", "stimulus": "/static/audio/wordpool/CANYON.wav", "conditions": [12, 1600, "a", 24000], "internal_node_id": "0.0-158.0", "trial": 6, "time_elapsed": 979628, "serialpos": 8, "key_press": -1, "wordID": 234, "type": "PRES_AUD", "trial_index": 221}, "uniqueid": "MTK1879:38F71OA9GU3SGM791L5NXZEMFWTFM1", "dateTime": 1516493273643}, {"current_trial": 222, "trialdata": {"rt": -1000, "trial_type": "single-audio", "word": "plaza", "stimulus": "/static/audio/wordpool/PLAZA.wav", "conditions": [12, 1600, "a", 24000], "internal_node_id": "0.0-159.0", "trial": 6, "time_elapsed": 982133, "serialpos": 9, "key_press": -1, "wordID": 1087, "type": "PRES_AUD", "trial_index": 222}, "uniqueid": "MTK1879:38F71OA9GU3SGM791L5NXZEMFWTFM1", "dateTime": 1516493276148}, {"current_trial": 223, "trialdata": {"rt": -1000, "trial_type": "single-audio", "word": "blouse", "stimulus": "/static/audio/wordpool/BLOUSE.wav", "conditions": [12, 1600, "a", 24000], "internal_node_id": "0.0-160.0", "trial": 6, "time_elapsed": 984638, "serialpos": 10, "key_press": -1, "wordID": 138, "type": "PRES_AUD", "trial_index": 223}, "uniqueid": "MTK1879:38F71OA9GU3SGM791L5NXZEMFWTFM1", "dateTime": 1516493278653}, {"current_trial": 224, "trialdata": {"rt": -1000, "trial_type": "single-audio", "word": "denim", "stimulus": "/static/audio/wordpool/DENIM.wav", "conditions": [12, 1600, "a", 24000], "internal_node_id": "0.0-161.0", "trial": 6, "time_elapsed": 987385, "serialpos": 11, "key_press": -1, "wordID": 445, "type": "PRES_AUD", "trial_index": 224}, "uniqueid": "MTK1879:38F71OA9GU3SGM791L5NXZEMFWTFM1", "dateTime": 1516493281400}, {"current_trial": 225, "trialdata": {"rt": -1, "trial_type": "single-stim", "stimulus": "", "internal_node_id": "0.0-162.0-0.0", "time_elapsed": 988695, "key_press": -1, "type": "PRE_RECALL_DELAY", "trial_index": 225}, "uniqueid": "MTK1879:38F71OA9GU3SGM791L5NXZEMFWTFM1", "dateTime": 1516493282710}, {"current_trial": 226, "trialdata": {"rt": -1000, "trial_type": "single-audio", "stimulus": "/static/audio/400Hz.wav", "internal_node_id": "0.0-163.0", "time_elapsed": 989195, "key_press": -1, "type": "PRE_RECALL_ALERT", "trial_index": 226}, "uniqueid": "MTK1879:38F71OA9GU3SGM791L5NXZEMFWTFM1", "dateTime": 1516493283211}, {"current_trial": 227, "trialdata": {"rt": [2827, 3897], "recwords": ["denim", "blouse"], "key_times": [797, 1022, 1121, 1204, 1436, 1841, 2050, 2362, 2521, 2827, 3034, 3217, 3395, 3553, 3625, 3797, 3897], "trial_type": "free-recall", "conditions": [12, 1600, "a", 24000], "internal_node_id": "0.0-164.0-0.0", "key_presses": [71, 8, 68, 69, 77, 8, 78, 73, 77, 13, 66, 76, 79, 85, 83, 69, 13], "trial": 6, "time_elapsed": 1049200, "type": "FREE_RECALL", "trial_index": 227}, "uniqueid": "MTK1879:38F71OA9GU3SGM791L5NXZEMFWTFM1", "dateTime": 1516493343218}, {"current_trial": 228, "trialdata": {"rt": 1746, "trial_type": "text", "internal_node_id": "0.0-165.0", "time_elapsed": 1052954, "key_press": 32, "type": "INSTRUCTIONS", "trial_index": 228}, "uniqueid": "MTK1879:38F71OA9GU3SGM791L5NXZEMFWTFM1", "dateTime": 1516493346969}, {"current_trial": 229, "trialdata": {"rt": [6600, 10724, 14067, 17810, 21946], "trial_type": "math-distractor", "key_times": [6317, 6417, 6600, 10422, 10559, 10724, 13822, 14005, 14067, 17407, 17726, 17810, 21595, 21750, 21946, 23867], "responses": ["14", "13", "11", "16", "13"], "num2": [7, 2, 7, 7, 7, 6], "num3": [4, 4, 2, 4, 1, 2], "conditions": [24, 1600, "a", 24000], "internal_node_id": "0.0-166.0", "key_presses": [49, 52, 13, 49, 51, 13, 49, 49, 13, 49, 54, 13, 49, 51, 13, 49], "trial": 7, "time_elapsed": 1078968, "type": "DISTRACTOR", "trial_index": 229, "num1": [3, 7, 2, 5, 5, 8]}, "uniqueid": "MTK1879:38F71OA9GU3SGM791L5NXZEMFWTFM1", "dateTime": 1516493372983}, {"current_trial": 230, "trialdata": {"rt": -1, "trial_type": "single-stim", "stimulus": "<p id=\"stim\">10</p>", "internal_node_id": "0.0-167.0-0.0", "time_elapsed": 1081983, "key_press": -1, "trial_index": 230}, "uniqueid": "MTK1879:38F71OA9GU3SGM791L5NXZEMFWTFM1", "dateTime": 1516493375999}, {"current_trial": 231, "trialdata": {"rt": -1, "trial_type": "single-stim", "stimulus": "<p id=\"stim\">9</p>", "internal_node_id": "0.0-167.0-1.0", "time_elapsed": 1082988, "key_press": -1, "trial_index": 231}, "uniqueid": "MTK1879:38F71OA9GU3SGM791L5NXZEMFWTFM1", "dateTime": 1516493377003}, {"current_trial": 232, "trialdata": {"rt": -1, "trial_type": "single-stim", "stimulus": "<p id=\"stim\">8</p>", "internal_node_id": "0.0-167.0-2.0", "time_elapsed": 1083992, "key_press": -1, "trial_index": 232}, "uniqueid": "MTK1879:38F71OA9GU3SGM791L5NXZEMFWTFM1", "dateTime": 1516493378007}, {"current_trial": 233, "trialdata": {"rt": -1, "trial_type": "single-stim", "stimulus": "<p id=\"stim\">7</p>", "internal_node_id": "0.0-167.0-3.0", "time_elapsed": 1084993, "key_press": -1, "trial_index": 233}, "uniqueid": "MTK1879:38F71OA9GU3SGM791L5NXZEMFWTFM1", "dateTime": 1516493379008}, {"current_trial": 234, "trialdata": {"rt": -1, "trial_type": "single-stim", "stimulus": "<p id=\"stim\">6</p>", "internal_node_id": "0.0-167.0-4.0", "time_elapsed": 1085994, "key_press": -1, "trial_index": 234}, "uniqueid": "MTK1879:38F71OA9GU3SGM791L5NXZEMFWTFM1", "dateTime": 1516493380009}, {"current_trial": 235, "trialdata": {"rt": -1, "trial_type": "single-stim", "stimulus": "<p id=\"stim\">5</p>", "internal_node_id": "0.0-167.0-5.0", "time_elapsed": 1086995, "key_press": -1, "trial_index": 235}, "uniqueid": "MTK1879:38F71OA9GU3SGM791L5NXZEMFWTFM1", "dateTime": 1516493381011}, {"current_trial": 236, "trialdata": {"rt": -1, "trial_type": "single-stim", "stimulus": "<p id=\"stim\">4</p>", "internal_node_id": "0.0-167.0-6.0", "time_elapsed": 1087997, "key_press": -1, "trial_index": 236}, "uniqueid": "MTK1879:38F71OA9GU3SGM791L5NXZEMFWTFM1", "dateTime": 1516493382012}, {"current_trial": 237, "trialdata": {"rt": -1, "trial_type": "single-stim", "stimulus": "<p id=\"stim\">3</p>", "internal_node_id": "0.0-167.0-7.0", "time_elapsed": 1089007, "key_press": -1, "trial_index": 237}, "uniqueid": "MTK1879:38F71OA9GU3SGM791L5NXZEMFWTFM1", "dateTime": 1516493383022}, {"current_trial": 238, "trialdata": {"rt": -1, "trial_type": "single-stim", "stimulus": "<p id=\"stim\">2</p>", "internal_node_id": "0.0-167.0-8.0", "time_elapsed": 1090008, "key_press": -1, "trial_index": 238}, "uniqueid": "MTK1879:38F71OA9GU3SGM791L5NXZEMFWTFM1", "dateTime": 1516493384023}, {"current_trial": 239, "trialdata": {"rt": -1, "trial_type": "single-stim", "stimulus": "<p id=\"stim\">1</p>", "internal_node_id": "0.0-167.0-9.0", "time_elapsed": 1091010, "key_press": -1, "trial_index": 239}, "uniqueid": "MTK1879:38F71OA9GU3SGM791L5NXZEMFWTFM1", "dateTime": 1516493385026}, {"current_trial": 240, "trialdata": {"rt": -1, "trial_type": "single-stim", "stimulus": "<p id=\"stim\">+</p>", "internal_node_id": "0.0-168.0-0.0", "time_elapsed": 1092521, "key_press": -1, "type": "FIXATION", "trial_index": 240}, "uniqueid": "MTK1879:38F71OA9GU3SGM791L5NXZEMFWTFM1", "dateTime": 1516493386536}, {"current_trial": 241, "trialdata": {"rt": -1000, "trial_type": "single-audio", "word": "necklace", "stimulus": "/static/audio/wordpool/NECKLACE.wav", "conditions": [24, 1600, "a", 24000], "internal_node_id": "0.0-169.0", "trial": 7, "time_elapsed": 1094927, "serialpos": 0, "key_press": -1, "wordID": 939, "type": "PRES_AUD", "trial_index": 241}, "uniqueid": "MTK1879:38F71OA9GU3SGM791L5NXZEMFWTFM1", "dateTime": 1516493388942}, {"current_trial": 242, "trialdata": {"rt": -1000, "trial_type": "single-audio", "word": "sculpture", "stimulus": "/static/audio/wordpool/SCULPTURE.wav", "conditions": [24, 1600, "a", 24000], "internal_node_id": "0.0-170.0", "trial": 7, "time_elapsed": 1097465, "serialpos": 1, "key_press": -1, "wordID": 1257, "type": "PRES_AUD", "trial_index": 242}, "uniqueid": "MTK1879:38F71OA9GU3SGM791L5NXZEMFWTFM1", "dateTime": 1516493391480}, {"current_trial": 243, "trialdata": {"rt": -1000, "trial_type": "single-audio", "word": "grape", "stimulus": "/static/audio/wordpool/GRAPE.wav", "conditions": [24, 1600, "a", 24000], "internal_node_id": "0.0-171.0", "trial": 7, "time_elapsed": 1100115, "serialpos": 2, "key_press": -1, "wordID": 653, "type": "PRES_AUD", "trial_index": 243}, "uniqueid": "MTK1879:38F71OA9GU3SGM791L5NXZEMFWTFM1", "dateTime": 1516493394131}, {"current_trial": 244, "trialdata": {"rt": -1000, "trial_type": "single-audio", "word": "shirt", "stimulus": "/static/audio/wordpool/SHIRT.wav", "conditions": [24, 1600, "a", 24000], "internal_node_id": "0.0-172.0", "trial": 7, "time_elapsed": 1102856, "serialpos": 3, "key_press": -1, "wordID": 1286, "type": "PRES_AUD", "trial_index": 244}, "uniqueid": "MTK1879:38F71OA9GU3SGM791L5NXZEMFWTFM1", "dateTime": 1516493396871}, {"current_trial": 245, "trialdata": {"rt": -1000, "trial_type": "single-audio", "word": "beaver", "stimulus": "/static/audio/wordpool/BEAVER.wav", "conditions": [24, 1600, "a", 24000], "internal_node_id": "0.0-173.0", "trial": 7, "time_elapsed": 1105286, "serialpos": 4, "key_press": -1, "wordID": 108, "type": "PRES_AUD", "trial_index": 245}, "uniqueid": "MTK1879:38F71OA9GU3SGM791L5NXZEMFWTFM1", "dateTime": 1516493399302}, {"current_trial": 246, "trialdata": {"rt": -1000, "trial_type": "single-audio", "word": "husband", "stimulus": "/static/audio/wordpool/HUSBAND.wav", "conditions": [24, 1600, "a", 24000], "internal_node_id": "0.0-174.0", "trial": 7, "time_elapsed": 1107821, "serialpos": 5, "key_press": -1, "wordID": 727, "type": "PRES_AUD", "trial_index": 246}, "uniqueid": "MTK1879:38F71OA9GU3SGM791L5NXZEMFWTFM1", "dateTime": 1516493401836}, {"current_trial": 247, "trialdata": {"rt": -1000, "trial_type": "single-audio", "word": "spouse", "stimulus": "/static/audio/wordpool/SPOUSE.wav", "conditions": [24, 1600, "a", 24000], "internal_node_id": "0.0-175.0", "trial": 7, "time_elapsed": 1110425, "serialpos": 6, "key_press": -1, "wordID": 1357, "type": "PRES_AUD", "trial_index": 247}, "uniqueid": "MTK1879:38F71OA9GU3SGM791L5NXZEMFWTFM1", "dateTime": 1516493404441}, {"current_trial": 248, "trialdata": {"rt": -1000, "trial_type": "single-audio", "word": "judge", "stimulus": "/static/audio/wordpool/JUDGE.wav", "conditions": [24, 1600, "a", 24000], "internal_node_id": "0.0-176.0", "trial": 7, "time_elapsed": 1113213, "serialpos": 7, "key_press": -1, "wordID": 760, "type": "PRES_AUD", "trial_index": 248}, "uniqueid": "MTK1879:38F71OA9GU3SGM791L5NXZEMFWTFM1", "dateTime": 1516493407228}, {"current_trial": 249, "trialdata": {"rt": -1000, "trial_type": "single-audio", "word": "umpire", "stimulus": "/static/audio/wordpool/UMPIRE.wav", "conditions": [24, 1600, "a", 24000], "internal_node_id": "0.0-177.0", "trial": 7, "time_elapsed": 1115889, "serialpos": 8, "key_press": -1, "wordID": 1534, "type": "PRES_AUD", "trial_index": 249}, "uniqueid": "MTK1879:38F71OA9GU3SGM791L5NXZEMFWTFM1", "dateTime": 1516493409904}, {"current_trial": 250, "trialdata": {"rt": -1000, "trial_type": "single-audio", "word": "chipmunk", "stimulus": "/static/audio/wordpool/CHIPMUNK.wav", "conditions": [24, 1600, "a", 24000], "internal_node_id": "0.0-178.0", "trial": 7, "time_elapsed": 1118470, "serialpos": 9, "key_press": -1, "wordID": 303, "type": "PRES_AUD", "trial_index": 250}, "uniqueid": "MTK1879:38F71OA9GU3SGM791L5NXZEMFWTFM1", "dateTime": 1516493412485}, {"current_trial": 251, "trialdata": {"rt": -1000, "trial_type": "single-audio", "word": "poet", "stimulus": "/static/audio/wordpool/POET.wav", "conditions": [24, 1600, "a", 24000], "internal_node_id": "0.0-179.0", "trial": 7, "time_elapsed": 1121134, "serialpos": 10, "key_press": -1, "wordID": 1094, "type": "PRES_AUD", "trial_index": 251}, "uniqueid": "MTK1879:38F71OA9GU3SGM791L5NXZEMFWTFM1", "dateTime": 1516493415149}, {"current_trial": 252, "trialdata": {"rt": -1000, "trial_type": "single-audio", "word": "cashier", "stimulus": "/static/audio/wordpool/CASHIER.wav", "conditions": [24, 1600, "a", 24000], "internal_node_id": "0.0-180.0", "trial": 7, "time_elapsed": 1123781, "serialpos": 11, "key_press": -1, "wordID": 253, "type": "PRES_AUD", "trial_index": 252}, "uniqueid": "MTK1879:38F71OA9GU3SGM791L5NXZEMFWTFM1", "dateTime": 1516493417796}, {"current_trial": 253, "trialdata": {"rt": -1000, "trial_type": "single-audio", "word": "candy", "stimulus": "/static/audio/wordpool/CANDY.wav", "conditions": [24, 1600, "a", 24000], "internal_node_id": "0.0-181.0", "trial": 7, "time_elapsed": 1126358, "serialpos": 12, "key_press": -1, "wordID": 229, "type": "PRES_AUD", "trial_index": 253}, "uniqueid": "MTK1879:38F71OA9GU3SGM791L5NXZEMFWTFM1", "dateTime": 1516493420373}, {"current_trial": 254, "trialdata": {"rt": -1000, "trial_type": "single-audio", "word": "church", "stimulus": "/static/audio/wordpool/CHURCH.wav", "conditions": [24, 1600, "a", 24000], "internal_node_id": "0.0-182.0", "trial": 7, "time_elapsed": 1128990, "serialpos": 13, "key_press": -1, "wordID": 306, "type": "PRES_AUD", "trial_index": 254}, "uniqueid": "MTK1879:38F71OA9GU3SGM791L5NXZEMFWTFM1", "dateTime": 1516493423005}, {"current_trial": 255, "trialdata": {"rt": -1000, "trial_type": "single-audio", "word": "zebra", "stimulus": "/static/audio/wordpool/ZEBRA.wav", "conditions": [24, 1600, "a", 24000], "internal_node_id": "0.0-183.0", "trial": 7, "time_elapsed": 1131601, "serialpos": 14, "key_press": -1, "wordID": 1634, "type": "PRES_AUD", "trial_index": 255}, "uniqueid": "MTK1879:38F71OA9GU3SGM791L5NXZEMFWTFM1", "dateTime": 1516493425617}, {"current_trial": 256, "trialdata": {"rt": -1000, "trial_type": "single-audio", "word": "basement", "stimulus": "/static/audio/wordpool/BASEMENT.wav", "conditions": [24, 1600, "a", 24000], "internal_node_id": "0.0-184.0", "trial": 7, "time_elapsed": 1134271, "serialpos": 15, "key_press": -1, "wordID": 93, "type": "PRES_AUD", "trial_index": 256}, "uniqueid": "MTK1879:38F71OA9GU3SGM791L5NXZEMFWTFM1", "dateTime": 1516493428287}, {"current_trial": 257, "trialdata": {"rt": -1000, "trial_type": "single-audio", "word": "lover", "stimulus": "/static/audio/wordpool/LOVER.wav", "conditions": [24, 1600, "a", 24000], "internal_node_id": "0.0-185.0", "trial": 7, "time_elapsed": 1136712, "serialpos": 16, "key_press": -1, "wordID": 845, "type": "PRES_AUD", "trial_index": 257}, "uniqueid": "MTK1879:38F71OA9GU3SGM791L5NXZEMFWTFM1", "dateTime": 1516493430727}, {"current_trial": 258, "trialdata": {"rt": -1000, "trial_type": "single-audio", "word": "tart", "stimulus": "/static/audio/wordpool/TART.wav", "conditions": [24, 1600, "a", 24000], "internal_node_id": "0.0-186.0", "trial": 7, "time_elapsed": 1139292, "serialpos": 17, "key_press": -1, "wordID": 1435, "type": "PRES_AUD", "trial_index": 258}, "uniqueid": "MTK1879:38F71OA9GU3SGM791L5NXZEMFWTFM1", "dateTime": 1516493433307}, {"current_trial": 259, "trialdata": {"rt": -1000, "trial_type": "single-audio", "word": "buggy", "stimulus": "/static/audio/wordpool/BUGGY.wav", "conditions": [24, 1600, "a", 24000], "internal_node_id": "0.0-187.0", "trial": 7, "time_elapsed": 1141912, "serialpos": 18, "key_press": -1, "wordID": 187, "type": "PRES_AUD", "trial_index": 259}, "uniqueid": "MTK1879:38F71OA9GU3SGM791L5NXZEMFWTFM1", "dateTime": 1516493435927}, {"current_trial": 260, "trialdata": {"rt": -1000, "trial_type": "single-audio", "word": "mildew", "stimulus": "/static/audio/wordpool/MILDEW.wav", "conditions": [24, 1600, "a", 24000], "internal_node_id": "0.0-188.0", "trial": 7, "time_elapsed": 1144540, "serialpos": 19, "key_press": -1, "wordID": 892, "type": "PRES_AUD", "trial_index": 260}, "uniqueid": "MTK1879:38F71OA9GU3SGM791L5NXZEMFWTFM1", "dateTime": 1516493438555}, {"current_trial": 261, "trialdata": {"rt": -1000, "trial_type": "single-audio", 