{"condition": 0, "counterbalance": 274, "assignmentId": "32ZKVD547GU1HJNJQ1ECIAEVWL4B37", "workerId": "MTK1195", "hitId": "30EMX9PEVKQ47JEYWRN4019DWE6KSY", "currenttrial": 626, "bonus": 0, "data": [{"uniqueid": "MTK1195:32ZKVD547GU1HJNJQ1ECIAEVWL4B37", "current_trial": 0, "dateTime": 1513457885162, "trialdata": {"rt": 2009, "key_press": 75, "type": "INSTRUCTIONS", "trial_type": "text", "trial_index": 0, "time_elapsed": 2017, "internal_node_id": "0.0-0.0"}}, {"uniqueid": "MTK1195:32ZKVD547GU1HJNJQ1ECIAEVWL4B37", "current_trial": 1, "dateTime": 1513457898895, "trialdata": {"rt": 13730, "key_press": 71, "type": "INSTRUCTIONS", "trial_type": "text", "trial_index": 1, "time_elapsed": 15751, "internal_node_id": "0.0-1.0"}}, {"uniqueid": "MTK1195:32ZKVD547GU1HJNJQ1ECIAEVWL4B37", "current_trial": 2, "dateTime": 1513457918310, "trialdata": {"rt": [19404], "responses": ["ocean"], "type": "AUDIO_TEST", "trial_type": "audio-test", "trial_index": 2, "time_elapsed": 35167, "internal_node_id": "0.0-2.0"}}, {"uniqueid": "MTK1195:32ZKVD547GU1HJNJQ1ECIAEVWL4B37", "current_trial": 3, "dateTime": 1513457925042, "trialdata": {"rt": [6729], "responses": ["crystal"], "type": "AUDIO_TEST", "trial_type": "audio-test", "trial_index": 3, "time_elapsed": 41899, "internal_node_id": "0.0-3.0"}}, {"uniqueid": "MTK1195:32ZKVD547GU1HJNJQ1ECIAEVWL4B37", "current_trial": 4, "dateTime": 1513457932962, "trialdata": {"rt": [7918], "responses": ["spice"], "type": "AUDIO_TEST", "trial_type": "audio-test", "trial_index": 4, "time_elapsed": 49819, "internal_node_id": "0.0-4.0"}}, {"uniqueid": "MTK1195:32ZKVD547GU1HJNJQ1ECIAEVWL4B37", "current_trial": 5, "dateTime": 1513457971351, "trialdata": {"rt": 37634, "responses": "{\"Q0\":\"1:15am\",\"Q1\":\"8:30am\",\"Q2\":\"5\"}", "type": "SLEEP_SURVEY", "trial_type": "survey-text", "trial_index": 5, "time_elapsed": 88208, "internal_node_id": "0.0-5.0"}}, {"uniqueid": "MTK1195:32ZKVD547GU1HJNJQ1ECIAEVWL4B37", "current_trial": 6, "dateTime": 1513458030909, "trialdata": {"rt": 58555, "key_press": 40, "type": "INSTRUCTIONS", "trial_type": "text", "trial_index": 6, "time_elapsed": 147766, "internal_node_id": "0.0-6.0"}}, {"uniqueid": "MTK1195:32ZKVD547GU1HJNJQ1ECIAEVWL4B37", "current_trial": 7, "dateTime": 1513458044884, "trialdata": {"rt": 13471, "key_press": 13, "type": "INSTRUCTIONS", "trial_type": "text", "trial_index": 7, "time_elapsed": 161741, "internal_node_id": "0.0-7.0"}}, {"uniqueid": "MTK1195:32ZKVD547GU1HJNJQ1ECIAEVWL4B37", "current_trial": 8, "dateTime": 1513458050589, "trialdata": {"rt": 5203, "key_press": 13, "type": "INSTRUCTIONS", "trial_type": "text", "trial_index": 8, "time_elapsed": 167446, "internal_node_id": "0.0-8.0"}}, {"uniqueid": "MTK1195:32ZKVD547GU1HJNJQ1ECIAEVWL4B37", "current_trial": 9, "dateTime": 1513458069634, "trialdata": {"rt": [3755, 8500, 12651, 14914], "responses": ["10", "14", "12", "18"], "num1": [6, 5, 1, 4, 9], "num2": [3, 1, 3, 6, 9], "num3": [1, 8, 8, 8, 8], "type": "DISTRACTOR", "conditions": [18, 1200, "a", 18000], "trial": 0, "trial_type": "math-distractor", "trial_index": 9, "time_elapsed": 186491, "internal_node_id": "0.0-9.0"}}, {"uniqueid": "MTK1195:32ZKVD547GU1HJNJQ1ECIAEVWL4B37", "current_trial": 10, "dateTime": 1513458072641, "trialdata": {"rt": -1, "stimulus": "<p id=\"stim\">10</p>", "key_press": -1, "trial_type": "single-stim", "trial_index": 10, "time_elapsed": 189498, "internal_node_id": "0.0-10.0-0.0"}}, {"uniqueid": "MTK1195:32ZKVD547GU1HJNJQ1ECIAEVWL4B37", "current_trial": 11, "dateTime": 1513458073645, "trialdata": {"rt": -1, "stimulus": "<p id=\"stim\">9</p>", "key_press": -1, "trial_type": "single-stim", "trial_index": 11, "time_elapsed": 190502, "internal_node_id": "0.0-10.0-1.0"}}, {"uniqueid": "MTK1195:32ZKVD547GU1HJNJQ1ECIAEVWL4B37", "current_trial": 12, "dateTime": 1513458074649, "trialdata": {"rt": -1, "stimulus": "<p id=\"stim\">8</p>", "key_press": -1, "trial_type": "single-stim", "trial_index": 12, "time_elapsed": 191506, "internal_node_id": "0.0-10.0-2.0"}}, {"uniqueid": "MTK1195:32ZKVD547GU1HJNJQ1ECIAEVWL4B37", "current_trial": 13, "dateTime": 1513458075653, "trialdata": {"rt": -1, "stimulus": "<p id=\"stim\">7</p>", "key_press": -1, "trial_type": "single-stim", "trial_index": 13, "time_elapsed": 192510, "internal_node_id": "0.0-10.0-3.0"}}, {"uniqueid": "MTK1195:32ZKVD547GU1HJNJQ1ECIAEVWL4B37", "current_trial": 14, "dateTime": 1513458076657, "trialdata": {"rt": -1, "stimulus": "<p id=\"stim\">6</p>", "key_press": -1, "trial_type": "single-stim", "trial_index": 14, "time_elapsed": 193514, "internal_node_id": "0.0-10.0-4.0"}}, {"uniqueid": "MTK1195:32ZKVD547GU1HJNJQ1ECIAEVWL4B37", "current_trial": 15, "dateTime": 1513458077661, "trialdata": {"rt": -1, "stimulus": "<p id=\"stim\">5</p>", "key_press": -1, "trial_type": "single-stim", "trial_index": 15, "time_elapsed": 194518, "internal_node_id": "0.0-10.0-5.0"}}, {"uniqueid": "MTK1195:32ZKVD547GU1HJNJQ1ECIAEVWL4B37", "current_trial": 16, "dateTime": 1513458078665, "trialdata": {"rt": -1, "stimulus": "<p id=\"stim\">4</p>", "key_press": -1, "trial_type": "single-stim", "trial_index": 16, "time_elapsed": 195522, "internal_node_id": "0.0-10.0-6.0"}}, {"uniqueid": "MTK1195:32ZKVD547GU1HJNJQ1ECIAEVWL4B37", "current_trial": 17, "dateTime": 1513458079669, "trialdata": {"rt": -1, "stimulus": "<p id=\"stim\">3</p>", "key_press": -1, "trial_type": "single-stim", "trial_index": 17, "time_elapsed": 196526, "internal_node_id": "0.0-10.0-7.0"}}, {"uniqueid": "MTK1195:32ZKVD547GU1HJNJQ1ECIAEVWL4B37", "current_trial": 18, "dateTime": 1513458080673, "trialdata": {"rt": -1, "stimulus": "<p id=\"stim\">2</p>", "key_press": -1, "trial_type": "single-stim", "trial_index": 18, "time_elapsed": 197530, "internal_node_id": "0.0-10.0-8.0"}}, {"uniqueid": "MTK1195:32ZKVD547GU1HJNJQ1ECIAEVWL4B37", "current_trial": 19, "dateTime": 1513458081677, "trialdata": {"rt": -1, "stimulus": "<p id=\"stim\">1</p>", "key_press": -1, "trial_type": "single-stim", "trial_index": 19, "time_elapsed": 198534, "internal_node_id": "0.0-10.0-9.0"}}, {"uniqueid": "MTK1195:32ZKVD547GU1HJNJQ1ECIAEVWL4B37", "current_trial": 20, "dateTime": 1513458083181, "trialdata": {"rt": -1, "stimulus": "<p id=\"stim\">+</p>", "key_press": -1, "type": "FIXATION", "trial_type": "single-stim", "trial_index": 20, "time_elapsed": 200038, "internal_node_id": "0.0-11.0-0.0"}}, {"uniqueid": "MTK1195:32ZKVD547GU1HJNJQ1ECIAEVWL4B37", "current_trial": 21, "dateTime": 1513458085489, "trialdata": {"rt": -1000, "stimulus": "/static/audio/wordpool/NOMAD.wav", "key_press": -1, "type": "PRES_AUD", "word": "nomad", "wordID": 954, "conditions": [18, 1200, "a", 18000], "trial": 0, "serialpos": 0, "trial_type": "single-audio", "trial_index": 21, "time_elapsed": 202346, "internal_node_id": "0.0-12.0"}}, {"uniqueid": "MTK1195:32ZKVD547GU1HJNJQ1ECIAEVWL4B37", "current_trial": 22, "dateTime": 1513458087857, "trialdata": {"rt": 590.7936507936427, "stimulus": "/static/audio/wordpool/WORKER.wav", "key_press": 175, "type": "PRES_AUD", "word": "worker", "wordID": 1620, "conditions": [18, 1200, "a", 18000], "trial": 0, "serialpos": 1, "trial_type": "single-audio", "trial_index": 22, "time_elapsed": 204714, "internal_node_id": "0.0-13.0"}}, {"uniqueid": "MTK1195:32ZKVD547GU1HJNJQ1ECIAEVWL4B37", "current_trial": 23, "dateTime": 1513458089865, "trialdata": {"rt": -1000, "stimulus": "/static/audio/wordpool/QUEEN.wav", "key_press": -1, "type": "PRES_AUD", "word": "queen", "wordID": 1148, "conditions": [18, 1200, "a", 18000], "trial": 0, "serialpos": 2, "trial_type": "single-audio", "trial_index": 23, "time_elapsed": 206722, "internal_node_id": "0.0-14.0"}}, {"uniqueid": "MTK1195:32ZKVD547GU1HJNJQ1ECIAEVWL4B37", "current_trial": 24, "dateTime": 1513458092105, "trialdata": {"rt": -1000, "stimulus": "/static/audio/wordpool/TROMBONE.wav", "key_press": -1, "type": "PRES_AUD", "word": "trombone", "wordID": 1507, "conditions": [18, 1200, "a", 18000], "trial": 0, "serialpos": 3, "trial_type": "single-audio", "trial_index": 24, "time_elapsed": 208962, "internal_node_id": "0.0-15.0"}}, {"uniqueid": "MTK1195:32ZKVD547GU1HJNJQ1ECIAEVWL4B37", "current_trial": 25, "dateTime": 1513458094208, "trialdata": {"rt": -1000, "stimulus": "/static/audio/wordpool/FLASHLIGHT.wav", "key_press": -1, "type": "PRES_AUD", "word": "flashlight", "wordID": 574, "conditions": [18, 1200, "a", 18000], "trial": 0, "serialpos": 4, "trial_type": "single-audio", "trial_index": 25, "time_elapsed": 211065, "internal_node_id": "0.0-16.0"}}, {"uniqueid": "MTK1195:32ZKVD547GU1HJNJQ1ECIAEVWL4B37", "current_trial": 26, "dateTime": 1513458096552, "trialdata": {"rt": -1000, "stimulus": "/static/audio/wordpool/POISON.wav", "key_press": -1, "type": "PRES_AUD", "word": "poison", "wordID": 1095, "conditions": [18, 1200, "a", 18000], "trial": 0, "serialpos": 5, "trial_type": "single-audio", "trial_index": 26, "time_elapsed": 213409, "internal_node_id": "0.0-17.0"}}, {"uniqueid": "MTK1195:32ZKVD547GU1HJNJQ1ECIAEVWL4B37", "current_trial": 27, "dateTime": 1513458098951, "trialdata": {"rt": -1000, "stimulus": "/static/audio/wordpool/COD.wav", "key_press": -1, "type": "PRES_AUD", "word": "cod", "wordID": 339, "conditions": [18, 1200, "a", 18000], "trial": 0, "serialpos": 6, "trial_type": "single-audio", "trial_index": 27, "time_elapsed": 215807, "internal_node_id": "0.0-18.0"}}, {"uniqueid": "MTK1195:32ZKVD547GU1HJNJQ1ECIAEVWL4B37", "current_trial": 28, "dateTime": 1513458101185, "trialdata": {"rt": -1000, "stimulus": "/static/audio/wordpool/SKILLET.wav", "key_press": -1, "type": "PRES_AUD", "word": "skillet", "wordID": 1316, "conditions": [18, 1200, "a", 18000], "trial": 0, "serialpos": 7, "trial_type": "single-audio", "trial_index": 28, "time_elapsed": 218041, "internal_node_id": "0.0-19.0"}}, {"uniqueid": "MTK1195:32ZKVD547GU1HJNJQ1ECIAEVWL4B37", "current_trial": 29, "dateTime": 1513458103196, "trialdata": {"rt": -1000, "stimulus": "/static/audio/wordpool/PEANUT.wav", "key_press": -1, "type": "PRES_AUD", "word": "peanut", "wordID": 1031, "conditions": [18, 1200, "a", 18000], "trial": 0, "serialpos": 8, "trial_type": "single-audio", "trial_index": 29, "time_elapsed": 220053, "internal_node_id": "0.0-20.0"}}, {"uniqueid": "MTK1195:32ZKVD547GU1HJNJQ1ECIAEVWL4B37", "current_trial": 30, "dateTime": 1513458105342, "trialdata": {"rt": -1000, "stimulus": "/static/audio/wordpool/TABLET.wav", "key_press": -1, "type": "PRES_AUD", "word": "tablet", "wordID": 1426, "conditions": [18, 1200, "a", 18000], "trial": 0, "serialpos": 9, "trial_type": "single-audio", "trial_index": 30, "time_elapsed": 222199, "internal_node_id": "0.0-21.0"}}, {"uniqueid": "MTK1195:32ZKVD547GU1HJNJQ1ECIAEVWL4B37", "current_trial": 31, "dateTime": 1513458107630, "trialdata": {"rt": -1000, "stimulus": "/static/audio/wordpool/ONION.wav", "key_press": -1, "type": "PRES_AUD", "word": "onion", "wordID": 976, "conditions": [18, 1200, "a", 18000], "trial": 0, "serialpos": 10, "trial_type": "single-audio", "trial_index": 31, "time_elapsed": 224486, "internal_node_id": "0.0-22.0"}}, {"uniqueid": "MTK1195:32ZKVD547GU1HJNJQ1ECIAEVWL4B37", "current_trial": 32, "dateTime": 1513458109765, "trialdata": {"rt": -1000, "stimulus": "/static/audio/wordpool/VALLEY.wav", "key_press": -1, "type": "PRES_AUD", "word": "valley", "wordID": 1544, "conditions": [18, 1200, "a", 18000], "trial": 0, "serialpos": 11, "trial_type": "single-audio", "trial_index": 32, "time_elapsed": 226621, "internal_node_id": "0.0-23.0"}}, {"uniqueid": "MTK1195:32ZKVD547GU1HJNJQ1ECIAEVWL4B37", "current_trial": 33, "dateTime": 1513458111887, "trialdata": {"rt": -1000, "stimulus": "/static/audio/wordpool/PLUTO.wav", "key_press": -1, "type": "PRES_AUD", "word": "pluto", "wordID": 1091, "conditions": [18, 1200, "a", 18000], "trial": 0, "serialpos": 12, "trial_type": "single-audio", "trial_index": 33, "time_elapsed": 228744, "internal_node_id": "0.0-24.0"}}, {"uniqueid": "MTK1195:32ZKVD547GU1HJNJQ1ECIAEVWL4B37", "current_trial": 34, "dateTime": 1513458114268, "trialdata": {"rt": -1000, "stimulus": "/static/audio/wordpool/LEG.wav", "key_press": -1, "type": "PRES_AUD", "word": "leg", "wordID": 808, "conditions": [18, 1200, "a", 18000], "trial": 0, "serialpos": 13, "trial_type": "single-audio", "trial_index": 34, "time_elapsed": 231125, "internal_node_id": "0.0-25.0"}}, {"uniqueid": "MTK1195:32ZKVD547GU1HJNJQ1ECIAEVWL4B37", "current_trial": 35, "dateTime": 1513458116587, "trialdata": {"rt": -1000, "stimulus": "/static/audio/wordpool/ICEBERG.wav", "key_press": -1, "type": "PRES_AUD", "word": "iceberg", "wordID": 730, "conditions": [18, 1200, "a", 18000], "trial": 0, "serialpos": 14, "trial_type": "single-audio", "trial_index": 35, "time_elapsed": 233444, "internal_node_id": "0.0-26.0"}}, {"uniqueid": "MTK1195:32ZKVD547GU1HJNJQ1ECIAEVWL4B37", "current_trial": 36, "dateTime": 1513458118770, "trialdata": {"rt": -1000, "stimulus": "/static/audio/wordpool/CLAMP.wav", "key_press": -1, "type": "PRES_AUD", "word": "clamp", "wordID": 315, "conditions": [18, 1200, "a", 18000], "trial": 0, "serialpos": 15, "trial_type": "single-audio", "trial_index": 36, "time_elapsed": 235627, "internal_node_id": "0.0-27.0"}}, {"uniqueid": "MTK1195:32ZKVD547GU1HJNJQ1ECIAEVWL4B37", "current_trial": 37, "dateTime": 1513458120890, "trialdata": {"rt": -1000, "stimulus": "/static/audio/wordpool/DRIVER.wav", "key_press": -1, "type": "PRES_AUD", "word": "driver", "wordID": 498, "conditions": [18, 1200, "a", 18000], "trial": 0, "serialpos": 16, "trial_type": "single-audio", "trial_index": 37, "time_elapsed": 237747, "internal_node_id": "0.0-28.0"}}, {"uniqueid": "MTK1195:32ZKVD547GU1HJNJQ1ECIAEVWL4B37", "current_trial": 38, "dateTime": 1513458123060, "trialdata": {"rt": -1000, "stimulus": "/static/audio/wordpool/RECEIPT.wav", "key_press": -1, "type": "PRES_AUD", "word": "receipt", "wordID": 1172, "conditions": [18, 1200, "a", 18000], "trial": 0, "serialpos": 17, "trial_type": "single-audio", "trial_index": 38, "time_elapsed": 239915, "internal_node_id": "0.0-29.0"}}, {"uniqueid": "MTK1195:32ZKVD547GU1HJNJQ1ECIAEVWL4B37", "current_trial": 39, "dateTime": 1513458124395, "trialdata": {"rt": -1, "stimulus": "", "key_press": -1, "type": "PRE_RECALL_DELAY", "trial_type": "single-stim", "trial_index": 39, "time_elapsed": 241252, "internal_node_id": "0.0-30.0-0.0"}}, {"uniqueid": "MTK1195:32ZKVD547GU1HJNJQ1ECIAEVWL4B37", "current_trial": 40, "dateTime": 1513458124896, "trialdata": {"rt": -1000, "stimulus": "/static/audio/400Hz.wav", "key_press": -1, "type": "PRE_RECALL_ALERT", "trial_type": "single-audio", "trial_index": 40, "time_elapsed": 241753, "internal_node_id": "0.0-31.0"}}, {"uniqueid": "MTK1195:32ZKVD547GU1HJNJQ1ECIAEVWL4B37", "current_trial": 41, "dateTime": 1513458184909, "trialdata": {"rt": [3527, 5686, 9954, 14979, 18799, 22055, 29909, 37576], "recwords": ["pond", "peanut", "iceberg", "tablet", "reciept", "driver", "nomad", "poison"], "type": "FREE_RECALL", "conditions": [18, 1200, "a", 18000], "trial": 0, "trial_type": "free-recall", "trial_index": 41, "time_elapsed": 301760, "internal_node_id": "0.0-32.0-0.0"}}, {"uniqueid": "MTK1195:32ZKVD547GU1HJNJQ1ECIAEVWL4B37", "current_trial": 42, "dateTime": 1513458189716, "trialdata": {"rt": 2805, "key_press": 76, "type": "INSTRUCTIONS", "trial_type": "text", "trial_index": 42, "time_elapsed": 306572, "internal_node_id": "0.0-33.0"}}, {"uniqueid": "MTK1195:32ZKVD547GU1HJNJQ1ECIAEVWL4B37", "current_trial": 43, "dateTime": 1513458209724, "trialdata": {"rt": [4508, 9471, 12000, 17024], "responses": ["11", "23", "10", "24"], "num1": [4, 8, 3, 9, 2], "num2": [3, 7, 3, 6, 2], "num3": [4, 8, 4, 9, 9], "type": "DISTRACTOR", "conditions": [18, 1200, "v", 18000], "trial": 1, "trial_type": "math-distractor", "trial_index": 43, "time_elapsed": 326581, "internal_node_id": "0.0-34.0"}}, {"uniqueid": "MTK1195:32ZKVD547GU1HJNJQ1ECIAEVWL4B37", "current_trial": 44, "dateTime": 1513458212728, "trialdata": {"rt": -1, "stimulus": "<p id=\"stim\">10</p>", "key_press": -1, "trial_type": "single-stim", "trial_index": 44, "time_elapsed": 329585, "internal_node_id": "0.0-35.0-0.0"}}, {"uniqueid": "MTK1195:32ZKVD547GU1HJNJQ1ECIAEVWL4B37", "current_trial": 45, "dateTime": 1513458213734, "trialdata": {"rt": -1, "stimulus": "<p id=\"stim\">9</p>", "key_press": -1, "trial_type": "single-stim", "trial_index": 45, "time_elapsed": 330591, "internal_node_id": "0.0-35.0-1.0"}}, {"uniqueid": "MTK1195:32ZKVD547GU1HJNJQ1ECIAEVWL4B37", "current_trial": 46, "dateTime": 1513458214737, "trialdata": {"rt": -1, "stimulus": "<p id=\"stim\">8</p>", "key_press": -1, "trial_type": "single-stim", "trial_index": 46, "time_elapsed": 331594, "internal_node_id": "0.0-35.0-2.0"}}, {"uniqueid": "MTK1195:32ZKVD547GU1HJNJQ1ECIAEVWL4B37", "current_trial": 47, "dateTime": 1513458215742, "trialdata": {"rt": -1, "stimulus": "<p id=\"stim\">7</p>", "key_press": -1, "trial_type": "single-stim", "trial_index": 47, "time_elapsed": 332598, "internal_node_id": "0.0-35.0-3.0"}}, {"uniqueid": "MTK1195:32ZKVD547GU1HJNJQ1ECIAEVWL4B37", "current_trial": 48, "dateTime": 1513458216744, "trialdata": {"rt": -1, "stimulus": "<p id=\"stim\">6</p>", "key_press": -1, "trial_type": "single-stim", "trial_index": 48, "time_elapsed": 333601, "internal_node_id": "0.0-35.0-4.0"}}, {"uniqueid": "MTK1195:32ZKVD547GU1HJNJQ1ECIAEVWL4B37", "current_trial": 49, "dateTime": 1513458217749, "trialdata": {"rt": -1, "stimulus": "<p id=\"stim\">5</p>", "key_press": -1, "trial_type": "single-stim", "trial_index": 49, "time_elapsed": 334606, "internal_node_id": "0.0-35.0-5.0"}}, {"uniqueid": "MTK1195:32ZKVD547GU1HJNJQ1ECIAEVWL4B37", "current_trial": 50, "dateTime": 1513458218751, "trialdata": {"rt": -1, "stimulus": "<p id=\"stim\">4</p>", "key_press": -1, "trial_type": "single-stim", "trial_index": 50, "time_elapsed": 335608, "internal_node_id": "0.0-35.0-6.0"}}, {"uniqueid": "MTK1195:32ZKVD547GU1HJNJQ1ECIAEVWL4B37", "current_trial": 51, "dateTime": 1513458219756, "trialdata": {"rt": -1, "stimulus": "<p id=\"stim\">3</p>", "key_press": -1, "trial_type": "single-stim", "trial_index": 51, "time_elapsed": 336613, "internal_node_id": "0.0-35.0-7.0"}}, {"uniqueid": "MTK1195:32ZKVD547GU1HJNJQ1ECIAEVWL4B37", "current_trial": 52, "dateTime": 1513458220761, "trialdata": {"rt": -1, "stimulus": "<p id=\"stim\">2</p>", "key_press": -1, "trial_type": "single-stim", "trial_index": 52, "time_elapsed": 337617, "internal_node_id": "0.0-35.0-8.0"}}, {"uniqueid": "MTK1195:32ZKVD547GU1HJNJQ1ECIAEVWL4B37", "current_trial": 53, "dateTime": 1513458221764, "trialdata": {"rt": -1, "stimulus": "<p id=\"stim\">1</p>", "key_press": -1, "trial_type": "single-stim", "trial_index": 53, "time_elapsed": 338621, "internal_node_id": "0.0-35.0-9.0"}}, {"uniqueid": "MTK1195:32ZKVD547GU1HJNJQ1ECIAEVWL4B37", "current_trial": 54, "dateTime": 1513458223267, "trialdata": {"rt": -1, "stimulus": "<p id=\"stim\">+</p>", "key_press": -1, "type": "FIXATION", "trial_type": "single-stim", "trial_index": 54, "time_elapsed": 340124, "internal_node_id": "0.0-36.0-0.0"}}, {"uniqueid": "MTK1195:32ZKVD547GU1HJNJQ1ECIAEVWL4B37", "current_trial": 55, "dateTime": 1513458224471, "trialdata": {"rt": -1, "stimulus": "<p id=\"stim\">OUTFIT</p>", "key_press": -1, "type": "PRES_VIS", "word": "outfit", "wordID": 987, "conditions": [18, 1200, "v", 18000], "trial": 1, "serialpos": 0, "trial_type": "single-stim", "trial_index": 55, "time_elapsed": 341328, "internal_node_id": "0.0-37.0"}}, {"uniqueid": "MTK1195:32ZKVD547GU1HJNJQ1ECIAEVWL4B37", "current_trial": 56, "dateTime": 1513458226534, "trialdata": {"rt": -1, "stimulus": "<p id=\"stim\">COMET</p>", "key_press": -1, "type": "PRES_VIS", "word": "comet", "wordID": 352, "conditions": [18, 1200, "v", 18000], "trial": 1, "serialpos": 1, "trial_type": "single-stim", "trial_index": 56, "time_elapsed": 343391, "internal_node_id": "0.0-38.0"}}, {"uniqueid": "MTK1195:32ZKVD547GU1HJNJQ1ECIAEVWL4B37", "current_trial": 57, "dateTime": 1513458228786, "trialdata": {"rt": -1, "stimulus": "<p id=\"stim\">FLASK</p>", "key_press": -1, "type": "PRES_VIS", "word": "flask", "wordID": 575, "conditions": [18, 1200, "v", 18000], "trial": 1, "serialpos": 2, "trial_type": "single-stim", "trial_index": 57, "time_elapsed": 345643, "internal_node_id": "0.0-39.0"}}, {"uniqueid": "MTK1195:32ZKVD547GU1HJNJQ1ECIAEVWL4B37", "current_trial": 58, "dateTime": 1513458230950, "trialdata": {"rt": -1, "stimulus": "<p id=\"stim\">SUNSET</p>", "key_press": -1, "type": "PRES_VIS", "word": "sunset", "wordID": 1407, "conditions": [18, 1200, "v", 18000], "trial": 1, "serialpos": 3, "trial_type": "single-stim", "trial_index": 58, "time_elapsed": 347807, "internal_node_id": "0.0-40.0"}}, {"uniqueid": "MTK1195:32ZKVD547GU1HJNJQ1ECIAEVWL4B37", "current_trial": 59, "dateTime": 1513458233050, "trialdata": {"rt": -1, "stimulus": "<p id=\"stim\">FOREST</p>", "key_press": -1, "type": "PRES_VIS", "word": "forest", "wordID": 592, "conditions": [18, 1200, "v", 18000], "trial": 1, "serialpos": 4, "trial_type": "single-stim", "trial_index": 59, "time_elapsed": 349907, "internal_node_id": "0.0-41.0"}}, {"uniqueid": "MTK1195:32ZKVD547GU1HJNJQ1ECIAEVWL4B37", "current_trial": 60, "dateTime": 1513458235334, "trialdata": {"rt": -1, "stimulus": "<p id=\"stim\">PLAYGROUND</p>", "key_press": -1, "type": "PRES_VIS", "word": "playground", "wordID": 1086, "conditions": [18, 1200, "v", 18000], "trial": 1, "serialpos": 5, "trial_type": "single-stim", "trial_index": 60, "time_elapsed": 352191, "internal_node_id": "0.0-42.0"}}, {"uniqueid": "MTK1195:32ZKVD547GU1HJNJQ1ECIAEVWL4B37", "current_trial": 61, "dateTime": 1513458237390, "trialdata": {"rt": -1, "stimulus": "<p id=\"stim\">HOUND</p>", "key_press": -1, "type": "PRES_VIS", "word": "hound", "wordID": 723, "conditions": [18, 1200, "v", 18000], "trial": 1, "serialpos": 6, "trial_type": "single-stim", "trial_index": 61, "time_elapsed": 354247, "internal_node_id": "0.0-43.0"}}, {"uniqueid": "MTK1195:32ZKVD547GU1HJNJQ1ECIAEVWL4B37", "current_trial": 62, "dateTime": 1513458239519, "trialdata": {"rt": -1, "stimulus": "<p id=\"stim\">PADDLE</p>", "key_press": -1, "type": "PRES_VIS", "word": "paddle", "wordID": 999, "conditions": [18, 1200, "v", 18000], "trial": 1, "serialpos": 7, "trial_type": "single-stim", "trial_index": 62, "time_elapsed": 356375, "internal_node_id": "0.0-44.0"}}, {"uniqueid": "MTK1195:32ZKVD547GU1HJNJQ1ECIAEVWL4B37", "current_trial": 63, "dateTime": 1513458241851, "trialdata": {"rt": -1, "stimulus": "<p id=\"stim\">PLAID</p>", "key_press": -1, "type": "PRES_VIS", "word": "plaid", "wordID": 1079, "conditions": [18, 1200, "v", 18000], "trial": 1, "serialpos": 8, "trial_type": "single-stim", "trial_index": 63, "time_elapsed": 358707, "internal_node_id": "0.0-45.0"}}, {"uniqueid": "MTK1195:32ZKVD547GU1HJNJQ1ECIAEVWL4B37", "current_trial": 64, "dateTime": 1513458243934, "trialdata": {"rt": -1, "stimulus": "<p id=\"stim\">ROOSTER</p>", "key_press": -1, "type": "PRES_VIS", "word": "rooster", "wordID": 1208, "conditions": [18, 1200, "v", 18000], "trial": 1, "serialpos": 9, "trial_type": "single-stim", "trial_index": 64, "time_elapsed": 360791, "internal_node_id": "0.0-46.0"}}, {"uniqueid": "MTK1195:32ZKVD547GU1HJNJQ1ECIAEVWL4B37", "current_trial": 65, "dateTime": 1513458246087, "trialdata": {"rt": -1, "stimulus": "<p id=\"stim\">YARN</p>", "key_press": -1, "type": "PRES_VIS", "word": "yarn", "wordID": 1630, "conditions": [18, 1200, "v", 18000], "trial": 1, "serialpos": 10, "trial_type": "single-stim", "trial_index": 65, "time_elapsed": 362943, "internal_node_id": "0.0-47.0"}}, {"uniqueid": "MTK1195:32ZKVD547GU1HJNJQ1ECIAEVWL4B37", "current_trial": 66, "dateTime": 1513458248395, "trialdata": {"rt": -1, "stimulus": "<p id=\"stim\">TRENCH</p>", "key_press": -1, "type": "PRES_VIS", "word": "trench", "wordID": 1502, "conditions": [18, 1200, "v", 18000], "trial": 1, "serialpos": 11, "trial_type": "single-stim", "trial_index": 66, "time_elapsed": 365251, "internal_node_id": "0.0-48.0"}}, {"uniqueid": "MTK1195:32ZKVD547GU1HJNJQ1ECIAEVWL4B37", "current_trial": 67, "dateTime": 1513458250541, "trialdata": {"rt": -1, "stimulus": "<p id=\"stim\">SPACE</p>", "key_press": -1, "type": "PRES_VIS", "word": "space", "wordID": 1344, "conditions": [18, 1200, "v", 18000], "trial": 1, "serialpos": 12, "trial_type": "single-stim", "trial_index": 67, "time_elapsed": 367398, "internal_node_id": "0.0-49.0"}}, {"uniqueid": "MTK1195:32ZKVD547GU1HJNJQ1ECIAEVWL4B37", "current_trial": 68, "dateTime": 1513458252549, "trialdata": {"rt": -1, "stimulus": "<p id=\"stim\">SILK</p>", "key_press": -1, "type": "PRES_VIS", "word": "silk", "wordID": 1306, "conditions": [18, 1200, "v", 18000], "trial": 1, "serialpos": 13, "trial_type": "single-stim", "trial_index": 68, "time_elapsed": 369406, "internal_node_id": "0.0-50.0"}}, {"uniqueid": "MTK1195:32ZKVD547GU1HJNJQ1ECIAEVWL4B37", "current_trial": 69, "dateTime": 1513458254641, "trialdata": {"rt": -1, "stimulus": "<p id=\"stim\">DOLPHIN</p>", "key_press": -1, "type": "PRES_VIS", "word": "dolphin", "wordID": 482, "conditions": [18, 1200, "v", 18000], "trial": 1, "serialpos": 14, "trial_type": "single-stim", "trial_index": 69, "time_elapsed": 371498, "internal_node_id": "0.0-51.0"}}, {"uniqueid": "MTK1195:32ZKVD547GU1HJNJQ1ECIAEVWL4B37", "current_trial": 70, "dateTime": 1513458256649, "trialdata": {"rt": -1, "stimulus": "<p id=\"stim\">SWIMMER</p>", "key_press": -1, "type": "PRES_VIS", "word": "swimmer", "wordID": 1419, "conditions": [18, 1200, "v", 18000], "trial": 1, "serialpos": 15, "trial_type": "single-stim", "trial_index": 70, "time_elapsed": 373506, "internal_node_id": "0.0-52.0"}}, {"uniqueid": "MTK1195:32ZKVD547GU1HJNJQ1ECIAEVWL4B37", "current_trial": 71, "dateTime": 1513458258869, "trialdata": {"rt": -1, "stimulus": "<p id=\"stim\">CANAL</p>", "key_press": -1, "type": "PRES_VIS", "word": "canal", "wordID": 225, "conditions": [18, 1200, "v", 18000], "trial": 1, "serialpos": 16, "trial_type": "single-stim", "trial_index": 71, "time_elapsed": 375726, "internal_node_id": "0.0-53.0"}}, {"uniqueid": "MTK1195:32ZKVD547GU1HJNJQ1ECIAEVWL4B37", "current_trial": 72, "dateTime": 1513458261145, "trialdata": {"rt": -1, "stimulus": "<p id=\"stim\">BOUQUET</p>", "key_press": -1, "type": "PRES_VIS", "word": "bouquet", "wordID": 156, "conditions": [18, 1200, "v", 18000], "trial": 1, "serialpos": 17, "trial_type": "single-stim", "trial_index": 72, "time_elapsed": 378002, "internal_node_id": "0.0-54.0"}}, {"uniqueid": "MTK1195:32ZKVD547GU1HJNJQ1ECIAEVWL4B37", "current_trial": 73, "dateTime": 1513458263597, "trialdata": {"rt": -1, "stimulus": "", "key_press": -1, "type": "PRE_RECALL_DELAY", "trial_type": "single-stim", "trial_index": 73, "time_elapsed": 380454, "internal_node_id": "0.0-55.0-0.0"}}, {"uniqueid": "MTK1195:32ZKVD547GU1HJNJQ1ECIAEVWL4B37", "current_trial": 74, "dateTime": 1513458264100, "trialdata": {"rt": -1000, "stimulus": "/static/audio/400Hz.wav", "key_press": -1, "type": "PRE_RECALL_ALERT", "trial_type": "single-audio", "trial_index": 74, "time_elapsed": 380957, "internal_node_id": "0.0-56.0"}}, {"uniqueid": "MTK1195:32ZKVD547GU1HJNJQ1ECIAEVWL4B37", "current_trial": 75, "dateTime": 1513458324112, "trialdata": {"rt": [5929, 10333, 12895, 14923, 16887, 19832, 24223, 27663, 29203, 36102, 41371], "recwords": ["bouquet", "dolphin", "yarn", "rooster", "canal", "outfit", "playground", "silk", "space", "trench", ""], "type": "FREE_RECALL", "conditions": [18, 1200, "v", 18000], "trial": 1, "trial_type": "free-recall", "trial_index": 75, "time_elapsed": 440965, "internal_node_id": "0.0-57.0-0.0"}}, {"uniqueid": "MTK1195:32ZKVD547GU1HJNJQ1ECIAEVWL4B37", "current_trial": 76, "dateTime": 1513458329630, "trialdata": {"rt": 3506, "key_press": 72, "type": "INSTRUCTIONS", "trial_type": "text", "trial_index": 76, "time_elapsed": 446478, "internal_node_id": "0.0-58.0"}}, {"uniqueid": "MTK1195:32ZKVD547GU1HJNJQ1ECIAEVWL4B37", "current_trial": 77, "dateTime": 1513458354635, "trialdata": {"rt": [4062, 6578, 11079, 13654, 16919, 19175, 22207], "responses": ["15", "10", "26", "14", "17", "12", "15"], "num1": [8, 1, 9, 6, 6, 7, 6, 4], "num2": [1, 5, 8, 1, 3, 3, 6, 1], "num3": [6, 4, 9, 7, 8, 2, 3, 7], "type": "DISTRACTOR", "conditions": [24, 1600, "a", 24000], "trial": 2, "trial_type": "math-distractor", "trial_index": 77, "time_elapsed": 471492, "internal_node_id": "0.0-59.0"}}, {"uniqueid": "MTK1195:32ZKVD547GU1HJNJQ1ECIAEVWL4B37", "current_trial": 78, "dateTime": 1513458357646, "trialdata": {"rt": -1, "stimulus": "<p id=\"stim\">10</p>", "key_press": -1, "trial_type": "single-stim", "trial_index": 78, "time_elapsed": 474499, "internal_node_id": "0.0-60.0-0.0"}}, {"uniqueid": "MTK1195:32ZKVD547GU1HJNJQ1ECIAEVWL4B37", "current_trial": 79, "dateTime": 1513458358650, "trialdata": {"rt": -1, "stimulus": "<p id=\"stim\">9</p>", "key_press": -1, "trial_type": "single-stim", "trial_index": 79, "time_elapsed": 475507, "internal_node_id": "0.0-60.0-1.0"}}, {"uniqueid": "MTK1195:32ZKVD547GU1HJNJQ1ECIAEVWL4B37", "current_trial": 80, "dateTime": 1513458359654, "trialdata": {"rt": -1, "stimulus": "<p id=\"stim\">8</p>", "key_press": -1, "trial_type": "single-stim", "trial_index": 80, "time_elapsed": 476511, "internal_node_id": "0.0-60.0-2.0"}}, {"uniqueid": "MTK1195:32ZKVD547GU1HJNJQ1ECIAEVWL4B37", "current_trial": 81, "dateTime": 1513458360658, "trialdata": {"rt": -1, "stimulus": "<p id=\"stim\">7</p>", "key_press": -1, "trial_type": "single-stim", "trial_index": 81, "time_elapsed": 477515, "internal_node_id": "0.0-60.0-3.0"}}, {"uniqueid": "MTK1195:32ZKVD547GU1HJNJQ1ECIAEVWL4B37", "current_trial": 82, "dateTime": 1513458361662, "trialdata": {"rt": -1, "stimulus": "<p id=\"stim\">6</p>", "key_press": -1, "trial_type": "single-stim", "trial_index": 82, "time_elapsed": 478519, "internal_node_id": "0.0-60.0-4.0"}}, {"uniqueid": "MTK1195:32ZKVD547GU1HJNJQ1ECIAEVWL4B37", "current_trial": 83, "dateTime": 1513458362667, "trialdata": {"rt": -1, "stimulus": "<p id=\"stim\">5</p>", "key_press": -1, "trial_type": "single-stim", "trial_index": 83, "time_elapsed": 479523, "internal_node_id": "0.0-60.0-5.0"}}, {"uniqueid": "MTK1195:32ZKVD547GU1HJNJQ1ECIAEVWL4B37", "current_trial": 84, "dateTime": 1513458363671, "trialdata": {"rt": -1, "stimulus": "<p id=\"stim\">4</p>", "key_press": -1, "trial_type": "single-stim", "trial_index": 84, "time_elapsed": 480528, "internal_node_id": "0.0-60.0-6.0"}}, {"uniqueid": "MTK1195:32ZKVD547GU1HJNJQ1ECIAEVWL4B37", "current_trial": 85, "dateTime": 1513458364674, "trialdata": {"rt": -1, "stimulus": "<p id=\"stim\">3</p>", "key_press": -1, "trial_type": "single-stim", "trial_index": 85, "time_elapsed": 481531, "internal_node_id": "0.0-60.0-7.0"}}, {"uniqueid": "MTK1195:32ZKVD547GU1HJNJQ1ECIAEVWL4B37", "current_trial": 86, "dateTime": 1513458365678, "trialdata": {"rt": -1, "stimulus": "<p id=\"stim\">2</p>", "key_press": -1, "trial_type": "single-stim", "trial_index": 86, "time_elapsed": 482535, "internal_node_id": "0.0-60.0-8.0"}}, {"uniqueid": "MTK1195:32ZKVD547GU1HJNJQ1ECIAEVWL4B37", "current_trial": 87, "dateTime": 1513458366682, "trialdata": {"rt": -1, "stimulus": "<p id=\"stim\">1</p>", "key_press": -1, "trial_type": "single-stim", "trial_index": 87, "time_elapsed": 483539, "internal_node_id": "0.0-60.0-9.0"}}, {"uniqueid": "MTK1195:32ZKVD547GU1HJNJQ1ECIAEVWL4B37", "current_trial": 88, "dateTime": 1513458368186, "trialdata": {"rt": -1, "stimulus": "<p id=\"stim\">+</p>", "key_press": -1, "type": "FIXATION", "trial_type": "single-stim", "trial_index": 88, "time_elapsed": 485043, "internal_node_id": "0.0-61.0-0.0"}}, {"uniqueid": "MTK1195:32ZKVD547GU1HJNJQ1ECIAEVWL4B37", "current_trial": 89, "dateTime": 1513458370714, "trialdata": {"rt": -1000, "stimulus": "/static/audio/wordpool/TERMITE.wav", "key_press": -1, "type": "PRES_AUD", "word": "termite", "wordID": 1450, "conditions": [24, 1600, "a", 24000], "trial": 2, "serialpos": 0, "trial_type": "single-audio", "trial_index": 89, "time_elapsed": 487571, "internal_node_id": "0.0-62.0"}}, {"uniqueid": "MTK1195:32ZKVD547GU1HJNJQ1ECIAEVWL4B37", "current_trial": 90, "dateTime": 1513458373329, "trialdata": {"rt": -1000, "stimulus": "/static/audio/wordpool/ZIPPER.wav", "key_press": -1, "type": "PRES_AUD", "word": "zipper", "wordID": 1635, "conditions": [24, 1600, "a", 24000], "trial": 2, "serialpos": 1, "trial_type": "single-audio", "trial_index": 90, "time_elapsed": 490186, "internal_node_id": "0.0-63.0"}}, {"uniqueid": "MTK1195:32ZKVD547GU1HJNJQ1ECIAEVWL4B37", "current_trial": 91, "dateTime": 1513458375877, "trialdata": {"rt": -1000, "stimulus": "/static/audio/wordpool/PLAZA.wav", "key_press": -1, "type": "PRES_AUD", "word": "plaza", "wordID": 1087, "conditions": [24, 1600, "a", 24000], "trial": 2, "serialpos": 2, "trial_type": "single-audio", "trial_index": 91, "time_elapsed": 492734, "internal_node_id": "0.0-64.0"}}, {"uniqueid": "MTK1195:32ZKVD547GU1HJNJQ1ECIAEVWL4B37", "current_trial": 92, "dateTime": 1513458378597, "trialdata": {"rt": -1000, "stimulus": "/static/audio/wordpool/TROUT.wav", "key_press": -1, "type": "PRES_AUD", "word": "trout", "wordID": 1510, "conditions": [24, 1600, "a", 24000], "trial": 2, "serialpos": 3, "trial_type": "single-audio", "trial_index": 92, "time_elapsed": 495454, "internal_node_id": "0.0-65.0"}}, {"uniqueid": "MTK1195:32ZKVD547GU1HJNJQ1ECIAEVWL4B37", "current_trial": 93, "dateTime": 1513458381386, "trialdata": {"rt": -1000, "stimulus": "/static/audio/wordpool/TEACHER.wav", "key_press": -1, "type": "PRES_AUD", "word": "teacher", "wordID": 1439, "conditions": [24, 1600, "a", 24000], "trial": 2, "serialpos": 4, "trial_type": "single-audio", "trial_index": 93, "time_elapsed": 498243, "internal_node_id": "0.0-66.0"}}, {"uniqueid": "MTK1195:32ZKVD547GU1HJNJQ1ECIAEVWL4B37", "current_trial": 94, "dateTime": 1513458384006, "trialdata": {"rt": -1000, "stimulus": "/static/audio/wordpool/STUDENT.wav", "key_press": -1, "type": "PRES_AUD", "word": "student", "wordID": 1394, "conditions": [24, 1600, "a", 24000], "trial": 2, "serialpos": 5, "trial_type": "single-audio", "trial_index": 94, "time_elapsed": 500863, "internal_node_id": "0.0-67.0"}}, {"uniqueid": "MTK1195:32ZKVD547GU1HJNJQ1ECIAEVWL4B37", "current_trial": 95, "dateTime": 1513458386776, "trialdata": {"rt": -1000, "stimulus": "/static/audio/wordpool/SALAD.wav", "key_press": -1, "type": "PRES_AUD", "word": "salad", "wordID": 1223, "conditions": [24, 1600, "a", 24000], "trial": 2, "serialpos": 6, "trial_type": "single-audio", "trial_index": 95, "time_elapsed": 503633, "internal_node_id": "0.0-68.0"}}, {"uniqueid": "MTK1195:32ZKVD547GU1HJNJQ1ECIAEVWL4B37", "current_trial": 96, "dateTime": 1513458389479, "trialdata": {"rt": -1000, "stimulus": "/static/audio/wordpool/PORK.wav", "key_press": -1, "type": "PRES_AUD", "word": "pork", "wordID": 1107, "conditions": [24, 1600, "a", 24000], "trial": 2, "serialpos": 7, "trial_type": "single-audio", "trial_index": 96, "time_elapsed": 506335, "internal_node_id": "0.0-69.0"}}, {"uniqueid": "MTK1195:32ZKVD547GU1HJNJQ1ECIAEVWL4B37", "current_trial": 97, "dateTime": 1513458392145, "trialdata": {"rt": -1000, "stimulus": "/static/audio/wordpool/BRANCH.wav", "key_press": -1, "type": "PRES_AUD", "word": "branch", "wordID": 167, "conditions": [24, 1600, "a", 24000], "trial": 2, "serialpos": 8, "trial_type": "single-audio", "trial_index": 97, "time_elapsed": 509002, "internal_node_id": "0.0-70.0"}}, {"uniqueid": "MTK1195:32ZKVD547GU1HJNJQ1ECIAEVWL4B37", "current_trial": 98, "dateTime": 1513458394911, "trialdata": {"rt": -1000, "stimulus": "/static/audio/wordpool/HATCHET.wav", "key_press": -1, "type": "PRES_AUD", "word": "hatchet", "wordID": 690, "conditions": [24, 1600, "a", 24000], "trial": 2, "serialpos": 9, "trial_type": "single-audio", "trial_index": 98, "time_elapsed": 511768, "internal_node_id": "0.0-71.0"}}, {"uniqueid": "MTK1195:32ZKVD547GU1HJNJQ1ECIAEVWL4B37", "current_trial": 99, "dateTime": 1513458397547, "trialdata": {"rt": -1000, "stimulus": "/static/audio/wordpool/FLOWER.wav", "key_press": -1, "type": "PRES_AUD", "word": "flower", "wordID": 583, "conditions": [24, 1600, "a", 24000], "trial": 2, "serialpos": 10, "trial_type": "single-audio", "trial_index": 99, "time_elapsed": 514404, "internal_node_id": "0.0-72.0"}}, {"uniqueid": "MTK1195:32ZKVD547GU1HJNJQ1ECIAEVWL4B37", "current_trial": 100, "dateTime": 1513458400245, "trialdata": {"rt": -1000, "stimulus": "/static/audio/wordpool/BANK.wav", "key_press": -1, "type": "PRES_AUD", "word": "bank", "wordID": 82, "conditions": [24, 1600, "a", 24000], "trial": 2, "serialpos": 11, "trial_type": "single-audio", "trial_index": 100, "time_elapsed": 517102, "internal_node_id": "0.0-73.0"}}, {"uniqueid": "MTK1195:32ZKVD547GU1HJNJQ1ECIAEVWL4B37", "current_trial": 101, "dateTime": 1513458402757, "trialdata": {"rt": -1000, "stimulus": "/static/audio/wordpool/RABBIT.wav", "key_press": -1, "type": "PRES_AUD", "word": "rabbit", "wordID": 1151, "conditions": [24, 1600, "a", 24000], "trial": 2, "serialpos": 12, "trial_type": "single-audio", "trial_index": 101, "time_elapsed": 519613, "internal_node_id": "0.0-74.0"}}, {"uniqueid": "MTK1195:32ZKVD547GU1HJNJQ1ECIAEVWL4B37", "current_trial": 102, "dateTime": 1513458405280, "trialdata": {"rt": -1000, "stimulus": "/static/audio/wordpool/WIFE.wav", "key_press": -1, "type": "PRES_AUD", "word": "wife", "wordID": 1608, "conditions": [24, 1600, "a", 24000], "trial": 2, "serialpos": 13, "trial_type": "single-audio", "trial_index": 102, "time_elapsed": 522137, "internal_node_id": "0.0-75.0"}}, {"uniqueid": "MTK1195:32ZKVD547GU1HJNJQ1ECIAEVWL4B37", "current_trial": 103, "dateTime": 1513458408042, "trialdata": {"rt": -1000, "stimulus": "/static/audio/wordpool/XEROX.wav", "key_press": -1, "type": "PRES_AUD", "word": "xerox", "wordID": 1627, "conditions": [24, 1600, "a", 24000], "trial": 2, "serialpos": 14, "trial_type": "single-audio", "trial_index": 103, "time_elapsed": 524899, "internal_node_id": "0.0-76.0"}}, {"uniqueid": "MTK1195:32ZKVD547GU1HJNJQ1ECIAEVWL4B37", "current_trial": 104, "dateTime": 1513458410445, "trialdata": {"rt": -1000, "stimulus": "/static/audio/wordpool/SKETCH.wav", "key_press": -1, "type": "PRES_AUD", "word": "sketch", "wordID": 1314, "conditions": [24, 1600, "a", 24000], "trial": 2, "serialpos": 15, "trial_type": "single-audio", "trial_index": 104, "time_elapsed": 527302, "internal_node_id": "0.0-77.0"}}, {"uniqueid": "MTK1195:32ZKVD547GU1HJNJQ1ECIAEVWL4B37", "current_trial": 105, "dateTime": 1513458413145, "trialdata": {"rt": -1000, "stimulus": "/static/audio/wordpool/BUG.wav", "key_press": -1, "type": "PRES_AUD", "word": "bug", "wordID": 186, "conditions": [24, 1600, "a", 24000], "trial": 2, "serialpos": 16, "trial_type": "single-audio", "trial_index": 105, "time_elapsed": 530002, "internal_node_id": "0.0-78.0"}}, {"uniqueid": "MTK1195:32ZKVD547GU1HJNJQ1ECIAEVWL4B37", "current_trial": 106, "dateTime": 1513458415782, "trialdata": {"rt": -1000, "stimulus": "/static/audio/wordpool/SODA.wav", "key_press": -1, "type": "PRES_AUD", "word": "soda", "wordID": 1340, "conditions": [24, 1600, "a", 24000], "trial": 2, "serialpos": 17, "trial_type": "single-audio", "trial_index": 106, "time_elapsed": 532639, "internal_node_id": "0.0-79.0"}}, {"uniqueid": "MTK1195:32ZKVD547GU1HJNJQ1ECIAEVWL4B37", "current_trial": 107, "dateTime": 1513458418363, "trialdata": {"rt": -1000, "stimulus": "/static/audio/wordpool/PISTOL.wav", "key_press": -1, "type": "PRES_AUD", "word": "pistol", "wordID": 1074, "conditions": [24, 1600, "a", 24000], "trial": 2, "serialpos": 18, "trial_type": "single-audio", "trial_index": 107, "time_elapsed": 535220, "internal_node_id": "0.0-80.0"}}, {"uniqueid": "MTK1195:32ZKVD547GU1HJNJQ1ECIAEVWL4B37", "current_trial": 108, "dateTime": 1513458420783, "trialdata": {"rt": -1000, "stimulus": "/static/audio/wordpool/SNAKE.wav", "key_press": -1, "type": "PRES_AUD", "word": "snake", "wordID": 1332, "conditions": [24, 1600, "a", 24000], "trial": 2, "serialpos": 19, "trial_type": "single-audio", "trial_index": 108, "time_elapsed": 537640, "internal_node_id": "0.0-81.0"}}, {"uniqueid": "MTK1195:32ZKVD547GU1HJNJQ1ECIAEVWL4B37", "current_trial": 109, "dateTime": 1513458423331, "trialdata": {"rt": -1000, "stimulus": "/static/audio/wordpool/SPARROW.wav", "key_press": -1, "type": "PRES_AUD", "word": "sparrow", "wordID": 1346, "conditions": [24, 1600, "a", 24000], "trial": 2, "serialpos": 20, "trial_type": "single-audio", "trial_index": 109, "time_elapsed": 540188, "internal_node_id": "0.0-82.0"}}, {"uniqueid": "MTK1195:32ZKVD547GU1HJNJQ1ECIAEVWL4B37", "current_trial": 110, "dateTime": 1513458425983, "trialdata": {"rt": -1000, "stimulus": "/static/audio/wordpool/DAUGHTER.wav", "key_press": -1, "type": "PRES_AUD", "word": "daughter", "wordID": 441, "conditions": [24, 1600, "a", 24000], "trial": 2, "serialpos": 21, "trial_type": "single-audio", "trial_index": 110, "time_elapsed": 542840, "internal_node_id": "0.0-83.0"}}, {"uniqueid": "MTK1195:32ZKVD547GU1HJNJQ1ECIAEVWL4B37", "current_trial": 111, "dateTime": 1513458428591, "trialdata": {"rt": -1000, "stimulus": "/static/audio/wordpool/PECAN.wav", "key_press": -1, "type": "PRES_AUD", "word": "pecan", "wordID": 1035, "conditions": [24, 1600, "a", 24000], "trial": 2, "serialpos": 22, "trial_type": "single-audio", "trial_index": 111, "time_elapsed": 545448, "internal_node_id": "0.0-84.0"}}, {"uniqueid": "MTK1195:32ZKVD547GU1HJNJQ1ECIAEVWL4B37", "current_trial": 112, "dateTime": 1513458431258, "trialdata": {"rt": -1000, "stimulus": "/static/audio/wordpool/CITRUS.wav", "key_press": -1, "type": "PRES_AUD", "word": "citrus", "wordID": 312, "conditions": [24, 1600, "a", 24000], "trial": 2, "serialpos": 23, "trial_type": "single-audio", "trial_index": 112, "time_elapsed": 548115, "internal_node_id": "0.0-85.0"}}, {"uniqueid": "MTK1195:32ZKVD547GU1HJNJQ1ECIAEVWL4B37", "current_trial": 113, "dateTime": 1513458432606, "trialdata": {"rt": -1, "stimulus": "", "key_press": -1, "type": "PRE_RECALL_DELAY", "trial_type": "single-stim", "trial_index": 113, "time_elapsed": 549462, "internal_node_id": "0.0-86.0-0.0"}}, {"uniqueid": "MTK1195:32ZKVD547GU1HJNJQ1ECIAEVWL4B37", "current_trial": 114, "dateTime": 1513458433111, "trialdata": {"rt": -1000, "stimulus": "/static/audio/400Hz.wav", "key_press": -1, "type": "PRE_RECALL_ALERT", "trial_type": "single-audio", "trial_index": 114, "time_elapsed": 549968, "internal_node_id": "0.0-87.0"}}, {"uniqueid": "MTK1195:32ZKVD547GU1HJNJQ1ECIAEVWL4B37", "current_trial": 115, "dateTime": 1513458493120, "trialdata": {"rt": [4615, 12375, 14044, 16312, 18414, 22155, 23669, 26578, 29068, 32007, 36326, 40765, 42704, 46953, 53494], "recwords": ["citrus", "pistol", "soda", "sketch", "hatchet", "student", "plaza", "termite", "bug", "snake", "salad", "flower", "rabbit", "wife", "branch"], "type": "FREE_RECALL", "conditions": [24, 1600, "a", 24000], "trial": 2, "trial_type": "free-recall", "trial_index": 115, "time_elapsed": 609973, "internal_node_id": "0.0-88.0-0.0"}}, {"uniqueid": "MTK1195:32ZKVD547GU1HJNJQ1ECIAEVWL4B37", "current_trial": 116, "dateTime": 1513458496635, "trialdata": {"rt": 1512, "key_press": 72, "type": "INSTRUCTIONS", "trial_type": "text", "trial_index": 116, "time_elapsed": 613492, "internal_node_id": "0.0-89.0"}}, {"uniqueid": "MTK1195:32ZKVD547GU1HJNJQ1ECIAEVWL4B37", "current_trial": 117, "dateTime": 1513458510643, "trialdata": {"rt": [2379, 7401, 10693], "responses": ["15", "17", "19"], "num1": [9, 5, 9, 1], "num2": [1, 6, 7, 2], "num3": [5, 6, 3, 5], "type": "DISTRACTOR", "conditions": [24, 800, "a", 12000], "trial": 3, "trial_type": "math-distractor", "trial_index": 117, "time_elapsed": 627500, "internal_node_id": "0.0-90.0"}}, {"uniqueid": "MTK1195:32ZKVD547GU1HJNJQ1ECIAEVWL4B37", "current_trial": 118, "dateTime": 1513458513651, "trialdata": {"rt": -1, "stimulus": "<p id=\"stim\">10</p>", "key_press": -1, "trial_type": "single-stim", "trial_index": 118, "time_elapsed": 630507, "internal_node_id": "0.0-91.0-0.0"}}, {"uniqueid": "MTK1195:32ZKVD547GU1HJNJQ1ECIAEVWL4B37", "current_trial": 119, "dateTime": 1513458514654, "trialdata": {"rt": -1, "stimulus": "<p id=\"stim\">9</p>", "key_press": -1, "trial_type": "single-stim", "trial_index": 119, "time_elapsed": 631511, "internal_node_id": "0.0-91.0-1.0"}}, {"uniqueid": "MTK1195:32ZKVD547GU1HJNJQ1ECIAEVWL4B37", "current_trial": 120, "dateTime": 1513458515658, "trialdata": {"rt": -1, "stimulus": "<p id=\"stim\">8</p>", "key_press": -1, "trial_type": "single-stim", "trial_index": 120, "time_elapsed": 632515, "internal_node_id": "0.0-91.0-2.0"}}, {"uniqueid": "MTK1195:32ZKVD547GU1HJNJQ1ECIAEVWL4B37", "current_trial": 121, "dateTime": 1513458516662, "trialdata": {"rt": -1, "stimulus": "<p id=\"stim\">7</p>", "key_press": -1, "trial_type": "single-stim", "trial_index": 121, "time_elapsed": 633519, "internal_node_id": "0.0-91.0-3.0"}}, {"uniqueid": "MTK1195:32ZKVD547GU1HJNJQ1ECIAEVWL4B37", "current_trial": 122, "dateTime": 1513458517666, "trialdata": {"rt": -1, "stimulus": "<p id=\"stim\">6</p>", "key_press": -1, "trial_type": "single-stim", "trial_index": 122, "time_elapsed": 634523, "internal_node_id": "0.0-91.0-4.0"}}, {"uniqueid": "MTK1195:32ZKVD547GU1HJNJQ1ECIAEVWL4B37", "current_trial": 123, "dateTime": 1513458518670, "trialdata": {"rt": -1, "stimulus": "<p id=\"stim\">5</p>", "key_press": -1, "trial_type": "single-stim", "trial_index": 123, "time_elapsed": 635527, "internal_node_id": "0.0-91.0-5.0"}}, {"uniqueid": "MTK1195:32ZKVD547GU1HJNJQ1ECIAEVWL4B37", "current_trial": 124, "dateTime": 1513458519674, "trialdata": {"rt": -1, "stimulus": "<p id=\"stim\">4</p>", "key_press": -1, "trial_type": "single-stim", "trial_index": 124, "time_elapsed": 636531, "internal_node_id": "0.0-91.0-6.0"}}, {"uniqueid": "MTK1195:32ZKVD547GU1HJNJQ1ECIAEVWL4B37", "current_trial": 125, "dateTime": 1513458520678, "trialdata": {"rt": -1, "stimulus": "<p id=\"stim\">3</p>", "key_press": -1, "trial_type": "single-stim", "trial_index": 125, "time_elapsed": 637535, "internal_node_id": "0.0-91.0-7.0"}}, {"uniqueid": "MTK1195:32ZKVD547GU1HJNJQ1ECIAEVWL4B37", "current_trial": 126, "dateTime": 1513458521685, "trialdata": {"rt": -1, "stimulus": "<p id=\"stim\">2</p>", "key_press": -1, "trial_type": "single-stim", "trial_index": 126, "time_elapsed": 638539, "internal_node_id": "0.0-91.0-8.0"}}, {"uniqueid": "MTK1195:32ZKVD547GU1HJNJQ1ECIAEVWL4B37", "current_trial": 127, "dateTime": 1513458522686, "trialdata": {"rt": -1, "stimulus": "<p id=\"stim\">1</p>", "key_press": -1, "trial_type": "single-stim", "trial_index": 127, "time_elapsed": 639543, "internal_node_id": "0.0-91.0-9.0"}}, {"uniqueid": "MTK1195:32ZKVD547GU1HJNJQ1ECIAEVWL4B37", "current_trial": 128, "dateTime": 1513458524190, "trialdata": {"rt": -1, "stimulus": "<p id=\"stim\">+</p>", "key_press": -1, "type": "FIXATION", "trial_type": "single-stim", "trial_index": 128, "time_elapsed": 641047, "internal_node_id": "0.0-92.0-0.0"}}, {"uniqueid": "MTK1195:32ZKVD547GU1HJNJQ1ECIAEVWL4B37", "current_trial": 129, "dateTime": 1513458526151, "trialdata": {"rt": -1000, "stimulus": "/static/audio/wordpool/FRAME.wav", "key_press": -1, "type": "PRES_AUD", "word": "frame", "wordID": 599, "conditions": [24, 800, "a", 12000], "trial": 3, "serialpos": 0, "trial_type": "single-audio", "trial_index": 129, "time_elapsed": 643008, "internal_node_id": "0.0-93.0"}}, {"uniqueid": "MTK1195:32ZKVD547GU1HJNJQ1ECIAEVWL4B37", "current_trial": 130, "dateTime": 1513458528052, "trialdata": {"rt": -1000, "stimulus": "/static/audio/wordpool/FLUTE.wav", "key_press": -1, "type": "PRES_AUD", "word": "flute", "wordID": 584, "conditions": [24, 800, "a", 12000], "trial": 3, "serialpos": 1, "trial_type": "single-audio", "trial_index": 130, "time_elapsed": 644909, "internal_node_id": "0.0-94.0"}}, {"uniqueid": "MTK1195:32ZKVD547GU1HJNJQ1ECIAEVWL4B37", "current_trial": 131, "dateTime": 1513458529657, "trialdata": {"rt": -1000, "stimulus": "/static/audio/wordpool/WOMAN.wav", "key_press": -1, "type": "PRES_AUD", "word": "woman", "wordID": 1619, "conditions": [24, 800, "a", 12000], "trial": 3, "serialpos": 2, "trial_type": "single-audio", "trial_index": 131, "time_elapsed": 646514, "internal_node_id": "0.0-95.0"}}, {"uniqueid": "MTK1195:32ZKVD547GU1HJNJQ1ECIAEVWL4B37", "current_trial": 132, "dateTime": 1513458531577, "trialdata": {"rt": -1000, "stimulus": "/static/audio/wordpool/QUARTER.wav", "key_press": -1, "type": "PRES_AUD", "word": "quarter", "wordID": 1147, "conditions": [24, 800, "a", 12000], "trial": 3, "serialpos": 3, "trial_type": "single-audio", "trial_index": 132, "time_elapsed": 648434, "internal_node_id": "0.0-96.0"}}, {"uniqueid": "MTK1195:32ZKVD547GU1HJNJQ1ECIAEVWL4B37", "current_trial": 133, "dateTime": 1513458533484, "trialdata": {"rt": -1000, "stimulus": "/static/audio/wordpool/BANJO.wav", "key_press": -1, "type": "PRES_AUD", "word": "banjo", "wordID": 81, "conditions": [24, 800, "a", 12000], "trial": 3, "serialpos": 4, "trial_type": "single-audio", "trial_index": 133, "time_elapsed": 650341, "internal_node_id": "0.0-97.0"}}, {"uniqueid": "MTK1195:32ZKVD547GU1HJNJQ1ECIAEVWL4B37", "current_trial": 134, "dateTime": 1513458535137, "trialdata": {"rt": -1000, "stimulus": "/static/audio/wordpool/NOTEBOOK.wav", "key_press": -1, "type": "PRES_AUD", "word": "notebook", "wordID": 958, "conditions": [24, 800, "a", 12000], "trial": 3, "serialpos": 5, "trial_type": "single-audio", "trial_index": 134, "time_elapsed": 651993, "internal_node_id": "0.0-98.0"}}, {"uniqueid": "MTK1195:32ZKVD547GU1HJNJQ1ECIAEVWL4B37", "current_trial": 135, "dateTime": 1513458536793, "trialdata": {"rt": -1000, "stimulus": "/static/audio/wordpool/MATTRESS.wav", "key_press": -1, "type": "PRES_AUD", "word": "mattress", "wordID": 878, "conditions": [24, 800, "a", 12000], "trial": 3, "serialpos": 6, "trial_type": "single-audio", "trial_index": 135, "time_elapsed": 653650, "internal_node_id": "0.0-99.0"}}, {"uniqueid": "MTK1195:32ZKVD547GU1HJNJQ1ECIAEVWL4B37", "current_trial": 136, "dateTime": 1513458538758, "trialdata": {"rt": -1000, "stimulus": "/static/audio/wordpool/SCALLOP.wav", "key_press": -1, "type": "PRES_AUD", "word": "scallop", "wordID": 1241, "conditions": [24, 800, "a", 12000], "trial": 3, "serialpos": 7, "trial_type": "single-audio", "trial_index": 136, "time_elapsed": 655615, "internal_node_id": "0.0-100.0"}}, {"uniqueid": "MTK1195:32ZKVD547GU1HJNJQ1ECIAEVWL4B37", "current_trial": 137, "dateTime": 1513458540435, "trialdata": {"rt": -1000, "stimulus": "/static/audio/wordpool/PIMPLE.wav", "key_press": -1, "type": "PRES_AUD", "word": "pimple", "wordID": 1070, "conditions": [24, 800, "a", 12000], "trial": 3, "serialpos": 8, "trial_type": "single-audio", "trial_index": 137, "time_elapsed": 657292, "internal_node_id": "0.0-101.0"}}, {"uniqueid": "MTK1195:32ZKVD547GU1HJNJQ1ECIAEVWL4B37", "current_trial": 138, "dateTime": 1513458542286, "trialdata": {"rt": -1000, "stimulus": "/static/audio/wordpool/TOMBSTONE.wav", "key_press": -1, "type": "PRES_AUD", "word": "tombstone", "wordID": 1477, "conditions": [24, 800, "a", 12000], "trial": 3, "serialpos": 9, "trial_type": "single-audio", "trial_index": 138, "time_elapsed": 659143, "internal_node_id": "0.0-102.0"}}, {"uniqueid": "MTK1195:32ZKVD547GU1HJNJQ1ECIAEVWL4B37", "current_trial": 139, "dateTime": 1513458544251, "trialdata": {"rt": -1000, "stimulus": "/static/audio/wordpool/CASKET.wav", "key_press": -1, "type": "PRES_AUD", "word": "casket", "wordID": 254, "conditions": [24, 800, "a", 12000], "trial": 3, "serialpos": 10, "trial_type": "single-audio", "trial_index": 139, "time_elapsed": 661108, "internal_node_id": "0.0-103.0"}}, {"uniqueid": "MTK1195:32ZKVD547GU1HJNJQ1ECIAEVWL4B37", "current_trial": 140, "dateTime": 1513458546073, "trialdata": {"rt": -1000, "stimulus": "/static/audio/wordpool/CARROT.wav", "key_press": -1, "type": "PRES_AUD", "word": "carrot", "wordID": 248, "conditions": [24, 800, "a", 12000], "trial": 3, "serialpos": 11, "trial_type": "single-audio", "trial_index": 140, "time_elapsed": 662930, "internal_node_id": "0.0-104.0"}}, {"uniqueid": "MTK1195:32ZKVD547GU1HJNJQ1ECIAEVWL4B37", "current_trial": 141, "dateTime": 1513458547761, "trialdata": {"rt": -1000, "stimulus": "/static/audio/wordpool/ANKLE.wav", "key_press": -1, "type": "PRES_AUD", "word": "ankle", "wordID": 23, "conditions": [24, 800, "a", 12000], "trial": 3, "serialpos": 12, "trial_type": "single-audio", "trial_index": 141, "time_elapsed": 664618, "internal_node_id": "0.0-105.0"}}, {"uniqueid": "MTK1195:32ZKVD547GU1HJNJQ1ECIAEVWL4B37", "current_trial": 142, "dateTime": 1513458549581, "trialdata": {"rt": -1000, "stimulus": "/static/audio/wordpool/SHOULDER.wav", "key_press": -1, "type": "PRES_AUD", "word": "shoulder", "wordID": 1293, "conditions": [24, 800, "a", 12000], "trial": 3, "serialpos": 13, "trial_type": "single-audio", "trial_index": 142, "time_elapsed": 666437, "internal_node_id": "0.0-106.0"}}, {"uniqueid": "MTK1195:32ZKVD547GU1HJNJQ1ECIAEVWL4B37", "current_trial": 143, "dateTime": 1513458551257, "trialdata": {"rt": -1000, "stimulus": "/static/audio/wordpool/COUSIN.wav", "key_press": -1, "type": "PRES_AUD", "word": "cousin", "wordID": 391, "conditions": [24, 800, "a", 12000], "trial": 3, "serialpos": 14, "trial_type": "single-audio", "trial_index": 143, "time_elapsed": 668114, "internal_node_id": "0.0-107.0"}}, {"uniqueid": "MTK1195:32ZKVD547GU1HJNJQ1ECIAEVWL4B37", "current_trial": 144, "dateTime": 1513458553197, "trialdata": {"rt": -1000, "stimulus": "/static/audio/wordpool/ROCKET.wav", "key_press": -1, "type": "PRES_AUD", "word": "rocket", "wordID": 1201, "conditions": [24, 800, "a", 12000], "trial": 3, "serialpos": 15, "trial_type": "single-audio", "trial_index": 144, "time_elapsed": 670054, "internal_node_id": "0.0-108.0"}}, {"uniqueid": "MTK1195:32ZKVD547GU1HJNJQ1ECIAEVWL4B37", "current_trial": 145, "dateTime": 1513458554861, "trialdata": {"rt": -1000, "stimulus": "/static/audio/wordpool/SEAGULL.wav", "key_press": -1, "type": "PRES_AUD", "word": "seagull", "wordID": 1260, "conditions": [24, 800, "a", 12000], "trial": 3, "serialpos": 16, "trial_type": "single-audio", "trial_index": 145, "time_elapsed": 671718, "internal_node_id": "0.0-109.0"}}, {"uniqueid": "MTK1195:32ZKVD547GU1HJNJQ1ECIAEVWL4B37", "current_trial": 146, "dateTime": 1513458556738, "trialdata": {"rt": -1000, "stimulus": "/static/audio/wordpool/SWITCH.wav", "key_press": -1, "type": "PRES_AUD", "word": "switch", "wordID": 1421, "conditions": [24, 800, "a", 12000], "trial": 3, "serialpos": 17, "trial_type": "single-audio", "trial_index": 146, "time_elapsed": 673595, "internal_node_id": "0.0-110.0"}}, {"uniqueid": "MTK1195:32ZKVD547GU1HJNJQ1ECIAEVWL4B37", "current_trial": 147, "dateTime": 1513458558590, "trialdata": {"rt": -1000, "stimulus": "/static/audio/wordpool/WAITER.wav", "key_press": -1, "type": "PRES_AUD", "word": "waiter", "wordID": 1579, "conditions": [24, 800, "a", 12000], "trial": 3, "serialpos": 18, "trial_type": "single-audio", "trial_index": 147, "time_elapsed": 675447, "internal_node_id": "0.0-111.0"}}, {"uniqueid": "MTK1195:32ZKVD547GU1HJNJQ1ECIAEVWL4B37", "current_trial": 148, "dateTime": 1513458560566, "trialdata": {"rt": -1000, "stimulus": "/static/audio/wordpool/GAZELLE.wav", "key_press": -1, "type": "PRES_AUD", "word": "gazelle", "wordID": 627, "conditions": [24, 800, "a", 12000], "trial": 3, "serialpos": 19, "trial_type": "single-audio", "trial_index": 148, "time_elapsed": 677423, "internal_node_id": "0.0-112.0"}}, {"uniqueid": "MTK1195:32ZKVD547GU1HJNJQ1ECIAEVWL4B37", "current_trial": 149, "dateTime": 1513458562453, "trialdata": {"rt": -1000, "stimulus": "/static/audio/wordpool/CAMEL.wav", "key_press": -1, "type": "PRES_AUD", "word": "camel", "wordID": 222, "conditions": [24, 800, "a", 12000], "trial": 3, "serialpos": 20, "trial_type": "single-audio", "trial_index": 149, "time_elapsed": 679310, "internal_node_id": "0.0-113.0"}}, {"uniqueid": "MTK1195:32ZKVD547GU1HJNJQ1ECIAEVWL4B37", "current_trial": 150, "dateTime": 1513458564098, "trialdata": {"rt": -1000, "stimulus": "/static/audio/wordpool/SIBLING.wav", "key_press": -1, "type": "PRES_AUD", "word": "sibling", "wordID": 1300, "conditions": [24, 800, "a", 12000], "trial": 3, "serialpos": 21, "trial_type": "single-audio", "trial_index": 150, "time_elapsed": 680955, "internal_node_id": "0.0-114.0"}}, {"uniqueid": "MTK1195:32ZKVD547GU1HJNJQ1ECIAEVWL4B37", "current_trial": 151, "dateTime": 1513458565870, "trialdata": {"rt": -1000, "stimulus": "/static/audio/wordpool/GIFT.wav", "key_press": -1, "type": "PRES_AUD", "word": "gift", "wordID": 634, "conditions": [24, 800, "a", 12000], "trial": 3, "serialpos": 22, "trial_type": "single-audio", "trial_index": 151, "time_elapsed": 682727, "internal_node_id": "0.0-115.0"}}, {"uniqueid": "MTK1195:32ZKVD547GU1HJNJQ1ECIAEVWL4B37", "current_trial": 152, "dateTime": 1513458567691, "trialdata": {"rt": -1000, "stimulus": "/static/audio/wordpool/MISSILE.wav", "key_press": -1, "type": "PRES_AUD", "word": "missile", "wordID": 899, "conditions": [24, 800, "a", 12000], "trial": 3, "serialpos": 23, "trial_type": "single-audio", "trial_index": 152, "time_elapsed": 684548, "internal_node_id": "0.0-116.0"}}, {"uniqueid": "MTK1195:32ZKVD547GU1HJNJQ1ECIAEVWL4B37", "current_trial": 153, "dateTime": 1513458568963, "trialdata": {"rt": -1, "stimulus": "", "key_press": -1, "type": "PRE_RECALL_DELAY", "trial_type": "single-stim", "trial_index": 153, "time_elapsed": 685820, "internal_node_id": "0.0-117.0-0.0"}}, {"uniqueid": "MTK1195:32ZKVD547GU1HJNJQ1ECIAEVWL4B37", "current_trial": 154, "dateTime": 1513458569468, "trialdata": {"rt": -1000, "stimulus": "/static/audio/400Hz.wav", "key_press": -1, "type": "PRE_RECALL_ALERT", "trial_type": "single-audio", "trial_index": 154, "time_elapsed": 686324, "internal_node_id": "0.0-118.0"}}, {"uniqueid": "MTK1195:32ZKVD547GU1HJNJQ1ECIAEVWL4B37", "current_trial": 155, "dateTime": 1513458629479, "trialdata": {"rt": [3398, 6203, 10593, 13909, 17273, 20331, 24339, 25969, 28384, 36268, 45154], "recwords": ["missile", "woman", "sibling", "mattress", "notebook", "quarter", "cousin", "casket", "tombstone", "pimple", "rocket"], "type": "FREE_RECALL", "conditions": [24, 800, "a", 12000], "trial": 3, "trial_type": "free-recall", "trial_index": 155, "time_elapsed": 746331, "internal_node_id": "0.0-119.0-0.0"}}, {"uniqueid": "MTK1195:32ZKVD547GU1HJNJQ1ECIAEVWL4B37", "current_trial": 156, "dateTime": 1513458635728, "trialdata": {"rt": 4247, "key_press": 74, "type": "INSTRUCTIONS", "trial_type": "text", "trial_index": 156, "time_elapsed": 752585, "internal_node_id": "0.0-120.0"}}, {"uniqueid": "MTK1195:32ZKVD547GU1HJNJQ1ECIAEVWL4B37", "current_trial": 157, "dateTime": 1513458661738, "trialdata": {"rt": [3836, 7282, 10257, 12547, 15638, 20117, 23763], "responses": ["13", "15", "17", "14", "18", "14", "20"], "num1": [6, 6, 7, 6, 8, 3, 8, 7], "num2": [3, 3, 3, 4, 9, 8, 4, 7], "num3": [4, 6, 7, 4, 1, 3, 8, 6], "type": "DISTRACTOR", "conditions": [24, 800, "a", 24000], "trial": 4, "trial_type": "math-distractor", "trial_index": 157, "time_elapsed": 778595, "internal_node_id": "0.0-121.0"}}, {"uniqueid": "MTK1195:32ZKVD547GU1HJNJQ1ECIAEVWL4B37", "current_trial": 158, "dateTime": 1513458664746, "trialdata": {"rt": -1, "stimulus": "<p id=\"stim\">10</p>", "key_press": -1, "trial_type": "single-stim", "trial_index": 158, "time_elapsed": 781603, "internal_node_id": "0.0-122.0-0.0"}}, {"uniqueid": "MTK1195:32ZKVD547GU1HJNJQ1ECIAEVWL4B37", "current_trial": 159, "dateTime": 1513458665750, "trialdata": {"rt": -1, "stimulus": "<p id=\"stim\">9</p>", "key_press": -1, "trial_type": "single-stim", "trial_index": 159, "time_elapsed": 782607, "internal_node_id": "0.0-122.0-1.0"}}, {"uniqueid": "MTK1195:32ZKVD547GU1HJNJQ1ECIAEVWL4B37", "current_trial": 160, "dateTime": 1513458666754, "trialdata": {"rt": -1, "stimulus": "<p id=\"stim\">8</p>", "key_press": -1, "trial_type": "single-stim", "trial_index": 160, "time_elapsed": 783611, "internal_node_id": "0.0-122.0-2.0"}}, {"uniqueid": "MTK1195:32ZKVD547GU1HJNJQ1ECIAEVWL4B37", "current_trial": 161, "dateTime": 1513458667758, "trialdata": {"rt": -1, "stimulus": "<p id=\"stim\">7</p>", "key_press": -1, "trial_type": "single-stim", "trial_index": 161, "time_elapsed": 784615, "internal_node_id": "0.0-122.0-3.0"}}, {"uniqueid": "MTK1195:32ZKVD547GU1HJNJQ1ECIAEVWL4B37", "current_trial": 162, "dateTime": 1513458668762, "trialdata": {"rt": -1, "stimulus": "<p id=\"stim\">6</p>", "key_press": -1, "trial_type": "single-stim", "trial_index": 162, "time_elapsed": 785619, "internal_node_id": "0.0-122.0-4.0"}}, {"uniqueid": "MTK1195:32ZKVD547GU1HJNJQ1ECIAEVWL4B37", "current_trial": 163, "dateTime": 1513458669766, "trialdata": {"rt": -1, "stimulus": "<p id=\"stim\">5</p>", "key_press": -1, "trial_type": "single-stim", "trial_index": 163, "time_elapsed": 786623, "internal_node_id": "0.0-122.0-5.0"}}, {"uniqueid": "MTK1195:32ZKVD547GU1HJNJQ1ECIAEVWL4B37", "current_trial": 164, "dateTime": 1513458670770, "trialdata": {"rt": -1, "stimulus": "<p id=\"stim\">4</p>", "key_press": -1, "trial_type": "single-stim", "trial_index": 164, "time_elapsed": 787627, "internal_node_id": "0.0-122.0-6.0"}}, {"uniqueid": "MTK1195:32ZKVD547GU1HJNJQ1ECIAEVWL4B37", "current_trial": 165, "dateTime": 1513458671774, "trialdata": {"rt": -1, "stimulus": "<p id=\"stim\">3</p>", "key_press": -1, "trial_type": "single-stim", "trial_index": 165, "time_elapsed": 788631, "internal_node_id": "0.0-122.0-7.0"}}, {"uniqueid": "MTK1195:32ZKVD547GU1HJNJQ1ECIAEVWL4B37", "current_trial": 166, "dateTime": 1513458672782, "trialdata": {"rt": -1, "stimulus": "<p id=\"stim\">2</p>", "key_press": -1, "trial_type": "single-stim", "trial_index": 166, "time_elapsed": 789635, "internal_node_id": "0.0-122.0-8.0"}}, {"uniqueid": "MTK1195:32ZKVD547GU1HJNJQ1ECIAEVWL4B37", "current_trial": 167, "dateTime": 1513458673786, "trialdata": {"rt": -1, "stimulus": "<p id=\"stim\">1</p>", "key_press": -1, "trial_type": "single-stim", "trial_index": 167, "time_elapsed": 790643, "internal_node_id": "0.0-122.0-9.0"}}, {"uniqueid": "MTK1195:32ZKVD547GU1HJNJQ1ECIAEVWL4B37", "current_trial": 168, "dateTime": 1513458675290, "trialdata": {"rt": -1, "stimulus": "<p id=\"stim\">+</p>", "key_press": -1, "type": "FIXATION", "trial_type": "single-stim", "trial_index": 168, "time_elapsed": 792147, "internal_node_id": "0.0-123.0-0.0"}}, {"uniqueid": "MTK1195:32ZKVD547GU1HJNJQ1ECIAEVWL4B37", "current_trial": 169, "dateTime": 1513458677238, "trialdata": {"rt": -1000, "stimulus": "/static/audio/wordpool/BOYFRIEND.wav", "key_press": -1, "type": "PRES_AUD", "word": "boyfriend", "wordID": 161, "conditions": [24, 800, "a", 24000], "trial": 4, "serialpos": 0, "trial_type": "single-audio", "trial_index": 169, "time_elapsed": 794095, "internal_node_id": "0.0-124.0"}}, {"uniqueid": "MTK1195:32ZKVD547GU1HJNJQ1ECIAEVWL4B37", "current_trial": 170, "dateTime": 1513458678926, "trialdata": {"rt": -1000, "stimulus": "/static/audio/wordpool/SISTER.wav", "key_press": -1, "type": "PRES_AUD", "word": "sister", "wordID": 1311, "conditions": [24, 800, "a", 24000], "trial": 4, "serialpos": 1, "trial_type": "single-audio", "trial_index": 170, "time_elapsed": 795783, "internal_node_id": "0.0-125.0"}}, {"uniqueid": "MTK1195:32ZKVD547GU1HJNJQ1ECIAEVWL4B37", "current_trial": 171, "dateTime": 1513458680885, "trialdata": {"rt": -1000, "stimulus": "/static/audio/wordpool/RADISH.wav", "key_press": -1, "type": "PRES_AUD", "word": "radish", "wordID": 1157, "conditions": [24, 800, "a", 24000], "trial": 4, "serialpos": 2, "trial_type": "single-audio", "trial_index": 171, "time_elapsed": 797742, "internal_node_id": "0.0-126.0"}}, {"uniqueid": "MTK1195:32ZKVD547GU1HJNJQ1ECIAEVWL4B37", "current_trial": 172, "dateTime": 1513458682714, "trialdata": {"rt": -1000, "stimulus": "/static/audio/wordpool/TURNIP.wav", "key_press": -1, "type": "PRES_AUD", "word": "turnip", "wordID": 1520, "conditions": [24, 800, "a", 24000], "trial": 4, "serialpos": 3, "trial_type": "single-audio", "trial_index": 172, "time_elapsed": 799571, "internal_node_id": "0.0-127.0"}}, {"uniqueid": "MTK1195:32ZKVD547GU1HJNJQ1ECIAEVWL4B37", "current_trial": 173, "dateTime": 1513458684673, "trialdata": {"rt": -1000, "stimulus": "/static/audio/wordpool/JELLO.wav", "key_press": -1, "type": "PRES_AUD", "word": "jello", "wordID": 753, "conditions": [24, 800, "a", 24000], "trial": 4, "serialpos": 4, "trial_type": "single-audio", "trial_index": 173, "time_elapsed": 801529, "internal_node_id": "0.0-128.0"}}, {"uniqueid": "MTK1195:32ZKVD547GU1HJNJQ1ECIAEVWL4B37", "current_trial": 174, "dateTime": 1513458686310, "trialdata": {"rt": -1000, "stimulus": "/static/audio/wordpool/PROTON.wav", "key_press": -1, "type": "PRES_AUD", "word": "proton", "wordID": 1131, "conditions": [24, 800, "a", 24000], "trial": 4, "serialpos": 5, "trial_type": "single-audio", "trial_index": 174, "time_elapsed": 803166, "internal_node_id": "0.0-129.0"}}, {"uniqueid": "MTK1195:32ZKVD547GU1HJNJQ1ECIAEVWL4B37", "current_trial": 175, "dateTime": 1513458688260, "trialdata": {"rt": -1000, "stimulus": "/static/audio/wordpool/CANDY.wav", "key_press": -1, "type": "PRES_AUD", "word": "candy", "wordID": 229, "conditions": [24, 800, "a", 24000], "trial": 4, "serialpos": 6, "trial_type": "single-audio", "trial_index": 175, "time_elapsed": 805117, "internal_node_id": "0.0-130.0"}}, {"uniqueid": "MTK1195:32ZKVD547GU1HJNJQ1ECIAEVWL4B37", "current_trial": 176, "dateTime": 1513458689962, "trialdata": {"rt": -1000, "stimulus": "/static/audio/wordpool/RUG.wav", "key_press": -1, "type": "PRES_AUD", "word": "rug", "wordID": 1214, "conditions": [24, 800, "a", 24000], "trial": 4, "serialpos": 7, "trial_type": "single-audio", "trial_index": 176, "time_elapsed": 806818, "internal_node_id": "0.0-131.0"}}, {"uniqueid": "MTK1195:32ZKVD547GU1HJNJQ1ECIAEVWL4B37", "current_trial": 177, "dateTime": 1513458691563, "trialdata": {"rt": -1000, "stimulus": "/static/audio/wordpool/MARKER.wav", "key_press": -1, "type": "PRES_AUD", "word": "marker", "wordID": 869, "conditions": [24, 800, "a", 24000], "trial": 4, "serialpos": 8, "trial_type": "single-audio", "trial_index": 177, "time_elapsed": 808420, "internal_node_id": "0.0-132.0"}}, {"uniqueid": "MTK1195:32ZKVD547GU1HJNJQ1ECIAEVWL4B37", "current_trial": 178, "dateTime": 1513458693522, "trialdata": {"rt": -1000, "stimulus": "/static/audio/wordpool/SCRIBBLE.wav", "key_press": -1, "type": "PRES_AUD", "word": "scribble", "wordID": 1255, "conditions": [24, 800, "a", 24000], "trial": 4, "serialpos": 9, "trial_type": "single-audio", "trial_index": 178, "time_elapsed": 810378, "internal_node_id": "0.0-133.0"}}, {"uniqueid": "MTK1195:32ZKVD547GU1HJNJQ1ECIAEVWL4B37", "current_trial": 179, "dateTime": 1513458695226, "trialdata": {"rt": -1000, "stimulus": "/static/audio/wordpool/KIDNEY.wav", "key_press": -1, "type": "PRES_AUD", "word": "kidney", "wordID": 775, "conditions": [24, 800, "a", 24000], "trial": 4, "serialpos": 10, "trial_type": "single-audio", "trial_index": 179, "time_elapsed": 812083, "internal_node_id": "0.0-134.0"}}, {"uniqueid": "MTK1195:32ZKVD547GU1HJNJQ1ECIAEVWL4B37", "current_trial": 180, "dateTime": 1513458697020, "trialdata": {"rt": -1000, "stimulus": "/static/audio/wordpool/JELLY.wav", "key_press": -1, "type": "PRES_AUD", "word": "jelly", "wordID": 754, "conditions": [24, 800, "a", 24000], "trial": 4, "serialpos": 11, "trial_type": "single-audio", "trial_index": 180, "time_elapsed": 813876, "internal_node_id": "0.0-135.0"}}, {"uniqueid": "MTK1195:32ZKVD547GU1HJNJQ1ECIAEVWL4B37", "current_trial": 181, "dateTime": 1513458698913, "trialdata": {"rt": -1000, "stimulus": "/static/audio/wordpool/REBEL.wav", "key_press": -1, "type": "PRES_AUD", "word": "rebel", "wordID": 1171, "conditions": [24, 800, "a", 24000], "trial": 4, "serialpos": 12, "trial_type": "single-audio", "trial_index": 181, "time_elapsed": 815770, "internal_node_id": "0.0-136.0"}}, {"uniqueid": "MTK1195:32ZKVD547GU1HJNJQ1ECIAEVWL4B37", "current_trial": 182, "dateTime": 1513458700655, "trialdata": {"rt": -1000, "stimulus": "/static/audio/wordpool/STREAM.wav", "key_press": -1, "type": "PRES_AUD", "word": "stream", "wordID": 1391, "conditions": [24, 800, "a", 24000], "trial": 4, "serialpos": 13, "trial_type": "single-audio", "trial_index": 182, "time_elapsed": 817512, "internal_node_id": "0.0-137.0"}}, {"uniqueid": "MTK1195:32ZKVD547GU1HJNJQ1ECIAEVWL4B37", "current_trial": 183, "dateTime": 1513458702473, "trialdata": {"rt": -1000, "stimulus": "/static/audio/wordpool/SHRUB.wav", "key_press": -1, "type": "PRES_AUD", "word": "shrub", "wordID": 1298, "conditions": [24, 800, "a", 24000], "trial": 4, "serialpos": 14, "trial_type": "single-audio", "trial_index": 183, "time_elapsed": 819330, "internal_node_id": "0.0-138.0"}}, {"uniqueid": "MTK1195:32ZKVD547GU1HJNJQ1ECIAEVWL4B37", "current_trial": 184, "dateTime": 1513458704239, "trialdata": {"rt": -1000, "stimulus": "/static/audio/wordpool/LILY.wav", "key_press": -1, "type": "PRES_AUD", "word": "lily", "wordID": 820, "conditions": [24, 800, "a", 24000], "trial": 4, "serialpos": 15, "trial_type": "single-audio", "trial_index": 184, "time_elapsed": 821095, "internal_node_id": "0.0-139.0"}}, {"uniqueid": "MTK1195:32ZKVD547GU1HJNJQ1ECIAEVWL4B37", "current_trial": 185, "dateTime": 1513458705876, "trialdata": {"rt": -1000, "stimulus": "/static/audio/wordpool/SAUSAGE.wav", "key_press": -1, "type": "PRES_AUD", "word": "sausage", "wordID": 1237, "conditions": [24, 800, "a", 24000], "trial": 4, "serialpos": 16, "trial_type": "single-audio", "trial_index": 185, "time_elapsed": 822733, "internal_node_id": "0.0-140.0"}}, {"uniqueid": "MTK1195:32ZKVD547GU1HJNJQ1ECIAEVWL4B37", "current_trial": 186, "dateTime": 1513458707493, "trialdata": {"rt": -1000, "stimulus": "/static/audio/wordpool/FEMALE.wav", "key_press": -1, "type": "PRES_AUD", "word": "female", "wordID": 558, "conditions": [24, 800, "a", 24000], "trial": 4, "serialpos": 17, "trial_type": "single-audio", "trial_index": 186, "time_elapsed": 824350, "internal_node_id": "0.0-141.0"}}, {"uniqueid": "MTK1195:32ZKVD547GU1HJNJQ1ECIAEVWL4B37", "current_trial": 187, "dateTime": 1513458709483, "trialdata": {"rt": -1000, "stimulus": "/static/audio/wordpool/DANDRUFF.wav", "key_press": -1, "type": "PRES_AUD", "word": "dandruff", "wordID": 438, "conditions": [24, 800, "a", 24000], "trial": 4, "serialpos": 18, "trial_type": "single-audio", "trial_index": 187, "time_elapsed": 826340, "internal_node_id": "0.0-142.0"}}, {"uniqueid": "MTK1195:32ZKVD547GU1HJNJQ1ECIAEVWL4B37", "current_trial": 188, "dateTime": 1513458711476, "trialdata": {"rt": -1000, "stimulus": "/static/audio/wordpool/SWAMP.wav", "key_press": -1, "type": "PRES_AUD", "word": "swamp", "wordID": 1415, "conditions": [24, 800, "a", 24000], "trial": 4, "serialpos": 19, "trial_type": "single-audio", "trial_index": 188, "time_elapsed": 828332, "internal_node_id": "0.0-143.0"}}, {"uniqueid": "MTK1195:32ZKVD547GU1HJNJQ1ECIAEVWL4B37", "current_trial": 189, "dateTime": 1513458713284, "trialdata": {"rt": -1000, "stimulus": "/static/audio/wordpool/PASTA.wav", "key_press": -1, "type": "PRES_AUD", "word": "pasta", "wordID": 1020, "conditions": [24, 800, "a", 24000], "trial": 4, "serialpos": 20, "trial_type": "single-audio", "trial_index": 189, "time_elapsed": 830141, "internal_node_id": "0.0-144.0"}}, {"uniqueid": "MTK1195:32ZKVD547GU1HJNJQ1ECIAEVWL4B37", "current_trial": 190, "dateTime": 1513458715046, "trialdata": {"rt": -1000, "stimulus": "/static/audio/wordpool/MISTER.wav", "key_press": -1, "type": "PRES_AUD", "word": "mister", "wordID": 900, "conditions": [24, 800, "a", 24000], "trial": 4, "serialpos": 21, "trial_type": "single-audio", "trial_index": 190, "time_elapsed": 831903, "internal_node_id": "0.0-145.0"}}, {"uniqueid": "MTK1195:32ZKVD547GU1HJNJQ1ECIAEVWL4B37", "current_trial": 191, "dateTime": 1513458716719, "trialdata": {"rt": -1000, "stimulus": "/static/audio/wordpool/BUCKET.wav", "key_press": -1, "type": "PRES_AUD", "word": "bucket", "wordID": 183, "conditions": [24, 800, "a", 24000], "trial": 4, "serialpos": 22, "trial_type": "single-audio", "trial_index": 191, "time_elapsed": 833576, "internal_node_id": "0.0-146.0"}}, {"uniqueid": "MTK1195:32ZKVD547GU1HJNJQ1ECIAEVWL4B37", "current_trial": 192, "dateTime": 1513458718514, "trialdata": {"rt": -1000, "stimulus": "/static/audio/wordpool/VALVE.wav", "key_press": -1, "type": "PRES_AUD", "word": "valve", "wordID": 1545, "conditions": [24, 800, "a", 24000], "trial": 4, "serialpos": 23, "trial_type": "single-audio", "trial_index": 192, "time_elapsed": 835371, "internal_node_id": "0.0-147.0"}}, {"uniqueid": "MTK1195:32ZKVD547GU1HJNJQ1ECIAEVWL4B37", "current_trial": 193, "dateTime": 1513458719878, "trialdata": {"rt": -1, "stimulus": "", "key_press": -1, "type": "PRE_RECALL_DELAY", "trial_type": "single-stim", "trial_index": 193, "time_elapsed": 836735, "internal_node_id": "0.0-148.0-0.0"}}, {"uniqueid": "MTK1195:32ZKVD547GU1HJNJQ1ECIAEVWL4B37", "current_trial": 194, "dateTime": 1513458720380, "trialdata": {"rt": -1000, "stimulus": "/static/audio/400Hz.wav", "key_press": -1, "type": "PRE_RECALL_ALERT", "trial_type": "single-audio", "trial_index": 194, "time_elapsed": 837237, "internal_node_id": "0.0-149.0"}}, {"uniqueid": "MTK1195:32ZKVD547GU1HJNJQ1ECIAEVWL4B37", "current_trial": 195, "dateTime": 1513458780390, "trialdata": {"rt": [6484, 8454, 14372, 17569, 20060, 21693, 23573, 29383, 37932, 39462, 43469], "recwords": ["boyfriend", "sister", "bucket", "female", "candy", "jello", "jelly", "sausage", "female", "mister", "sausage"], "type": "FREE_RECALL", "conditions": [24, 800, "a", 24000], "trial": 4, "trial_type": "free-recall", "trial_index": 195, "time_elapsed": 897242, "internal_node_id": "0.0-150.0-0.0"}}, {"uniqueid": "MTK1195:32ZKVD547GU1HJNJQ1ECIAEVWL4B37", "current_trial": 196, "dateTime": 1513458784378, "trialdata": {"rt": 1986, "key_press": 72, "type": "INSTRUCTIONS", "trial_type": "text", "trial_index": 196, "time_elapsed": 901235, "internal_node_id": "0.0-151.0"}}, {"uniqueid": "MTK1195:32ZKVD547GU1HJNJQ1ECIAEVWL4B37", "current_trial": 197, "dateTime": 1513458810386, "trialdata": {"rt": [2584, 6387, 10281, 12365, 16184, 18186, 20138, 22589], "responses": ["10", "17", "16", "14", "15", "4", "15", "15"], "num1": [5, 6, 7, 3, 7, 1, 5, 4, 8], "num2": [1, 8, 5, 4, 6, 2, 9, 9, 7], "num3": [4, 3, 4, 7, 2, 1, 1, 2, 3], "type": "DISTRACTOR", "conditions": [12, 800, "a", 24000], "trial": 5, "trial_type": "math-distractor", "trial_index": 197, "time_elapsed": 927243, "internal_node_id": "0.0-152.0"}}, {"uniqueid": "MTK1195:32ZKVD547GU1HJNJQ1ECIAEVWL4B37", "current_trial": 198, "dateTime": 1513458813394, "trialdata": {"rt": -1, "stimulus": "<p id=\"stim\">10</p>", "key_press": -1, "trial_type": "single-stim", "trial_index": 198, "time_elapsed": 930251, "internal_node_id": "0.0-153.0-0.0"}}, {"uniqueid": "MTK1195:32ZKVD547GU1HJNJQ1ECIAEVWL4B37", "current_trial": 199, "dateTime": 1513458814398, "trialdata": {"rt": -1, "stimulus": "<p id=\"stim\">9</p>", "key_press": -1, "trial_type": "single-stim", "trial_index": 199, "time_elapsed": 931255, "internal_node_id": "0.0-153.0-1.0"}}, {"uniqueid": "MTK1195:32ZKVD547GU1HJNJQ1ECIAEVWL4B37", "current_trial": 200, "dateTime": 1513458815404, "trialdata": {"rt": -1, "stimulus": "<p id=\"stim\">8</p>", "key_press": -1, "trial_type": "single-stim", "trial_index": 200, "time_elapsed": 932261, "internal_node_id": "0.0-153.0-2.0"}}, {"uniqueid": "MTK1195:32ZKVD547GU1HJNJQ1ECIAEVWL4B37", "current_trial": 201, "dateTime": 1513458816408, "trialdata": {"rt": -1, "stimulus": "<p id=\"stim\">7</p>", "key_press": -1, "trial_type": "single-stim", "trial_index": 201, "time_elapsed": 933265, "internal_node_id": "0.0-153.0-3.0"}}, {"uniqueid": "MTK1195:32ZKVD547GU1HJNJQ1ECIAEVWL4B37", "current_trial": 202, "dateTime": 1513458817412, "trialdata": {"rt": -1, "stimulus": "<p id=\"stim\">6</p>", "key_press": -1, "trial_type": "single-stim", "trial_index": 202, "time_elapsed": 934269, "internal_node_id": "0.0-153.0-4.0"}}, {"uniqueid": "MTK1195:32ZKVD547GU1HJNJQ1ECIAEVWL4B37", "current_trial": 203, "dateTime": 1513458818416, "trialdata": {"rt": -1, "stimulus": "<p id=\"stim\">5</p>", "key_press": -1, "trial_type": "single-stim", "trial_index": 203, "time_elapsed": 935273, "internal_node_id": "0.0-153.0-5.0"}}, {"uniqueid": "MTK1195:32ZKVD547GU1HJNJQ1ECIAEVWL4B37", "current_trial": 204, "dateTime": 1513458819420, "trialdata": {"rt": 312, "stimulus": "<p id=\"stim\">4</p>", "key_press": 175, "trial_type": "single-stim", "trial_index": 204, "time_elapsed": 936277, "internal_node_id": "0.0-153.0-6.0"}}, {"uniqueid": "MTK1195:32ZKVD547GU1HJNJQ1ECIAEVWL4B37", "current_trial": 205, "dateTime": 1513458820426, "trialdata": {"rt": 12, "stimulus": "<p id=\"stim\">3</p>", "key_press": 175, "trial_type": "single-stim", "trial_index": 205, "time_elapsed": 937281, "internal_node_id": "0.0-153.0-7.0"}}, {"uniqueid": "MTK1195:32ZKVD547GU1HJNJQ1ECIAEVWL4B37", "current_trial": 206, "dateTime": 1513458821428, "trialdata": {"rt": 9, "stimulus": "<p id=\"stim\">2</p>", "key_press": 175, "trial_type": "single-stim", "trial_index": 206, "time_elapsed": 938285, "internal_node_id": "0.0-153.0-8.0"}}, {"uniqueid": "MTK1195:32ZKVD547GU1HJNJQ1ECIAEVWL4B37", "current_trial": 207, "dateTime": 1513458822432, "trialdata": {"rt": -1, "stimulus": "<p id=\"stim\">1</p>", "key_press": -1, "trial_type": "single-stim", "trial_index": 207, "time_elapsed": 939289, "internal_node_id": "0.0-153.0-9.0"}}, {"uniqueid": "MTK1195:32ZKVD547GU1HJNJQ1ECIAEVWL4B37", "current_trial": 208, "dateTime": 1513458823936, "trialdata": {"rt": -1, "stimulus": "<p id=\"stim\">+</p>", "key_press": -1, "type": "FIXATION", "trial_type": "single-stim", "trial_index": 208, "time_elapsed": 940793, "internal_node_id": "0.0-154.0-0.0"}}, {"uniqueid": "MTK1195:32ZKVD547GU1HJNJQ1ECIAEVWL4B37", "current_trial": 209, "dateTime": 1513458825683, "trialdata": {"rt": -1000, "stimulus": "/static/audio/wordpool/TURKEY.wav", "key_press": -1, "type": "PRES_AUD", "word": "turkey", "wordID": 1519, "conditions": [12, 800, "a", 24000], "trial": 5, "serialpos": 0, "trial_type": "single-audio", "trial_index": 209, "time_elapsed": 942539, "internal_node_id": "0.0-155.0"}}, {"uniqueid": "MTK1195:32ZKVD547GU1HJNJQ1ECIAEVWL4B37", "current_trial": 210, "dateTime": 1513458827443, "trialdata": {"rt": -1000, "stimulus": "/static/audio/wordpool/BACON.wav", "key_press": -1, "type": "PRES_AUD", "word": "bacon", "wordID": 66, "conditions": [12, 800, "a", 24000], "trial": 5, "serialpos": 1, "trial_type": "single-audio", "trial_index": 210, "time_elapsed": 944300, "internal_node_id": "0.0-156.0"}}, {"uniqueid": "MTK1195:32ZKVD547GU1HJNJQ1ECIAEVWL4B37", "current_trial": 211, "dateTime": 1513458829249, "trialdata": {"rt": -1000, "stimulus": "/static/audio/wordpool/CABBAGE.wav", "key_press": -1, "type": "PRES_AUD", "word": "cabbage", "wordID": 209, "conditions": [12, 800, "a", 24000], "trial": 5, "serialpos": 2, "trial_type": "single-audio", "trial_index": 211, "time_elapsed": 946105, "internal_node_id": "0.0-157.0"}}, {"uniqueid": "MTK1195:32ZKVD547GU1HJNJQ1ECIAEVWL4B37", "current_trial": 212, "dateTime": 1513458831102, "trialdata": {"rt": -1000, "stimulus": "/static/audio/wordpool/ACTRESS.wav", "key_press": -1, "type": "PRES_AUD", "word": "actress", "wordID": 5, "conditions": [12, 800, "a", 24000], "trial": 5, "serialpos": 3, "trial_type": "single-audio", "trial_index": 212, "time_elapsed": 947959, "internal_node_id": "0.0-158.0"}}, {"uniqueid": "MTK1195:32ZKVD547GU1HJNJQ1ECIAEVWL4B37", "current_trial": 213, "dateTime": 1513458832721, "trialdata": {"rt": -1000, "stimulus": "/static/audio/wordpool/PLIERS.wav", "key_press": -1, "type": "PRES_AUD", "word": "pliers", "wordID": 1088, "conditions": [12, 800, "a", 24000], "trial": 5, "serialpos": 4, "trial_type": "single-audio", "trial_index": 213, "time_elapsed": 949578, "internal_node_id": "0.0-159.0"}}, {"uniqueid": "MTK1195:32ZKVD547GU1HJNJQ1ECIAEVWL4B37", "current_trial": 214, "dateTime": 1513458834641, "trialdata": {"rt": -1000, "stimulus": "/static/audio/wordpool/FLIPPER.wav", "key_press": -1, "type": "PRES_AUD", "word": "flipper", "wordID": 579, "conditions": [12, 800, "a", 24000], "trial": 5, "serialpos": 5, "trial_type": "single-audio", "trial_index": 214, "time_elapsed": 951498, "internal_node_id": "0.0-160.0"}}, {"uniqueid": "MTK1195:32ZKVD547GU1HJNJQ1ECIAEVWL4B37", "current_trial": 215, "dateTime": 1513458836326, "trialdata": {"rt": -1000, "stimulus": "/static/audio/wordpool/ARM.wav", "key_press": -1, "type": "PRES_AUD", "word": "arm", "wordID": 37, "conditions": [12, 800, "a", 24000], "trial": 5, "serialpos": 6, "trial_type": "single-audio", "trial_index": 215, "time_elapsed": 953183, "internal_node_id": "0.0-161.0"}}, {"uniqueid": "MTK1195:32ZKVD547GU1HJNJQ1ECIAEVWL4B37", "current_trial": 216, "dateTime": 1513458838076, "trialdata": {"rt": -1000, "stimulus": "/static/audio/wordpool/LOVER.wav", "key_press": -1, "type": "PRES_AUD", "word": "lover", "wordID": 845, "conditions": [12, 800, "a", 24000], "trial": 5, "serialpos": 7, "trial_type": "single-audio", "trial_index": 216, "time_elapsed": 954933, "internal_node_id": "0.0-162.0"}}, {"uniqueid": "MTK1195:32ZKVD547GU1HJNJQ1ECIAEVWL4B37", "current_trial": 217, "dateTime": 1513458839950, "trialdata": {"rt": -1000, "stimulus": "/static/audio/wordpool/POET.wav", "key_press": -1, "type": "PRES_AUD", "word": "poet", "wordID": 1094, "conditions": [12, 800, "a", 24000], "trial": 5, "serialpos": 8, "trial_type": "single-audio", "trial_index": 217, "time_elapsed": 956807, "internal_node_id": "0.0-163.0"}}, {"uniqueid": "MTK1195:32ZKVD547GU1HJNJQ1ECIAEVWL4B37", "current_trial": 218, "dateTime": 1513458841844, "trialdata": {"rt": -1000, "stimulus": "/static/audio/wordpool/CRIB.wav", "key_press": -1, "type": "PRES_AUD", "word": "crib", "wordID": 406, "conditions": [12, 800, "a", 24000], "trial": 5, "serialpos": 9, "trial_type": "single-audio", "trial_index": 218, "time_elapsed": 958700, "internal_node_id": "0.0-164.0"}}, {"uniqueid": "MTK1195:32ZKVD547GU1HJNJQ1ECIAEVWL4B37", "current_trial": 219, "dateTime": 1513458843569, "trialdata": {"rt": -1000, "stimulus": "/static/audio/wordpool/CRAB.wav", "key_press": -1, "type": "PRES_AUD", "word": "crab", "wordID": 396, "conditions": [12, 800, "a", 24000], "trial": 5, "serialpos": 10, "trial_type": "single-audio", "trial_index": 219, "time_elapsed": 960424, "internal_node_id": "0.0-165.0"}}, {"uniqueid": "MTK1195:32ZKVD547GU1HJNJQ1ECIAEVWL4B37", "current_trial": 220, "dateTime": 1513458845459, "trialdata": {"rt": -1000, "stimulus": "/static/audio/wordpool/ACTOR.wav", "key_press": -1, "type": "PRES_AUD", "word": "actor", "wordID": 4, "conditions": [12, 800, "a", 24000], "trial": 5, "serialpos": 11, "trial_type": "single-audio", "trial_index": 220, "time_elapsed": 962315, "internal_node_id": "0.0-166.0"}}, {"uniqueid": "MTK1195:32ZKVD547GU1HJNJQ1ECIAEVWL4B37", "current_trial": 221, "dateTime": 1513458846662, "trialdata": {"rt": -1, "stimulus": "", "key_press": -1, "type": "PRE_RECALL_DELAY", "trial_type": "single-stim", "trial_index": 221, "time_elapsed": 963519, "internal_node_id": "0.0-167.0-0.0"}}, {"uniqueid": "MTK1195:32ZKVD547GU1HJNJQ1ECIAEVWL4B37", "current_trial": 222, "dateTime": 1513458847166, "trialdata": {"rt": -1000, "stimulus": "/static/audio/400Hz.wav", "key_press": -1, "type": "PRE_RECALL_ALERT", "trial_type": "single-audio", "trial_index": 222, "time_elapsed": 964022, "internal_node_id": "0.0-168.0"}}, {"uniqueid": "MTK1195:32ZKVD547GU1HJNJQ1ECIAEVWL4B37", "current_trial": 223, "dateTime": 1513458907179, "trialdata": {"rt": [6569, 8332, 12608, 16081, 19803, 21527], "recwords": ["lover", "crab", "actress", "actor", "turkey", "crib"], "type": "FREE_RECALL", "conditions": [12, 800, "a", 24000], "trial": 5, "trial_type": "free-recall", "trial_index": 223, "time_elapsed": 1024030, "internal_node_id": "0.0-169.0-0.0"}}, {"uniqueid": "MTK1195:32ZKVD547GU1HJNJQ1ECIAEVWL4B37", "current_trial": 224, "dateTime": 1513458910468, "trialdata": {"rt": 1287, "key_press": 77, "type": "INSTRUCTIONS", "trial_type": "text", "trial_index": 224, "time_elapsed": 1027325, "internal_node_id": "0.0-170.0"}}, {"uniqueid": "MTK1195:32ZKVD547GU1HJNJQ1ECIAEVWL4B37", "current_trial": 225, "dateTime": 1513458924478, "trialdata": {"rt": [4109, 6024, 9077, 11625], "responses": ["11", "9", "15", "14"], "num1": [5, 5, 9, 5, 2], "num2": [4, 3, 4, 2, 4], "num3": [2, 1, 2, 7, 8], "type": "DISTRACTOR", "conditions": [12, 800, "v", 12000], "trial": 6, "trial_type": "math-distractor", "trial_index": 225, "time_elapsed": 1041335, "internal_node_id": "0.0-171.0"}}, {"uniqueid": "MTK1195:32ZKVD547GU1HJNJQ1ECIAEVWL4B37", "current_trial": 226, "dateTime": 1513458927482, "trialdata": {"rt": -1, "stimulus": "<p id=\"stim\">10</p>", "key_press": -1, "trial_type": "single-stim", "trial_index": 226, "time_elapsed": 1044339, "internal_node_id": "0.0-172.0-0.0"}}, {"uniqueid": "MTK1195:32ZKVD547GU1HJNJQ1ECIAEVWL4B37", "current_trial": 227, "dateTime": 1513458928486, "trialdata": {"rt": -1, "stimulus": "<p id=\"stim\">9</p>", "key_press": -1, "trial_type": "single-stim", "trial_index": 227, "time_elapsed": 1045343, "internal_node_id": "0.0-172.0-1.0"}}, {"uniqueid": "MTK1195:32ZKVD547GU1HJNJQ1ECIAEVWL4B37", "current_trial": 228, "dateTime": 1513458929490, "trialdata": {"rt": -1, "stimulus": "<p id=\"stim\">8</p>", "key_press": -1, "trial_type": "single-stim", "trial_index": 228, "time_elapsed": 1046347, "internal_node_id": "0.0-172.0-2.0"}}, {"uniqueid": "MTK1195:32ZKVD547GU1HJNJQ1ECIAEVWL4B37", "current_trial": 229, "dateTime": 1513458930494, "trialdata": {"rt": -1, "stimulus": "<p id=\"stim\">7</p>", "key_press": -1, "trial_type": "single-stim", "trial_index": 229, "time_elapsed": 1047351, "internal_node_id": "0.0-172.0-3.0"}}, {"uniqueid": "MTK1195:32ZKVD547GU1HJNJQ1ECIAEVWL4B37", "current_trial": 230, "dateTime": 1513458931498, "trialdata": {"rt": -1, "stimulus": "<p id=\"stim\">6</p>", "key_press": -1, "trial_type": "single-stim", "trial_index": 230, "time_elapsed": 1048355, "internal_node_id": "0.0-172.0-4.0"}}, {"uniqueid": "MTK1195:32ZKVD547GU1HJNJQ1ECIAEVWL4B37", "current_trial": 231, "dateTime": 1513458932502, "trialdata": {"rt": -1, "stimulus": "<p id=\"stim\">5</p>", "key_press": -1, "trial_type": "single-stim", "trial_index": 231, "time_elapsed": 1049359, "internal_node_id": "0.0-172.0-5.0"}}, {"uniqueid": "MTK1195:32ZKVD547GU1HJNJQ1ECIAEVWL4B37", "current_trial": 232, "dateTime": 1513458933507, "trialdata": {"rt": -1, "stimulus": "<p id=\"stim\">4</p>", "key_press": -1, "trial_type": "single-stim", "trial_index": 232, "time_elapsed": 1050363, "internal_node_id": "0.0-172.0-6.0"}}, {"uniqueid": "MTK1195:32ZKVD547GU1HJNJQ1ECIAEVWL4B37", "current_trial": 233, "dateTime": 1513458934511, "trialdata": {"rt": -1, "stimulus": "<p id=\"stim\">3</p>", "key_press": -1, "trial_type": "single-stim", "trial_index": 233, "time_elapsed": 1051367, "internal_node_id": "0.0-172.0-7.0"}}, {"uniqueid": "MTK1195:32ZKVD547GU1HJNJQ1ECIAEVWL4B37", "current_trial": 234, "dateTime": 1513458935515, "trialdata": {"rt": -1, "stimulus": "<p id=\"stim\">2</p>", "key_press": -1, "trial_type": "single-stim", "trial_index": 234, "time_elapsed": 1052371, "internal_node_id": "0.0-172.0-8.0"}}, {"uniqueid": "MTK1195:32ZKVD547GU1HJNJQ1ECIAEVWL4B37", "current_trial": 235, "dateTime": 1513458936519, "trialdata": {"rt": -1, "stimulus": "<p id=\"stim\">1</p>", "key_press": -1, "trial_type": "single-stim", "trial_index": 235, "time_elapsed": 1053375, "internal_node_id": "0.0-172.0-9.0"}}, {"uniqueid": "MTK1195:32ZKVD547GU1HJNJQ1ECIAEVWL4B37", "current_trial": 236, "dateTime": 1513458938026, "trialdata": {"rt": -1, "stimulus": "<p id=\"stim\">+</p>", "key_press": -1, "type": "FIXATION", "trial_type": "single-stim", "trial_index": 236, "time_elapsed": 1054879, "internal_node_id": "0.0-173.0-0.0"}}, {"uniqueid": "MTK1195:32ZKVD547GU1HJNJQ1ECIAEVWL4B37", "current_trial": 237, "dateTime": 1513458938830, "trialdata": {"rt": -1, "stimulus": "<p id=\"stim\">MONSTER</p>", "key_press": -1, "type": "PRES_VIS", "word": "monster", "wordID": 911, "conditions": [12, 800, "v", 12000], "trial": 6, "serialpos": 0, "trial_type": "single-stim", "trial_index": 237, "time_elapsed": 1055687, "internal_node_id": "0.0-174.0"}}, {"uniqueid": "MTK1195:32ZKVD547GU1HJNJQ1ECIAEVWL4B37", "current_trial": 238, "dateTime": 1513458940534, "trialdata": {"rt": -1, "stimulus": "<p id=\"stim\">BINDER</p>", "key_press": -1, "type": "PRES_VIS", "word": "binder", "wordID": 126, "conditions": [12, 800, "v", 12000], "trial": 6, "serialpos": 1, "trial_type": "single-stim", "trial_index": 238, "time_elapsed": 1057391, "internal_node_id": "0.0-175.0"}}, {"uniqueid": "MTK1195:32ZKVD547GU1HJNJQ1ECIAEVWL4B37", "current_trial": 239, "dateTime": 1513458942490, "trialdata": {"rt": -1, "stimulus": "<p id=\"stim\">OINTMENT</p>", "key_press": -1, "type": "PRES_VIS", "word": "ointment", "wordID": 973, "conditions": [12, 800, "v", 12000], "trial": 6, "serialpos": 2, "trial_type": "single-stim", "trial_index": 239, "time_elapsed": 1059347, "internal_node_id": "0.0-176.0"}}, {"uniqueid": "MTK1195:32ZKVD547GU1HJNJQ1ECIAEVWL4B37", "current_trial": 240, "dateTime": 1513458944106, "trialdata": {"rt": -1, "stimulus": "<p id=\"stim\">LIPSTICK</p>", "key_press": -1, "type": "PRES_VIS", "word": "lipstick", "wordID": 828, "conditions": [12, 800, "v", 12000], "trial": 6, "serialpos": 3, "trial_type": "single-stim", "trial_index": 240, "time_elapsed": 1060963, "internal_node_id": "0.0-177.0"}}, {"uniqueid": "MTK1195:32ZKVD547GU1HJNJQ1ECIAEVWL4B37", "current_trial": 241, "dateTime": 1513458946098, "trialdata": {"rt": -1, "stimulus": "<p id=\"stim\">BULLET</p>", "key_press": -1, "type": "PRES_VIS", "word": "bullet", "wordID": 193, "conditions": [12, 800, "v", 12000], "trial": 6, "serialpos": 4, "trial_type": "single-stim", "trial_index": 241, "time_elapsed": 1062955, "internal_node_id": "0.0-178.0"}}, {"uniqueid": "MTK1195:32ZKVD547GU1HJNJQ1ECIAEVWL4B37", "current_trial": 242, "dateTime": 1513458948034, "trialdata": {"rt": -1, "stimulus": "<p id=\"stim\">CUSTARD</p>", "key_press": -1, "type": "PRES_VIS", "word": "custard", "wordID": 428, "conditions": [12, 800, "v", 12000], "trial": 6, "serialpos": 5, "trial_type": "single-stim", "trial_index": 242, "time_elapsed": 1064891, "internal_node_id": "0.0-179.0"}}, {"uniqueid": "MTK1195:32ZKVD547GU1HJNJQ1ECIAEVWL4B37", "current_trial": 243, "dateTime": 1513458949946, "trialdata": {"rt": -1, "stimulus": "<p id=\"stim\">PANTHER</p>", "key_press": -1, "type": "PRES_VIS", "word": "panther", "wordID": 1008, "conditions": [12, 800, "v", 12000], "trial": 6, "serialpos": 6, "trial_type": "single-stim", "trial_index": 243, "time_elapsed": 1066803, "internal_node_id": "0.0-180.0"}}, {"uniqueid": "MTK1195:32ZKVD547GU1HJNJQ1ECIAEVWL4B37", "current_trial": 244, "dateTime": 1513458951658, "trialdata": {"rt": -1, "stimulus": "<p id=\"stim\">MAMMAL</p>", "key_press": -1, "type": "PRES_VIS", "word": "mammal", "wordID": 860, "conditions": [12, 800, "v", 12000], "trial": 6, "serialpos": 7, "trial_type": "single-stim", "trial_index": 244, "time_elapsed": 1068515, "internal_node_id": "0.0-181.0"}}, {"uniqueid": "MTK1195:32ZKVD547GU1HJNJQ1ECIAEVWL4B37", "current_trial": 245, "dateTime": 1513458953530, "trialdata": {"rt": -1, "stimulus": "<p id=\"stim\">SCARECROW</p>", "key_press": -1, "type": "PRES_VIS", "word": "scarecrow", "wordID": 1244, "conditions": [12, 800, "v", 12000], "trial": 6, "serialpos": 8, "trial_type": "single-stim", "trial_index": 245, "time_elapsed": 1070387, "internal_node_id": "0.0-182.0"}}, {"uniqueid": "MTK1195:32ZKVD547GU1HJNJQ1ECIAEVWL4B37", "current_trial": 246, "dateTime": 1513458955470, "trialdata": {"rt": -1, "stimulus": "<p id=\"stim\">PUDDING</p>", "key_press": -1, "type": "PRES_VIS", "word": "pudding", "wordID": 1138, "conditions": [12, 800, "v", 12000], "trial": 6, "serialpos": 9, "trial_type": "single-stim", "trial_index": 246, "time_elapsed": 1072327, "internal_node_id": "0.0-183.0"}}, {"uniqueid": "MTK1195:32ZKVD547GU1HJNJQ1ECIAEVWL4B37", "current_trial": 247, "dateTime": 1513458957315, "trialdata": {"rt": -1, "stimulus": "<p id=\"stim\">HUMAN</p>", "key_press": -1, "type": "PRES_VIS", "word": "human", "wordID": 725, "conditions": [12, 800, "v", 12000], "trial": 6, "serialpos": 10, "trial_type": "single-stim", "trial_index": 247, "time_elapsed": 1074172, "internal_node_id": "0.0-184.0"}}, {"uniqueid": "MTK1195:32ZKVD547GU1HJNJQ1ECIAEVWL4B37", "current_trial": 248, "dateTime": 1513458959055, "trialdata": {"rt": -1, "stimulus": "<p id=\"stim\">SHOVEL</p>", "key_press": -1, "type": "PRES_VIS", "word": "shovel", "wordID": 1294, "conditions": [12, 800, "v", 12000], "trial": 6, "serialpos": 11, "trial_type": "single-stim", "trial_index": 248, "time_elapsed": 1075912, "internal_node_id": "0.0-185.0"}}, {"uniqueid": "MTK1195:32ZKVD547GU1HJNJQ1ECIAEVWL4B37", "current_trial": 249, "dateTime": 1513458961607, "trialdata": {"rt": -1, "stimulus": "", "key_press": -1, "type": "PRE_RECALL_DELAY", "trial_type": "single-stim", "trial_index": 249, "time_elapsed": 1078464, "internal_node_id": "0.0-186.0-0.0"}}, {"uniqueid": "MTK1195:32ZKVD547GU1HJNJQ1ECIAEVWL4B37", "current_trial": 250, "dateTime": 1513458962111, "trialdata": {"rt": -1000, "stimulus": "/static/audio/400Hz.wav", "key_press": -1, "type": "PRE_RECALL_ALERT", "trial_type": "single-audio", "trial_index": 250, "time_elapsed": 1078965, "internal_node_id": "0.0-187.0"}}, {"uniqueid": "MTK1195:32ZKVD547GU1HJNJQ1ECIAEVWL4B37", "current_trial": 251, "dateTime": 1513459022125, "trialdata": {"rt": [6252, 8998, 11929, 17662, 21547, 27820], "recwords": ["scarecrow", "shovel", "monster", "bullet", "panther", "pudding"], "type": "FREE_RECALL", "conditions": [12, 800, "v", 12000], "trial": 6, "trial_type": "free-recall", "trial_index": 251, "time_elapsed": 1138975, "internal_node_id": "0.0-188.0-0.0"}}, {"uniqueid": "MTK1195:32ZKVD547GU1HJNJQ1ECIAEVWL4B37", "current_trial": 252, "dateTime": 1513459026724, "trialdata": {"rt": 2595, "key_press": 75, "type": "INSTRUCTIONS", "trial_type": "text", "trial_index": 252, "time_elapsed": 1143581, "internal_node_id": "0.0-189.0"}}, {"uniqueid": "MTK1195:32ZKVD547GU1HJNJQ1ECIAEVWL4B37", "current_trial": 253, "dateTime": 1513459052731, "trialdata": {"rt": [2802, 5524, 7867, 13056, 18291, 20204, 23335], "responses": ["14", "11", "16", "14", "20", "16", "15"], "num1": [1, 2, 6, 1, 7, 6, 8, 3], "num2": [9, 7, 2, 5, 9, 8, 4, 2], "num3": [4, 2, 8, 8, 4, 2, 3, 3], "type": "DISTRACTOR", "conditions": [12, 800, "v", 24000], "trial": 7, "trial_type": "math-distractor", "trial_index": 253, "time_elapsed": 1169588, "internal_node_id": "0.0-190.0"}}, {"uniqueid": "MTK1195:32ZKVD547GU1HJNJQ1ECIAEVWL4B37", "current_trial": 254, "dateTime": 1513459055738, "trialdata": {"rt": -1, "stimulus": "<p id=\"stim\">10</p>", "key_press": -1, "trial_type": "single-stim", "trial_index": 254, "time_elapsed": 1172595, "internal_node_id": "0.0-191.0-0.0"}}, {"uniqueid": "MTK1195:32ZKVD547GU1HJNJQ1ECIAEVWL4B37", "current_trial": 255, "dateTime": 1513459056740, "trialdata": {"rt": -1, "stimulus": "<p id=\"stim\">9</p>", "key_press": -1, "trial_type": "single-stim", "trial_index": 255, "time_elapsed": 1173597, "internal_node_id": "0.0-191.0-1.0"}}, {"uniqueid": "MTK1195:32ZKVD547GU1HJNJQ1ECIAEVWL4B37", "current_trial": 256, "dateTime": 1513459057744, "trialdata": {"rt": -1, "stimulus": "<p id=\"stim\">8</p>", "key_press": -1, "trial_type": "single-stim", "trial_index": 256, "time_elapsed": 1174600, "internal_node_id": "0.0-191.0-2.0"}}, {"uniqueid": "MTK1195:32ZKVD547GU1HJNJQ1ECIAEVWL4B37", "current_trial": 257, "dateTime": 1513459058748, "trialdata": {"rt": -1, "stimulus": "<p id=\"stim\">7</p>", "key_press": -1, "trial_type": "single-stim", "trial_index": 257, "time_elapsed": 1175605, "internal_node_id": "0.0-191.0-3.0"}}, {"uniqueid": "MTK1195:32ZKVD547GU1HJNJQ1ECIAEVWL4B37", "current_trial": 258, "dateTime": 1513459059752, "trialdata": {"rt": -1, "stimulus": "<p id=\"stim\">6</p>", "key_press": -1, "trial_type": "single-stim", "trial_index": 258, "time_elapsed": 1176608, "internal_node_id": "0.0-191.0-4.0"}}, {"uniqueid": "MTK1195:32ZKVD547GU1HJNJQ1ECIAEVWL4B37", "current_trial": 259, "dateTime": 1513459060756, "trialdata": {"rt": -1, "stimulus": "<p id=\"stim\">5</p>", "key_press": -1, "trial_type": "single-stim", "trial_index": 259, "time_elapsed": 1177613, "internal_node_id": "0.0-191.0-5.0"}}, {"uniqueid": "MTK1195:32ZKVD547GU1HJNJQ1ECIAEVWL4B37", "current_trial": 260, "dateTime": 1513459061760, "trialdata": {"rt": -1, "stimulus": "<p id=\"stim\">4</p>", "key_press": -1, "trial_type": "single-stim", "trial_index": 260, "time_elapsed": 1178616, "internal_node_id": "0.0-191.0-6.0"}}, {"uniqueid": "MTK1195:32ZKVD547GU1HJNJQ1ECIAEVWL4B37", "current_trial": 261, "dateTime": 1513459062764, "trialdata": {"rt": -1, "stimulus": "<p id=\"stim\">3</p>", "key_press": -1, "trial_type": "single-stim", "trial_index": 261, "time_elapsed": 1179621, "internal_node_id": "0.0-191.0-7.0"}}, {"uniqueid": "MTK1195:32ZKVD547GU1HJNJQ1ECIAEVWL4B37", "current_trial": 262, "dateTime": 1513459063768, "trialdata": {"rt": -1, "stimulus": "<p id=\"stim\">2</p>", "key_press": -1, "trial_type": "single-stim", "trial_index": 262, "time_elapsed": 1180625, "internal_node_id": "0.0-191.0-8.0"}}, {"uniqueid": "MTK1195:32ZKVD547GU1HJNJQ1ECIAEVWL4B37", "current_trial": 263, "dateTime": 1513459064772, "trialdata": {"rt": -1, "stimulus": "<p id=\"stim\">1</p>", "key_press": -1, "trial_type": "single-stim", "trial_index": 263, "time_elapsed": 1181629, "internal_node_id": "0.0-191.0-9.0"}}, {"uniqueid": "MTK1195:32ZKVD547GU1HJNJQ1ECIAEVWL4B37", "current_trial": 264, "dateTime": 1513459066276, "trialdata": {"rt": -1, "stimulus": "<p id=\"stim\">+</p>", "key_press": -1, "type": "FIXATION", "trial_type": "single-stim", "trial_index": 264, "time_elapsed": 1183133, "internal_node_id": "0.0-192.0-0.0"}}, {"uniqueid": "MTK1195:32ZKVD547GU1HJNJQ1ECIAEVWL4B37", "current_trial": 265, "dateTime": 1513459067080, "trialdata": {"rt": -1, "stimulus": "<p id=\"stim\">GUITAR</p>", "key_press": -1, "type": "PRES_VIS", "word": "guitar", "wordID": 669, "conditions": [12, 800, "v", 24000], "trial": 7, "serialpos": 0, "trial_type": "single-stim", "trial_index": 265, "time_elapsed": 1183937, "internal_node_id": "0.0-193.0"}}, {"uniqueid": "MTK1195:32ZKVD547GU1HJNJQ1ECIAEVWL4B37", "current_trial": 266, "dateTime": 1513459068896, "trialdata": {"rt": -1, "stimulus": "<p id=\"stim\">LAMP</p>", "key_press": -1, "type": "PRES_VIS", "word": "lamp", "wordID": 797, "conditions": [12, 800, "v", 24000], "trial": 7, "serialpos": 1, "trial_type": "single-stim", "trial_index": 266, "time_elapsed": 1185753, "internal_node_id": "0.0-194.0"}}, {"uniqueid": "MTK1195:32ZKVD547GU1HJNJQ1ECIAEVWL4B37", "current_trial": 267, "dateTime": 1513459070872, "trialdata": {"rt": -1, "stimulus": "<p id=\"stim\">TRANSPLANT</p>", "key_press": -1, "type": "PRES_VIS", "word": "transplant", "wordID": 1495, "conditions": [12, 800, "v", 24000], "trial": 7, "serialpos": 2, "trial_type": "single-stim", "trial_index": 267, "time_elapsed": 1187729, "internal_node_id": "0.0-195.0"}}, {"uniqueid": "MTK1195:32ZKVD547GU1HJNJQ1ECIAEVWL4B37", "current_trial": 268, "dateTime": 1513459072500, "trialdata": {"rt": -1, "stimulus": "<p id=\"stim\">PATIENT</p>", "key_press": -1, "type": "PRES_VIS", "word": "patient", "wordID": 1023, "conditions": [12, 800, "v", 24000], "trial": 7, "serialpos": 3, "trial_type": "single-stim", "trial_index": 268, "time_elapsed": 1189357, "internal_node_id": "0.0-196.0"}}, {"uniqueid": "MTK1195:32ZKVD547GU1HJNJQ1ECIAEVWL4B37", "current_trial": 269, "dateTime": 1513459074332, "trialdata": {"rt": -1, "stimulus": "<p id=\"stim\">TAXI</p>", "key_press": -1, "type": "PRES_VIS", "word": "taxi", "wordID": 1437, "conditions": [12, 800, "v", 24000], "trial": 7, "serialpos": 4, "trial_type": "single-stim", "trial_index": 269, "time_elapsed": 1191189, "internal_node_id": "0.0-197.0"}}, {"uniqueid": "MTK1195:32ZKVD547GU1HJNJQ1ECIAEVWL4B37", "current_trial": 270, "dateTime": 1513459076000, "trialdata": {"rt": -1, "stimulus": "<p id=\"stim\">PATROL</p>", "key_press": -1, "type": "PRES_VIS", "word": "patrol", "wordID