{"assignmentId": "3X66WABAJXPX80VU6N6QJL5SGK4G3D", "workerId": "MTK1875", "questiondata": {"origin": "United States", "strat-rehearsal": "24", "marital": "Single", "education": "Associate degree", "ethnicity": "Not Hispanic", "color_depth": 24, "distracted": "No", "wrote-notes": "No", "strat-other": "", "screen_width": 1536, "avail_screen_width": 1536, "avail_screen_height": 824, "strat-image": "91", "language": "English", "gender": "Female", "age": "21", "gender_other": "", "race": ["White"], "strat-categorize": "100", "pixel_depth": 24, "strat-spatial": "19", "strat-story": "50", "race_other": "", "screen_height": 864}, "bonus": 0, "hitId": "3I7SHAD35M3DE9U9T029KN5LZ3BM72", "counterbalance": 234, "useragent": "Mozilla/5.0 (Windows NT 10.0; Win64; x64) AppleWebKit/537.36 (KHTML, like Gecko) Chrome/63.0.3239.132 Safari/537.36", "eventdata": [{"eventtype": "initialized", "interval": 0, "value": null, "timestamp": 1516572300915}, {"eventtype": "window_resize", "interval": 0, "value": [1536, 774], "timestamp": 1516572300915}, {"eventtype": "focus", "interval": 44057, "value": "off", "timestamp": 1516572344972}, {"eventtype": "focus", "interval": 21113, "value": "on", "timestamp": 1516572366085}], "data": [{"current_trial": 0, "trialdata": {"rt": 5125, "trial_type": "text", "internal_node_id": "0.0-0.0", "time_elapsed": 5126, "key_press": 32, "type": "INSTRUCTIONS", "trial_index": 0}, "uniqueid": "MTK1875:3X66WABAJXPX80VU6N6QJL5SGK4G3D", "dateTime": 1516572338582}, {"current_trial": 1, "trialdata": {"rt": 28074, "trial_type": "text", "internal_node_id": "0.0-1.0", "time_elapsed": 33202, "key_press": 32, "type": "INSTRUCTIONS", "trial_index": 1}, "uniqueid": "MTK1875:3X66WABAJXPX80VU6N6QJL5SGK4G3D", "dateTime": 1516572366658}, {"current_trial": 2, "trialdata": {"rt": [7964], "trial_type": "audio-test", "responses": ["ocean"], "internal_node_id": "0.0-2.0", "time_elapsed": 41174, "type": "AUDIO_TEST", "trial_index": 2}, "uniqueid": "MTK1875:3X66WABAJXPX80VU6N6QJL5SGK4G3D", "dateTime": 1516572374630}, {"current_trial": 3, "trialdata": {"rt": [7549], "trial_type": "audio-test", "responses": ["crystal"], "internal_node_id": "0.0-3.0", "time_elapsed": 48726, "type": "AUDIO_TEST", "trial_index": 3}, "uniqueid": "MTK1875:3X66WABAJXPX80VU6N6QJL5SGK4G3D", "dateTime": 1516572382182}, {"current_trial": 4, "trialdata": {"rt": [6002], "trial_type": "audio-test", "responses": ["spice"], "internal_node_id": "0.0-4.0", "time_elapsed": 54731, "type": "AUDIO_TEST", "trial_index": 4}, "uniqueid": "MTK1875:3X66WABAJXPX80VU6N6QJL5SGK4G3D", "dateTime": 1516572388187}, {"current_trial": 5, "trialdata": {"rt": 61029, "trial_type": "survey-text", "responses": "{\"Q0\":\"I fell asleep at 10 pm last night.\",\"Q1\":\"I woke up at 7:30 am.\",\"Q2\":\"5\"}", "internal_node_id": "0.0-5.0", "time_elapsed": 116513, "type": "SLEEP_SURVEY", "trial_index": 5}, "uniqueid": "MTK1875:3X66WABAJXPX80VU6N6QJL5SGK4G3D", "dateTime": 1516572449969}, {"current_trial": 6, "trialdata": {"rt": 36623, "trial_type": "text", "internal_node_id": "0.0-6.0", "time_elapsed": 154138, "key_press": 32, "type": "INSTRUCTIONS", "trial_index": 6}, "uniqueid": "MTK1875:3X66WABAJXPX80VU6N6QJL5SGK4G3D", "dateTime": 1516572487594}, {"current_trial": 7, "trialdata": {"rt": 18854, "trial_type": "text", "internal_node_id": "0.0-7.0", "time_elapsed": 173494, "key_press": 32, "type": "INSTRUCTIONS", "trial_index": 7}, "uniqueid": "MTK1875:3X66WABAJXPX80VU6N6QJL5SGK4G3D", "dateTime": 1516572506950}, {"current_trial": 8, "trialdata": {"rt": 11866, "trial_type": "text", "internal_node_id": "0.0-8.0", "time_elapsed": 185862, "key_press": 32, "type": "INSTRUCTIONS", "trial_index": 8}, "uniqueid": "MTK1875:3X66WABAJXPX80VU6N6QJL5SGK4G3D", "dateTime": 1516572519318}, {"current_trial": 9, "trialdata": {"rt": [6543, 12038, 16760], "trial_type": "math-distractor", "key_times": [5268, 5775, 6543, 11265, 11508, 12038, 15267, 15583, 16760], "responses": ["20", "15", "13"], "num2": [9, 2, 9, 2], "num3": [8, 6, 3, 6], "conditions": [18, 1200, "a", 18000], "internal_node_id": "0.0-9.0", "key_presses": [98, 96, 13, 97, 101, 13, 97, 99, 13], "trial": 0, "time_elapsed": 204869, "type": "DISTRACTOR", "trial_index": 9, "num1": [3, 7, 1, 1]}, "uniqueid": "MTK1875:3X66WABAJXPX80VU6N6QJL5SGK4G3D", "dateTime": 1516572538325}, {"current_trial": 10, "trialdata": {"rt": -1, "trial_type": "single-stim", "stimulus": "<p id=\"stim\">10</p>", "internal_node_id": "0.0-10.0-0.0", "time_elapsed": 207873, "key_press": -1, "trial_index": 10}, "uniqueid": "MTK1875:3X66WABAJXPX80VU6N6QJL5SGK4G3D", "dateTime": 1516572541329}, {"current_trial": 11, "trialdata": {"rt": -1, "trial_type": "single-stim", "stimulus": "<p id=\"stim\">9</p>", "internal_node_id": "0.0-10.0-1.0", "time_elapsed": 208875, "key_press": -1, "trial_index": 11}, "uniqueid": "MTK1875:3X66WABAJXPX80VU6N6QJL5SGK4G3D", "dateTime": 1516572542332}, {"current_trial": 12, "trialdata": {"rt": -1, "trial_type": "single-stim", "stimulus": "<p id=\"stim\">8</p>", "internal_node_id": "0.0-10.0-2.0", "time_elapsed": 209877, "key_press": -1, "trial_index": 12}, "uniqueid": "MTK1875:3X66WABAJXPX80VU6N6QJL5SGK4G3D", "dateTime": 1516572543333}, {"current_trial": 13, "trialdata": {"rt": -1, "trial_type": "single-stim", "stimulus": "<p id=\"stim\">7</p>", "internal_node_id": "0.0-10.0-3.0", "time_elapsed": 210879, "key_press": -1, "trial_index": 13}, "uniqueid": "MTK1875:3X66WABAJXPX80VU6N6QJL5SGK4G3D", "dateTime": 1516572544336}, {"current_trial": 14, "trialdata": {"rt": -1, "trial_type": "single-stim", "stimulus": "<p id=\"stim\">6</p>", "internal_node_id": "0.0-10.0-4.0", "time_elapsed": 211880, "key_press": -1, "trial_index": 14}, "uniqueid": "MTK1875:3X66WABAJXPX80VU6N6QJL5SGK4G3D", "dateTime": 1516572545337}, {"current_trial": 15, "trialdata": {"rt": -1, "trial_type": "single-stim", "stimulus": "<p id=\"stim\">5</p>", "internal_node_id": "0.0-10.0-5.0", "time_elapsed": 212882, "key_press": -1, "trial_index": 15}, "uniqueid": "MTK1875:3X66WABAJXPX80VU6N6QJL5SGK4G3D", "dateTime": 1516572546339}, {"current_trial": 16, "trialdata": {"rt": -1, "trial_type": "single-stim", "stimulus": "<p id=\"stim\">4</p>", "internal_node_id": "0.0-10.0-6.0", "time_elapsed": 213885, "key_press": -1, "trial_index": 16}, "uniqueid": "MTK1875:3X66WABAJXPX80VU6N6QJL5SGK4G3D", "dateTime": 1516572547341}, {"current_trial": 17, "trialdata": {"rt": -1, "trial_type": "single-stim", "stimulus": "<p id=\"stim\">3</p>", "internal_node_id": "0.0-10.0-7.0", "time_elapsed": 214886, "key_press": -1, "trial_index": 17}, "uniqueid": "MTK1875:3X66WABAJXPX80VU6N6QJL5SGK4G3D", "dateTime": 1516572548342}, {"current_trial": 18, "trialdata": {"rt": -1, "trial_type": "single-stim", "stimulus": "<p id=\"stim\">2</p>", "internal_node_id": "0.0-10.0-8.0", "time_elapsed": 215888, "key_press": -1, "trial_index": 18}, "uniqueid": "MTK1875:3X66WABAJXPX80VU6N6QJL5SGK4G3D", "dateTime": 1516572549344}, {"current_trial": 19, "trialdata": {"rt": -1, "trial_type": "single-stim", "stimulus": "<p id=\"stim\">1</p>", "internal_node_id": "0.0-10.0-9.0", "time_elapsed": 216891, "key_press": -1, "trial_index": 19}, "uniqueid": "MTK1875:3X66WABAJXPX80VU6N6QJL5SGK4G3D", "dateTime": 1516572550347}, {"current_trial": 20, "trialdata": {"rt": -1, "trial_type": "single-stim", "stimulus": "<p id=\"stim\">+</p>", "internal_node_id": "0.0-11.0-0.0", "time_elapsed": 218392, "key_press": -1, "type": "FIXATION", "trial_index": 20}, "uniqueid": "MTK1875:3X66WABAJXPX80VU6N6QJL5SGK4G3D", "dateTime": 1516572551848}, {"current_trial": 21, "trialdata": {"rt": -1000, "trial_type": "single-audio", "word": "handbag", "stimulus": "/static/audio/wordpool/HANDBAG.wav", "conditions": [18, 1200, "a", 18000], "internal_node_id": "0.0-12.0", "trial": 0, "time_elapsed": 220431, "serialpos": 0, "key_press": -1, "wordID": 683, "type": "PRES_AUD", "trial_index": 21}, "uniqueid": "MTK1875:3X66WABAJXPX80VU6N6QJL5SGK4G3D", "dateTime": 1516572553887}, {"current_trial": 22, "trialdata": {"rt": -1000, "trial_type": "single-audio", "word": "citrus", "stimulus": "/static/audio/wordpool/CITRUS.wav", "conditions": [18, 1200, "a", 18000], "internal_node_id": "0.0-13.0", "trial": 0, "time_elapsed": 222824, "serialpos": 1, "key_press": -1, "wordID": 312, "type": "PRES_AUD", "trial_index": 22}, "uniqueid": "MTK1875:3X66WABAJXPX80VU6N6QJL5SGK4G3D", "dateTime": 1516572556280}, {"current_trial": 23, "trialdata": {"rt": -1000, "trial_type": "single-audio", "word": "teacher", "stimulus": "/static/audio/wordpool/TEACHER.wav", "conditions": [18, 1200, "a", 18000], "internal_node_id": "0.0-14.0", "trial": 0, "time_elapsed": 225079, "serialpos": 2, "key_press": -1, "wordID": 1439, "type": "PRES_AUD", "trial_index": 23}, "uniqueid": "MTK1875:3X66WABAJXPX80VU6N6QJL5SGK4G3D", "dateTime": 1516572558535}, {"current_trial": 24, "trialdata": {"rt": -1000, "trial_type": "single-audio", "word": "highway", "stimulus": "/static/audio/wordpool/HIGHWAY.wav", "conditions": [18, 1200, "a", 18000], "internal_node_id": "0.0-15.0", "trial": 0, "time_elapsed": 227186, "serialpos": 3, "key_press": -1, "wordID": 706, "type": "PRES_AUD", "trial_index": 24}, "uniqueid": "MTK1875:3X66WABAJXPX80VU6N6QJL5SGK4G3D", "dateTime": 1516572560642}, {"current_trial": 25, "trialdata": {"rt": -1000, "trial_type": "single-audio", "word": "pluto", "stimulus": "/static/audio/wordpool/PLUTO.wav", "conditions": [18, 1200, "a", 18000], "internal_node_id": "0.0-16.0", "trial": 0, "time_elapsed": 229526, "serialpos": 4, "key_press": -1, "wordID": 1091, "type": "PRES_AUD", "trial_index": 25}, "uniqueid": "MTK1875:3X66WABAJXPX80VU6N6QJL5SGK4G3D", "dateTime": 1516572562982}, {"current_trial": 26, "trialdata": {"rt": -1000, "trial_type": "single-audio", "word": "ankle", "stimulus": "/static/audio/wordpool/ANKLE.wav", "conditions": [18, 1200, "a", 18000], "internal_node_id": "0.0-17.0", "trial": 0, "time_elapsed": 231747, "serialpos": 5, "key_press": -1, "wordID": 23, "type": "PRES_AUD", "trial_index": 26}, "uniqueid": "MTK1875:3X66WABAJXPX80VU6N6QJL5SGK4G3D", "dateTime": 1516572565203}, {"current_trial": 27, "trialdata": {"rt": -1000, "trial_type": "single-audio", "word": "softball", "stimulus": "/static/audio/wordpool/SOFTBALL.wav", "conditions": [18, 1200, "a", 18000], "internal_node_id": "0.0-18.0", "trial": 0, "time_elapsed": 234026, "serialpos": 6, "key_press": -1, "wordID": 1342, "type": "PRES_AUD", "trial_index": 27}, "uniqueid": "MTK1875:3X66WABAJXPX80VU6N6QJL5SGK4G3D", "dateTime": 1516572567482}, {"current_trial": 28, "trialdata": {"rt": -1000, "trial_type": "single-audio", "word": "nightgown", "stimulus": "/static/audio/wordpool/NIGHTGOWN.wav", "conditions": [18, 1200, "a", 18000], "internal_node_id": "0.0-19.0", "trial": 0, "time_elapsed": 236192, "serialpos": 7, "key_press": -1, "wordID": 952, "type": "PRES_AUD", "trial_index": 28}, "uniqueid": "MTK1875:3X66WABAJXPX80VU6N6QJL5SGK4G3D", "dateTime": 1516572569648}, {"current_trial": 29, "trialdata": {"rt": -1000, "trial_type": "single-audio", "word": "patrol", "stimulus": "/static/audio/wordpool/PATROL.wav", "conditions": [18, 1200, "a", 18000], "internal_node_id": "0.0-20.0", "trial": 0, "time_elapsed": 238232, "serialpos": 8, "key_press": -1, "wordID": 1026, "type": "PRES_AUD", "trial_index": 29}, "uniqueid": "MTK1875:3X66WABAJXPX80VU6N6QJL5SGK4G3D", "dateTime": 1516572571689}, {"current_trial": 30, "trialdata": {"rt": -1000, "trial_type": "single-audio", "word": "apron", "stimulus": "/static/audio/wordpool/APRON.wav", "conditions": [18, 1200, "a", 18000], "internal_node_id": "0.0-21.0", "trial": 0, "time_elapsed": 240298, "serialpos": 9, "key_press": -1, "wordID": 34, "type": "PRES_AUD", "trial_index": 30}, "uniqueid": "MTK1875:3X66WABAJXPX80VU6N6QJL5SGK4G3D", "dateTime": 1516572573754}, {"current_trial": 31, "trialdata": {"rt": -1000, "trial_type": "single-audio", "word": "banquet", "stimulus": "/static/audio/wordpool/BANQUET.wav", "conditions": [18, 1200, "a", 18000], "internal_node_id": "0.0-22.0", "trial": 0, "time_elapsed": 242382, "serialpos": 10, "key_press": -1, "wordID": 85, "type": "PRES_AUD", "trial_index": 31}, "uniqueid": "MTK1875:3X66WABAJXPX80VU6N6QJL5SGK4G3D", "dateTime": 1516572575838}, {"current_trial": 32, "trialdata": {"rt": -1000, "trial_type": "single-audio", "word": "kidney", "stimulus": "/static/audio/wordpool/KIDNEY.wav", "conditions": [18, 1200, "a", 18000], "internal_node_id": "0.0-23.0", "trial": 0, "time_elapsed": 244646, "serialpos": 11, "key_press": -1, "wordID": 775, "type": "PRES_AUD", "trial_index": 32}, "uniqueid": "MTK1875:3X66WABAJXPX80VU6N6QJL5SGK4G3D", "dateTime": 1516572578102}, {"current_trial": 33, "trialdata": {"rt": -1000, "trial_type": "single-audio", "word": "servant", "stimulus": "/static/audio/wordpool/SERVANT.wav", "conditions": [18, 1200, "a", 18000], "internal_node_id": "0.0-24.0", "trial": 0, "time_elapsed": 246672, "serialpos": 12, "key_press": -1, "wordID": 1270, "type": "PRES_AUD", "trial_index": 33}, "uniqueid": "MTK1875:3X66WABAJXPX80VU6N6QJL5SGK4G3D", "dateTime": 1516572580128}, {"current_trial": 34, "trialdata": {"rt": -1000, "trial_type": "single-audio", "word": "match", "stimulus": "/static/audio/wordpool/MATCH.wav", "conditions": [18, 1200, "a", 18000], "internal_node_id": "0.0-25.0", "trial": 0, "time_elapsed": 248826, "serialpos": 13, "key_press": -1, "wordID": 877, "type": "PRES_AUD", "trial_index": 34}, "uniqueid": "MTK1875:3X66WABAJXPX80VU6N6QJL5SGK4G3D", "dateTime": 1516572582282}, {"current_trial": 35, "trialdata": {"rt": -1000, "trial_type": "single-audio", "word": "seagull", "stimulus": "/static/audio/wordpool/SEAGULL.wav", "conditions": [18, 1200, "a", 18000], "internal_node_id": "0.0-26.0", "trial": 0, "time_elapsed": 251061, "serialpos": 14, "key_press": -1, "wordID": 1260, "type": "PRES_AUD", "trial_index": 35}, "uniqueid": "MTK1875:3X66WABAJXPX80VU6N6QJL5SGK4G3D", "dateTime": 1516572584517}, {"current_trial": 36, "trialdata": {"rt": -1000, "trial_type": "single-audio", "word": "liver", "stimulus": "/static/audio/wordpool/LIVER.wav", "conditions": [18, 1200, "a", 18000], "internal_node_id": "0.0-27.0", "trial": 0, "time_elapsed": 253311, "serialpos": 15, "key_press": -1, "wordID": 832, "type": "PRES_AUD", "trial_index": 36}, "uniqueid": "MTK1875:3X66WABAJXPX80VU6N6QJL5SGK4G3D", "dateTime": 1516572586768}, {"current_trial": 37, "trialdata": {"rt": -1000, "trial_type": "single-audio", "word": "goblin", "stimulus": "/static/audio/wordpool/GOBLIN.wav", "conditions": [18, 1200, "a", 18000], "internal_node_id": "0.0-28.0", "trial": 0, "time_elapsed": 255439, "serialpos": 16, "key_press": -1, "wordID": 644, "type": "PRES_AUD", "trial_index": 37}, "uniqueid": "MTK1875:3X66WABAJXPX80VU6N6QJL5SGK4G3D", "dateTime": 1516572588895}, {"current_trial": 38, "trialdata": {"rt": -1000, "trial_type": "single-audio", "word": "wagon", "stimulus": "/static/audio/wordpool/WAGON.wav", "conditions": [18, 1200, "a", 18000], "internal_node_id": "0.0-29.0", "trial": 0, "time_elapsed": 257641, "serialpos": 17, "key_press": -1, "wordID": 1577, "type": "PRES_AUD", "trial_index": 38}, "uniqueid": "MTK1875:3X66WABAJXPX80VU6N6QJL5SGK4G3D", "dateTime": 1516572591097}, {"current_trial": 39, "trialdata": {"rt": -1, "trial_type": "single-stim", "stimulus": "", "internal_node_id": "0.0-30.0-0.0", "time_elapsed": 259003, "key_press": -1, "type": "PRE_RECALL_DELAY", "trial_index": 39}, "uniqueid": "MTK1875:3X66WABAJXPX80VU6N6QJL5SGK4G3D", "dateTime": 1516572592459}, {"current_trial": 40, "trialdata": {"rt": -1000, "trial_type": "single-audio", "stimulus": "/static/audio/400Hz.wav", "internal_node_id": "0.0-31.0", "time_elapsed": 259505, "key_press": -1, "type": "PRE_RECALL_ALERT", "trial_index": 40}, "uniqueid": "MTK1875:3X66WABAJXPX80VU6N6QJL5SGK4G3D", "dateTime": 1516572592961}, {"current_trial": 41, "trialdata": {"rt": [3169, 6122, 7618, 9493, 10960, 17766, 19623, 21669, 26123, 36019, 53038], "recwords": ["wagon", "goblin", "match", "kidney", "liver", "handbag", "patrol", "highway", "softball", "seagull", "servant"], "key_times": [1790, 2024, 2218, 2464, 2788, 3169, 4330, 4478, 4733, 5055, 5220, 5448, 5668, 5868, 6122, 6523, 6683, 6876, 7174, 7288, 7618, 8119, 8369, 8623, 8805, 8988, 9188, 9493, 9958, 10201, 10289, 10478, 10679, 10960, 15529, 15729, 15807, 16341, 16767, 17019, 17448, 17766, 18268, 18507, 18716, 18936, 19131, 19336, 19623, 20034, 20235, 20428, 20557, 21000, 21178, 21371, 21669, 23842, 23986, 24193, 24460, 25147, 25349, 25524, 25679, 26123, 34194, 34439, 34663, 35156, 35300, 35550, 35730, 36019, 51545, 51787, 51999, 52327, 52520, 52628, 52859, 53038], "trial_type": "free-recall", "conditions": [18, 1200, "a", 18000], "internal_node_id": "0.0-32.0-0.0", "key_presses": [87, 65, 71, 79, 78, 13, 71, 79, 76, 8, 66, 76, 73, 78, 13, 77, 65, 84, 67, 72, 13, 75, 73, 68, 78, 69, 89, 13, 76, 73, 86, 69, 82, 13, 72, 65, 78, 68, 66, 65, 71, 13, 80, 65, 84, 82, 79, 76, 13, 72, 73, 71, 72, 87, 65, 89, 13, 83, 79, 70, 84, 66, 65, 76, 76, 13, 83, 69, 65, 71, 85, 76, 76, 13, 83, 69, 82, 86, 65, 78, 84, 13], "trial": 0, "time_elapsed": 319510, "type": "FREE_RECALL", "trial_index": 41}, "uniqueid": "MTK1875:3X66WABAJXPX80VU6N6QJL5SGK4G3D", "dateTime": 1516572652968}, {"current_trial": 42, "trialdata": {"rt": 1672, "trial_type": "text", "internal_node_id": "0.0-33.0", "time_elapsed": 323186, "key_press": 32, "type": "INSTRUCTIONS", "trial_index": 42}, "uniqueid": "MTK1875:3X66WABAJXPX80VU6N6QJL5SGK4G3D", "dateTime": 1516572656642}, {"current_trial": 43, "trialdata": {"rt": [5663, 10007, 13565, 16444], "trial_type": "math-distractor", "key_times": [4638, 4944, 5663, 9339, 9657, 10007, 13025, 13238, 13565, 15445, 15765, 16444], "responses": ["15", "19", "14", "12"], "num2": [8, 9, 3, 2, 8], "num3": [3, 2, 5, 7, 9], "conditions": [18, 1200, "a", 18000], "internal_node_id": "0.0-34.0", "key_presses": [97, 101, 13, 97, 105, 13, 97, 100, 13, 97, 98, 13], "trial": 1, "time_elapsed": 343190, "type": "DISTRACTOR", "trial_index": 43, "num1": [4, 8, 6, 3, 4]}, "uniqueid": "MTK1875:3X66WABAJXPX80VU6N6QJL5SGK4G3D", "dateTime": 1516572676646}, {"current_trial": 44, "trialdata": {"rt": -1, "trial_type": "single-stim", "stimulus": "<p id=\"stim\">10</p>", "internal_node_id": "0.0-35.0-0.0", "time_elapsed": 346193, "key_press": -1, "trial_index": 44}, "uniqueid": "MTK1875:3X66WABAJXPX80VU6N6QJL5SGK4G3D", "dateTime": 1516572679649}, {"current_trial": 45, "trialdata": {"rt": -1, "trial_type": "single-stim", "stimulus": "<p id=\"stim\">9</p>", "internal_node_id": "0.0-35.0-1.0", "time_elapsed": 347195, "key_press": -1, "trial_index": 45}, "uniqueid": "MTK1875:3X66WABAJXPX80VU6N6QJL5SGK4G3D", "dateTime": 1516572680651}, {"current_trial": 46, "trialdata": {"rt": -1, "trial_type": "single-stim", "stimulus": "<p id=\"stim\">8</p>", "internal_node_id": "0.0-35.0-2.0", "time_elapsed": 348197, "key_press": -1, "trial_index": 46}, "uniqueid": "MTK1875:3X66WABAJXPX80VU6N6QJL5SGK4G3D", "dateTime": 1516572681653}, {"current_trial": 47, "trialdata": {"rt": -1, "trial_type": "single-stim", "stimulus": "<p id=\"stim\">7</p>", "internal_node_id": "0.0-35.0-3.0", "time_elapsed": 349199, "key_press": -1, "trial_index": 47}, "uniqueid": "MTK1875:3X66WABAJXPX80VU6N6QJL5SGK4G3D", "dateTime": 1516572682655}, {"current_trial": 48, "trialdata": {"rt": -1, "trial_type": "single-stim", "stimulus": "<p id=\"stim\">6</p>", "internal_node_id": "0.0-35.0-4.0", "time_elapsed": 350201, "key_press": -1, "trial_index": 48}, "uniqueid": "MTK1875:3X66WABAJXPX80VU6N6QJL5SGK4G3D", "dateTime": 1516572683657}, {"current_trial": 49, "trialdata": {"rt": -1, "trial_type": "single-stim", "stimulus": "<p id=\"stim\">5</p>", "internal_node_id": "0.0-35.0-5.0", "time_elapsed": 351203, "key_press": -1, "trial_index": 49}, "uniqueid": "MTK1875:3X66WABAJXPX80VU6N6QJL5SGK4G3D", "dateTime": 1516572684660}, {"current_trial": 50, "trialdata": {"rt": -1, "trial_type": "single-stim", "stimulus": "<p id=\"stim\">4</p>", "internal_node_id": "0.0-35.0-6.0", "time_elapsed": 352205, "key_press": -1, "trial_index": 50}, "uniqueid": "MTK1875:3X66WABAJXPX80VU6N6QJL5SGK4G3D", "dateTime": 1516572685661}, {"current_trial": 51, "trialdata": {"rt": -1, "trial_type": "single-stim", "stimulus": "<p id=\"stim\">3</p>", "internal_node_id": "0.0-35.0-7.0", "time_elapsed": 353206, "key_press": -1, "trial_index": 51}, "uniqueid": "MTK1875:3X66WABAJXPX80VU6N6QJL5SGK4G3D", "dateTime": 1516572686662}, {"current_trial": 52, "trialdata": {"rt": -1, "trial_type": "single-stim", "stimulus": "<p id=\"stim\">2</p>", "internal_node_id": "0.0-35.0-8.0", "time_elapsed": 354208, "key_press": -1, "trial_index": 52}, "uniqueid": "MTK1875:3X66WABAJXPX80VU6N6QJL5SGK4G3D", "dateTime": 1516572687664}, {"current_trial": 53, "trialdata": {"rt": -1, "trial_type": "single-stim", "stimulus": "<p id=\"stim\">1</p>", "internal_node_id": "0.0-35.0-9.0", "time_elapsed": 355209, "key_press": -1, "trial_index": 53}, "uniqueid": "MTK1875:3X66WABAJXPX80VU6N6QJL5SGK4G3D", "dateTime": 1516572688665}, {"current_trial": 54, "trialdata": {"rt": -1, "trial_type": "single-stim", "stimulus": "<p id=\"stim\">+</p>", "internal_node_id": "0.0-36.0-0.0", "time_elapsed": 356712, "key_press": -1, "type": "FIXATION", "trial_index": 54}, "uniqueid": "MTK1875:3X66WABAJXPX80VU6N6QJL5SGK4G3D", "dateTime": 1516572690168}, {"current_trial": 55, "trialdata": {"rt": -1000, "trial_type": "single-audio", "word": "blackboard", "stimulus": "/static/audio/wordpool/BLACKBOARD.wav", "conditions": [18, 1200, "a", 18000], "internal_node_id": "0.0-37.0", "trial": 1, "time_elapsed": 359027, "serialpos": 0, "key_press": -1, "wordID": 132, "type": "PRES_AUD", "trial_index": 55}, "uniqueid": "MTK1875:3X66WABAJXPX80VU6N6QJL5SGK4G3D", "dateTime": 1516572692483}, {"current_trial": 56, "trialdata": {"rt": -1000, "trial_type": "single-audio", "word": "daughter", "stimulus": "/static/audio/wordpool/DAUGHTER.wav", "conditions": [18, 1200, "a", 18000], "internal_node_id": "0.0-38.0", "trial": 1, "time_elapsed": 361344, "serialpos": 1, "key_press": -1, "wordID": 441, "type": "PRES_AUD", "trial_index": 56}, "uniqueid": "MTK1875:3X66WABAJXPX80VU6N6QJL5SGK4G3D", "dateTime": 1516572694800}, {"current_trial": 57, "trialdata": {"rt": -1000, "trial_type": "single-audio", "word": "stone", "stimulus": "/static/audio/wordpool/STONE.wav", "conditions": [18, 1200, "a", 18000], "internal_node_id": "0.0-39.0", "trial": 1, "time_elapsed": 363373, "serialpos": 2, "key_press": -1, "wordID": 1384, "type": "PRES_AUD", "trial_index": 57}, "uniqueid": "MTK1875:3X66WABAJXPX80VU6N6QJL5SGK4G3D", "dateTime": 1516572696829}, {"current_trial": 58, "trialdata": {"rt": -1000, "trial_type": "single-audio", "word": "curtain", "stimulus": "/static/audio/wordpool/CURTAIN.wav", "conditions": [18, 1200, "a", 18000], "internal_node_id": "0.0-40.0", "trial": 1, "time_elapsed": 365522, "serialpos": 3, "key_press": -1, "wordID": 426, "type": "PRES_AUD", "trial_index": 58}, "uniqueid": "MTK1875:3X66WABAJXPX80VU6N6QJL5SGK4G3D", "dateTime": 1516572698978}, {"current_trial": 59, "trialdata": {"rt": -1000, "trial_type": "single-audio", "word": "clothes", "stimulus": "/static/audio/wordpool/CLOTHES.wav", "conditions": [18, 1200, "a", 18000], "internal_node_id": "0.0-41.0", "trial": 1, "time_elapsed": 367700, "serialpos": 4, "key_press": -1, "wordID": 326, "type": "PRES_AUD", "trial_index": 59}, "uniqueid": "MTK1875:3X66WABAJXPX80VU6N6QJL5SGK4G3D", "dateTime": 1516572701156}, {"current_trial": 60, "trialdata": {"rt": -1000, "trial_type": "single-audio", "word": "relish", "stimulus": "/static/audio/wordpool/RELISH.wav", "conditions": [18, 1200, "a", 18000], "internal_node_id": "0.0-42.0", "trial": 1, "time_elapsed": 369972, "serialpos": 5, "key_press": -1, "wordID": 1182, "type": "PRES_AUD", "trial_index": 60}, "uniqueid": "MTK1875:3X66WABAJXPX80VU6N6QJL5SGK4G3D", "dateTime": 1516572703428}, {"current_trial": 61, "trialdata": {"rt": -1000, "trial_type": "single-audio", "word": "flipper", "stimulus": "/static/audio/wordpool/FLIPPER.wav", "conditions": [18, 1200, "a", 18000], "internal_node_id": "0.0-43.0", "trial": 1, "time_elapsed": 372315, "serialpos": 6, "key_press": -1, "wordID": 579, "type": "PRES_AUD", "trial_index": 61}, "uniqueid": "MTK1875:3X66WABAJXPX80VU6N6QJL5SGK4G3D", "dateTime": 1516572705771}, {"current_trial": 62, "trialdata": {"rt": -1000, "trial_type": "single-audio", "word": "tortoise", "stimulus": "/static/audio/wordpool/TORTOISE.wav", "conditions": [18, 1200, "a", 18000], "internal_node_id": "0.0-44.0", "trial": 1, "time_elapsed": 374383, "serialpos": 7, "key_press": -1, "wordID": 1485, "type": "PRES_AUD", "trial_index": 62}, "uniqueid": "MTK1875:3X66WABAJXPX80VU6N6QJL5SGK4G3D", "dateTime": 1516572707839}, {"current_trial": 63, "trialdata": {"rt": -1000, "trial_type": "single-audio", "word": "tractor", "stimulus": "/static/audio/wordpool/TRACTOR.wav", "conditions": [18, 1200, "a", 18000], "internal_node_id": "0.0-45.0", "trial": 1, "time_elapsed": 376441, "serialpos": 8, "key_press": -1, "wordID": 1492, "type": "PRES_AUD", "trial_index": 63}, "uniqueid": "MTK1875:3X66WABAJXPX80VU6N6QJL5SGK4G3D", "dateTime": 1516572709897}, {"current_trial": 64, "trialdata": {"rt": -1000, "trial_type": "single-audio", "word": "penguin", "stimulus": "/static/audio/wordpool/PENGUIN.wav", "conditions": [18, 1200, "a", 18000], "internal_node_id": "0.0-46.0", "trial": 1, "time_elapsed": 378581, "serialpos": 9, "key_press": -1, "wordID": 1043, "type": "PRES_AUD", "trial_index": 64}, "uniqueid": "MTK1875:3X66WABAJXPX80VU6N6QJL5SGK4G3D", "dateTime": 1516572712037}, {"current_trial": 65, "trialdata": {"rt": -1000, "trial_type": "single-audio", "word": "bullet", "stimulus": "/static/audio/wordpool/BULLET.wav", "conditions": [18, 1200, "a", 18000], "internal_node_id": "0.0-47.0", "trial": 1, "time_elapsed": 380743, "serialpos": 10, "key_press": -1, "wordID": 193, "type": "PRES_AUD", "trial_index": 65}, "uniqueid": "MTK1875:3X66WABAJXPX80VU6N6QJL5SGK4G3D", "dateTime": 1516572714199}, {"current_trial": 66, "trialdata": {"rt": -1000, "trial_type": "single-audio", "word": "camel", "stimulus": "/static/audio/wordpool/CAMEL.wav", "conditions": [18, 1200, "a", 18000], "internal_node_id": "0.0-48.0", "trial": 1, "time_elapsed": 382852, "serialpos": 11, "key_press": -1, "wordID": 222, "type": "PRES_AUD", "trial_index": 66}, "uniqueid": "MTK1875:3X66WABAJXPX80VU6N6QJL5SGK4G3D", "dateTime": 1516572716308}, {"current_trial": 67, "trialdata": {"rt": -1000, "trial_type": "single-audio", "word": "keeper", "stimulus": "/static/audio/wordpool/KEEPER.wav", "conditions": [18, 1200, "a", 18000], "internal_node_id": "0.0-49.0", "trial": 1, "time_elapsed": 384966, "serialpos": 12, "key_press": -1, "wordID": 768, "type": "PRES_AUD", "trial_index": 67}, "uniqueid": "MTK1875:3X66WABAJXPX80VU6N6QJL5SGK4G3D", "dateTime": 1516572718422}, {"current_trial": 68, "trialdata": {"rt": -1000, "trial_type": "single-audio", "word": "dust", "stimulus": "/static/audio/wordpool/DUST.wav", "conditions": [18, 1200, "a", 18000], "internal_node_id": "0.0-50.0", "trial": 1, "time_elapsed": 387350, "serialpos": 13, "key_press": -1, "wordID": 507, "type": "PRES_AUD", "trial_index": 68}, "uniqueid": "MTK1875:3X66WABAJXPX80VU6N6QJL5SGK4G3D", "dateTime": 1516572720808}, {"current_trial": 69, "trialdata": {"rt": -1000, "trial_type": "single-audio", "word": "champagne", "stimulus": "/static/audio/wordpool/CHAMPAGNE.wav", "conditions": [18, 1200, "a", 18000], "internal_node_id": "0.0-51.0", "trial": 1, "time_elapsed": 389419, "serialpos": 14, "key_press": -1, "wordID": 277, "type": "PRES_AUD", "trial_index": 69}, "uniqueid": "MTK1875:3X66WABAJXPX80VU6N6QJL5SGK4G3D", "dateTime": 1516572722875}, {"current_trial": 70, "trialdata": {"rt": -1000, "trial_type": "single-audio", "word": "dragon", "stimulus": "/static/audio/wordpool/DRAGON.wav", "conditions": [18, 1200, "a", 18000], "internal_node_id": "0.0-52.0", "trial": 1, "time_elapsed": 391444, "serialpos": 15, "key_press": -1, "wordID": 491, "type": "PRES_AUD", "trial_index": 70}, "uniqueid": "MTK1875:3X66WABAJXPX80VU6N6QJL5SGK4G3D", "dateTime": 1516572724901}, {"current_trial": 71, "trialdata": {"rt": -1000, "trial_type": "single-audio", "word": "sausage", "stimulus": "/static/audio/wordpool/SAUSAGE.wav", "conditions": [18, 1200, "a", 18000], "internal_node_id": "0.0-53.0", "trial": 1, "time_elapsed": 393469, "serialpos": 16, "key_press": -1, "wordID": 1237, "type": "PRES_AUD", "trial_index": 71}, "uniqueid": "MTK1875:3X66WABAJXPX80VU6N6QJL5SGK4G3D", "dateTime": 1516572726925}, {"current_trial": 72, "trialdata": {"rt": -1000, "trial_type": "single-audio", "word": "subway", "stimulus": "/static/audio/wordpool/SUBWAY.wav", "conditions": [18, 1200, "a", 18000], "internal_node_id": "0.0-54.0", "trial": 1, "time_elapsed": 395738, "serialpos": 17, "key_press": -1, "wordID": 1399, "type": "PRES_AUD", "trial_index": 72}, "uniqueid": "MTK1875:3X66WABAJXPX80VU6N6QJL5SGK4G3D", "dateTime": 1516572729194}, {"current_trial": 73, "trialdata": {"rt": -1, "trial_type": "single-stim", "stimulus": "", "internal_node_id": "0.0-55.0-0.0", "time_elapsed": 396968, "key_press": -1, "type": "PRE_RECALL_DELAY", "trial_index": 73}, "uniqueid": "MTK1875:3X66WABAJXPX80VU6N6QJL5SGK4G3D", "dateTime": 1516572730425}, {"current_trial": 74, "trialdata": {"rt": -1000, "trial_type": "single-audio", "stimulus": "/static/audio/400Hz.wav", "internal_node_id": "0.0-56.0", "time_elapsed": 397471, "key_press": -1, "type": "PRE_RECALL_ALERT", "trial_index": 74}, "uniqueid": "MTK1875:3X66WABAJXPX80VU6N6QJL5SGK4G3D", "dateTime": 1516572730927}, {"current_trial": 75, "trialdata": {"rt": [2918, 5648, 7241, 8330, 9954, 12652, 14783, 18673, 30218, 32452, 41274], "recwords": ["subway", "sausage", "dragon", "stone", "keeper", "tortoise", "flipper", "relish", "blackboard", "daughter", "clothes"], "key_times": [1473, 1657, 1914, 2257, 2431, 2652, 2918, 4003, 4209, 4414, 4865, 5151, 5269, 5440, 5648, 5953, 6193, 6391, 6581, 6827, 7043, 7241, 7510, 7735, 7822, 8010, 8157, 8330, 8716, 8857, 9053, 9187, 9566, 9716, 9954, 10582, 10710, 10911, 11295, 11860, 12071, 12172, 12398, 12652, 13471, 13645, 13850, 14155, 14319, 14461, 14650, 14783, 17419, 17664, 17773, 17999, 18166, 18346, 18673, 19834, 20189, 20699, 20882, 27679, 27876, 28002, 28266, 28432, 28777, 28960, 29271, 29655, 29906, 30218, 30847, 31063, 31245, 31417, 31550, 31714, 32049, 32207, 32452, 39474, 39582, 39815, 39966, 40149, 40257, 40433, 40838, 40915, 41274], "trial_type": "free-recall", "conditions": [18, 1200, "a", 18000], "internal_node_id": "0.0-57.0-0.0", "key_presses": [83, 85, 66, 87, 65, 89, 13, 83, 65, 85, 83, 65, 71, 69, 13, 68, 82, 65, 71, 79, 78, 13, 83, 84, 79, 78, 69, 13, 75, 69, 69, 80, 69, 82, 13, 84, 79, 82, 84, 79, 73, 83, 69, 13, 70, 76, 73, 80, 80, 69, 82, 13, 82, 69, 76, 73, 83, 72, 13, 83, 85, 8, 8, 66, 76, 65, 67, 75, 66, 79, 65, 82, 68, 13, 68, 65, 85, 71, 72, 84, 69, 82, 13, 67, 76, 79, 84, 72, 69, 82, 8, 83, 13], "trial": 1, "time_elapsed": 457475, "type": "FREE_RECALL", "trial_index": 75}, "uniqueid": "MTK1875:3X66WABAJXPX80VU6N6QJL5SGK4G3D", "dateTime": 1516572790933}, {"current_trial": 76, "trialdata": {"rt": 3160, "trial_type": "text", "internal_node_id": "0.0-58.0", "time_elapsed": 462639, "key_press": 32, "type": "INSTRUCTIONS", "trial_index": 76}, "uniqueid": "MTK1875:3X66WABAJXPX80VU6N6QJL5SGK4G3D", "dateTime": 1516572796095}, {"current_trial": 77, "trialdata": {"rt": [8110, 10209, 12821, 15575, 18004, 20732, 23312], "trial_type": "math-distractor", "key_times": [5120, 5365, 6866, 7676, 8110, 9739, 9989, 10209, 12003, 12235, 12821, 14886, 15202, 15575, 17543, 17762, 18004, 20122, 20487, 20732, 22645, 22889, 23312], "responses": ["22", "12", "13", "19", "14", "19", "14"], "num2": [6, 7, 5, 8, 7, 2, 2, 8], "num3": [9, 4, 6, 5, 3, 8, 3, 9], "conditions": [12, 1600, "a", 24000], "internal_node_id": "0.0-59.0", "key_presses": [98, 97, 8, 98, 13, 97, 98, 13, 97, 99, 13, 97, 105, 13, 97, 100, 13, 97, 105, 13, 97, 100, 13], "trial": 2, "time_elapsed": 487642, "type": "DISTRACTOR", "trial_index": 77, "num1": [7, 1, 2, 6, 4, 9, 9, 2]}, "uniqueid": "MTK1875:3X66WABAJXPX80VU6N6QJL5SGK4G3D", "dateTime": 1516572821098}, {"current_trial": 78, "trialdata": {"rt": -1, "trial_type": "single-stim", "stimulus": "<p id=\"stim\">10</p>", "internal_node_id": "0.0-60.0-0.0", "time_elapsed": 490646, "key_press": -1, "trial_index": 78}, "uniqueid": "MTK1875:3X66WABAJXPX80VU6N6QJL5SGK4G3D", "dateTime": 1516572824102}, {"current_trial": 79, "trialdata": {"rt": -1, "trial_type": "single-stim", "stimulus": "<p id=\"stim\">9</p>", "internal_node_id": "0.0-60.0-1.0", "time_elapsed": 491647, "key_press": -1, "trial_index": 79}, "uniqueid": "MTK1875:3X66WABAJXPX80VU6N6QJL5SGK4G3D", "dateTime": 1516572825103}, {"current_trial": 80, "trialdata": {"rt": -1, "trial_type": "single-stim", "stimulus": "<p id=\"stim\">8</p>", "internal_node_id": "0.0-60.0-2.0", "time_elapsed": 492649, "key_press": -1, "trial_index": 80}, "uniqueid": "MTK1875:3X66WABAJXPX80VU6N6QJL5SGK4G3D", "dateTime": 1516572826105}, {"current_trial": 81, "trialdata": {"rt": -1, "trial_type": "single-stim", "stimulus": "<p id=\"stim\">7</p>", "internal_node_id": "0.0-60.0-3.0", "time_elapsed": 493650, "key_press": -1, "trial_index": 81}, "uniqueid": "MTK1875:3X66WABAJXPX80VU6N6QJL5SGK4G3D", "dateTime": 1516572827106}, {"current_trial": 82, "trialdata": {"rt": -1, "trial_type": "single-stim", "stimulus": "<p id=\"stim\">6</p>", "internal_node_id": "0.0-60.0-4.0", "time_elapsed": 494653, "key_press": -1, "trial_index": 82}, "uniqueid": "MTK1875:3X66WABAJXPX80VU6N6QJL5SGK4G3D", "dateTime": 1516572828109}, {"current_trial": 83, "trialdata": {"rt": -1, "trial_type": "single-stim", "stimulus": "<p id=\"stim\">5</p>", "internal_node_id": "0.0-60.0-5.0", "time_elapsed": 495654, "key_press": -1, "trial_index": 83}, "uniqueid": "MTK1875:3X66WABAJXPX80VU6N6QJL5SGK4G3D", "dateTime": 1516572829110}, {"current_trial": 84, "trialdata": {"rt": -1, "trial_type": "single-stim", "stimulus": "<p id=\"stim\">4</p>", "internal_node_id": "0.0-60.0-6.0", "time_elapsed": 496656, "key_press": -1, "trial_index": 84}, "uniqueid": "MTK1875:3X66WABAJXPX80VU6N6QJL5SGK4G3D", "dateTime": 1516572830112}, {"current_trial": 85, "trialdata": {"rt": -1, "trial_type": "single-stim", "stimulus": "<p id=\"stim\">3</p>", "internal_node_id": "0.0-60.0-7.0", "time_elapsed": 497657, "key_press": -1, "trial_index": 85}, "uniqueid": "MTK1875:3X66WABAJXPX80VU6N6QJL5SGK4G3D", "dateTime": 1516572831113}, {"current_trial": 86, "trialdata": {"rt": -1, "trial_type": "single-stim", "stimulus": "<p id=\"stim\">2</p>", "internal_node_id": "0.0-60.0-8.0", "time_elapsed": 498659, "key_press": -1, "trial_index": 86}, "uniqueid": "MTK1875:3X66WABAJXPX80VU6N6QJL5SGK4G3D", "dateTime": 1516572832115}, {"current_trial": 87, "trialdata": {"rt": -1, "trial_type": "single-stim", "stimulus": "<p id=\"stim\">1</p>", "internal_node_id": "0.0-60.0-9.0", "time_elapsed": 499660, "key_press": -1, "trial_index": 87}, "uniqueid": "MTK1875:3X66WABAJXPX80VU6N6QJL5SGK4G3D", "dateTime": 1516572833117}, {"current_trial": 88, "trialdata": {"rt": -1, "trial_type": "single-stim", "stimulus": "<p id=\"stim\">+</p>", "internal_node_id": "0.0-61.0-0.0", "time_elapsed": 501161, "key_press": -1, "type": "FIXATION", "trial_index": 88}, "uniqueid": "MTK1875:3X66WABAJXPX80VU6N6QJL5SGK4G3D", "dateTime": 1516572834618}, {"current_trial": 89, "trialdata": {"rt": -1000, "trial_type": "single-audio", "word": "friend", "stimulus": "/static/audio/wordpool/FRIEND.wav", "conditions": [12, 1600, "a", 24000], "internal_node_id": "0.0-62.0", "trial": 2, "time_elapsed": 503741, "serialpos": 0, "key_press": -1, "wordID": 605, "type": "PRES_AUD", "trial_index": 89}, "uniqueid": "MTK1875:3X66WABAJXPX80VU6N6QJL5SGK4G3D", "dateTime": 1516572837197}, {"current_trial": 90, "trialdata": {"rt": -1000, "trial_type": "single-audio", "word": "diner", "stimulus": "/static/audio/wordpool/DINER.wav", "conditions": [12, 1600, "a", 24000], "internal_node_id": "0.0-63.0", "trial": 2, "time_elapsed": 506157, "serialpos": 1, "key_press": -1, "wordID": 466, "type": "PRES_AUD", "trial_index": 90}, "uniqueid": "MTK1875:3X66WABAJXPX80VU6N6QJL5SGK4G3D", "dateTime": 1516572839613}, {"current_trial": 91, "trialdata": {"rt": -1000, "trial_type": "single-audio", "word": "pliers", "stimulus": "/static/audio/wordpool/PLIERS.wav", "conditions": [12, 1600, "a", 24000], "internal_node_id": "0.0-64.0", "trial": 2, "time_elapsed": 508625, "serialpos": 2, "key_press": -1, "wordID": 1088, "type": "PRES_AUD", "trial_index": 91}, "uniqueid": "MTK1875:3X66WABAJXPX80VU6N6QJL5SGK4G3D", "dateTime": 1516572842081}, {"current_trial": 92, "trialdata": {"rt": -1000, "trial_type": "single-audio", "word": "tweezers", "stimulus": "/static/audio/wordpool/TWEEZERS.wav", "conditions": [12, 1600, "a", 24000], "internal_node_id": "0.0-65.0", "trial": 2, "time_elapsed": 511319, "serialpos": 3, "key_press": -1, "wordID": 1525, "type": "PRES_AUD", "trial_index": 92}, "uniqueid": "MTK1875:3X66WABAJXPX80VU6N6QJL5SGK4G3D", "dateTime": 1516572844775}, {"current_trial": 93, "trialdata": {"rt": -1000, "trial_type": "single-audio", "word": "waiter", "stimulus": "/static/audio/wordpool/WAITER.wav", "conditions": [12, 1600, "a", 24000], "internal_node_id": "0.0-66.0", "trial": 2, "time_elapsed": 513816, "serialpos": 4, "key_press": -1, "wordID": 1579, "type": "PRES_AUD", "trial_index": 93}, "uniqueid": "MTK1875:3X66WABAJXPX80VU6N6QJL5SGK4G3D", "dateTime": 1516572847272}, {"current_trial": 94, "trialdata": {"rt": -1000, "trial_type": "single-audio", "word": "smog", "stimulus": "/static/audio/wordpool/SMOG.wav", "conditions": [12, 1600, "a", 24000], "internal_node_id": "0.0-67.0", "trial": 2, "time_elapsed": 516393, "serialpos": 5, "key_press": -1, "wordID": 1329, "type": "PRES_AUD", "trial_index": 94}, "uniqueid": "MTK1875:3X66WABAJXPX80VU6N6QJL5SGK4G3D", "dateTime": 1516572849849}, {"current_trial": 95, "trialdata": {"rt": -1000, "trial_type": "single-audio", "word": "piano", "stimulus": "/static/audio/wordpool/PIANO.wav", "conditions": [12, 1600, "a", 24000], "internal_node_id": "0.0-68.0", "trial": 2, "time_elapsed": 519062, "serialpos": 6, "key_press": -1, "wordID": 1056, "type": "PRES_AUD", "trial_index": 95}, "uniqueid": "MTK1875:3X66WABAJXPX80VU6N6QJL5SGK4G3D", "dateTime": 1516572852518}, {"current_trial": 96, "trialdata": {"rt": -1000, "trial_type": "single-audio", "word": "church", "stimulus": "/static/audio/wordpool/CHURCH.wav", "conditions": [12, 1600, "a", 24000], "internal_node_id": "0.0-69.0", "trial": 2, "time_elapsed": 521809, "serialpos": 7, "key_press": -1, "wordID": 306, "type": "PRES_AUD", "trial_index": 96}, "uniqueid": "MTK1875:3X66WABAJXPX80VU6N6QJL5SGK4G3D", "dateTime": 1516572855265}, {"current_trial": 97, "trialdata": {"rt": -1000, "trial_type": "single-audio", "word": "puppy", "stimulus": "/static/audio/wordpool/PUPPY.wav", "conditions": [12, 1600, "a", 24000], "internal_node_id": "0.0-70.0", "trial": 2, "time_elapsed": 524452, "serialpos": 8, "key_press": -1, "wordID": 1143, "type": "PRES_AUD", "trial_index": 97}, "uniqueid": "MTK1875:3X66WABAJXPX80VU6N6QJL5SGK4G3D", "dateTime": 1516572857908}, {"current_trial": 98, "trialdata": {"rt": -1000, "trial_type": "single-audio", "word": "award", "stimulus": "/static/audio/wordpool/AWARD.wav", "conditions": [12, 1600, "a", 24000], "internal_node_id": "0.0-71.0", "trial": 2, "time_elapsed": 527020, "serialpos": 9, "key_press": -1, "wordID": 62, "type": "PRES_AUD", "trial_index": 98}, "uniqueid": "MTK1875:3X66WABAJXPX80VU6N6QJL5SGK4G3D", "dateTime": 1516572860476}, {"current_trial": 99, "trialdata": {"rt": -1000, "trial_type": "single-audio", "word": "nomad", "stimulus": "/static/audio/wordpool/NOMAD.wav", "conditions": [12, 1600, "a", 24000], "internal_node_id": "0.0-72.0", "trial": 2, "time_elapsed": 529448, "serialpos": 10, "key_press": -1, "wordID": 954, "type": "PRES_AUD", "trial_index": 99}, "uniqueid": "MTK1875:3X66WABAJXPX80VU6N6QJL5SGK4G3D", "dateTime": 1516572862905}, {"current_trial": 100, "trialdata": {"rt": -1000, "trial_type": "single-audio", "word": "shark", "stimulus": "/static/audio/wordpool/SHARK.wav", "conditions": [12, 1600, "a", 24000], "internal_node_id": "0.0-73.0", "trial": 2, "time_elapsed": 532242, "serialpos": 11, "key_press": -1, "wordID": 1274, "type": "PRES_AUD", "trial_index": 100}, "uniqueid": "MTK1875:3X66WABAJXPX80VU6N6QJL5SGK4G3D", "dateTime": 1516572865699}, {"current_trial": 101, "trialdata": {"rt": -1, "trial_type": "single-stim", "stimulus": "", "internal_node_id": "0.0-74.0-0.0", "time_elapsed": 533574, "key_press": -1, "type": "PRE_RECALL_DELAY", "trial_index": 101}, "uniqueid": "MTK1875:3X66WABAJXPX80VU6N6QJL5SGK4G3D", "dateTime": 1516572867030}, {"current_trial": 102, "trialdata": {"rt": -1000, "trial_type": "single-audio", "stimulus": "/static/audio/400Hz.wav", "internal_node_id": "0.0-75.0", "time_elapsed": 534076, "key_press": -1, "type": "PRE_RECALL_ALERT", "trial_index": 102}, "uniqueid": "MTK1875:3X66WABAJXPX80VU6N6QJL5SGK4G3D", "dateTime": 1516572867532}, {"current_trial": 103, "trialdata": {"rt": [2555, 4423, 5606, 7469, 9114, 10337, 11766, 14754, 16293], "recwords": ["diner", "friend", "smog", "puppy", "waiter", "shark", "nomad", "award", "church"], "key_times": [1377, 1558, 1737, 2100, 2285, 2555, 3115, 3375, 3684, 3885, 4050, 4226, 4423, 4712, 4896, 5111, 5343, 5606, 6165, 6400, 6698, 6906, 7173, 7469, 8099, 8259, 8406, 8576, 8763, 8895, 9114, 9370, 9563, 9748, 9902, 10069, 10337, 10640, 10859, 11066, 11257, 11460, 11766, 13663, 13859, 14053, 14218, 14555, 14754, 15137, 15263, 15553, 15651, 15918, 16055, 16293, 58848, 59128, 59354, 59478, 59658, 59881], "trial_type": "free-recall", "conditions": [12, 1600, "a", 24000], "internal_node_id": "0.0-76.0-0.0", "key_presses": [68, 73, 78, 69, 82, 13, 70, 82, 73, 69, 78, 68, 13, 83, 77, 79, 71, 13, 80, 85, 80, 80, 89, 13, 87, 65, 73, 84, 69, 82, 13, 83, 72, 65, 82, 75, 13, 78, 79, 77, 65, 68, 13, 65, 87, 65, 82, 68, 13, 67, 72, 85, 82, 67, 72, 13, 80, 76, 73, 69, 82, 83], "trial": 2, "time_elapsed": 594079, "type": "FREE_RECALL", "trial_index": 103}, "uniqueid": "MTK1875:3X66WABAJXPX80VU6N6QJL5SGK4G3D", "dateTime": 1516572927537}, {"current_trial": 104, "trialdata": {"rt": 1549, "trial_type": "text", "internal_node_id": "0.0-77.0", "time_elapsed": 597631, "key_press": 32, "type": "INSTRUCTIONS", "trial_index": 104}, "uniqueid": "MTK1875:3X66WABAJXPX80VU6N6QJL5SGK4G3D", "dateTime": 1516572931087}, {"current_trial": 105, "trialdata": {"rt": [2522, 4892, 7520, 10221, 13495, 16868, 19352, 21722], "trial_type": "math-distractor", "key_times": [1887, 2212, 2522, 4501, 4892, 6640, 6864, 7520, 9751, 9927, 10221, 12492, 12728, 13495, 15803, 16028, 16868, 18644, 18927, 19352, 21000, 21343, 21722, 23493, 23729], "responses": ["19", "8", "20", "11", "10", "10", "13", "19"], "num2": [5, 4, 9, 7, 3, 2, 1, 8, 3], "num3": [7, 2, 9, 1, 2, 7, 9, 7, 9], "conditions": [24, 1600, "a", 24000], "internal_node_id": "0.0-78.0", "key_presses": [97, 105, 13, 104, 13, 98, 96, 13, 97, 97, 13, 97, 96, 13, 97, 96, 13, 97, 99, 13, 97, 105, 13, 97, 105], "trial": 3, "time_elapsed": 623636, "type": "DISTRACTOR", "trial_index": 105, "num1": [7, 2, 2, 3, 5, 1, 3, 4, 7]}, "uniqueid": "MTK1875:3X66WABAJXPX80VU6N6QJL5SGK4G3D", "dateTime": 1516572957092}, {"current_trial": 106, "trialdata": {"rt": -1, "trial_type": "single-stim", "stimulus": "<p id=\"stim\">10</p>", "internal_node_id": "0.0-79.0-0.0", "time_elapsed": 626638, "key_press": -1, "trial_index": 106}, "uniqueid": "MTK1875:3X66WABAJXPX80VU6N6QJL5SGK4G3D", "dateTime": 1516572960094}, {"current_trial": 107, "trialdata": {"rt": -1, "trial_type": "single-stim", "stimulus": "<p id=\"stim\">9</p>", "internal_node_id": "0.0-79.0-1.0", "time_elapsed": 627639, "key_press": -1, "trial_index": 107}, "uniqueid": "MTK1875:3X66WABAJXPX80VU6N6QJL5SGK4G3D", "dateTime": 1516572961095}, {"current_trial": 108, "trialdata": {"rt": -1, "trial_type": "single-stim", "stimulus": "<p id=\"stim\">8</p>", "internal_node_id": "0.0-79.0-2.0", "time_elapsed": 628641, "key_press": -1, "trial_index": 108}, "uniqueid": "MTK1875:3X66WABAJXPX80VU6N6QJL5SGK4G3D", "dateTime": 1516572962097}, {"current_trial": 109, "trialdata": {"rt": -1, "trial_type": "single-stim", "stimulus": "<p id=\"stim\">7</p>", "internal_node_id": "0.0-79.0-3.0", "time_elapsed": 629643, "key_press": -1, "trial_index": 109}, "uniqueid": "MTK1875:3X66WABAJXPX80VU6N6QJL5SGK4G3D", "dateTime": 1516572963099}, {"current_trial": 110, "trialdata": {"rt": -1, "trial_type": "single-stim", "stimulus": "<p id=\"stim\">6</p>", "internal_node_id": "0.0-79.0-4.0", "time_elapsed": 630645, "key_press": -1, "trial_index": 110}, "uniqueid": "MTK1875:3X66WABAJXPX80VU6N6QJL5SGK4G3D", "dateTime": 1516572964101}, {"current_trial": 111, "trialdata": {"rt": -1, "trial_type": "single-stim", "stimulus": "<p id=\"stim\">5</p>", "internal_node_id": "0.0-79.0-5.0", "time_elapsed": 631647, "key_press": -1, "trial_index": 111}, "uniqueid": "MTK1875:3X66WABAJXPX80VU6N6QJL5SGK4G3D", "dateTime": 1516572965103}, {"current_trial": 112, "trialdata": {"rt": -1, "trial_type": "single-stim", "stimulus": "<p id=\"stim\">4</p>", "internal_node_id": "0.0-79.0-6.0", "time_elapsed": 632649, "key_press": -1, "trial_index": 112}, "uniqueid": "MTK1875:3X66WABAJXPX80VU6N6QJL5SGK4G3D", "dateTime": 1516572966105}, {"current_trial": 113, "trialdata": {"rt": -1, "trial_type": "single-stim", "stimulus": "<p id=\"stim\">3</p>", "internal_node_id": "0.0-79.0-7.0", "time_elapsed": 633650, "key_press": -1, "trial_index": 113}, "uniqueid": "MTK1875:3X66WABAJXPX80VU6N6QJL5SGK4G3D", "dateTime": 1516572967107}, {"current_trial": 114, "trialdata": {"rt": -1, "trial_type": "single-stim", "stimulus": "<p id=\"stim\">2</p>", "internal_node_id": "0.0-79.0-8.0", "time_elapsed": 634652, "key_press": -1, "trial_index": 114}, "uniqueid": "MTK1875:3X66WABAJXPX80VU6N6QJL5SGK4G3D", "dateTime": 1516572968109}, {"current_trial": 115, "trialdata": {"rt": -1, "trial_type": "single-stim", "stimulus": "<p id=\"stim\">1</p>", "internal_node_id": "0.0-79.0-9.0", "time_elapsed": 635654, "key_press": -1, "trial_index": 115}, "uniqueid": "MTK1875:3X66WABAJXPX80VU6N6QJL5SGK4G3D", "dateTime": 1516572969110}, {"current_trial": 116, "trialdata": {"rt": -1, "trial_type": "single-stim", "stimulus": "<p id=\"stim\">+</p>", "internal_node_id": "0.0-80.0-0.0", "time_elapsed": 637156, "key_press": -1, "type": "FIXATION", "trial_index": 116}, "uniqueid": "MTK1875:3X66WABAJXPX80VU6N6QJL5SGK4G3D", "dateTime": 1516572970612}, {"current_trial": 117, "trialdata": {"rt": -1000, "trial_type": "single-audio", "word": "island", "stimulus": "/static/audio/wordpool/ISLAND.wav", "conditions": [24, 1600, "a", 24000], "internal_node_id": "0.0-81.0", "trial": 3, "time_elapsed": 639746, "serialpos": 0, "key_press": -1, "wordID": 744, "type": "PRES_AUD", "trial_index": 117}, "uniqueid": "MTK1875:3X66WABAJXPX80VU6N6QJL5SGK4G3D", "dateTime": 1516572973202}, {"current_trial": 118, "trialdata": {"rt": -1000, "trial_type": "single-audio", "word": "blueprint", "stimulus": "/static/audio/wordpool/BLUEPRINT.wav", "conditions": [24, 1600, "a", 24000], "internal_node_id": "0.0-82.0", "trial": 3, "time_elapsed": 642414, "serialpos": 1, "key_press": -1, "wordID": 141, "type": "PRES_AUD", "trial_index": 118}, "uniqueid": "MTK1875:3X66WABAJXPX80VU6N6QJL5SGK4G3D", "dateTime": 1516572975870}, {"current_trial": 119, "trialdata": {"rt": -1000, "trial_type": "single-audio", "word": "message", "stimulus": "/static/audio/wordpool/MESSAGE.wav", "conditions": [24, 1600, "a", 24000], "internal_node_id": "0.0-83.0", "trial": 3, "time_elapsed": 644818, "serialpos": 2, "key_press": -1, "wordID": 887, "type": "PRES_AUD", "trial_index": 119}, "uniqueid": "MTK1875:3X66WABAJXPX80VU6N6QJL5SGK4G3D", "dateTime": 1516572978274}, {"current_trial": 120, "trialdata": {"rt": -1000, "trial_type": "single-audio", "word": "piston", "stimulus": "/static/audio/wordpool/PISTON.wav", "conditions": [24, 1600, "a", 24000], "internal_node_id": "0.0-84.0", "trial": 3, "time_elapsed": 647261, "serialpos": 3, "key_press": -1, "wordID": 1075, "type": "PRES_AUD", "trial_index": 120}, "uniqueid": "MTK1875:3X66WABAJXPX80VU6N6QJL5SGK4G3D", "dateTime": 1516572980717}, {"current_trial": 121, "trialdata": {"rt": -1000, "trial_type": "single-audio", "word": "world", "stimulus": "/static/audio/wordpool/WORLD.wav", "conditions": [24, 1600, "a", 24000], "internal_node_id": "0.0-85.0", "trial": 3, "time_elapsed": 650037, "serialpos": 4, "key_press": -1, "wordID": 1621, "type": "PRES_AUD", "trial_index": 121}, "uniqueid": "MTK1875:3X66WABAJXPX80VU6N6QJL5SGK4G3D", "dateTime": 1516572983493}, {"current_trial": 122, "trialdata": {"rt": -1000, "trial_type": "single-audio", "word": "police", "stimulus": "/static/audio/wordpool/POLICE.wav", "conditions": [24, 1600, "a", 24000], "internal_node_id": "0.0-86.0", "trial": 3, "time_elapsed": 652450, "serialpos": 5, "key_press": -1, "wordID": 1097, "type": "PRES_AUD", "trial_index": 122}, "uniqueid": "MTK1875:3X66WABAJXPX80VU6N6QJL5SGK4G3D", "dateTime": 1516572985906}, {"current_trial": 123, "trialdata": {"rt": -1000, "trial_type": "single-audio", "word": "valve", "stimulus": "/static/audio/wordpool/VALVE.wav", "conditions": [24, 1600, "a", 24000], "internal_node_id": "0.0-87.0", "trial": 3, "time_elapsed": 655027, "serialpos": 6, "key_press": -1, "wordID": 1545, "type": "PRES_AUD", "trial_index": 123}, "uniqueid": "MTK1875:3X66WABAJXPX80VU6N6QJL5SGK4G3D", "dateTime": 1516572988484}, {"current_trial": 124, "trialdata": {"rt": -1000, "trial_type": "single-audio", "word": "pudding", "stimulus": "/static/audio/wordpool/PUDDING.wav", "conditions": [24, 1600, "a", 24000], "internal_node_id": "0.0-88.0", "trial": 3, "time_elapsed": 657691, "serialpos": 7, "key_press": -1, "wordID": 1138, "type": "PRES_AUD", "trial_index": 124}, "uniqueid": "MTK1875:3X66WABAJXPX80VU6N6QJL5SGK4G3D", "dateTime": 1516572991147}, {"current_trial": 125, "trialdata": {"rt": -1000, "trial_type": "single-audio", "word": "suspect", "stimulus": "/static/audio/wordpool/SUSPECT.wav", "conditions": [24, 1600, "a", 24000], "internal_node_id": "0.0-89.0", "trial": 3, "time_elapsed": 660434, "serialpos": 8, "key_press": -1, "wordID": 1414, "type": "PRES_AUD", "trial_index": 125}, "uniqueid": "MTK1875:3X66WABAJXPX80VU6N6QJL5SGK4G3D", "dateTime": 1516572993890}, {"current_trial": 126, "trialdata": {"rt": -1000, "trial_type": "single-audio", "word": "victim", "stimulus": "/static/audio/wordpool/VICTIM.wav", "conditions": [24, 1600, "a", 24000], "internal_node_id": "0.0-90.0", "trial": 3, "time_elapsed": 663061, "serialpos": 9, "key_press": -1, "wordID": 1561, "type": "PRES_AUD", "trial_index": 126}, "uniqueid": "MTK1875:3X66WABAJXPX80VU6N6QJL5SGK4G3D", "dateTime": 1516572996518}, {"current_trial": 127, "trialdata": {"rt": -1000, "trial_type": "single-audio", "word": "lamp", "stimulus": "/static/audio/wordpool/LAMP.wav", "conditions": [24, 1600, "a", 24000], "internal_node_id": "0.0-91.0", "trial": 3, "time_elapsed": 665600, "serialpos": 10, "key_press": -1, "wordID": 797, "type": "PRES_AUD", "trial_index": 127}, "uniqueid": "MTK1875:3X66WABAJXPX80VU6N6QJL5SGK4G3D", "dateTime": 1516572999057}, {"current_trial": 128, "trialdata": {"rt": -1000, "trial_type": "single-audio", "word": "globe", "stimulus": "/static/audio/wordpool/GLOBE.wav", "conditions": [24, 1600, "a", 24000], "internal_node_id": "0.0-92.0", "trial": 3, "time_elapsed": 668171, "serialpos": 11, "key_press": -1, "wordID": 640, "type": "PRES_AUD", "trial_index": 128}, "uniqueid": "MTK1875:3X66WABAJXPX80VU6N6QJL5SGK4G3D", "dateTime": 1516573001627}, {"current_trial": 129, "trialdata": {"rt": -1000, "trial_type": "single-audio", "word": "neutron", "stimulus": "/static/audio/wordpool/NEUTRON.wav", "conditions": [24, 1600, "a", 24000], "internal_node_id": "0.0-93.0", "trial": 3, "time_elapsed": 670964, "serialpos": 12, "key_press": -1, "wordID": 946, "type": "PRES_AUD", "trial_index": 129}, "uniqueid": "MTK1875:3X66WABAJXPX80VU6N6QJL5SGK4G3D", "dateTime": 1516573004420}, {"current_trial": 130, "trialdata": {"rt": -1000, "trial_type": "single-audio", "word": "pistol", "stimulus": "/static/audio/wordpool/PISTOL.wav", "conditions": [24, 1600, "a", 24000], "internal_node_id": "0.0-94.0", "trial": 3, "time_elapsed": 673521, "serialpos": 13, "key_press": -1, "wordID": 1074, "type": "PRES_AUD", "trial_index": 130}, "uniqueid": "MTK1875:3X66WABAJXPX80VU6N6QJL5SGK4G3D", "dateTime": 1516573006978}, {"current_trial": 131, "trialdata": {"rt": -1000, "trial_type": "single-audio", "word": "zebra", "stimulus": "/static/audio/wordpool/ZEBRA.wav", "conditions": [24, 1600, "a", 24000], "internal_node_id": "0.0-95.0", "trial": 3, "time_elapsed": 676133, "serialpos": 14, "key_press": -1, "wordID": 1634, "type": "PRES_AUD", "trial_index": 131}, "uniqueid": "MTK1875:3X66WABAJXPX80VU6N6QJL5SGK4G3D", "dateTime": 1516573009589}, {"current_trial": 132, "trialdata": {"rt": -1000, "trial_type": "single-audio", "word": "mattress", "stimulus": "/static/audio/wordpool/MATTRESS.wav", "conditions": [24, 1600, "a", 24000], "internal_node_id": "0.0-96.0", "trial": 3, "time_elapsed": 678817, "serialpos": 15, "key_press": -1, "wordID": 878, "type": "PRES_AUD", "trial_index": 132}, "uniqueid": "MTK1875:3X66WABAJXPX80VU6N6QJL5SGK4G3D", "dateTime": 1516573012273}, {"current_trial": 133, "trialdata": {"rt": -1000, "trial_type": "single-audio", "word": "robot", "stimulus": "/static/audio/wordpool/ROBOT.wav", "conditions": [24, 1600, "a", 24000], "internal_node_id": "0.0-97.0", "trial": 3, "time_elapsed": 681353, "serialpos": 16, "key_press": -1, "wordID": 1199, "type": "PRES_AUD", "trial_index": 133}, "uniqueid": "MTK1875:3X66WABAJXPX80VU6N6QJL5SGK4G3D", "dateTime": 1516573014810}, {"current_trial": 134, "trialdata": {"rt": -1000, "trial_type": "single-audio", "word": "spider", "stimulus": "/static/audio/wordpool/SPIDER.wav", "conditions": [24, 1600, "a", 24000], "internal_node_id": "0.0-98.0", "trial": 3, "time_elapsed": 683816, "serialpos": 17, "key_press": -1, "wordID": 1350, "type": "PRES_AUD", "trial_index": 134}, "uniqueid": "MTK1875:3X66WABAJXPX80VU6N6QJL5SGK4G3D", "dateTime": 1516573017272}, {"current_trial": 135, "trialdata": {"rt": -1000, "trial_type": "single-audio", "word": "knife", "stimulus": "/static/audio/wordpool/KNIFE.wav", "conditions": [24, 1600, "a", 24000], "internal_node_id": "0.0-99.0", "trial": 3, "time_elapsed": 686347, "serialpos": 18, "key_press": -1, "wordID": 784, "type": "PRES_AUD", "trial_index": 135}, "uniqueid": "MTK1875:3X66WABAJXPX80VU6N6QJL5SGK4G3D", "dateTime": 1516573019803}, {"current_trial": 136, "trialdata": {"rt": -1000, "trial_type": "single-audio", "word": "barley", "stimulus": "/static/audio/wordpool/BARLEY.wav", "conditions": [24, 1600, "a", 24000], "internal_node_id": "0.0-100.0", "trial": 3, "time_elapsed": 688770, "serialpos": 19, "key_press": -1, "wordID": 87, "type": "PRES_AUD", "trial_index": 136}, "uniqueid": "MTK1875:3X66WABAJXPX80VU6N6QJL5SGK4G3D", "dateTime": 1516573022226}, {"current_trial": 137, "trialdata": {"rt": -1000, "trial_type": "single-audio", "word": "bacon", "stimulus": "/static/audio/wordpool/BACON.wav", "conditions": [24, 1600, "a", 24000], "internal_node_id": "0.0-101.0", "trial": 3, "time_elapsed": 691283, "serialpos": 20, "key_press": -1, "wordID": 66, "type": "PRES_AUD", "trial_index": 137}, "uniqueid": "MTK1875:3X66WABAJXPX80VU6N6QJL5SGK4G3D", "dateTime": 1516573024739}, {"current_trial": 138, "trialdata": {"rt": -1000, "trial_type": "single-audio", "word": "sparrow", "stimulus": "/static/audio/wordpool/SPARROW.wav", "conditions": [24, 1600, "a", 24000], "internal_node_id": "0.0-102.0", "trial": 3, "time_elapsed": 693705, "serialpos": 21, "key_press": -1, "wordID": 1346, "type": "PRES_AUD", "trial_index": 138}, "uniqueid": "MTK1875:3X66WABAJXPX80VU6N6QJL5SGK4G3D", "dateTime": 1516573027161}, {"current_trial": 139, "trialdata": {"rt": -1000, "trial_type": "single-audio", "word": "robin", "stimulus": "/static/audio/wordpool/ROBIN.wav", "conditions": [24, 1600, "a", 24000], "internal_node_id": "0.0-103.0", "trial": 3, "time_elapsed": 696454, "serialpos": 22, "key_press": -1, "wordID": 1198, "type": "PRES_AUD", "trial_index": 139}, "uniqueid": "MTK1875:3X66WABAJXPX80VU6N6QJL5SGK4G3D", "dateTime": 1516573029911}, {"current_trial": 140, "trialdata": {"rt": -1000, "trial_type": "single-audio", "word": "machine", "stimulus": "/static/audio/wordpool/MACHINE.wav", "conditions": [24, 1600, "a", 24000], "internal_node_id": "0.0-104.0", "trial": 3, "time_elapsed": 699106, "serialpos": 23, "key_press": -1, "wordID": 851, "type": "PRES_AUD", "trial_index": 140}, "uniqueid": "MTK1875:3X66WABAJXPX80VU6N6QJL5SGK4G3D", "dateTime": 1516573032562}, {"current_trial": 141, "trialdata": {"rt": -1, "trial_type": "single-stim", "stimulus": "", "internal_node_id": "0.0-105.0-0.0", "time_elapsed": 700355, "key_press": -1, "type": "PRE_RECALL_DELAY", "trial_index": 141}, "uniqueid": "MTK1875:3X66WABAJXPX80VU6N6QJL5SGK4G3D", "dateTime": 1516573033811}, {"current_trial": 142, "trialdata": {"rt": -1000, "trial_type": "single-audio", "stimulus": "/static/audio/400Hz.wav", "internal_node_id": "0.0-106.0", "time_elapsed": 700856, "key_press": -1, "type": "PRE_RECALL_ALERT", "trial_index": 142}, "uniqueid": "MTK1875:3X66WABAJXPX80VU6N6QJL5SGK4G3D", "dateTime": 1516573034313}, {"current_trial": 143, "trialdata": {"rt": [3024, 5423, 7173, 9116, 12190, 14578, 16422, 18673, 23293, 25867, 44565], "recwords": ["machine", "pistol", "piston", "police", "suspect", "victim", "robin", "sparrow", "globe", "world", "pudding"], "key_times": [1844, 1855, 2098, 2272, 2466, 2673, 2804, 3024, 3779, 4159, 4335, 4797, 4914, 5138, 5423, 5909, 6146, 6329, 6573, 6795, 6973, 7173, 7763, 7973, 8273, 8497, 8633, 8902, 9116, 9674, 9955, 10148, 10659, 10776, 11059, 11205, 11454, 11915, 12190, 12649, 12808, 13043, 13377, 13481, 13815, 14097, 14308, 14578, 15394, 15543, 15796, 15972, 16145, 16422, 17358, 17524, 17774, 18008, 18176, 18317, 18442, 18673, 21772, 21878, 22134, 22270, 22635, 22769, 22954, 23293, 23658, 23826, 23963, 24526, 24961, 25309, 25480, 25867, 43049, 43293, 43771, 43935, 44028, 44269, 44356, 44565], "trial_type": "free-recall", "conditions": [24, 1600, "a", 24000], "internal_node_id": "0.0-107.0-0.0", "key_presses": [77, 65, 67, 72, 73, 78, 69, 13, 80, 73, 83, 84, 79, 76, 13, 80, 73, 83, 84, 79, 78, 13, 80, 79, 76, 73, 67, 69, 13, 83, 85, 80, 8, 83, 80, 69, 67, 84, 13, 86, 73, 67, 84, 79, 8, 73, 77, 13, 82, 79, 66, 73, 78, 13, 83, 80, 65, 82, 82, 79, 87, 13, 71, 76, 79, 87, 8, 66, 69, 13, 87, 79, 82, 68, 8, 76, 68, 13, 80, 85, 68, 68, 73, 78, 71, 13], "trial": 3, "time_elapsed": 760860, "type": "FREE_RECALL", "trial_index": 143}, "uniqueid": "MTK1875:3X66WABAJXPX80VU6N6QJL5SGK4G3D", "dateTime": 1516573094320}, {"current_trial": 144, "trialdata": {"rt": 1272, "trial_type": "text", "internal_node_id": "0.0-108.0", "time_elapsed": 764137, "key_press": 32, "type": "INSTRUCTIONS", "trial_index": 144}, "uniqueid": "MTK1875:3X66WABAJXPX80VU6N6QJL5SGK4G3D", "dateTime": 1516573097593}, {"current_trial": 145, "trialdata": {"rt": [2619, 5490, 8633, 10574], "trial_type": "math-distractor", "key_times": [1808, 2137, 2619, 4568, 4901, 5490, 7910, 8198, 8633, 9991, 10188, 10574, 11858], "responses": ["15", "13", "12", "10"], "num2": [7, 2, 1, 5, 3], "num3": [5, 5, 8, 1, 8], "conditions": [12, 1600, "a", 12000], "internal_node_id": "0.0-109.0", "key_presses": [97, 101, 13, 97, 99, 13, 97, 98, 13, 97, 96, 13, 97], "trial": 4, "time_elapsed": 778140, "type": "DISTRACTOR", "trial_index": 145, "num1": [3, 6, 3, 4, 7]}, "uniqueid": "MTK1875:3X66WABAJXPX80VU6N6QJL5SGK4G3D", "dateTime": 1516573111596}, {"current_trial": 146, "trialdata": {"rt": -1, "trial_type": "single-stim", "stimulus": "<p id=\"stim\">10</p>", "internal_node_id": "0.0-110.0-0.0", "time_elapsed": 781144, "key_press": -1, "trial_index": 146}, "uniqueid": "MTK1875:3X66WABAJXPX80VU6N6QJL5SGK4G3D", "dateTime": 1516573114600}, {"current_trial": 147, "trialdata": {"rt": -1, "trial_type": "single-stim", "stimulus": "<p id=\"stim\">9</p>", "internal_node_id": "0.0-110.0-1.0", "time_elapsed": 782145, "key_press": -1, "trial_index": 147}, "uniqueid": "MTK1875:3X66WABAJXPX80VU6N6QJL5SGK4G3D", "dateTime": 1516573115601}, {"current_trial": 148, "trialdata": {"rt": -1, "trial_type": "single-stim", "stimulus": "<p id=\"stim\">8</p>", "internal_node_id": "0.0-110.0-2.0", "time_elapsed": 783147, "key_press": -1, "trial_index": 148}, "uniqueid": "MTK1875:3X66WABAJXPX80VU6N6QJL5SGK4G3D", "dateTime": 1516573116603}, {"current_trial": 149, "trialdata": {"rt": -1, "trial_type": "single-stim", "stimulus": "<p id=\"stim\">7</p>", "internal_node_id": "0.0-110.0-3.0", "time_elapsed": 784149, "key_press": -1, "trial_index": 149}, "uniqueid": "MTK1875:3X66WABAJXPX80VU6N6QJL5SGK4G3D", "dateTime": 1516573117605}, {"current_trial": 150, "trialdata": {"rt": -1, "trial_type": "single-stim", "stimulus": "<p id=\"stim\">6</p>", "internal_node_id": "0.0-110.0-4.0", "time_elapsed": 785150, "key_press": -1, "trial_index": 150}, "uniqueid": "MTK1875:3X66WABAJXPX80VU6N6QJL5SGK4G3D", "dateTime": 1516573118607}, {"current_trial": 151, "trialdata": {"rt": -1, "trial_type": "single-stim", "stimulus": "<p id=\"stim\">5</p>", "internal_node_id": "0.0-110.0-5.0", "time_elapsed": 786153, "key_press": -1, "trial_index": 151}, "uniqueid": "MTK1875:3X66WABAJXPX80VU6N6QJL5SGK4G3D", "dateTime": 1516573119610}, {"current_trial": 152, "trialdata": {"rt": -1, "trial_type": "single-stim", "stimulus": "<p id=\"stim\">4</p>", "internal_node_id": "0.0-110.0-6.0", "time_elapsed": 787155, "key_press": -1, "trial_index": 152}, "uniqueid": "MTK1875:3X66WABAJXPX80VU6N6QJL5SGK4G3D", "dateTime": 1516573120611}, {"current_trial": 153, "trialdata": {"rt": -1, "trial_type": "single-stim", "stimulus": "<p id=\"stim\">3</p>", "internal_node_id": "0.0-110.0-7.0", "time_elapsed": 788157, "key_press": -1, "trial_index": 153}, "uniqueid": "MTK1875:3X66WABAJXPX80VU6N6QJL5SGK4G3D", "dateTime": 1516573121613}, {"current_trial": 154, "trialdata": {"rt": -1, "trial_type": "single-stim", "stimulus": "<p id=\"stim\">2</p>", "internal_node_id": "0.0-110.0-8.0", "time_elapsed": 789158, "key_press": -1, "trial_index": 154}, "uniqueid": "MTK1875:3X66WABAJXPX80VU6N6QJL5SGK4G3D", "dateTime": 1516573122614}, {"current_trial": 155, "trialdata": {"rt": -1, "trial_type": "single-stim", "stimulus": "<p id=\"stim\">1</p>", "internal_node_id": "0.0-110.0-9.0", "time_elapsed": 790160, "key_press": -1, "trial_index": 155}, "uniqueid": "MTK1875:3X66WABAJXPX80VU6N6QJL5SGK4G3D", "dateTime": 1516573123617}, {"current_trial": 156, "trialdata": {"rt": -1, "trial_type": "single-stim", "stimulus": "<p id=\"stim\">+</p>", "internal_node_id": "0.0-111.0-0.0", "time_elapsed": 791662, "key_press": -1, "type": "FIXATION", "trial_index": 156}, "uniqueid": "MTK1875:3X66WABAJXPX80VU6N6QJL5SGK4G3D", "dateTime": 1516573125118}, {"current_trial": 157, "trialdata": {"rt": -1000, "trial_type": "single-audio", "word": "crutch", "stimulus": "/static/audio/wordpool/CRUTCH.wav", "conditions": [12, 1600, "a", 12000], "internal_node_id": "0.0-112.0", "trial": 4, "time_elapsed": 794397, "serialpos": 0, "key_press": -1, "wordID": 416, "type": "PRES_AUD", "trial_index": 157}, "uniqueid": "MTK1875:3X66WABAJXPX80VU6N6QJL5SGK4G3D", "dateTime": 1516573127853}, {"current_trial": 158, "trialdata": {"rt": -1000, "trial_type": "single-audio", "word": "snail", "stimulus": "/static/audio/wordpool/SNAIL.wav", "conditions": [12, 1600, "a", 12000], "internal_node_id": "0.0-113.0", "trial": 4, "time_elapsed": 797144, "serialpos": 1, "key_press": -1, "wordID": 1331, "type": "PRES_AUD", "trial_index": 158}, "uniqueid": "MTK1875:3X66WABAJXPX80VU6N6QJL5SGK4G3D", "dateTime": 1516573130600}, {"current_trial": 159, "trialdata": {"rt": -1000, "trial_type": "single-audio", "word": "lizard", "stimulus": "/static/audio/wordpool/LIZARD.wav", "conditions": [12, 1600, "a", 12000], "internal_node_id": "0.0-114.0", "trial": 4, "time_elapsed": 799563, "serialpos": 2, "key_press": -1, "wordID": 833, "type": "PRES_AUD", "trial_index": 159}, "uniqueid": "MTK1875:3X66WABAJXPX80VU6N6QJL5SGK4G3D", "dateTime": 1516573133019}, {"current_trial": 160, "trialdata": {"rt": -1000, "trial_type": "single-audio", "word": "compass", "stimulus": "/static/audio/wordpool/COMPASS.wav", "conditions": [12, 1600, "a", 12000], "internal_node_id": "0.0-115.0", "trial": 4, "time_elapsed": 802074, "serialpos": 3, "key_press": -1, "wordID": 357, "type": "PRES_AUD", "trial_index": 160}, "uniqueid": "MTK1875:3X66WABAJXPX80VU6N6QJL5SGK4G3D", "dateTime": 1516573135530}, {"current_trial": 161, "trialdata": {"rt": -1000, "trial_type": "single-audio", "word": "coffee", "stimulus": "/static/audio/wordpool/COFFEE.wav", "conditions": [12, 1600, "a", 12000], "internal_node_id": "0.0-116.0", "trial": 4, "time_elapsed": 804729, "serialpos": 4, "key_press": -1, "wordID": 340, "type": "PRES_AUD", "trial_index": 161}, "uniqueid": "MTK1875:3X66WABAJXPX80VU6N6QJL5SGK4G3D", "dateTime": 1516573138185}, {"current_trial": 162, "trialdata": {"rt": -1000, "trial_type": "single-audio", "word": "tablet", "stimulus": "/static/audio/wordpool/TABLET.wav", "conditions": [12, 1600, "a", 12000], "internal_node_id": "0.0-117.0", "trial": 4, "time_elapsed": 807363, "serialpos": 5, "key_press": -1, "wordID": 1426, "type": "PRES_AUD", "trial_index": 162}, "uniqueid": "MTK1875:3X66WABAJXPX80VU6N6QJL5SGK4G3D", "dateTime": 1516573140819}, {"current_trial": 163, "trialdata": {"rt": -1000, "trial_type": "single-audio", "word": "couch", "stimulus": "/static/audio/wordpool/COUCH.wav", "conditions": [12, 1600, "a", 12000], "internal_node_id": "0.0-118.0", "trial": 4, "time_elapsed": 809904, "serialpos": 6, "key_press": -1, "wordID": 385, "type": "PRES_AUD", "trial_index": 163}, "uniqueid": "MTK1875:3X66WABAJXPX80VU6N6QJL5SGK4G3D", "dateTime": 1516573143361}, {"current_trial": 164, "trialdata": {"rt": -1000, "trial_type": "single-audio", "word": "oyster", "stimulus": "/static/audio/wordpool/OYSTER.wav", "conditions": [12, 1600, "a", 12000], "internal_node_id": "0.0-119.0", "trial": 4, "time_elapsed": 812373, "serialpos": 7, "key_press": -1, "wordID": 994, "type": "PRES_AUD", "trial_index": 164}, "uniqueid": "MTK1875:3X66WABAJXPX80VU6N6QJL5SGK4G3D", "dateTime": 1516573145829}, {"current_trial": 165, "trialdata": {"rt": -1000, "trial_type": "single-audio", "word": "soda", "stimulus": "/static/audio/wordpool/SODA.wav", "conditions": [12, 1600, "a", 12000], "internal_node_id": "0.0-120.0", "trial": 4, "time_elapsed": 814815, "serialpos": 8, "key_press": -1, "wordID": 1340, "type": "PRES_AUD", "trial_index": 165}, "uniqueid": "MTK1875:3X66WABAJXPX80VU6N6QJL5SGK4G3D", "dateTime": 1516573148272}, {"current_trial": 166, "trialdata": {"rt": -1000, "trial_type": "single-audio", "word": "flower", "stimulus": "/static/audio/wordpool/FLOWER.wav", "conditions": [12, 1600, "a", 12000], "internal_node_id": "0.0-121.0", "trial": 4, "time_elapsed": 817381, "serialpos": 9, "key_press": -1, "wordID": 583, "type": "PRES_AUD", "trial_index": 166}, "uniqueid": "MTK1875:3X66WABAJXPX80VU6N6QJL5SGK4G3D", "dateTime": 1516573150838}, {"current_trial": 167, "trialdata": {"rt": -1000, "trial_type": "single-audio", "word": "guard", "stimulus": "/static/audio/wordpool/GUARD.wav", "conditions": [12, 1600, "a", 12000], "internal_node_id": "0.0-122.0", "trial": 4, "time_elapsed": 820032, "serialpos": 10, "key_press": -1, "wordID": 666, "type": "PRES_AUD", "trial_index": 167}, "uniqueid": "MTK1875:3X66WABAJXPX80VU6N6QJL5SGK4G3D", "dateTime": 1516573153488}, {"current_trial": 168, "trialdata": {"rt": -1000, "trial_type": "single-audio", "word": "virus", "stimulus": "/static/audio/wordpool/VIRUS.wav", "conditions": [12, 1600, "a", 12000], "internal_node_id": "0.0-123.0", "trial": 4, "time_elapsed": 822706, "serialpos": 11, "key_press": -1, "wordID": 1571, "type": "PRES_AUD", "trial_index": 168}, "uniqueid": "MTK1875:3X66WABAJXPX80VU6N6QJL5SGK4G3D", "dateTime": 1516573156162}, {"current_trial": 169, "trialdata": {"rt": -1, "trial_type": "single-stim", "stimulus": "", "internal_node_id": "0.0-124.0-0.0", "time_elapsed": 823963, "key_press": -1, "type": "PRE_RECALL_DELAY", "trial_index": 169}, "uniqueid": "MTK1875:3X66WABAJXPX80VU6N6QJL5SGK4G3D", "dateTime": 1516573157419}, {"current_trial": 170, "trialdata": {"rt": -1000, "trial_type": "single-audio", "stimulus": "/static/audio/400Hz.wav", "internal_node_id": "0.0-125.0", "time_elapsed": 824465, "key_press": -1, "type": "PRE_RECALL_ALERT", "trial_index": 170}, "uniqueid": "MTK1875:3X66WABAJXPX80VU6N6QJL5SGK4G3D", "dateTime": 1516573157921}, {"current_trial": 171, "trialdata": {"rt": [2796, 4562, 6162, 40593, 43967], "recwords": ["flower", "guard", "virus", "snail", "crutch"], "key_times": [1509, 1667, 1888, 2000, 2378, 2540, 2796, 3159, 3438, 3659, 3808, 4049, 4562, 4979, 5171, 5396, 5739, 5889, 6162, 39559, 39749, 39876, 40082, 40284, 40593, 42496, 42782, 43167, 43282, 43579, 43702, 43967], "trial_type": "free-recall", "conditions": [12, 1600, "a", 12000], "internal_node_id": "0.0-126.0-0.0", "key_presses": [70, 76, 79, 87, 69, 82, 13, 71, 85, 65, 82, 68, 13, 86, 73, 82, 85, 83, 13, 83, 78, 65, 73, 76, 13, 67, 82, 85, 84, 67, 72, 13], "trial": 4, "time_elapsed": 884469, "type": "FREE_RECALL", "trial_index": 171}, "uniqueid": "MTK1875:3X66WABAJXPX80VU6N6QJL5SGK4G3D", "dateTime": 1516573217928}, {"current_trial": 172, "trialdata": {"rt": 1460, "trial_type": "text", "internal_node_id": "0.0-127.0", "time_elapsed": 887935, "key_press": 32, "type": "INSTRUCTIONS", "trial_index": 172}, "uniqueid": "MTK1875:3X66WABAJXPX80VU6N6QJL5SGK4G3D", "dateTime": 1516573221391}, {"current_trial": 173, "trialdata": {"rt": [3188, 5065, 7978, 10484], "trial_type": "math-distractor", "key_times": [1714, 1979, 3188, 4298, 4716, 5065, 7459, 7689, 7978, 9736, 10115, 10484], "responses": ["13", "15", "20", "19"], "num2": [6, 1, 5, 8, 1], "num3": [2, 5, 9, 2, 2], "conditions": [24, 1600, "a", 12000], "internal_node_id": "0.0-128.0", "key_presses": [97, 99, 13, 97, 101, 13, 98, 96, 13, 97, 105, 13], "trial": 5, "time_elapsed": 901939, "type": "DISTRACTOR", "trial_index": 173, "num1": [5, 9, 6, 9, 8]}, "uniqueid": "MTK1875:3X66WABAJXPX80VU6N6QJL5SGK4G3D", "dateTime": 1516573235396}, {"current_trial": 174, "trialdata": {"rt": -1, "trial_type": "single-stim", "stimulus": "<p id=\"stim\">10</p>", "internal_node_id": "0.0-129.0-0.0", "time_elapsed": 904942, "key_press": -1, "trial_index": 174}, "uniqueid": "MTK1875:3X66WABAJXPX80VU6N6QJL5SGK4G3D", "dateTime": 1516573238398}, {"current_trial": 175, "trialdata": {"rt": -1, "trial_type": "single-stim", "stimulus": "<p id=\"stim\">9</p>", "internal_node_id": "0.0-129.0-1.0", "time_elapsed": 905943, "key_press": -1, "trial_index": 175}, "uniqueid": "MTK1875:3X66WABAJXPX80VU6N6QJL5SGK4G3D", "dateTime": 1516573239399}, {"current_trial": 176, "trialdata": {"rt": -1, "trial_type": "single-stim", "stimulus": "<p id=\"stim\">8</p>", "internal_node_id": "0.0-129.0-2.0", "time_elapsed": 906945, "key_press": -1, "trial_index": 176}, "uniqueid": "MTK1875:3X66WABAJXPX80VU6N6QJL5SGK4G3D", "dateTime": 1516573240401}, {"current_trial": 177, "trialdata": {"rt": -1, "trial_type": "single-stim", "stimulus": "<p id=\"stim\">7</p>", "internal_node_id": "0.0-129.0-3.0", "time_elapsed": 907946, "key_press": -1, "trial_index": 177}, "uniqueid": "MTK1875:3X66WABAJXPX80VU6N6QJL5SGK4G3D", "dateTime": 1516573241402}, {"current_trial": 178, "trialdata": {"rt": -1, "trial_type": "single-stim", "stimulus": "<p id=\"stim\">6</p>", "internal_node_id": "0.0-129.0-4.0", "time_elapsed": 908947, "key_press": -1, "trial_index": 178}, "uniqueid": "MTK1875:3X66WABAJXPX80VU6N6QJL5SGK4G3D", "dateTime": 1516573242403}, {"current_trial": 179, "trialdata": {"rt": -1, "trial_type": "single-stim", "stimulus": "<p id=\"stim\">5</p>", "internal_node_id": "0.0-129.0-5.0", "time_elapsed": 909948, "key_press": -1, "trial_index": 179}, "uniqueid": "MTK1875:3X66WABAJXPX80VU6N6QJL5SGK4G3D", "dateTime": 1516573243404}, {"current_trial": 180, "trialdata": {"rt": -1, "trial_type": "single-stim", "stimulus": "<p id=\"stim\">4</p>", "internal_node_id": "0.0-129.0-6.0", "time_elapsed": 910948, "key_press": -1, "trial_index": 180}, "uniqueid": "MTK1875:3X66WABAJXPX80VU6N6QJL5SGK4G3D", "dateTime": 1516573244404}, {"current_trial": 181, "trialdata": {"rt": -1, "trial_type": "single-stim", "stimulus": "<p id=\"stim\">3</p>", "internal_node_id": "0.0-129.0-7.0", "time_elapsed": 911949, "key_press": -1, "trial_index": 181}, "uniqueid": "MTK1875:3X66WABAJXPX80VU6N6QJL5SGK4G3D", "dateTime": 1516573245405}, {"current_trial": 182, "trialdata": {"rt": -1, "trial_type": "single-stim", "stimulus": "<p id=\"stim\">2</p>", "internal_node_id": "0.0-129.0-8.0", "time_elapsed": 912950, "key_press": -1, "trial_index": 182}, "uniqueid": "MTK1875:3X66WABAJXPX80VU6N6QJL5SGK4G3D", "dateTime": 1516573246406}, {"current_trial": 183, "trialdata": {"rt": -1, "trial_type": "single-stim", "stimulus": "<p id=\"stim\">1</p>", "internal_node_id": "0.0-129.0-9.0", "time_elapsed": 913952, "key_press": -1, "trial_index": 183}, "uniqueid": "MTK1875:3X66WABAJXPX80VU6N6QJL5SGK4G3D", "dateTime": 1516573247408}, {"current_trial": 184, "trialdata": {"rt": -1, "trial_type": "single-stim", "stimulus": "<p id=\"stim\">+</p>", "internal_node_id": "0.0-130.0-0.0", "time_elapsed": 915454, "key_press": -1, "type": "FIXATION", "trial_index": 184}, "uniqueid": "MTK1875:3X66WABAJXPX80VU6N6QJL5SGK4G3D", "dateTime": 1516573248910}, {"current_trial": 185, "trialdata": {"rt": -1000, "trial_type": "single-audio", "word": "airport", "stimulus": "/static/audio/wordpool/AIRPORT.wav", "conditions": [24, 1600, "a", 12000], "internal_node_id": "0.0-131.0", "trial": 5, "time_elapsed": 917963, "serialpos": 0, "key_press": -1, "wordID": 12, "type": "PRES_AUD", "trial_index": 185}, "uniqueid": "MTK1875:3X66WABAJXPX80VU6N6QJL5SGK4G3D", "dateTime": 1516573251419}, {"current_trial": 186, "trialdata": {"rt": -1000, "trial_type": "single-audio", "word": "headband", "stimulus": "/static/audio/wordpool/HEADBAND.wav", "conditions": [24, 1600, "a", 12000], "internal_node_id": "0.0-132.0", "trial": 5, "time_elapsed": 920559, "serialpos": 1, "key_press": -1, "wordID": 695, "type": "PRES_AUD", "trial_index": 186}, "uniqueid": "MTK1875:3X66WABAJXPX80VU6N6QJL5SGK4G3D", "dateTime": 1516573254016}, {"current_trial": 187, "trialdata": {"rt": -1000, "trial_type": "single-audio", "word": "proton", "stimulus": "/static/audio/wordpool/PROTON.wav", "conditions": [24, 1600, "a", 12000], "internal_node_id": "0.0-133.0", "trial": 5, "time_elapsed": 923188, "serialpos": 2, "key_press": -1, "wordID": 1131, "type": "PRES_AUD", "trial_index": 187}, "uniqueid": "MTK1875:3X66WABAJXPX80VU6N6QJL5SGK4G3D", "dateTime": 1516573256644}, {"current_trial": 188, "trialdata": {"rt": -1000, "trial_type": "single-audio", "word": "table", "stimulus": "/static/audio/wordpool/TABLE.wav", "conditions": [24, 1600, "a", 12000], "internal_node_id": "0.0-134.0", "trial": 5, "time_elapsed": 925814, "serialpos": 3, "key_press": -1, "wordID": 1425, "type": "PRES_AUD", "trial_index": 188}, "uniqueid": "MTK1875:3X66WABAJXPX80VU6N6QJL5SGK4G3D", "dateTime": 1516573259270}, {"current_trial": 189, "trialdata": {"rt": -1000, "trial_type": "single-audio", "word": "pork", "stimulus": "/static/audio/wordpool/PORK.wav", "conditions": [24, 1600, "a", 12000], "internal_node_id": "0.0-135.0", "trial": 5, "time_elapsed": 928588, "serialpos": 4, "key_press": -1, "wordID": 1107, "type": "PRES_AUD", "trial_index": 189}, "uniqueid": "MTK1875:3X66WABAJXPX80VU6N6QJL5SGK4G3D", "dateTime": 1516573262044}, {"current_trial": 190, "trialdata": {"rt": -1000, "trial_type": "single-audio", "word": "turkey", "stimulus": "/static/audio/wordpool/TURKEY.wav", "conditions": [24, 1600, "a", 12000], "internal_node_id": "0.0-136.0", "trial": 5, "time_elapsed": 931202, "serialpos": 5, "key_press": -1, "wordID": 1519, "type": "PRES_AUD", "trial_index": 190}, "uniqueid": "MTK1875:3X66WABAJXPX80VU6N6QJL5SGK4G3D", "dateTime": 1516573264659}, {"current_trial": 191, "trialdata": {"rt": -1000, "trial_type": "single-audio", "word": "skirt", "stimulus": "/static/audio/wordpool/SKIRT.wav", "conditions": [24, 1600, "a", 12000], "internal_node_id": "0.0-137.0", "trial": 5, "time_elapsed": 933743, "serialpos": 6, "key_press": -1, "wordID": 1318, "type": "PRES_AUD", "trial_index": 191}, "uniqueid": "MTK1875:3X66WABAJXPX80VU6N6QJL5SGK4G3D", "dateTime": 1516573267199}, {"current_trial": 192, "trialdata": {"rt": -1000, "trial_type": "single-audio", "word": "grape", "stimulus": "/static/audio/wordpool/GRAPE.wav", "conditions": [24, 1600, "a", 12000], "internal_node_id": "0.0-138.0", "trial": 5, "time_elapsed": 936167, "serialpos": 7, "key_press": -1, "wordID": 653, "type": "PRES_AUD", "trial_index": 192}, "uniqueid": "MTK1875:3X66WABAJXPX80VU6N6QJL5SGK4G3D", "dateTime": 1516573269623}, {"current_trial": 193, "trialdata": {"rt": -1000, "trial_type": "single-audio", "word": "ozone", "stimulus": "/static/audio/wordpool/OZONE.wav", "conditions": [24, 1600, "a", 12000], "internal_node_id": "0.0-139.0", "trial": 5, "time_elapsed": 938940, "serialpos": 8, "key_press": -1, "wordID": 995, "type": "PRES_AUD", "trial_index": 193}, "uniqueid": "MTK1875:3X66WABAJXPX80VU6N6QJL5SGK4G3D", "dateTime": 1516573272396}, {"current_trial": 194, "trialdata": {"rt": -1000, "trial_type": "single-audio", "word": "necklace", "stimulus": "/static/audio/wordpool/NECKLACE.wav", "conditions": [24, 1600, "a", 12000], "internal_node_id": "0.0-140.0", "trial": 5, "time_elapsed": 941421, "serialpos": 9, "key_press": -1, "wordID": 939, "type": "PRES_AUD", "trial_index": 194}, "uniqueid": "MTK1875:3X66WABAJXPX80VU6N6QJL5SGK4G3D", "dateTime": 1516573274877}, {"current_trial": 195, "trialdata": {"rt": -1000, "trial_type": "single-audio", "word": "uncle", "stimulus": "/static/audio/wordpool/UNCLE.wav", "conditions": [24, 1600, "a", 12000], "internal_node_id": "0.0-141.0", "trial": 5, "time_elapsed": 944078, "serialpos": 10, "key_press": -1, "wordID": 1535, "type": "PRES_AUD", "trial_index": 195}, "uniqueid": "MTK1875:3X66WABAJXPX80VU6N6QJL5SGK4G3D", "dateTime": 1516573277534}, {"current_trial": 196, "trialdata": {"rt": -1000, "trial_type": "single-audio", "word": "shirt", "stimulus": "/static/audio/wordpool/SHIRT.wav", "conditions": [24, 1600, "a", 12000], "internal_node_id": "0.0-142.0", "trial": 5, "time_elapsed": 946840, "serialpos": 11, "key_press": -1, "wordID": 1286, "type": "PRES_AUD", "trial_index": 196}, "uniqueid": "MTK1875:3X66WABAJXPX80VU6N6QJL5SGK4G3D", "dateTime": 1516573280296}, {"current_trial": 197, "trialdata": {"rt": -1000, "trial_type": "single-audio", "word": "river", "stimulus": "/static/audio/wordpool/RIVER.wav", "conditions": [24, 1600, "a", 12000], "internal_node_id": "0.0-143.0", "trial": 5, "time_elapsed": 949376, "serialpos": 12, "key_press": -1, "wordID": 1193, "type": "PRES_AUD", "trial_index": 197}, "uniqueid": "MTK1875:3X66WABAJXPX80VU6N6QJL5SGK4G3D", "dateTime": 1516573282833}, {"current_trial": 198, "trialdata": {"rt": -1000, "trial_type": "single-audio", "word": "actor", "stimulus": "/static/audio/wordpool/ACTOR.wav", "conditions": [24, 1600, "a", 12000], "internal_node_id": "0.0-144.0", "trial": 5, "time_elapsed": 951787, "serialpos": 13, "key_press": -1, "wordID": 4, "type": "PRES_AUD", "trial_index": 198}, "uniqueid": "MTK1875:3X66WABAJXPX80VU6N6QJL5SGK4G3D", "dateTime": 1516573285243}, {"current_trial": 199, "trialdata": {"rt": -1000, "trial_type": "single-audio", "word": "bank", "stimulus": "/static/audio/wordpool/BANK.wav", "conditions": [24, 1600, "a", 12000], "internal_node_id": "0.0-145.0", "trial": 5, "time_elapsed": 954224, "serialpos": 14, "key_press": -1, "wordID": 82, "type": "PRES_AUD", "trial_index": 199}, "uniqueid": "MTK1875:3X66WABAJXPX80VU6N6QJL5SGK4G3D", "dateTime": 1516573287680}, {"current_trial": 200, "trialdata": {"rt": -1000, "trial_type": "single-audio", "word": "airplane", "stimulus": "/static/audio/wordpool/AIRPLANE.wav", "conditions": [24, 1600, "a", 12000], "internal_node_id": "0.0-146.0", "trial": 5, "time_elapsed": 956895, "serialpos": 15, "key_press": -1, "wordID": 11, "type": "PRES_AUD", "trial_index": 200}, "uniqueid": "MTK1875:3X66WABAJXPX80VU6N6QJL5SGK4G3D", "dateTime": 1516573290351}, {"current_trial": 201, "trialdata": {"rt": -1000, "trial_type": "single-audio", "word": "beaker", "stimulus": "/static/audio/wordpool/BEAKER.wav", "conditions": [24, 1600, "a", 12000], "internal_node_id": "0.0-147.0", "trial": 5, "time_elapsed": 959333, "serialpos": 16, "key_press": -1, "wordID": 103, "type": "PRES_AUD", "trial_index": 201}, "uniqueid": "MTK1875:3X66WABAJXPX80VU6N6QJL5SGK4G3D", "dateTime": 1516573292789}, {"current_trial": 202, "trialdata": {"rt": -1000, "trial_type": "single-audio", "word": "catcher", "stimulus": "/static/audio/wordpool/CATCHER.wav", "conditions": [24, 1600, "a", 12000], "internal_node_id": "0.0-148.0", "trial": 5, "time_elapsed": 961866, "serialpos": 17, "key_press": -1, "wordID": 257, "type": "PRES_AUD", "trial_index": 202}, "uniqueid": "MTK1875:3X66WABAJXPX80VU6N6QJL5SGK4G3D", "dateTime": 1516573295322}, {"current_trial": 203, "trialdata": {"rt": -1000, "trial_type": "single-audio", "word": "atom", "stimulus": "/static/audio/wordpool/ATOM.wav", "conditions": [24, 1600, "a", 12000], "internal_node_id": "0.0-149.0", "trial": 5, "time_elapsed": 964306, "serialpos": 18, "key_press": -1, "wordID": 54, "type": "PRES_AUD", "trial_index": 203}, "uniqueid": "MTK1875:3X66WABAJXPX80VU6N6QJL5SGK4G3D", "dateTime": 1516573297763}, {"current_trial": 204, "trialdata": {"rt": -1000, "trial_type": "single-audio", "word": "cabbage", "stimulus": "/static/audio/wordpool/CABBAGE.wav", "conditions": [24, 1600, "a", 12000], "internal_node_id": "0.0-150.0", "trial": 5, "time_elapsed": 966810, "serialpos": 19, "key_press": -1, "wordID": 209, "type": "PRES_AUD", "trial_index": 204}, "uniqueid": "MTK1875:3X66WABAJXPX80VU6N6QJL5SGK4G3D", "dateTime": 1516573300266}, {"current_trial": 205, "trialdata": {"rt": -1000, "trial_type": "single-audio", "word": "radish", "stimulus": "/static/audio/wordpool/RADISH.wav", "conditions": [24, 1600, "a", 12000], "internal_node_id": "0.0-151.0", "trial": 5, "time_elapsed": 969567, "serialpos": 20, "key_press": -1, "wordID": 1157, "type": "PRES_AUD", "trial_index": 205}, "uniqueid": "MTK1875:3X66WABAJXPX80VU6N6QJL5SGK4G3D", "dateTime": 1516573303023}, {"current_trial": 206, "trialdata": {"rt": -1000, "trial_type": "single-audio", "word": "egypt", "stimulus": "/static/audio/wordpool/EGYPT.wav", "conditions": [24, 1600, "a", 12000], "internal_node_id": "0.0-152.0", "trial": 5, "time_elapsed": 972353, "serialpos": 21, "key_press": -1, "wordID": 518, "type": "PRES_AUD", "trial_index": 206}, "uniqueid": "MTK1875:3X66WABAJXPX80VU6N6QJL5SGK4G3D", "dateTime": 1516573305809}, {"current_trial": 207, "trialdata": {"rt": -1000, "trial_type": "single-audio", "word": "venus", "stimulus": "/static/audio/wordpool/VENUS.wav", "conditions": [24, 1600, "a", 12000], "internal_node_id": "0.0-153.0", "trial": 5, "time_elapsed": 974879, "serialpos": 22, "key_press": -1, "wordID": 1556, "type": "PRES_AUD", "trial_index": 207}, "uniqueid": "MTK1875:3X66WABAJXPX80VU6N6QJL5SGK4G3D", "dateTime": 1516573308336}, {"current_trial": 208, "trialdata": {"rt": -1000, "trial_type": "single-audio", "word": "actress", "stimulus": "/static/audio/wordpool/ACTRESS.wav", "conditions": [24, 1600, "a", 12000], "internal_node_id": "0.0-154.0", "trial": 5, "time_elapsed": 977618, "serialpos": 23, "key_press": -1, "wordID": 5, "type": "PRES_AUD", "trial_index": 208}, "uniqueid": "MTK1875:3X66WABAJXPX80VU6N6QJL5SGK4G3D", "dateTime": 1516573311075}, {"current_trial": 209, "trialdata": {"rt": -1, "trial_type": "single-stim", "stimulus": "", "internal_node_id": "0.0-155.0-0.0", "time_elapsed": 978963, "key_press": -1, "type": "PRE_RECALL_DELAY", "trial_index": 209}, "uniqueid": "MTK1875:3X66WABAJXPX80VU6N6QJL5SGK4G3D", "dateTime": 1516573312420}, {"current_trial": 210, "trialdata": {"rt": -1000, "trial_type": "single-audio", "stimulus": "/static/audio/400Hz.wav", "internal_node_id": "0.0-156.0", "time_elapsed": 979466, "key_press": -1, "type": "PRE_RECALL_ALERT", "trial_index": 210}, "uniqueid": "MTK1875:3X66WABAJXPX80VU6N6QJL5SGK4G3D", "dateTime": 1516573312922}, {"current_trial": 211, "trialdata": {"rt": [2213, 4854, 6719, 9012, 10697, 12019, 15526, 16853, 21804, 23065, 31245, 35053, 36968], "recwords": ["actor", "actress", "airport", "airplane", "beaker", "bank", "turkey", "pork", "neutron", "atom", "headband", "shirt", "skirt"], "key_times": [1080, 1305, 1592, 1700, 1914, 2213, 2506, 2713, 2999, 3236, 3662, 3845, 4320, 4854, 5234, 5395, 5576, 5875, 6087, 6237, 6506, 6719, 7274, 7451, 7567, 8055, 8305, 8499, 8669, 8837, 9012, 9483, 9712, 10019, 10221, 10361, 10515, 10697, 11254, 11416, 11505, 11721, 12019, 13879, 14654, 14808, 14950, 15164, 15289, 15526, 16066, 16267, 16469, 16668, 16853, 19089, 19461, 20205, 20445, 20664, 21079, 21169, 21343, 21551, 21804, 22348, 22533, 22661, 22824, 23065, 28515, 28715, 28903, 29238, 29749, 29929, 30037, 30226, 30664, 30749, 31245, 33264, 33862, 34056, 34268, 34770, 35053, 35733, 35853, 36165, 36409, 36659, 36968], "trial_type": "free-recall", "conditions": [24, 1600, "a", 12000], "internal_node_id": "0.0-157.0-0.0", "key_presses": [65, 67, 84, 79, 82, 13, 65, 67, 84, 82, 69, 83, 83, 13, 65, 73, 82, 80, 79, 82, 84, 13, 65, 73, 82, 80, 76, 65, 78, 69, 13, 66, 69, 65, 75, 69, 82, 13, 66, 65, 78, 75, 13, 84, 85, 82, 75, 69, 89, 13, 80, 79, 82, 75, 13, 78, 69, 85, 84, 79, 8, 82, 79, 78, 13, 65, 84, 79, 77, 13, 72, 69, 65, 68, 66, 65, 78, 75, 8, 68, 13, 83, 72, 73, 82, 84, 13, 83, 75, 73, 82, 84, 13], "trial": 5, "time_elapsed": 1039468, "type": "FREE_RECALL", "trial_index": 211}, "uniqueid": "MTK1875:3X66WABAJXPX80VU6N6QJL5SGK4G3D", "dateTime": 1516573372928}, {"current_trial": 212, "trialdata": {"rt": 2659, "trial_type": "text", "internal_node_id": "0.0-158.0", "time_elapsed": 1044132, "key_press": 32, "type": "INSTRUCTIONS", "trial_index": 212}, "uniqueid": "MTK1875:3X66WABAJXPX80VU6N6QJL5SGK4G3D", "dateTime": 1516573377588}, {"current_trial": 213, "trialdata": {"rt": [3292, 6411, 8173, 10289], "trial_type": "math-distractor", "key_times": [2388, 2579, 3292, 6000, 6179, 6411, 7600, 7822, 8173, 9749, 9999, 10289, 11997], "responses": ["12", "14", "10", "15"], "num2": [4, 1, 2, 6, 2], "num3": [7, 9, 6, 3, 1], "conditions": [24, 1600, "a", 12000], "internal_node_id": "0.0-159.0", "key_presses": [97, 98, 13, 97, 100, 13, 97, 96, 13, 97, 101, 13, 105], "trial": 6, "time_elapsed": 1058135, "type": "DISTRACTOR", "trial_index": 213, "num1": [1, 4, 2, 6, 6]}, "uniqueid": "MTK1875:3X66WABAJXPX80VU6N6QJL5SGK4G3D", "dateTime": 1516573391591}, {"current_trial": 214, "trialdata": {"rt": -1, "trial_type": "single-stim", "stimulus": "<p id=\"stim\">10</p>", "internal_node_id": "0.0-160.0-0.0", "time_elapsed": 1061137, "key_press": -1, "trial_index": 214}, "uniqueid": "MTK1875:3X66WABAJXPX80VU6N6QJL5SGK4G3D", "dateTime": 1516573394594}, {"current_trial": 215, "trialdata": {"rt": -1, "trial_type": "single-stim", "stimulus": "<p id=\"stim\">9</p>", "internal_node_id": "0.0-160.0-1.0", "time_elapsed": 1062140, "key_press": -1, "trial_index": 215}, "uniqueid": "MTK1875:3X66WABAJXPX80VU6N6QJL5SGK4G3D", "dateTime": 1516573395596}, {"current_trial": 216, "trialdata": {"rt": -1, "trial_type": "single-stim", "stimulus": "<p id=\"stim\">8</p>", "internal_node_id": "0.0-160.0-2.0", "time_elapsed": 1063141, "key_press": -1, "trial_index": 216}, "uniqueid": "MTK1875:3X66WABAJXPX80VU6N6QJL5SGK4G3D", "dateTime": 1516573396597}, {"current_trial": 217, "trialdata": {"rt": -1, "trial_type": "single-stim", "stimulus": "<p id=\"stim\">7</p>", "internal_node_id": "0.0-160.0-3.0", "time_elapsed": 1064143, "key_press": -1, "trial_index": 217}, "uniqueid": "MTK1875:3X66WABAJXPX80VU6N6QJL5SGK4G3D", "dateTime": 1516573397599}, {"current_trial": 218, "trialdata": {"rt": -1, "trial_type": "single-stim", "stimulus": "<p id=\"stim\">6</p>", "internal_node_id": "0.0-160.0-4.0", "time_elapsed": 1065145, "key_press": -1, "trial_index": 218}, "uniqueid": "MTK1875:3X66WABAJXPX80VU6N6QJL5SGK4G3D", "dateTime": 1516573398601}, {"current_trial": 219, "trialdata": {"rt": -1, "trial_type": "single-stim", "stimulus": "<p id=\"stim\">5</p>", "internal_node_id": "0.0-160.0-5.0", "time_elapsed": 1066146, "key_press": -1, "trial_index": 219}, "uniqueid": "MTK1875:3X66WABAJXPX80VU6N6QJL5SGK4G3D", "dateTime": 1516573399602}, {"current_trial": 220, "trialdata": {"rt": -1, "trial_type": "single-stim", "stimulus": "<p id=\"stim\">4</p>", "internal_node_id": "0.0-160.0-6.0", "time_elapsed": 1067148, "key_press": -1, "trial_index": 220}, "uniqueid": "MTK1875:3X66WABAJXPX80VU6N6QJL5SGK4G3D", "dateTime": 1516573400604}, {"current_trial": 221, "trialdata": {"rt": -1, "trial_type": "single-stim", "stimulus": "<p id=\"stim\">3</p>", "internal_node_id": "0.0-160.0-7.0", "time_elapsed": 1068150, "key_press": -1, "trial_index": 221}, "uniqueid": "MTK1875:3X66WABAJXPX80VU6N6QJL5SGK4G3D", "dateTime": 1516573401606}, {"current_trial": 222, "trialdata": {"rt": -1, "trial_type": "single-stim", "stimulus": "<p id=\"stim\">2</p>", "internal_node_id": "0.0-160.0-8.0", "time_elapsed": 1069152, "key_press": -1, "trial_index": 222}, "uniqueid": "MTK1875:3X66WABAJXPX80VU6N6QJL5SGK4G3D", "dateTime": 1516573402608}, {"current_trial": 223, "trialdata": {"rt": -1, "trial_type": "single-stim", "stimulus": "<p id=\"stim\">1</p>", "internal_node_id": "0.0-160.0-9.0", "time_elapsed": 1070153, "key_press": -1, "trial_index": 223}, "uniqueid": "MTK1875:3X66WABAJXPX80VU6N6QJL5SGK4G3D", "dateTime": 1516573403609}, {"current_trial": 224, "trialdata": {"rt": -1, "trial_type": "single-stim", "stimulus": "<p id=\"stim\">+</p>", "internal_node_id": "0.0-161.0-0.0", "time_elapsed": 1071654, "key_press": -1, "type": "FIXATION", "trial_index": 224}, "uniqueid": "MTK1875:3X66WABAJXPX80VU6N6QJL5SGK4G3D", "dateTime": 1516573405110}, {"current_trial": 225, "trialdata": {"rt": -1000, "trial_type": "single-audio", "word": "peach", "stimulus": "/static/audio/wordpool/PEACH.wav", "conditions": [24, 1600, "a", 12000], "internal_node_id": "0.0-162.0", "trial": 6, "time_elapsed": 1074186, "serialpos": 0, "key_press": -1, "wordID": 1030, "type": "PRES_AUD", "trial_index": 225}, "uniqueid": "MTK1875:3X66WABAJXPX80VU6N6QJL5SGK4G3D", "dateTime": 1516573407642}, {"current_trial": 226, "trialdata": {"rt": -1000, "trial_type": "single-audio", "word": "mailbox", "stimulus": "/static/audio/wordpool/MAILBOX.wav", "conditions": [24, 1600, "a", 12000], "internal_node_id": "0.0-163.0", "trial": 6, "time_elapsed": 1076742, "serialpos": 1, "key_press": -1, "wordID": 856, "type": "PRES_AUD", "trial_index": 226}, "uniqueid": "MTK1875:3X66WABAJXPX80VU6N6QJL5SGK4G3D", "dateTime": 1516573410198}, {"current_trial": 227, "trialdata": {"rt": -1000, "trial_type": "single-audio", "word": "mailman", "stimulus": "/static/audio/wordpool/MAILMAN.wav", "conditions": [24, 1600, "a", 12000], "internal_node_id": "0.0-164.0", "trial": 6, "time_elapsed": 1079516, "serialpos": 2, "key_press": -1, "wordID": 857, "type": "PRES_AUD", "trial_index": 227}, "uniqueid": "MTK1875:3X66WABAJXPX80VU6N6QJL5SGK4G3D", "dateTime": 1516573412973}, {"current_trial": 228, "trialdata": {"rt": -1000, "trial_type": "single-audio", "word": "cashew", "stimulus": "/static/audio/wordpool/CASHEW.wav", "conditions": [24, 1600, "a", 12000], "internal_node_id": "0.0-165.0", "trial": 6, "time_elapsed": 1082024, "serialpos": 3, "key_press": -1, "wordID": 252, "type": "PRES_AUD", "trial_index": 228}, "uniqueid": "MTK1875:3X66WABAJXPX80VU6N6QJL5SGK4G3D", "dateTime": 1516573415480}, {"current_trial": 229, "trialdata": {"rt": -1000, "trial_type": "single-audio", "word": "dorm", "stimulus": "/static/audio/wordpool/DORM.wav", "conditions": [24, 1600, "a", 12000], "internal_node_id": "0.0-166.0", "trial": 6, "time_elapsed": 1084610, "serialpos": 4, "key_press": -1, "wordID": 487, "type": "PRES_AUD", "trial_index": 229}, "uniqueid": "MTK1875:3X66WABAJXPX80VU6N6QJL5SGK4G3D", "dateTime": 1516573418066}, {"current_trial": 230, "trialdata": {"rt": -1000, "trial_type": "single-audio", "word": "igloo", "stimulus": "/static/audio/wordpool/IGLOO.wav", "conditions": [24, 1600, "a", 12000], "internal_node_id": "0.0-167.0", "trial": 6, "time_elapsed": 1087191, "serialpos": 5, "key_press": -1, "wordID": 733, "type": "PRES_AUD", "trial_index": 230}, "uniqueid": "MTK1875:3X66WABAJXPX80VU6N6QJL5SGK4G3D", "dateTime": 1516573420648}, {"current_trial": 231, "trialdata": {"rt": -1000, "trial_type": "single-audio", "word": "sister", "stimulus": "/static/audio/wordpool/SISTER.wav", "conditions": [24, 1600, "a", 12000], "internal_node_id": "0.0-168.0", "trial": 6, "time_elapsed": 1089870, "serialpos": 6, "key_press": -1, "wordID": 1311, "type": "PRES_AUD", "trial_index": 231}, "uniqueid": "MTK1875:3X66WABAJXPX80VU6N6QJL5SGK4G3D", "dateTime": 1516573423326}, {"current_trial": 232, "trialdata": {"rt": -1000, "trial_type": "single-audio", "word": "kitchen", "stimulus": "/static/audio/wordpool/KITCHEN.wav", "conditions": [24, 1600, "a", 12000], "internal_node_id": "0.0-169.0", "trial": 6, "time_elapsed": 1092598, "serialpos": 7, "key_press": -1, "wordID": 777, "type": "PRES_AUD", "trial_index": 232}, "uniqueid": "MTK1875:3X66WABAJXPX80VU6N6QJL5SGK4G3D", "dateTime": 1516573426055}, {"current_trial": 233, "trialdata": {"rt": -1000, "trial_type": "single-audio", "word": "portrait", "stimulus": "/static/audio/wordpool/PORTRAIT.wav", "conditions": [24, 1600, "a", 12000], "internal_node_id": "0.0-170.0", "trial": 6, "time_elapsed": 1095340, "serialpos": 8, "key_press": -1, "wordID": 1110, "type": "PRES_AUD", "trial_index": 233}, "uniqueid": "MTK1875:3X66WABAJXPX80VU6N6QJL5SGK4G3D", "dateTime": 1516573428797}, {"current_trial": 234, "trialdata": {"rt": -1000, "trial_type": "single-audio", "word": "cashier", "stimulus": "/static/audio/wordpool/CASHIER.wav", "conditions": [24, 1600, "a", 12000], "internal_node_id": "0.0-171.0", "trial": 6, "time_elapsed": 1097955, "serialpos": 9, "key_press": -1, "wordID": 253, "type": "PRES_AUD", "trial_index": 234}, "uniqueid": "MTK1875:3X66WABAJXPX80VU6N6QJL5SGK4G3D", "dateTime": 1516573431412}, {"current_trial": 235, "trialdata": {"rt": -1000, "trial_type": "single-audio", "word": "branch", "stimulus": "/static/audio/wordpool/BRANCH.wav", "conditions": [24, 1600, "a", 12000], "internal_node_id": "0.0-172.0", "trial": 6, "time_elapsed": 1100541, "serialpos": 10, "key_press": -1, "wordID": 167, "type": "PRES_AUD", "trial_index": 235}, "uniqueid": "MTK1875:3X66WABAJXPX80VU6N6QJL5SGK4G3D", "dateTime": 1516573433997}, {"current_trial": 236, "trialdata": {"rt": -1000, "trial_type": "single-audio", "word": "basement", "stimulus": "/static/audio/wordpool/BASEMENT.wav", "conditions": [24, 1600, "a", 12000], "internal_node_id": "0.0-173.0", "trial": 6, "time_elapsed": 1103129, "serialpos": 11, "key_press": -1, "wordID": 93, "type": "PRES_AUD", "trial_index": 236}, "uniqueid": "MTK1875:3X66WABAJXPX80VU6N6QJL5SGK4G3D", "dateTime": 1516573436585}, {"current_trial": 237, "trialdata": {"rt": -1000, "trial_type": "single-audio", "word": "dresser", "stimulus": "/static/audio/wordpool/DRESSER.wav", "conditions": [24, 1600, "a", 12000], "internal_node_id": "0.0-174.0", "trial": 6, "time_elapsed": 1105588, "serialpos": 12, "key_press": -1, "wordID": 495, "type": "PRES_AUD", "trial_index": 237}, "uniqueid": "MTK1875:3X66WABAJXPX80VU6N6QJL5SGK4G3D", "dateTime": 1516573439044}, {"current_trial": 238, "trialdata": {"rt": -1000, "trial_type": "single-audio", "word": "jello", "stimulus": "/static/audio/wordpool/JELLO.wav", "conditions": [24, 1600, "a", 12000], "internal_node_id": "0.0-175.0", "trial": 6, "time_elapsed": 1108300, "serialpos": 13, "key_press": -1, "wordID": 753, "type": "PRES_AUD", "trial_index": 238}, "uniqueid": "MTK1875:3X66WABAJXPX80VU6N6QJL5SGK4G3D", "dateTime": 1516573441757}, {"current_trial": 239, "trialdata": {"rt": -1000, "trial_type": "single-audio", "word": "trombone", "stimulus": "/static/audio/wordpool/TROMBONE.wav", "conditions": [24, 1600, "a", 12000], "internal_node_id": "0.0-176.0", "trial": 6, "time_elapsed": 1110980, "serialpos": 14, "key_press": -1, "wordID": 1507, "type": "PRES_AUD", "trial_index": 239}, "uniqueid": "MTK1875:3X66WABAJXPX80VU6N6QJL5SGK4G3D", "dateTime": 1516573444436}, {"current_trial": 240, "trialdata": {"rt": -1000, "trial_type": "single-audio", "word": "banker", "stimulus": "/static/audio/wordpool/BANKER.wav", "conditions": [24, 1600, "a", 12000], "internal_node_id": "0.0-177.0", "trial": 6, "time_elapsed": 1113677, "serialpos": 15, "key_press": -1, "wordID": 83, "type": "PRES_AUD", "trial_index": 240}, "uniqueid": "MTK1875:3X66WABAJXPX80VU6N6QJL5SGK4G3D", "dateTime": 1516573447133}, {"current_trial": 241, "trialdata": {"rt": -1000, "trial_type": "single-audio", "word": "vagrant", "stimulus": "/static/audio/wordpool/VAGRANT.wav", "conditions": [24, 1600, "a", 12000], "internal_node_id": "0.0-178.0", "trial": 6, "time_elapsed": 1116123, "serialpos": 16, "key_press": -1, "wordID": 1543, "type": "PRES_AUD", "trial_index": 241}, "uniqueid": "MTK1875:3X66WABAJXPX80VU6N6QJL5SGK4G3D", "dateTime": 1516573449580}, {"current_trial": 242, "trialdata": {"rt": -1000, "trial_type": "single-audio", "word": "burglar", "stimulus": "/static/audio/wordpool/BURGLAR.wav", "conditions": [24, 1600, "a", 12000], "internal_node_id": "0.0-179.0", "trial": 6, "time_elapsed": 1118614, "serialpos": 17, "key_press": -1, "wordID": 199, "type": "PRES_AUD", "trial_index": 242}, "uniqueid": "MTK1875:3X66WABAJXPX80VU6N6QJL5SGK4G3D", "dateTime": 1516573452071}, {"current_trial": 243, "trialdata": {"rt": -1000, "trial_type": "single-audio", "word": "thief", "stimulus": "/static/audio/wordpool/THIEF.wav", "conditions": [24, 1600, "a", 12000], "internal_node_id": "0.0-180.0", "trial": 6, "time_elapsed": 1121338, "serialpos": 18, "key_press": -1, "wordID": 1455, "type": "PRES_AUD", "trial_index": 243}, "uniqueid": "MTK1875:3X66WABAJXPX80VU6N6QJL5SGK4G3D", "dateTime": 1516573454794}, {"current_trial": 244, "trialdata": {"rt": -1000, "trial_type": "single-audio", "word": "postage", "stimulus": "/static/audio/wordpool/POSTAGE.wav", "conditions": [24, 1600, "a", 12000], "internal_node_id": "0.0-181.0", "trial": 6, "time_elapsed": 1123833, "serialpos": 19, "key_press": -1, "wordID": 1112, "type": "PRES_AUD", "trial_index": 244}, "uniqueid": "MTK1875:3X66WABAJXPX80VU6N6QJL5SGK4G3D", "dateTime": 1516573457289}, {"current_trial": 245, "trialdata": {"rt": -1000, "trial_type": "single-audio", "word": "binder", "stimulus": "/static/audio/wordpool/BINDER.wav", "conditions": [24, 1600, "a", 12000], "internal_node_id": "0.0-182.0", "trial": 6, "time_elapsed": 1126263, "serialpos": 20, "key_press": -1, "wordID": 126, "type": "PRES_AUD", "trial_index": 245}, "uniqueid": "MTK1875:3X66WABAJXPX80VU6N6QJL5SGK4G3D", "dateTime": 1516573459719}, {"current_trial": 246, "trialdata": {"rt": -1000, "trial_type": "single-audio", "word": "sword", "stimulus": "/static/audio/wordpool/SWORD.wav", "conditions": [24, 1600, "a", 12000], "internal_node_id": "0.0-183.0", "trial": 6, "time_elapsed": 1128844, "serialpos": 21, "key_press": -1, "wordID": 1422, "type": "PRES_AUD", "trial_index": 246}, "uniqueid": "MTK1875:3X66WABAJXPX80VU6N6QJL5SGK4G3D", "dateTime": 1516573462300}, {"current_trial": 247, "trialdata": {"rt": -1000, "trial_type": "single-audio", "word": "fiddle", "stimulus": "/static/audio/wordpool/FIDDLE.wav", "conditions": [24, 1600, "a", 12000], "internal_node_id": "0.0-184.0", "trial": 6, "time_elapsed": 1131522, "serialpos": 22, "key_press": -1, "wordID": 560, "type": "PRES_AUD", "trial_index": 247}, "uniqueid": "MTK1875:3X66WABAJXPX80VU6N6QJL5SGK4G3D", "dateTime": 1516573464978}, {"current_trial": 248, "trialdata": {"rt": -1000, "trial_type": "single-audio", "word": "bubble", "stimulus": "/static