{"assignmentId": "3ND9UOO81L9ALQBJRYE81ALX9Q3LW4", "workerId": "MTK1592", "questiondata": {"origin": "United States", "strat-rehearsal": "85", "marital": "Married/Domestic Partnership", "education": "Associate degree", "ethnicity": "Not Hispanic", "color_depth": 24, "distracted": "No", "wrote-notes": "No", "strat-other": "I tried once to say the words out loud and only think about that one word at a time. It did not seem to work. ", "screen_width": 1920, "avail_screen_width": 1920, "avail_screen_height": 1057, "strat-image": "93", "language": "English", "gender": "Female", "age": "39", "gender_other": "", "race": ["White"], "strat-categorize": "98", "pixel_depth": 24, "strat-spatial": "89", "strat-story": "94", "race_other": "", "screen_height": 1080}, "bonus": 0, "hitId": "31YWE12TE0JO8LTD774IV4LJ5YS7XL", "counterbalance": 2147, "useragent": "Mozilla/5.0 (Macintosh; Intel Mac OS X 10_13_2) AppleWebKit/537.36 (KHTML, like Gecko) Chrome/63.0.3239.132 Safari/537.36", "eventdata": [{"eventtype": "initialized", "interval": 0, "value": null, "timestamp": 1516042742406}, {"eventtype": "window_resize", "interval": 0, "value": [1920, 983], "timestamp": 1516042742406}, {"eventtype": "focus", "interval": 18044, "value": "off", "timestamp": 1516042760450}, {"eventtype": "focus", "interval": 5923, "value": "on", "timestamp": 1516042766373}, {"eventtype": "focus", "interval": 1501901, "value": "off", "timestamp": 1516044268274}, {"eventtype": "focus", "interval": 68240, "value": "on", "timestamp": 1516044336514}], "data": [{"current_trial": 0, "trialdata": {"rt": 5390, "trial_type": "text", "internal_node_id": "0.0-0.0", "time_elapsed": 5392, "key_press": 32, "type": "INSTRUCTIONS", "trial_index": 0}, "uniqueid": "MTK1592:3ND9UOO81L9ALQBJRYE81ALX9Q3LW4", "dateTime": 1516042771846}, {"current_trial": 1, "trialdata": {"rt": 21870, "trial_type": "text", "internal_node_id": "0.0-1.0", "time_elapsed": 27267, "key_press": 32, "type": "INSTRUCTIONS", "trial_index": 1}, "uniqueid": "MTK1592:3ND9UOO81L9ALQBJRYE81ALX9Q3LW4", "dateTime": 1516042793720}, {"current_trial": 2, "trialdata": {"rt": [17105], "trial_type": "audio-test", "responses": ["ocean"], "internal_node_id": "0.0-2.0", "time_elapsed": 44385, "type": "AUDIO_TEST", "trial_index": 2}, "uniqueid": "MTK1592:3ND9UOO81L9ALQBJRYE81ALX9Q3LW4", "dateTime": 1516042810838}, {"current_trial": 3, "trialdata": {"rt": [6733], "trial_type": "audio-test", "responses": ["crystal"], "internal_node_id": "0.0-3.0", "time_elapsed": 51121, "type": "AUDIO_TEST", "trial_index": 3}, "uniqueid": "MTK1592:3ND9UOO81L9ALQBJRYE81ALX9Q3LW4", "dateTime": 1516042817574}, {"current_trial": 4, "trialdata": {"rt": [7534], "trial_type": "audio-test", "responses": ["spice"], "internal_node_id": "0.0-4.0", "time_elapsed": 58658, "type": "AUDIO_TEST", "trial_index": 4}, "uniqueid": "MTK1592:3ND9UOO81L9ALQBJRYE81ALX9Q3LW4", "dateTime": 1516042825111}, {"current_trial": 5, "trialdata": {"rt": 18170, "trial_type": "survey-text", "responses": "{\"Q0\":\"11 pm\",\"Q1\":\"8 am\",\"Q2\":\"4\"}", "internal_node_id": "0.0-5.0", "time_elapsed": 77585, "type": "SLEEP_SURVEY", "trial_index": 5}, "uniqueid": "MTK1592:3ND9UOO81L9ALQBJRYE81ALX9Q3LW4", "dateTime": 1516042844038}, {"current_trial": 6, "trialdata": {"rt": 50385, "trial_type": "text", "internal_node_id": "0.0-6.0", "time_elapsed": 128971, "key_press": 32, "type": "INSTRUCTIONS", "trial_index": 6}, "uniqueid": "MTK1592:3ND9UOO81L9ALQBJRYE81ALX9Q3LW4", "dateTime": 1516042895424}, {"current_trial": 7, "trialdata": {"rt": 17775, "trial_type": "text", "internal_node_id": "0.0-7.0", "time_elapsed": 147250, "key_press": 32, "type": "INSTRUCTIONS", "trial_index": 7}, "uniqueid": "MTK1592:3ND9UOO81L9ALQBJRYE81ALX9Q3LW4", "dateTime": 1516042913703}, {"current_trial": 8, "trialdata": {"rt": 11707, "trial_type": "text", "internal_node_id": "0.0-8.0", "time_elapsed": 159459, "key_press": 32, "type": "INSTRUCTIONS", "trial_index": 8}, "uniqueid": "MTK1592:3ND9UOO81L9ALQBJRYE81ALX9Q3LW4", "dateTime": 1516042925912}, {"current_trial": 9, "trialdata": {"rt": [3479, 6992, 10097, 13072, 15793, 17737], "trial_type": "math-distractor", "key_times": [2505, 3479, 6456, 6689, 6992, 9714, 9841, 10097, 12546, 12712, 13072, 15297, 15489, 15793, 17258, 17513, 17737], "responses": ["8", "18", "21", "13", "13", "10"], "num2": [1, 1, 7, 2, 5, 8, 7], "num3": [1, 9, 7, 4, 2, 1, 9], "conditions": [18, 1200, "a", 18000], "internal_node_id": "0.0-9.0", "key_presses": [56, 13, 49, 56, 13, 50, 49, 13, 49, 51, 13, 49, 51, 13, 49, 48, 13], "trial": 0, "time_elapsed": 178469, "type": "DISTRACTOR", "trial_index": 9, "num1": [6, 8, 7, 7, 6, 1, 4]}, "uniqueid": "MTK1592:3ND9UOO81L9ALQBJRYE81ALX9Q3LW4", "dateTime": 1516042944922}, {"current_trial": 10, "trialdata": {"rt": -1, "trial_type": "single-stim", "stimulus": "<p id=\"stim\">10</p>", "internal_node_id": "0.0-10.0-0.0", "time_elapsed": 181474, "key_press": -1, "trial_index": 10}, "uniqueid": "MTK1592:3ND9UOO81L9ALQBJRYE81ALX9Q3LW4", "dateTime": 1516042947927}, {"current_trial": 11, "trialdata": {"rt": -1, "trial_type": "single-stim", "stimulus": "<p id=\"stim\">9</p>", "internal_node_id": "0.0-10.0-1.0", "time_elapsed": 182477, "key_press": -1, "trial_index": 11}, "uniqueid": "MTK1592:3ND9UOO81L9ALQBJRYE81ALX9Q3LW4", "dateTime": 1516042948930}, {"current_trial": 12, "trialdata": {"rt": -1, "trial_type": "single-stim", "stimulus": "<p id=\"stim\">8</p>", "internal_node_id": "0.0-10.0-2.0", "time_elapsed": 183482, "key_press": -1, "trial_index": 12}, "uniqueid": "MTK1592:3ND9UOO81L9ALQBJRYE81ALX9Q3LW4", "dateTime": 1516042949935}, {"current_trial": 13, "trialdata": {"rt": -1, "trial_type": "single-stim", "stimulus": "<p id=\"stim\">7</p>", "internal_node_id": "0.0-10.0-3.0", "time_elapsed": 184486, "key_press": -1, "trial_index": 13}, "uniqueid": "MTK1592:3ND9UOO81L9ALQBJRYE81ALX9Q3LW4", "dateTime": 1516042950939}, {"current_trial": 14, "trialdata": {"rt": -1, "trial_type": "single-stim", "stimulus": "<p id=\"stim\">6</p>", "internal_node_id": "0.0-10.0-4.0", "time_elapsed": 185490, "key_press": -1, "trial_index": 14}, "uniqueid": "MTK1592:3ND9UOO81L9ALQBJRYE81ALX9Q3LW4", "dateTime": 1516042951943}, {"current_trial": 15, "trialdata": {"rt": -1, "trial_type": "single-stim", "stimulus": "<p id=\"stim\">5</p>", "internal_node_id": "0.0-10.0-5.0", "time_elapsed": 186495, "key_press": -1, "trial_index": 15}, "uniqueid": "MTK1592:3ND9UOO81L9ALQBJRYE81ALX9Q3LW4", "dateTime": 1516042952948}, {"current_trial": 16, "trialdata": {"rt": -1, "trial_type": "single-stim", "stimulus": "<p id=\"stim\">4</p>", "internal_node_id": "0.0-10.0-6.0", "time_elapsed": 187498, "key_press": -1, "trial_index": 16}, "uniqueid": "MTK1592:3ND9UOO81L9ALQBJRYE81ALX9Q3LW4", "dateTime": 1516042953951}, {"current_trial": 17, "trialdata": {"rt": -1, "trial_type": "single-stim", "stimulus": "<p id=\"stim\">3</p>", "internal_node_id": "0.0-10.0-7.0", "time_elapsed": 188502, "key_press": -1, "trial_index": 17}, "uniqueid": "MTK1592:3ND9UOO81L9ALQBJRYE81ALX9Q3LW4", "dateTime": 1516042954955}, {"current_trial": 18, "trialdata": {"rt": -1, "trial_type": "single-stim", "stimulus": "<p id=\"stim\">2</p>", "internal_node_id": "0.0-10.0-8.0", "time_elapsed": 189506, "key_press": -1, "trial_index": 18}, "uniqueid": "MTK1592:3ND9UOO81L9ALQBJRYE81ALX9Q3LW4", "dateTime": 1516042955959}, {"current_trial": 19, "trialdata": {"rt": -1, "trial_type": "single-stim", "stimulus": "<p id=\"stim\">1</p>", "internal_node_id": "0.0-10.0-9.0", "time_elapsed": 190509, "key_press": -1, "trial_index": 19}, "uniqueid": "MTK1592:3ND9UOO81L9ALQBJRYE81ALX9Q3LW4", "dateTime": 1516042956962}, {"current_trial": 20, "trialdata": {"rt": -1, "trial_type": "single-stim", "stimulus": "<p id=\"stim\">+</p>", "internal_node_id": "0.0-11.0-0.0", "time_elapsed": 192013, "key_press": -1, "type": "FIXATION", "trial_index": 20}, "uniqueid": "MTK1592:3ND9UOO81L9ALQBJRYE81ALX9Q3LW4", "dateTime": 1516042958466}, {"current_trial": 21, "trialdata": {"rt": -1000, "trial_type": "single-audio", "word": "chapel", "stimulus": "/static/audio/wordpool/CHAPEL.wav", "conditions": [18, 1200, "a", 18000], "internal_node_id": "0.0-12.0", "trial": 0, "time_elapsed": 194173, "serialpos": 0, "key_press": -1, "wordID": 279, "type": "PRES_AUD", "trial_index": 21}, "uniqueid": "MTK1592:3ND9UOO81L9ALQBJRYE81ALX9Q3LW4", "dateTime": 1516042960626}, {"current_trial": 22, "trialdata": {"rt": -1000, "trial_type": "single-audio", "word": "cocoon", "stimulus": "/static/audio/wordpool/COCOON.wav", "conditions": [18, 1200, "a", 18000], "internal_node_id": "0.0-13.0", "trial": 0, "time_elapsed": 196355, "serialpos": 1, "key_press": -1, "wordID": 338, "type": "PRES_AUD", "trial_index": 22}, "uniqueid": "MTK1592:3ND9UOO81L9ALQBJRYE81ALX9Q3LW4", "dateTime": 1516042962808}, {"current_trial": 23, "trialdata": {"rt": -1000, "trial_type": "single-audio", "word": "truck", "stimulus": "/static/audio/wordpool/TRUCK.wav", "conditions": [18, 1200, "a", 18000], "internal_node_id": "0.0-14.0", "trial": 0, "time_elapsed": 198369, "serialpos": 2, "key_press": -1, "wordID": 1511, "type": "PRES_AUD", "trial_index": 23}, "uniqueid": "MTK1592:3ND9UOO81L9ALQBJRYE81ALX9Q3LW4", "dateTime": 1516042964822}, {"current_trial": 24, "trialdata": {"rt": -1000, "trial_type": "single-audio", "word": "quail", "stimulus": "/static/audio/wordpool/QUAIL.wav", "conditions": [18, 1200, "a", 18000], "internal_node_id": "0.0-15.0", "trial": 0, "time_elapsed": 200654, "serialpos": 3, "key_press": -1, "wordID": 1146, "type": "PRES_AUD", "trial_index": 24}, "uniqueid": "MTK1592:3ND9UOO81L9ALQBJRYE81ALX9Q3LW4", "dateTime": 1516042967107}, {"current_trial": 25, "trialdata": {"rt": -1000, "trial_type": "single-audio", "word": "spider", "stimulus": "/static/audio/wordpool/SPIDER.wav", "conditions": [18, 1200, "a", 18000], "internal_node_id": "0.0-16.0", "trial": 0, "time_elapsed": 203005, "serialpos": 4, "key_press": -1, "wordID": 1350, "type": "PRES_AUD", "trial_index": 25}, "uniqueid": "MTK1592:3ND9UOO81L9ALQBJRYE81ALX9Q3LW4", "dateTime": 1516042969458}, {"current_trial": 26, "trialdata": {"rt": -1000, "trial_type": "single-audio", "word": "crater", "stimulus": "/static/audio/wordpool/CRATER.wav", "conditions": [18, 1200, "a", 18000], "internal_node_id": "0.0-17.0", "trial": 0, "time_elapsed": 205089, "serialpos": 5, "key_press": -1, "wordID": 399, "type": "PRES_AUD", "trial_index": 26}, "uniqueid": "MTK1592:3ND9UOO81L9ALQBJRYE81ALX9Q3LW4", "dateTime": 1516042971543}, {"current_trial": 27, "trialdata": {"rt": -1000, "trial_type": "single-audio", "word": "spool", "stimulus": "/static/audio/wordpool/SPOOL.wav", "conditions": [18, 1200, "a", 18000], "internal_node_id": "0.0-18.0", "trial": 0, "time_elapsed": 207342, "serialpos": 6, "key_press": -1, "wordID": 1355, "type": "PRES_AUD", "trial_index": 27}, "uniqueid": "MTK1592:3ND9UOO81L9ALQBJRYE81ALX9Q3LW4", "dateTime": 1516042973795}, {"current_trial": 28, "trialdata": {"rt": -1000, "trial_type": "single-audio", "word": "hiker", "stimulus": "/static/audio/wordpool/HIKER.wav", "conditions": [18, 1200, "a", 18000], "internal_node_id": "0.0-19.0", "trial": 0, "time_elapsed": 209548, "serialpos": 7, "key_press": -1, "wordID": 707, "type": "PRES_AUD", "trial_index": 28}, "uniqueid": "MTK1592:3ND9UOO81L9ALQBJRYE81ALX9Q3LW4", "dateTime": 1516042976001}, {"current_trial": 29, "trialdata": {"rt": -1000, "trial_type": "single-audio", "word": "lamp", "stimulus": "/static/audio/wordpool/LAMP.wav", "conditions": [18, 1200, "a", 18000], "internal_node_id": "0.0-20.0", "trial": 0, "time_elapsed": 211909, "serialpos": 8, "key_press": -1, "wordID": 797, "type": "PRES_AUD", "trial_index": 29}, "uniqueid": "MTK1592:3ND9UOO81L9ALQBJRYE81ALX9Q3LW4", "dateTime": 1516042978362}, {"current_trial": 30, "trialdata": {"rt": -1000, "trial_type": "single-audio", "word": "creature", "stimulus": "/static/audio/wordpool/CREATURE.wav", "conditions": [18, 1200, "a", 18000], "internal_node_id": "0.0-21.0", "trial": 0, "time_elapsed": 214139, "serialpos": 9, "key_press": -1, "wordID": 402, "type": "PRES_AUD", "trial_index": 30}, "uniqueid": "MTK1592:3ND9UOO81L9ALQBJRYE81ALX9Q3LW4", "dateTime": 1516042980592}, {"current_trial": 31, "trialdata": {"rt": -1000, "trial_type": "single-audio", "word": "robber", "stimulus": "/static/audio/wordpool/ROBBER.wav", "conditions": [18, 1200, "a", 18000], "internal_node_id": "0.0-22.0", "trial": 0, "time_elapsed": 216182, "serialpos": 10, "key_press": -1, "wordID": 1196, "type": "PRES_AUD", "trial_index": 31}, "uniqueid": "MTK1592:3ND9UOO81L9ALQBJRYE81ALX9Q3LW4", "dateTime": 1516042982635}, {"current_trial": 32, "trialdata": {"rt": -1000, "trial_type": "single-audio", "word": "basement", "stimulus": "/static/audio/wordpool/BASEMENT.wav", "conditions": [18, 1200, "a", 18000], "internal_node_id": "0.0-23.0", "trial": 0, "time_elapsed": 218207, "serialpos": 11, "key_press": -1, "wordID": 93, "type": "PRES_AUD", "trial_index": 32}, "uniqueid": "MTK1592:3ND9UOO81L9ALQBJRYE81ALX9Q3LW4", "dateTime": 1516042984660}, {"current_trial": 33, "trialdata": {"rt": -1000, "trial_type": "single-audio", "word": "queen", "stimulus": "/static/audio/wordpool/QUEEN.wav", "conditions": [18, 1200, "a", 18000], "internal_node_id": "0.0-24.0", "trial": 0, "time_elapsed": 220390, "serialpos": 12, "key_press": -1, "wordID": 1148, "type": "PRES_AUD", "trial_index": 33}, "uniqueid": "MTK1592:3ND9UOO81L9ALQBJRYE81ALX9Q3LW4", "dateTime": 1516042986843}, {"current_trial": 34, "trialdata": {"rt": -1000, "trial_type": "single-audio", "word": "gravel", "stimulus": "/static/audio/wordpool/GRAVEL.wav", "conditions": [18, 1200, "a", 18000], "internal_node_id": "0.0-25.0", "trial": 0, "time_elapsed": 222427, "serialpos": 13, "key_press": -1, "wordID": 658, "type": "PRES_AUD", "trial_index": 34}, "uniqueid": "MTK1592:3ND9UOO81L9ALQBJRYE81ALX9Q3LW4", "dateTime": 1516042988880}, {"current_trial": 35, "trialdata": {"rt": -1000, "trial_type": "single-audio", "word": "chauffeur", "stimulus": "/static/audio/wordpool/CHAUFFEUR.wav", "conditions": [18, 1200, "a", 18000], "internal_node_id": "0.0-26.0", "trial": 0, "time_elapsed": 224648, "serialpos": 14, "key_press": -1, "wordID": 282, "type": "PRES_AUD", "trial_index": 35}, "uniqueid": "MTK1592:3ND9UOO81L9ALQBJRYE81ALX9Q3LW4", "dateTime": 1516042991102}, {"current_trial": 36, "trialdata": {"rt": -1000, "trial_type": "single-audio", "word": "braces", "stimulus": "/static/audio/wordpool/BRACES.wav", "conditions": [18, 1200, "a", 18000], "internal_node_id": "0.0-27.0", "trial": 0, "time_elapsed": 226896, "serialpos": 15, "key_press": -1, "wordID": 163, "type": "PRES_AUD", "trial_index": 36}, "uniqueid": "MTK1592:3ND9UOO81L9ALQBJRYE81ALX9Q3LW4", "dateTime": 1516042993349}, {"current_trial": 37, "trialdata": {"rt": -1000, "trial_type": "single-audio", "word": "country", "stimulus": "/static/audio/wordpool/COUNTRY.wav", "conditions": [18, 1200, "a", 18000], "internal_node_id": "0.0-28.0", "trial": 0, "time_elapsed": 228922, "serialpos": 16, "key_press": -1, "wordID": 387, "type": "PRES_AUD", "trial_index": 37}, "uniqueid": "MTK1592:3ND9UOO81L9ALQBJRYE81ALX9Q3LW4", "dateTime": 1516042995375}, {"current_trial": 38, "trialdata": {"rt": -1000, "trial_type": "single-audio", "word": "twig", "stimulus": "/static/audio/wordpool/TWIG.wav", "conditions": [18, 1200, "a", 18000], "internal_node_id": "0.0-29.0", "trial": 0, "time_elapsed": 231208, "serialpos": 17, "key_press": -1, "wordID": 1526, "type": "PRES_AUD", "trial_index": 38}, "uniqueid": "MTK1592:3ND9UOO81L9ALQBJRYE81ALX9Q3LW4", "dateTime": 1516042997662}, {"current_trial": 39, "trialdata": {"rt": -1, "trial_type": "single-stim", "stimulus": "", "internal_node_id": "0.0-30.0-0.0", "time_elapsed": 232503, "key_press": -1, "type": "PRE_RECALL_DELAY", "trial_index": 39}, "uniqueid": "MTK1592:3ND9UOO81L9ALQBJRYE81ALX9Q3LW4", "dateTime": 1516042998956}, {"current_trial": 40, "trialdata": {"rt": -1000, "trial_type": "single-audio", "stimulus": "/static/audio/400Hz.wav", "internal_node_id": "0.0-31.0", "time_elapsed": 233005, "key_press": -1, "type": "PRE_RECALL_ALERT", "trial_index": 40}, "uniqueid": "MTK1592:3ND9UOO81L9ALQBJRYE81ALX9Q3LW4", "dateTime": 1516042999458}, {"current_trial": 41, "trialdata": {"rt": [2789, 4837, 8814, 10206, 12318, 14677, 19709, 25647, 32319, 53639], "recwords": ["chaple", "cacoon", "robber", "braces", "twig", "country", "gravel", "paper", "truck", "creature"], "key_times": [1670, 1789, 1933, 2109, 2333, 2533, 2789, 3093, 3533, 3831, 4102, 4293, 4477, 4837, 7862, 7997, 8254, 8406, 8534, 8629, 8814, 9198, 9365, 9541, 9742, 9886, 10021, 10206, 11478, 11677, 11877, 12149, 12318, 13502, 13653, 13822, 13933, 14061, 14221, 14486, 14677, 17766, 17893, 18149, 18365, 18542, 19454, 19709, 24942, 25093, 25237, 25367, 25469, 25647, 30991, 31119, 31366, 31502, 32055, 32319, 52168, 52432, 52567, 52783, 53031, 53255, 53358, 53487, 53639], "trial_type": "free-recall", "conditions": [18, 1200, "a", 18000], "internal_node_id": "0.0-32.0-0.0", "key_presses": [67, 72, 65, 80, 76, 69, 13, 67, 65, 67, 79, 79, 78, 13, 82, 79, 66, 66, 69, 82, 13, 66, 82, 65, 67, 69, 83, 13, 84, 87, 73, 71, 13, 67, 79, 85, 78, 84, 82, 89, 13, 71, 82, 65, 86, 69, 76, 13, 80, 65, 80, 69, 82, 13, 84, 82, 85, 67, 75, 13, 67, 82, 69, 65, 84, 85, 82, 69, 13], "trial": 0, "time_elapsed": 293012, "type": "FREE_RECALL", "trial_index": 41}, "uniqueid": "MTK1592:3ND9UOO81L9ALQBJRYE81ALX9Q3LW4", "dateTime": 1516043059467}, {"current_trial": 42, "trialdata": {"rt": 1706, "trial_type": "text", "internal_node_id": "0.0-33.0", "time_elapsed": 296725, "key_press": 32, "type": "INSTRUCTIONS", "trial_index": 42}, "uniqueid": "MTK1592:3ND9UOO81L9ALQBJRYE81ALX9Q3LW4", "dateTime": 1516043063179}, {"current_trial": 43, "trialdata": {"rt": [2228, 5699, 9484, 11876, 14164, 15644], "trial_type": "math-distractor", "key_times": [1684, 1884, 2228, 4949, 5132, 5699, 9141, 9484, 11533, 11876, 13732, 13931, 14164, 15420, 15644], "responses": ["10", "18", "8", "7", "13", "3"], "num2": [2, 1, 5, 2, 3, 1, 7], "num3": [3, 8, 1, 2, 9, 1, 2], "conditions": [18, 1200, "a", 18000], "internal_node_id": "0.0-34.0", "key_presses": [49, 48, 13, 49, 56, 13, 56, 13, 55, 13, 49, 51, 13, 51, 13], "trial": 1, "time_elapsed": 316733, "type": "DISTRACTOR", "trial_index": 43, "num1": [5, 9, 2, 3, 1, 1, 4]}, "uniqueid": "MTK1592:3ND9UOO81L9ALQBJRYE81ALX9Q3LW4", "dateTime": 1516043083186}, {"current_trial": 44, "trialdata": {"rt": -1, "trial_type": "single-stim", "stimulus": "<p id=\"stim\">10</p>", "internal_node_id": "0.0-35.0-0.0", "time_elapsed": 319739, "key_press": -1, "trial_index": 44}, "uniqueid": "MTK1592:3ND9UOO81L9ALQBJRYE81ALX9Q3LW4", "dateTime": 1516043086193}, {"current_trial": 45, "trialdata": {"rt": -1, "trial_type": "single-stim", "stimulus": "<p id=\"stim\">9</p>", "internal_node_id": "0.0-35.0-1.0", "time_elapsed": 320745, "key_press": -1, "trial_index": 45}, "uniqueid": "MTK1592:3ND9UOO81L9ALQBJRYE81ALX9Q3LW4", "dateTime": 1516043087198}, {"current_trial": 46, "trialdata": {"rt": -1, "trial_type": "single-stim", "stimulus": "<p id=\"stim\">8</p>", "internal_node_id": "0.0-35.0-2.0", "time_elapsed": 321748, "key_press": -1, "trial_index": 46}, "uniqueid": "MTK1592:3ND9UOO81L9ALQBJRYE81ALX9Q3LW4", "dateTime": 1516043088201}, {"current_trial": 47, "trialdata": {"rt": -1, "trial_type": "single-stim", "stimulus": "<p id=\"stim\">7</p>", "internal_node_id": "0.0-35.0-3.0", "time_elapsed": 322752, "key_press": -1, "trial_index": 47}, "uniqueid": "MTK1592:3ND9UOO81L9ALQBJRYE81ALX9Q3LW4", "dateTime": 1516043089205}, {"current_trial": 48, "trialdata": {"rt": -1, "trial_type": "single-stim", "stimulus": "<p id=\"stim\">6</p>", "internal_node_id": "0.0-35.0-4.0", "time_elapsed": 323756, "key_press": -1, "trial_index": 48}, "uniqueid": "MTK1592:3ND9UOO81L9ALQBJRYE81ALX9Q3LW4", "dateTime": 1516043090209}, {"current_trial": 49, "trialdata": {"rt": -1, "trial_type": "single-stim", "stimulus": "<p id=\"stim\">5</p>", "internal_node_id": "0.0-35.0-5.0", "time_elapsed": 324760, "key_press": -1, "trial_index": 49}, "uniqueid": "MTK1592:3ND9UOO81L9ALQBJRYE81ALX9Q3LW4", "dateTime": 1516043091213}, {"current_trial": 50, "trialdata": {"rt": -1, "trial_type": "single-stim", "stimulus": "<p id=\"stim\">4</p>", "internal_node_id": "0.0-35.0-6.0", "time_elapsed": 325764, "key_press": -1, "trial_index": 50}, "uniqueid": "MTK1592:3ND9UOO81L9ALQBJRYE81ALX9Q3LW4", "dateTime": 1516043092217}, {"current_trial": 51, "trialdata": {"rt": -1, "trial_type": "single-stim", "stimulus": "<p id=\"stim\">3</p>", "internal_node_id": "0.0-35.0-7.0", "time_elapsed": 326768, "key_press": -1, "trial_index": 51}, "uniqueid": "MTK1592:3ND9UOO81L9ALQBJRYE81ALX9Q3LW4", "dateTime": 1516043093222}, {"current_trial": 52, "trialdata": {"rt": -1, "trial_type": "single-stim", "stimulus": "<p id=\"stim\">2</p>", "internal_node_id": "0.0-35.0-8.0", "time_elapsed": 327772, "key_press": -1, "trial_index": 52}, "uniqueid": "MTK1592:3ND9UOO81L9ALQBJRYE81ALX9Q3LW4", "dateTime": 1516043094225}, {"current_trial": 53, "trialdata": {"rt": -1, "trial_type": "single-stim", "stimulus": "<p id=\"stim\">1</p>", "internal_node_id": "0.0-35.0-9.0", "time_elapsed": 328776, "key_press": -1, "trial_index": 53}, "uniqueid": "MTK1592:3ND9UOO81L9ALQBJRYE81ALX9Q3LW4", "dateTime": 1516043095230}, {"current_trial": 54, "trialdata": {"rt": -1, "trial_type": "single-stim", "stimulus": "<p id=\"stim\">+</p>", "internal_node_id": "0.0-36.0-0.0", "time_elapsed": 330280, "key_press": -1, "type": "FIXATION", "trial_index": 54}, "uniqueid": "MTK1592:3ND9UOO81L9ALQBJRYE81ALX9Q3LW4", "dateTime": 1516043096733}, {"current_trial": 55, "trialdata": {"rt": -1000, "trial_type": "single-audio", "word": "daughter", "stimulus": "/static/audio/wordpool/DAUGHTER.wav", "conditions": [18, 1200, "a", 18000], "internal_node_id": "0.0-37.0", "trial": 1, "time_elapsed": 332340, "serialpos": 0, "key_press": -1, "wordID": 441, "type": "PRES_AUD", "trial_index": 55}, "uniqueid": "MTK1592:3ND9UOO81L9ALQBJRYE81ALX9Q3LW4", "dateTime": 1516043098793}, {"current_trial": 56, "trialdata": {"rt": -1000, "trial_type": "single-audio", "word": "paper", "stimulus": "/static/audio/wordpool/PAPER.wav", "conditions": [18, 1200, "a", 18000], "internal_node_id": "0.0-38.0", "trial": 1, "time_elapsed": 334714, "serialpos": 1, "key_press": -1, "wordID": 1010, "type": "PRES_AUD", "trial_index": 56}, "uniqueid": "MTK1592:3ND9UOO81L9ALQBJRYE81ALX9Q3LW4", "dateTime": 1516043101167}, {"current_trial": 57, "trialdata": {"rt": -1000, "trial_type": "single-audio", "word": "teacher", "stimulus": "/static/audio/wordpool/TEACHER.wav", "conditions": [18, 1200, "a", 18000], "internal_node_id": "0.0-39.0", "trial": 1, "time_elapsed": 336961, "serialpos": 2, "key_press": -1, "wordID": 1439, "type": "PRES_AUD", "trial_index": 57}, "uniqueid": "MTK1592:3ND9UOO81L9ALQBJRYE81ALX9Q3LW4", "dateTime": 1516043103414}, {"current_trial": 58, "trialdata": {"rt": -1000, "trial_type": "single-audio", "word": "sword", "stimulus": "/static/audio/wordpool/SWORD.wav", "conditions": [18, 1200, "a", 18000], "internal_node_id": "0.0-40.0", "trial": 1, "time_elapsed": 339038, "serialpos": 3, "key_press": -1, "wordID": 1422, "type": "PRES_AUD", "trial_index": 58}, "uniqueid": "MTK1592:3ND9UOO81L9ALQBJRYE81ALX9Q3LW4", "dateTime": 1516043105491}, {"current_trial": 59, "trialdata": {"rt": -1000, "trial_type": "single-audio", "word": "blueprint", "stimulus": "/static/audio/wordpool/BLUEPRINT.wav", "conditions": [18, 1200, "a", 18000], "internal_node_id": "0.0-41.0", "trial": 1, "time_elapsed": 341115, "serialpos": 4, "key_press": -1, "wordID": 141, "type": "PRES_AUD", "trial_index": 59}, "uniqueid": "MTK1592:3ND9UOO81L9ALQBJRYE81ALX9Q3LW4", "dateTime": 1516043107568}, {"current_trial": 60, "trialdata": {"rt": -1000, "trial_type": "single-audio", "word": "atlas", "stimulus": "/static/audio/wordpool/ATLAS.wav", "conditions": [18, 1200, "a", 18000], "internal_node_id": "0.0-42.0", "trial": 1, "time_elapsed": 343298, "serialpos": 5, "key_press": -1, "wordID": 52, "type": "PRES_AUD", "trial_index": 60}, "uniqueid": "MTK1592:3ND9UOO81L9ALQBJRYE81ALX9Q3LW4", "dateTime": 1516043109751}, {"current_trial": 61, "trialdata": {"rt": -1000, "trial_type": "single-audio", "word": "plaster", "stimulus": "/static/audio/wordpool/PLASTER.wav", "conditions": [18, 1200, "a", 18000], "internal_node_id": "0.0-43.0", "trial": 1, "time_elapsed": 345643, "serialpos": 6, "key_press": -1, "wordID": 1084, "type": "PRES_AUD", "trial_index": 61}, "uniqueid": "MTK1592:3ND9UOO81L9ALQBJRYE81ALX9Q3LW4", "dateTime": 1516043112096}, {"current_trial": 62, "trialdata": {"rt": -1000, "trial_type": "single-audio", "word": "notebook", "stimulus": "/static/audio/wordpool/NOTEBOOK.wav", "conditions": [18, 1200, "a", 18000], "internal_node_id": "0.0-44.0", "trial": 1, "time_elapsed": 347773, "serialpos": 7, "key_press": -1, "wordID": 958, "type": "PRES_AUD", "trial_index": 62}, "uniqueid": "MTK1592:3ND9UOO81L9ALQBJRYE81ALX9Q3LW4", "dateTime": 1516043114226}, {"current_trial": 63, "trialdata": {"rt": -1000, "trial_type": "single-audio", "word": "lover", "stimulus": "/static/audio/wordpool/LOVER.wav", "conditions": [18, 1200, "a", 18000], "internal_node_id": "0.0-45.0", "trial": 1, "time_elapsed": 349883, "serialpos": 8, "key_press": -1, "wordID": 845, "type": "PRES_AUD", "trial_index": 63}, "uniqueid": "MTK1592:3ND9UOO81L9ALQBJRYE81ALX9Q3LW4", "dateTime": 1516043116336}, {"current_trial": 64, "trialdata": {"rt": -1000, "trial_type": "single-audio", "word": "bacon", "stimulus": "/static/audio/wordpool/BACON.wav", "conditions": [18, 1200, "a", 18000], "internal_node_id": "0.0-46.0", "trial": 1, "time_elapsed": 351952, "serialpos": 9, "key_press": -1, "wordID": 66, "type": "PRES_AUD", "trial_index": 64}, "uniqueid": "MTK1592:3ND9UOO81L9ALQBJRYE81ALX9Q3LW4", "dateTime": 1516043118405}, {"current_trial": 65, "trialdata": {"rt": -1000, "trial_type": "single-audio", "word": "mailbox", "stimulus": "/static/audio/wordpool/MAILBOX.wav", "conditions": [18, 1200, "a", 18000], "internal_node_id": "0.0-47.0", "trial": 1, "time_elapsed": 354163, "serialpos": 10, "key_press": -1, "wordID": 856, "type": "PRES_AUD", "trial_index": 65}, "uniqueid": "MTK1592:3ND9UOO81L9ALQBJRYE81ALX9Q3LW4", "dateTime": 1516043120616}, {"current_trial": 66, "trialdata": {"rt": -1000, "trial_type": "single-audio", "word": "river", "stimulus": "/static/audio/wordpool/RIVER.wav", "conditions": [18, 1200, "a", 18000], "internal_node_id": "0.0-48.0", "trial": 1, "time_elapsed": 356415, "serialpos": 11, "key_press": -1, "wordID": 1193, "type": "PRES_AUD", "trial_index": 66}, "uniqueid": "MTK1592:3ND9UOO81L9ALQBJRYE81ALX9Q3LW4", "dateTime": 1516043122868}, {"current_trial": 67, "trialdata": {"rt": -1000, "trial_type": "single-audio", "word": "jury", "stimulus": "/static/audio/wordpool/JURY.wav", "conditions": [18, 1200, "a", 18000], "internal_node_id": "0.0-49.0", "trial": 1, "time_elapsed": 358540, "serialpos": 12, "key_press": -1, "wordID": 765, "type": "PRES_AUD", "trial_index": 67}, "uniqueid": "MTK1592:3ND9UOO81L9ALQBJRYE81ALX9Q3LW4", "dateTime": 1516043124993}, {"current_trial": 68, "trialdata": {"rt": -1000, "trial_type": "single-audio", "word": "stove", "stimulus": "/static/audio/wordpool/STOVE.wav", "conditions": [18, 1200, "a", 18000], "internal_node_id": "0.0-50.0", "trial": 1, "time_elapsed": 360713, "serialpos": 13, "key_press": -1, "wordID": 1387, "type": "PRES_AUD", "trial_index": 68}, "uniqueid": "MTK1592:3ND9UOO81L9ALQBJRYE81ALX9Q3LW4", "dateTime": 1516043127167}, {"current_trial": 69, "trialdata": {"rt": -1000, "trial_type": "single-audio", "word": "trout", "stimulus": "/static/audio/wordpool/TROUT.wav", "conditions": [18, 1200, "a", 18000], "internal_node_id": "0.0-51.0", "trial": 1, "time_elapsed": 362879, "serialpos": 14, "key_press": -1, "wordID": 1510, "type": "PRES_AUD", "trial_index": 69}, "uniqueid": "MTK1592:3ND9UOO81L9ALQBJRYE81ALX9Q3LW4", "dateTime": 1516043129332}, {"current_trial": 70, "trialdata": {"rt": -1000, "trial_type": "single-audio", "word": "apple", "stimulus": "/static/audio/wordpool/APPLE.wav", "conditions": [18, 1200, "a", 18000], "internal_node_id": "0.0-52.0", "trial": 1, "time_elapsed": 365194, "serialpos": 15, "key_press": -1, "wordID": 32, "type": "PRES_AUD", "trial_index": 70}, "uniqueid": "MTK1592:3ND9UOO81L9ALQBJRYE81ALX9Q3LW4", "dateTime": 1516043131647}, {"current_trial": 71, "trialdata": {"rt": -1000, "trial_type": "single-audio", "word": "fungus", "stimulus": "/static/audio/wordpool/FUNGUS.wav", "conditions": [18, 1200, "a", 18000], "internal_node_id": "0.0-53.0", "trial": 1, "time_elapsed": 367344, "serialpos": 16, "key_press": -1, "wordID": 613, "type": "PRES_AUD", "trial_index": 71}, "uniqueid": "MTK1592:3ND9UOO81L9ALQBJRYE81ALX9Q3LW4", "dateTime": 1516043133797}, {"current_trial": 72, "trialdata": {"rt": -1000, "trial_type": "single-audio", "word": "xerox", "stimulus": "/static/audio/wordpool/XEROX.wav", "conditions": [18, 1200, "a", 18000], "internal_node_id": "0.0-54.0", "trial": 1, "time_elapsed": 369568, "serialpos": 17, "key_press": -1, "wordID": 1627, "type": "PRES_AUD", "trial_index": 72}, "uniqueid": "MTK1592:3ND9UOO81L9ALQBJRYE81ALX9Q3LW4", "dateTime": 1516043136021}, {"current_trial": 73, "trialdata": {"rt": -1, "trial_type": "single-stim", "stimulus": "", "internal_node_id": "0.0-55.0-0.0", "time_elapsed": 370919, "key_press": -1, "type": "PRE_RECALL_DELAY", "trial_index": 73}, "uniqueid": "MTK1592:3ND9UOO81L9ALQBJRYE81ALX9Q3LW4", "dateTime": 1516043137373}, {"current_trial": 74, "trialdata": {"rt": -1000, "trial_type": "single-audio", "stimulus": "/static/audio/400Hz.wav", "internal_node_id": "0.0-56.0", "time_elapsed": 371420, "key_press": -1, "type": "PRE_RECALL_ALERT", "trial_index": 74}, "uniqueid": "MTK1592:3ND9UOO81L9ALQBJRYE81ALX9Q3LW4", "dateTime": 1516043137874}, {"current_trial": 75, "trialdata": {"rt": [2266, 3714, 5945, 8113, 10241, 11433, 12801, 15177, 24490, 38011], "recwords": ["paper", "teacher", "daughter", "atlas", "xerox", "bacon", "fungus", "river", "notebook", "runner"], "key_times": [1082, 1145, 1337, 1489, 1577, 2266, 2578, 2753, 3025, 3137, 3338, 3402, 3505, 3714, 4593, 4785, 4970, 5178, 5290, 5441, 5609, 5721, 5945, 6897, 7105, 7233, 7418, 7906, 8113, 9018, 9265, 9377, 9642, 10017, 10241, 10633, 10725, 10977, 11122, 11273, 11433, 11665, 11850, 11993, 12169, 12418, 12577, 12801, 14346, 14466, 14681, 14905, 15025, 15177, 22843, 23001, 23122, 23322, 23698, 23938, 24065, 24282, 24490, 37101, 37323, 37507, 37668, 37771, 37867, 38011], "trial_type": "free-recall", "conditions": [18, 1200, "a", 18000], "internal_node_id": "0.0-57.0-0.0", "key_presses": [80, 65, 80, 69, 82, 13, 84, 69, 65, 67, 72, 69, 82, 13, 68, 65, 85, 71, 72, 84, 69, 82, 13, 65, 84, 76, 65, 83, 13, 88, 69, 82, 79, 88, 13, 66, 65, 67, 79, 78, 13, 70, 85, 78, 71, 85, 83, 13, 82, 73, 86, 69, 82, 13, 78, 79, 84, 69, 66, 79, 79, 75, 13, 82, 85, 78, 78, 69, 82, 13], "trial": 1, "time_elapsed": 431429, "type": "FREE_RECALL", "trial_index": 75}, "uniqueid": "MTK1592:3ND9UOO81L9ALQBJRYE81ALX9Q3LW4", "dateTime": 1516043197884}, {"current_trial": 76, "trialdata": {"rt": 67582, "trial_type": "text", "internal_node_id": "0.0-58.0", "time_elapsed": 501019, "key_press": 32, "type": "INSTRUCTIONS", "trial_index": 76}, "uniqueid": "MTK1592:3ND9UOO81L9ALQBJRYE81ALX9Q3LW4", "dateTime": 1516043267472}, {"current_trial": 77, "trialdata": {"rt": [3929, 6712, 9688], "trial_type": "math-distractor", "key_times": [3049, 3281, 3929, 6337, 6544, 6712, 9313, 9488, 9688, 11883], "responses": ["17", "14", "13"], "num2": [4, 3, 2, 2], "num3": [8, 5, 5, 7], "conditions": [12, 1600, "a", 12000], "internal_node_id": "0.0-59.0", "key_presses": [49, 55, 13, 49, 52, 13, 49, 51, 13, 49], "trial": 2, "time_elapsed": 514028, "type": "DISTRACTOR", "trial_index": 77, "num1": [5, 6, 6, 4]}, "uniqueid": "MTK1592:3ND9UOO81L9ALQBJRYE81ALX9Q3LW4", "dateTime": 1516043280481}, {"current_trial": 78, "trialdata": {"rt": -1, "trial_type": "single-stim", "stimulus": "<p id=\"stim\">10</p>", "internal_node_id": "0.0-60.0-0.0", "time_elapsed": 517035, "key_press": -1, "trial_index": 78}, "uniqueid": "MTK1592:3ND9UOO81L9ALQBJRYE81ALX9Q3LW4", "dateTime": 1516043283488}, {"current_trial": 79, "trialdata": {"rt": -1, "trial_type": "single-stim", "stimulus": "<p id=\"stim\">9</p>", "internal_node_id": "0.0-60.0-1.0", "time_elapsed": 518039, "key_press": -1, "trial_index": 79}, "uniqueid": "MTK1592:3ND9UOO81L9ALQBJRYE81ALX9Q3LW4", "dateTime": 1516043284492}, {"current_trial": 80, "trialdata": {"rt": -1, "trial_type": "single-stim", "stimulus": "<p id=\"stim\">8</p>", "internal_node_id": "0.0-60.0-2.0", "time_elapsed": 519043, "key_press": -1, "trial_index": 80}, "uniqueid": "MTK1592:3ND9UOO81L9ALQBJRYE81ALX9Q3LW4", "dateTime": 1516043285496}, {"current_trial": 81, "trialdata": {"rt": -1, "trial_type": "single-stim", "stimulus": "<p id=\"stim\">7</p>", "internal_node_id": "0.0-60.0-3.0", "time_elapsed": 520047, "key_press": -1, "trial_index": 81}, "uniqueid": "MTK1592:3ND9UOO81L9ALQBJRYE81ALX9Q3LW4", "dateTime": 1516043286500}, {"current_trial": 82, "trialdata": {"rt": -1, "trial_type": "single-stim", "stimulus": "<p id=\"stim\">6</p>", "internal_node_id": "0.0-60.0-4.0", "time_elapsed": 521051, "key_press": -1, "trial_index": 82}, "uniqueid": "MTK1592:3ND9UOO81L9ALQBJRYE81ALX9Q3LW4", "dateTime": 1516043287504}, {"current_trial": 83, "trialdata": {"rt": -1, "trial_type": "single-stim", "stimulus": "<p id=\"stim\">5</p>", "internal_node_id": "0.0-60.0-5.0", "time_elapsed": 522055, "key_press": -1, "trial_index": 83}, "uniqueid": "MTK1592:3ND9UOO81L9ALQBJRYE81ALX9Q3LW4", "dateTime": 1516043288508}, {"current_trial": 84, "trialdata": {"rt": -1, "trial_type": "single-stim", "stimulus": "<p id=\"stim\">4</p>", "internal_node_id": "0.0-60.0-6.0", "time_elapsed": 523060, "key_press": -1, "trial_index": 84}, "uniqueid": "MTK1592:3ND9UOO81L9ALQBJRYE81ALX9Q3LW4", "dateTime": 1516043289513}, {"current_trial": 85, "trialdata": {"rt": -1, "trial_type": "single-stim", "stimulus": "<p id=\"stim\">3</p>", "internal_node_id": "0.0-60.0-7.0", "time_elapsed": 524063, "key_press": -1, "trial_index": 85}, "uniqueid": "MTK1592:3ND9UOO81L9ALQBJRYE81ALX9Q3LW4", "dateTime": 1516043290516}, {"current_trial": 86, "trialdata": {"rt": -1, "trial_type": "single-stim", "stimulus": "<p id=\"stim\">2</p>", "internal_node_id": "0.0-60.0-8.0", "time_elapsed": 525068, "key_press": -1, "trial_index": 86}, "uniqueid": "MTK1592:3ND9UOO81L9ALQBJRYE81ALX9Q3LW4", "dateTime": 1516043291521}, {"current_trial": 87, "trialdata": {"rt": -1, "trial_type": "single-stim", "stimulus": "<p id=\"stim\">1</p>", "internal_node_id": "0.0-60.0-9.0", "time_elapsed": 526072, "key_press": -1, "trial_index": 87}, "uniqueid": "MTK1592:3ND9UOO81L9ALQBJRYE81ALX9Q3LW4", "dateTime": 1516043292525}, {"current_trial": 88, "trialdata": {"rt": -1, "trial_type": "single-stim", "stimulus": "<p id=\"stim\">+</p>", "internal_node_id": "0.0-61.0-0.0", "time_elapsed": 527575, "key_press": -1, "type": "FIXATION", "trial_index": 88}, "uniqueid": "MTK1592:3ND9UOO81L9ALQBJRYE81ALX9Q3LW4", "dateTime": 1516043294028}, {"current_trial": 89, "trialdata": {"rt": -1000, "trial_type": "single-audio", "word": "brick", "stimulus": "/static/audio/wordpool/BRICK.wav", "conditions": [12, 1600, "a", 12000], "internal_node_id": "0.0-62.0", "trial": 2, "time_elapsed": 530226, "serialpos": 0, "key_press": -1, "wordID": 171, "type": "PRES_AUD", "trial_index": 89}, "uniqueid": "MTK1592:3ND9UOO81L9ALQBJRYE81ALX9Q3LW4", "dateTime": 1516043296679}, {"current_trial": 90, "trialdata": {"rt": -1000, "trial_type": "single-audio", "word": "virus", "stimulus": "/static/audio/wordpool/VIRUS.wav", "conditions": [12, 1600, "a", 12000], "internal_node_id": "0.0-63.0", "trial": 2, "time_elapsed": 532934, "serialpos": 1, "key_press": -1, "wordID": 1571, "type": "PRES_AUD", "trial_index": 90}, "uniqueid": "MTK1592:3ND9UOO81L9ALQBJRYE81ALX9Q3LW4", "dateTime": 1516043299387}, {"current_trial": 91, "trialdata": {"rt": -1000, "trial_type": "single-audio", "word": "bug", "stimulus": "/static/audio/wordpool/BUG.wav", "conditions": [12, 1600, "a", 12000], "internal_node_id": "0.0-64.0", "trial": 2, "time_elapsed": 535566, "serialpos": 2, "key_press": -1, "wordID": 186, "type": "PRES_AUD", "trial_index": 91}, "uniqueid": "MTK1592:3ND9UOO81L9ALQBJRYE81ALX9Q3LW4", "dateTime": 1516043302019}, {"current_trial": 92, "trialdata": {"rt": -1000, "trial_type": "single-audio", "word": "temple", "stimulus": "/static/audio/wordpool/TEMPLE.wav", "conditions": [12, 1600, "a", 12000], "internal_node_id": "0.0-65.0", "trial": 2, "time_elapsed": 538344, "serialpos": 3, "key_press": -1, "wordID": 1447, "type": "PRES_AUD", "trial_index": 92}, "uniqueid": "MTK1592:3ND9UOO81L9ALQBJRYE81ALX9Q3LW4", "dateTime": 1516043304797}, {"current_trial": 93, "trialdata": {"rt": -1000, "trial_type": "single-audio", "word": "crown", "stimulus": "/static/audio/wordpool/CROWN.wav", "conditions": [12, 1600, "a", 12000], "internal_node_id": "0.0-66.0", "trial": 2, "time_elapsed": 541074, "serialpos": 4, "key_press": -1, "wordID": 414, "type": "PRES_AUD", "trial_index": 93}, "uniqueid": "MTK1592:3ND9UOO81L9ALQBJRYE81ALX9Q3LW4", "dateTime": 1516043307527}, {"current_trial": 94, "trialdata": {"rt": -1000, "trial_type": "single-audio", "word": "baby", "stimulus": "/static/audio/wordpool/BABY.wav", "conditions": [12, 1600, "a", 12000], "internal_node_id": "0.0-67.0", "trial": 2, "time_elapsed": 543535, "serialpos": 5, "key_press": -1, "wordID": 63, "type": "PRES_AUD", "trial_index": 94}, "uniqueid": "MTK1592:3ND9UOO81L9ALQBJRYE81ALX9Q3LW4", "dateTime": 1516043309988}, {"current_trial": 95, "trialdata": {"rt": -1000, "trial_type": "single-audio", "word": "blender", "stimulus": "/static/audio/wordpool/BLENDER.wav", "conditions": [12, 1600, "a", 12000], "internal_node_id": "0.0-68.0", "trial": 2, "time_elapsed": 545992, "serialpos": 6, "key_press": -1, "wordID": 135, "type": "PRES_AUD", "trial_index": 95}, "uniqueid": "MTK1592:3ND9UOO81L9ALQBJRYE81ALX9Q3LW4", "dateTime": 1516043312445}, {"current_trial": 96, "trialdata": {"rt": -1000, "trial_type": "single-audio", "word": "body", "stimulus": "/static/audio/wordpool/BODY.wav", "conditions": [12, 1600, "a", 12000], "internal_node_id": "0.0-69.0", "trial": 2, "time_elapsed": 548782, "serialpos": 7, "key_press": -1, "wordID": 144, "type": "PRES_AUD", "trial_index": 96}, "uniqueid": "MTK1592:3ND9UOO81L9ALQBJRYE81ALX9Q3LW4", "dateTime": 1516043315235}, {"current_trial": 97, "trialdata": {"rt": -1000, "trial_type": "single-audio", "word": "suitcase", "stimulus": "/static/audio/wordpool/SUITCASE.wav", "conditions": [12, 1600, "a", 12000], "internal_node_id": "0.0-70.0", "trial": 2, "time_elapsed": 551568, "serialpos": 8, "key_press": -1, "wordID": 1402, "type": "PRES_AUD", "trial_index": 97}, "uniqueid": "MTK1592:3ND9UOO81L9ALQBJRYE81ALX9Q3LW4", "dateTime": 1516043318021}, {"current_trial": 98, "trialdata": {"rt": -1000, "trial_type": "single-audio", "word": "casket", "stimulus": "/static/audio/wordpool/CASKET.wav", "conditions": [12, 1600, "a", 12000], "internal_node_id": "0.0-71.0", "trial": 2, "time_elapsed": 554017, "serialpos": 9, "key_press": -1, "wordID": 254, "type": "PRES_AUD", "trial_index": 98}, "uniqueid": "MTK1592:3ND9UOO81L9ALQBJRYE81ALX9Q3LW4", "dateTime": 1516043320470}, {"current_trial": 99, "trialdata": {"rt": -1000, "trial_type": "single-audio", "word": "world", "stimulus": "/static/audio/wordpool/WORLD.wav", "conditions": [12, 1600, "a", 12000], "internal_node_id": "0.0-72.0", "trial": 2, "time_elapsed": 556543, "serialpos": 10, "key_press": -1, "wordID": 1621, "type": "PRES_AUD", "trial_index": 99}, "uniqueid": "MTK1592:3ND9UOO81L9ALQBJRYE81ALX9Q3LW4", "dateTime": 1516043322996}, {"current_trial": 100, "trialdata": {"rt": -1000, "trial_type": "single-audio", "word": "stone", "stimulus": "/static/audio/wordpool/STONE.wav", "conditions": [12, 1600, "a", 12000], "internal_node_id": "0.0-73.0", "trial": 2, "time_elapsed": 559339, "serialpos": 11, "key_press": -1, "wordID": 1384, "type": "PRES_AUD", "trial_index": 100}, "uniqueid": "MTK1592:3ND9UOO81L9ALQBJRYE81ALX9Q3LW4", "dateTime": 1516043325792}, {"current_trial": 101, "trialdata": {"rt": -1, "trial_type": "single-stim", "stimulus": "", "internal_node_id": "0.0-74.0-0.0", "time_elapsed": 560720, "key_press": -1, "type": "PRE_RECALL_DELAY", "trial_index": 101}, "uniqueid": "MTK1592:3ND9UOO81L9ALQBJRYE81ALX9Q3LW4", "dateTime": 1516043327173}, {"current_trial": 102, "trialdata": {"rt": -1000, "trial_type": "single-audio", "stimulus": "/static/audio/400Hz.wav", "internal_node_id": "0.0-75.0", "time_elapsed": 561221, "key_press": -1, "type": "PRE_RECALL_ALERT", "trial_index": 102}, "uniqueid": "MTK1592:3ND9UOO81L9ALQBJRYE81ALX9Q3LW4", "dateTime": 1516043327674}, {"current_trial": 103, "trialdata": {"rt": [1836, 3109, 3348, 4877, 7165, 9140, 10485, 12957, 14445, 16749], "recwords": ["brick", "virus", "", "bug", "baby", "blender", "crown", "stone", "casket", "suitcase"], "key_times": [839, 1029, 1181, 1397, 1596, 1836, 2117, 2317, 2477, 2764, 2925, 3109, 3348, 3572, 3725, 4709, 4877, 6525, 6669, 6797, 6981, 7165, 7957, 8124, 8293, 8421, 8572, 8805, 8869, 9140, 9461, 9709, 9878, 10021, 10205, 10485, 11189, 11813, 12029, 12333, 12469, 12613, 12725, 12957, 13213, 13389, 13621, 13869, 14006, 14245, 14445, 15141, 15333, 15549, 15677, 15989, 16141, 16405, 16525, 16749], "trial_type": "free-recall", "conditions": [12, 1600, "a", 12000], "internal_node_id": "0.0-76.0-0.0", "key_presses": [66, 82, 73, 67, 75, 13, 86, 73, 82, 85, 83, 13, 32, 66, 85, 71, 32, 66, 65, 66, 89, 32, 66, 76, 69, 78, 68, 69, 82, 13, 67, 82, 79, 87, 78, 32, 84, 8, 83, 84, 79, 78, 69, 32, 67, 65, 83, 75, 69, 84, 32, 83, 85, 73, 84, 67, 65, 83, 69, 32], "trial": 2, "time_elapsed": 621230, "type": "FREE_RECALL", "trial_index": 103}, "uniqueid": "MTK1592:3ND9UOO81L9ALQBJRYE81ALX9Q3LW4", "dateTime": 1516043387685}, {"current_trial": 104, "trialdata": {"rt": 3649, "trial_type": "text", "internal_node_id": "0.0-77.0", "time_elapsed": 626884, "key_press": 32, "type": "INSTRUCTIONS", "trial_index": 104}, "uniqueid": "MTK1592:3ND9UOO81L9ALQBJRYE81ALX9Q3LW4", "dateTime": 1516043393337}, {"current_trial": 105, "trialdata": {"rt": [3724, 6133, 8339, 10947, 13118, 16875, 18933, 22588], "trial_type": "math-distractor", "key_times": [3292, 3443, 3724, 5769, 5955, 6133, 8015, 8180, 8339, 10236, 10404, 10947, 12796, 12947, 13118, 16428, 16628, 16875, 18509, 18708, 18933, 22077, 22381, 22588], "responses": ["19", "10", "11", "14", "12", "18", "18", "24"], "num2": [4, 1, 3, 6, 1, 5, 8, 7, 9], "num3": [9, 2, 4, 7, 3, 9, 1, 8, 8], "conditions": [24, 800, "a", 24000], "internal_node_id": "0.0-78.0", "key_presses": [49, 57, 13, 49, 48, 13, 49, 49, 13, 49, 52, 13, 49, 50, 13, 49, 56, 13, 49, 56, 13, 50, 52, 13], "trial": 3, "time_elapsed": 652895, "type": "DISTRACTOR", "trial_index": 105, "num1": [6, 7, 4, 1, 8, 4, 9, 7, 3]}, "uniqueid": "MTK1592:3ND9UOO81L9ALQBJRYE81ALX9Q3LW4", "dateTime": 1516043419348}, {"current_trial": 106, "trialdata": {"rt": -1, "trial_type": "single-stim", "stimulus": "<p id=\"stim\">10</p>", "internal_node_id": "0.0-79.0-0.0", "time_elapsed": 655903, "key_press": -1, "trial_index": 106}, "uniqueid": "MTK1592:3ND9UOO81L9ALQBJRYE81ALX9Q3LW4", "dateTime": 1516043422356}, {"current_trial": 107, "trialdata": {"rt": -1, "trial_type": "single-stim", "stimulus": "<p id=\"stim\">9</p>", "internal_node_id": "0.0-79.0-1.0", "time_elapsed": 656907, "key_press": -1, "trial_index": 107}, "uniqueid": "MTK1592:3ND9UOO81L9ALQBJRYE81ALX9Q3LW4", "dateTime": 1516043423360}, {"current_trial": 108, "trialdata": {"rt": -1, "trial_type": "single-stim", "stimulus": "<p id=\"stim\">8</p>", "internal_node_id": "0.0-79.0-2.0", "time_elapsed": 657908, "key_press": -1, "trial_index": 108}, "uniqueid": "MTK1592:3ND9UOO81L9ALQBJRYE81ALX9Q3LW4", "dateTime": 1516043424361}, {"current_trial": 109, "trialdata": {"rt": -1, "trial_type": "single-stim", "stimulus": "<p id=\"stim\">7</p>", "internal_node_id": "0.0-79.0-3.0", "time_elapsed": 658913, "key_press": -1, "trial_index": 109}, "uniqueid": "MTK1592:3ND9UOO81L9ALQBJRYE81ALX9Q3LW4", "dateTime": 1516043425366}, {"current_trial": 110, "trialdata": {"rt": -1, "trial_type": "single-stim", "stimulus": "<p id=\"stim\">6</p>", "internal_node_id": "0.0-79.0-4.0", "time_elapsed": 659917, "key_press": -1, "trial_index": 110}, "uniqueid": "MTK1592:3ND9UOO81L9ALQBJRYE81ALX9Q3LW4", "dateTime": 1516043426370}, {"current_trial": 111, "trialdata": {"rt": -1, "trial_type": "single-stim", "stimulus": "<p id=\"stim\">5</p>", "internal_node_id": "0.0-79.0-5.0", "time_elapsed": 660921, "key_press": -1, "trial_index": 111}, "uniqueid": "MTK1592:3ND9UOO81L9ALQBJRYE81ALX9Q3LW4", "dateTime": 1516043427374}, {"current_trial": 112, "trialdata": {"rt": -1, "trial_type": "single-stim", "stimulus": "<p id=\"stim\">4</p>", "internal_node_id": "0.0-79.0-6.0", "time_elapsed": 661925, "key_press": -1, "trial_index": 112}, "uniqueid": "MTK1592:3ND9UOO81L9ALQBJRYE81ALX9Q3LW4", "dateTime": 1516043428378}, {"current_trial": 113, "trialdata": {"rt": -1, "trial_type": "single-stim", "stimulus": "<p id=\"stim\">3</p>", "internal_node_id": "0.0-79.0-7.0", "time_elapsed": 662930, "key_press": -1, "trial_index": 113}, "uniqueid": "MTK1592:3ND9UOO81L9ALQBJRYE81ALX9Q3LW4", "dateTime": 1516043429383}, {"current_trial": 114, "trialdata": {"rt": -1, "trial_type": "single-stim", "stimulus": "<p id=\"stim\">2</p>", "internal_node_id": "0.0-79.0-8.0", "time_elapsed": 663934, "key_press": -1, "trial_index": 114}, "uniqueid": "MTK1592:3ND9UOO81L9ALQBJRYE81ALX9Q3LW4", "dateTime": 1516043430387}, {"current_trial": 115, "trialdata": {"rt": -1, "trial_type": "single-stim", "stimulus": "<p id=\"stim\">1</p>", "internal_node_id": "0.0-79.0-9.0", "time_elapsed": 664938, "key_press": -1, "trial_index": 115}, "uniqueid": "MTK1592:3ND9UOO81L9ALQBJRYE81ALX9Q3LW4", "dateTime": 1516043431391}, {"current_trial": 116, "trialdata": {"rt": -1, "trial_type": "single-stim", "stimulus": "<p id=\"stim\">+</p>", "internal_node_id": "0.0-80.0-0.0", "time_elapsed": 666443, "key_press": -1, "type": "FIXATION", "trial_index": 116}, "uniqueid": "MTK1592:3ND9UOO81L9ALQBJRYE81ALX9Q3LW4", "dateTime": 1516043432897}, {"current_trial": 117, "trialdata": {"rt": -1000, "trial_type": "single-audio", "word": "woman", "stimulus": "/static/audio/wordpool/WOMAN.wav", "conditions": [24, 800, "a", 24000], "internal_node_id": "0.0-81.0", "trial": 3, "time_elapsed": 668099, "serialpos": 0, "key_press": -1, "wordID": 1619, "type": "PRES_AUD", "trial_index": 117}, "uniqueid": "MTK1592:3ND9UOO81L9ALQBJRYE81ALX9Q3LW4", "dateTime": 1516043434552}, {"current_trial": 118, "trialdata": {"rt": -1000, "trial_type": "single-audio", "word": "mummy", "stimulus": "/static/audio/wordpool/MUMMY.wav", "conditions": [24, 800, "a", 24000], "internal_node_id": "0.0-82.0", "trial": 3, "time_elapsed": 670025, "serialpos": 1, "key_press": -1, "wordID": 931, "type": "PRES_AUD", "trial_index": 118}, "uniqueid": "MTK1592:3ND9UOO81L9ALQBJRYE81ALX9Q3LW4", "dateTime": 1516043436478}, {"current_trial": 119, "trialdata": {"rt": -1000, "trial_type": "single-audio", "word": "salad", "stimulus": "/static/audio/wordpool/SALAD.wav", "conditions": [24, 800, "a", 24000], "internal_node_id": "0.0-83.0", "trial": 3, "time_elapsed": 671945, "serialpos": 2, "key_press": -1, "wordID": 1223, "type": "PRES_AUD", "trial_index": 119}, "uniqueid": "MTK1592:3ND9UOO81L9ALQBJRYE81ALX9Q3LW4", "dateTime": 1516043438399}, {"current_trial": 120, "trialdata": {"rt": -1000, "trial_type": "single-audio", "word": "beef", "stimulus": "/static/audio/wordpool/BEEF.wav", "conditions": [24, 800, "a", 24000], "internal_node_id": "0.0-84.0", "trial": 3, "time_elapsed": 673745, "serialpos": 3, "key_press": -1, "wordID": 112, "type": "PRES_AUD", "trial_index": 120}, "uniqueid": "MTK1592:3ND9UOO81L9ALQBJRYE81ALX9Q3LW4", "dateTime": 1516043440198}, {"current_trial": 121, "trialdata": {"rt": -1000, "trial_type": "single-audio", "word": "radish", "stimulus": "/static/audio/wordpool/RADISH.wav", "conditions": [24, 800, "a", 24000], "internal_node_id": "0.0-85.0", "trial": 3, "time_elapsed": 675463, "serialpos": 4, "key_press": -1, "wordID": 1157, "type": "PRES_AUD", "trial_index": 121}, "uniqueid": "MTK1592:3ND9UOO81L9ALQBJRYE81ALX9Q3LW4", "dateTime": 1516043441916}, {"current_trial": 122, "trialdata": {"rt": -1000, "trial_type": "single-audio", "word": "thief", "stimulus": "/static/audio/wordpool/THIEF.wav", "conditions": [24, 800, "a", 24000], "internal_node_id": "0.0-86.0", "trial": 3, "time_elapsed": 677465, "serialpos": 5, "key_press": -1, "wordID": 1455, "type": "PRES_AUD", "trial_index": 122}, "uniqueid": "MTK1592:3ND9UOO81L9ALQBJRYE81ALX9Q3LW4", "dateTime": 1516043443918}, {"current_trial": 123, "trialdata": {"rt": -1000, "trial_type": "single-audio", "word": "burglar", "stimulus": "/static/audio/wordpool/BURGLAR.wav", "conditions": [24, 800, "a", 24000], "internal_node_id": "0.0-87.0", "trial": 3, "time_elapsed": 679114, "serialpos": 6, "key_press": -1, "wordID": 199, "type": "PRES_AUD", "trial_index": 123}, "uniqueid": "MTK1592:3ND9UOO81L9ALQBJRYE81ALX9Q3LW4", "dateTime": 1516043445567}, {"current_trial": 124, "trialdata": {"rt": -1000, "trial_type": "single-audio", "word": "farmer", "stimulus": "/static/audio/wordpool/FARMER.wav", "conditions": [24, 800, "a", 24000], "internal_node_id": "0.0-88.0", "trial": 3, "time_elapsed": 680948, "serialpos": 7, "key_press": -1, "wordID": 552, "type": "PRES_AUD", "trial_index": 124}, "uniqueid": "MTK1592:3ND9UOO81L9ALQBJRYE81ALX9Q3LW4", "dateTime": 1516043447401}, {"current_trial": 125, "trialdata": {"rt": -1000, "trial_type": "single-audio", "word": "lion", "stimulus": "/static/audio/wordpool/LION.wav", "conditions": [24, 800, "a", 24000], "internal_node_id": "0.0-89.0", "trial": 3, "time_elapsed": 682852, "serialpos": 8, "key_press": -1, "wordID": 826, "type": "PRES_AUD", "trial_index": 125}, "uniqueid": "MTK1592:3ND9UOO81L9ALQBJRYE81ALX9Q3LW4", "dateTime": 1516043449305}, {"current_trial": 126, "trialdata": {"rt": -1000, "trial_type": "single-audio", "word": "drink", "stimulus": "/static/audio/wordpool/DRINK.wav", "conditions": [24, 800, "a", 24000], "internal_node_id": "0.0-90.0", "trial": 3, "time_elapsed": 684674, "serialpos": 9, "key_press": -1, "wordID": 497, "type": "PRES_AUD", "trial_index": 126}, "uniqueid": "MTK1592:3ND9UOO81L9ALQBJRYE81ALX9Q3LW4", "dateTime": 1516043451127}, {"current_trial": 127, "trialdata": {"rt": -1000, "trial_type": "single-audio", "word": "blockade", "stimulus": "/static/audio/wordpool/BLOCKADE.wav", "conditions": [24, 800, "a", 24000], "internal_node_id": "0.0-91.0", "trial": 3, "time_elapsed": 686591, "serialpos": 10, "key_press": -1, "wordID": 136, "type": "PRES_AUD", "trial_index": 127}, "uniqueid": "MTK1592:3ND9UOO81L9ALQBJRYE81ALX9Q3LW4", "dateTime": 1516043453044}, {"current_trial": 128, "trialdata": {"rt": -1000, "trial_type": "single-audio", "word": "turnip", "stimulus": "/static/audio/wordpool/TURNIP.wav", "conditions": [24, 800, "a", 24000], "internal_node_id": "0.0-92.0", "trial": 3, "time_elapsed": 688459, "serialpos": 11, "key_press": -1, "wordID": 1520, "type": "PRES_AUD", "trial_index": 128}, "uniqueid": "MTK1592:3ND9UOO81L9ALQBJRYE81ALX9Q3LW4", "dateTime": 1516043454912}, {"current_trial": 129, "trialdata": {"rt": -1000, "trial_type": "single-audio", "word": "garlic", "stimulus": "/static/audio/wordpool/GARLIC.wav", "conditions": [24, 800, "a", 24000], "internal_node_id": "0.0-93.0", "trial": 3, "time_elapsed": 690344, "serialpos": 12, "key_press": -1, "wordID": 623, "type": "PRES_AUD", "trial_index": 129}, "uniqueid": "MTK1592:3ND9UOO81L9ALQBJRYE81ALX9Q3LW4", "dateTime": 1516043456798}, {"current_trial": 130, "trialdata": {"rt": -1000, "trial_type": "single-audio", "word": "lettuce", "stimulus": "/static/audio/wordpool/LETTUCE.wav", "conditions": [24, 800, "a", 24000], "internal_node_id": "0.0-94.0", "trial": 3, "time_elapsed": 691964, "serialpos": 13, "key_press": -1, "wordID": 813, "type": "PRES_AUD", "trial_index": 130}, "uniqueid": "MTK1592:3ND9UOO81L9ALQBJRYE81ALX9Q3LW4", "dateTime": 1516043458417}, {"current_trial": 131, "trialdata": {"rt": -1000, "trial_type": "single-audio", "word": "breast", "stimulus": "/static/audio/wordpool/BREAST.wav", "conditions": [24, 800, "a", 24000], "internal_node_id": "0.0-95.0", "trial": 3, "time_elapsed": 693963, "serialpos": 14, "key_press": -1, "wordID": 170, "type": "PRES_AUD", "trial_index": 131}, "uniqueid": "MTK1592:3ND9UOO81L9ALQBJRYE81ALX9Q3LW4", "dateTime": 1516043460416}, {"current_trial": 132, "trialdata": {"rt": -1000, "trial_type": "single-audio", "word": "flipper", "stimulus": "/static/audio/wordpool/FLIPPER.wav", "conditions": [24, 800, "a", 24000], "internal_node_id": "0.0-96.0", "trial": 3, "time_elapsed": 695567, "serialpos": 15, "key_press": -1, "wordID": 579, "type": "PRES_AUD", "trial_index": 132}, "uniqueid": "MTK1592:3ND9UOO81L9ALQBJRYE81ALX9Q3LW4", "dateTime": 1516043462020}, {"current_trial": 133, "trialdata": {"rt": -1000, "trial_type": "single-audio", "word": "swimmer", "stimulus": "/static/audio/wordpool/SWIMMER.wav", "conditions": [24, 800, "a", 24000], "internal_node_id": "0.0-97.0", "trial": 3, "time_elapsed": 697476, "serialpos": 16, "key_press": -1, "wordID": 1419, "type": "PRES_AUD", "trial_index": 133}, "uniqueid": "MTK1592:3ND9UOO81L9ALQBJRYE81ALX9Q3LW4", "dateTime": 1516043463929}, {"current_trial": 134, "trialdata": {"rt": -1000, "trial_type": "single-audio", "word": "rooster", "stimulus": "/static/audio/wordpool/ROOSTER.wav", "conditions": [24, 800, "a", 24000], "internal_node_id": "0.0-98.0", "trial": 3, "time_elapsed": 699425, "serialpos": 17, "key_press": -1, "wordID": 1208, "type": "PRES_AUD", "trial_index": 134}, "uniqueid": "MTK1592:3ND9UOO81L9ALQBJRYE81ALX9Q3LW4", "dateTime": 1516043465878}, {"current_trial": 135, "trialdata": {"rt": -1000, "trial_type": "single-audio", "word": "hornet", "stimulus": "/static/audio/wordpool/HORNET.wav", "conditions": [24, 800, "a", 24000], "internal_node_id": "0.0-99.0", "trial": 3, "time_elapsed": 701077, "serialpos": 18, "key_press": -1, "wordID": 717, "type": "PRES_AUD", "trial_index": 135}, "uniqueid": "MTK1592:3ND9UOO81L9ALQBJRYE81ALX9Q3LW4", "dateTime": 1516043467530}, {"current_trial": 136, "trialdata": {"rt": -1000, "trial_type": "single-audio", "word": "catcher", "stimulus": "/static/audio/wordpool/CATCHER.wav", "conditions": [24, 800, "a", 24000], "internal_node_id": "0.0-100.0", "trial": 3, "time_elapsed": 702996, "serialpos": 19, "key_press": -1, "wordID": 257, "type": "PRES_AUD", "trial_index": 136}, "uniqueid": "MTK1592:3ND9UOO81L9ALQBJRYE81ALX9Q3LW4", "dateTime": 1516043469449}, {"current_trial": 137, "trialdata": {"rt": -1000, "trial_type": "single-audio", "word": "diver", "stimulus": "/static/audio/wordpool/DIVER.wav", "conditions": [24, 800, "a", 24000], "internal_node_id": "0.0-101.0", "trial": 3, "time_elapsed": 704691, "serialpos": 20, "key_press": -1, "wordID": 475, "type": "PRES_AUD", "trial_index": 137}, "uniqueid": "MTK1592:3ND9UOO81L9ALQBJRYE81ALX9Q3LW4", "dateTime": 1516043471144}, {"current_trial": 138, "trialdata": {"rt": -1000, "trial_type": "single-audio", "word": "powder", "stimulus": "/static/audio/wordpool/POWDER.wav", "conditions": [24, 800, "a", 24000], "internal_node_id": "0.0-102.0", "trial": 3, "time_elapsed": 706686, "serialpos": 21, "key_press": -1, "wordID": 1116, "type": "PRES_AUD", "trial_index": 138}, "uniqueid": "MTK1592:3ND9UOO81L9ALQBJRYE81ALX9Q3LW4", "dateTime": 1516043473140}, {"current_trial": 139, "trialdata": {"rt": -1000, "trial_type": "single-audio", "word": "nightgown", "stimulus": "/static/audio/wordpool/NIGHTGOWN.wav", "conditions": [24, 800, "a", 24000], "internal_node_id": "0.0-103.0", "trial": 3, "time_elapsed": 708407, "serialpos": 22, "key_press": -1, "wordID": 952, "type": "PRES_AUD", "trial_index": 139}, "uniqueid": "MTK1592:3ND9UOO81L9ALQBJRYE81ALX9Q3LW4", "dateTime": 1516043474860}, {"current_trial": 140, "trialdata": {"rt": -1000, "trial_type": "single-audio", "word": "robin", "stimulus": "/static/audio/wordpool/ROBIN.wav", "conditions": [24, 800, "a", 24000], "internal_node_id": "0.0-104.0", "trial": 3, "time_elapsed": 710343, "serialpos": 23, "key_press": -1, "wordID": 1198, "type": "PRES_AUD", "trial_index": 140}, "uniqueid": "MTK1592:3ND9UOO81L9ALQBJRYE81ALX9Q3LW4", "dateTime": 1516043476796}, {"current_trial": 141, "trialdata": {"rt": -1, "trial_type": "single-stim", "stimulus": "", "internal_node_id": "0.0-105.0-0.0", "time_elapsed": 711659, "key_press": -1, "type": "PRE_RECALL_DELAY", "trial_index": 141}, "uniqueid": "MTK1592:3ND9UOO81L9ALQBJRYE81ALX9Q3LW4", "dateTime": 1516043478112}, {"current_trial": 142, "trialdata": {"rt": -1000, "trial_type": "single-audio", "stimulus": "/static/audio/400Hz.wav", "internal_node_id": "0.0-106.0", "time_elapsed": 712161, "key_press": -1, "type": "PRE_RECALL_ALERT", "trial_index": 142}, "uniqueid": "MTK1592:3ND9UOO81L9ALQBJRYE81ALX9Q3LW4", "dateTime": 1516043478614}, {"current_trial": 143, "trialdata": {"rt": [1980, 4117, 5140, 6300, 10045, 14324, 18628, 19828, 21237, 29853, 31029, 53661], "recwords": ["woman", "mummy", "slad", "theif", "lettuce", "radish", "nightgown", "robber", "robin", "lion", "drink", "breast"], "key_times": [1190, 1333, 1476, 1614, 1756, 1980, 2172, 2797, 3383, 3548, 3884, 4117, 4484, 4628, 4782, 4975, 5140, 5524, 5628, 5756, 5908, 6117, 6300, 8389, 8532, 8964, 9152, 9364, 9503, 9668, 10045, 10506, 10756, 11661, 11876, 12788, 13621, 13844, 14052, 14324, 17046, 17237, 17356, 17532, 17660, 17949, 18085, 18276, 18412, 18628, 18949, 19061, 19308, 19477, 19585, 19676, 19828, 20308, 20541, 20732, 20893, 21037, 21237, 27559, 27781, 27901, 28173, 28727, 28925, 29477, 29645, 29853, 30093, 30357, 30502, 30669, 30829, 31029, 52471, 52670, 52783, 53013, 53173, 53461, 53661], "trial_type": "free-recall", "conditions": [24, 800, "a", 24000], "internal_node_id": "0.0-107.0-0.0", "key_presses": [87, 79, 77, 65, 78, 32, 77, 85, 77, 77, 89, 32, 83, 76, 65, 68, 32, 84, 72, 69, 73, 70, 32, 76, 69, 84, 84, 85, 67, 69, 32, 82, 65, 68, 68, 8, 73, 83, 72, 32, 78, 73, 71, 72, 84, 71, 79, 87, 78, 32, 82, 79, 66, 66, 69, 82, 32, 82, 79, 66, 73, 78, 32, 76, 73, 78, 79, 8, 8, 79, 78, 32, 68, 82, 73, 78, 75, 32, 66, 82, 69, 65, 83, 84, 32], "trial": 3, "time_elapsed": 772169, "type": "FREE_RECALL", "trial_index": 143}, "uniqueid": "MTK1592:3ND9UOO81L9ALQBJRYE81ALX9Q3LW4", "dateTime": 1516043538625}, {"current_trial": 144, "trialdata": {"rt": 1307, "trial_type": "text", "internal_node_id": "0.0-108.0", "time_elapsed": 775481, "key_press": 32, "type": "INSTRUCTIONS", "trial_index": 144}, "uniqueid": "MTK1592:3ND9UOO81L9ALQBJRYE81ALX9Q3LW4", "dateTime": 1516043541934}, {"current_trial": 145, "trialdata": {"rt": [4589, 8366, 11269], "trial_type": "math-distractor", "key_times": [3855, 4022, 4589, 6583, 7709, 8039, 8366, 10775, 11005, 11269], "responses": ["13", "7", "17"], "num2": [1, 4, 5, 4], "num3": [6, 1, 6, 9], "conditions": [12, 800, "a", 12000], "internal_node_id": "0.0-109.0", "key_presses": [49, 51, 13, 52, 8, 55, 13, 49, 55, 13], "trial": 4, "time_elapsed": 789487, "type": "DISTRACTOR", "trial_index": 145, "num1": [6, 2, 6, 7]}, "uniqueid": "MTK1592:3ND9UOO81L9ALQBJRYE81ALX9Q3LW4", "dateTime": 1516043555941}, {"current_trial": 146, "trialdata": {"rt": -1, "trial_type": "single-stim", "stimulus": "<p id=\"stim\">10</p>", "internal_node_id": "0.0-110.0-0.0", "time_elapsed": 792498, "key_press": -1, "trial_index": 146}, "uniqueid": "MTK1592:3ND9UOO81L9ALQBJRYE81ALX9Q3LW4", "dateTime": 1516043558951}, {"current_trial": 147, "trialdata": {"rt": -1, "trial_type": "single-stim", "stimulus": "<p id=\"stim\">9</p>", "internal_node_id": "0.0-110.0-1.0", "time_elapsed": 793499, "key_press": -1, "trial_index": 147}, "uniqueid": "MTK1592:3ND9UOO81L9ALQBJRYE81ALX9Q3LW4", "dateTime": 1516043559952}, {"current_trial": 148, "trialdata": {"rt": -1, "trial_type": "single-stim", "stimulus": "<p id=\"stim\">8</p>", "internal_node_id": "0.0-110.0-2.0", "time_elapsed": 794500, "key_press": -1, "trial_index": 148}, "uniqueid": "MTK1592:3ND9UOO81L9ALQBJRYE81ALX9Q3LW4", "dateTime": 1516043560953}, {"current_trial": 149, "trialdata": {"rt": -1, "trial_type": "single-stim", "stimulus": "<p id=\"stim\">7</p>", "internal_node_id": "0.0-110.0-3.0", "time_elapsed": 795504, "key_press": -1, "trial_index": 149}, "uniqueid": "MTK1592:3ND9UOO81L9ALQBJRYE81ALX9Q3LW4", "dateTime": 1516043561957}, {"current_trial": 150, "trialdata": {"rt": -1, "trial_type": "single-stim", "stimulus": "<p id=\"stim\">6</p>", "internal_node_id": "0.0-110.0-4.0", "time_elapsed": 796508, "key_press": -1, "trial_index": 150}, "uniqueid": "MTK1592:3ND9UOO81L9ALQBJRYE81ALX9Q3LW4", "dateTime": 1516043562961}, {"current_trial": 151, "trialdata": {"rt": -1, "trial_type": "single-stim", "stimulus": "<p id=\"stim\">5</p>", "internal_node_id": "0.0-110.0-5.0", "time_elapsed": 797513, "key_press": -1, "trial_index": 151}, "uniqueid": "MTK1592:3ND9UOO81L9ALQBJRYE81ALX9Q3LW4", "dateTime": 1516043563966}, {"current_trial": 152, "trialdata": {"rt": -1, "trial_type": "single-stim", "stimulus": "<p id=\"stim\">4</p>", "internal_node_id": "0.0-110.0-6.0", "time_elapsed": 798514, "key_press": -1, "trial_index": 152}, "uniqueid": "MTK1592:3ND9UOO81L9ALQBJRYE81ALX9Q3LW4", "dateTime": 1516043564967}, {"current_trial": 153, "trialdata": {"rt": -1, "trial_type": "single-stim", "stimulus": "<p id=\"stim\">3</p>", "internal_node_id": "0.0-110.0-7.0", "time_elapsed": 799520, "key_press": -1, "trial_index": 153}, "uniqueid": "MTK1592:3ND9UOO81L9ALQBJRYE81ALX9Q3LW4", "dateTime": 1516043565973}, {"current_trial": 154, "trialdata": {"rt": -1, "trial_type": "single-stim", "stimulus": "<p id=\"stim\">2</p>", "internal_node_id": "0.0-110.0-8.0", "time_elapsed": 800524, "key_press": -1, "trial_index": 154}, "uniqueid": "MTK1592:3ND9UOO81L9ALQBJRYE81ALX9Q3LW4", "dateTime": 1516043566977}, {"current_trial": 155, "trialdata": {"rt": -1, "trial_type": "single-stim", "stimulus": "<p id=\"stim\">1</p>", "internal_node_id": "0.0-110.0-9.0", "time_elapsed": 801525, "key_press": -1, "trial_index": 155}, "uniqueid": "MTK1592:3ND9UOO81L9ALQBJRYE81ALX9Q3LW4", "dateTime": 1516043567978}, {"current_trial": 156, "trialdata": {"rt": -1, "trial_type": "single-stim", "stimulus": "<p id=\"stim\">+</p>", "internal_node_id": "0.0-111.0-0.0", "time_elapsed": 803031, "key_press": -1, "type": "FIXATION", "trial_index": 156}, "uniqueid": "MTK1592:3ND9UOO81L9ALQBJRYE81ALX9Q3LW4", "dateTime": 1516043569484}, {"current_trial": 157, "trialdata": {"rt": -1000, "trial_type": "single-audio", "word": "tortoise", "stimulus": "/static/audio/wordpool/TORTOISE.wav", "conditions": [12, 800, "a", 12000], "internal_node_id": "0.0-112.0", "trial": 4, "time_elapsed": 804638, "serialpos": 0, "key_press": -1, "wordID": 1485, "type": "PRES_AUD", "trial_index": 157}, "uniqueid": "MTK1592:3ND9UOO81L9ALQBJRYE81ALX9Q3LW4", "dateTime": 1516043571091}, {"current_trial": 158, "trialdata": {"rt": -1000, "trial_type": "single-audio", "word": "leopard", "stimulus": "/static/audio/wordpool/LEOPARD.wav", "conditions": [12, 800, "a", 12000], "internal_node_id": "0.0-113.0", "trial": 4, "time_elapsed": 806619, "serialpos": 1, "key_press": -1, "wordID": 811, "type": "PRES_AUD", "trial_index": 158}, "uniqueid": "MTK1592:3ND9UOO81L9ALQBJRYE81ALX9Q3LW4", "dateTime": 1516043573072}, {"current_trial": 159, "trialdata": {"rt": -1000, "trial_type": "single-audio", "word": "hedge", "stimulus": "/static/audio/wordpool/HEDGE.wav", "conditions": [12, 800, "a", 12000], "internal_node_id": "0.0-114.0", "trial": 4, "time_elapsed": 808439, "serialpos": 2, "key_press": -1, "wordID": 698, "type": "PRES_AUD", "trial_index": 159}, "uniqueid": "MTK1592:3ND9UOO81L9ALQBJRYE81ALX9Q3LW4", "dateTime": 1516043574893}, {"current_trial": 160, "trialdata": {"rt": -1000, "trial_type": "single-audio", "word": "bison", "stimulus": "/static/audio/wordpool/BISON.wav", "conditions": [12, 800, "a", 12000], "internal_node_id": "0.0-115.0", "trial": 4, "time_elapsed": 810314, "serialpos": 3, "key_press": -1, "wordID": 130, "type": "PRES_AUD", "trial_index": 160}, "uniqueid": "MTK1592:3ND9UOO81L9ALQBJRYE81ALX9Q3LW4", "dateTime": 1516043576767}, {"current_trial": 161, "trialdata": {"rt": -1000, "trial_type": "single-audio", "word": "gymnast", "stimulus": "/static/audio/wordpool/GYMNAST.wav", "conditions": [12, 800, "a", 12000], "internal_node_id": "0.0-116.0", "trial": 4, "time_elapsed": 812088, "serialpos": 4, "key_press": -1, "wordID": 674, "type": "PRES_AUD", "trial_index": 161}, "uniqueid": "MTK1592:3ND9UOO81L9ALQBJRYE81ALX9Q3LW4", "dateTime": 1516043578541}, {"current_trial": 162, "trialdata": {"rt": -1000, "trial_type": "single-audio", "word": "fox", "stimulus": "/static/audio/wordpool/FOX.wav", "conditions": [12, 800, "a", 12000], "internal_node_id": "0.0-117.0", "trial": 4, "time_elapsed": 813764, "serialpos": 5, "key_press": -1, "wordID": 597, "type": "PRES_AUD", "trial_index": 162}, "uniqueid": "MTK1592:3ND9UOO81L9ALQBJRYE81ALX9Q3LW4", "dateTime": 1516043580217}, {"current_trial": 163, "trialdata": {"rt": -1000, "trial_type": "single-audio", "word": "zebra", "stimulus": "/static/audio/wordpool/ZEBRA.wav", "conditions": [12, 800, "a", 12000], "internal_node_id": "0.0-118.0", "trial": 4, "time_elapsed": 815600, "serialpos": 6, "key_press": -1, "wordID": 1634, "type": "PRES_AUD", "trial_index": 163}, "uniqueid": "MTK1592:3ND9UOO81L9ALQBJRYE81ALX9Q3LW4", "dateTime": 1516043582053}, {"current_trial": 164, "trialdata": {"rt": -1000, "trial_type": "single-audio", "word": "panther", "stimulus": "/static/audio/wordpool/PANTHER.wav", "conditions": [12, 800, "a", 12000], "internal_node_id": "0.0-119.0", "trial": 4, "time_elapsed": 817415, "serialpos": 7, "key_press": -1, "wordID": 1008, "type": "PRES_AUD", "trial_index": 164}, "uniqueid": "MTK1592:3ND9UOO81L9ALQBJRYE81ALX9Q3LW4", "dateTime": 1516043583868}, {"current_trial": 165, "trialdata": {"rt": -1000, "trial_type": "single-audio", "word": "bubble", "stimulus": "/static/audio/wordpool/BUBBLE.wav", "conditions": [12, 800, "a", 12000], "internal_node_id": "0.0-120.0", "trial": 4, "time_elapsed": 819371, "serialpos": 8, "key_press": -1, "wordID": 182, "type": "PRES_AUD", "trial_index": 165}, "uniqueid": "MTK1592:3ND9UOO81L9ALQBJRYE81ALX9Q3LW4", "dateTime": 1516043585824}, {"current_trial": 166, "trialdata": {"rt": -1000, "trial_type": "single-audio", "word": "headband", "stimulus": "/static/audio/wordpool/HEADBAND.wav", "conditions": [12, 800, "a", 12000], "internal_node_id": "0.0-121.0", "trial": 4, "time_elapsed": 821361, "serialpos": 9, "key_press": -1, "wordID": 695, "type": "PRES_AUD", "trial_index": 166}, "uniqueid": "MTK1592:3ND9UOO81L9ALQBJRYE81ALX9Q3LW4", "dateTime": 1516043587814}, {"current_trial": 167, "trialdata": {"rt": -1000, "trial_type": "single-audio", "word": "dancer", "stimulus": "/static/audio/wordpool/DANCER.wav", "conditions": [12, 800, "a", 12000], "internal_node_id": "0.0-122.0", "trial": 4, "time_elapsed": 823098, "serialpos": 10, "key_press": -1, "wordID": 436, "type": "PRES_AUD", "trial_index": 167}, "uniqueid": "MTK1592:3ND9UOO81L9ALQBJRYE81ALX9Q3LW4", "dateTime": 1516043589551}, {"current_trial": 168, "trialdata": {"rt": -1000, "trial_type": "single-audio", "word": "asia", "stimulus": "/static/audio/wordpool/ASIA.wav", "conditions": [12, 800, "a", 12000], "internal_node_id": "0.0-123.0", "trial": 4, "time_elapsed": 825044, "serialpos": 11, "key_press": -1, "wordID": 45, "type": "PRES_AUD", "trial_index": 168}, "uniqueid": "MTK1592:3ND9UOO81L9ALQBJRYE81ALX9Q3LW4", "dateTime": 1516043591497}, {"current_trial": 169, "trialdata": {"rt": -1, "trial_type": "single-stim", "stimulus": "", "internal_node_id": "0.0-124.0-0.0", "time_elapsed": 826388, "key_press": -1, "type": "PRE_RECALL_DELAY", "trial_index": 169}, "uniqueid": "MTK1592:3ND9UOO81L9ALQBJRYE81ALX9Q3LW4", "dateTime": 1516043592841}, {"current_trial": 170, "trialdata": {"rt": -1000, "trial_type": "single-audio", "stimulus": "/static/audio/400Hz.wav", "internal_node_id": "0.0-125.0", "time_elapsed": 826890, "key_press": -1, "type": "PRE_RECALL_ALERT", "trial_index": 170}, "uniqueid": "MTK1592:3ND9UOO81L9ALQBJRYE81ALX9Q3LW4", "dateTime": 1516043593343}, {"current_trial": 171, "trialdata": {"rt": [2126, 3438, 4910, 7598, 10430, 13590, 14550, 16678, 19390], "recwords": ["zebra", "bison", "hedge", "tortise", "fox", "dancer", "asia", "panther", "tiger"], "key_times": [927, 1207, 1582, 1742, 1934, 2126, 2414, 2638, 2878, 3030, 3198, 3438, 3926, 4038, 4286, 4566, 4718, 4910, 6102, 6310, 6654, 6838, 7054, 7207, 7350, 7598, 9679, 9862, 10224, 10430, 12624, 12769, 12902, 13064, 13278, 13399, 13590, 13798, 13863, 14110, 14254, 14550, 15599, 15742, 15926, 16102, 16302, 16391, 16502, 16678, 18591, 18759, 18878, 19102, 19246, 19390], "trial_type": "free-recall", "conditions": [12, 800, "a", 12000], "internal_node_id": "0.0-126.0-0.0", "key_presses": [90, 69, 66, 82, 65, 32, 66, 73, 83, 79, 78, 32, 72, 69, 68, 71, 69, 32, 84, 79, 82, 84, 73, 83, 69, 32, 70, 79, 88, 32, 68, 65, 78, 67, 69, 82, 32, 65, 83, 73, 65, 32, 80, 65, 78, 84, 72, 69, 82, 32, 84, 73, 71, 69, 82, 32], "trial": 4, "time_elapsed": 886897, "type": "FREE_RECALL", "trial_index": 171}, "uniqueid": "MTK1592:3ND9UOO81L9ALQBJRYE81ALX9Q3LW4", "dateTime": 1516043653351}, {"current_trial": 172, "trialdata": {"rt": 32658, "trial_type": "text", "internal_node_id": "0.0-127.0", "time_elapsed": 921557, "key_press": 32, "type": "INSTRUCTIONS", "trial_index": 172}, "uniqueid": "MTK1592:3ND9UOO81L9ALQBJRYE81ALX9Q3LW4", "dateTime": 1516043688011}, {"current_trial": 173, "trialdata": {"rt": [2025, 4721, 6489, 8313, 10529, 13489, 15841, 17945, 20226, 22785], "trial_type": "math-distractor", "key_times": [1704, 2025, 4305, 4456, 4721, 6193, 6489, 7976, 8313, 10145, 10297, 10529, 13114, 13282, 13489, 15473, 15632, 15841, 17513, 17728, 17945, 19858, 20010, 20226, 22410, 22576, 22785], "responses": ["4", "13", "7", "9", "12", "13", "21", "10", "16", "16"], "num2": [1, 6, 5, 4, 4, 4, 5, 3, 7, 4, 1], "num3": [1, 5, 1, 1, 3, 4, 8, 2, 7, 6, 8], "conditions": [12, 1600, "a", 24000], "internal_node_id": "0.0-128.0", "key_presses": [52, 13, 49, 51, 13, 55, 13, 57, 13, 49, 50, 13, 49, 51, 13, 50, 49, 13, 49, 48, 13, 49, 54, 13, 49, 54, 13], "trial": 5, "time_elapsed": 947565, "type": "DISTRACTOR", "trial_index": 173, "num1": [2, 2, 1, 4, 5, 5, 8, 5, 2, 6, 1]}, "uniqueid": "MTK1592:3ND9UOO81L9ALQBJRYE81ALX9Q3LW4", "dateTime": 1516043714018}, {"current_trial": 174, "trialdata": {"rt": -1, "trial_type": "single-stim", "stimulus": "<p id=\"stim\">10</p>", "internal_node_id": "0.0-129.0-0.0", "time_elapsed": 950573, "key_press": -1, "trial_index": 174}, "uniqueid": "MTK1592:3ND9UOO81L9ALQBJRYE81ALX9Q3LW4", "dateTime": 1516043717026}, {"current_trial": 175, "trialdata": {"rt": -1, "trial_type": "single-stim", "stimulus": "<p id=\"stim\">9</p>", "internal_node_id": "0.0-129.0-1.0", "time_elapsed": 951577, "key_press": -1, "trial_index": 175}, "uniqueid": "MTK1592:3ND9UOO81L9ALQBJRYE81ALX9Q3LW4", "dateTime": 1516043718031}, {"current_trial": 176, "trialdata": {"rt": -1, "trial_type": "single-stim", "stimulus": "<p id=\"stim\">8</p>", "internal_node_id": "0.0-129.0-2.0", "time_elapsed": 952582, "key_press": -1, "trial_index": 176}, "uniqueid": "MTK1592:3ND9UOO81L9ALQBJRYE81ALX9Q3LW4", "dateTime": 1516043719035}, {"current_trial": 177, "trialdata": {"rt": -1, "trial_type": "single-stim", "stimulus": "<p id=\"stim\">7</p>", "internal_node_id": "0.0-129.0-3.0", "time_elapsed": 953586, "key_press": -1, "trial_index": 177}, "uniqueid": "MTK1592:3ND9UOO81L9ALQBJRYE81ALX9Q3LW4", "dateTime": 1516043720039}, {"current_trial": 178, "trialdata": {"rt": -1, "trial_type": "single-stim", "stimulus": "<p id=\"stim\">6</p>", "internal_node_id": "0.0-129.0-4.0", "time_elapsed": 954592, "key_press": -1, "trial_index": 178}, "uniqueid": "MTK1592:3ND9UOO81L9ALQBJRYE81ALX9Q3LW4", "dateTime": 1516043721045}, {"current_trial": 179, "trialdata": {"rt": -1, "trial_type": "single-stim", "stimulus": "<p id=\"stim\">5</p>", "internal_node_id": "0.0-129.0-5.0", "time_elapsed": 955595, "key_press": -1, "trial_index": 179}, "uniqueid": "MTK1592:3ND9UOO81L9ALQBJRYE81ALX9Q3LW4", "dateTime": 1516043722048}, {"current_trial": 180, "trialdata": {"rt": -1, "trial_type": "single-stim", "stimulus": "<p id=\"stim\">4</p>", "internal_node_id": "0.0-129.0-6.0", "time_elapsed": 956598, "key_press": -1, "trial_index": 180}, "uniqueid": "MTK1592:3ND9UOO81L9ALQBJRYE81ALX9Q3LW4", "dateTime": 1516043723051}, {"current_trial": 181, "trialdata": {"rt": -1, "trial_type": "single-stim", "stimulus": "<p id=\"stim\">3</p>", "internal_node_id": "0.0-129.0-7.0", "time_elapsed": 957604, "key_press": -1, "trial_index": 181}, "uniqueid": "MTK1592:3ND9UOO81L9ALQBJRYE81ALX9Q3LW4", "dateTime": 1516043724057}, {"current_trial": 182, "trialdata": {"rt": -1, "trial_type": "single-stim", "stimulus": "<p id=\"stim\">2</p>", "internal_node_id": "0.0-129.0-8.0", "time_elapsed": 958606, "key_press": -1, "trial_index": 182}, "uniqueid": "MTK1592:3ND9UOO81L9ALQBJRYE81ALX9Q3LW4", "dateTime": 1516043725059}, {"current_trial": 183, "trialdata": {"rt": -1, "trial_type": "single-stim", "stimulus": "<p id=\"stim\">1</p>", "internal_node_id": "0.0-129.0-9.0", "time_elapsed": 959611, "key_press": -1, "trial_index": 183}, "uniqueid": "MTK1592:3ND9UOO81L9ALQBJRYE81ALX9Q3LW4", "dateTime": 1516043726064}, {"current_trial": 184, "trialdata": {"rt": -1, "trial_type": "single-stim", "stimulus": "<p id=\"stim\">+</p>", "internal_node_id": "0.0-130.0-0.0", "time_elapsed": 961113, "key_press": -1, "type": "FIXATION", "trial_index": 184}, "uniqueid": "MTK1592:3ND9UOO81L9ALQBJRYE81ALX9Q3LW4", "dateTime": 1516043727567}, {"current_trial": 185, "trialdata": {"rt": -1000, "trial_type": "single-audio", "word": "tweezers", "stimulus": "/static/audio/wordpool/TWEEZERS.wav", "conditions": [12, 1600, "a", 24000], "internal_node_id": "0.0-131.0", "trial": 5, "time_elapsed": 963598, "serialpos": 0, "key_press": -1, "wordID": 1525, "type": "PRES_AUD", "trial_index": 185}, "uniqueid": "MTK1592:3ND9UOO81L9ALQBJRYE81ALX9Q3LW4", "dateTime": 1516043730051}, {"current_trial": 186, "trialdata": {"rt": -1000, "trial_type": "single-audio", "word": "snake", "stimulus": "/static/audio/wordpool/SNAKE.wav", "conditions": [12, 1600, "a", 24000], "internal_node_id": "0.0-132.0", "trial": 5, "time_elapsed": 966082, "serialpos": 1, "key_press": -1, "wordID": 1332, "type": "PRES_AUD", "trial_index": 186}, "uniqueid": "MTK1592:3ND9UOO81L9ALQBJRYE81ALX9Q3LW4", "dateTime": 1516043732535}, {"current_trial": 187, "trialdata": {"rt": -1000, "trial_type": "single-audio", "word": "gangster", "stimulus": "/static/audio/wordpool/GANGSTER.wav", "conditions": [12, 1600, "a", 24000], "internal_node_id": "0.0-133.0", "trial": 5, "time_elapsed": 968584, "serialpos": 2, "key_press": -1, "wordID": 619, "type": "PRES_AUD", "trial_index": 187}, "uniqueid": "MTK1592:3ND9UOO81L9ALQBJRYE81ALX9Q3LW4", "dateTime": 1516043735037}, {"current_trial": 188, "trialdata": {"rt": -1000, "trial_type": "single-audio", "word": "milk", "stimulus": "/static/audio/wordpool/MILK.wav", "conditions": [12, 1600, "a", 24000], "internal_node_id": "0.0-134.0", "trial": 5, "time_elapsed": 970999, "serialpos": 3, "key_press": -1, "wordID": 894, "type": "PRES_AUD", "trial_index": 188}, "uniqueid": "MTK1592:3ND9UOO81L9ALQBJRYE81ALX9Q3LW4", "dateTime": 1516043737453}, {"current_trial": 189, "trialdata": {"rt": -1000, "trial_type": "single-audio", "word": "parrot", "stimulus": "/static/audio/wordpool/PARROT.wav", "conditions": [12, 1600, "a", 24000], "internal_node_id": "0.0-135.0", "trial": 5, "time_elapsed": 973529, "serialpos": 4, "key_press": -1, "wordID": 1014, "type": "PRES_AUD", "trial_index": 189}, "uniqueid": "MTK1592:3ND9UOO81L9ALQBJRYE81ALX9Q3LW4", "dateTime": 1516043739982}, {"current_trial": 190, "trialdata": {"rt": -1000, "trial_type": "single-audio", "word": "badge", "stimulus": "/static/audio/wordpool/BADGE.wav", "conditions": [12, 1600, "a", 24000], "internal_node_id": "0.0-136.0", "trial": 5, "time_elapsed": 976155, "serialpos": 5, "key_press": -1, "wordID": 67, "type": "PRES_AUD", "trial_index": 190}, "uniqueid": "MTK1592:3ND9UOO81L9ALQBJRYE81ALX9Q3LW4", "dateTime": 1516043742608}, {"current_trial": 191, "trialdata": {"rt": -1000, "trial_type": "single-audio", "word": "sticker", "stimulus": "/static/audio/wordpool/STICKER.wav", "conditions": [12, 1600, "a", 24000], "internal_node_id": "0.0-137.0", "trial": 5, "time_elapsed": 978613, "serialpos": 6, "key_press": -1, "wordID": 1381, "type": "PRES_AUD", "trial_index": 191}, "uniqueid": "MTK1592:3ND9UOO81L9ALQBJRYE81ALX9Q3LW4", "dateTime": 1516043745066}, {"current_trial": 192, "trialdata": {"rt": -1000, "trial_type": "single-audio", "word": "vagrant", "stimulus": "/static/audio/wordpool/VAGRANT.wav", "conditions": [12, 1600, "a", 24000], "internal_node_id": "0.0-138.0", "trial": 5, "time_elapsed": 981021, "serialpos": 7, "key_press": -1, "wordID": 1543, "type": "PRES_AUD", "trial_index": 192}, "uniqueid": "MTK1592:3ND9UOO81L9ALQBJRYE81ALX9Q3LW4", "dateTime": 1516043747474}, {"current_trial": 193, "trialdata": {"rt": -1000, "trial_type": "single-audio", "word": "lizard", "stimulus": "/static/audio/wordpool/LIZARD.wav", "conditions": [12, 1600, "a", 24000], "internal_node_id": "0.0-139.0", "trial": 5, "time_elapsed": 983727, "serialpos": 8, "key_press": -1, "wordID": 833, "type": "PRES_AUD", "trial_index": 193}, "uniqueid": "MTK1592:3ND9UOO81L9ALQBJRYE81ALX9Q3LW4", "dateTime": 1516043750180}, {"current_trial": 194, "trialdata": {"rt": -1000, "trial_type": "single-audio", "word": "knife", "stimulus": "/static/audio/wordpool/KNIFE.wav", "conditions": [12, 1600, "a", 24000], "internal_node_id": "0.0-140.0", "trial": 5, "time_elapsed": 986458, "serialpos": 9, "key_press": -1, "wordID": 784, "type": "PRES_AUD", "trial_index": 194}, "uniqueid": "MTK1592:3ND9UOO81L9ALQBJRYE81ALX9Q3LW4", "dateTime": 1516043752911}, {"current_trial": 195, "trialdata": {"rt": -1000, "trial_type": "single-audio", "word": "compass", "stimulus": "/static/audio/wordpool/COMPASS.wav", "conditions": [12, 1600, "a", 24000], "internal_node_id": "0.0-141.0", "trial": 5, "time_elapsed": 988869, "serialpos": 10, "key_press": -1, "wordID": 357, "type": "PRES_AUD", "trial_index": 195}, "uniqueid": "MTK1592:3ND9UOO81L9ALQBJRYE81ALX9Q3LW4", "dateTime": 1516043755322}, {"current_trial": 196, "trialdata": {"rt": -1000, "trial_type": "single-audio", "word": "backbone", "stimulus": "/static/audio/wordpool/BACKBONE.wav", "conditions": [12, 1600, "a", 24000], "internal_node_id": "0.0-142.0", "trial": 5, "time_elapsed": 991365, "serialpos": 11, "key_press": -1, "wordID": 65, "type": "PRES_AUD", "trial_index": 196}, "uniqueid": "MTK1592:3ND9UOO81L9ALQBJRYE81ALX9Q3LW4", "dateTime": 1516043757818}, {"current_trial": 197, "trialdata": {"rt": -1, "trial_type": "single-stim", "stimulus": "", "internal_node_id": "0.0-143.0-0.0", "time_elapsed": 992694, "key_press": -1, "type": "PRE_RECALL_DELAY", "trial_index": 197}, "uniqueid": "MTK1592:3ND9UOO81L9ALQBJRYE81ALX9Q3LW4", "dateTime": 1516043759147}, {"current_trial": 198, "trialdata": {"rt": -1000, "trial_type": "single-audio", "stimulus": "/static/audio/400Hz.wav", "internal_node_id": "0.0-144.0", "time_elapsed": 993195, "key_press": -1, "type": "PRE_RECALL_ALERT", "trial_index": 198}, "uniqueid": "MTK1592:3ND9UOO81L9ALQBJRYE81ALX9Q3LW4", "dateTime": 1516043759648}, {"current_trial": 199, "trialdata": {"rt": [2809, 4305, 6161, 8202, 10369, 12049, 15401, 28683], "recwords": ["tweezer", "sanke", "vagraint", "gangster", "backbone", "knife", "lizard", "badge"], "key_times": [779, 1105, 1569, 1730, 2154, 2402, 2553, 2809, 3225, 3745, 3849, 4049, 4129, 4305, 4593, 4681, 5217, 5321, 5545, 5689, 5833, 5985, 6161, 6433, 6657, 6729, 7298, 7561, 7801, 7913, 8025, 8202, 8475, 8569, 8793, 8961, 9609, 9761, 9889, 10161, 10369, 11090, 11225, 11417, 11689, 11865, 12049, 13794, 13978, 14385, 14785, 15017, 15234, 15401, 27788, 27929, 28169, 28401, 28521, 28683], "trial_type": "free-recall", "conditions": [12, 1600, "a", 24000], "internal_node_id": "0.0-145.0-0.0", "key_presses": [84, 87, 69, 69, 90, 69, 82, 32, 83, 65, 78, 75, 69, 32, 86, 65, 71, 82, 65, 73, 78, 84, 32, 71, 65, 78, 71, 83, 84, 69, 82, 32, 66, 65, 67, 75, 66, 79, 78, 69, 32, 75, 78, 73, 70, 69, 32, 76, 73, 90, 65, 82, 68, 32, 66, 65, 68, 71, 69, 32], "trial": 5, "time_elapsed": 1053203, "type": "FREE_RECALL", "trial_index": 199}, "uniqueid": "MTK1592:3ND9UOO81L9ALQBJRYE81ALX9Q3LW4", "dateTime": 1516043819659}, {"current_trial": 200, "trialdata": {"rt": 6397, "trial_type": "text", "internal_node_id": "0.0-146.0", "time_elapsed": 1061608, "key_press": 32, "type": "INSTRUCTIONS", "trial_index": 200}, "uniqueid": "MTK1592:3ND9UOO81L9ALQBJRYE81ALX9Q3LW4", "dateTime": 1516043828061}, {"current_trial": 201, "trialdata": {"rt": [4625, 11944, 13761, 15680, 17481, 19641, 21753], "trial_type": "math-distractor", "key_times": [4218, 4393, 4625, 11474, 11690, 11944, 13482, 13761, 15250, 15425, 15680, 17130, 17257, 17481, 19154, 19402, 19641, 21474, 21753, 23601, 23802], "responses": ["19", "23", "5", "13", "15", "17", "8"], "num2": [6, 8, 1, 4, 3, 7, 4, 1], "num3": [8, 7, 3, 6, 5, 5, 3, 9], "conditions": [12, 800, "a", 24000], "internal_node_id": "0.0-147.0", "key_presses": [49, 57, 13, 50, 51, 13, 53, 13, 49, 51, 13, 49, 53, 13, 49, 55, 13, 56, 13, 49, 56], "trial": 6, "time_elapsed": 1087617, "type": "DISTRACTOR", "trial_index": 201, "num1": [5, 8, 1, 3, 7, 5, 1, 8]}, "uniqueid": "MTK1592:3ND9UOO81L9ALQBJRYE81ALX9Q3LW4", "dateTime": 1516043854070}, {"current_trial": 202, "trialdata": {"rt": -1, "trial_type": "single-stim", "stimulus": "<p id=\"stim\">10</p>", "internal_node_id": "0.0-148.0-0.0", "time_elapsed": 1090621, "key_press": -1, "trial_index": 202}, "uniqueid": "MTK1592:3ND9UOO81L9ALQBJRYE81ALX9Q3LW4", "dateTime": 1516043857074}, {"current_trial": 203, "trialdata": {"rt": -1, "trial_type": "single-stim", "stimulus": "<p id=\"stim\">9</p>", "internal_node_id": "0.0-148.0-1.0", "time_elapsed": 1091626, "key_press": -1, "trial_index": 203}, "uniqueid": "MTK1592:3ND9UOO81L9ALQBJRYE81ALX9Q3LW4", "dateTime": 1516043858079}, {"current_trial": 204, "trialdata": {"rt": -1, "trial_type": "single-stim", "stimulus": "<p id=\"stim\">8</p>", "internal_node_id": "0.0-148.0-2.0", "time_elapsed": 1092631, "key_press": -1, "trial_index": 204}, "uniqueid": "MTK1592:3ND9UOO81L9ALQBJRYE81ALX9Q3LW4", "dateTime": 1516043859085}, {"current_trial": 205, "trialdata": {"rt": -1, "trial_type": "single-stim", "stimulus": "<p id=\"stim\">7</p>", "internal_node_id": "0.0-148.0-3.0", "time_elapsed": 1093636, "key_press": -1, "trial_index": 205}, "uniqueid": "MTK1592:3ND9UOO81L9ALQBJRYE81ALX9Q3LW4", "dateTime": 1516043860089}, {"current_trial": 206, "trialdata": {"rt": -1, "trial_type": "single-stim", "stimulus": "<p id=\"stim\">6</p>", "internal_node_id": "0.0-148.0-4.0", "time_elapsed": 1094640, "key_press": -1, "trial_index": 206}, "uniqueid": "MTK1592:3ND9UOO81L9ALQBJRYE81ALX9Q3LW4", "dateTime": 1516043861093}, {"current_trial": 207, "trialdata": {"rt": -1, "trial_type": "single-stim", "stimulus": "<p id=\"stim\">5</p>", "internal_node_id": "0.0-148.0-5.0", "time_elapsed": 1095644, "key_press": -1, "trial_index": 207}, "uniqueid": "MTK1592:3ND9UOO81L9ALQBJRYE81ALX9Q3LW4", "dateTime": 1516043862097}, {"current_trial": 208, "trialdata": {"rt": -1, "trial_type": "single-stim", "stimulus": "<p id=\"stim\">4</p>", "internal_node_id": "0.0-148.0-6.0", "time_elapsed": 1096649, "key_press": -1, "trial_index": 208}, "uniqueid": "MTK1592:3ND9UOO81L9ALQBJRYE81ALX9Q3LW4", "dateTime": 1516043863102}, {"current_trial": 209, "trialdata": {"rt": -1, "trial_type": "single-stim", "stimulus": "<p id=\"stim\">3</p>", "internal_node_id": "0.0-148.0-7.0", "time_elapsed": 1097653, "key_press": -1, "trial_index": 209}, "uniqueid": "MTK1592:3ND9UOO81L9ALQBJRYE81ALX9Q3LW4", "dateTime": 1516043864107}, {"current_trial": 210, "trialdata": {"rt": -1, "trial_type": "single-stim", "stimulus": "<p id=\"stim\">2</p>", "internal_node_id": "0.0-148.0-8.0", "time_elapsed": 1098656, "key_press": -1, "trial_index": 210}, "uniqueid": "MTK1592:3ND9UOO81L9ALQBJRYE81ALX9Q3LW4", "dateTime": 1516043865109}, {"current_trial": 211, "trialdata": {"rt": -1, "trial_type": "single-stim", "stimulus": "<p id=\"stim\">1</p>", "internal_node_id": "0.0-148.0-9.0", "time_elapsed": 1099661, "key_press": -1, "trial_index": 211}, "uniqueid": "MTK1592:3ND9UOO81L9ALQBJRYE81ALX9Q3LW4", "dateTime": 1516043866114}, {"current_trial": 212, "trialdata": {"rt": -1, "trial_type": "single-stim", "stimulus": "<p id=\"stim\">+</p>", "internal_node_id": "0.0-149.0-0.0", "time_elapsed": 1101165, "key_press": -1, "type": "FIXATION", "trial_index": 212}, "uniqueid": "MTK1592:3ND9UOO81L9ALQBJRYE81ALX9Q3LW4", "dateTime": 1516043867618}, {"current_trial": 213, "trialdata": {"rt": -1000, "trial_type": "single-audio", "word": "sibling", "stimulus": "/static/audio/wordpool/SIBLING.wav", "conditions": [12, 800, "a", 24000], "internal_node_id": "0.0-150.0", "trial": 6, "time_elapsed": 1102887, "serialpos": 0, "key_press": -1, "wordID": 1300, "type": "PRES_AUD", "trial_index": 213}, "uniqueid": "MTK1592:3ND9UOO81L9ALQBJRYE81ALX9Q3LW4", "dateTime": 1516043869340}, {"current_trial": 214, "trialdata": {"rt": -1000, "trial_type": "single-audio", "word": "shoulder", "stimulus": "/static/audio/wordpool/SHOULDER.wav", "conditions": [12, 800, "a", 24000], "internal_node_id": "0.0-151.0", "trial": 6, "time_elapsed": 1104725, "serialpos": 1, "key_press": -1, "wordID": 1293, "type": "PRES_AUD", "trial_index": 214}, "uniqueid": "MTK1592:3ND9UOO81L9ALQBJRYE81ALX9Q3LW4", "dateTime": 1516043871179}, {"current_trial": 215, "trialdata": {"rt": -1000, "trial_type": "single-audio", "word": "brandy", "stimulus": "/static/audio/wordpool/BRANDY.wav", "conditions": [12, 800, "a", 24000], "internal_node_id": "0.0-152.0", "trial": 6, "time_elapsed": 1106611, "serialpos": 2, "key_press": -1, "wordID": 168, "type": "PRES_AUD", "trial_index": 215}, "uniqueid": "MTK1592:3ND9UOO81L9ALQBJRYE81ALX9Q3LW4", "dateTime": 1516043873064}, {"current_trial": 216, "trialdata": {"rt": -1000, "trial_type": "single-audio", "word": "seagull", "stimulus": "/static/audio/wordpool/SEAGULL.wav", "conditions": [12, 800, "a", 24000], "internal_node_id": "0.0-153.0", "trial": 6, "time_elapsed": 1108501, "serialpos": 3, "key_press": -1, "wordID": 1260, "type": "PRES_AUD", "trial_index": 216}, "uniqueid": "MTK1592:3ND9UOO81L9ALQBJRYE81ALX9Q3LW4", "dateTime": 1516043874954}, {"current_trial": 217, "trialdata": {"rt": -1000, "trial_type": "single-audio", "word": "salmon", "stimulus": "/static/audio/wordpool/SALMON.wav", "conditions": [12, 800, "a", 24000], "internal_node_id": "0.0-154.0", "trial": 6, "time_elapsed": 1110320, "serialpos": 4, "key_press": -1, "wordID": 1226, "type": "PRES_AUD", "trial_index": 217}, "uniqueid": "MTK1592:3ND9UOO81L9ALQBJRYE81ALX9Q3LW4", "dateTime": 1516043876774}, {"current_trial": 218, "trialdata": {"rt": -1000, "trial_type": "single-audio", "word": "hood", "stimulus": "/static/audio/wordpool/HOOD.wav", "conditions": [12, 800, "a", 24000], "internal_node_id": "0.0-155.0", "trial": 6, "time_elapsed": 1112190, "serialpos": 5, "key_press": -1, "wordID": 713, "type": "PRES_AUD", "trial_index": 218}, "uniqueid": "MTK1592:3ND9UOO81L9ALQBJRYE81ALX9Q3LW4", "dateTime": 1516043878643}, {"current_trial": 219, "trialdata": {"rt": -1000, "trial_type": "single-audio", "word": "hatchet", "stimulus": "/static/audio/wordpool/HATCHET.wav", "conditions": [12, 800, "a", 24000], "internal_node_id": "0.0-156.0", "trial": 6, "time_elapsed": 1113922, "serialpos": 6, "key_press": -1, "wordID": 690, "type": "PRES_AUD", "trial_index": 219}, "uniqueid": "MTK1592:3ND9UOO81L9ALQBJRYE81ALX9Q3LW4", "dateTime": 1516043880375}, {"current_trial": 220, "trialdata": {"rt": -1000, "trial_type": "single-audio", "word": "gazelle", "stimulus": "/static/audio/wordpool/GAZELLE.wav", "conditions": [12, 800, "a", 24000], "internal_node_id": "0.0-157.0", "trial": 6, "time_elapsed": 1115573, "serialpos": 7, "key_press": -1, "wordID": 627, "type": "PRES_AUD", "trial_index": 220}, "uniqueid": "MTK1592:3ND9UOO81L9ALQBJRYE81ALX9Q3LW4", "dateTime": 1516043882026}, {"current_trial": 221, "trialdata": {"rt": -1000, "trial_type": "single-audio", "word": "sister", "stimulus": "/static/audio/wordpool/SISTER.wav", "conditions": [12, 800, "a", 24000], "internal_node_id": "0.0-158.0", "trial": 6, "time_elapsed": 1117500, "serialpos": 8, "key_press": -1, "wordID": 1311, "type": "PRES_AUD", "trial_index": 221}, "uniqueid": "MTK1592:3ND9UOO81L9ALQBJRYE81ALX9Q3LW4", "dateTime": 1516043883953}, {"current_trial": 222, "trialdata": {"rt": -1000, "trial_type": "single-audio", "word": "ground", "stimulus": "/static/audio/wordpool/GROUND.wav", "conditions": [12, 800, "a", 24000], "internal_node_id": "0.0-159.0", "trial": 6, "time_elapsed": 1119114, "serialpos": 9, "key_press": -1, "wordID": 665, "type": "PRES_AUD", "trial_index": 222}, "uniqueid": "MTK1592:3ND9UOO81L9ALQBJRYE81ALX9Q3LW4", "dateTime": 1516043885567}, {"current_trial": 223, "trialdata": {"rt": -1000, "trial_type": "single-audio", "word": "france", "stimulus": "/static/audio/wordpool/FRANCE.wav", "conditions": [12, 800, "a", 24000], "internal_node_id": "0.0-160.0", "trial": 6, "time_elapsed": 1120780, "serialpos": 10, "key_press": -1, "wordID": 600, "type": "PRES_AUD", "trial_index": 223}, "uniqueid": "MTK1592:3ND9UOO81L9ALQBJRYE81ALX9Q3LW4", "dateTime": 1516043887233}, {"current_trial": 224, "trialdata": {"rt": -1000, "trial_type": "single-audio", "word": "europe", "stimulus": "/static/audio/wordpool/EUROPE.wav", "conditions": [12, 800, "a", 24000], "internal_node_id": "0.0-161.0", "trial": 6, "time_elapsed": 1122765, "serialpos": 11, "key_press": -1, "wordID": 540, "type": "PRES_AUD", "trial_index": 224}, "uniqueid": "MTK1592:3ND9UOO81L9ALQBJRYE81ALX9Q3LW4", "dateTime": 1516043889218}, {"current_trial": 225, "trialdata": {"rt": -1, "trial_type": "single-stim", "stimulus": "", "internal_node_id": "0.0-162.0-0.0", "time_elapsed": 1124071, "key_press": -1, "type": "PRE_RECALL_DELAY", "trial_index": 225}, "uniqueid": "MTK1592:3ND9UOO81L9ALQBJRYE81ALX9Q3LW4", "dateTime": 1516043890524}, {"current_trial": 226, "trialdata": {"rt": -1000, "trial_type": "single-audio", "stimulus": "/static/audio/400Hz.wav", "internal_node_id": "0.0-163.0", "time_elapsed": 1124572, "key_press": -1, "type": "PRE_RECALL_ALERT", "trial_index": 226}, "uniqueid": "MTK1592:3ND9UOO81L9ALQBJRYE81ALX9Q3LW4", "dateTime": 1516043891025}, {"current_trial": 227, "trialdata": {"rt": [1579, 4283, 6387, 10635, 11844, 28340], "recwords": ["france", "europe", "salmon", "sister", "brandy", "shell"], "key_times": [653, 891, 1011, 1187, 1307, 1451, 1579, 1899, 2246, 2915, 3395, 3555, 3884, 4283, 5075, 5227, 5435, 5603, 5987, 6172, 6387, 9788, 9923, 10059, 10291, 10443, 10515, 10635, 10803, 10923, 11091, 11187, 11411, 11643, 11844, 27501, 27652, 27796, 27980, 28172, 28340], "trial_type": "free-recall", "conditions": [12, 800, "a", 24000], "internal_node_id": "0.0-164.0-0.0", "key_presses": [70, 82, 65, 78, 67, 69, 32, 69, 85, 82, 79, 80, 69, 32, 83, 65, 76, 77, 79, 78, 32, 83, 73, 83, 84, 69, 82, 32, 66, 82, 65, 78, 68, 89, 32, 83, 72, 69, 76, 76, 32], "trial": 6, "time_elapsed": 1184579, "type": "FREE_RECALL", "trial_index": 227}, "uniqueid": "MTK1592:3ND9UOO81L9ALQBJRYE81ALX9Q3LW4", "dateTime": 1516043951034}, {"current_trial": 228, "trialdata": {"rt": 11416, "trial_type": "text", "internal_node_id": "0.0-165.0", "time_elapsed": 1198003, "key_press": 32, "type": "INSTRUCTIONS", "trial_index": 228}, "uniqueid": "MTK1592:3ND9UOO81L9ALQBJRYE81ALX9Q3LW4", "dateTime": 1516043964456}, {"current_trial": 229, "trialdata": {"rt": [3001, 7705], "trial_type": "math-distractor", "key_times": [2577, 3001, 7200, 7449, 7705, 10504, 11553, 11968], "responses": ["7", "13"], "num2": [2, 1, 9], "num3": [1, 5, 7], "conditions": [24, 1600, "a", 12000], "internal_node_id": "0.0-166.0", "key_presses": [55, 13, 49, 51, 13, 49, 8, 50], "trial": 7, "time_elapsed": 1212012, "type": "DISTRACTOR", "trial_index": 229, "num1": [4, 7, 7]}, "uniqueid": "MTK1592:3ND9UOO81L9ALQBJRYE81ALX9Q3LW4", "dateTime": 1516043978465}, {"current_trial": 230, "trialdata": {"rt": -1, "trial_type": "single-stim", "stimulus": "<p id=\"stim\">10</p>", "internal_node_id": "0.0-167.0-0.0", "time_elapsed": 1215022, "key_press": -1, "trial_index": 230}, "uniqueid": "MTK1592:3ND9UOO81L9ALQBJRYE81ALX9Q3LW4", "dateTime": 1516043981475}, {"current_trial": 231, "trialdata": {"rt": -1, "trial_type": "single-stim", "stimulus": "<p id=\"stim\">9</p>", "internal_node_id": "0.0-167.0-1.0", "time_elapsed": 1216026, "key_press": -1, "trial_index": 231}, "uniqueid": "MTK1592:3ND9UOO81L9ALQBJRYE81ALX9Q3LW4", "dateTime": 1516043982479}, {"current_trial": 232, "trialdata": {"rt": -1, "trial_type": "single-stim", "stimulus": "<p id=\"stim\">8</p>", "internal_node_id": "0.0-167.0-2.0", "time_elapsed": 1217030, "key_press": -1, "trial_index": 232}, "uniqueid": "MTK1592:3ND9UOO81L9ALQBJRYE81ALX9Q3LW4", "dateTime": 1516043983483}, {"current_trial": 233, "trialdata": {"rt": -1, "trial_type": "single-stim", "stimulus": "<p id=\"stim\">7</p>", "internal_node_id": "0.0-167.0-3.0", "time_elapsed": 1218034, "key_press": -1, "trial_index": 233}, "uniqueid": "MTK1592:3ND9UOO81L9ALQBJRYE81ALX9Q3LW4", "dateTime": 1516043984487}, {"current_trial": 234, "trialdata": {"rt": -1, "trial_type": "single-stim", "stimulus": "<p id=\"stim\">6</p>", "internal_node_id": "0.0-167.0-4.0", "time_elapsed": 1219038, "key_press": -1, "trial_index": 234}, "uniqueid": "MTK1592:3ND9UOO81L9ALQBJRYE81ALX9Q3LW4", "dateTime": 1516043985491}, {"current_trial": 235, "trialdata": {"rt": -1, "trial_type": "single-stim", "stimulus": "<p id=\"stim\">5</p>", "internal_node_id": "0.0-167.0-5.0", "time_elapsed": 1220042, "key_press": -1, "trial_index": 235}, "uniqueid": "MTK1592:3ND9UOO81L9ALQBJRYE81ALX9Q3LW4", "dateTime": 1516043986496}, {"current_trial": 236, "trialdata": {"rt": -1, "trial_type": "single-stim", "stimulus": "<p id=\"stim\">4</p>", "internal_node_id": "0.0-167.0-6.0", "time_elapsed": 1221047, "key_press": -1, "trial_index": 236}, "uniqueid": "MTK1592:3ND9UOO81L9ALQBJRYE81ALX9Q3LW4", "dateTime": 1516043987500}, {"current_trial": 237, "trialdata": {"rt": -1, "trial_type": "single-stim", "stimulus": "<p id=\"stim\">3</p>", "internal_node_id": "0.0-167.0-7.0", "time_elapsed": 1222050, "key_press": -1, "trial_index": 237}, "uniqueid": "MTK1592:3ND9UOO81L9ALQBJRYE81ALX9Q3LW4", "dateTime": 1516043988504}, {"current_trial": 238, "trialdata": {"rt": -1, "trial_type": "single-stim", "stimulus": "<p id=\"stim\">2</p>", "internal_node_id": "0.0-167.0-8.0", "time_elapsed": 1223055, "key_press": -1, "trial_index": 238}, "uniqueid": "MTK1592:3ND9UOO81L9ALQBJRYE81ALX9Q3LW4", "dateTime": 1516043989508}, {"current_trial": 239, "trialdata": {"rt": -1, "trial_type": "single-stim", "stimulus": "<p id=\"stim\">1</p>", "internal_node_id": "0.0-167.0-9.0", "time_elapsed": 1224060, "key_press": -1, "trial_index": 239}, "uniqueid": "MTK1592:3ND9UOO81L9ALQBJRYE81ALX9Q3LW4", "dateTime": 1516043990513}, {"current_trial": 240, "trialdata": {"rt": -1, "trial_type": "single-stim", "stimulus": "<p id=\"stim\">+</p>", "internal_node_id": "0.0-168.0-0.0", "time_elapsed": 1225564, "key_press": -1, "type": "FIXATION", "trial_index": 240}, "uniqueid": "MTK1592:3ND9UOO81L9ALQBJRYE81ALX9Q3LW4", "dateTime": 1516043992018}, {"current_trial": 241, "trialdata": {"rt": -1000, "trial_type": "single-audio", "word": "perfume", "stimulus": "/static/audio/wordpool/PERFUME.wav", "conditions": [24, 1600, "a", 12000], "internal_node_id": "0.0-169.0", "trial": 7, "time_elapsed": 1228008, "serialpos": 0, "key_press": -1, "wordID": 1048, "type": "PRES_AUD", "trial_index": 241}, "uniqueid": "MTK1592:3ND9UOO81L9ALQBJRYE81ALX9Q3LW4", "dateTime": 1516043994462}, {"current_trial": 242, "trialdata": {"rt": -1000, "trial_type": "single-audio", "word": "ozone", "stimulus": "/static/audio/wordpool/OZONE.wav", "conditions": [24, 1600, "a", 12000], "internal_node_id": "0.0-170.0", "trial": 7, "time_elapsed": 1230495, "serialpos": 1, "key_press": -1, "wordID": 995, "type": "PRES_AUD", "trial_index": 242}, "uniqueid": "MTK1592:3ND9UOO81L9ALQBJRYE81ALX9Q3LW4", "dateTime": 1516043996948}, {"current_trial": 243, "trialdata": {"rt": -1000, "trial_type": "single-audio", "word": "smog", "stimulus": "/static/audio/wordpool/SMOG.wav", "conditions": [24, 1600, "a", 12000], "internal_node_id": "0.0-171.0", "trial": 7, "time_elapsed": 1232974, "serialpos": 2, "key_press": -1, "wordID": 1329, "type": "PRES_AUD", "trial_index": 243}, "uniqueid": "MTK1592:3ND9UOO81L9ALQBJRYE81ALX9Q3LW4", "dateTime": 1516043999427}, {"current_trial": 244, "trialdata": {"rt": -1000, "trial_type": "single-audio", "word": "monster", "stimulus": "/static/audio/wordpool/MONSTER.wav", "conditions": [24, 1600, "a", 12000], "internal_node_id": "0.0-172.0", "trial": 7, "time_elapsed": 1235574, "serialpos": 3, "key_press": -1, "wordID": 911, "type": "PRES_AUD", "trial_index": 244}, "uniqueid": "MTK1592:3ND9UOO81L9ALQBJRYE81ALX9Q3LW4", "dateTime": 1516044002027}, {"current_trial": 245, "trialdata": {"rt": -1000, "trial_type": "single-audio", "word": "gallon", "stimulus": "/static/audio/wordpool/GALLON.wav", "conditions": [24, 1600, "a", 12000], "internal_node_id": "0.0-173.0", "trial": 7, "time_elapsed": 1238238, "serialpos": 4, "key_press": -1, "wordID": 617, "type": "PRES_AUD", "trial_index": 245}, "uniqueid": "MTK1592:3ND9UOO81L9ALQBJRYE81ALX9Q3LW4", "dateTime": 1516044004691}, {"current_trial": 246, "trialdata": {"rt": -1000, "trial_type": "single-audio", "word": "stallion", "stimulus": "/static/audio/wordpool/STALLION.wav", "conditions": [24, 1600, "a", 12000], "internal_node_id": "0.0-174.0", "trial": 7, "time_elapsed": 1241013, "serialpos": 5, "key_press": -1, "wordID": 1368, "type": "PRES_AUD", "trial_index": 246}, "uniqueid": "MTK1592:3ND9UOO81L9ALQBJRYE81ALX9Q3LW4", "dateTime": 1516044007466}, {"current_trial": 247, "trialdata": {"rt": -1000, "trial_type": "single-audio", "word": "suspect", "stimulus": "/static/audio/wordpool/SUSPECT.wav", "conditions": [24, 1600, "a", 12000], "internal_node_id": "0.0-175.0", "trial": 7, "time_elapsed": 1243473, "serialpos": 6, "key_press": -1, "wordID": 1414, "type": "PRES_AUD", "trial_index": 247}, "uniqueid": "MTK1592:3ND9UOO81L9ALQBJRYE81ALX9Q3LW4", "dateTime": 1516044009926}, {"current_trial": 248, "trialdata": {"rt": -1000, "trial_type": "single-audio", "word": "hostess", "stimulus": "/static/audio/wordpool/HOSTESS.wav", "conditions": [24, 1600, "a", 12000], "internal_node_id": "0.0-176.0", "trial": 7, "time_elapsed": 1246098, "serialpos": 7, "key_press": -1, "wordID": 722, "type": "PRES_AUD", "trial_index": 248}, "uniqueid": "MTK1592:3ND9UOO81L9ALQBJRYE81ALX9Q3LW4", "dateTime": 1516044012551}, {"current_trial": 249, "trialdata": {"rt": -1000, "trial_type": "single-audio", "word": "fireplace", "stimulus": "/static/audio/wordpool/FIREPLACE.wav", "conditions": [24, 1600, "a", 12000], "internal_node_id": "0.0-177.0", "trial": 7, "time_elapsed": 1248672, "serialpos": 8, "key_press": -1, "wordID": 569, "type": "PRES_AUD", "trial_index": 249}, "uniqueid": "MTK1592:3ND9UOO81L9ALQBJRYE81ALX9Q3LW4", "dateTime": 1516044015126}, {"current_trial": 250, "trialdata": {"rt": -1000, "trial_type": "single-audio", "word": "police", "stimulus": "/static/audio/wordpool/POLICE.wav", "conditions": [24, 1600, "a", 12000], "internal_node_id": "0.0-178.0", "trial": 7, "time_elapsed": 1251152, "serialpos": 9, "key_press": -1, "wordID": 1097, "type": "PRES_AUD", "trial_index": 250}, "uniqueid": "MTK1592:3ND9UOO81L9ALQBJRYE81ALX9Q3LW4", "dateTime": 1516044017605}, {"current_trial": 251, "trialdata": {"rt": -1000, "trial_type": "single-audio", "word": "cashew", "stimulus": "/static/audi