{"assignmentId": "3AMW0RGHOE9APHH3RPGSM8HQL15NP8", "workerId": "MTK1699", "questiondata": {"origin": "United States", "strat-rehearsal": "96", "marital": "Married/Domestic Partnership", "education": "Bachelor's degree", "ethnicity": "Not Hispanic", "color_depth": 24, "distracted": "No", "wrote-notes": "No", "strat-other": "", "screen_width": 1366, "avail_screen_width": 1366, "avail_screen_height": 728, "strat-image": "17", "language": "English", "gender": "Female", "age": "27", "gender_other": "", "race": ["White"], "strat-categorize": "84", "pixel_depth": 24, "strat-spatial": "0", "strat-story": "17", "race_other": "", "screen_height": 768}, "bonus": 0, "hitId": "366FYU4PTGW3X09GVW3ZBK5YVGUKEG", "counterbalance": 796, "useragent": "Mozilla/5.0 (Windows NT 10.0; Win64; x64) AppleWebKit/537.36 (KHTML, like Gecko) Chrome/63.0.3239.132 Safari/537.36", "eventdata": [{"eventtype": "initialized", "interval": 0, "value": null, "timestamp": 1516127242060}, {"eventtype": "window_resize", "interval": 0, "value": [1366, 677], "timestamp": 1516127242060}, {"eventtype": "focus", "interval": 64615, "value": "off", "timestamp": 1516127306675}, {"eventtype": "focus", "interval": 12568, "value": "on", "timestamp": 1516127319243}, {"eventtype": "focus", "interval": 1506311, "value": "off", "timestamp": 1516128825554}, {"eventtype": "focus", "interval": 89540, "value": "on", "timestamp": 1516128915094}], "data": [{"current_trial": 0, "trialdata": {"rt": 2882, "trial_type": "text", "internal_node_id": "0.0-0.0", "time_elapsed": 2887, "key_press": 75, "type": "INSTRUCTIONS", "trial_index": 0}, "uniqueid": "MTK1699:3AMW0RGHOE9APHH3RPGSM8HQL15NP8", "dateTime": 1516127245441}, {"current_trial": 1, "trialdata": {"rt": 20034, "trial_type": "text", "internal_node_id": "0.0-1.0", "time_elapsed": 22926, "key_press": 32, "type": "INSTRUCTIONS", "trial_index": 1}, "uniqueid": "MTK1699:3AMW0RGHOE9APHH3RPGSM8HQL15NP8", "dateTime": 1516127265478}, {"current_trial": 2, "trialdata": {"rt": [23533], "trial_type": "audio-test", "responses": ["ocean"], "internal_node_id": "0.0-2.0", "time_elapsed": 46512, "type": "AUDIO_TEST", "trial_index": 2}, "uniqueid": "MTK1699:3AMW0RGHOE9APHH3RPGSM8HQL15NP8", "dateTime": 1516127289064}, {"current_trial": 3, "trialdata": {"rt": [4528], "trial_type": "audio-test", "responses": ["crystal"], "internal_node_id": "0.0-3.0", "time_elapsed": 51045, "type": "AUDIO_TEST", "trial_index": 3}, "uniqueid": "MTK1699:3AMW0RGHOE9APHH3RPGSM8HQL15NP8", "dateTime": 1516127293597}, {"current_trial": 4, "trialdata": {"rt": [4140], "trial_type": "audio-test", "responses": ["spice"], "internal_node_id": "0.0-4.0", "time_elapsed": 55188, "type": "AUDIO_TEST", "trial_index": 4}, "uniqueid": "MTK1699:3AMW0RGHOE9APHH3RPGSM8HQL15NP8", "dateTime": 1516127297740}, {"current_trial": 5, "trialdata": {"rt": 37411, "trial_type": "survey-text", "responses": "{\"Q0\":\"1:20am\",\"Q1\":\"7:00am\",\"Q2\":\"3\"}", "internal_node_id": "0.0-5.0", "time_elapsed": 93353, "type": "SLEEP_SURVEY", "trial_index": 5}, "uniqueid": "MTK1699:3AMW0RGHOE9APHH3RPGSM8HQL15NP8", "dateTime": 1516127335905}, {"current_trial": 6, "trialdata": {"rt": 3516, "trial_type": "text", "internal_node_id": "0.0-6.0", "time_elapsed": 97872, "key_press": 40, "type": "INSTRUCTIONS", "trial_index": 6}, "uniqueid": "MTK1699:3AMW0RGHOE9APHH3RPGSM8HQL15NP8", "dateTime": 1516127340425}, {"current_trial": 7, "trialdata": {"rt": 33616, "trial_type": "text", "internal_node_id": "0.0-7.0", "time_elapsed": 131990, "key_press": 39, "type": "INSTRUCTIONS", "trial_index": 7}, "uniqueid": "MTK1699:3AMW0RGHOE9APHH3RPGSM8HQL15NP8", "dateTime": 1516127374542}, {"current_trial": 8, "trialdata": {"rt": 7086, "trial_type": "text", "internal_node_id": "0.0-8.0", "time_elapsed": 139580, "key_press": 39, "type": "INSTRUCTIONS", "trial_index": 8}, "uniqueid": "MTK1699:3AMW0RGHOE9APHH3RPGSM8HQL15NP8", "dateTime": 1516127382133}, {"current_trial": 9, "trialdata": {"rt": [3500, 7203, 9341, 11029, 12807, 15411], "trial_type": "math-distractor", "key_times": [2695, 2793, 3500, 6849, 6941, 7203, 8859, 9018, 9341, 10781, 10910, 11029, 12717, 12807, 15132, 15259, 15411], "responses": ["15", "14", "15", "12", "7", "14"], "num2": [7, 7, 5, 2, 1, 7, 9], "num3": [3, 2, 9, 2, 2, 3, 7], "conditions": [18, 1200, "v", 18000], "internal_node_id": "0.0-9.0", "key_presses": [49, 53, 13, 49, 52, 13, 49, 53, 13, 49, 50, 13, 55, 13, 49, 52, 13], "trial": 0, "time_elapsed": 158596, "type": "DISTRACTOR", "trial_index": 9, "num1": [5, 5, 1, 8, 4, 4, 9]}, "uniqueid": "MTK1699:3AMW0RGHOE9APHH3RPGSM8HQL15NP8", "dateTime": 1516127401148}, {"current_trial": 10, "trialdata": {"rt": -1, "trial_type": "single-stim", "stimulus": "<p id=\"stim\">10</p>", "internal_node_id": "0.0-10.0-0.0", "time_elapsed": 161602, "key_press": -1, "trial_index": 10}, "uniqueid": "MTK1699:3AMW0RGHOE9APHH3RPGSM8HQL15NP8", "dateTime": 1516127404154}, {"current_trial": 11, "trialdata": {"rt": -1, "trial_type": "single-stim", "stimulus": "<p id=\"stim\">9</p>", "internal_node_id": "0.0-10.0-1.0", "time_elapsed": 162605, "key_press": -1, "trial_index": 11}, "uniqueid": "MTK1699:3AMW0RGHOE9APHH3RPGSM8HQL15NP8", "dateTime": 1516127405157}, {"current_trial": 12, "trialdata": {"rt": -1, "trial_type": "single-stim", "stimulus": "<p id=\"stim\">8</p>", "internal_node_id": "0.0-10.0-2.0", "time_elapsed": 163606, "key_press": -1, "trial_index": 12}, "uniqueid": "MTK1699:3AMW0RGHOE9APHH3RPGSM8HQL15NP8", "dateTime": 1516127406159}, {"current_trial": 13, "trialdata": {"rt": -1, "trial_type": "single-stim", "stimulus": "<p id=\"stim\">7</p>", "internal_node_id": "0.0-10.0-3.0", "time_elapsed": 164608, "key_press": -1, "trial_index": 13}, "uniqueid": "MTK1699:3AMW0RGHOE9APHH3RPGSM8HQL15NP8", "dateTime": 1516127407160}, {"current_trial": 14, "trialdata": {"rt": -1, "trial_type": "single-stim", "stimulus": "<p id=\"stim\">6</p>", "internal_node_id": "0.0-10.0-4.0", "time_elapsed": 165610, "key_press": -1, "trial_index": 14}, "uniqueid": "MTK1699:3AMW0RGHOE9APHH3RPGSM8HQL15NP8", "dateTime": 1516127408162}, {"current_trial": 15, "trialdata": {"rt": -1, "trial_type": "single-stim", "stimulus": "<p id=\"stim\">5</p>", "internal_node_id": "0.0-10.0-5.0", "time_elapsed": 166613, "key_press": -1, "trial_index": 15}, "uniqueid": "MTK1699:3AMW0RGHOE9APHH3RPGSM8HQL15NP8", "dateTime": 1516127409165}, {"current_trial": 16, "trialdata": {"rt": -1, "trial_type": "single-stim", "stimulus": "<p id=\"stim\">4</p>", "internal_node_id": "0.0-10.0-6.0", "time_elapsed": 167615, "key_press": -1, "trial_index": 16}, "uniqueid": "MTK1699:3AMW0RGHOE9APHH3RPGSM8HQL15NP8", "dateTime": 1516127410167}, {"current_trial": 17, "trialdata": {"rt": -1, "trial_type": "single-stim", "stimulus": "<p id=\"stim\">3</p>", "internal_node_id": "0.0-10.0-7.0", "time_elapsed": 168616, "key_press": -1, "trial_index": 17}, "uniqueid": "MTK1699:3AMW0RGHOE9APHH3RPGSM8HQL15NP8", "dateTime": 1516127411169}, {"current_trial": 18, "trialdata": {"rt": -1, "trial_type": "single-stim", "stimulus": "<p id=\"stim\">2</p>", "internal_node_id": "0.0-10.0-8.0", "time_elapsed": 169618, "key_press": -1, "trial_index": 18}, "uniqueid": "MTK1699:3AMW0RGHOE9APHH3RPGSM8HQL15NP8", "dateTime": 1516127412170}, {"current_trial": 19, "trialdata": {"rt": -1, "trial_type": "single-stim", "stimulus": "<p id=\"stim\">1</p>", "internal_node_id": "0.0-10.0-9.0", "time_elapsed": 170621, "key_press": -1, "trial_index": 19}, "uniqueid": "MTK1699:3AMW0RGHOE9APHH3RPGSM8HQL15NP8", "dateTime": 1516127413173}, {"current_trial": 20, "trialdata": {"rt": -1, "trial_type": "single-stim", "stimulus": "<p id=\"stim\">+</p>", "internal_node_id": "0.0-11.0-0.0", "time_elapsed": 172125, "key_press": -1, "type": "FIXATION", "trial_index": 20}, "uniqueid": "MTK1699:3AMW0RGHOE9APHH3RPGSM8HQL15NP8", "dateTime": 1516127414677}, {"current_trial": 21, "trialdata": {"rt": -1, "trial_type": "single-stim", "word": "bison", "stimulus": "<p id=\"stim\">BISON</p>", "conditions": [18, 1200, "v", 18000], "internal_node_id": "0.0-12.0", "trial": 0, "time_elapsed": 173328, "serialpos": 0, "key_press": -1, "wordID": 130, "type": "PRES_VIS", "trial_index": 21}, "uniqueid": "MTK1699:3AMW0RGHOE9APHH3RPGSM8HQL15NP8", "dateTime": 1516127415880}, {"current_trial": 22, "trialdata": {"rt": -1, "trial_type": "single-stim", "word": "widow", "stimulus": "<p id=\"stim\">WIDOW</p>", "conditions": [18, 1200, "v", 18000], "internal_node_id": "0.0-13.0", "trial": 0, "time_elapsed": 175336, "serialpos": 1, "key_press": -1, "wordID": 1607, "type": "PRES_VIS", "trial_index": 22}, "uniqueid": "MTK1699:3AMW0RGHOE9APHH3RPGSM8HQL15NP8", "dateTime": 1516127417888}, {"current_trial": 23, "trialdata": {"rt": -1, "trial_type": "single-stim", "word": "shelf", "stimulus": "<p id=\"stim\">SHELF</p>", "conditions": [18, 1200, "v", 18000], "internal_node_id": "0.0-14.0", "trial": 0, "time_elapsed": 177702, "serialpos": 2, "key_press": -1, "wordID": 1279, "type": "PRES_VIS", "trial_index": 23}, "uniqueid": "MTK1699:3AMW0RGHOE9APHH3RPGSM8HQL15NP8", "dateTime": 1516127420254}, {"current_trial": 24, "trialdata": {"rt": -1, "trial_type": "single-stim", "word": "forest", "stimulus": "<p id=\"stim\">FOREST</p>", "conditions": [18, 1200, "v", 18000], "internal_node_id": "0.0-15.0", "trial": 0, "time_elapsed": 179838, "serialpos": 3, "key_press": -1, "wordID": 592, "type": "PRES_VIS", "trial_index": 24}, "uniqueid": "MTK1699:3AMW0RGHOE9APHH3RPGSM8HQL15NP8", "dateTime": 1516127422391}, {"current_trial": 25, "trialdata": {"rt": -1, "trial_type": "single-stim", "word": "fiddle", "stimulus": "<p id=\"stim\">FIDDLE</p>", "conditions": [18, 1200, "v", 18000], "internal_node_id": "0.0-16.0", "trial": 0, "time_elapsed": 182132, "serialpos": 4, "key_press": -1, "wordID": 560, "type": "PRES_VIS", "trial_index": 25}, "uniqueid": "MTK1699:3AMW0RGHOE9APHH3RPGSM8HQL15NP8", "dateTime": 1516127424684}, {"current_trial": 26, "trialdata": {"rt": -1, "trial_type": "single-stim", "word": "softball", "stimulus": "<p id=\"stim\">SOFTBALL</p>", "conditions": [18, 1200, "v", 18000], "internal_node_id": "0.0-17.0", "trial": 0, "time_elapsed": 184144, "serialpos": 5, "key_press": -1, "wordID": 1342, "type": "PRES_VIS", "trial_index": 26}, "uniqueid": "MTK1699:3AMW0RGHOE9APHH3RPGSM8HQL15NP8", "dateTime": 1516127426696}, {"current_trial": 27, "trialdata": {"rt": -1, "trial_type": "single-stim", "word": "goblin", "stimulus": "<p id=\"stim\">GOBLIN</p>", "conditions": [18, 1200, "v", 18000], "internal_node_id": "0.0-18.0", "trial": 0, "time_elapsed": 186383, "serialpos": 6, "key_press": -1, "wordID": 644, "type": "PRES_VIS", "trial_index": 27}, "uniqueid": "MTK1699:3AMW0RGHOE9APHH3RPGSM8HQL15NP8", "dateTime": 1516127428936}, {"current_trial": 28, "trialdata": {"rt": -1, "trial_type": "single-stim", "word": "star", "stimulus": "<p id=\"stim\">STAR</p>", "conditions": [18, 1200, "v", 18000], "internal_node_id": "0.0-19.0", "trial": 0, "time_elapsed": 188593, "serialpos": 7, "key_press": -1, "wordID": 1372, "type": "PRES_VIS", "trial_index": 28}, "uniqueid": "MTK1699:3AMW0RGHOE9APHH3RPGSM8HQL15NP8", "dateTime": 1516127431146}, {"current_trial": 29, "trialdata": {"rt": -1, "trial_type": "single-stim", "word": "swamp", "stimulus": "<p id=\"stim\">SWAMP</p>", "conditions": [18, 1200, "v", 18000], "internal_node_id": "0.0-20.0", "trial": 0, "time_elapsed": 190778, "serialpos": 8, "key_press": -1, "wordID": 1415, "type": "PRES_VIS", "trial_index": 29}, "uniqueid": "MTK1699:3AMW0RGHOE9APHH3RPGSM8HQL15NP8", "dateTime": 1516127433330}, {"current_trial": 30, "trialdata": {"rt": -1, "trial_type": "single-stim", "word": "beaver", "stimulus": "<p id=\"stim\">BEAVER</p>", "conditions": [18, 1200, "v", 18000], "internal_node_id": "0.0-21.0", "trial": 0, "time_elapsed": 192839, "serialpos": 9, "key_press": -1, "wordID": 108, "type": "PRES_VIS", "trial_index": 30}, "uniqueid": "MTK1699:3AMW0RGHOE9APHH3RPGSM8HQL15NP8", "dateTime": 1516127435391}, {"current_trial": 31, "trialdata": {"rt": -1, "trial_type": "single-stim", "word": "film", "stimulus": "<p id=\"stim\">FILM</p>", "conditions": [18, 1200, "v", 18000], "internal_node_id": "0.0-22.0", "trial": 0, "time_elapsed": 195132, "serialpos": 10, "key_press": -1, "wordID": 564, "type": "PRES_VIS", "trial_index": 31}, "uniqueid": "MTK1699:3AMW0RGHOE9APHH3RPGSM8HQL15NP8", "dateTime": 1516127437684}, {"current_trial": 32, "trialdata": {"rt": -1, "trial_type": "single-stim", "word": "expert", "stimulus": "<p id=\"stim\">EXPERT</p>", "conditions": [18, 1200, "v", 18000], "internal_node_id": "0.0-23.0", "trial": 0, "time_elapsed": 197247, "serialpos": 11, "key_press": -1, "wordID": 542, "type": "PRES_VIS", "trial_index": 32}, "uniqueid": "MTK1699:3AMW0RGHOE9APHH3RPGSM8HQL15NP8", "dateTime": 1516127439799}, {"current_trial": 33, "trialdata": {"rt": -1, "trial_type": "single-stim", "word": "asia", "stimulus": "<p id=\"stim\">ASIA</p>", "conditions": [18, 1200, "v", 18000], "internal_node_id": "0.0-24.0", "trial": 0, "time_elapsed": 199500, "serialpos": 12, "key_press": -1, "wordID": 45, "type": "PRES_VIS", "trial_index": 33}, "uniqueid": "MTK1699:3AMW0RGHOE9APHH3RPGSM8HQL15NP8", "dateTime": 1516127442052}, {"current_trial": 34, "trialdata": {"rt": -1, "trial_type": "single-stim", "word": "dresser", "stimulus": "<p id=\"stim\">DRESSER</p>", "conditions": [18, 1200, "v", 18000], "internal_node_id": "0.0-25.0", "trial": 0, "time_elapsed": 201600, "serialpos": 13, "key_press": -1, "wordID": 495, "type": "PRES_VIS", "trial_index": 34}, "uniqueid": "MTK1699:3AMW0RGHOE9APHH3RPGSM8HQL15NP8", "dateTime": 1516127444152}, {"current_trial": 35, "trialdata": {"rt": -1, "trial_type": "single-stim", "word": "empire", "stimulus": "<p id=\"stim\">EMPIRE</p>", "conditions": [18, 1200, "v", 18000], "internal_node_id": "0.0-26.0", "trial": 0, "time_elapsed": 203617, "serialpos": 14, "key_press": -1, "wordID": 529, "type": "PRES_VIS", "trial_index": 35}, "uniqueid": "MTK1699:3AMW0RGHOE9APHH3RPGSM8HQL15NP8", "dateTime": 1516127446169}, {"current_trial": 36, "trialdata": {"rt": -1, "trial_type": "single-stim", "word": "champagne", "stimulus": "<p id=\"stim\">CHAMPAGNE</p>", "conditions": [18, 1200, "v", 18000], "internal_node_id": "0.0-27.0", "trial": 0, "time_elapsed": 205958, "serialpos": 15, "key_press": -1, "wordID": 277, "type": "PRES_VIS", "trial_index": 36}, "uniqueid": "MTK1699:3AMW0RGHOE9APHH3RPGSM8HQL15NP8", "dateTime": 1516127448510}, {"current_trial": 37, "trialdata": {"rt": -1, "trial_type": "single-stim", "word": "stone", "stimulus": "<p id=\"stim\">STONE</p>", "conditions": [18, 1200, "v", 18000], "internal_node_id": "0.0-28.0", "trial": 0, "time_elapsed": 208010, "serialpos": 16, "key_press": -1, "wordID": 1384, "type": "PRES_VIS", "trial_index": 37}, "uniqueid": "MTK1699:3AMW0RGHOE9APHH3RPGSM8HQL15NP8", "dateTime": 1516127450562}, {"current_trial": 38, "trialdata": {"rt": -1, "trial_type": "single-stim", "word": "sponge", "stimulus": "<p id=\"stim\">SPONGE</p>", "conditions": [18, 1200, "v", 18000], "internal_node_id": "0.0-29.0", "trial": 0, "time_elapsed": 210055, "serialpos": 17, "key_press": -1, "wordID": 1354, "type": "PRES_VIS", "trial_index": 38}, "uniqueid": "MTK1699:3AMW0RGHOE9APHH3RPGSM8HQL15NP8", "dateTime": 1516127452607}, {"current_trial": 39, "trialdata": {"rt": -1, "trial_type": "single-stim", "stimulus": "", "internal_node_id": "0.0-30.0-0.0", "time_elapsed": 212467, "key_press": -1, "type": "PRE_RECALL_DELAY", "trial_index": 39}, "uniqueid": "MTK1699:3AMW0RGHOE9APHH3RPGSM8HQL15NP8", "dateTime": 1516127455019}, {"current_trial": 40, "trialdata": {"rt": -1000, "trial_type": "single-audio", "stimulus": "/static/audio/400Hz.wav", "internal_node_id": "0.0-31.0", "time_elapsed": 212971, "key_press": -1, "type": "PRE_RECALL_ALERT", "trial_index": 40}, "uniqueid": "MTK1699:3AMW0RGHOE9APHH3RPGSM8HQL15NP8", "dateTime": 1516127455523}, {"current_trial": 41, "trialdata": {"rt": [2542, 4041, 6233, 7557, 16314, 20968, 22826, 27003, 36157], "recwords": ["sponge", "bison", "dresser", "widow", "champagne", "forest", "softball", "fence", "star"], "key_times": [1505, 1605, 1816, 1936, 2171, 2319, 2542, 3340, 3446, 3569, 3658, 3802, 4041, 4644, 4903, 5114, 5303, 5441, 5986, 6103, 6233, 6718, 6850, 7009, 7207, 7418, 7557, 7887, 8027, 8170, 8291, 8582, 8680, 9316, 9645, 10069, 11395, 11558, 11724, 12503, 12628, 14590, 14751, 14997, 15142, 15291, 16314, 17824, 17935, 18077, 18811, 18919, 19029, 19227, 19724, 19889, 20051, 20184, 20342, 20449, 20678, 20968, 21206, 21356, 21452, 21663, 22169, 22312, 22428, 22561, 22826, 26294, 26431, 26540, 26671, 26762, 27003, 35448, 35654, 35837, 35913, 36157], "trial_type": "free-recall", "conditions": [18, 1200, "v", 18000], "internal_node_id": "0.0-32.0-0.0", "key_presses": [83, 80, 79, 78, 71, 69, 13, 66, 73, 83, 79, 78, 13, 68, 82, 69, 83, 83, 69, 82, 13, 87, 73, 68, 79, 87, 13, 67, 72, 65, 77, 80, 65, 78, 71, 69, 8, 8, 8, 78, 69, 8, 8, 71, 78, 69, 13, 70, 79, 82, 82, 69, 83, 84, 8, 8, 8, 8, 69, 83, 84, 13, 83, 79, 70, 84, 66, 65, 76, 76, 13, 70, 69, 78, 67, 69, 13, 83, 84, 65, 82, 13], "trial": 0, "time_elapsed": 272978, "type": "FREE_RECALL", "trial_index": 41}, "uniqueid": "MTK1699:3AMW0RGHOE9APHH3RPGSM8HQL15NP8", "dateTime": 1516127515534}, {"current_trial": 42, "trialdata": {"rt": 1562, "trial_type": "text", "internal_node_id": "0.0-33.0", "time_elapsed": 276545, "key_press": 74, "type": "INSTRUCTIONS", "trial_index": 42}, "uniqueid": "MTK1699:3AMW0RGHOE9APHH3RPGSM8HQL15NP8", "dateTime": 1516127519097}, {"current_trial": 43, "trialdata": {"rt": [2255, 5374, 7726, 9553, 11495, 13464, 15641], "trial_type": "math-distractor", "key_times": [1861, 1957, 2255, 5127, 5235, 5374, 7463, 7586, 7726, 9213, 9291, 9553, 11245, 11495, 13206, 13327, 13464, 15266, 15371, 15641, 17791, 17873], "responses": ["12", "23", "15", "17", "7", "13", "18"], "num2": [6, 9, 6, 5, 3, 9, 8, 8], "num3": [1, 8, 8, 7, 2, 1, 8, 3], "conditions": [18, 1200, "v", 18000], "internal_node_id": "0.0-34.0", "key_presses": [49, 50, 13, 50, 51, 13, 49, 53, 13, 49, 55, 13, 55, 13, 49, 51, 13, 49, 56, 13, 49, 52], "trial": 1, "time_elapsed": 296549, "type": "DISTRACTOR", "trial_index": 43, "num1": [5, 6, 1, 5, 2, 3, 2, 3]}, "uniqueid": "MTK1699:3AMW0RGHOE9APHH3RPGSM8HQL15NP8", "dateTime": 1516127539102}, {"current_trial": 44, "trialdata": {"rt": -1, "trial_type": "single-stim", "stimulus": "<p id=\"stim\">10</p>", "internal_node_id": "0.0-35.0-0.0", "time_elapsed": 299553, "key_press": -1, "trial_index": 44}, "uniqueid": "MTK1699:3AMW0RGHOE9APHH3RPGSM8HQL15NP8", "dateTime": 1516127542105}, {"current_trial": 45, "trialdata": {"rt": -1, "trial_type": "single-stim", "stimulus": "<p id=\"stim\">9</p>", "internal_node_id": "0.0-35.0-1.0", "time_elapsed": 300555, "key_press": -1, "trial_index": 45}, "uniqueid": "MTK1699:3AMW0RGHOE9APHH3RPGSM8HQL15NP8", "dateTime": 1516127543107}, {"current_trial": 46, "trialdata": {"rt": -1, "trial_type": "single-stim", "stimulus": "<p id=\"stim\">8</p>", "internal_node_id": "0.0-35.0-2.0", "time_elapsed": 301556, "key_press": -1, "trial_index": 46}, "uniqueid": "MTK1699:3AMW0RGHOE9APHH3RPGSM8HQL15NP8", "dateTime": 1516127544108}, {"current_trial": 47, "trialdata": {"rt": -1, "trial_type": "single-stim", "stimulus": "<p id=\"stim\">7</p>", "internal_node_id": "0.0-35.0-3.0", "time_elapsed": 302558, "key_press": -1, "trial_index": 47}, "uniqueid": "MTK1699:3AMW0RGHOE9APHH3RPGSM8HQL15NP8", "dateTime": 1516127545110}, {"current_trial": 48, "trialdata": {"rt": -1, "trial_type": "single-stim", "stimulus": "<p id=\"stim\">6</p>", "internal_node_id": "0.0-35.0-4.0", "time_elapsed": 303560, "key_press": -1, "trial_index": 48}, "uniqueid": "MTK1699:3AMW0RGHOE9APHH3RPGSM8HQL15NP8", "dateTime": 1516127546113}, {"current_trial": 49, "trialdata": {"rt": -1, "trial_type": "single-stim", "stimulus": "<p id=\"stim\">5</p>", "internal_node_id": "0.0-35.0-5.0", "time_elapsed": 304563, "key_press": -1, "trial_index": 49}, "uniqueid": "MTK1699:3AMW0RGHOE9APHH3RPGSM8HQL15NP8", "dateTime": 1516127547115}, {"current_trial": 50, "trialdata": {"rt": -1, "trial_type": "single-stim", "stimulus": "<p id=\"stim\">4</p>", "internal_node_id": "0.0-35.0-6.0", "time_elapsed": 305565, "key_press": -1, "trial_index": 50}, "uniqueid": "MTK1699:3AMW0RGHOE9APHH3RPGSM8HQL15NP8", "dateTime": 1516127548117}, {"current_trial": 51, "trialdata": {"rt": -1, "trial_type": "single-stim", "stimulus": "<p id=\"stim\">3</p>", "internal_node_id": "0.0-35.0-7.0", "time_elapsed": 306568, "key_press": -1, "trial_index": 51}, "uniqueid": "MTK1699:3AMW0RGHOE9APHH3RPGSM8HQL15NP8", "dateTime": 1516127549120}, {"current_trial": 52, "trialdata": {"rt": -1, "trial_type": "single-stim", "stimulus": "<p id=\"stim\">2</p>", "internal_node_id": "0.0-35.0-8.0", "time_elapsed": 307569, "key_press": -1, "trial_index": 52}, "uniqueid": "MTK1699:3AMW0RGHOE9APHH3RPGSM8HQL15NP8", "dateTime": 1516127550122}, {"current_trial": 53, "trialdata": {"rt": -1, "trial_type": "single-stim", "stimulus": "<p id=\"stim\">1</p>", "internal_node_id": "0.0-35.0-9.0", "time_elapsed": 308571, "key_press": -1, "trial_index": 53}, "uniqueid": "MTK1699:3AMW0RGHOE9APHH3RPGSM8HQL15NP8", "dateTime": 1516127551123}, {"current_trial": 54, "trialdata": {"rt": -1, "trial_type": "single-stim", "stimulus": "<p id=\"stim\">+</p>", "internal_node_id": "0.0-36.0-0.0", "time_elapsed": 310073, "key_press": -1, "type": "FIXATION", "trial_index": 54}, "uniqueid": "MTK1699:3AMW0RGHOE9APHH3RPGSM8HQL15NP8", "dateTime": 1516127552625}, {"current_trial": 55, "trialdata": {"rt": -1, "trial_type": "single-stim", "word": "cowboy", "stimulus": "<p id=\"stim\">COWBOY</p>", "conditions": [18, 1200, "v", 18000], "internal_node_id": "0.0-37.0", "trial": 1, "time_elapsed": 311276, "serialpos": 0, "key_press": -1, "wordID": 394, "type": "PRES_VIS", "trial_index": 55}, "uniqueid": "MTK1699:3AMW0RGHOE9APHH3RPGSM8HQL15NP8", "dateTime": 1516127553829}, {"current_trial": 56, "trialdata": {"rt": -1, "trial_type": "single-stim", "word": "garbage", "stimulus": "<p id=\"stim\">GARBAGE</p>", "conditions": [18, 1200, "v", 18000], "internal_node_id": "0.0-38.0", "trial": 1, "time_elapsed": 313447, "serialpos": 1, "key_press": -1, "wordID": 621, "type": "PRES_VIS", "trial_index": 56}, "uniqueid": "MTK1699:3AMW0RGHOE9APHH3RPGSM8HQL15NP8", "dateTime": 1516127555999}, {"current_trial": 57, "trialdata": {"rt": -1, "trial_type": "single-stim", "word": "banker", "stimulus": "<p id=\"stim\">BANKER</p>", "conditions": [18, 1200, "v", 18000], "internal_node_id": "0.0-39.0", "trial": 1, "time_elapsed": 315780, "serialpos": 2, "key_press": -1, "wordID": 83, "type": "PRES_VIS", "trial_index": 57}, "uniqueid": "MTK1699:3AMW0RGHOE9APHH3RPGSM8HQL15NP8", "dateTime": 1516127558332}, {"current_trial": 58, "trialdata": {"rt": -1, "trial_type": "single-stim", "word": "lizard", "stimulus": "<p id=\"stim\">LIZARD</p>", "conditions": [18, 1200, "v", 18000], "internal_node_id": "0.0-40.0", "trial": 1, "time_elapsed": 317978, "serialpos": 3, "key_press": -1, "wordID": 833, "type": "PRES_VIS", "trial_index": 58}, "uniqueid": "MTK1699:3AMW0RGHOE9APHH3RPGSM8HQL15NP8", "dateTime": 1516127560530}, {"current_trial": 59, "trialdata": {"rt": -1, "trial_type": "single-stim", "word": "mars", "stimulus": "<p id=\"stim\">MARS</p>", "conditions": [18, 1200, "v", 18000], "internal_node_id": "0.0-41.0", "trial": 1, "time_elapsed": 320263, "serialpos": 4, "key_press": -1, "wordID": 872, "type": "PRES_VIS", "trial_index": 59}, "uniqueid": "MTK1699:3AMW0RGHOE9APHH3RPGSM8HQL15NP8", "dateTime": 1516127562815}, {"current_trial": 60, "trialdata": {"rt": -1, "trial_type": "single-stim", "word": "knife", "stimulus": "<p id=\"stim\">KNIFE</p>", "conditions": [18, 1200, "v", 18000], "internal_node_id": "0.0-42.0", "trial": 1, "time_elapsed": 322507, "serialpos": 5, "key_press": -1, "wordID": 784, "type": "PRES_VIS", "trial_index": 60}, "uniqueid": "MTK1699:3AMW0RGHOE9APHH3RPGSM8HQL15NP8", "dateTime": 1516127565059}, {"current_trial": 61, "trialdata": {"rt": -1, "trial_type": "single-stim", "word": "cabbage", "stimulus": "<p id=\"stim\">CABBAGE</p>", "conditions": [18, 1200, "v", 18000], "internal_node_id": "0.0-43.0", "trial": 1, "time_elapsed": 324533, "serialpos": 6, "key_press": -1, "wordID": 209, "type": "PRES_VIS", "trial_index": 61}, "uniqueid": "MTK1699:3AMW0RGHOE9APHH3RPGSM8HQL15NP8", "dateTime": 1516127567085}, {"current_trial": 62, "trialdata": {"rt": -1, "trial_type": "single-stim", "word": "typist", "stimulus": "<p id=\"stim\">TYPIST</p>", "conditions": [18, 1200, "v", 18000], "internal_node_id": "0.0-44.0", "trial": 1, "time_elapsed": 326769, "serialpos": 7, "key_press": -1, "wordID": 1531, "type": "PRES_VIS", "trial_index": 62}, "uniqueid": "MTK1699:3AMW0RGHOE9APHH3RPGSM8HQL15NP8", "dateTime": 1516127569322}, {"current_trial": 63, "trialdata": {"rt": -1, "trial_type": "single-stim", "word": "match", "stimulus": "<p id=\"stim\">MATCH</p>", "conditions": [18, 1200, "v", 18000], "internal_node_id": "0.0-45.0", "trial": 1, "time_elapsed": 329021, "serialpos": 8, "key_press": -1, "wordID": 877, "type": "PRES_VIS", "trial_index": 63}, "uniqueid": "MTK1699:3AMW0RGHOE9APHH3RPGSM8HQL15NP8", "dateTime": 1516127571573}, {"current_trial": 64, "trialdata": {"rt": -1, "trial_type": "single-stim", "word": "puppy", "stimulus": "<p id=\"stim\">PUPPY</p>", "conditions": [18, 1200, "v", 18000], "internal_node_id": "0.0-46.0", "trial": 1, "time_elapsed": 331180, "serialpos": 9, "key_press": -1, "wordID": 1143, "type": "PRES_VIS", "trial_index": 64}, "uniqueid": "MTK1699:3AMW0RGHOE9APHH3RPGSM8HQL15NP8", "dateTime": 1516127573733}, {"current_trial": 65, "trialdata": {"rt": -1, "trial_type": "single-stim", "word": "spouse", "stimulus": "<p id=\"stim\">SPOUSE</p>", "conditions": [18, 1200, "v", 18000], "internal_node_id": "0.0-47.0", "trial": 1, "time_elapsed": 333426, "serialpos": 10, "key_press": -1, "wordID": 1357, "type": "PRES_VIS", "trial_index": 65}, "uniqueid": "MTK1699:3AMW0RGHOE9APHH3RPGSM8HQL15NP8", "dateTime": 1516127575978}, {"current_trial": 66, "trialdata": {"rt": -1, "trial_type": "single-stim", "word": "treat", "stimulus": "<p id=\"stim\">TREAT</p>", "conditions": [18, 1200, "v", 18000], "internal_node_id": "0.0-48.0", "trial": 1, "time_elapsed": 335592, "serialpos": 11, "key_press": -1, "wordID": 1500, "type": "PRES_VIS", "trial_index": 66}, "uniqueid": "MTK1699:3AMW0RGHOE9APHH3RPGSM8HQL15NP8", "dateTime": 1516127578145}, {"current_trial": 67, "trialdata": {"rt": -1, "trial_type": "single-stim", "word": "padding", "stimulus": "<p id=\"stim\">PADDING</p>", "conditions": [18, 1200, "v", 18000], "internal_node_id": "0.0-49.0", "trial": 1, "time_elapsed": 337948, "serialpos": 12, "key_press": -1, "wordID": 998, "type": "PRES_VIS", "trial_index": 67}, "uniqueid": "MTK1699:3AMW0RGHOE9APHH3RPGSM8HQL15NP8", "dateTime": 1516127580501}, {"current_trial": 68, "trialdata": {"rt": -1, "trial_type": "single-stim", "word": "kidney", "stimulus": "<p id=\"stim\">KIDNEY</p>", "conditions": [18, 1200, "v", 18000], "internal_node_id": "0.0-50.0", "trial": 1, "time_elapsed": 340335, "serialpos": 13, "key_press": -1, "wordID": 775, "type": "PRES_VIS", "trial_index": 68}, "uniqueid": "MTK1699:3AMW0RGHOE9APHH3RPGSM8HQL15NP8", "dateTime": 1516127582891}, {"current_trial": 69, "trialdata": {"rt": -1, "trial_type": "single-stim", "word": "crutch", "stimulus": "<p id=\"stim\">CRUTCH</p>", "conditions": [18, 1200, "v", 18000], "internal_node_id": "0.0-51.0", "trial": 1, "time_elapsed": 342373, "serialpos": 14, "key_press": -1, "wordID": 416, "type": "PRES_VIS", "trial_index": 69}, "uniqueid": "MTK1699:3AMW0RGHOE9APHH3RPGSM8HQL15NP8", "dateTime": 1516127584925}, {"current_trial": 70, "trialdata": {"rt": -1, "trial_type": "single-stim", "word": "scribble", "stimulus": "<p id=\"stim\">SCRIBBLE</p>", "conditions": [18, 1200, "v", 18000], "internal_node_id": "0.0-52.0", "trial": 1, "time_elapsed": 344577, "serialpos": 15, "key_press": -1, "wordID": 1255, "type": "PRES_VIS", "trial_index": 70}, "uniqueid": "MTK1699:3AMW0RGHOE9APHH3RPGSM8HQL15NP8", "dateTime": 1516127587129}, {"current_trial": 71, "trialdata": {"rt": -1, "trial_type": "single-stim", "word": "flashlight", "stimulus": "<p id=\"stim\">FLASHLIGHT</p>", "conditions": [18, 1200, "v", 18000], "internal_node_id": "0.0-53.0", "trial": 1, "time_elapsed": 346752, "serialpos": 16, "key_press": -1, "wordID": 574, "type": "PRES_VIS", "trial_index": 71}, "uniqueid": "MTK1699:3AMW0RGHOE9APHH3RPGSM8HQL15NP8", "dateTime": 1516127589304}, {"current_trial": 72, "trialdata": {"rt": -1, "trial_type": "single-stim", "word": "stomach", "stimulus": "<p id=\"stim\">STOMACH</p>", "conditions": [18, 1200, "v", 18000], "internal_node_id": "0.0-54.0", "trial": 1, "time_elapsed": 349128, "serialpos": 17, "key_press": -1, "wordID": 1383, "type": "PRES_VIS", "trial_index": 72}, "uniqueid": "MTK1699:3AMW0RGHOE9APHH3RPGSM8HQL15NP8", "dateTime": 1516127591680}, {"current_trial": 73, "trialdata": {"rt": -1, "trial_type": "single-stim", "stimulus": "", "internal_node_id": "0.0-55.0-0.0", "time_elapsed": 351301, "key_press": -1, "type": "PRE_RECALL_DELAY", "trial_index": 73}, "uniqueid": "MTK1699:3AMW0RGHOE9APHH3RPGSM8HQL15NP8", "dateTime": 1516127593853}, {"current_trial": 74, "trialdata": {"rt": -1000, "trial_type": "single-audio", "stimulus": "/static/audio/400Hz.wav", "internal_node_id": "0.0-56.0", "time_elapsed": 351802, "key_press": -1, "type": "PRE_RECALL_ALERT", "trial_index": 74}, "uniqueid": "MTK1699:3AMW0RGHOE9APHH3RPGSM8HQL15NP8", "dateTime": 1516127594355}, {"current_trial": 75, "trialdata": {"rt": [3482, 4469, 9127, 42836], "recwords": ["cowboy", "banker", "stomach", "spouse"], "key_times": [2178, 2363, 2445, 2890, 3007, 3183, 3482, 3748, 3851, 3950, 4063, 4224, 4341, 4469, 7717, 7838, 7942, 8181, 8261, 8513, 8589, 9127, 41835, 41985, 42176, 42347, 42488, 42636, 42836], "trial_type": "free-recall", "conditions": [18, 1200, "v", 18000], "internal_node_id": "0.0-57.0-0.0", "key_presses": [67, 79, 87, 66, 79, 89, 13, 66, 65, 78, 75, 69, 82, 13, 83, 84, 79, 77, 65, 67, 72, 13, 83, 80, 79, 85, 83, 69, 13], "trial": 1, "time_elapsed": 411807, "type": "FREE_RECALL", "trial_index": 75}, "uniqueid": "MTK1699:3AMW0RGHOE9APHH3RPGSM8HQL15NP8", "dateTime": 1516127654364}, {"current_trial": 76, "trialdata": {"rt": 1776, "trial_type": "text", "internal_node_id": "0.0-58.0", "time_elapsed": 415589, "key_press": 13, "type": "INSTRUCTIONS", "trial_index": 76}, "uniqueid": "MTK1699:3AMW0RGHOE9APHH3RPGSM8HQL15NP8", "dateTime": 1516127658141}, {"current_trial": 77, "trialdata": {"rt": [2469, 4814, 6213, 7845, 9513, 11334], "trial_type": "math-distractor", "key_times": [2053, 2469, 4437, 4561, 4814, 5843, 5958, 6213, 7498, 7595, 7845, 9142, 9240, 9513, 11075, 11334], "responses": ["7", "10", "10", "17", "16", "9"], "num2": [2, 3, 1, 8, 5, 2, 1], "num3": [4, 4, 1, 7, 6, 3, 5], "conditions": [12, 800, "v", 12000], "internal_node_id": "0.0-59.0", "key_presses": [55, 13, 49, 48, 13, 49, 48, 13, 49, 55, 13, 49, 54, 13, 57, 13], "trial": 2, "time_elapsed": 428594, "type": "DISTRACTOR", "trial_index": 77, "num1": [1, 3, 8, 2, 5, 4, 1]}, "uniqueid": "MTK1699:3AMW0RGHOE9APHH3RPGSM8HQL15NP8", "dateTime": 1516127671146}, {"current_trial": 78, "trialdata": {"rt": -1, "trial_type": "single-stim", "stimulus": "<p id=\"stim\">10</p>", "internal_node_id": "0.0-60.0-0.0", "time_elapsed": 431597, "key_press": -1, "trial_index": 78}, "uniqueid": "MTK1699:3AMW0RGHOE9APHH3RPGSM8HQL15NP8", "dateTime": 1516127674149}, {"current_trial": 79, "trialdata": {"rt": -1, "trial_type": "single-stim", "stimulus": "<p id=\"stim\">9</p>", "internal_node_id": "0.0-60.0-1.0", "time_elapsed": 432599, "key_press": -1, "trial_index": 79}, "uniqueid": "MTK1699:3AMW0RGHOE9APHH3RPGSM8HQL15NP8", "dateTime": 1516127675151}, {"current_trial": 80, "trialdata": {"rt": -1, "trial_type": "single-stim", "stimulus": "<p id=\"stim\">8</p>", "internal_node_id": "0.0-60.0-2.0", "time_elapsed": 433600, "key_press": -1, "trial_index": 80}, "uniqueid": "MTK1699:3AMW0RGHOE9APHH3RPGSM8HQL15NP8", "dateTime": 1516127676153}, {"current_trial": 81, "trialdata": {"rt": -1, "trial_type": "single-stim", "stimulus": "<p id=\"stim\">7</p>", "internal_node_id": "0.0-60.0-3.0", "time_elapsed": 434602, "key_press": -1, "trial_index": 81}, "uniqueid": "MTK1699:3AMW0RGHOE9APHH3RPGSM8HQL15NP8", "dateTime": 1516127677154}, {"current_trial": 82, "trialdata": {"rt": -1, "trial_type": "single-stim", "stimulus": "<p id=\"stim\">6</p>", "internal_node_id": "0.0-60.0-4.0", "time_elapsed": 435604, "key_press": -1, "trial_index": 82}, "uniqueid": "MTK1699:3AMW0RGHOE9APHH3RPGSM8HQL15NP8", "dateTime": 1516127678157}, {"current_trial": 83, "trialdata": {"rt": -1, "trial_type": "single-stim", "stimulus": "<p id=\"stim\">5</p>", "internal_node_id": "0.0-60.0-5.0", "time_elapsed": 436606, "key_press": -1, "trial_index": 83}, "uniqueid": "MTK1699:3AMW0RGHOE9APHH3RPGSM8HQL15NP8", "dateTime": 1516127679158}, {"current_trial": 84, "trialdata": {"rt": -1, "trial_type": "single-stim", "stimulus": "<p id=\"stim\">4</p>", "internal_node_id": "0.0-60.0-6.0", "time_elapsed": 437607, "key_press": -1, "trial_index": 84}, "uniqueid": "MTK1699:3AMW0RGHOE9APHH3RPGSM8HQL15NP8", "dateTime": 1516127680159}, {"current_trial": 85, "trialdata": {"rt": -1, "trial_type": "single-stim", "stimulus": "<p id=\"stim\">3</p>", "internal_node_id": "0.0-60.0-7.0", "time_elapsed": 438609, "key_press": -1, "trial_index": 85}, "uniqueid": "MTK1699:3AMW0RGHOE9APHH3RPGSM8HQL15NP8", "dateTime": 1516127681161}, {"current_trial": 86, "trialdata": {"rt": -1, "trial_type": "single-stim", "stimulus": "<p id=\"stim\">2</p>", "internal_node_id": "0.0-60.0-8.0", "time_elapsed": 439611, "key_press": -1, "trial_index": 86}, "uniqueid": "MTK1699:3AMW0RGHOE9APHH3RPGSM8HQL15NP8", "dateTime": 1516127682163}, {"current_trial": 87, "trialdata": {"rt": -1, "trial_type": "single-stim", "stimulus": "<p id=\"stim\">1</p>", "internal_node_id": "0.0-60.0-9.0", "time_elapsed": 440612, "key_press": -1, "trial_index": 87}, "uniqueid": "MTK1699:3AMW0RGHOE9APHH3RPGSM8HQL15NP8", "dateTime": 1516127683164}, {"current_trial": 88, "trialdata": {"rt": -1, "trial_type": "single-stim", "stimulus": "<p id=\"stim\">+</p>", "internal_node_id": "0.0-61.0-0.0", "time_elapsed": 442116, "key_press": -1, "type": "FIXATION", "trial_index": 88}, "uniqueid": "MTK1699:3AMW0RGHOE9APHH3RPGSM8HQL15NP8", "dateTime": 1516127684668}, {"current_trial": 89, "trialdata": {"rt": -1, "trial_type": "single-stim", "word": "cashier", "stimulus": "<p id=\"stim\">CASHIER</p>", "conditions": [12, 800, "v", 12000], "internal_node_id": "0.0-62.0", "trial": 2, "time_elapsed": 442919, "serialpos": 0, "key_press": -1, "wordID": 253, "type": "PRES_VIS", "trial_index": 89}, "uniqueid": "MTK1699:3AMW0RGHOE9APHH3RPGSM8HQL15NP8", "dateTime": 1516127685471}, {"current_trial": 90, "trialdata": {"rt": -1, "trial_type": "single-stim", "word": "dancer", "stimulus": "<p id=\"stim\">DANCER</p>", "conditions": [12, 800, "v", 12000], "internal_node_id": "0.0-63.0", "trial": 2, "time_elapsed": 444882, "serialpos": 1, "key_press": -1, "wordID": 436, "type": "PRES_VIS", "trial_index": 90}, "uniqueid": "MTK1699:3AMW0RGHOE9APHH3RPGSM8HQL15NP8", "dateTime": 1516127687434}, {"current_trial": 91, "trialdata": {"rt": -1, "trial_type": "single-stim", "word": "gymnast", "stimulus": "<p id=\"stim\">GYMNAST</p>", "conditions": [12, 800, "v", 12000], "internal_node_id": "0.0-64.0", "trial": 2, "time_elapsed": 446698, "serialpos": 2, "key_press": -1, "wordID": 674, "type": "PRES_VIS", "trial_index": 91}, "uniqueid": "MTK1699:3AMW0RGHOE9APHH3RPGSM8HQL15NP8", "dateTime": 1516127689251}, {"current_trial": 92, "trialdata": {"rt": -1, "trial_type": "single-stim", "word": "waiter", "stimulus": "<p id=\"stim\">WAITER</p>", "conditions": [12, 800, "v", 12000], "internal_node_id": "0.0-65.0", "trial": 2, "time_elapsed": 448459, "serialpos": 3, "key_press": -1, "wordID": 1579, "type": "PRES_VIS", "trial_index": 92}, "uniqueid": "MTK1699:3AMW0RGHOE9APHH3RPGSM8HQL15NP8", "dateTime": 1516127691011}, {"current_trial": 93, "trialdata": {"rt": -1, "trial_type": "single-stim", "word": "ground", "stimulus": "<p id=\"stim\">GROUND</p>", "conditions": [12, 800, "v", 12000], "internal_node_id": "0.0-66.0", "trial": 2, "time_elapsed": 450377, "serialpos": 4, "key_press": -1, "wordID": 665, "type": "PRES_VIS", "trial_index": 93}, "uniqueid": "MTK1699:3AMW0RGHOE9APHH3RPGSM8HQL15NP8", "dateTime": 1516127692930}, {"current_trial": 94, "trialdata": {"rt": -1, "trial_type": "single-stim", "word": "muffin", "stimulus": "<p id=\"stim\">MUFFIN</p>", "conditions": [12, 800, "v", 12000], "internal_node_id": "0.0-67.0", "trial": 2, "time_elapsed": 452220, "serialpos": 5, "key_press": -1, "wordID": 928, "type": "PRES_VIS", "trial_index": 94}, "uniqueid": "MTK1699:3AMW0RGHOE9APHH3RPGSM8HQL15NP8", "dateTime": 1516127694773}, {"current_trial": 95, "trialdata": {"rt": -1, "trial_type": "single-stim", "word": "tweezers", "stimulus": "<p id=\"stim\">TWEEZERS</p>", "conditions": [12, 800, "v", 12000], "internal_node_id": "0.0-68.0", "trial": 2, "time_elapsed": 453840, "serialpos": 6, "key_press": -1, "wordID": 1525, "type": "PRES_VIS", "trial_index": 95}, "uniqueid": "MTK1699:3AMW0RGHOE9APHH3RPGSM8HQL15NP8", "dateTime": 1516127696392}, {"current_trial": 96, "trialdata": {"rt": -1, "trial_type": "single-stim", "word": "fungus", "stimulus": "<p id=\"stim\">FUNGUS</p>", "conditions": [12, 800, "v", 12000], "internal_node_id": "0.0-69.0", "trial": 2, "time_elapsed": 455789, "serialpos": 7, "key_press": -1, "wordID": 613, "type": "PRES_VIS", "trial_index": 96}, "uniqueid": "MTK1699:3AMW0RGHOE9APHH3RPGSM8HQL15NP8", "dateTime": 1516127698341}, {"current_trial": 97, "trialdata": {"rt": -1, "trial_type": "single-stim", "word": "smog", "stimulus": "<p id=\"stim\">SMOG</p>", "conditions": [12, 800, "v", 12000], "internal_node_id": "0.0-70.0", "trial": 2, "time_elapsed": 457485, "serialpos": 8, "key_press": -1, "wordID": 1329, "type": "PRES_VIS", "trial_index": 97}, "uniqueid": "MTK1699:3AMW0RGHOE9APHH3RPGSM8HQL15NP8", "dateTime": 1516127700037}, {"current_trial": 98, "trialdata": {"rt": -1, "trial_type": "single-stim", "word": "hostess", "stimulus": "<p id=\"stim\">HOSTESS</p>", "conditions": [12, 800, "v", 12000], "internal_node_id": "0.0-71.0", "trial": 2, "time_elapsed": 459214, "serialpos": 9, "key_press": -1, "wordID": 722, "type": "PRES_VIS", "trial_index": 98}, "uniqueid": "MTK1699:3AMW0RGHOE9APHH3RPGSM8HQL15NP8", "dateTime": 1516127701766}, {"current_trial": 99, "trialdata": {"rt": -1, "trial_type": "single-stim", "word": "lettuce", "stimulus": "<p id=\"stim\">LETTUCE</p>", "conditions": [12, 800, "v", 12000], "internal_node_id": "0.0-72.0", "trial": 2, "time_elapsed": 461117, "serialpos": 10, "key_press": -1, "wordID": 813, "type": "PRES_VIS", "trial_index": 99}, "uniqueid": "MTK1699:3AMW0RGHOE9APHH3RPGSM8HQL15NP8", "dateTime": 1516127703669}, {"current_trial": 100, "trialdata": {"rt": -1, "trial_type": "single-stim", "word": "pigment", "stimulus": "<p id=\"stim\">PIGMENT</p>", "conditions": [12, 800, "v", 12000], "internal_node_id": "0.0-73.0", "trial": 2, "time_elapsed": 462970, "serialpos": 11, "key_press": -1, "wordID": 1065, "type": "PRES_VIS", "trial_index": 100}, "uniqueid": "MTK1699:3AMW0RGHOE9APHH3RPGSM8HQL15NP8", "dateTime": 1516127705523}, {"current_trial": 101, "trialdata": {"rt": -1, "trial_type": "single-stim", "stimulus": "", "internal_node_id": "0.0-74.0-0.0", "time_elapsed": 465298, "key_press": -1, "type": "PRE_RECALL_DELAY", "trial_index": 101}, "uniqueid": "MTK1699:3AMW0RGHOE9APHH3RPGSM8HQL15NP8", "dateTime": 1516127707850}, {"current_trial": 102, "trialdata": {"rt": -1000, "trial_type": "single-audio", "stimulus": "/static/audio/400Hz.wav", "internal_node_id": "0.0-75.0", "time_elapsed": 465800, "key_press": -1, "type": "PRE_RECALL_ALERT", "trial_index": 102}, "uniqueid": "MTK1699:3AMW0RGHOE9APHH3RPGSM8HQL15NP8", "dateTime": 1516127708352}, {"current_trial": 103, "trialdata": {"rt": [2057, 3423, 4858, 6457, 8737, 9668, 17904, 33078], "recwords": ["pigment", "lettuce", "cashier", "hostess", "dancer", "water", "groundhog", "tweezers"], "key_times": [1006, 1144, 1347, 1614, 1722, 1804, 1902, 2057, 2391, 2543, 2744, 2897, 2993, 3190, 3278, 3423, 3634, 3771, 4180, 4283, 4510, 4604, 4689, 4858, 5425, 5518, 5580, 5739, 5911, 6205, 6360, 6457, 7221, 7360, 7451, 7584, 7725, 7894, 8336, 8441, 8737, 9060, 9197, 9307, 9479, 9555, 9668, 16311, 16506, 16584, 16661, 16864, 16956, 17198, 17369, 17508, 17904, 31544, 31777, 31976, 32105, 32280, 32475, 32568, 32825, 33078], "trial_type": "free-recall", "conditions": [12, 800, "v", 12000], "internal_node_id": "0.0-76.0-0.0", "key_presses": [80, 73, 71, 77, 69, 78, 84, 13, 76, 69, 84, 84, 85, 67, 69, 13, 67, 65, 83, 72, 73, 69, 82, 13, 72, 79, 83, 84, 69, 83, 83, 13, 68, 65, 78, 67, 69, 83, 8, 82, 13, 87, 65, 84, 69, 82, 13, 71, 82, 79, 85, 78, 68, 72, 79, 71, 13, 84, 87, 69, 69, 90, 69, 82, 83, 13], "trial": 2, "time_elapsed": 525806, "type": "FREE_RECALL", "trial_index": 103}, "uniqueid": "MTK1699:3AMW0RGHOE9APHH3RPGSM8HQL15NP8", "dateTime": 1516127768360}, {"current_trial": 104, "trialdata": {"rt": 1263, "trial_type": "text", "internal_node_id": "0.0-77.0", "time_elapsed": 529073, "key_press": 13, "type": "INSTRUCTIONS", "trial_index": 104}, "uniqueid": "MTK1699:3AMW0RGHOE9APHH3RPGSM8HQL15NP8", "dateTime": 1516127771625}, {"current_trial": 105, "trialdata": {"rt": [2300, 4407, 6657, 8090, 10530], "trial_type": "math-distractor", "key_times": [1927, 2039, 2300, 3660, 4147, 4407, 6253, 6406, 6657, 7682, 7813, 8090, 10155, 10278, 10530, 11916], "responses": ["13", "14", "18", "18", "17"], "num2": [5, 4, 7, 5, 7, 5], "num3": [2, 7, 3, 8, 4, 2], "conditions": [24, 1600, "v", 12000], "internal_node_id": "0.0-78.0", "key_presses": [49, 51, 13, 49, 52, 13, 49, 56, 13, 49, 56, 13, 49, 55, 13, 56], "trial": 3, "time_elapsed": 543078, "type": "DISTRACTOR", "trial_index": 105, "num1": [6, 3, 8, 5, 6, 1]}, "uniqueid": "MTK1699:3AMW0RGHOE9APHH3RPGSM8HQL15NP8", "dateTime": 1516127785630}, {"current_trial": 106, "trialdata": {"rt": -1, "trial_type": "single-stim", "stimulus": "<p id=\"stim\">10</p>", "internal_node_id": "0.0-79.0-0.0", "time_elapsed": 546081, "key_press": -1, "trial_index": 106}, "uniqueid": "MTK1699:3AMW0RGHOE9APHH3RPGSM8HQL15NP8", "dateTime": 1516127788634}, {"current_trial": 107, "trialdata": {"rt": -1, "trial_type": "single-stim", "stimulus": "<p id=\"stim\">9</p>", "internal_node_id": "0.0-79.0-1.0", "time_elapsed": 547083, "key_press": -1, "trial_index": 107}, "uniqueid": "MTK1699:3AMW0RGHOE9APHH3RPGSM8HQL15NP8", "dateTime": 1516127789635}, {"current_trial": 108, "trialdata": {"rt": -1, "trial_type": "single-stim", "stimulus": "<p id=\"stim\">8</p>", "internal_node_id": "0.0-79.0-2.0", "time_elapsed": 548085, "key_press": -1, "trial_index": 108}, "uniqueid": "MTK1699:3AMW0RGHOE9APHH3RPGSM8HQL15NP8", "dateTime": 1516127790637}, {"current_trial": 109, "trialdata": {"rt": -1, "trial_type": "single-stim", "stimulus": "<p id=\"stim\">7</p>", "internal_node_id": "0.0-79.0-3.0", "time_elapsed": 549086, "key_press": -1, "trial_index": 109}, "uniqueid": "MTK1699:3AMW0RGHOE9APHH3RPGSM8HQL15NP8", "dateTime": 1516127791639}, {"current_trial": 110, "trialdata": {"rt": -1, "trial_type": "single-stim", "stimulus": "<p id=\"stim\">6</p>", "internal_node_id": "0.0-79.0-4.0", "time_elapsed": 550089, "key_press": -1, "trial_index": 110}, "uniqueid": "MTK1699:3AMW0RGHOE9APHH3RPGSM8HQL15NP8", "dateTime": 1516127792641}, {"current_trial": 111, "trialdata": {"rt": -1, "trial_type": "single-stim", "stimulus": "<p id=\"stim\">5</p>", "internal_node_id": "0.0-79.0-5.0", "time_elapsed": 551091, "key_press": -1, "trial_index": 111}, "uniqueid": "MTK1699:3AMW0RGHOE9APHH3RPGSM8HQL15NP8", "dateTime": 1516127793643}, {"current_trial": 112, "trialdata": {"rt": -1, "trial_type": "single-stim", "stimulus": "<p id=\"stim\">4</p>", "internal_node_id": "0.0-79.0-6.0", "time_elapsed": 552094, "key_press": -1, "trial_index": 112}, "uniqueid": "MTK1699:3AMW0RGHOE9APHH3RPGSM8HQL15NP8", "dateTime": 1516127794646}, {"current_trial": 113, "trialdata": {"rt": -1, "trial_type": "single-stim", "stimulus": "<p id=\"stim\">3</p>", "internal_node_id": "0.0-79.0-7.0", "time_elapsed": 553095, "key_press": -1, "trial_index": 113}, "uniqueid": "MTK1699:3AMW0RGHOE9APHH3RPGSM8HQL15NP8", "dateTime": 1516127795647}, {"current_trial": 114, "trialdata": {"rt": -1, "trial_type": "single-stim", "stimulus": "<p id=\"stim\">2</p>", "internal_node_id": "0.0-79.0-8.0", "time_elapsed": 554097, "key_press": -1, "trial_index": 114}, "uniqueid": "MTK1699:3AMW0RGHOE9APHH3RPGSM8HQL15NP8", "dateTime": 1516127796649}, {"current_trial": 115, "trialdata": {"rt": -1, "trial_type": "single-stim", "stimulus": "<p id=\"stim\">1</p>", "internal_node_id": "0.0-79.0-9.0", "time_elapsed": 555098, "key_press": -1, "trial_index": 115}, "uniqueid": "MTK1699:3AMW0RGHOE9APHH3RPGSM8HQL15NP8", "dateTime": 1516127797651}, {"current_trial": 116, "trialdata": {"rt": -1, "trial_type": "single-stim", "stimulus": "<p id=\"stim\">+</p>", "internal_node_id": "0.0-80.0-0.0", "time_elapsed": 556600, "key_press": -1, "type": "FIXATION", "trial_index": 116}, "uniqueid": "MTK1699:3AMW0RGHOE9APHH3RPGSM8HQL15NP8", "dateTime": 1516127799152}, {"current_trial": 117, "trialdata": {"rt": -1, "trial_type": "single-stim", "word": "dorm", "stimulus": "<p id=\"stim\">DORM</p>", "conditions": [24, 1600, "v", 12000], "internal_node_id": "0.0-81.0", "trial": 3, "time_elapsed": 558201, "serialpos": 0, "key_press": -1, "wordID": 487, "type": "PRES_VIS", "trial_index": 117}, "uniqueid": "MTK1699:3AMW0RGHOE9APHH3RPGSM8HQL15NP8", "dateTime": 1516127800754}, {"current_trial": 118, "trialdata": {"rt": -1, "trial_type": "single-stim", "word": "author", "stimulus": "<p id=\"stim\">AUTHOR</p>", "conditions": [24, 1600, "v", 12000], "internal_node_id": "0.0-82.0", "trial": 3, "time_elapsed": 560860, "serialpos": 1, "key_press": -1, "wordID": 60, "type": "PRES_VIS", "trial_index": 118}, "uniqueid": "MTK1699:3AMW0RGHOE9APHH3RPGSM8HQL15NP8", "dateTime": 1516127803412}, {"current_trial": 119, "trialdata": {"rt": -1, "trial_type": "single-stim", "word": "princess", "stimulus": "<p id=\"stim\">PRINCESS</p>", "conditions": [24, 1600, "v", 12000], "internal_node_id": "0.0-83.0", "trial": 3, "time_elapsed": 563280, "serialpos": 2, "key_press": -1, "wordID": 1124, "type": "PRES_VIS", "trial_index": 119}, "uniqueid": "MTK1699:3AMW0RGHOE9APHH3RPGSM8HQL15NP8", "dateTime": 1516127805832}, {"current_trial": 120, "trialdata": {"rt": -1, "trial_type": "single-stim", "word": "wife", "stimulus": "<p id=\"stim\">WIFE</p>", "conditions": [24, 1600, "v", 12000], "internal_node_id": "0.0-84.0", "trial": 3, "time_elapsed": 566076, "serialpos": 3, "key_press": -1, "wordID": 1608, "type": "PRES_VIS", "trial_index": 120}, "uniqueid": "MTK1699:3AMW0RGHOE9APHH3RPGSM8HQL15NP8", "dateTime": 1516127808628}, {"current_trial": 121, "trialdata": {"rt": -1, "trial_type": "single-stim", "word": "lover", "stimulus": "<p id=\"stim\">LOVER</p>", "conditions": [24, 1600, "v", 12000], "internal_node_id": "0.0-85.0", "trial": 3, "time_elapsed": 568605, "serialpos": 4, "key_press": -1, "wordID": 845, "type": "PRES_VIS", "trial_index": 121}, "uniqueid": "MTK1699:3AMW0RGHOE9APHH3RPGSM8HQL15NP8", "dateTime": 1516127811157}, {"current_trial": 122, "trialdata": {"rt": -1, "trial_type": "single-stim", "word": "tablet", "stimulus": "<p id=\"stim\">TABLET</p>", "conditions": [24, 1600, "v", 12000], "internal_node_id": "0.0-86.0", "trial": 3, "time_elapsed": 571018, "serialpos": 5, "key_press": -1, "wordID": 1426, "type": "PRES_VIS", "trial_index": 122}, "uniqueid": "MTK1699:3AMW0RGHOE9APHH3RPGSM8HQL15NP8", "dateTime": 1516127813570}, {"current_trial": 123, "trialdata": {"rt": -1, "trial_type": "single-stim", "word": "beaker", "stimulus": "<p id=\"stim\">BEAKER</p>", "conditions": [24, 1600, "v", 12000], "internal_node_id": "0.0-87.0", "trial": 3, "time_elapsed": 573678, "serialpos": 6, "key_press": -1, "wordID": 103, "type": "PRES_VIS", "trial_index": 123}, "uniqueid": "MTK1699:3AMW0RGHOE9APHH3RPGSM8HQL15NP8", "dateTime": 1516127816230}, {"current_trial": 124, "trialdata": {"rt": -1, "trial_type": "single-stim", "word": "husband", "stimulus": "<p id=\"stim\">HUSBAND</p>", "conditions": [24, 1600, "v", 12000], "internal_node_id": "0.0-88.0", "trial": 3, "time_elapsed": 576341, "serialpos": 7, "key_press": -1, "wordID": 727, "type": "PRES_VIS", "trial_index": 124}, "uniqueid": "MTK1699:3AMW0RGHOE9APHH3RPGSM8HQL15NP8", "dateTime": 1516127818893}, {"current_trial": 125, "trialdata": {"rt": -1, "trial_type": "single-stim", "word": "panther", "stimulus": "<p id=\"stim\">PANTHER</p>", "conditions": [24, 1600, "v", 12000], "internal_node_id": "0.0-89.0", "trial": 3, "time_elapsed": 579063, "serialpos": 8, "key_press": -1, "wordID": 1008, "type": "PRES_VIS", "trial_index": 125}, "uniqueid": "MTK1699:3AMW0RGHOE9APHH3RPGSM8HQL15NP8", "dateTime": 1516127821615}, {"current_trial": 126, "trialdata": {"rt": -1, "trial_type": "single-stim", "word": "zebra", "stimulus": "<p id=\"stim\">ZEBRA</p>", "conditions": [24, 1600, "v", 12000], "internal_node_id": "0.0-90.0", "trial": 3, "time_elapsed": 581626, "serialpos": 9, "key_press": -1, "wordID": 1634, "type": "PRES_VIS", "trial_index": 126}, "uniqueid": "MTK1699:3AMW0RGHOE9APHH3RPGSM8HQL15NP8", "dateTime": 1516127824178}, {"current_trial": 127, "trialdata": {"rt": -1, "trial_type": "single-stim", "word": "journal", "stimulus": "<p id=\"stim\">JOURNAL</p>", "conditions": [24, 1600, "v", 12000], "internal_node_id": "0.0-91.0", "trial": 3, "time_elapsed": 584343, "serialpos": 10, "key_press": -1, "wordID": 759, "type": "PRES_VIS", "trial_index": 127}, "uniqueid": "MTK1699:3AMW0RGHOE9APHH3RPGSM8HQL15NP8", "dateTime": 1516127826895}, {"current_trial": 128, "trialdata": {"rt": -1, "trial_type": "single-stim", "word": "tunnel", "stimulus": "<p id=\"stim\">TUNNEL</p>", "conditions": [24, 1600, "v", 12000], "internal_node_id": "0.0-92.0", "trial": 3, "time_elapsed": 587131, "serialpos": 11, "key_press": -1, "wordID": 1518, "type": "PRES_VIS", "trial_index": 128}, "uniqueid": "MTK1699:3AMW0RGHOE9APHH3RPGSM8HQL15NP8", "dateTime": 1516127829683}, {"current_trial": 129, "trialdata": {"rt": -1, "trial_type": "single-stim", "word": "omelet", "stimulus": "<p id=\"stim\">OMELET</p>", "conditions": [24, 1600, "v", 12000], "internal_node_id": "0.0-93.0", "trial": 3, "time_elapsed": 589703, "serialpos": 12, "key_press": -1, "wordID": 975, "type": "PRES_VIS", "trial_index": 129}, "uniqueid": "MTK1699:3AMW0RGHOE9APHH3RPGSM8HQL15NP8", "dateTime": 1516127832255}, {"current_trial": 130, "trialdata": {"rt": -1, "trial_type": "single-stim", "word": "turkey", "stimulus": "<p id=\"stim\">TURKEY</p>", "conditions": [24, 1600, "v", 12000], "internal_node_id": "0.0-94.0", "trial": 3, "time_elapsed": 592211, "serialpos": 13, "key_press": -1, "wordID": 1519, "type": "PRES_VIS", "trial_index": 130}, "uniqueid": "MTK1699:3AMW0RGHOE9APHH3RPGSM8HQL15NP8", "dateTime": 1516127834763}, {"current_trial": 131, "trialdata": {"rt": -1, "trial_type": "single-stim", "word": "notebook", "stimulus": "<p id=\"stim\">NOTEBOOK</p>", "conditions": [24, 1600, "v", 12000], "internal_node_id": "0.0-95.0", "trial": 3, "time_elapsed": 594955, "serialpos": 14, "key_press": -1, "wordID": 958, "type": "PRES_VIS", "trial_index": 131}, "uniqueid": "MTK1699:3AMW0RGHOE9APHH3RPGSM8HQL15NP8", "dateTime": 1516127837508}, {"current_trial": 132, "trialdata": {"rt": -1, "trial_type": "single-stim", "word": "supper", "stimulus": "<p id=\"stim\">SUPPER</p>", "conditions": [24, 1600, "v", 12000], "internal_node_id": "0.0-96.0", "trial": 3, "time_elapsed": 597438, "serialpos": 15, "key_press": -1, "wordID": 1410, "type": "PRES_VIS", "trial_index": 132}, "uniqueid": "MTK1699:3AMW0RGHOE9APHH3RPGSM8HQL15NP8", "dateTime": 1516127839990}, {"current_trial": 133, "trialdata": {"rt": -1, "trial_type": "single-stim", "word": "donkey", "stimulus": "<p id=\"stim\">DONKEY</p>", "conditions": [24, 1600, "v", 12000], "internal_node_id": "0.0-97.0", "trial": 3, "time_elapsed": 600146, "serialpos": 16, "key_press": -1, "wordID": 483, "type": "PRES_VIS", "trial_index": 133}, "uniqueid": "MTK1699:3AMW0RGHOE9APHH3RPGSM8HQL15NP8", "dateTime": 1516127842698}, {"current_trial": 134, "trialdata": {"rt": -1, "trial_type": "single-stim", "word": "woman", "stimulus": "<p id=\"stim\">WOMAN</p>", "conditions": [24, 1600, "v", 12000], "internal_node_id": "0.0-98.0", "trial": 3, "time_elapsed": 602744, "serialpos": 17, "key_press": -1, "wordID": 1619, "type": "PRES_VIS", "trial_index": 134}, "uniqueid": "MTK1699:3AMW0RGHOE9APHH3RPGSM8HQL15NP8", "dateTime": 1516127845297}, {"current_trial": 135, "trialdata": {"rt": -1, "trial_type": "single-stim", "word": "clothes", "stimulus": "<p id=\"stim\">CLOTHES</p>", "conditions": [24, 1600, "v", 12000], "internal_node_id": "0.0-99.0", "trial": 3, "time_elapsed": 605430, "serialpos": 18, "key_press": -1, "wordID": 326, "type": "PRES_VIS", "trial_index": 135}, "uniqueid": "MTK1699:3AMW0RGHOE9APHH3RPGSM8HQL15NP8", "dateTime": 1516127847983}, {"current_trial": 136, "trialdata": {"rt": -1, "trial_type": "single-stim", "word": "marsh", "stimulus": "<p id=\"stim\">MARSH</p>", "conditions": [24, 1600, "v", 12000], "internal_node_id": "0.0-100.0", "trial": 3, "time_elapsed": 607850, "serialpos": 19, "key_press": -1, "wordID": 873, "type": "PRES_VIS", "trial_index": 136}, "uniqueid": "MTK1699:3AMW0RGHOE9APHH3RPGSM8HQL15NP8", "dateTime": 1516127850402}, {"current_trial": 137, "trialdata": {"rt": -1, "trial_type": "single-stim", "word": "river", "stimulus": "<p id=\"stim\">RIVER</p>", "conditions": [24, 1600, "v", 12000], "internal_node_id": "0.0-101.0", "trial": 3, "time_elapsed": 610564, "serialpos": 20, "key_press": -1, "wordID": 1193, "type": "PRES_VIS", "trial_index": 137}, "uniqueid": "MTK1699:3AMW0RGHOE9APHH3RPGSM8HQL15NP8", "dateTime": 1516127853116}, {"current_trial": 138, "trialdata": {"rt": -1, "trial_type": "single-stim", "word": "mailbox", "stimulus": "<p id=\"stim\">MAILBOX</p>", "conditions": [24, 1600, "v", 12000], "internal_node_id": "0.0-102.0", "trial": 3, "time_elapsed": 613028, "serialpos": 21, "key_press": -1, "wordID": 856, "type": "PRES_VIS", "trial_index": 138}, "uniqueid": "MTK1699:3AMW0RGHOE9APHH3RPGSM8HQL15NP8", "dateTime": 1516127855580}, {"current_trial": 139, "trialdata": {"rt": -1, "trial_type": "single-stim", "word": "tombstone", "stimulus": "<p id=\"stim\">TOMBSTONE</p>", "conditions": [24, 1600, "v", 12000], "internal_node_id": "0.0-103.0", "trial": 3, "time_elapsed": 615541, "serialpos": 22, "key_press": -1, "wordID": 1477, "type": "PRES_VIS", "trial_index": 139}, "uniqueid": "MTK1699:3AMW0RGHOE9APHH3RPGSM8HQL15NP8", "dateTime": 1516127858093}, {"current_trial": 140, "trialdata": {"rt": -1, "trial_type": "single-stim", "word": "nightgown", "stimulus": "<p id=\"stim\">NIGHTGOWN</p>", "conditions": [24, 1600, "v", 12000], "internal_node_id": "0.0-104.0", "trial": 3, "time_elapsed": 618085, "serialpos": 23, "key_press": -1, "wordID": 952, "type": "PRES_VIS", "trial_index": 140}, "uniqueid": "MTK1699:3AMW0RGHOE9APHH3RPGSM8HQL15NP8", "dateTime": 1516127860637}, {"current_trial": 141, "trialdata": {"rt": -1, "trial_type": "single-stim", "stimulus": "", "internal_node_id": "0.0-105.0-0.0", "time_elapsed": 620571, "key_press": -1, "type": "PRE_RECALL_DELAY", "trial_index": 141}, "uniqueid": "MTK1699:3AMW0RGHOE9APHH3RPGSM8HQL15NP8", "dateTime": 1516127863124}, {"current_trial": 142, "trialdata": {"rt": -1000, "trial_type": "single-audio", "stimulus": "/static/audio/400Hz.wav", "internal_node_id": "0.0-106.0", "time_elapsed": 621073, "key_press": -1, "type": "PRE_RECALL_ALERT", "trial_index": 142}, "uniqueid": "MTK1699:3AMW0RGHOE9APHH3RPGSM8HQL15NP8", "dateTime": 1516127863626}, {"current_trial": 143, "trialdata": {"rt": [1704, 3397, 6750, 8380, 9438, 10888, 11965], "recwords": ["mailbox", "tombstone", "nightgown", "dorm", "author", "princess", "wife"], "key_times": [631, 767, 859, 953, 1247, 1371, 1517, 1704, 2023, 2138, 2259, 2413, 2762, 2934, 3042, 3128, 3230, 3397, 4290, 4405, 4527, 4588, 4703, 5102, 5696, 5876, 5989, 6114, 6531, 6750, 7773, 7877, 8012, 8177, 8380, 8553, 8714, 8870, 8970, 9144, 9233, 9438, 9727, 9897, 10003, 10158, 10278, 10447, 10597, 10774, 10888, 11507, 11609, 11723, 11832, 11965, 15831, 16062, 16247, 16367, 16674, 17132, 17156, 17181, 17206, 17231, 17256, 17281, 17306, 17331, 17355, 17380], "trial_type": "free-recall", "conditions": [24, 1600, "v", 12000], "internal_node_id": "0.0-107.0-0.0", "key_presses": [77, 65, 73, 76, 66, 79, 88, 13, 84, 79, 77, 66, 83, 84, 79, 78, 69, 13, 78, 73, 71, 72, 84, 87, 8, 71, 79, 87, 78, 13, 68, 79, 82, 77, 13, 65, 85, 84, 72, 79, 82, 13, 80, 82, 73, 78, 67, 69, 83, 83, 13, 87, 73, 70, 69, 13, 77, 65, 73, 76, 8, 8, 8, 8, 8, 8, 8, 8, 8, 8, 8, 8], "trial": 3, "time_elapsed": 681077, "type": "FREE_RECALL", "trial_index": 143}, "uniqueid": "MTK1699:3AMW0RGHOE9APHH3RPGSM8HQL15NP8", "dateTime": 1516127923635}, {"current_trial": 144, "trialdata": {"rt": 1300, "trial_type": "text", "internal_node_id": "0.0-108.0", "time_elapsed": 684386, "key_press": 13, "type": "INSTRUCTIONS", "trial_index": 144}, "uniqueid": "MTK1699:3AMW0RGHOE9APHH3RPGSM8HQL15NP8", "dateTime": 1516127926938}, {"current_trial": 145, "trialdata": {"rt": [2255, 6333, 8668, 10428, 12990, 15948, 17984, 20246, 21713, 23530], "trial_type": "math-distractor", "key_times": [1999, 2111, 2255, 4814, 5476, 5896, 6064, 6333, 8339, 8428, 8668, 9982, 10112, 10428, 12610, 12680, 12990, 15647, 15754, 15948, 17743, 17984, 19914, 19995, 20246, 21457, 21553, 21713, 23159, 23249, 23530], "responses": ["14", "25", "14", "16", "12", "21", "9", "19", "12", "20"], "num2": [4, 8, 6, 5, 4, 9, 1, 7, 7, 8, 9], "num3": [6, 9, 1, 5, 3, 8, 2, 5, 2, 4, 8], "conditions": [12, 800, "v", 24000], "internal_node_id": "0.0-109.0", "key_presses": [49, 52, 13, 49, 8, 50, 53, 13, 49, 52, 13, 49, 54, 13, 49, 50, 13, 50, 49, 13, 57, 13, 49, 57, 13, 49, 50, 13, 50, 48, 13], "trial": 4, "time_elapsed": 710390, "type": "DISTRACTOR", "trial_index": 145, "num1": [4, 8, 7, 6, 5, 4, 6, 7, 3, 8, 3]}, "uniqueid": "MTK1699:3AMW0RGHOE9APHH3RPGSM8HQL15NP8", "dateTime": 1516127952942}, {"current_trial": 146, "trialdata": {"rt": -1, "trial_type": "single-stim", "stimulus": "<p id=\"stim\">10</p>", "internal_node_id": "0.0-110.0-0.0", "time_elapsed": 713394, "key_press": -1, "trial_index": 146}, "uniqueid": "MTK1699:3AMW0RGHOE9APHH3RPGSM8HQL15NP8", "dateTime": 1516127955946}, {"current_trial": 147, "trialdata": {"rt": -1, "trial_type": "single-stim", "stimulus": "<p id=\"stim\">9</p>", "internal_node_id": "0.0-110.0-1.0", "time_elapsed": 714397, "key_press": -1, "trial_index": 147}, "uniqueid": "MTK1699:3AMW0RGHOE9APHH3RPGSM8HQL15NP8", "dateTime": 1516127956949}, {"current_trial": 148, "trialdata": {"rt": -1, "trial_type": "single-stim", "stimulus": "<p id=\"stim\">8</p>", "internal_node_id": "0.0-110.0-2.0", "time_elapsed": 715399, "key_press": -1, "trial_index": 148}, "uniqueid": "MTK1699:3AMW0RGHOE9APHH3RPGSM8HQL15NP8", "dateTime": 1516127957951}, {"current_trial": 149, "trialdata": {"rt": -1, "trial_type": "single-stim", "stimulus": "<p id=\"stim\">7</p>", "internal_node_id": "0.0-110.0-3.0", "time_elapsed": 716400, "key_press": -1, "trial_index": 149}, "uniqueid": "MTK1699:3AMW0RGHOE9APHH3RPGSM8HQL15NP8", "dateTime": 1516127958952}, {"current_trial": 150, "trialdata": {"rt": -1, "trial_type": "single-stim", "stimulus": "<p id=\"stim\">6</p>", "internal_node_id": "0.0-110.0-4.0", "time_elapsed": 717402, "key_press": -1, "trial_index": 150}, "uniqueid": "MTK1699:3AMW0RGHOE9APHH3RPGSM8HQL15NP8", "dateTime": 1516127959954}, {"current_trial": 151, "trialdata": {"rt": -1, "trial_type": "single-stim", "stimulus": "<p id=\"stim\">5</p>", "internal_node_id": "0.0-110.0-5.0", "time_elapsed": 718405, "key_press": -1, "trial_index": 151}, "uniqueid": "MTK1699:3AMW0RGHOE9APHH3RPGSM8HQL15NP8", "dateTime": 1516127960957}, {"current_trial": 152, "trialdata": {"rt": -1, "trial_type": "single-stim", "stimulus": "<p id=\"stim\">4</p>", "internal_node_id": "0.0-110.0-6.0", "time_elapsed": 719407, "key_press": -1, "trial_index": 152}, "uniqueid": "MTK1699:3AMW0RGHOE9APHH3RPGSM8HQL15NP8", "dateTime": 1516127961960}, {"current_trial": 153, "trialdata": {"rt": -1, "trial_type": "single-stim", "stimulus": "<p id=\"stim\">3</p>", "internal_node_id": "0.0-110.0-7.0", "time_elapsed": 720409, "key_press": -1, "trial_index": 153}, "uniqueid": "MTK1699:3AMW0RGHOE9APHH3RPGSM8HQL15NP8", "dateTime": 1516127962961}, {"current_trial": 154, "trialdata": {"rt": -1, "trial_type": "single-stim", "stimulus": "<p id=\"stim\">2</p>", "internal_node_id": "0.0-110.0-8.0", "time_elapsed": 721410, "key_press": -1, "trial_index": 154}, "uniqueid": "MTK1699:3AMW0RGHOE9APHH3RPGSM8HQL15NP8", "dateTime": 1516127963962}, {"current_trial": 155, "trialdata": {"rt": -1, "trial_type": "single-stim", "stimulus": "<p id=\"stim\">1</p>", "internal_node_id": "0.0-110.0-9.0", "time_elapsed": 722411, "key_press": -1, "trial_index": 155}, "uniqueid": "MTK1699:3AMW0RGHOE9APHH3RPGSM8HQL15NP8", "dateTime": 1516127964964}, {"current_trial": 156, "trialdata": {"rt": -1, "trial_type": "single-stim", "stimulus": "<p id=\"stim\">+</p>", "internal_node_id": "0.0-111.0-0.0", "time_elapsed": 723913, "key_press": -1, "type": "FIXATION", "trial_index": 156}, "uniqueid": "MTK1699:3AMW0RGHOE9APHH3RPGSM8HQL15NP8", "dateTime": 1516127966466}, {"current_trial": 157, "trialdata": {"rt": -1, "trial_type": "single-stim", "word": "razor", "stimulus": "<p id=\"stim\">RAZOR</p>", "conditions": [12, 800, "v", 24000], "internal_node_id": "0.0-112.0", "trial": 4, "time_elapsed": 724715, "serialpos": 0, "key_press": -1, "wordID": 1170, "type": "PRES_VIS", "trial_index": 157}, "uniqueid": "MTK1699:3AMW0RGHOE9APHH3RPGSM8HQL15NP8", "dateTime": 1516127967267}, {"current_trial": 158, "trialdata": {"rt": -1, "trial_type": "single-stim", "word": "lava", "stimulus": "<p id=\"stim\">LAVA</p>", "conditions": [12, 800, "v", 24000], "internal_node_id": "0.0-113.0", "trial": 4, "time_elapsed": 726445, "serialpos": 1, "key_press": -1, "wordID": 803, "type": "PRES_VIS", "trial_index": 158}, "uniqueid": "MTK1699:3AMW0RGHOE9APHH3RPGSM8HQL15NP8", "dateTime": 1516127968997}, {"current_trial": 159, "trialdata": {"rt": -1, "trial_type": "single-stim", "word": "valley", "stimulus": "<p id=\"stim\">VALLEY</p>", "conditions": [12, 800, "v", 24000], "internal_node_id": "0.0-114.0", "trial": 4, "time_elapsed": 728380, "serialpos": 2, "key_press": -1, "wordID": 1544, "type": "PRES_VIS", "trial_index": 159}, "uniqueid": "MTK1699:3AMW0RGHOE9APHH3RPGSM8HQL15NP8", "dateTime": 1516127970933}, {"current_trial": 160, "trialdata": {"rt": -1, "trial_type": "single-stim", "word": "ointment", "stimulus": "<p id=\"stim\">OINTMENT</p>", "conditions": [12, 800, "v", 24000], "internal_node_id": "0.0-115.0", "trial": 4, "time_elapsed": 730353, "serialpos": 3, "key_press": -1, "wordID": 973, "type": "PRES_VIS", "trial_index": 160}, "uniqueid": "MTK1699:3AMW0RGHOE9APHH3RPGSM8HQL15NP8", "dateTime": 1516127972905}, {"current_trial": 161, "trialdata": {"rt": -1, "trial_type": "single-stim", "word": "monster", "stimulus": "<p id=\"stim\">MONSTER</p>", "conditions": [12, 800, "v", 24000], "internal_node_id": "0.0-116.0", "trial": 4, "time_elapsed": 732223, "serialpos": 4, "key_press": -1, "wordID": 911, "type": "PRES_VIS", "trial_index": 161}, "uniqueid": "MTK1699:3AMW0RGHOE9APHH3RPGSM8HQL15NP8", "dateTime": 1516127974775}, {"current_trial": 162, "trialdata": {"rt": -1, "trial_type": "single-stim", "word": "boyfriend", "stimulus": "<p id=\"stim\">BOYFRIEND</p>", "conditions": [12, 800, "v", 24000], "internal_node_id": "0.0-117.0", "trial": 4, "time_elapsed": 734052, "serialpos": 5, "key_press": -1, "wordID": 161, "type": "PRES_VIS", "trial_index": 162}, "uniqueid": "MTK1699:3AMW0RGHOE9APHH3RPGSM8HQL15NP8", "dateTime": 1516127976604}, {"current_trial": 163, "trialdata": {"rt": -1, "trial_type": "single-stim", "word": "freezer", "stimulus": "<p id=\"stim\">FREEZER</p>", "conditions": [12, 800, "v", 24000], "internal_node_id": "0.0-118.0", "trial": 4, "time_elapsed": 735705, "serialpos": 6, "key_press": -1, "wordID": 603, "type": "PRES_VIS", "trial_index": 163}, "uniqueid": "MTK1699:3AMW0RGHOE9APHH3RPGSM8HQL15NP8", "dateTime": 1516127978257}, {"current_trial": 164, "trialdata": {"rt": -1, "trial_type": "single-stim", "word": "piston", "stimulus": "<p id=\"stim\">PISTON</p>", "conditions": [12, 800, "v", 24000], "internal_node_id": "0.0-119.0", "trial": 4, "time_elapsed": 737624, "serialpos": 7, "key_press": -1, "wordID": 1075, "type": "PRES_VIS", "trial_index": 164}, "uniqueid": "MTK1699:3AMW0RGHOE9APHH3RPGSM8HQL15NP8", "dateTime": 1516127980177}, {"current_trial": 165, "trialdata": {"rt": -1, "trial_type": "single-stim", "word": "valve", "stimulus": "<p id=\"stim\">VALVE</p>", "conditions": [12, 800, "v", 24000], "internal_node_id": "0.0-120.0", "trial": 4, "time_elapsed": 739594, "serialpos": 8, "key_press": -1, "wordID": 1545, "type": "PRES_VIS", "trial_index": 165}, "uniqueid": "MTK1699:3AMW0RGHOE9APHH3RPGSM8HQL15NP8", "dateTime": 1516127982146}, {"current_trial": 166, "trialdata": {"rt": -1, "trial_type": "single-stim", "word": "soda", "stimulus": "<p id=\"stim\">SODA</p>", "conditions": [12, 800, "v", 24000], "internal_node_id": "0.0-121.0", "trial": 4, "time_elapsed": 741375, "serialpos": 9, "key_press": -1, "wordID": 1340, "type": "PRES_VIS", "trial_index": 166}, "uniqueid": "MTK1699:3AMW0RGHOE9APHH3RPGSM8HQL15NP8", "dateTime": 1516127983927}, {"current_trial": 167, "trialdata": {"rt": -1, "trial_type": "single-stim", "word": "brook", "stimulus": "<p id=\"stim\">BROOK</p>", "conditions": [12, 800, "v", 24000], "internal_node_id": "0.0-122.0", "trial": 4, "time_elapsed": 743318, "serialpos": 10, "key_press": -1, "wordID": 176, "type": "PRES_VIS", "trial_index": 167}, "uniqueid": "MTK1699:3AMW0RGHOE9APHH3RPGSM8HQL15NP8", "dateTime": 1516127985870}, {"current_trial": 168, "trialdata": {"rt": -1, "trial_type": "single-stim", "word": "beast", "stimulus": "<p id=\"stim\">BEAST</p>", "conditions": [12, 800, "v", 24000], "internal_node_id": "0.0-123.0", "trial": 4, "time_elapsed": 745116, "serialpos": 11, "key_press": -1, "wordID": 107, "type": "PRES_VIS", "trial_index": 168}, "uniqueid": "MTK1699:3AMW0RGHOE9APHH3RPGSM8HQL15NP8", "dateTime": 1516127987668}, {"current_trial": 169, "trialdata": {"rt": -1, "trial_type": "single-stim", "stimulus": "", "internal_node_id": "0.0-124.0-0.0", "time_elapsed": 747384, "key_press": -1, "type": "PRE_RECALL_DELAY", "trial_index": 169}, "uniqueid": "MTK1699:3AMW0RGHOE9APHH3RPGSM8HQL15NP8", "dateTime": 1516127989936}, {"current_trial": 170, "trialdata": {"rt": -1000, "trial_type": "single-audio", "stimulus": "/static/audio/400Hz.wav", "internal_node_id": "0.0-125.0", "time_elapsed": 747886, "key_press": -1, "type": "PRE_RECALL_ALERT", "trial_index": 170}, "uniqueid": "MTK1699:3AMW0RGHOE9APHH3RPGSM8HQL15NP8", "dateTime": 1516127990438}, {"current_trial": 171, "trialdata": {"rt": [1667, 2748, 4608, 6236, 7644, 9056, 11414, 16416, 20089], "recwords": ["beast", "brook", "boyfriend", "razor", "valley", "monster", "beast", "valley", "piston"], "key_times": [753, 912, 1083, 1162, 1516, 1667, 1906, 2122, 2225, 2360, 2494, 2748, 3148, 3279, 3410, 3656, 3937, 4153, 4255, 4336, 4489, 4608, 5382, 5567, 5810, 5947, 6110, 6236, 6751, 6884, 6923, 7084, 7276, 7360, 7644, 8037, 8270, 8373, 8495, 8619, 8834, 8931, 9056, 10402, 10614, 10793, 10945, 11203, 11414, 15552, 15745, 15831, 15974, 16086, 16193, 16416, 18981, 19110, 19231, 19444, 19791, 19895, 20089], "trial_type": "free-recall", "conditions": [12, 800, "v", 24000], "internal_node_id": "0.0-126.0-0.0", "key_presses": [66, 69, 65, 83, 84, 13, 66, 82, 79, 79, 75, 13, 66, 79, 89, 70, 82, 73, 69, 78, 68, 13, 82, 65, 90, 79, 82, 13, 86, 65, 76, 76, 69, 89, 13, 77, 79, 78, 83, 84, 69, 82, 13, 66, 69, 65, 83, 84, 13, 86, 65, 76, 76, 69, 89, 13, 80, 73, 83, 84, 79, 78, 13], "trial": 4, "time_elapsed": 807891, "type": "FREE_RECALL", "trial_index": 171}, "uniqueid": "MTK1699:3AMW0RGHOE9APHH3RPGSM8HQL15NP8", "dateTime": 1516128050452}, {"current_trial": 172, "trialdata": {"rt": 1098, "trial_type": "text", "internal_node_id": "0.0-127.0", "time_elapsed": 811000, "key_press": 13, "type": "INSTRUCTIONS", "trial_index": 172}, "uniqueid": "MTK1699:3AMW0RGHOE9APHH3RPGSM8HQL15NP8", "dateTime": 1516128053552}, {"current_trial": 173, "trialdata": {"rt": [1784, 5369, 7331, 9734, 11478, 13409, 14845, 17137, 20407, 23846], "trial_type": "math-distractor", "key_times": [1451, 1784, 5053, 5200, 5369, 7180, 7331, 9362, 9473, 9734, 11367, 11478, 13116, 13282, 13409, 14719, 14845, 16757, 16920, 17137, 20170, 20251, 20407, 23620, 23708, 23846], "responses": ["8", "22", "8", "18", "6", "11", "5", "15", "23", "21"], "num2": [4, 9, 4, 8, 1, 3, 1, 8, 5, 7, 8], "num3": [2, 6, 2, 8, 2, 6, 2, 1, 9, 8, 3], "conditions": [12, 1600, "v", 24000], "internal_node_id": "0.0-128.0", "key_presses": [56, 13, 50, 50, 13, 56, 13, 49, 56, 13, 54, 13, 49, 49, 13, 53, 13, 49, 53, 13, 50, 51, 13, 50, 49, 13], "trial": 5, "time_elapsed": 837006, "type": "DISTRACTOR", "trial_index": 173, "num1": [2, 7, 2, 2, 3, 2, 2, 6, 9, 6, 8]}, "uniqueid": "MTK1699:3AMW0RGHOE9APHH3RPGSM8HQL15NP8", "dateTime": 1516128079558}, {"current_trial": 174, "trialdata": {"rt": -1, "trial_type": "single-stim", "stimulus": "<p id=\"stim\">10</p>", "internal_node_id": "0.0-129.0-0.0", "time_elapsed": 840008, "key_press": -1, "trial_index": 174}, "uniqueid": "MTK1699:3AMW0RGHOE9APHH3RPGSM8HQL15NP8", "dateTime": 1516128082560}, {"current_trial": 175, "trialdata": {"rt": -1, "trial_type": "single-stim", "stimulus": "<p id=\"stim\">9</p>", "internal_node_id": "0.0-129.0-1.0", "time_elapsed": 841009, "key_press": -1, "trial_index": 175}, "uniqueid": "MTK1699:3AMW0RGHOE9APHH3RPGSM8HQL15NP8", "dateTime": 1516128083561}, {"current_trial": 176, "trialdata": {"rt": -1, "trial_type": "single-stim", "stimulus": "<p id=\"stim\">8</p>", "internal_node_id": "0.0-129.0-2.0", "time_elapsed": 842010, "key_press": -1, "trial_index": 176}, "uniqueid": "MTK1699:3AMW0RGHOE9APHH3RPGSM8HQL15NP8", "dateTime": 1516128084562}, {"current_trial": 177, "trialdata": {"rt": -1, "trial_type": "single-stim", "stimulus": "<p id=\"stim\">7</p>", "internal_node_id": "0.0-129.0-3.0", "time_elapsed": 843011, "key_press": -1, "trial_index": 177}, "uniqueid": "MTK1699:3AMW0RGHOE9APHH3RPGSM8HQL15NP8", "dateTime": 1516128085564}, {"current_trial": 178, "trialdata": {"rt": -1, "trial_type": "single-stim", "stimulus": "<p id=\"stim\">6</p>", "internal_node_id": "0.0-129.0-4.0", "time_elapsed": 844015, "key_press": -1, "trial_index": 178}, "uniqueid": "MTK1699:3AMW0RGHOE9APHH3RPGSM8HQL15NP8", "dateTime": 1516128086568}, {"current_trial": 179, "trialdata": {"rt": -1, "trial_type": "single-stim", "stimulus": "<p id=\"stim\">5</p>", "internal_node_id": "0.0-129.0-5.0", "time_elapsed": 845022, "key_press": -1, "trial_index": 179}, "uniqueid": "MTK1699:3AMW0RGHOE9APHH3RPGSM8HQL15NP8", "dateTime": 1516128087575}, {"current_trial": 180, "trialdata": {"rt": -1, "trial_type": "single-stim", "stimulus": "<p id=\"stim\">4</p>", "internal_node_id": "0.0-129.0-6.0", "time_elapsed": 846024, "key_press": -1, "trial_index": 180}, "uniqueid": "MTK1699:3AMW0RGHOE9APHH3RPGSM8HQL15NP8", "dateTime": 1516128088577}, {"current_trial": 181, "trialdata": {"rt": -1, "trial_type": "single-stim", "stimulus": "<p id=\"stim\">3</p>", "internal_node_id": "0.0-129.0-7.0", "time_elapsed": 847026, "key_press": -1, "trial_index": 181}, "uniqueid": "MTK1699:3AMW0RGHOE9APHH3RPGSM8HQL15NP8", "dateTime": 1516128089578}, {"current_trial": 182, "trialdata": {"rt": -1, "trial_type": "single-stim", "stimulus": "<p id=\"stim\">2</p>", "internal_node_id": "0.0-129.0-8.0", "time_elapsed": 848030, "key_press": -1, "trial_index": 182}, "uniqueid": "MTK1699:3AMW0RGHOE9APHH3RPGSM8HQL15NP8", "dateTime": 1516128090582}, {"current_trial": 183, "trialdata": {"rt": -1, "trial_type": "single-stim", "stimulus": "<p id=\"stim\">1</p>", "internal_node_id": "0.0-129.0-9.0", "time_elapsed": 849033, "key_press": -1, "trial_index": 183}, "uniqueid": "MTK1699:3AMW0RGHOE9APHH3RPGSM8HQL15NP8", "dateTime": 1516128091586}, {"current_trial": 184, "trialdata": {"rt": -1, "trial_type": "single-stim", "stimulus": "<p id=\"stim\">+</p>", "internal_node_id": "0.0-130.0-0.0", "time_elapsed": 850535, "key_press": -1, "type": "FIXATION", "trial_index": 184}, "uniqueid": "MTK1699:3AMW0RGHOE9APHH3RPGSM8HQL15NP8", "dateTime": 1516128093088}, {"current_trial": 185, "trialdata": {"rt": -1, "trial_type": "single-stim", "word": "motel", "stimulus": "<p id=\"stim\">MOTEL</p>", "conditions": [12, 1600, "v", 24000], "internal_node_id": "0.0-131.0", "trial": 5, "time_elapsed": 852139, "serialpos": 0, "key_press": -1, "wordID": 918, "type": "PRES_VIS", "trial_index": 185}, "uniqueid": "MTK1699:3AMW0RGHOE9APHH3RPGSM8HQL15NP8", "dateTime": 1516128094691}, {"current_trial": 186, "trialdata": {"rt": -1, "trial_type": "single-stim", "word": "forehead", "stimulus": "<p id=\"stim\">FOREHEAD</p>", "conditions": [12, 1600, "v", 24000], "internal_node_id": "0.0-132.0", "trial": 5, "time_elapsed": 854814, "serialpos": 1, "key_press": -1, "wordID": 591, "type": "PRES_VIS", "trial_index": 186}, "uniqueid": "MTK1699:3AMW0RGHOE9APHH3RPGSM8HQL15NP8", "dateTime": 1516128097367}, {"current_trial": 187, "trialdata": {"rt": -1, "trial_type": "single-stim", "word": "daisy", "stimulus": "<p id=\"stim\">DAISY</p>", "conditions": [12, 1600, "v", 24000], "internal_node_id": "0.0-133.0", "trial": 5, "time_elapsed": 857304, "serialpos": 2, "key_press": -1, "wordID": 434, "type": "PRES_VIS", "trial_index": 187}, "uniqueid": "MTK1699:3AMW0RGHOE9APHH3RPGSM8HQL15NP8", "dateTime": 1516128099856}, {"current_trial": 188, "trialdata": {"rt": -1, "trial_type": "single-stim", "word": "glove", "stimulus": "<p id=\"stim\">GLOVE</p>", "conditions": [12, 1600, "v", 24000], "internal_node_id": "0.0-134.0", "trial": 5, "time_elapsed": 860041, "serialpos": 3, "key_press": -1, "wordID": 641, "type": "PRES_VIS", "trial_index": 188}, "uniqueid": "MTK1699:3AMW0RGHOE9APHH3RPGSM8HQL15NP8", "dateTime": 1516128102593}, {"current_trial": 189, "trialdata": {"rt": -1, "trial_type": "single-stim", "word": "grape", "stimulus": "<p id=\"stim\">GRAPE</p>", "conditions": [12, 1600, "v", 24000], "internal_node_id": "0.0-135.0", "trial": 5, "time_elapsed": 862807, "serialpos": 4, "key_press": -1, "wordID": 653, "type": "PRES_VIS", "trial_index": 189}, "uniqueid": "MTK1699:3AMW0RGHOE9APHH3RPGSM8HQL15NP8", "dateTime": 1516128105359}, {"current_trial": 190, "trialdata": {"rt": -1, "trial_type": "single-stim", "word": "barley", "stimulus": "<p id=\"stim\">BARLEY</p>", "conditions": [12, 1600, "v", 24000], "internal_node_id": "0.0-136.0", "trial": 5, "time_elapsed": 865420, "serialpos": 5, "key_press": -1, "wordID": 87, "type": "PRES_VIS", "trial_index": 190}, "uniqueid": "MTK1699:3AMW0RGHOE9APHH3RPGSM8HQL15NP8", "dateTime": 1516128107972}, {"current_trial": 191, "trialdata": {"rt": -1, "trial_type": "single-stim", "word": "rabbit", "stimulus": "<p id=\"stim\">RABBIT</p>", "conditions": [12, 1600, "v", 24000], "internal_node_id": "0.0-137.0", "trial": 5, "time_elapsed": 867845, "serialpos": 6, "key_press": -1, "wordID": 1151, "type": "PRES_VIS", "trial_index": 191}, "uniqueid": "MTK1699:3AMW0RGHOE9APHH3RPGSM8HQL15NP8", "dateTime": 1516128110397}, {"current_trial": 192, "trialdata": {"rt": -1, "trial_type": "single-stim", "word": "pistol", "stimulus": "<p id=\"stim\">PISTOL</p>", "conditions": [12, 1600, "v", 24000], "internal_node_id": "0.0-138.0", "trial": 5, "time_elapsed": 870397, "serialpos": 7, "key_press": -1, "wordID": 1074, "type": "PRES_VIS", "trial_index": 192}, "uniqueid": "MTK1699:3AMW0RGHOE9APHH3RPGSM8HQL15NP8", "dateTime": 1516128112949}, {"current_trial": 193, "trialdata": {"rt": -1, "trial_type": "single-stim", "word": "ghetto", "stimulus": "<p id=\"stim\">GHETTO</p>", "conditions": [12, 1600, "v", 24000], "internal_node_id": "0.0-139.0", "trial": 5, "time_elapsed": 872943, "serialpos": 8, "key_press": -1, "wordID": 632, "type": "PRES_VIS", "trial_index": 193}, "uniqueid": "MTK1699:3AMW0RGHOE9APHH3RPGSM8HQL15NP8", "dateTime": 1516128115496}, {"current_trial": 194, "trialdata": {"rt": -1, "trial_type": "single-stim", "word": "chipmunk", "stimulus": "<p id=\"stim\">CHIPMUNK</p>", "conditions": [12, 1600, "v", 24000], "internal_node_id": "0.0-140.0", "trial": 5, "time_elapsed": 875482, "serialpos": 9, "key_press": -1, "wordID": 303, "type": "PRES_VIS", "trial_index": 194}, "uniqueid": "MTK1699:3AMW0RGHOE9APHH3RPGSM8HQL15NP8", "dateTime": 1516128118034}, {"current_trial": 195, "trialdata": {"rt": -1, "trial_type": "single-stim", "word": "apron", "stimulus": "<p id=\"stim\">APRON</p>", "conditions": [12, 1600, "v", 24000], "internal_node_id": "0.0-141.0", "trial": 5, "time_elapsed": 878225, "serialpos": 10, "key_press": -1, "wordID": 34, "type": "PRES_VIS", "trial_index": 195}, "uniqueid": "MTK1699:3AMW0RGHOE9APHH3RPGSM8HQL15NP8", "dateTime": 1516128120778}, {"current_trial": 196, "trialdata": {"rt": -1, "trial_type": "single-stim", "word": "carrot", "stimulus": "<p id=\"stim\">CARROT</p>", "conditions": [12, 1600, "v", 24000], "internal_node_id": "0.0-142.0", "trial": 5, "time_elapsed": 880881, "serialpos": 11, "key_press": -1, "wordID": 248, "type": "PRES_VIS", "trial_index": 196}, "uniqueid": "MTK1699:3AMW0RGHOE9APHH3RPGSM8HQL15NP8", "dateTime": 1516128123434}, {"current_trial": 197, "trialdata": {"rt": -1, "trial_type": "single-stim", "stimulus": "", "internal_node_id": "0.0-143.0-0.0", "time_elapsed": 883408, "key_press": -1, "type": "PRE_RECALL_DELAY", "trial_index": 197}, "uniqueid": "MTK1699:3AMW0RGHOE9APHH3RPGSM8HQL15NP8", "dateTime": 1516128125960}, {"current_trial": 198, "trialdata": {"rt": -1000, "trial_type": "single-audio", "stimulus": "/static/audio/400Hz.wav", "internal_node_id": "0.0-144.0", "time_elapsed": 883910, "key_press": -1, "type": "PRE_RECALL_ALERT", "trial_index": 198}, "uniqueid": "MTK1699:3AMW0RGHOE9APHH3RPGSM8HQL15NP8", "dateTime": 1516128126462}, {"current_trial": 199, "trialdata": {"rt": [1900, 3532, 6483, 7655, 8908, 11411, 12785, 20288], "recwords": ["carrot", "apron", "pistol", "ghetto", "daily", "daisy", "motel", "apron"], "key_times": [707, 870, 1176, 1432, 1608, 1721, 1900, 2105, 2778, 2964, 3103, 3255, 3532, 3929, 4034, 4227, 4542, 4701, 4847, 4961, 5309, 5420, 5534, 5913, 6053, 6237, 6483, 6728, 6832, 6953, 7165, 7300, 7409, 7655, 8191, 8319, 8417, 8498, 8694, 8908, 9215, 9817, 9964, 10168, 10543, 10820, 11047, 11159, 11411, 12067, 12163, 12236, 12404, 12548, 12785, 19454, 19590, 19792, 19920, 20026, 20288], "trial_type": "free-recall", "conditions": [12, 1600, "v", 24000], "internal_node_id": "0.0-145.0-0.0", "key_presses": [67, 65, 82, 82, 79, 84, 13, 65, 80, 82, 79, 78, 13, 83, 80, 73, 8, 8, 8, 8, 80, 73, 83, 84, 79, 76, 13, 71, 72, 69, 84, 84, 79, 13, 68, 65, 73, 76, 89, 13, 77, 8, 8, 68, 65, 73, 83, 89, 13, 77, 79, 84, 69, 76, 13, 65, 80, 82, 79, 78, 13], "trial": 5, "time_elapsed": 943913, "type": "FREE_RECALL", "trial_index": 199}, "uniqueid": "MTK1699:3AMW0RGHOE9APHH3RPGSM8HQL15NP8", "dateTime": 1516128186471}, {"current_trial": 200, "trialdata": {"rt": 1209, "trial_type": "text", "internal_node_id": "0.0-146.0", "time_elapsed": 947129, "key_press": 13, "type": "INSTRUCTIONS", "trial_index": 200}, "uniqueid": "MTK1699:3AMW0RGHOE9APHH3RPGSM8HQL15NP8", "dateTime": 1516128189681}, {"current_trial": 201, "trialdata": {"rt": [3037, 5161, 6697, 8903, 10697, 12465, 15018, 16648, 19045, 20709, 22542], "trial_type": "math-distractor", "key_times": [2765, 2848, 3037, 4935, 5016, 5161, 6482, 6565, 6697, 8650, 8733, 8903, 10353, 10455, 10697, 12203, 12269, 12465, 14657, 14733, 15018, 16444, 16539, 16648, 18728, 18792, 19045, 20489, 20709, 22283, 22417, 22542], "responses": ["24", "14", "12", "13", "17", "14", "19", "12", "18", "9", "14"], "num2": [9, 4, 8, 5, 4, 1, 3, 7, 4, 3, 5, 7], "num3": [8, 8, 3, 1, 7, 8, 7, 1, 9, 5, 1, 5], "conditions": [24, 800, "v", 24000], "internal_node_id": "0.0-147.0", "key_presses": [50, 52, 13, 49, 52, 13, 49, 50, 13, 49, 51, 13, 49, 55, 13, 49, 52, 13, 49, 57, 13, 49, 50, 13, 49, 56, 13, 57, 13, 49, 52, 13], "trial": 6, "time_elapsed": 973133, "type": "DISTRACTOR", "trial_index": 201, "num1": [7, 2, 1, 7, 6, 5, 9, 4, 5, 1, 8, 5]}, "uniqueid": "MTK1699:3AMW0RGHOE9APHH3RPGSM8HQL15NP8", "dateTime": 1516128215685}, {"current_trial": 202, "trialdata": {"rt": -1, "trial_type": "single-stim", "stimulus": "<p id=\"stim\">10</p>", "internal_node_id": "0.0-148.0-0.0", "time_elapsed": 976137, "key_press": -1, "trial_index": 202}, "uniqueid": "MTK1699:3AMW0RGHOE9APHH3RPGSM8HQL15NP8", "dateTime": 1516128218689}, {"current_trial": 203, "trialdata": {"rt": -1, "trial_type": "single-stim", "stimulus": "<p id=\"stim\">9</p>", "internal_node_id": "0.0-148.0-1.0", "time_elapsed": 977138, "key_press": -1, "trial_index": 203}, "uniqueid": "MTK1699:3AMW0RGHOE9APHH3RPGSM8HQL15NP8", "dateTime": 1516128219691}, {"current_trial": 204, "trialdata": {"rt": -1, "trial_type": "single-stim", "stimulus": "<p id=\"stim\">8</p>", "internal_node_id": "0.0-148.0-2.0", "time_elapsed": 978140, "key_press": -1, "trial_index": 204}, "uniqueid": "MTK1699:3AMW0RGHOE9APHH3RPGSM8HQL15NP8", "dateTime": 1516128220692}, {"current_trial": 205, "trialdata": {"rt": -1, "trial_type": "single-stim", "stimulus": "<p id=\"stim\">7</p>", "internal_node_id": "0.0-148.0-3.0", "time_elapsed": 979141, "key_press": -1, "trial_index": 205}, "uniqueid": "MTK1699:3AMW0RGHOE9APHH3RPGSM8HQL15NP8", "dateTime": 1516128221693}, {"current_trial": 206, "trialdata": {"rt": -1, "trial_type": "single-stim", "stimulus": "<p id=\"stim\">6</p>", "internal_node_id": "0.0-148.0-4.0", "time_elapsed": 980147, "key_press": -1, "trial_index": 206}, "uniqueid": "MTK1699:3AMW0RGHOE9APHH3RPGSM8HQL15NP8", "dateTime": 1516128222699}, {"current_trial": 207, "trialdata": {"rt": -1, "trial_type": "single-stim", "stimulus": "<p id=\"stim\">5</p>", "internal_node_id": "0.0-148.0-5.0", "time_elapsed": 981150, "key_press": -1, "trial_index": 207}, "uniqueid": "MTK1699:3AMW0RGHOE9APHH3RPGSM8HQL15NP8", "dateTime": 1516128223702}, {"current_trial": 208, "trialdata": {"rt": -1, "trial_type": "single-stim", "stimulus": "<p id=\"stim\">4</p>", "internal_node_id": "0.0-148.0-6.0", "time_elapsed": 982153, "key_press": -1, "trial_index": 208}, "uniqueid": "MTK1699:3AMW0RGHOE9APHH3RPGSM8HQL15NP8", "dateTime": 1516128224705}, {"current_trial": 209, "trialdata": {"rt": -1, "trial_type": "single-stim", "stimulus": "<p id=\"stim\">3</p>", "internal_node_id": "0.0-148.0-7.0", "time_elapsed": 983157, "key_press": -1, "trial_index": 209}, "uniqueid": "MTK1699:3AMW0RGHOE9APHH3RPGSM8HQL15NP8", "dateTime": 1516128225709}, {"current_trial": 210, "trialdata": {"rt": -1, "trial_type": "single-stim", "stimulus": "<p id=\"stim\">2</p>", "internal_node_id": "0.0-148.0-8.0", "time_elapsed": 984158, "key_press": -1, "trial_index": 210}, "uniqueid": "MTK1699:3AMW0RGHOE9APHH3RPGSM8HQL15NP8", "dateTime": 1516128226710}, {"current_trial": 211, "trialdata": {"rt": -1, "trial_type": "single-stim", "stimulus": "<p id=\"stim\">1</p>", "internal_node_id": "0.0-148.0-9.0", "time_elapsed": 985160, "key_press": -1, "trial_index": 211}, "uniqueid": "MTK1699:3AMW0RGHOE9APHH3RPGSM8HQL15NP8", "dateTime": 1516128227713}, {"current_trial": 212, "trialdata": {"rt": -1, "trial_type": "single-stim", "stimulus": "<p id=\"stim\">+</p>", "internal_node_id": "0.0-149.0-0.0", "time_elapsed": 986662, "key_press": -1, "type": "FIXATION", "trial_index": 212}, "uniqueid": "MTK1699:3AMW0RGHOE9APHH3RPGSM8HQL15NP8", "dateTime": 1516128229215}, {"current_trial": 213, "trialdata": {"rt": -1, "trial_type": "single-stim", "word": "fox", "stimulus": "<p id=\"stim\">FOX</p>", "conditions": [24, 800, "v", 24000], "internal_node_id": "0.0-150.0", "trial": 6, "time_elapsed": 987464, "serialpos": 0, "key_press": -1, "wordID": 597, "type": "PRES_VIS", "trial_index": 213}, "uniqueid": "MTK1699:3AMW0RGHOE9APHH3RPGSM8HQL15NP8", "dateTime": 1516128230016}, {"current_trial": 214, "trialdata": {"rt": -1, "trial_type": "single-stim", "word": "silk", "stimulus": "<p id=\"stim\">SILK</p>", "conditions": [24, 800, "v", 24000], "internal_node_id": "0.0-151.0", "trial": 6, "time_elapsed": 989452, "serialpos": 1, "key_press": -1, "wordID": 1306, "type": "PRES_VIS", "trial_index": 214}, "uniqueid": "MTK1699:3AMW0RGHOE9APHH3RPGSM8HQL15NP8", "dateTime": 1516128232004}, {"current_trial": 215, "trialdata": {"rt": -1, "trial_type": "single-stim", "word": "captive", "stimulus": "<p id=\"stim\">CAPTIVE</p>", "conditions": [24, 800, "v", 24000], "internal_node_id": "0.0-152.0", "trial": 6, "time_elapsed": 991158, "serialpos": 2, "key_press": -1, "wordID": 239, "type": "PRES_VIS", "trial_index": 215}, "uniqueid": "MTK1699:3AMW0RGHOE9APHH3RPGSM8HQL15NP8", "dateTime": 1516128233710}, {"current_trial": 216, "trialdata": {"rt": -1, "trial_type": "single-stim", "word": "napkin", "stimulus": "<p id=\"stim\">NAPKIN</p>", "conditions": [24, 800, "v", 24000], "internal_node_id": "0.0-153.0", "trial": 6, "time_elapsed": 992877, "serialpos": 3, "key_press": -1, "wordID": 936, "type": "PRES_VIS", "trial_index": 216}, "uniqueid": "MTK1699:3AMW0RGHOE9APHH3RPGSM8HQL15NP8", "dateTime": 1516128235429}, {"current_trial": 217, "trialdata": {"rt": -1, "trial_type": "single-stim", "word": "fruit", "stimulus": "<p id=\"stim\">FRUIT</p>", "conditions": [24, 800, "v", 24000], "internal_node_id": "0.0-154.0", "trial": 6, "time_elapsed": 994574, "serialpos": 4, "key_press": -1, "wordID": 609, "type": "PRES_VIS", "trial_index": 217}, "uniqueid": "MTK1699:3AMW0RGHOE9APHH3RPGSM8HQL15NP8", "dateTime": 1516128237126}, {"current_trial": 218, "trialdata": {"rt": -1, "trial_type": "single-stim", "word": "salmon", "stimulus": "<p id=\"stim\">SALMON</p>", "conditions": [24, 800, "v", 24000], "internal_node_id": "0.0-155.0", "trial": 6, "time_elapsed": 996552, "serialpos": 5, "key_press": -1, "wordID": 1226, "type": "PRES_VIS", "trial_index": 218}, "uniqueid": "MTK1699:3AMW0RGHOE9APHH3RPGSM8HQL15NP8", "dateTime": 1516128239104}, {"current_trial": 219, "trialdata": {"rt": -1, "trial_type": "single-stim", "word": "hamper", "stimulus": "<p id=\"stim\">HAMPER</p>", "conditions": [24, 800, "v", 24000], "internal_node_id": "0.0-156.0", "trial": 6, "time_elapsed": 998275, "serialpos": 6, "key_press": -1, "wordID": 681, "type": "PRES_VIS", "trial_index": 219}, "uniqueid": "MTK1699:3AMW0RGHOE9APHH3RPGSM8HQL15NP8", "dateTime": 1516128240827}, {"current_trial": 220, "trialdata": {"rt": -1, "trial_type": "single-stim", "word": "cupboard", "stimulus": "<p id=\"stim\">CUPBOARD</p>", "conditions": [24, 800, "v", 24000], "internal_node_id": "0.0-157.0", "trial": 6, "time_elapsed": 1000109, "serialpos": 7, "key_press": -1, "wordID": 424, "type": "PRES_VIS", "trial_index": 220}, "uniqueid": "MTK1699:3AMW0RGHOE9APHH3RPGSM8HQL15NP8", "dateTime": 1516128242661}, {"current_trial": 221, "trialdata": {"rt": -1, "trial_type": "single-stim", "word": "kitchen", "stimulus": "<p id=\"stim\">KITCHEN</p>", "conditions": [24, 800, "v", 24000], "internal_node_id": "0.0-158.0", "trial": 6, "time_elapsed": 1002003, "serialpos": 8, "key_press": -1, "wordID": 777, "type": "PRES_VIS", "trial_index": 221}, "uniqueid": "MTK1699:3AMW0RGHOE9APHH3RPGSM8HQL15NP8", "dateTime": 1516128244555}, {"current_trial": 222, "trialdata": {"rt": -1, "trial_type": "single-stim", "word": "snake", "stimulus": "<p id=\"stim\">SNAKE</p>", "conditions": [24, 800, "v", 24000], "internal_node_id": "0.0-159.0", "trial": 6, "time_elapsed": 1003661, "serialpos": 9, "key_press": -1, "wordID": 1332, "type": "PRES_VIS", "trial_index": 222}, "uniqueid": "MTK1699:3AMW0RGHOE9APHH3RPGSM8HQL15NP8", "dateTime": 1516128246214}, {"current_trial": 223, "trialdata": {"rt": -1, "trial_type": "single-stim", "word": "hero", "stimulus": "<p id=\"stim\">HERO</p>", "conditions": [24, 800, "v", 24000], "internal_node_id": "0.0-160.0", "trial": 6, "time_elapsed": 1005472, "serialpos": 10, "key_press": -1, "wordID": 705, "type": "PRES_VIS", "trial_index": 223}, "uniqueid": "MTK1699:3AMW0RGHOE9APHH3RPGSM8HQL15NP8", "dateTime": 1516128248024}, {"current_trial": 224, "trialdata": {"rt": -1, "trial_type": "single-stim", "word": "wrench", "stimulus": "<p id=\"stim\">WRENCH</p>", "conditions": [24, 800, "v", 24000], "internal_node_id": "0.0-161.0", "trial": 6, "time_elapsed": 1007442, "serialpos": 11, "key_press": -1, "wordID": 1624, "type": "PRES_VIS", "trial_index": 224}, "uniqueid": "MTK1699:3AMW0RGHOE9APHH3RPGSM8HQL15NP8", "dateTime": 1516128249994}, {"current_trial": 225, "trialdata": {"rt": -1, "trial_type": "single-stim", "word": "pepper", "stimulus": "<p id=\"stim\">PEPPER</p>", "conditions": [24, 800, "v", 24000], "internal_node_id": "0.0-162.0", "trial": 6, "time_elapsed": 1009258, "serialpos": 12, "key_press": -1, "wordID": 1046, "type": "PRES_VIS", "trial_index": 225}, "uniqueid": "MTK1699:3AMW0RGHOE9APHH3RPGSM8HQL15NP8", "dateTime": 1516128251810}, {"current_trial": 226, "trialdata": {"rt": -1, "trial_type": "single-stim", "word": "clock", "stimulus": "<p id=\"stim\">CLOCK</p>", "conditions": [24, 800, "v", 24000], "internal_node_id": "0.0-163.0", "trial": 6, "time_elapsed": 1010988, "serialpos": 13, "key_press": -1, "wordID": 324, "type": "PRES_VIS", "trial_index": 226}, "uniqueid": "MTK1699:3AMW0RGHOE9APHH3RPGSM8HQL15NP8", "dateTime": 1516128253540}, {"current_trial": 227, "trialdata": {"rt": -1, "trial_type": "single-stim", "word": "marker", "stimulus": "<p id=\"stim\">MARKER</p>", "conditions": [24, 800, "v", 24000], "internal_node_id": "0.0-164.0", "trial": 6, "time_elapsed": 1012738, "serialpos": 14, "key_press": -1, "wordID": 869, "type": "PRES_VIS", "trial_index": 227}, "uniqueid": "MTK1699:3AMW0RGHOE9APHH3RPGSM8HQL15NP8", "dateTime": 1516128255290}, {"current_trial": 228, "trialdata": {"rt": -1, "trial_type": "single-stim", "word": "coffee", "stimulus": "<p id=\"stim\">COFFEE</p>", "conditions": [24, 800, "v", 24000], "internal_node_id": "0.0-165.0", "trial": 6, "time_elapsed": 1014449, "serialpos": 15, "key_press": -1, "wordID": 340, "type": "PRES_VIS", "trial_index": 228}, "uniqueid": "MTK1699:3AMW0RGHOE9APHH3RPGSM8HQL15NP8", "dateTime": 1516128257001}, {"current_trial": 229, "trialdata": {"rt": -1, "trial_type": "single-stim", "word": "necklace", "stimulus": "<p id=\"stim\">NECKLACE</p>", "conditions": [24, 800, "v", 24000], "internal_node_id": "0.0-166.0", "trial": 6, "time_elapsed": 1016432, "serialpos": 16, "key_press": -1, "wordID": 939, "type": "PRES_VIS", "trial_index": 229}, "uniqueid": "MTK1699:3AMW0RGHOE9APHH3RPGSM8HQL15NP8", "dateTime": 1516128258984}, {"current_trial": 230, "trialdata": {"rt": -1, "trial_type": "single-stim", "word": "rifle", "stimulus": "<p id=\"stim\">RIFLE</p>", "conditions": [24, 800, "v", 24000], "internal_node_id": "0.0-167.0", "trial": 6, "time_elapsed": 1018313, "serialpos": 17, "key_press": -1, "wordID": 1191, "type": "PRES_VIS", "trial_index": 230}, "uniqueid": "MTK1699:3AMW0RGHOE9APHH3RPGSM8HQL15NP8", "dateTime": 1516128260865}, {"current_trial": 231, "trialdata": {"rt": -1, "trial_type": "single-stim", "word": "dust", "stimulus": "<p id=\"stim\">DUST</p>", "conditions": [24, 800, "v", 24000], "internal_node_id": "0.0-168.0", "trial": 6, "time_elapsed": 1020031, "serialpos": 18, "key_press": -1, "wordID": 507, "type": "PRES_VIS", "trial_index": 231}, "uniqueid": "MTK1699:3AMW0RGHOE9APHH3RPGSM8HQL15NP8", "dateTime": 1516128262584}, {"current_trial": 232, "trialdata": {"rt": -1, "trial_type": "single-stim", "word": "shelter", "stimulus": "<p id=\"stim\">SHELTER</p>", "conditions": [24, 800, "v", 24000], "internal_node_id": "0.0-169.0", "trial": 6, "time_elapsed": 1021752, "serialpos": 19, "key_press": -1, "wordID": 1281, "type": "PRES_VIS", "trial_index": 232}, "uniqueid": "MTK1699:3AMW0RGHOE9APHH3RPGSM8HQL15NP8", "dateTime": 1516128264305}, {"current_trial": 233, "trialdata": {"rt": -1, "trial_type": "single-stim", "word": "doughnut", "stimulus": "<p id=\"stim\">DOUGHNUT</p>", "conditions": [24, 800, "v", 24000], "internal_node_id": "0.0-170.0", "trial": 6, "time_elapsed": 1023440, "serialpos": 20, "key_press": -1, "wordID": 489, "type": "PRES_VIS", "trial_index": 233}, "uniqueid": "MTK1699:3AMW0RGHOE9APHH3RPGSM8HQL15NP8", "dateTime": 1516128265992}, {"current_trial": 234, "trialdata": {"rt": -1, "trial_type": "single-stim", "word": "fragrance", "stimulus": "<p id=\"stim\">FRAGRANCE</p>", "conditions": [24, 800, "v", 24000], "internal_node_id": "0.0-171.0", "trial": 6, "time_elapsed": 1025069, "serialpos": 21, "key_press": -1, "wordID": 598, "type": "PRES_VIS", "trial_index": 234}, "uniqueid": "MTK1699:3AMW0RGHOE9APHH3RPGSM8HQL15NP8", "dateTime": 1516128267621}, {"current_trial": 235, "trialdata": {"rt": -1, "trial_type": "single-stim", "word": "perfume", "stimulus": "<p id=\"stim\">PERFUME</p>", "conditions": [24, 800, "v", 24000], "internal_node_id": "0.0-172.0", "trial": 6, "time_elapsed": 1026998, "serialpos": 22, "key_press": -1, "wordID": 1048, "type": "PRES_VIS", "trial_index": 235}, "uniqueid": "MTK1699:3AMW0RGHOE9APHH3RPGSM8HQL15NP8", "dateTime": 1516128269550}, {"current_trial": 236, "trialdata": {"rt": -1, "trial_type": "single-stim", "word": "sandwich", "stimulus": "<p id=\"stim\">SANDWICH</p>", "conditions": [24, 800, "v", 24000], "internal_node_id": "0.0-173.0", "trial": 6, "time_elapsed": 1028658, "serialpos": 23, "key_press": -1, "wordID": 1231, "type": "PRES_VIS", "trial_index": 236}, "uniqueid": "MTK1699:3AMW0RGHOE9APHH3RPGSM8HQL15NP8", "dateTime": 1516128271211}, {"current_trial": 237, "trialdata": {"rt": -1, "trial_type": "single-stim", "stimulus": "", "internal_node_id": "0.0-174.0-0.0", "time_elapsed": 1030682, "key_press": -1, "type": "PRE_RECALL_DELAY", "trial_index": 237}, "uniqueid": "MTK1699:3AMW0RGHOE9APHH3RPGSM8HQL15NP8", "dateTime": 1516128273234}, {"current_trial": 238, "trialdata": {"rt": -1000, "trial_type": "single-audio", "stimulus": "/static/audio/400Hz.wav", "internal_node_id": "0.0-175.0", "time_elapsed": 1031185, "key_press": -1, "type": "PRE_RECALL_ALERT", "trial_index": 238}, "uniqueid": "MTK1699:3AMW0RGHOE9APHH3RPGSM8HQL15NP8", "dateTime": 1516128273737}, {"current_trial": 239, "trialdata": {"rt": [1643, 3208, 6974, 8398, 10268, 15134, 19153, 21538, 30797], "recwords": ["sandwich", "perfume", "fox", "napkin", "donut", "silk", "kitchen", "hamper", "silver"], "key_times": [306, 427, 535, 785, 1106, 1187, 1330, 1429, 1643, 2148, 2290, 2380, 2587, 2689, 2983, 3063, 3208, 3447, 3599, 3724, 4879, 5036, 5175, 5306, 6430, 6533, 6669, 6974, 7586, 7669, 7775, 7977, 8152, 8278, 8398, 9436, 9497, 9640, 10006, 10123, 10268, 14345, 14573, 14706, 14854, 15134, 18211, 18388, 18454, 18697, 18779, 18933, 19005, 19153, 20874, 20954, 21086, 21270, 21368, 21448, 21538, 30054, 30185, 30265, 30396, 30610, 30706, 30797], "trial_type": "free-recall", "conditions": [24, 800, "v", 24000], "internal_node_id": "0.0-176.0-0.0", "key_presses": [83, 65, 78, 68, 87, 73, 67, 72, 13, 80, 69, 82, 70, 85, 77, 69, 13, 70, 79, 88, 8, 8, 8, 8, 70, 79, 88, 13, 78, 65, 80, 75, 73, 78, 13, 68, 79, 78, 85, 84, 13, 83, 73, 76, 75, 13, 75, 73, 84, 67, 72, 69, 78, 13, 72, 65, 77, 80, 69, 82, 13, 83, 73, 76, 86, 69, 82, 13], "trial": 6, "time_elapsed": 1091189, "type": "FREE_RECALL", "trial_index": 239}, "uniqueid": "MTK1699:3AMW0RGHOE9APHH3RPGSM8HQL15NP8", "dateTime": 1516128333748}, {"current_trial": 240, "trialdata": {"rt": 908, "trial_type": "text", "internal_node_id": "0.0-177.0", "time_elapsed": 1094106, "key_press": 13, "type": "INSTRUCTIONS", "trial_index": 240}, "uniqueid": "MTK1699:3AMW0RGHOE9APHH3RPGSM8HQL15NP8", "dateTime": 1516128336658}, {"current_trial": 241, "trialdata": {"rt": [3396, 5371, 7007, 8581, 10672], "trial_type": "math-distractor", "key_times": [2974, 3135, 3396, 5090, 5371, 6812, 6901, 7007, 8283, 8367, 8581, 10311, 10398, 10672], "responses": ["25", "9", "12", "10", "16"], "num2": [8, 1, 3, 1, 9, 6], "num3": [9, 2, 1, 6, 3, 6], "conditions": [24, 1600, "v", 12000], "internal_node_id": "0.0-178.0", "key_presses": [50, 53, 13, 57, 13, 49, 50, 13, 49, 48, 13, 49, 54, 13], "trial": 7, "time_elapsed": 1108111, "type": "DISTRACTOR", "trial_index": 241, "num1": [8, 6, 8, 3, 4, 1]}, "uniqueid": "MTK1699:3AMW0RGHOE9APHH3RPGSM8HQL15NP8", "dateTime": 1516128350663}, {"current_trial": 242, "trialdata": {"rt": -1, "trial_type": "single-stim", "stimulus": "<p id=\"stim\">10</p>", "internal_node_id": "0.0-179.0-0.0", "time_elapsed": 1111114, "key_press": -1, "trial_index": 242}, "uniqueid": "MTK1699:3AMW0RGHOE9APHH3RPGSM8HQL15NP8", "dateTime": 1516128353667}, {"current_trial": 243, "trialdata": {"rt": -1, "trial_type": "single-stim", "stimulus": "<p id=\"stim\">9</p>", "internal_node_id": "0.0-179.0-1.0", "time_elapsed": 1112116, "key_press": -1, "trial_index": 243}, "uniqueid": "MTK1699:3AMW0RGHOE9APHH3RPGSM8HQL15NP8", "dateTime": 1516128354668}, {"current_trial": 244, "trialdata": {"rt": -1, "trial_type": "single-stim", "stimulus": "<p id=\"stim\">8</p>", "internal_node_id": "0.0-179.0-2.0", "time_elapsed": 1113118, "key_press": -1, "trial_index": 244}, "uniqueid": "MTK1699:3AMW0RGHOE9APHH3RPGSM8HQL15NP8", "dateTime": 1516128355673}, {"current_trial": 245, "trialdata": {"rt": -1, "trial_type": "single-stim", "stimulus": "<p id=\"stim\">7</p>", "internal_node_id": "0.0-179.0-3.0", "time_elapsed": 1114124, "key_press": -1, "trial_index": 245}, "uniqueid": "MTK1699:3AMW0RGHOE9APHH3RPGSM8HQL15NP8", "dateTime": 1516128356676}, {"current_trial": 246, "trialdata": {"rt": -1, "trial_type": "single-stim", "stimulus": "<p id=\"stim\">6</p>", "internal_node_id": "0.0-179.0-4.0", "time_elapsed": 1115126, "key_press": -1, "trial_index": 246}, "uniqueid": "MTK1699:3AMW0RGHOE9APHH3RPGSM8HQL15NP8", "dateTime": 1516128357678}, {"current_trial": 247, "trialdata": {"rt": -1, "trial_type": "single-stim", "stimulus": "<p id=\"stim\">5</p>", "internal_node_id": "0.0-179.0-5.0", "time_elapsed": 1116129, "key_press": -1, "trial_index": 247}, "uniqueid": "MTK1699:3AMW0RGHOE9APHH3RPGSM8HQL15NP8", "dateTime": 1516128358681}, {"current_trial": 248, "trialdata": {"rt": -1, "trial_type": "single-stim", "stimulus": "<p id=\"stim\">4</p>", "internal_node_id": "0.0-179.0-6.0", "time_elapsed": 1117131, "key_press": -1, "trial_index": 248}, "uniqueid": "MTK1699:3AMW0RGHOE9APHH3RPGSM8HQL15NP8", "dateTime": 1516128359683}, {"current_trial": 249, "trialdata": {"rt": -1, "trial_type": "single-stim", "stimulus": "<p id=\"stim\">3</p>", "internal_node_id": "0.0-179.0-7.0", "time_elapsed": 1118132, "key_press": -1, "trial_index": 249}, "uniqueid": "MTK1699:3AMW0RGHOE9APHH3RPGSM8HQL15NP8", "dateTime": 1516128360685}, {"current_trial": 250, "trialdata": {"rt": -1, "trial_type": "single-stim", "stimulus": "<p id=\"stim\">2</p>", "internal_node_id": "0.0-179.0-8.0", "time_elapsed": 1119135, "key_press": -1, "trial_index": 250}, "uniqueid": "MTK1699:3AMW0RGHOE9APHH3RPGSM8HQL15NP8", "dateTime": 1516128361687}, {"current_trial": 251, "trialdata": {"rt": -1, "trial_type": "single-stim", "stimulus": "<p id=\"stim\">1</p>", "internal_node_id": "0.0-179.0-9.0", "time_elapsed": 1120138, "key_press": -1, "trial_index": 251}, "uniqueid": "MTK1699:3AMW0RGHOE9APHH3RPGSM8HQL15NP8", "dateTime": 1516128362690}, {"current_trial": 252, "trialdata": {"rt": -1, "trial_type": "single-stim", "stimulus": "<p id=\"stim\">+</p>", "internal_node_id": "0.0-180.0-0.0", "time_elapsed": 1121640, "key_press": -1, "type": "FIXATION", "trial_index": 252}, "uniqueid": "MTK1699:3AMW0RGHOE9APHH3RPGSM8HQL15NP8", "dateTime": 1516128364192}, {"current_trial": 253, "trialdata": {"rt": -1, "trial_type": "single-stim", "word": "tuba", "stimulus": "<p id=\"stim\">TUBA</p>", "conditions": [24, 1600, "v", 12000], "internal_node_id": "0.0-181.0", "trial": 7, "time_elapsed": 1123242, "serialpos": 0, "key_press": -1, "wordID": 1514, "type": "PRES_VIS", "trial_index": 253}, "uniqu